id,age,condition,counterbalance,block,trialinblock,trial,tstart,tend,trialstim,response,RT,trialtype,ethicfreq,norm_mean,norm_sd,norm_se
029,68,1,2,0,0,practice,3.5446137189865112e-06,7.791930412175134,stimuli/prac_217_1.png,a,7.771066030720249,harmless,NA,NA,NA,NA
029,68,1,2,1,1,1,4.474460273515433,8.680440114811063,stimuli/179_xb.png,a,4.194218026706949,harmless,0.333,6.704918033,0.882123617,0.112944356
029,68,1,2,1,2,2,9.347229924052954,14.647958460263908,stimuli/175_xb.png,a,5.289406647440046,harmless,0.333,6.6,1.028409995,0.13276716
029,68,1,2,1,3,3,15.26978130522184,20.94392500538379,stimuli/299_za.png,l,5.66286710370332,awful,0.333,1.288135593,0.929420425,0.121000233
029,68,1,2,1,4,4,21.694833214161918,36.71192691475153,stimuli/212_ya.png,l,15.006329497788101,ambig,0.333,5.677966102,1.490668422,0.194068498
029,68,1,2,1,5,5,37.30613919137977,45.303955709561706,stimuli/229_za.png,l,7.987259084358811,awful,0.333,3.406779661,2.043649913,0.266060557
029,68,1,2,1,6,6,45.864136941730976,55.656001187860966,stimuli/211_zb.png,a,9.780068954685703,awful,0.333,3.983333333,2.127237938,0.274625237
029,68,1,2,1,7,7,56.219121298287064,62.775894581573084,stimuli/154_xc.png,a,6.544955148827285,harmless,0.333,6.5,0.965506805,0.124646393
029,68,1,2,1,8,8,63.32324982737191,70.07990109734237,stimuli/279_ya.png,a,6.744729160098359,ambig,0.333,5.31147541,1.970964092,0.252356093
029,68,1,2,1,9,9,70.64385419199243,76.42398301092908,stimuli/344_za.png,l,5.768313047476113,awful,0.333,2.711864407,2.043077863,0.265986082
029,68,1,2,1,10,10,76.98609960195608,80.97591632185504,stimuli/103_xb.png,a,3.978147065266967,harmless,0.333,6.779661017,0.589207434,0.076708274
029,68,1,2,1,11,11,81.53682026127353,86.77595365839079,stimuli/187_xc.png,a,5.227215225575492,harmless,0.333,6.224137931,1.185335891,0.155642228
029,68,1,2,1,12,12,87.34422999969684,94.46398279047571,stimuli/239_ya.png,a,7.107941745547578,ambig,0.333,5.157894737,1.925296579,0.255011762
029,68,1,2,1,13,13,95.02170918090269,100.26395317330025,stimuli/247_ya.png,a,5.230495962314308,ambig,0.333,4.65,2.081598147,0.268733165
029,68,1,2,1,14,14,100.83158793952316,108.67197360913269,stimuli/276_ya.png,l,7.828563990537077,ambig,0.333,5.186440678,1.804922162,0.234980851
029,68,1,2,1,15,15,109.24054494104348,114.42401451873593,stimuli/370_za.png,l,5.171558495610952,awful,0.333,2.393442623,1.882185684,0.240989182
029,68,1,2,1,16,16,114.9826499056071,122.51990064047277,stimuli/216_xa.png,a,7.525533030973747,harmless,0.333,6.603448276,0.877389573,0.115206895
029,68,1,2,1,17,17,123.08208457916044,169.52008889894933,stimuli/178_xa.png,a,46.426539071137086,harmless,0.333,6.483333333,1.112207557,0.143585378
029,68,1,2,1,18,18,170.21878298465163,180.88827418279834,stimuli/189_yb.png,a,10.658325272612274,ambig,0.333,5.983333333,1.455459234,0.187898979
029,68,1,2,1,19,19,181.55145242484286,185.73587786685675,stimuli/192_za.png,l,4.172736488748342,awful,0.333,2.68852459,2.093967396,0.268105052
029,68,1,2,1,20,20,186.40115648903884,192.69586705951951,stimuli/339_ya.png,l,6.283559216884896,ambig,0.333,4.949152542,1.960152429,0.25519011
029,68,1,2,1,21,21,193.54984829062596,200.99990823375992,stimuli/252_zb.png,l,7.4391511988360435,awful,0.333,2.711864407,1.983125776,0.258180985
029,68,1,2,1,22,22,201.5767771115061,207.97594074043445,stimuli/267_ya.png,a,6.387701531173661,ambig,0.333,5.103448276,1.898195405,0.249245267
029,68,1,2,1,23,23,208.56604599161074,213.37584007321857,stimuli/294_za.png,l,4.798892426304519,awful,0.333,1.557377049,1.38473331,0.177296933
029,68,1,2,1,24,24,214.24796460429206,220.95989309437573,stimuli/108_xb.png,a,6.700548706110567,harmless,0.333,6.568965517,1.077880782,0.141532681
029,68,1,2,2,1,25,231.40170629811473,239.10392924328335,stimuli/102_xc.png,a,7.69096446572803,harmless,0.333,6.66011236,0.937292468,0.049676401
029,68,1,2,2,2,26,239.71430535032414,247.61600416526198,stimuli/245_yb.png,a,7.891389110358432,ambig,0.333,4.949152542,2.096168334,0.272897873
029,68,1,2,2,3,27,248.18860335927457,252.54387443559244,stimuli/152_xa.png,a,4.343577003106475,harmless,0.333,6.576271186,0.968528743,0.126091702
029,68,1,2,2,4,28,253.13994133262895,258.7601525601931,stimuli/320_za.png,l,5.608456895919517,awful,0.333,1.423728814,1.117314975,0.14546202
029,68,1,2,2,5,29,259.40395279508084,266.8080863656942,stimuli/352_zb.png,l,7.392995214089751,awful,0.333,2.93442623,2.135952968,0.273480754
029,68,1,2,2,6,30,267.386314405594,273.71195842232555,stimuli/281_ya.png,a,6.314485967857763,ambig,0.333,5.881355932,1.543448286,0.200939852
029,68,1,2,2,7,31,274.3293812207412,284.0880958493799,stimuli/286_ya.png,l,9.747552641434595,ambig,0.333,5.06779661,1.779814082,0.231712057
029,68,1,2,2,8,32,284.71880346443504,290.4320340093691,stimuli/295_za.png,l,5.700967758195475,awful,0.333,2.3,1.825432384,0.235662307
029,68,1,2,2,9,33,291.1104009193368,296.3838548378553,stimuli/305_zb.png,a,5.261820497689769,awful,0.333,2.75,2.12830003,0.274762352
029,68,1,2,2,10,34,296.9701823191717,302.007782001514,stimuli/163_xa.png,a,5.02662004576996,harmless,0.333,6.627118644,0.963082427,0.125382652
029,68,1,2,2,11,35,302.6226451951079,308.98379166494124,stimuli/319_ya.png,l,6.349650107324123,ambig,0.333,4.216666667,2.108028774,0.272145344
029,68,1,2,2,12,36,309.5692294482142,317.83180691767484,stimuli/323_yb.png,a,8.251521426718682,ambig,0.333,4.603448276,1.955107169,0.256718148
029,68,1,2,2,13,37,318.4320418862626,322.8317383886315,stimuli/160_xb.png,a,4.3881706015672535,harmless,0.333,6.666666667,0.680644427,0.087870818
029,68,1,2,2,14,38,323.4623865329195,330.3758046270814,stimuli/329_zb.png,l,6.901715750340372,awful,0.333,2.406779661,1.992387617,0.259386774
029,68,1,2,2,15,39,330.99593275319785,335.63986256346107,stimuli/260_ya.png,a,4.632351134205237,ambig,0.333,4.966101695,2.016877936,0.262575142
029,68,1,2,2,16,40,336.2523252663668,339.8477950929664,stimuli/312_yb.png,a,3.583941168850288,ambig,0.333,4.677966102,2.112692986,0.275049199
029,68,1,2,2,17,41,340.4263992556371,345.4638083167374,stimuli/206_xa.png,a,5.026572784408927,harmless,0.333,6.325842697,1.136094431,0.060212884
029,68,1,2,2,18,42,346.0645541034173,350.9037830475718,stimuli/310_zb.png,l,4.827763301786035,awful,0.333,3.224137931,2.102989547,0.276136056
029,68,1,2,2,19,43,351.52400924125686,356.4557238414418,stimuli/149_xa.png,a,4.920205634785816,harmless,0.333,6.721311475,0.933294301,0.11949609
029,68,1,2,2,20,44,357.1003153130878,364.71176622551866,stimuli/272_xb.png,a,7.6000014177989215,harmless,0.333,6.355932203,1.029943284,0.134087194
029,68,1,2,2,21,45,365.3702242244035,369.615770614706,stimuli/345_zb.png,l,4.23378418199718,awful,0.333,3.694915254,2.191317013,0.285285176
029,68,1,2,2,22,46,370.2338082063943,374.86373561271466,stimuli/371_zb.png,l,4.6183065886143595,awful,0.333,3.131147541,2.085468851,0.267016925
029,68,1,2,2,23,47,375.486689977115,387.05578433629125,stimuli/210_yb.png,a,11.557213603286073,ambig,0.333,5.557377049,1.76564049,0.226067099
029,68,1,2,2,24,48,387.64413697319105,392.2159165740013,stimuli/155_xb.png,a,4.560278512071818,harmless,0.333,6.655737705,0.892286312,0.114245555
029,68,1,2,3,1,49,401.4416068282444,406.84773365291767,stimuli/317_za.png,l,5.394428025465459,awful,0.333,3.65,2.03215674,0.262350307
029,68,1,2,3,2,50,407.4645830115769,412.31969576189294,stimuli/202_yb.png,a,4.844027956714854,ambig,0.333,5.431034483,1.892849601,0.248543329
029,68,1,2,3,3,51,412.89799233106896,418.0316967195831,stimuli/328_za.png,l,5.122176124714315,awful,0.333,2.706896552,1.955725922,0.256799395
029,68,1,2,3,4,52,418.60788385011256,426.3517114967108,stimuli/347_zb.png,l,7.732117819599807,awful,0.333,3.796610169,2.147810923,0.279621165
029,68,1,2,3,5,53,426.99849787168205,431.0557347116992,stimuli/236_yb.png,a,4.04575150529854,ambig,0.333,5.93442623,1.49297078,0.19115532
029,68,1,2,3,6,54,431.6815275235567,436.8476895422209,stimuli/243_ya.png,a,5.155044536106288,ambig,0.333,5.830508475,1.652088985,0.215083666
029,68,1,2,3,7,55,437.4837637017481,442.34367900923826,stimuli/322_za.png,l,4.848351991036907,awful,0.333,2.406779661,1.975004531,0.257123689
029,68,1,2,3,8,56,442.90779909444973,446.27971646236256,stimuli/156_xc.png,a,3.3602406240534037,harmless,0.333,6.590163934,0.955284411,0.122311635
029,68,1,2,3,9,57,446.86597344535403,450.3677284226287,stimuli/290_zb.png,l,3.4901164365001023,awful,0.333,2.586206897,2.026443456,0.266085062
029,68,1,2,3,10,58,450.94219287112355,457.7756555171218,stimuli/166_xa.png,a,6.8217666037380695,harmless,0.333,6.593220339,1.052397002,0.13701042
029,68,1,2,3,11,59,458.3772307431791,462.3837079333607,stimuli/190_xc.png,a,3.9949225385207683,harmless,0.333,6.517241379,1.046990328,0.137476565
029,68,1,2,3,12,60,463.0599106599111,467.43987981393,stimuli/240_xa.png,a,4.367941493401304,harmless,0.333,6.482758621,1.096107616,0.143925981
029,68,1,2,3,13,61,468.06647410220467,473.7676458726637,stimuli/219_ya.png,a,5.6895635556429625,ambig,0.333,5.271186441,1.998538332,0.260187529
029,68,1,2,3,14,62,474.3852738647256,478.47972638742067,stimuli/366_za.png,l,4.0827332434710115,awful,0.333,3.689655172,2.036568291,0.267414518
029,68,1,2,3,15,63,479.10790196689777,484.29605161584914,stimuli/167_xb.png,a,5.176648954162374,harmless,0.333,6.590163934,0.955284411,0.122311635
029,68,1,2,3,16,64,484.925202751765,488.85565980221145,stimuli/111_xa.png,a,3.918921303236857,harmless,0.333,6.590163934,0.863655973,0.110579816
029,68,1,2,3,17,65,489.43147986824624,499.3356520354282,stimuli/325_yb.png,l,9.89263838948682,ambig,0.333,5.131147541,1.811770863,0.231973488
029,68,1,2,3,18,66,499.9583500060253,504.7756724525243,stimuli/262_ya.png,a,4.806085628457367,ambig,0.333,5.491525424,1.7750462,0.231091332
029,68,1,2,3,19,67,505.3766683312133,509.97566859284416,stimuli/144_xa.png,a,4.587766200536862,harmless,0.333,6.542372881,1.00553698,0.130909764
029,68,1,2,3,20,68,510.5938471814152,515.1756753670052,stimuli/139_xa.png,a,4.570089214015752,harmless,0.333,6.724137931,0.790138861,0.103750315
029,68,1,2,3,21,69,515.79504809645,519.7676383894868,stimuli/213_ya.png,a,3.9610793583560735,ambig,0.333,5.98245614,1.597891781,0.211645937
029,68,1,2,3,22,70,520.3478069084231,523.9596493036952,stimuli/326_zb.png,l,3.5999009869992733,awful,0.333,3.389830508,2.220724867,0.289113752
029,68,1,2,3,23,71,524.5621122587472,531.0157211476471,stimuli/232_yb.png,l,6.442109375726432,ambig,0.333,5.483333333,1.845669845,0.238274952
029,68,1,2,3,24,72,531.6080142131541,536.9355790165719,stimuli/338_zb.png,l,5.315962102729827,awful,0.333,3.310344828,2.137443107,0.28066003
029,68,1,2,4,1,73,546.1616457875352,551.623633748386,stimuli/285_yb.png,l,5.44980433722958,ambig,0.333,4.120689655,2.119893958,0.278355714
029,68,1,2,4,2,74,552.1947973740753,555.8316182654817,stimuli/308_zb.png,l,3.625342251965776,awful,0.333,1.644067797,1.471132708,0.191525165
029,68,1,2,4,3,75,556.3981872848235,570.1516956642736,stimuli/350_ya.png,l,13.741644165012985,ambig,0.333,4.915254237,2.02814792,0.264042369
029,68,1,2,4,4,76,570.7314888478722,575.5276298667304,stimuli/327_zb.png,l,4.784586367197335,awful,0.333,2.502808989,1.906990248,0.101070281
029,68,1,2,4,5,77,576.1465610950254,583.8476600036956,stimuli/201_yb.png,l,7.689528503222391,ambig,0.333,5.898305085,1.626238682,0.211718243
029,68,1,2,4,6,78,584.416264812462,589.7516131929588,stimuli/147_ya.png,a,5.323312055319548,ambig,0.333,5.883333333,1.766847875,0.22809908
029,68,1,2,4,7,79,590.32843244588,595.7516001958866,stimuli/133_xa.png,a,5.411135363159701,harmless,0.333,6.568965517,1.186356193,0.1557762
029,68,1,2,4,8,80,596.3769570202567,599.2879537497647,stimuli/331_za.png,l,2.8997484899591655,awful,0.333,1.983606557,1.638004917,0.209725039
029,68,1,2,4,9,81,599.9172738457564,604.7596393788699,stimuli/358_za.png,l,4.830856961430982,awful,0.333,3.949152542,2.112554662,0.275031191
029,68,1,2,4,10,82,605.3192129067611,611.0636238392908,stimuli/362_zb.png,l,5.732819653116167,awful,0.333,1.474576271,1.222715071,0.159183944
029,68,1,2,4,11,83,611.6422193374019,618.1516192581039,stimuli/165_xb.png,a,6.497762561310083,harmless,0.333,6.557377049,1.008705278,0.129151477
029,68,1,2,4,12,84,618.7189771505073,623.6635909925681,stimuli/172_xb.png,a,4.933089122641832,harmless,0.333,6.482758621,1.127664553,0.14806961
029,68,1,2,4,13,85,624.2782029125374,630.4555666970555,stimuli/207_yb.png,a,6.165509022306651,ambig,0.333,5.655737705,1.662179753,0.212820309
029,68,1,2,4,14,86,631.1113890786655,634.6155646331608,stimuli/349_za.png,l,3.4933747239410877,awful,0.333,3.288135593,2.101320172,0.273568585
029,68,1,2,4,15,87,635.2423097644933,639.271635137964,stimuli/171_xa.png,a,4.017509208060801,harmless,0.333,6.465517241,1.046556882,0.137419651
029,68,1,2,4,16,88,639.9481619999278,644.3595616337843,stimuli/284_ya.png,a,4.399423961061984,ambig,0.333,5.948275862,1.431750417,0.18799804
029,68,1,2,4,17,89,644.9690559196752,649.8796532894485,stimuli/101_xa.png,a,4.899199468782172,harmless,0.333,6.508522727,1.13475832,0.060482822
029,68,1,2,4,18,90,650.5007542148232,655.8396200332791,stimuli/351_zb.png,l,5.32764593581669,awful,0.333,3.06779661,2.033040926,0.264679384
029,68,1,2,4,19,91,656.4665199459996,660.8075412828475,stimuli/346_zb.png,l,4.329484802205116,awful,0.333,1.288135593,0.983499162,0.128040685
029,68,1,2,4,20,92,661.384769347962,667.5115286577493,stimuli/330_ya.png,l,6.115485863992944,ambig,0.333,4.796610169,2.049219036,0.266785595
029,68,1,2,4,21,93,668.1842478173785,675.7756019539665,stimuli/265_yb.png,a,7.5796273744199425,ambig,0.333,5.627118644,1.856008928,0.241631781
029,68,1,2,4,22,94,676.3970423745923,680.2395965598989,stimuli/274_xb.png,a,3.832007779274136,harmless,0.333,6.491525424,1.179901828,0.153610134
029,68,1,2,4,23,95,680.9136740940157,685.0795781437773,stimuli/168_xa.png,a,4.153823613887653,harmless,0.333,6.474576271,1.164946827,0.151663159
029,68,1,2,4,24,96,685.6640990537126,690.8315977856982,stimuli/159_xa.png,a,5.155862947925925,harmless,0.333,6.389830508,1.174689235,0.152931512
029,68,1,2,5,1,97,699.7006050259806,705.5515193787869,stimuli/270_yb.png,l,5.839511725585908,ambig,0.25,5.534482759,1.912246013,0.251090203
029,68,1,2,5,2,98,706.1208492578007,711.7515639620833,stimuli/255_xb.png,a,5.618931622011587,harmless,0.25,6.770491803,0.642740036,0.082294429
029,68,1,2,5,3,99,712.3210013611242,716.0395381920971,stimuli/119_xc.png,a,3.7066651333589107,harmless,0.25,6.694915254,0.914523379,0.119060803
029,68,1,2,5,4,100,716.6492573639844,722.191544206813,stimuli/209_ya.png,a,5.5304159328807145,ambig,0.25,5.603448276,1.825161903,0.239655499
029,68,1,2,5,5,101,722.8751055507455,729.1994908358902,stimuli/258_ya.png,a,6.312812910415232,ambig,0.25,5.627118644,1.78014243,0.231754804
029,68,1,2,5,6,102,729.7723539066501,735.7195427133702,stimuli/191_ya.png,a,5.935506942681968,ambig,0.25,5.517241379,2.062542966,0.270825159
029,68,1,2,5,7,103,736.2841527429409,739.0795363960788,stimuli/364_za.png,l,2.78362577711232,awful,0.25,1.677966102,1.279017376,0.166513879
029,68,1,2,5,8,104,739.6443587085232,743.9756784390192,stimuli/113_xb.png,a,4.319596512708813,harmless,0.25,6.733333333,0.660422737,0.085260209
029,68,1,2,5,9,105,744.5980605450459,748.3040281771682,stimuli/314_zb.png,l,3.694437398808077,awful,0.25,1.833333333,1.451669602,0.18740974
029,68,1,2,5,10,106,748.868681136053,753.0394948688336,stimuli/368_za.png,l,4.158996385987848,awful,0.25,3.590163934,2.02794682,0.259651984
029,68,1,2,5,11,107,753.6637713739183,760.8155765272677,stimuli/372_zb.png,l,7.140135892434046,awful,0.25,2.796610169,2.082601664,0.271131643
029,68,1,2,5,12,108,761.3922839281149,765.8796280834358,stimuli/273_ya.png,a,4.476042352616787,ambig,0.25,5.551724138,1.836973233,0.241206403
029,68,1,2,5,13,109,766.4967775526457,772.5995370734017,stimuli/237_ya.png,l,6.091590050375089,ambig,0.25,4.305084746,2.019339575,0.26289562
029,68,1,2,5,14,110,773.1881764302962,777.015499412315,stimuli/105_xa.png,a,3.8161613885313272,harmless,0.25,6.557377049,1.088187946,0.139328189
029,68,1,2,5,15,111,777.607639271766,791.799540302949,stimuli/228_ya.png,l,14.181579905096442,ambig,0.25,5.442622951,1.793735303,0.229664272
029,68,1,2,5,16,112,792.3853668123484,796.9274976919405,stimuli/127_xb.png,a,4.530699895694852,harmless,0.25,6.423728814,1.162686987,0.151368953
029,68,1,2,5,17,113,797.5220467068721,801.1594780595042,stimuli/107_xa.png,a,3.6256695380434394,harmless,0.25,6.813559322,0.540580029,0.070377525
029,68,1,2,5,18,114,801.7741250318941,805.2954454869032,stimuli/304_ya.png,l,3.509833151008934,ambig,0.25,4.034482759,2.017167697,0.264867095
029,68,1,2,5,19,115,805.895680455491,810.8234735319857,stimuli/169_xc.png,a,4.916261661797762,harmless,0.25,6.603448276,0.916508538,0.120343467
029,68,1,2,5,20,116,811.4386821284425,815.4554828077089,stimuli/104_xc.png,a,4.005331098334864,harmless,0.25,6.745762712,0.756425814,0.098478253
029,68,1,2,5,21,117,816.1089535355568,817.8475264899898,stimuli/292_zb.png,l,1.7274995825719088,awful,0.25,2.396551724,1.955107169,0.256718148
029,68,1,2,5,22,118,818.4206687975675,823.4314747480676,stimuli/181_xa.png,a,4.999018929665908,harmless,0.25,6.666666667,0.950765377,0.122743282
029,68,1,2,5,23,119,824.0616384621244,826.359474199824,stimuli/337_zb.png,l,2.28624524618499,awful,0.25,3.033333333,2.20143764,0.284204377
029,68,1,2,5,24,120,826.9443227897864,832.1114757249597,stimuli/193_xc.png,a,5.155386000638828,harmless,0.25,6.482758621,1.012923151,0.133003326
029,68,1,2,6,1,121,840.9903066642582,844.7114818687551,stimuli/115_xb.png,a,3.709650879027322,harmless,0.166,6.440677966,1.021681954,0.133011661
029,68,1,2,6,2,122,845.3113615883049,850.3834212133661,stimuli/204_xb.png,a,5.060522696468979,harmless,0.166,6.508474576,0.858484658,0.111765183
029,68,1,2,6,3,123,850.9707108603325,855.647441734327,stimuli/225_ya.png,a,4.6652100931387395,ambig,0.166,5.85,1.792876677,0.231459384
029,68,1,2,6,4,124,856.2684268690646,861.4238254725933,stimuli/321_zb.png,l,5.143956197891384,awful,0.166,2.918032787,2.177881861,0.278849198
029,68,1,2,6,5,125,861.9920340722892,872.1034771080595,stimuli/315_yb.png,l,10.099769048858434,ambig,0.166,5.050847458,1.915667965,0.249398726
029,68,1,2,6,6,126,872.670597117627,876.783467057161,stimuli/117_xc.png,a,4.101023054216057,harmless,0.166,6.627118644,0.868972939,0.113130641
029,68,1,2,6,7,127,877.3602236886509,882.4794940182474,stimuli/220_yb.png,l,5.107562077930197,ambig,0.166,4.75,2.096203186,0.270618668
029,68,1,2,6,8,128,883.0853385340888,887.6714108032174,stimuli/266_zb.png,l,4.574668460292742,awful,0.166,3.491525424,1.888010094,0.245797978
029,68,1,2,6,9,129,888.2929169961717,904.0634580301121,stimuli/249_ya.png,l,15.758527158061042,ambig,0.166,5.327868852,1.859402337,0.238072074
029,68,1,2,6,10,130,904.6335307026748,910.5754144047387,stimuli/148_xc.png,a,5.930096681462601,harmless,0.166,6.491525424,1.135218061,0.147792803
029,68,1,2,6,11,131,911.1851670537144,914.9916311679408,stimuli/196_xb.png,a,3.7942627677693963,harmless,0.166,6.594366197,0.982313556,0.05213579
029,68,1,2,6,12,132,915.5665564159863,923.3994298686739,stimuli/277_yb.png,l,7.821077373577282,ambig,0.166,5.491525424,2.02886822,0.264136144
029,68,1,2,6,13,133,923.9642710855696,929.5594234724995,stimuli/198_yb.png,l,5.583381907548755,ambig,0.166,5.101694915,1.83542643,0.238952168
029,68,1,2,6,14,134,930.1522565006744,933.0394168873318,stimuli/298_za.png,l,2.8756321226246655,awful,0.166,2.881355932,2.026418156,0.263817173
029,68,1,2,6,15,135,933.6811407667119,939.5834031752311,stimuli/170_xc.png,a,5.890786132076755,harmless,0.166,6.583333333,1.062323432,0.137145365
029,68,1,2,6,16,136,940.156952719437,945.2234090988059,stimuli/280_xb.png,a,5.054724103072658,harmless,0.166,6.333333333,1.068289726,0.137915611
029,68,1,2,6,17,137,945.8371667668689,952.9833978191018,stimuli/188_xa.png,a,7.134552339091897,harmless,0.166,6.655172414,0.806807095,0.105938962
029,68,1,2,6,18,138,953.5614108191803,960.1273851308506,stimuli/271_ya.png,l,6.554460226325318,ambig,0.166,5.711864407,1.771915459,0.230683744
029,68,1,2,6,19,139,960.7378510348499,963.8234069719911,stimuli/359_za.png,l,3.0740646948106587,awful,0.166,2.01754386,1.641985167,0.217486248
029,68,1,2,6,20,140,964.4093350935727,968.2874204823747,stimuli/197_xa.png,a,3.866490958724171,harmless,0.166,6.779661017,0.55918033,0.072799078
029,68,1,2,6,21,141,968.8637667265721,974.7597118464764,stimuli/118_xb.png,a,5.884330603759736,harmless,0.166,6.474576271,0.953323265,0.124112118
029,68,1,2,6,22,142,975.3678875365295,983.9993958403356,stimuli/254_ya.png,a,8.620220679789782,ambig,0.166,5.983606557,1.627798137,0.208418195
029,68,1,2,6,23,143,984.5587058851961,987.9273566952907,stimuli/146_xa.png,a,3.3568086507730186,harmless,0.166,6.442622951,1.162247681,0.148810567
029,68,1,2,6,24,144,988.5087071456946,992.927385445917,stimuli/182_xb.png,a,4.407127587124705,harmless,0.166,6.542372881,0.988241802,0.128658124
029,68,1,2,7,1,145,1001.8680222318508,1007.3993566131685,stimuli/135_xa.png,a,5.520314178662375,harmless,0.083,6.508474576,1.179901828,0.153610134
029,68,1,2,7,2,146,1007.9993844188284,1012.1753579271026,stimuli/180_xc.png,a,4.164436579681933,harmless,0.083,6.672131148,0.723908638,0.092687003
029,68,1,2,7,3,147,1012.7888887401205,1017.487352425931,stimuli/186_xa.png,a,4.6869775634258986,harmless,0.083,6.65,0.879618561,0.113558268
029,68,1,2,7,4,148,1018.0481460883748,1026.3193353929091,stimuli/200_ya.png,l,8.259305397747084,ambig,0.083,5.862068966,1.444266048,0.189641423
029,68,1,2,7,5,149,1026.9287453959696,1029.3193688697647,stimuli/316_za.png,l,2.378583604004234,awful,0.083,2.344827586,1.802062407,0.236622386
029,68,1,2,7,6,150,1029.9519165330566,1038.8554294023197,stimuli/257_yb.png,l,8.8912386612501,ambig,0.083,5.620689655,1.843219782,0.242026615
029,68,1,2,7,7,151,1039.4302569765132,1048.807314821519,stimuli/215_yb.png,l,9.365470504155383,ambig,0.083,5.866666667,1.466769385,0.189359113
029,68,1,2,7,8,152,1049.3899153389502,1054.3353964295238,stimuli/251_ya.png,l,4.933724789880216,ambig,0.083,5.655172414,1.792300532,0.235340589
029,68,1,2,7,9,153,1054.9170024858322,1064.3913591778837,stimuli/238_xb.png,l,9.462288071401417,harmless,0.083,6.4,1.076718178,0.139003719
029,68,1,2,7,10,154,1065.0143560776487,1071.2073850836605,stimuli/203_yb.png,l,6.181395979132503,ambig,0.083,6,1.542501327,0.200816568
029,68,1,2,7,11,155,1071.7820373964496,1076.1033187820576,stimuli/264_xa.png,a,4.310250155162066,harmless,0.083,6.533333333,0.947193297,0.122282129
029,68,1,2,7,12,156,1076.6722760829143,1080.6073135612532,stimuli/306_zb.png,l,3.9233197746798396,awful,0.083,2.352112676,1.917055413,0.101746737
029,68,1,2,7,13,157,1081.16672443063,1087.5433395928703,stimuli/223_yb.png,a,6.36490809218958,ambig,0.083,5.542372881,1.77455224,0.231027024
029,68,1,2,7,14,158,1088.1369965467602,1092.0233066200744,stimuli/114_xc.png,a,3.8731119027361274,harmless,0.083,6.644067797,0.97843492,0.127381377
029,68,1,2,7,15,159,1092.6546743209474,1106.5353937514592,stimuli/263_ya.png,l,13.86914666206576,ambig,0.083,4.983050847,2.071910042,0.269739712
029,68,1,2,7,16,160,1107.1336204994004,1112.7272963579744,stimuli/183_xb.png,a,5.582081034546718,harmless,0.083,6.448275862,1.095003225,0.143780967
029,68,1,2,7,17,161,1113.3539820185397,1118.3672754999716,stimuli/214_xb.png,a,5.0015781407710165,harmless,0.083,6.465517241,0.940614156,0.12350869
029,68,1,2,7,18,162,1118.9742440520786,1122.9993229787797,stimuli/259_xc.png,a,4.01342266285792,harmless,0.083,6.568965517,0.993170874,0.130409725
029,68,1,2,7,19,163,1123.59696486569,1128.855334091466,stimuli/110_xa.png,a,5.246712567983195,harmless,0.083,6.428571429,1.059281795,0.141552484
029,68,1,2,7,20,164,1129.4299852228723,1132.8552616238594,stimuli/116_xa.png,a,3.413817847846076,harmless,0.083,6.63559322,0.958030802,0.050918763
029,68,1,2,7,21,165,1133.4769304750953,1138.1112874664832,stimuli/242_xb.png,a,4.622759016696364,harmless,0.083,6.576271186,0.913564256,0.118935936
029,68,1,2,7,22,166,1138.6942318114452,1142.6873706215993,stimuli/124_xa.png,a,3.981541623128578,harmless,0.083,6.344262295,1.181598436,0.151288177
029,68,1,2,7,23,167,1143.2902447516099,1150.01525680325,stimuli/234_xb.png,a,6.713749633636326,harmless,0.083,6.637931034,0.788030542,0.103473479
029,68,1,2,7,24,168,1150.5789089994505,1159.2792737795971,stimuli/235_ya.png,a,8.688541525509208,ambig,0.083,5.694915254,1.567495667,0.204070554
029,68,1,2,8,1,169,1168.0140666009393,1170.839246667223,stimuli/230_yb.png,l,2.8135576732456684,ambig,0.0412,4.98245614,1.875511626,0.248417583
029,68,1,2,8,2,170,1171.4166173045523,1174.871233257465,stimuli/120_xa.png,a,3.442854138324037,harmless,0.0412,6.440677966,1.054893138,0.137335389
029,68,1,2,8,3,171,1175.4867403893732,1179.919239136856,stimuli/282_xc.png,a,4.4211193572264165,harmless,0.0412,6.55,0.998728005,0.128935231
029,68,1,2,8,4,172,1180.5027120229788,1184.1513230858836,stimuli/161_xc.png,a,3.637188743567094,harmless,0.0412,6.796610169,0.609682252,0.079373868
029,68,1,2,8,5,173,1184.728955236962,1190.0152670431416,stimuli/287_ya.png,l,5.274756760569289,ambig,0.0412,5.950819672,1.407435369,0.180203633
029,68,1,2,8,6,174,1190.5848351991735,1196.519669452915,stimuli/153_xb.png,a,5.9233351345174015,harmless,0.0412,6.633333333,0.973664521,0.125699549
029,68,1,2,8,7,175,1197.0949330145959,1205.1512856706977,stimuli/336_ya.png,l,8.044835419859737,ambig,0.0412,5.033898305,1.884291705,0.245313885
029,68,1,2,8,8,176,1205.7210826508235,1208.5992306612898,stimuli/122_xa.png,a,2.8663905281573534,harmless,0.0412,6.457627119,1.039264227,0.135300678
029,68,1,2,8,9,177,1209.1550866775215,1216.0793103284668,stimuli/283_yb.png,a,6.9125276086851954,ambig,0.0412,5.949152542,1.478859402,0.192531095
029,68,1,2,8,10,178,1216.7321103366558,1223.45526501094,stimuli/137_xa.png,a,6.711139222839847,harmless,0.0412,6.355932203,1.094858074,0.14253838
029,68,1,2,8,11,179,1224.0511074159294,1230.3992404288147,stimuli/131_xb.png,a,6.336294792126864,harmless,0.0412,6.525423729,1.119666394,0.145768149
029,68,1,2,8,12,180,1231.0006297596265,1234.7832019987982,stimuli/275_yb.png,l,3.7710526399314404,ambig,0.0412,4.836065574,2.138382004,0.27379176
029,68,1,2,8,13,181,1235.3727424752433,1240.143198044505,stimuli/150_xc.png,a,4.758758345618844,harmless,0.0412,6.482758621,1.030097582,0.135258439
029,68,1,2,8,14,182,1240.7109387554228,1248.4632667785045,stimuli/253_ya.png,l,7.740750528406352,ambig,0.0412,5.491803279,1.849531029,0.236808182
029,68,1,2,8,15,183,1249.0718934221659,1258.7112510751467,stimuli/177_xb.png,a,9.627726201433688,harmless,0.0412,6.482758621,1.063614811,0.139659467
029,68,1,2,8,16,184,1259.2748859422281,1266.1272177463397,stimuli/222_ya.png,a,6.840651121921837,ambig,0.0412,5.931034483,1.543089507,0.202617579
029,68,1,2,8,17,185,1266.7041126177646,1272.6795090632513,stimuli/125_xc.png,a,5.96358106774278,harmless,0.0412,6.683333333,0.999858747,0.129081209
029,68,1,2,8,18,186,1273.266882993048,1276.8312090595718,stimuli/241_yb.png,l,3.5526048180181533,ambig,0.0412,5.508474576,1.442852555,0.187843403
029,68,1,2,8,19,187,1277.4328106734902,1280.847181874793,stimuli/106_xc.png,a,3.4028606603387743,harmless,0.0412,6.661016949,0.863237081,0.112383896
029,68,1,2,8,20,188,1281.4193966751918,1285.8712202606257,stimuli/231_xb.png,a,4.440224429126829,harmless,0.0412,6.62295082,1.05141071,0.134619347
029,68,1,2,8,21,189,1286.439750632504,1291.3032475747168,stimuli/333_za.png,l,4.851785539882258,awful,0.0412,3.266666667,2.185209657,0.282109354
029,68,1,2,8,22,190,1291.9108738496434,1297.4791927260812,stimuli/145_xa.png,a,5.55633256980218,harmless,0.0412,6.661016949,0.822321556,0.107057148
029,68,1,2,8,23,191,1298.0475009689108,1301.527178913122,stimuli/129_xa.png,a,3.467931095743552,harmless,0.0412,6.770491803,0.642740036,0.082294429
029,68,1,2,8,24,192,1302.0984473018907,1305.9912034512963,stimuli/138_xc.png,a,3.881237337831408,harmless,0.0412,6.661016949,0.70978796,0.092406522
029,68,1,2,9,1,193,1314.7191043628845,1319.4871767705772,stimuli/296_yb.png,l,4.756511454470456,ambig,0.0412,4.229508197,2.052587332,0.262806878
029,68,1,2,9,2,194,1320.0591974048875,1323.8552100302186,stimuli/162_xa.png,a,3.7841212353669107,harmless,0.0412,6.644067797,0.905209289,0.117848212
029,68,1,2,9,3,195,1324.4521745019592,1329.6077582133003,stimuli/309_ya.png,l,5.143610795261338,ambig,0.0412,4.706896552,1.946734744,0.255618795
029,68,1,2,9,4,196,1330.172082704492,1335.9752353623044,stimuli/142_xa.png,a,5.791377846384421,harmless,0.0412,6.4,1.076718178,0.139003719
029,68,1,2,9,5,197,1336.5657305212226,1341.2632355859969,stimuli/128_xc.png,a,4.68600830854848,harmless,0.0412,6.627118644,0.98082135,0.127692063
029,68,1,2,9,6,198,1341.8863545779604,1349.0871557393111,stimuli/261_yb.png,a,7.18916222685948,ambig,0.0412,5.706896552,1.901141123,0.249632059
029,68,1,2,9,7,199,1349.6762141480576,1354.1351950955577,stimuli/123_xc.png,a,4.447208499070257,harmless,0.0412,6.491525424,1.023396666,0.133234897
029,68,1,2,9,8,200,1354.6996668851934,1358.2311997648794,stimuli/132_xc.png,a,3.5196521237958223,harmless,0.0412,6.627118644,0.692280217,0.090127208
029,68,1,2,9,9,201,1358.8693380709738,1362.3191821868531,stimuli/143_xb.png,a,3.4381547688972205,harmless,0.0412,6.655172414,0.738697862,0.096995781
029,68,1,2,9,10,202,1362.9054119943175,1372.6471431991085,stimuli/227_xa.png,a,9.730182460974902,harmless,0.0412,6.180327869,1.05685377,0.135316259
029,68,1,2,9,11,203,1373.243662231369,1379.263206441421,stimuli/244_xb.png,a,6.007568143308163,harmless,0.0412,6.610169492,0.743174671,0.096753101
029,68,1,2,9,12,204,1379.853413698962,1384.0631496487185,stimuli/164_xb.png,a,4.198208867339417,harmless,0.0412,6.830508475,0.460604639,0.059965616
029,68,1,2,9,13,205,1384.6311849562917,1388.6311451778747,stimuli/121_xc.png,a,3.988145631738007,harmless,0.0412,6.508474576,1.006408455,0.131023221
029,68,1,2,9,14,206,1389.211830422515,1393.3434635754675,stimuli/335_yb.png,a,4.120069442782551,ambig,0.0412,5.016949153,2.046793332,0.266469795
029,68,1,2,9,15,207,1393.9435547902249,1400.8151492045727,stimuli/233_yb.png,l,6.859905067365617,ambig,0.0412,5.318309859,1.922973646,0.102060844
029,68,1,2,9,16,208,1401.411311412463,1406.1111504081637,stimuli/246_ya.png,a,4.6885537346825,ambig,0.0412,5.542372881,1.715266481,0.223308675
029,68,1,2,9,17,209,1406.6816945141181,1411.2950792103074,stimuli/268_zb.png,l,4.601862733718008,awful,0.0412,2.655737705,2.048456703,0.262278005
029,68,1,2,9,18,210,1411.8609869619831,1414.1911314562894,stimuli/208_xb.png,l,2.3180951720569283,harmless,0.0412,6.216666667,1.165778516,0.150501359
029,68,1,2,9,19,211,1414.8030037840363,1420.2951587671414,stimuli/224_yb.png,l,5.480766928289086,ambig,0.0412,5.881355932,1.609077116,0.209483997
029,68,1,2,9,20,212,1420.8676299613435,1428.8631668991875,stimuli/278_xb.png,a,7.983660120284185,harmless,0.0412,6.360655738,1.140654591,0.146045855
029,68,1,2,9,21,213,1429.4610498198308,1441.8550981779117,stimuli/134_xc.png,a,12.382445657160133,harmless,0.0412,6.516666667,0.965360505,0.124627505
029,68,1,2,9,22,214,1442.443175516557,1445.8231234028935,stimuli/136_xc.png,a,3.3682317577768117,harmless,0.0412,6.559322034,1.038420326,0.135190811
029,68,1,2,9,23,215,1446.4002045635134,1448.9030949987937,stimuli/184_xb.png,a,2.490652854787186,harmless,0.0412,6.508474576,1.194425,0.15550089
029,68,1,2,9,24,216,1449.4626665574033,1453.7430864286143,stimuli/289_yb.png,a,4.268882942618802,ambig,0.0412,5.305084746,1.714584873,0.223219937
029,68,1,2,10,1,217,1462.5020306694787,1467.2711054151878,stimuli/157_xc.png,a,4.757758370833471,harmless,0.0412,6.603448276,0.877389573,0.115206895
029,68,1,2,10,2,218,1467.8417928810231,1473.2711495258845,stimuli/288_yb.png,l,5.417569230077788,ambig,0.0412,5.189655172,1.914459262,0.251380817
029,68,1,2,10,3,219,1473.9351977736223,1478.5750934202224,stimuli/185_xa.png,a,4.627873499877751,harmless,0.0412,6.5,0.965506805,0.124646393
029,68,1,2,10,4,220,1479.139311966952,1483.6230859088246,stimuli/174_xc.png,a,4.472003462724388,harmless,0.0412,6.533333333,1.111826512,0.143536185
029,68,1,2,10,5,221,1484.1890263499226,1487.8390816457104,stimuli/109_xb.png,a,3.638306478271261,harmless,0.0412,6.644067797,0.97843492,0.127381377
029,68,1,2,10,6,222,1488.4341651096474,1500.4794254889712,stimuli/217_yb.png,a,12.033626170828938,ambig,0.0412,5.169491525,2.001314588,0.260548967
029,68,1,2,10,7,223,1501.0506092007272,1504.3350644174498,stimuli/158_xa.png,a,3.2726390513125807,harmless,0.0412,6.786885246,0.661179605,0.084655374
029,68,1,2,10,8,224,1504.9547431650572,1510.1350674894638,stimuli/176_xb.png,a,5.168763764901087,harmless,0.0412,6.796610169,0.517942249,0.067430337
029,68,1,2,10,9,225,1510.7170666039456,1515.1910794686992,stimuli/130_xc.png,a,4.462364083854482,harmless,0.0412,6.644067797,0.960651931,0.125066229
029,68,1,2,10,10,226,1515.7726823743433,1520.2231798805296,stimuli/140_xb.png,a,4.439069672953337,harmless,0.0412,6.724137931,0.790138861,0.103750315
029,68,1,2,10,11,227,1520.7785164138768,1524.7910572558176,stimuli/324_za.png,l,4.000716405920684,awful,0.0412,2.491525424,1.994586478,0.259673041
029,68,1,2,10,12,228,1525.3985551367514,1536.5990546122193,stimuli/173_yb.png,a,11.188823519274592,ambig,0.0412,5.796610169,1.242628763,0.161776485
029,68,1,2,10,13,229,1537.192934482824,1541.6470313470345,stimuli/342_yb.png,l,4.442429572576657,ambig,0.0412,4.916666667,2.085394461,0.269223267
029,68,1,2,10,14,230,1542.2100163681898,1550.575111930957,stimuli/218_yb.png,a,8.353140763705596,ambig,0.0412,5.850282486,1.552723069,0.0825263
029,68,1,2,10,15,231,1551.1329178784508,1554.6950431340374,stimuli/112_xc.png,a,3.5503583210520446,harmless,0.0412,6.706896552,0.749470472,0.098410294
029,68,1,2,10,16,232,1555.2677419709507,1562.1670320243575,stimuli/226_yb.png,a,6.8875014572404325,ambig,0.0412,5.683333333,1.712285287,0.22105508
029,68,1,2,10,17,233,1562.742935979506,1569.063029131852,stimuli/221_xb.png,a,6.308376630069688,harmless,0.0412,6.440677966,1.133672495,0.147591588
029,68,1,2,10,18,234,1569.6447238037363,1574.2710349168628,stimuli/205_yb.png,a,4.614003428025171,ambig,0.0412,5.847457627,1.52918233,0.199082582
029,68,1,2,10,19,235,1574.845015722327,1584.2390372988302,stimuli/126_xa.png,a,9.382219195831567,harmless,0.0412,6.6,0.977717855,0.126222832
029,68,1,2,10,20,236,1584.8105510533787,1589.2870683842339,stimuli/194_xb.png,a,4.464622790226713,harmless,0.0412,6.586206897,1.026567825,0.134794959
029,68,1,2,10,21,237,1589.8450184792746,1594.783062971197,stimuli/250_yb.png,a,4.926539858803153,ambig,0.0412,5.950819672,1.585625318,0.203018519
029,68,1,2,10,22,238,1595.3400887097232,1600.7429891487118,stimuli/151_xa.png,a,5.390954698203132,harmless,0.0412,6.610169492,0.947172729,0.123311386
029,68,1,2,10,23,239,1601.359894827241,1607.8549918395001,stimuli/195_xc.png,a,6.483721166616306,harmless,0.0412,6.637640449,1.001766915,0.05309354
029,68,1,2,10,24,240,1608.4307162009645,1614.359007098712,stimuli/141_xc.png,a,5.916473157005385,harmless,0.0412,6.508474576,1.040107444,0.135410455
