id,age,condition,counterbalance,block,trialinblock,trial,tstart,tend,trialstim,response,RT,trialtype,ethicfreq,norm_mean,norm_sd,norm_se
139,21,0,2,0,0,practice,3.938456075047725e-06,8.39735438149296,stimuli/prac_217_1.png,l,8.379228424940493,harmless,NA,NA,NA,NA
139,21,0,2,1,1,1,4.52092462346377,15.687856085662816,stimuli/365_zb.png,l,11.155283084409575,awful,0.333,2.966101695,2.165291266,0.281896912
139,21,0,2,1,2,2,16.304429660355254,21.215843936313604,stimuli/180_xc.png,l,4.899920679494016,harmless,0.333,6.672131148,0.723908638,0.092687003
139,21,0,2,1,3,3,21.77791991228264,27.615806757287828,stimuli/316_za.png,a,5.826474774582493,awful,0.333,2.344827586,1.802062407,0.236622386
139,21,0,2,1,4,4,28.21160655138533,36.09586241554962,stimuli/263_ya.png,l,7.872529898789708,ambig,0.333,4.983050847,2.071910042,0.269739712
139,21,0,2,1,5,5,36.65807584363688,40.39180903529086,stimuli/102_xc.png,l,3.7220001370583304,harmless,0.333,6.66011236,0.937292468,0.049676401
139,21,0,2,1,6,6,40.96702488237793,47.93576575008274,stimuli/242_xb.png,l,6.957196859002352,harmless,0.333,6.576271186,0.913564256,0.118935936
139,21,0,2,1,7,7,48.5346981921698,57.54378342272298,stimuli/210_yb.png,l,8.997500655752901,ambig,0.333,5.557377049,1.76564049,0.226067099
139,21,0,2,1,8,8,58.20634201710391,64.28779086482996,stimuli/244_xb.png,l,6.069943829739259,harmless,0.333,6.610169492,0.743174671,0.096753101
139,21,0,2,1,9,9,64.96067333421001,78.52774878636478,stimuli/314_zb.png,a,13.555480243522652,awful,0.333,1.833333333,1.451669602,0.18740974
139,21,0,2,1,10,10,79.1038858383356,85.93578544236357,stimuli/312_yb.png,l,6.820312272308001,ambig,0.333,4.677966102,2.112692986,0.275049199
139,21,0,2,1,11,11,86.5345142662693,92.10379564769096,stimuli/198_yb.png,l,5.557087133615369,ambig,0.333,5.101694915,1.83542643,0.238952168
139,21,0,2,1,12,12,92.67627032932592,99.76775278783612,stimuli/285_yb.png,l,7.080027458915993,ambig,0.333,4.120689655,2.119893958,0.278355714
139,21,0,2,1,13,13,100.36580971112994,111.44769100133658,stimuli/341_zb.png,a,11.070034414229667,awful,0.333,3.603448276,2.15975677,0.283589957
139,21,0,2,1,14,14,112.07607009821709,117.23964520811955,stimuli/346_zb.png,a,5.151820393798062,awful,0.333,1.288135593,0.983499162,0.128040685
139,21,0,2,1,15,15,117.8226536844652,128.07171101499512,stimuli/309_ya.png,l,10.237335303611417,ambig,0.333,4.706896552,1.946734744,0.255618795
139,21,0,2,1,16,16,128.64956011383697,133.9677798844143,stimuli/324_za.png,a,5.306962481479786,awful,0.333,2.491525424,1.994586478,0.259673041
139,21,0,2,1,17,17,134.53956651776684,142.1116619260781,stimuli/371_zb.png,l,7.559862957481073,awful,0.333,3.131147541,2.085468851,0.267016925
139,21,0,2,1,18,18,142.67758656135743,148.83167314280104,stimuli/280_xb.png,l,6.142369280672483,harmless,0.333,6.333333333,1.068289726,0.137915611
139,21,0,2,1,19,19,149.40038226654974,155.44768903210866,stimuli/124_xa.png,l,6.035784418364983,harmless,0.333,6.344262295,1.181598436,0.151288177
139,21,0,2,1,20,20,156.07802002783706,162.4796153388686,stimuli/122_xa.png,l,6.3900186131436385,harmless,0.333,6.457627119,1.039264227,0.135300678
139,21,0,2,1,21,21,163.0919022979317,168.99163786998838,stimuli/333_za.png,l,5.888026148197696,awful,0.333,3.266666667,2.185209657,0.282109354
139,21,0,2,1,22,22,169.57209580215726,177.83965915025442,stimuli/336_ya.png,l,8.25619972068489,ambig,0.333,5.033898305,1.884291705,0.245313885
139,21,0,2,1,23,23,178.46572164725126,181.9196074462027,stimuli/152_xa.png,l,3.44221497196213,harmless,0.333,6.576271186,0.968528743,0.126091702
139,21,0,2,1,24,24,182.49787795984798,188.0475848205599,stimuli/241_yb.png,l,5.537972624579197,ambig,0.333,5.508474576,1.442852555,0.187843403
139,21,0,2,2,1,25,196.52216129868225,201.14356105749107,stimuli/259_xc.png,l,4.60986638393797,harmless,0.333,6.568965517,0.993170874,0.130409725
139,21,0,2,2,2,26,201.76977439735697,207.23157294847783,stimuli/256_zb.png,l,5.450269902397395,awful,0.333,3.051724138,2.012438634,0.264246138
139,21,0,2,2,3,27,207.8938011063908,213.73556181682557,stimuli/159_xa.png,l,5.830141083374656,harmless,0.333,6.389830508,1.174689235,0.152931512
139,21,0,2,2,4,28,214.35553546067717,219.91954482475035,stimuli/214_xb.png,l,5.552934425493277,harmless,0.333,6.465517241,0.940614156,0.12350869
139,21,0,2,2,5,29,220.56857049009363,225.78353103070162,stimuli/271_ya.png,l,5.202955732540886,ambig,0.333,5.711864407,1.771915459,0.230683744
139,21,0,2,2,6,30,226.34821387076977,231.9355310180988,stimuli/356_za.png,l,5.575570701982542,awful,0.333,3.033333333,2.178217796,0.281206708
139,21,0,2,2,7,31,232.55573191086773,242.63153222484175,stimuli/293_zb.png,a,10.064674963155994,awful,0.333,3.677966102,2.169066842,0.28238845
139,21,0,2,2,8,32,243.28293041614484,250.99153271321006,stimuli/228_ya.png,l,7.696873968616728,ambig,0.333,5.442622951,1.793735303,0.229664272
139,21,0,2,2,9,33,251.5795213673057,257.87151456480456,stimuli/219_ya.png,l,6.2802562044471415,ambig,0.333,5.271186441,1.998538332,0.260187529
139,21,0,2,2,10,34,258.4701906133985,263.4715029069746,stimuli/147_ya.png,l,4.9901058105619995,ambig,0.333,5.883333333,1.766847875,0.22809908
139,21,0,2,2,11,35,264.07890539277037,270.5754840559482,stimuli/360_za.png,a,6.484993694532022,awful,0.333,3.2,2.207844259,0.285031468
139,21,0,2,2,12,36,271.13130458207866,278.0634973647791,stimuli/123_xc.png,l,6.9208070999338815,harmless,0.333,6.491525424,1.023396666,0.133234897
139,21,0,2,2,13,37,278.6554126596159,288.33543673145937,stimuli/224_yb.png,l,9.668499755421635,ambig,0.333,5.881355932,1.609077116,0.209483997
139,21,0,2,2,14,38,288.967157608349,297.3434396742739,stimuli/262_ya.png,l,8.364510808305113,ambig,0.333,5.491525424,1.7750462,0.231091332
139,21,0,2,2,15,39,297.9235994653152,303.4154366211826,stimuli/282_xc.png,l,5.4804262669817945,harmless,0.333,6.55,0.998728005,0.128935231
139,21,0,2,2,16,40,304.03530353287374,312.46345624729724,stimuli/339_ya.png,l,8.416468102837825,ambig,0.333,4.949152542,1.960152429,0.25519011
139,21,0,2,2,17,41,313.0391265922192,320.4394438742436,stimuli/110_xa.png,l,7.388598799716419,harmless,0.333,6.428571429,1.059281795,0.141552484
139,21,0,2,2,18,42,321.0470933012373,339.06340756797977,stimuli/332_zb.png,l,18.004726935022518,awful,0.333,2.694915254,2.002190501,0.260663001
139,21,0,2,2,19,43,339.6753900843853,344.7434375475075,stimuli/364_za.png,l,5.0561730179520055,awful,0.333,1.677966102,1.279017376,0.166513879
139,21,0,2,2,20,44,345.3172883257073,352.6793935250205,stimuli/291_za.png,a,7.3503103109569565,awful,0.333,2.593220339,1.830005126,0.238246374
139,21,0,2,2,21,45,353.2749022672117,356.63935518021185,stimuli/105_xa.png,l,3.3521129423179445,harmless,0.333,6.557377049,1.088187946,0.139328189
139,21,0,2,2,22,46,357.2140531203206,363.8153789621854,stimuli/347_zb.png,l,6.58972433170311,awful,0.333,3.796610169,2.147810923,0.279621165
139,21,0,2,2,23,47,364.37962896592694,369.99935960703647,stimuli/119_xc.png,l,5.60793417737068,harmless,0.333,6.694915254,0.914523379,0.119060803
139,21,0,2,2,24,48,370.62021467736554,374.50339416147494,stimuli/277_yb.png,l,3.8719517334325246,ambig,0.333,5.491525424,2.02886822,0.264136144
139,21,0,2,3,1,49,383.03967758222893,391.5993373153749,stimuli/351_zb.png,l,8.548189373572768,awful,0.333,3.06779661,2.033040926,0.264679384
139,21,0,2,3,2,50,392.23729198059414,395.7672789915662,stimuli/112_xc.png,l,3.5181866087768867,harmless,0.333,6.706896552,0.749470472,0.098410294
139,21,0,2,3,3,51,396.3393121722713,407.9193372681136,stimuli/350_ya.png,a,11.568231389022912,ambig,0.333,4.915254237,2.02814792,0.264042369
139,21,0,2,3,4,52,408.47595966390804,417.85527946103025,stimuli/166_xa.png,l,9.367604071733695,harmless,0.333,6.593220339,1.052397002,0.13701042
139,21,0,2,3,5,53,418.4237054097846,423.7672537854471,stimuli/287_ya.png,l,5.331970496237773,ambig,0.333,5.950819672,1.407435369,0.180203633
139,21,0,2,3,6,54,424.34297099799664,429.6712653393017,stimuli/310_zb.png,a,5.3166101235651695,awful,0.333,3.224137931,2.102989547,0.276136056
139,21,0,2,3,7,55,430.23382416999016,441.2632570401872,stimuli/283_yb.png,l,11.017637194149302,ambig,0.333,5.949152542,1.478859402,0.192531095
139,21,0,2,3,8,56,441.8267232911628,446.16725284021754,stimuli/156_xc.png,l,4.328835879020062,harmless,0.333,6.590163934,0.955284411,0.122311635
139,21,0,2,3,9,57,446.73135121339897,450.431262913213,stimuli/128_xc.png,l,3.688515383215872,harmless,0.333,6.627118644,0.98082135,0.127692063
139,21,0,2,3,10,58,450.9940686850989,454.47125872269567,stimuli/320_za.png,a,3.465467616832484,awful,0.333,1.423728814,1.117314975,0.14546202
139,21,0,2,3,11,59,455.0416145149436,459.7992100244735,stimuli/175_xb.png,l,4.745802984246893,harmless,0.333,6.6,1.028409995,0.13276716
139,21,0,2,3,12,60,460.38344926835293,468.7912724600303,stimuli/220_yb.png,l,8.396285484504915,ambig,0.333,4.75,2.096203186,0.270618668
139,21,0,2,3,13,61,469.364304433205,475.86319378858184,stimuli/207_yb.png,l,6.487173236142553,ambig,0.333,5.655737705,1.662179753,0.212820309
139,21,0,2,3,14,62,476.4627264513799,484.9431814690913,stimuli/109_xb.png,l,8.468736535402968,harmless,0.333,6.644067797,0.97843492,0.127381377
139,21,0,2,3,15,63,485.51454629379464,494.631235265251,stimuli/311_za.png,a,9.104961430699404,awful,0.333,3.116666667,1.975199339,0.254997138
139,21,0,2,3,16,64,495.19988806907736,499.41520267689,stimuli/331_za.png,a,4.203883238954859,awful,0.333,1.983606557,1.638004917,0.209725039
139,21,0,2,3,17,65,500.01253689348755,509.2872103363991,stimuli/370_za.png,l,9.26307941581672,awful,0.333,2.393442623,1.882185684,0.240989182
139,21,0,2,3,18,66,509.8560100446382,514.9751069881602,stimuli/225_ya.png,l,5.107343408954421,ambig,0.333,5.85,1.792876677,0.231459384
139,21,0,2,3,19,67,515.5784461687879,520.5351381177172,stimuli/288_yb.png,l,4.944793085331185,ambig,0.333,5.189655172,1.914459262,0.251380817
139,21,0,2,3,20,68,521.1050756459265,524.6951162356552,stimuli/134_xc.png,l,3.5782854797789696,harmless,0.333,6.516666667,0.965360505,0.124627505
139,21,0,2,3,21,69,525.2703982488049,530.9671154668683,stimuli/355_zb.png,l,5.684932963538358,awful,0.333,3.183333333,2.070713188,0.267327923
139,21,0,2,3,22,70,531.5555574372622,539.6872109665521,stimuli/213_ya.png,l,8.120037446840797,ambig,0.333,5.98245614,1.597891781,0.211645937
139,21,0,2,3,23,71,540.2531269372282,546.9911211445467,stimuli/290_zb.png,a,6.72620050049909,awful,0.333,2.586206897,2.026443456,0.266085062
139,21,0,2,3,24,72,547.6053639409135,551.9671154668683,stimuli/103_xb.png,l,4.350032649801051,harmless,0.333,6.779661017,0.589207434,0.076708274
139,21,0,2,4,1,73,560.4778875381733,566.3431155393362,stimuli/200_ya.png,l,5.853582380292664,ambig,0.333,5.862068966,1.444266048,0.189641423
139,21,0,2,4,2,74,566.9010092687624,578.015068139229,stimuli/168_xa.png,l,11.102338025084919,harmless,0.333,6.474576271,1.164946827,0.151663159
139,21,0,2,4,3,75,578.6097395656514,586.2310715830151,stimuli/354_zb.png,a,7.609464661415132,awful,0.333,2,1.701925887,0.221571878
139,21,0,2,4,4,76,586.8189054557854,592.4390232471308,stimuli/173_yb.png,l,5.608531247316932,ambig,0.333,5.796610169,1.242628763,0.161776485
139,21,0,2,4,5,77,593.0077843585002,598.8950811046268,stimuli/226_yb.png,l,5.875733832834612,ambig,0.333,5.683333333,1.712285287,0.22105508
139,21,0,2,4,6,78,599.4627808020743,605.6389999314708,stimuli/366_za.png,l,6.164488437874297,awful,0.333,3.689655172,2.036568291,0.267414518
139,21,0,2,4,7,79,606.2378197337132,617.5030172512254,stimuli/367_zb.png,l,11.253497152102227,awful,0.333,3.413793103,2.086165649,0.27392697
139,21,0,2,4,8,80,618.1108738410105,622.3029992130962,stimuli/257_yb.png,l,4.180380895967119,ambig,0.333,5.620689655,1.843219782,0.242026615
139,21,0,2,4,9,81,622.8665438393489,626.5189975368896,stimuli/114_xc.png,l,3.6409656149153307,harmless,0.333,6.644067797,0.97843492,0.127381377
139,21,0,2,4,10,82,627.1236663402999,634.3430013241089,stimuli/104_xc.png,l,7.207686606019706,harmless,0.333,6.745762712,0.756425814,0.098478253
139,21,0,2,4,11,83,634.904576328461,638.3910449748057,stimuli/295_za.png,a,3.4746832102828193,awful,0.333,2.3,1.825432384,0.235662307
139,21,0,2,4,12,84,638.9741294633538,643.399002231529,stimuli/260_ya.png,l,4.413319307178426,ambig,0.333,4.966101695,2.016877936,0.262575142
139,21,0,2,4,13,85,643.9613475978961,648.614963533835,stimuli/116_xa.png,l,4.642056173412129,harmless,0.333,6.63559322,0.958030802,0.050918763
139,21,0,2,4,14,86,649.1883735987956,662.0791483955124,stimuli/268_zb.png,a,12.878983059124948,awful,0.333,2.655737705,2.048456703,0.262278005
139,21,0,2,4,15,87,662.6544760947529,669.45492948982,stimuli/329_zb.png,a,6.788840857228479,awful,0.333,2.406779661,1.992387617,0.259386774
139,21,0,2,4,16,88,670.0040829974484,675.3509566116043,stimuli/362_zb.png,a,5.335061396592209,awful,0.333,1.474576271,1.222715071,0.159183944
139,21,0,2,4,17,89,675.9477874935112,683.3669168111421,stimuli/313_zb.png,l,7.407274958587095,awful,0.333,2.101694915,1.688652955,0.219843889
139,21,0,2,4,18,90,683.9558948054125,690.6709360843713,stimuli/276_ya.png,l,6.703401171926998,ambig,0.333,5.186440678,1.804922162,0.234980851
139,21,0,2,4,19,91,691.2683289839649,696.6228912521376,stimuli/205_yb.png,l,5.342698062988802,ambig,0.333,5.847457627,1.52918233,0.199082582
139,21,0,2,4,20,92,697.2140865971976,703.7668973551692,stimuli/165_xb.png,l,6.541209641655769,harmless,0.333,6.557377049,1.008705278,0.129151477
139,21,0,2,4,21,93,704.427487903032,710.2548602517616,stimuli/169_xc.png,l,5.815637718751532,harmless,0.333,6.603448276,0.916508538,0.120343467
139,21,0,2,4,22,94,710.8229195302522,715.574896044451,stimuli/174_xc.png,l,4.740204468887441,harmless,0.333,6.533333333,1.111826512,0.143536185
139,21,0,2,4,23,95,716.1560195757022,723.0788908204829,stimuli/272_xb.png,l,6.911405611354894,harmless,0.333,6.355932203,1.029943284,0.134087194
139,21,0,2,4,24,96,723.6497117443971,729.4068728422183,stimuli/325_yb.png,l,5.7454087447904385,ambig,0.333,5.131147541,1.811770863,0.231973488
139,21,0,2,5,1,97,738.6220996224595,744.1988341382223,stimuli/239_ya.png,l,5.565102285643661,ambig,0.333,5.157894737,1.925296579,0.255011762
139,21,0,2,5,2,98,744.7642188111693,752.694816519145,stimuli/211_zb.png,l,7.9186783644063325,awful,0.333,3.983333333,2.127237938,0.274625237
139,21,0,2,5,3,99,753.2885210545926,756.8468220203806,stimuli/298_za.png,l,3.54634853918742,awful,0.333,2.881355932,2.026418156,0.263817173
139,21,0,2,5,4,100,757.421751147863,761.0707697239852,stimuli/125_xc.png,l,3.6373213614770066,harmless,0.333,6.683333333,0.999858747,0.129081209
139,21,0,2,5,5,101,761.6616555063949,766.7587841355837,stimuli/265_yb.png,l,5.0858252601547065,ambig,0.333,5.627118644,1.856008928,0.241631781
139,21,0,2,5,6,102,767.3204926535975,773.6227786122929,stimuli/297_za.png,a,6.29059937788179,awful,0.333,1.898305085,1.446695584,0.188343723
139,21,0,2,5,7,103,774.2239937835409,778.0947687062878,stimuli/127_xb.png,l,3.859103308066551,harmless,0.333,6.423728814,1.162686987,0.151368953
139,21,0,2,5,8,104,778.667317037052,783.7747766304617,stimuli/230_yb.png,l,5.09575607723491,ambig,0.333,4.98245614,1.875511626,0.248417583
139,21,0,2,5,9,105,784.3698348132737,787.4867703320826,stimuli/131_xb.png,l,3.1050823413020225,harmless,0.333,6.525423729,1.119666394,0.145768149
139,21,0,2,5,10,106,788.0514768028872,793.5427692702749,stimuli/327_zb.png,a,5.4793967545547275,awful,0.333,2.502808989,1.906990248,0.101070281
139,21,0,2,5,11,107,794.1373477491327,802.9107463138018,stimuli/269_za.png,l,8.762175540139651,awful,0.333,3.457627119,2.119873401,0.27598401
139,21,0,2,5,12,108,803.509297907183,808.56673753262,stimuli/209_ya.png,l,5.045622681725945,ambig,0.333,5.603448276,1.825161903,0.239655499
139,21,0,2,5,13,109,809.1479032053519,812.4707597203067,stimuli/206_xa.png,l,3.310997823609341,harmless,0.333,6.325842697,1.136094431,0.060212884
139,21,0,2,5,14,110,813.0449866210645,818.0947190817408,stimuli/192_za.png,l,5.038345990218204,awful,0.333,2.68852459,2.093967396,0.268105052
139,21,0,2,5,15,111,818.6810102612533,823.6947015162266,stimuli/171_xa.png,l,5.001963320370578,harmless,0.333,6.465517241,1.046556882,0.137419651
139,21,0,2,5,16,112,824.2717168439101,830.0386976943489,stimuli/137_xa.png,l,5.755552632345825,harmless,0.333,6.355932203,1.094858074,0.14253838
139,21,0,2,5,17,113,830.610739145812,836.742746742306,stimuli/317_za.png,l,6.1202784803545,awful,0.333,3.65,2.03215674,0.262350307
139,21,0,2,5,18,114,837.315956339851,841.5506824162901,stimuli/215_yb.png,l,4.2229051942722435,ambig,0.333,5.866666667,1.466769385,0.189359113
139,21,0,2,5,19,115,842.1089010683456,846.1586744889657,stimuli/117_xc.png,l,4.037965929203892,harmless,0.333,6.627118644,0.868972939,0.113130641
139,21,0,2,5,20,116,846.7326950146232,854.5507005331881,stimuli/319_ya.png,l,7.806273251660059,ambig,0.333,4.216666667,2.108028774,0.272145344
139,21,0,2,5,21,117,855.1118222212419,860.9507303079165,stimuli/229_za.png,l,5.82719078590344,awful,0.333,3.406779661,2.043649913,0.266060557
139,21,0,2,5,22,118,861.5222770892917,867.4787256416337,stimuli/189_yb.png,l,5.944651300911573,ambig,0.333,5.983333333,1.455459234,0.187898979
139,21,0,2,5,23,119,868.0462737085211,874.5826662245092,stimuli/130_xc.png,l,6.5245775415055505,harmless,0.333,6.644067797,0.960651931,0.125066229
139,21,0,2,5,24,120,875.1597504751746,879.9746564287814,stimuli/258_ya.png,l,4.803187077453003,ambig,0.333,5.627118644,1.78014243,0.231754804
139,21,0,2,6,1,121,888.7848417488951,898.4626043592405,stimuli/161_xc.png,l,9.666020891146218,harmless,0.333,6.796610169,0.609682252,0.079373868
139,21,0,2,6,2,122,899.0253738973308,905.4465685413454,stimuli/304_ya.png,a,6.409491521685595,ambig,0.333,4.034482759,2.017167697,0.264867095
139,21,0,2,6,3,123,906.0605817257212,909.9826184116521,stimuli/306_zb.png,a,3.9100429055406494,awful,0.333,2.352112676,1.917055413,0.101746737
139,21,0,2,6,4,124,910.5495891008738,915.462574426974,stimuli/146_xa.png,l,4.901461403523626,harmless,0.333,6.442622951,1.162247681,0.148810567
139,21,0,2,6,5,125,916.0343646049375,921.4705746128695,stimuli/338_zb.png,l,5.424361950418188,awful,0.333,3.310344828,2.137443107,0.28066003
139,21,0,2,6,6,126,922.0476285374227,925.8145751232935,stimuli/193_xc.png,l,3.7551489405950633,harmless,0.333,6.482758621,1.012923151,0.133003326
139,21,0,2,6,7,127,926.3741576626996,931.5425774674625,stimuli/352_zb.png,a,5.156987254368687,awful,0.333,2.93442623,2.135952968,0.273480754
139,21,0,2,6,8,128,932.1090207974114,940.9266080519371,stimuli/218_yb.png,l,8.805759283137832,ambig,0.333,5.850282486,1.552723069,0.0825263
139,21,0,2,6,9,129,941.4972990068002,945.8865803409601,stimuli/301_za.png,l,4.377955909771572,awful,0.333,3.610169492,2.212947396,0.288101212
139,21,0,2,6,10,130,946.4578707288426,952.5025820518251,stimuli/188_xa.png,l,6.0331964588554,harmless,0.333,6.655172414,0.806807095,0.105938962
139,21,0,2,6,11,131,953.0676949713004,958.5025599964708,stimuli/237_ya.png,l,5.42310755214703,ambig,0.333,4.305084746,2.019339575,0.26289562
139,21,0,2,6,12,132,959.0868413818309,969.4545254042234,stimuli/321_zb.png,a,10.355039609053165,awful,0.333,2.918032787,2.177881861,0.278849198
139,21,0,2,6,13,133,970.024926094871,974.2864848727838,stimuli/328_za.png,a,4.2500084676808,awful,0.333,2.706896552,1.955725922,0.256799395
139,21,0,2,6,14,134,974.8528766089578,980.6865079521365,stimuli/261_yb.png,l,5.8221897343350975,ambig,0.333,5.706896552,1.901141123,0.249632059
139,21,0,2,6,15,135,981.244919194696,986.5505185765157,stimuli/273_ya.png,l,5.294234572870209,ambig,0.333,5.551724138,1.836973233,0.241206403
139,21,0,2,6,16,136,987.1167346575473,991.7984774716372,stimuli/281_ya.png,l,4.669959741101593,ambig,0.333,5.881355932,1.543448286,0.200939852
139,21,0,2,6,17,137,992.3580840356256,997.0704802474609,stimuli/274_xb.png,l,4.700695058734254,harmless,0.333,6.491525424,1.179901828,0.153610134
139,21,0,2,6,18,138,997.6381996371895,1005.1584401508269,stimuli/204_xb.png,l,7.508505883659382,harmless,0.333,6.508474576,0.858484658,0.111765183
139,21,0,2,6,19,139,1005.7724033168099,1011.1504695033525,stimuli/249_ya.png,l,5.36631659043087,ambig,0.333,5.327868852,1.859402337,0.238072074
139,21,0,2,6,20,140,1011.7098645722483,1017.7424824719012,stimuli/190_xc.png,l,6.020865546622645,harmless,0.333,6.517241379,1.046990328,0.137476565
139,21,0,2,6,21,141,1018.3148571167505,1026.6704642573293,stimuli/335_yb.png,l,8.343939464354207,ambig,0.333,5.016949153,2.046793332,0.266469795
139,21,0,2,6,22,142,1027.240904332538,1032.6625310251877,stimuli/326_zb.png,a,5.410041724003804,awful,0.333,3.389830508,2.220724867,0.289113752
139,21,0,2,6,23,143,1033.2374109219688,1039.558441568671,stimuli/179_xb.png,l,6.309272385987242,harmless,0.333,6.704918033,0.882123617,0.112944356
139,21,0,2,6,24,144,1040.1381972741158,1045.246481186389,stimuli/307_za.png,a,5.0965437684567405,awful,0.333,2.93220339,2.172432347,0.282826601
139,21,0,2,7,1,145,1054.6152045673487,1059.2543766093515,stimuli/248_zb.png,l,4.627490187336662,awful,0.333,3.288135593,1.991800844,0.259310383
139,21,0,2,7,2,146,1059.8157688693402,1064.2545042153295,stimuli/203_yb.png,l,4.4268935900049655,ambig,0.333,6,1.542501327,0.200816568
139,21,0,2,7,3,147,1064.8197549807685,1070.1903983590817,stimuli/136_xc.png,l,5.358971369787469,harmless,0.333,6.559322034,1.038420326,0.135190811
139,21,0,2,7,4,148,1070.7790325261337,1076.1663458137757,stimuli/292_zb.png,l,5.375394731763663,awful,0.333,2.396551724,1.955107169,0.256718148
139,21,0,2,7,5,149,1076.7853269666878,1083.3423853495735,stimuli/107_xa.png,l,6.544599076983559,harmless,0.333,6.813559322,0.540580029,0.070377525
139,21,0,2,7,6,150,1083.9136844020597,1089.3583207368376,stimuli/368_za.png,l,5.43295093550114,awful,0.333,3.590163934,2.02794682,0.259651984
139,21,0,2,7,7,151,1089.9594331143815,1097.078368187357,stimuli/322_za.png,l,7.10709725544757,awful,0.333,2.406779661,1.975004531,0.257123689
139,21,0,2,7,8,152,1097.6525316789719,1104.7905253349065,stimuli/289_yb.png,l,7.1263732411839555,ambig,0.333,5.305084746,1.714584873,0.223219937
139,21,0,2,7,9,153,1105.365879421803,1113.9982926792766,stimuli/201_yb.png,l,8.620748732014363,ambig,0.333,5.898305085,1.626238682,0.211718243
139,21,0,2,7,10,154,1114.6193694846845,1117.358325462985,stimuli/337_zb.png,l,2.7272111083366326,awful,0.333,3.033333333,2.20143764,0.284204377
139,21,0,2,7,11,155,1117.9286324183774,1125.9422665657369,stimuli/252_zb.png,l,8.001965289598502,awful,0.333,2.711864407,1.983125776,0.258180985
139,21,0,2,7,12,156,1126.5001626582373,1130.7582615024578,stimuli/149_xa.png,l,4.246324041990192,harmless,0.333,6.721311475,0.933294301,0.11949609
139,21,0,2,7,13,157,1131.366188196762,1139.0222806339023,stimuli/267_ya.png,l,7.644504711574882,ambig,0.333,5.103448276,1.898195405,0.249245267
139,21,0,2,7,14,158,1139.587602291551,1149.0942925469442,stimuli/222_ya.png,l,9.494890640889025,ambig,0.333,5.931034483,1.543089507,0.202617579
139,21,0,2,7,15,159,1149.6619697951921,1155.5823094003856,stimuli/108_xb.png,l,5.90868256280055,harmless,0.333,6.568965517,1.077880782,0.141532681
139,21,0,2,7,16,160,1156.1494655908903,1160.9582503960116,stimuli/191_ya.png,l,4.797189990335028,ambig,0.333,5.517241379,2.062542966,0.270825159
139,21,0,2,7,17,161,1161.5230789589557,1170.5263703267262,stimuli/369_za.png,a,8.99175405444339,awful,0.333,2.948275862,2.055565093,0.26990892
139,21,0,2,7,18,162,1171.0797557054445,1175.1342627564625,stimuli/145_xa.png,l,4.042660962732043,harmless,0.333,6.661016949,0.822321556,0.107057148
139,21,0,2,7,19,163,1175.731740726708,1179.9662257696334,stimuli/255_xb.png,l,4.222648800779552,harmless,0.333,6.770491803,0.642740036,0.082294429
139,21,0,2,7,20,164,1180.5296845375426,1183.1742105167807,stimuli/150_xc.png,l,2.6330564073564346,harmless,0.333,6.482758621,1.030097582,0.135258439
139,21,0,2,7,21,165,1183.749963569281,1189.3262250764649,stimuli/236_yb.png,l,5.56450088339534,ambig,0.333,5.93442623,1.49297078,0.19115532
139,21,0,2,7,22,166,1189.9200591871183,1196.2781944226733,stimuli/142_xa.png,l,6.34646204549199,harmless,0.333,6.4,1.076718178,0.139003719
139,21,0,2,7,23,167,1196.849142952566,1203.758189822557,stimuli/266_zb.png,l,6.897256313935941,awful,0.333,3.491525424,1.888010094,0.245797978
139,21,0,2,7,24,168,1204.3191141939594,1211.5741816085126,stimuli/246_ya.png,l,7.243290643094497,ambig,0.333,5.542372881,1.715266481,0.223308675
139,21,0,2,8,1,169,1220.03724479789,1223.1821630473567,stimuli/238_xb.png,l,3.133278142434847,harmless,0.333,6.4,1.076718178,0.139003719
139,21,0,2,8,2,170,1223.7435742119344,1231.526152923949,stimuli/353_zb.png,a,7.770856685096078,awful,0.333,1.949152542,1.623361018,0.211343603
139,21,0,2,8,3,171,1232.0851131872898,1236.7102028856277,stimuli/234_xb.png,l,4.613302686893348,harmless,0.333,6.637931034,0.788030542,0.103473479
139,21,0,2,8,4,172,1237.3063240577442,1246.02213097257,stimuli/187_xc.png,l,8.703843854393654,harmless,0.333,6.224137931,1.185335891,0.155642228
139,21,0,2,8,5,173,1246.5874364825488,1250.8541294318463,stimuli/323_yb.png,l,4.254947291642111,ambig,0.333,4.603448276,1.955107169,0.256718148
139,21,0,2,8,6,174,1251.4125028652268,1256.3341334963327,stimuli/358_za.png,l,4.90980147818118,awful,0.333,3.949152542,2.112554662,0.275031191
139,21,0,2,8,7,175,1256.9025354205048,1260.1741211138267,stimuli/247_ya.png,l,3.2596368113313474,ambig,0.333,4.65,2.081598147,0.268733165
139,21,0,2,8,8,176,1260.747772999993,1267.7421512477424,stimuli/342_yb.png,a,6.983085118701183,ambig,0.333,4.916666667,2.085394461,0.269223267
139,21,0,2,8,9,177,1268.330682227244,1275.3181008292024,stimuli/300_za.png,a,6.975765891867468,awful,0.333,3.75,2.12032137,0.273732312
139,21,0,2,8,10,178,1275.8858304589169,1280.8461430305472,stimuli/308_zb.png,l,4.948606692381873,awful,0.333,1.644067797,1.471132708,0.191525165
139,21,0,2,8,11,179,1281.4409806598171,1289.1020800562094,stimuli/217_yb.png,l,7.6495573569177395,ambig,0.333,5.169491525,2.001314588,0.260548967
139,21,0,2,8,12,180,1289.6616456602544,1292.8060302489182,stimuli/243_ya.png,l,3.1325798541670338,ambig,0.333,5.830508475,1.652088985,0.215083666
139,21,0,2,8,13,181,1293.3747870279856,1299.10208360082,stimuli/296_yb.png,a,5.715392195397726,ambig,0.333,4.229508197,2.052587332,0.262806878
139,21,0,2,8,14,182,1299.6587272642776,1304.0620428929376,stimuli/176_xb.png,l,4.391470721910991,harmless,0.333,6.796610169,0.517942249,0.067430337
139,21,0,2,8,15,183,1304.6683808140472,1309.8381070047014,stimuli/148_xc.png,l,5.15814043431692,harmless,0.333,6.491525424,1.135218061,0.147792803
139,21,0,2,8,16,184,1310.438653819948,1314.726032328423,stimuli/181_xa.png,l,4.275633244665187,harmless,0.333,6.666666667,0.950765377,0.122743282
139,21,0,2,8,17,185,1315.2998602635773,1326.630052940727,stimuli/254_ya.png,l,11.318371794982795,ambig,0.333,5.983606557,1.627798137,0.208418195
139,21,0,2,8,18,186,1327.1935034378782,1332.82207354988,stimuli/349_za.png,l,5.616780343638311,awful,0.333,3.288135593,2.101320172,0.273568585
139,21,0,2,8,19,187,1333.3872904445964,1340.5821660405834,stimuli/361_za.png,a,7.183064559960258,awful,0.333,2.416666667,1.907093508,0.246204713
139,21,0,2,8,20,188,1341.18755755069,1345.206025759078,stimuli/232_yb.png,l,4.0069013566403555,ambig,0.333,5.483333333,1.845669845,0.238274952
139,21,0,2,8,21,189,1345.7776950264386,1350.2139826219561,stimuli/372_zb.png,l,4.424537605560545,awful,0.333,2.796610169,2.082601664,0.271131643
139,21,0,2,8,22,190,1350.7847637674638,1354.2540154529263,stimuli/363_zb.png,a,3.4575485631330594,awful,0.333,2.433333333,2.019956927,0.260775318
139,21,0,2,8,23,191,1354.8085800054034,1359.8140524901676,stimuli/163_xa.png,l,4.994209681828124,harmless,0.333,6.627118644,0.963082427,0.125382652
139,21,0,2,8,24,192,1360.4129510615319,1364.3899831670385,stimuli/240_xa.png,l,3.9653837277173807,harmless,0.333,6.482758621,1.096107616,0.143925981
139,21,0,2,9,1,193,1373.0541837037715,1381.5899665467539,stimuli/253_ya.png,l,8.524204569711856,ambig,0.333,5.491803279,1.849531029,0.236808182
139,21,0,2,9,2,194,1382.15307203515,1387.0859378999992,stimuli/343_zb.png,l,4.921080428787263,awful,0.333,3.103448276,2.141401862,0.28117984
139,21,0,2,9,3,195,1387.6542673565789,1392.1019485117756,stimuli/284_ya.png,l,4.435974488256761,ambig,0.333,5.948275862,1.431750417,0.18799804
139,21,0,2,9,4,196,1392.6880770330506,1398.9979319166966,stimuli/318_za.png,l,6.2983045734135885,awful,0.333,3.06557377,2.197489875,0.281359747
139,21,0,2,9,5,197,1399.6032139377237,1403.717981336444,stimuli/162_xa.png,l,4.10317297777965,harmless,0.333,6.644067797,0.905209289,0.117848212
139,21,0,2,9,6,198,1404.3298067084509,1411.3499196161108,stimuli/373_zb.png,a,7.0084897359897695,awful,0.333,2.327586207,1.858011869,0.243968911
139,21,0,2,9,7,199,1411.9257652223298,1415.045926730538,stimuli/185_xa.png,l,3.1078294144385836,harmless,0.333,6.5,0.965506805,0.124646393
139,21,0,2,9,8,200,1415.6089215483173,1420.1739068618147,stimuli/101_xa.png,l,4.553217994333409,harmless,0.333,6.508522727,1.13475832,0.060482822
139,21,0,2,9,9,201,1420.7525412888047,1420.7899168434376,stimuli/221_xb.png,l,0.025491263322692248,harmless,0.333,6.440677966,1.133672495,0.147591588
139,21,0,2,9,10,202,1421.3548789200438,1424.68586874071,stimuli/340_za.png,l,3.3189625633990545,awful,0.333,2.508474576,1.832398855,0.238558011
139,21,0,2,9,11,203,1425.249555545228,1431.989859657055,stimuli/330_ya.png,l,6.728886133720152,ambig,0.333,4.796610169,2.049219036,0.266785595
139,21,0,2,9,12,204,1432.548890812606,1440.5738921319887,stimuli/275_yb.png,l,8.013138295735644,ambig,0.333,4.836065574,2.138382004,0.27379176
139,21,0,2,9,13,205,1441.1511264378316,1444.5579098770966,stimuli/195_xc.png,l,3.3951208830335418,harmless,0.333,6.637640449,1.001766915,0.05309354
139,21,0,2,9,14,206,1445.1301376175331,1451.7339230252385,stimuli/250_yb.png,l,6.592268180504107,ambig,0.333,5.950819672,1.585625318,0.203018519
139,21,0,2,9,15,207,1452.30037777671,1458.4778800551069,stimuli/245_yb.png,l,6.165937789722648,ambig,0.333,4.949152542,2.096168334,0.272897873
139,21,0,2,9,16,208,1459.0423171355135,1469.2138353236976,stimuli/359_za.png,l,10.15976937976393,awful,0.333,2.01754386,1.641985167,0.217486248
139,21,0,2,9,17,209,1469.7732233033719,1476.0698075591574,stimuli/334_za.png,a,6.284897281126177,awful,0.333,3.333333333,2.214487481,0.285889104
139,21,0,2,9,18,210,1476.6370846602647,1479.3338097552407,stimuli/184_xb.png,l,2.6849227235529725,harmless,0.333,6.508474576,1.194425,0.15550089
139,21,0,2,9,19,211,1479.90079501675,1483.3738347092983,stimuli/132_xc.png,l,3.461112472066361,harmless,0.333,6.627118644,0.692280217,0.090127208
139,21,0,2,9,20,212,1483.973807297644,1490.3497770439997,stimuli/251_ya.png,l,6.364477331428134,ambig,0.333,5.655172414,1.792300532,0.235340589
139,21,0,2,9,21,213,1490.913608783702,1497.5978253420747,stimuli/235_ya.png,l,6.672283824052101,ambig,0.333,5.694915254,1.567495667,0.204070554
139,21,0,2,9,22,214,1498.152780195552,1501.053767015115,stimuli/199_za.png,a,2.8892265896201934,awful,0.333,3.033898305,2.189048775,0.284989876
139,21,0,2,9,23,215,1501.6576737272683,1509.9337772235933,stimuli/305_zb.png,l,8.264053002167202,awful,0.333,2.75,2.12830003,0.274762352
139,21,0,2,9,24,216,1510.5084452314352,1512.3737957185829,stimuli/106_xc.png,l,1.853557568018914,harmless,0.333,6.661016949,0.863237081,0.112383896
139,21,0,2,10,1,217,1521.7030766431433,1526.4697443863213,stimuli/294_za.png,a,4.755466774002343,awful,0.333,1.557377049,1.38473331,0.177296933
139,21,0,2,10,2,218,1527.0285427791162,1530.261731676136,stimuli/212_ya.png,a,3.221291608804222,ambig,0.333,5.677966102,1.490668422,0.194068498
139,21,0,2,10,3,219,1530.8333926727385,1533.6377597116418,stimuli/348_za.png,a,2.792840359407819,awful,0.333,3.084745763,2.119597681,0.275948114
139,21,0,2,10,4,220,1534.2006493726433,1537.6777161365637,stimuli/167_xb.png,l,3.4651801095365045,harmless,0.333,6.590163934,0.955284411,0.122311635
139,21,0,2,10,5,221,1538.2466170631249,1541.9177378610873,stimuli/270_yb.png,l,3.659410192566611,ambig,0.333,5.534482759,1.912246013,0.251090203
139,21,0,2,10,6,222,1542.4776728923155,1545.3897263797,stimuli/143_xb.png,l,2.900320432789158,harmless,0.333,6.655172414,0.738697862,0.096995781
139,21,0,2,10,7,223,1545.9768792934094,1551.1177326623254,stimuli/303_zb.png,l,5.129114012790524,awful,0.333,3.620689655,2.158846233,0.283470398
139,21,0,2,10,8,224,1551.686433909162,1555.8537103801161,stimuli/315_yb.png,l,4.155511514863974,ambig,0.333,5.050847458,1.915667965,0.249398726
139,21,0,2,10,9,225,1556.436146204943,1561.565704081737,stimuli/357_za.png,a,5.118332489190834,awful,0.333,2.793103448,2.066937905,0.271402243
139,21,0,2,10,10,226,1562.1411432392854,1565.877704242426,stimuli/139_xa.png,l,3.7251638988509512,harmless,0.333,6.724137931,0.790138861,0.103750315
139,21,0,2,10,11,227,1566.475499652234,1570.6297169904208,stimuli/345_zb.png,l,4.142416542145838,awful,0.333,3.694915254,2.191317013,0.285285176
139,21,0,2,10,12,228,1571.2354440569877,1574.6857163224588,stimuli/279_ya.png,l,3.438502189387691,ambig,0.333,5.31147541,1.970964092,0.252356093
139,21,0,2,10,13,229,1575.2483298976865,1579.3976730025922,stimuli/223_yb.png,l,4.137613988766134,ambig,0.333,5.542372881,1.77455224,0.231027024
139,21,0,2,10,14,230,1579.9667259535593,1583.2936918536186,stimuli/233_yb.png,l,3.3149638489112476,ambig,0.333,5.318309859,1.922973646,0.102060844
139,21,0,2,10,15,231,1583.8806379983819,1586.9896521004177,stimuli/186_xa.png,l,3.0972184259881033,harmless,0.333,6.65,0.879618561,0.113558268
139,21,0,2,10,16,232,1587.5638136228047,1592.2056874456982,stimuli/299_za.png,a,4.630111623722769,awful,0.333,1.288135593,0.929420425,0.121000233
139,21,0,2,10,17,233,1592.778958089313,1598.7096873417233,stimuli/177_xb.png,l,5.9193746834466765,harmless,0.333,6.482758621,1.063614811,0.139659467
139,21,0,2,10,18,234,1599.307704880456,1601.8616341599625,stimuli/183_xb.png,l,2.5417649639666706,harmless,0.333,6.448275862,1.095003225,0.143780967
139,21,0,2,10,19,235,1602.4340320417034,1607.4696538018309,stimuli/286_ya.png,l,5.023709505778697,ambig,0.333,5.06779661,1.779814082,0.231712057
139,21,0,2,10,20,236,1608.040875266732,1615.333597866302,stimuli/202_yb.png,l,7.281141569380452,ambig,0.333,5.431034483,1.892849601,0.248543329
139,21,0,2,10,21,237,1615.9688314521952,1622.1336298465656,stimuli/344_za.png,a,6.1529404907159915,awful,0.333,2.711864407,2.043077863,0.265986082
139,21,0,2,10,22,238,1622.7383754498699,1626.2376306878198,stimuli/135_xa.png,l,3.487459955747454,harmless,0.333,6.508474576,1.179901828,0.153610134
139,21,0,2,10,23,239,1626.8409954684123,1628.9896024758712,stimuli/154_xc.png,l,2.136599048626522,harmless,0.333,6.5,0.965506805,0.124646393
139,21,0,2,10,24,240,1629.5516776641487,1635.1656624916407,stimuli/302_za.png,a,5.602343145078066,awful,0.333,3.137931034,2.188071937,0.287307921
