id,age,condition,counterbalance,block,trialinblock,trial,tstart,tend,trialstim,response,RT,trialtype,ethicfreq,norm_mean,norm_sd,norm_se
146,21,0,1,0,0,practice,3.5446137189865112e-06,6.176867213100195,stimuli/prac_217_1.png,l,6.164050281047821,harmless,NA,NA,NA,NA
146,21,0,1,1,1,1,3.8874766007065773,10.888950373977423,stimuli/353_zb.png,a,6.991002980619669,awful,0.333,1.949152542,1.623361018,0.211343603
146,21,0,1,1,2,2,11.52312014438212,16.560913613066077,stimuli/203_yb.png,l,5.027571588754654,ambig,0.333,6,1.542501327,0.200816568
146,21,0,1,1,3,3,17.115238968282938,21.76092873699963,stimuli/156_xc.png,l,4.635008662939072,harmless,0.333,6.590163934,0.955284411,0.122311635
146,21,0,1,1,4,4,22.373135287314653,27.33692862279713,stimuli/370_za.png,l,4.953395405784249,awful,0.333,2.393442623,1.882185684,0.240989182
146,21,0,1,1,5,5,27.92221382446587,36.40092979185283,stimuli/231_xb.png,l,8.468069519847631,harmless,0.333,6.62295082,1.05141071,0.134619347
146,21,0,1,1,6,6,37.02777048200369,43.344904793426394,stimuli/348_za.png,a,6.30663949623704,awful,0.333,3.084745763,2.119597681,0.275948114
146,21,0,1,1,7,7,43.97351660951972,50.14492314681411,stimuli/237_ya.png,l,6.160864854231477,ambig,0.333,4.305084746,2.019339575,0.26289562
146,21,0,1,1,8,8,50.78704033792019,56.25691288523376,stimuli/177_xb.png,l,5.460018124431372,harmless,0.333,6.482758621,1.063614811,0.139659467
146,21,0,1,1,9,9,56.87834527902305,62.44887740164995,stimuli/330_ya.png,a,5.559734437614679,ambig,0.333,4.796610169,2.049219036,0.266785595
146,21,0,1,1,10,10,63.07687993533909,71.88091906346381,stimuli/286_ya.png,l,8.793515166267753,ambig,0.333,5.06779661,1.779814082,0.231712057
146,21,0,1,1,11,11,72.50246606767178,76.39291226677597,stimuli/113_xb.png,l,3.8799155429005623,harmless,0.333,6.733333333,0.660422737,0.085260209
146,21,0,1,1,12,12,77.0099879372865,80.48088409006596,stimuli/135_xa.png,l,3.460162665694952,harmless,0.333,6.508474576,1.179901828,0.153610134
146,21,0,1,1,13,13,81.06858711317182,84.02491903491318,stimuli/102_xc.png,l,2.945787874981761,harmless,0.333,6.66011236,0.937292468,0.049676401
146,21,0,1,1,14,14,84.60314336419106,86.30488057993352,stimuli/361_za.png,a,1.6910439003258944,awful,0.333,2.416666667,1.907093508,0.246204713
146,21,0,1,1,15,15,86.94010704010725,92.83288559690118,stimuli/283_yb.png,l,5.882043493911624,ambig,0.333,5.949152542,1.478859402,0.192531095
146,21,0,1,1,16,16,93.45992045104504,99.0488999299705,stimuli/317_za.png,a,5.57850238494575,awful,0.333,3.65,2.03215674,0.262350307
146,21,0,1,1,17,17,99.66775538958609,102.58489056862891,stimuli/346_zb.png,a,2.9067159816622734,awful,0.333,1.288135593,0.983499162,0.128040685
146,21,0,1,1,18,18,103.18174775503576,107.41691403463483,stimuli/259_xc.png,l,4.224518256261945,harmless,0.333,6.568965517,0.993170874,0.130409725
146,21,0,1,1,19,19,108.03700144588947,110.55291263014078,stimuli/301_za.png,a,2.505517192184925,awful,0.333,3.610169492,2.212947396,0.288101212
146,21,0,1,1,20,20,111.13714074902236,118.07288476079702,stimuli/332_zb.png,a,6.9253220576792955,awful,0.333,2.694915254,2.002190501,0.260663001
146,21,0,1,1,21,21,118.67911627329886,123.26489378139377,stimuli/261_yb.png,l,4.57498336955905,ambig,0.333,5.706896552,1.901141123,0.249632059
146,21,0,1,1,22,22,123.88342274352908,134.0009920988232,stimuli/350_ya.png,a,10.107313210144639,ambig,0.333,4.915254237,2.02814792,0.264042369
146,21,0,1,1,23,23,134.5906690787524,140.9368743505329,stimuli/277_yb.png,l,6.335823489353061,ambig,0.333,5.491525424,2.02886822,0.264136144
146,21,0,1,1,24,24,141.56032048165798,147.40090025402606,stimuli/175_xb.png,l,5.830060537904501,harmless,0.333,6.6,1.028409995,0.13276716
146,21,0,1,2,1,25,157.84303422272205,164.50487443618476,stimuli/232_yb.png,l,6.651237089186907,ambig,0.333,5.483333333,1.845669845,0.238274952
146,21,0,1,2,2,26,165.13380881026387,170.51290495879948,stimuli/270_yb.png,l,5.368460334837437,ambig,0.333,5.534482759,1.912246013,0.251090203
146,21,0,1,2,3,27,171.136994631961,177.0408973712474,stimuli/263_ya.png,l,5.893229117617011,ambig,0.333,4.983050847,2.071910042,0.269739712
146,21,0,1,2,4,28,177.66116555593908,181.81689780950546,stimuli/104_xc.png,l,4.144984981045127,harmless,0.333,6.745762712,0.756425814,0.098478253
146,21,0,1,2,5,29,182.44981830008328,187.27289121970534,stimuli/193_xc.png,l,4.8124800361692905,harmless,0.333,6.482758621,1.012923151,0.133003326
146,21,0,1,2,6,30,187.86134412698448,191.7129015699029,stimuli/337_zb.png,a,3.8417577650398016,awful,0.333,3.033333333,2.20143764,0.284204377
146,21,0,1,2,7,31,192.33679156564176,195.3288681693375,stimuli/308_zb.png,a,2.9815400410443544,awful,0.333,1.644067797,1.471132708,0.191525165
146,21,0,1,2,8,32,195.88804295100272,200.1288676187396,stimuli/248_zb.png,a,4.230194367468357,awful,0.333,3.288135593,1.991800844,0.259310383
146,21,0,1,2,9,33,200.7805883511901,211.39287879131734,stimuli/267_ya.png,l,10.601734576746821,ambig,0.333,5.103448276,1.898195405,0.249245267
146,21,0,1,2,10,34,212.02189626730978,220.60090474411845,stimuli/341_zb.png,l,8.568301770836115,awful,0.333,3.603448276,2.15975677,0.283589957
146,21,0,1,2,11,35,221.22404524870217,226.44088390097022,stimuli/296_yb.png,a,5.206326507031918,ambig,0.333,4.229508197,2.052587332,0.262806878
146,21,0,1,2,12,36,227.08856495469809,230.72088049910963,stimuli/114_xc.png,l,3.6215355824679136,harmless,0.333,6.644067797,0.97843492,0.127381377
146,21,0,1,2,13,37,231.31889204867184,236.40888508968055,stimuli/191_ya.png,l,5.079364711418748,ambig,0.333,5.517241379,2.062542966,0.270825159
146,21,0,1,2,14,38,237.0526796709746,244.96887631341815,stimuli/254_ya.png,l,7.905700646340847,ambig,0.333,5.983606557,1.627798137,0.208418195
146,21,0,1,2,15,39,245.5809993688017,254.75290412269533,stimuli/315_yb.png,l,9.16120159253478,ambig,0.333,5.050847458,1.915667965,0.249398726
146,21,0,1,2,16,40,255.3173544742167,261.7128885742277,stimuli/318_za.png,a,6.384886866435409,awful,0.333,3.06557377,2.197489875,0.281359747
146,21,0,1,2,17,41,262.33906720764935,266.9048353675753,stimuli/321_zb.png,a,4.5553068201988935,awful,0.333,2.918032787,2.177881861,0.278849198
146,21,0,1,2,18,42,267.5147048346698,272.5688645783812,stimuli/311_za.png,l,5.043625542894006,awful,0.333,3.116666667,1.975199339,0.254997138
146,21,0,1,2,19,43,273.2041556276381,278.09687865152955,stimuli/110_xa.png,l,4.882257746532559,harmless,0.333,6.428571429,1.059281795,0.141552484
146,21,0,1,2,20,44,278.6878750156611,282.2728628627956,stimuli/116_xa.png,l,3.5745146926492453,harmless,0.333,6.63559322,0.958030802,0.050918763
146,21,0,1,2,21,45,282.8867334127426,288.80886728689075,stimuli/366_za.png,a,5.911633936688304,awful,0.333,3.689655172,2.036568291,0.267414518
146,21,0,1,2,22,46,289.4466395676136,293.712848007679,stimuli/255_xb.png,l,4.255922362208366,harmless,0.333,6.770491803,0.642740036,0.082294429
146,21,0,1,2,23,47,294.36460891366005,298.1608750950545,stimuli/169_xc.png,l,3.7857642769813538,harmless,0.333,6.603448276,0.916508538,0.120343467
146,21,0,1,2,24,48,298.8049729373306,301.76082082279027,stimuli/132_xc.png,l,2.9461214635521173,harmless,0.333,6.627118644,0.692280217,0.090127208
146,21,0,1,3,1,49,310.26523051969707,315.5688630025834,stimuli/355_zb.png,a,5.2928926926106215,awful,0.333,3.183333333,2.070713188,0.267327923
146,21,0,1,3,2,50,316.17297798395157,323.8888751491904,stimuli/276_ya.png,l,7.7052597757428885,ambig,0.333,5.186440678,1.804922162,0.234980851
146,21,0,1,3,3,51,324.50584605522454,328.64087696932256,stimuli/249_ya.png,l,4.124359656125307,ambig,0.333,5.327868852,1.859402337,0.238072074
146,21,0,1,3,4,52,329.2779155150056,333.42485318519175,stimuli/345_zb.png,a,4.1362152099609375,awful,0.333,3.694915254,2.191317013,0.285285176
146,21,0,1,3,5,53,334.02297107316554,338.2488650344312,stimuli/205_yb.png,l,4.215359760448337,ambig,0.333,5.847457627,1.52918233,0.199082582
146,21,0,1,3,6,54,338.8883151002228,342.0568398665637,stimuli/130_xc.png,l,3.157868079841137,harmless,0.333,6.644067797,0.960651931,0.125066229
146,21,0,1,3,7,55,342.64093762263656,347.30483725667,stimuli/141_xc.png,l,4.653258306905627,harmless,0.333,6.508474576,1.040107444,0.135410455
146,21,0,1,3,8,56,347.95503026247025,351.78484897874296,stimuli/262_ya.png,l,3.819236073642969,ambig,0.333,5.491525424,1.7750462,0.231091332
146,21,0,1,3,9,57,352.40603679418564,357.0808648709208,stimuli/118_xb.png,l,4.664310418069363,harmless,0.333,6.474576271,0.953323265,0.124112118
146,21,0,1,3,10,58,357.72258467040956,367.48882402665913,stimuli/293_zb.png,l,9.755726423114538,awful,0.333,3.677966102,2.169066842,0.28238845
146,21,0,1,3,11,59,368.1310747321695,376.5608632005751,stimuli/278_xb.png,l,8.419150292873383,harmless,0.333,6.360655738,1.140654591,0.146045855
146,21,0,1,3,12,60,377.13270564749837,384.84088303521276,stimuli/360_za.png,a,7.697882249951363,awful,0.333,3.2,2.207844259,0.285031468
146,21,0,1,3,13,61,385.4645162411034,390.6568939015269,stimuli/312_yb.png,l,5.181736333295703,ambig,0.333,4.677966102,2.112692986,0.275049199
146,21,0,1,3,14,62,391.3106185235083,397.3368321303278,stimuli/220_yb.png,l,6.0154730305075645,ambig,0.333,4.75,2.096203186,0.270618668
146,21,0,1,3,15,63,397.9620868023485,404.1288313847035,stimuli/285_yb.png,a,6.156169028952718,ambig,0.333,4.120689655,2.119893958,0.278355714
146,21,0,1,3,16,64,404.7377154491842,407.3288240581751,stimuli/372_zb.png,a,2.580668931826949,awful,0.333,2.796610169,2.082601664,0.271131643
146,21,0,1,3,17,65,407.95915776863694,410.81700375303626,stimuli/112_xc.png,l,2.8475031927227974,harmless,0.333,6.706896552,0.749470472,0.098410294
146,21,0,1,3,18,66,411.48902370780706,414.2088313680142,stimuli/126_xa.png,l,2.709182482212782,harmless,0.333,6.6,0.977717855,0.126222832
146,21,0,1,3,19,67,414.8659064397216,418.2408274244517,stimuli/105_xa.png,l,3.364187892526388,harmless,0.333,6.557377049,1.088187946,0.139328189
146,21,0,1,3,20,68,418.7963670063764,422.3368986900896,stimuli/136_xc.png,l,3.5297966208308935,harmless,0.333,6.559322034,1.038420326,0.135190811
146,21,0,1,3,21,69,422.9622537922114,426.5448596589267,stimuli/313_zb.png,a,3.57228946313262,awful,0.333,2.101694915,1.688652955,0.219843889
146,21,0,1,3,22,70,427.1496146414429,429.29685517959297,stimuli/295_za.png,a,2.1366693153977394,awful,0.333,2.3,1.825432384,0.235662307
146,21,0,1,3,23,71,429.8634315095842,435.1208276450634,stimuli/217_yb.png,a,5.247258931398392,ambig,0.333,5.169491525,2.001314588,0.260548967
146,21,0,1,3,24,72,435.7183941490948,439.0408229343593,stimuli/351_zb.png,a,3.311831569299102,awful,0.333,3.06779661,2.033040926,0.264679384
146,21,0,1,4,1,73,447.50845922343433,451.14494992792606,stimuli/174_xc.png,l,3.6260399986058474,harmless,0.333,6.533333333,1.111826512,0.143536185
146,21,0,1,4,2,74,451.748786855489,457.6568100117147,stimuli/358_za.png,l,5.897215625271201,awful,0.333,3.949152542,2.112554662,0.275031191
146,21,0,1,4,3,75,458.26462872326374,463.2808161918074,stimuli/281_ya.png,l,5.005274781957269,ambig,0.333,5.881355932,1.543448286,0.200939852
146,21,0,1,4,4,76,463.888251690194,466.4408437293023,stimuli/150_xc.png,l,2.5422161649912596,harmless,0.333,6.482758621,1.030097582,0.135258439
146,21,0,1,4,5,77,467.0654162578285,469.28084336593747,stimuli/294_za.png,a,2.2049409560859203,awful,0.333,1.557377049,1.38473331,0.177296933
146,21,0,1,4,6,78,469.89106493256986,473.00885247811675,stimuli/149_xa.png,l,3.1074132453650236,harmless,0.333,6.721311475,0.933294301,0.11949609
146,21,0,1,4,7,79,473.6420266069472,477.97686942107975,stimuli/362_zb.png,a,4.324396440759301,awful,0.333,1.474576271,1.222715071,0.159183944
146,21,0,1,4,8,80,478.6134381070733,484.02485011331737,stimuli/218_yb.png,l,5.400872685015202,ambig,0.333,5.850282486,1.552723069,0.0825263
146,21,0,1,4,9,81,484.64007155410945,488.1608557961881,stimuli/306_zb.png,a,3.5100062508136034,awful,0.333,2.352112676,1.917055413,0.101746737
146,21,0,1,4,10,82,488.7880233768374,495.5928348377347,stimuli/275_yb.png,l,6.794289467856288,ambig,0.333,4.836065574,2.138382004,0.27379176
146,21,0,1,4,11,83,496.21680793352425,499.56082539074123,stimuli/186_xa.png,l,3.3335821125656366,harmless,0.333,6.65,0.879618561,0.113558268
146,21,0,1,4,12,84,500.180422462523,503.5687862019986,stimuli/148_xc.png,l,3.377834264189005,harmless,0.333,6.491525424,1.135218061,0.147792803
146,21,0,1,4,13,85,504.1828209850937,506.71279011294246,stimuli/260_ya.png,a,2.5201974119991064,ambig,0.333,4.966101695,2.016877936,0.262575142
146,21,0,1,4,14,86,507.3320449311286,511.32880594208837,stimuli/240_xa.png,l,3.9862811602652073,harmless,0.333,6.482758621,1.096107616,0.143925981
146,21,0,1,4,15,87,511.9528704099357,518.1608026269823,stimuli/233_yb.png,l,6.197240084409714,ambig,0.333,5.318309859,1.922973646,0.102060844
146,21,0,1,4,16,88,518.7814855333418,522.0008105356246,stimuli/323_yb.png,l,3.2086616195738316,ambig,0.333,4.603448276,1.955107169,0.256718148
146,21,0,1,4,17,89,522.6209255158901,526.63282911852,stimuli/119_xc.png,l,4.001204775646329,harmless,0.333,6.694915254,0.914523379,0.119060803
146,21,0,1,4,18,90,527.2611069511622,534.4168273899704,stimuli/333_za.png,a,7.145285092294216,awful,0.333,3.266666667,2.185209657,0.282109354
146,21,0,1,4,19,91,535.0427976772189,539.0008365288377,stimuli/367_zb.png,a,3.947620440274477,awful,0.333,3.413793103,2.086165649,0.27392697
146,21,0,1,4,20,92,539.6330654267222,543.8088219948113,stimuli/325_yb.png,a,4.165252692997456,ambig,0.333,5.131147541,1.811770863,0.231973488
146,21,0,1,4,21,93,544.4391970578581,549.1607998702675,stimuli/258_ya.png,a,4.711149742826819,ambig,0.333,5.627118644,1.78014243,0.231754804
146,21,0,1,4,22,94,549.8186126146466,552.1768006552011,stimuli/359_za.png,a,2.3473033159971237,awful,0.333,2.01754386,1.641985167,0.217486248
146,21,0,1,4,23,95,552.8042817376554,555.6647755503654,stimuli/164_xb.png,l,2.8501297533512115,harmless,0.333,6.830508475,0.460604639,0.059965616
146,21,0,1,4,24,96,556.2933097761124,559.2408242728561,stimuli/373_zb.png,a,2.9371075071394444,awful,0.333,2.327586207,1.858011869,0.243968911
146,21,0,1,5,1,97,567.8592921886593,571.2808689661324,stimuli/297_za.png,a,3.4118231795728207,awful,0.333,1.898305085,1.446695584,0.188343723
146,21,0,1,5,2,98,571.9135826881975,575.6888269409537,stimuli/265_yb.png,l,3.764518642798066,ambig,0.333,5.627118644,1.856008928,0.241631781
146,21,0,1,5,3,99,576.3075859099627,579.0728178080171,stimuli/371_zb.png,a,2.754783555865288,awful,0.333,3.131147541,2.085468851,0.267016925
146,21,0,1,5,4,100,579.6348330080509,582.816781623289,stimuli/215_yb.png,l,3.171592039987445,ambig,0.333,5.866666667,1.466769385,0.189359113
146,21,0,1,5,5,101,583.4581623226404,585.616844875738,stimuli/179_xb.png,l,2.112473774701357,harmless,0.333,6.704918033,0.882123617,0.112944356
146,21,0,1,5,6,102,586.2591136973351,589.4888283591717,stimuli/210_yb.png,l,3.2195179872214794,ambig,0.333,5.557377049,1.76564049,0.226067099
146,21,0,1,5,7,103,590.1006371248513,595.51277420111,stimuli/290_zb.png,l,5.401689127087593,awful,0.333,2.586206897,2.026443456,0.266085062
146,21,0,1,5,8,104,596.1028560549021,601.1288006640971,stimuli/133_xa.png,l,5.016060255467892,harmless,0.333,6.568965517,1.186356193,0.1557762
146,21,0,1,5,9,105,601.7476529739797,604.1607766337693,stimuli/299_za.png,a,2.402350001037121,awful,0.333,1.288135593,0.929420425,0.121000233
146,21,0,1,5,10,106,604.7952622678131,608.3608197197318,stimuli/189_yb.png,l,3.555088235065341,ambig,0.333,5.983333333,1.455459234,0.187898979
146,21,0,1,5,11,107,608.9264559410512,616.0727890562266,stimuli/287_ya.png,l,7.135856416076422,ambig,0.333,5.950819672,1.407435369,0.180203633
146,21,0,1,5,12,108,616.6707474384457,620.1848658341914,stimuli/326_zb.png,a,3.503600737079978,awful,0.333,3.389830508,2.220724867,0.289113752
146,21,0,1,5,13,109,620.8255848716944,625.5208232328296,stimuli/209_ya.png,l,4.6846053041517735,ambig,0.333,5.603448276,1.825161903,0.239655499
146,21,0,1,5,14,110,626.1594761535525,629.8647713754326,stimuli/347_zb.png,l,3.694869328290224,awful,0.333,3.796610169,2.147810923,0.279621165
146,21,0,1,5,15,111,630.4891820326447,636.9448225591332,stimuli/172_xb.png,l,6.445011802017689,harmless,0.333,6.482758621,1.127664553,0.14806961
146,21,0,1,5,16,112,637.5225321315229,639.4728114269674,stimuli/213_ya.png,l,1.9396686889231205,ambig,0.333,5.98245614,1.597891781,0.211645937
146,21,0,1,5,17,113,640.0833417680115,643.7687934488058,stimuli/182_xb.png,l,3.67488912306726,harmless,0.333,6.542372881,0.988241802,0.128658124
146,21,0,1,5,18,114,644.4100327566266,647.9688038472086,stimuli/155_xb.png,l,3.5481663905084133,harmless,0.333,6.655737705,0.892286312,0.114245555
146,21,0,1,5,19,115,648.6068333089352,654.8168072234839,stimuli/368_za.png,l,6.199351493269205,awful,0.333,3.590163934,2.02794682,0.259651984
146,21,0,1,5,20,116,655.4080966096371,659.3367628138512,stimuli/303_zb.png,a,3.9182820580899715,awful,0.333,3.620689655,2.158846233,0.283470398
146,21,0,1,5,21,117,659.9622652139515,665.1448203530163,stimuli/272_xb.png,l,5.172281663864851,harmless,0.333,6.355932203,1.029943284,0.134087194
146,21,0,1,5,22,118,665.7677253391594,669.8967607337981,stimuli/257_yb.png,a,4.118559090420604,ambig,0.333,5.620689655,1.843219782,0.242026615
146,21,0,1,5,23,119,670.5111283175647,674.8247609455138,stimuli/238_xb.png,l,4.303142931312323,harmless,0.333,6.4,1.076718178,0.139003719
146,21,0,1,5,24,120,675.4549260884523,678.5048027560115,stimuli/138_xc.png,l,3.039646515622735,harmless,0.333,6.661016949,0.70978796,0.092406522
146,21,0,1,6,1,121,687.1625706013292,690.7608960475773,stimuli/284_ya.png,l,3.587624253705144,ambig,0.333,5.948275862,1.431750417,0.18799804
146,21,0,1,6,2,122,691.338515823707,696.9047979507595,stimuli/342_yb.png,l,5.555585661903024,ambig,0.333,4.916666667,2.085394461,0.269223267
146,21,0,1,6,3,123,697.517578728497,700.7929173093289,stimuli/214_xb.png,l,3.2647984717041254,harmless,0.333,6.465517241,0.940614156,0.12350869
146,21,0,1,6,4,124,701.4301441125572,704.5767651293427,stimuli/227_xa.png,l,3.1359521206468344,harmless,0.333,6.180327869,1.05685377,0.135316259
146,21,0,1,6,5,125,705.194412663579,708.3527517840266,stimuli/369_za.png,a,3.1483125872910023,awful,0.333,2.948275862,2.055565093,0.26990892
146,21,0,1,6,6,126,708.9685368184,714.5927686709911,stimuli/300_za.png,a,5.6137078907340765,awful,0.333,3.75,2.12032137,0.273732312
146,21,0,1,6,7,127,715.2595520485193,720.3767886031419,stimuli/271_ya.png,l,5.10697765275836,ambig,0.333,5.711864407,1.771915459,0.230683744
146,21,0,1,6,8,128,721.0415531247854,725.5047688856721,stimuli/142_xa.png,l,4.452822163701057,harmless,0.333,6.4,1.076718178,0.139003719
146,21,0,1,6,9,129,726.0684819556773,729.40078997612,stimuli/161_xc.png,l,3.321547357365489,harmless,0.333,6.796610169,0.609682252,0.079373868
146,21,0,1,6,10,130,730.0421545282006,732.8327587787062,stimuli/144_xa.png,l,2.7801082525402308,harmless,0.333,6.542372881,1.00553698,0.130909764
146,21,0,1,6,11,131,733.4485442079604,736.6567493602633,stimuli/343_zb.png,a,3.19767252728343,awful,0.333,3.103448276,2.141401862,0.28117984
146,21,0,1,6,12,132,737.2479788810015,739.112831780687,stimuli/230_yb.png,a,1.8542407173663378,ambig,0.333,4.98245614,1.875511626,0.248417583
146,21,0,1,6,13,133,739.7332370243967,742.1127762496471,stimuli/305_zb.png,a,2.369329946115613,awful,0.333,2.75,2.12830003,0.274762352
146,21,0,1,6,14,134,742.7264490872622,745.4167647678405,stimuli/364_za.png,a,2.680167054757476,awful,0.333,1.677966102,1.279017376,0.166513879
146,21,0,1,6,15,135,746.0414207931608,751.9367833733559,stimuli/222_ya.png,l,5.8848921824246645,ambig,0.333,5.931034483,1.543089507,0.202617579
146,21,0,1,6,16,136,752.5725576728582,755.6007787119597,stimuli/264_xa.png,l,3.0175430849194527,harmless,0.333,6.533333333,0.947193297,0.122282129
146,21,0,1,6,17,137,756.1780790798366,759.9607788380235,stimuli/314_zb.png,a,3.7720210161060095,awful,0.333,1.833333333,1.451669602,0.18740974
146,21,0,1,6,18,138,760.5862958114594,762.5527858119458,stimuli/298_za.png,a,1.9567013513296843,awful,0.333,2.881355932,2.026418156,0.263817173
146,21,0,1,6,19,139,763.1854747217149,767.8327682297677,stimuli/202_yb.png,l,4.636448564007878,ambig,0.333,5.431034483,1.892849601,0.248543329
146,21,0,1,6,20,140,768.4041081294417,774.2967653814703,stimuli/339_ya.png,a,5.882629536092281,ambig,0.333,4.949152542,1.960152429,0.25519011
146,21,0,1,6,21,141,774.8831884041429,781.0489113517106,stimuli/228_ya.png,l,6.155210407450795,ambig,0.333,5.442622951,1.793735303,0.229664272
146,21,0,1,6,22,142,781.658882824704,786.8087511025369,stimuli/171_xa.png,l,5.139533756300807,harmless,0.333,6.465517241,1.046556882,0.137419651
146,21,0,1,6,23,143,787.426189109683,790.5927391331643,stimuli/178_xa.png,l,3.1564837116748095,harmless,0.333,6.483333333,1.112207557,0.143585378
146,21,0,1,6,24,144,791.2157217059284,794.6887725908309,stimuli/327_zb.png,a,3.4626521673053503,awful,0.333,2.502808989,1.906990248,0.101070281
146,21,0,1,7,1,145,803.4064038582146,807.3687301184982,stimuli/200_ya.png,l,3.952497437596321,ambig,0.333,5.862068966,1.444266048,0.189641423
146,21,0,1,7,2,146,808.0278823338449,811.1048205588013,stimuli/131_xb.png,l,3.066354399546981,harmless,0.333,6.525423729,1.119666394,0.145768149
146,21,0,1,7,3,147,811.7407992631197,815.1847610715777,stimuli/162_xa.png,l,3.432996738702059,harmless,0.333,6.644067797,0.905209289,0.117848212
146,21,0,1,7,4,148,815.8424363639206,817.7847757227719,stimuli/320_za.png,a,1.9319957792758942,awful,0.333,1.423728814,1.117314975,0.14546202
146,21,0,1,7,5,149,818.3939945567399,821.5607336256653,stimuli/226_yb.png,l,3.156315144151449,ambig,0.333,5.683333333,1.712285287,0.22105508
146,21,0,1,7,6,150,822.1339344475418,825.7767932508141,stimuli/234_xb.png,l,3.6326337717473507,harmless,0.333,6.637931034,0.788030542,0.103473479
146,21,0,1,7,7,151,826.4079567939043,829.1047476958483,stimuli/304_ya.png,a,2.686288207769394,ambig,0.333,4.034482759,2.017167697,0.264867095
146,21,0,1,7,8,152,829.7387020327151,833.4087669346482,stimuli/212_ya.png,l,3.659467291086912,ambig,0.333,5.677966102,1.490668422,0.194068498
146,21,0,1,7,9,153,834.0091301407665,837.1447274051607,stimuli/127_xb.png,l,3.125019347295165,harmless,0.333,6.423728814,1.162686987,0.151368953
146,21,0,1,7,10,154,837.762360367924,841.7927644960582,stimuli/198_yb.png,l,4.019926248118281,ambig,0.333,5.101694915,1.83542643,0.238952168
146,21,0,1,7,11,155,842.3775388803333,845.2487425487489,stimuli/103_xb.png,l,2.860997147858143,harmless,0.333,6.779661017,0.589207434,0.076708274
146,21,0,1,7,12,156,845.9041642528027,849.200727198273,stimuli/173_yb.png,l,3.2857731375843287,ambig,0.333,5.796610169,1.242628763,0.161776485
146,21,0,1,7,13,157,849.8117561489344,853.0087630748749,stimuli/328_za.png,a,3.186721635982394,awful,0.333,2.706896552,1.955725922,0.256799395
146,21,0,1,7,14,158,853.6184883955866,856.1767415776849,stimuli/292_zb.png,a,2.5476595107465982,awful,0.333,2.396551724,1.955107169,0.256718148
146,21,0,1,7,15,159,856.8094253670424,859.3607704900205,stimuli/236_yb.png,l,2.5412465147674084,ambig,0.333,5.93442623,1.49297078,0.19115532
146,21,0,1,7,16,160,859.9642911590636,864.4007773734629,stimuli/356_za.png,a,4.426050869747996,awful,0.333,3.033333333,2.178217796,0.281206708
146,21,0,1,7,17,161,865.0031885784119,868.1047445461154,stimuli/329_zb.png,a,3.090926455333829,awful,0.333,2.406779661,1.992387617,0.259386774
146,21,0,1,7,18,162,868.7307817880064,871.568730276078,stimuli/216_xa.png,l,2.8273256700485945,harmless,0.333,6.603448276,0.877389573,0.115206895
146,21,0,1,7,19,163,872.1630073767155,880.2487460933626,stimuli/269_za.png,l,8.075022557750344,awful,0.333,3.457627119,2.119873401,0.27598401
146,21,0,1,7,20,164,880.8827622625977,885.3527616299689,stimuli/147_ya.png,l,4.459278088063002,ambig,0.333,5.883333333,1.766847875,0.22809908
146,21,0,1,7,21,165,885.9648547526449,890.1687350813299,stimuli/181_xa.png,l,4.19311454705894,harmless,0.333,6.666666667,0.950765377,0.122743282
146,21,0,1,7,22,166,890.7890485581011,894.0567414052784,stimuli/123_xc.png,l,3.2577990386635065,harmless,0.333,6.491525424,1.023396666,0.133234897
146,21,0,1,7,23,167,894.6982374992222,897.2247262075543,stimuli/252_zb.png,a,2.516013978049159,awful,0.333,2.711864407,1.983125776,0.258180985
146,21,0,1,7,24,168,897.8707381431013,900.2567789778113,stimuli/340_za.png,a,2.375504270195961,awful,0.333,2.508474576,1.832398855,0.238558011
146,21,0,1,8,1,169,908.6734326798469,913.272743133828,stimuli/139_xa.png,l,4.589487932622433,harmless,0.333,6.724137931,0.790138861,0.103750315
146,21,0,1,8,2,170,913.8858673460782,917.6087564583868,stimuli/335_yb.png,l,3.7121406588703394,ambig,0.333,5.016949153,2.046793332,0.266469795
146,21,0,1,8,3,171,918.1828706096858,921.5367673039436,stimuli/363_zb.png,a,3.343411723151803,awful,0.333,2.433333333,2.019956927,0.260775318
146,21,0,1,8,4,172,922.1579566951841,925.1447435542941,stimuli/274_xb.png,l,2.975589420646429,harmless,0.333,6.491525424,1.179901828,0.153610134
146,21,0,1,8,5,173,925.7162398099899,930.1287360731512,stimuli/352_zb.png,a,4.401743084192276,awful,0.333,2.93442623,2.135952968,0.273480754
146,21,0,1,8,6,174,930.6980441212654,934.1687244474888,stimuli/196_xb.png,l,3.4601358845829964,harmless,0.333,6.594366197,0.982313556,0.05213579
146,21,0,1,8,7,175,934.7519588917494,938.4247106127441,stimuli/235_ya.png,l,3.662185223773122,ambig,0.333,5.694915254,1.567495667,0.204070554
146,21,0,1,8,8,176,939.0146770682186,943.5367342215031,stimuli/239_ya.png,l,4.511593056842685,ambig,0.333,5.157894737,1.925296579,0.255011762
146,21,0,1,8,9,177,944.113585209474,948.0487356949598,stimuli/245_yb.png,l,3.924666304141283,ambig,0.333,4.949152542,2.096168334,0.272897873
146,21,0,1,8,10,178,948.6438382975757,954.6727458126843,stimuli/338_zb.png,a,6.018280366435647,awful,0.333,3.310344828,2.137443107,0.28066003
146,21,0,1,8,11,179,955.2624121587723,960.5127426926047,stimuli/253_ya.png,l,5.239832961931825,ambig,0.333,5.491803279,1.849531029,0.236808182
146,21,0,1,8,12,180,961.1044215913862,964.8167347572744,stimuli/302_za.png,a,3.701775813475251,awful,0.333,3.137931034,2.188071937,0.287307921
146,21,0,1,8,13,181,965.3829172421247,969.6487668883055,stimuli/324_za.png,a,4.25518705137074,awful,0.333,2.491525424,1.994586478,0.259673041
146,21,0,1,8,14,182,970.252459667623,974.2567104492337,stimuli/282_xc.png,l,3.9935397431254387,harmless,0.333,6.55,0.998728005,0.128935231
146,21,0,1,8,15,183,974.8466741479933,977.9687471333891,stimuli/185_xa.png,l,3.1112658493220806,harmless,0.333,6.5,0.965506805,0.124646393
146,21,0,1,8,16,184,978.6179720629007,982.4967167023569,stimuli/211_zb.png,l,3.867951286956668,awful,0.333,3.983333333,2.127237938,0.274625237
146,21,0,1,8,17,185,983.0633099693805,987.888718791306,stimuli/344_za.png,a,4.8147887624800205,awful,0.333,2.711864407,2.043077863,0.265986082
146,21,0,1,8,18,186,988.45610171929,990.464721435681,stimuli/316_za.png,a,1.9979791771620512,awful,0.333,2.344827586,1.802062407,0.236622386
146,21,0,1,8,19,187,991.1026792172343,995.1847248375416,stimuli/279_ya.png,l,4.0715645886957645,ambig,0.333,5.31147541,1.970964092,0.252356093
146,21,0,1,8,20,188,995.7780248075724,999.8567412476987,stimuli/225_ya.png,l,4.068331113085151,ambig,0.333,5.85,1.792876677,0.231459384
146,21,0,1,8,21,189,1000.4971184264868,1003.5047165043652,stimuli/201_yb.png,l,2.9970717541873455,ambig,0.333,5.898305085,1.626238682,0.211718243
146,21,0,1,8,22,190,1004.1126120146364,1006.2807472683489,stimuli/184_xb.png,l,2.157543944194913,harmless,0.333,6.508474576,1.194425,0.15550089
146,21,0,1,8,23,191,1006.8700875099748,1009.4887535292655,stimuli/195_xc.png,l,2.6077560894191265,harmless,0.333,6.637640449,1.001766915,0.05309354
146,21,0,1,8,24,192,1010.1203377004713,1014.2167248316109,stimuli/244_xb.png,l,4.086006136611104,harmless,0.333,6.610169492,0.743174671,0.096753101
146,21,0,1,9,1,193,1022.7510554101318,1027.4057591333985,stimuli/243_ya.png,l,4.644017104059458,ambig,0.333,5.830508475,1.652088985,0.215083666
146,21,0,1,9,2,194,1028.0243822224438,1031.8167473599315,stimuli/188_xa.png,l,3.7817919440567493,harmless,0.333,6.655172414,0.806807095,0.105938962
146,21,0,1,9,3,195,1032.4380789287388,1034.6567245479673,stimuli/115_xb.png,l,2.2081051152199507,harmless,0.333,6.440677966,1.021681954,0.133011661
146,21,0,1,9,4,196,1035.2312715370208,1041.33672933653,stimuli/307_za.png,a,6.094566380605102,awful,0.333,2.93220339,2.172432347,0.282826601
146,21,0,1,9,5,197,1041.9022588264197,1045.2726879958063,stimuli/268_zb.png,a,3.3597563356161118,awful,0.333,2.655737705,2.048456703,0.262278005
146,21,0,1,9,6,198,1045.8388708755374,1048.376725193113,stimuli/153_xb.png,l,2.527707267552614,harmless,0.333,6.633333333,0.973664521,0.125699549
146,21,0,1,9,7,199,1048.970377260819,1050.4566917009652,stimuli/331_za.png,a,1.475706983357668,awful,0.333,1.983606557,1.638004917,0.209725039
146,21,0,1,9,8,200,1051.041066724807,1054.1126817259938,stimuli/108_xb.png,l,3.061129244044423,harmless,0.333,6.568965517,1.077880782,0.141532681
146,21,0,1,9,9,201,1054.7283864170313,1059.1366870384663,stimuli/224_yb.png,l,4.397733731195331,ambig,0.333,5.881355932,1.609077116,0.209483997
146,21,0,1,9,10,202,1059.694482570514,1065.3847186937928,stimuli/334_za.png,a,5.67946876399219,awful,0.333,3.333333333,2.214487481,0.285889104
146,21,0,1,9,11,203,1065.9528849814087,1070.6807133182883,stimuli/165_xb.png,l,4.716758111491799,harmless,0.333,6.557377049,1.008705278,0.129151477
146,21,0,1,9,12,204,1071.2389901317656,1073.4807064663619,stimuli/310_zb.png,a,2.2314456161111593,awful,0.333,3.224137931,2.102989547,0.276136056
146,21,0,1,9,13,205,1074.0490109939128,1080.280685434118,stimuli/246_ya.png,l,6.221137087792158,ambig,0.333,5.542372881,1.715266481,0.223308675
146,21,0,1,9,14,206,1080.8701221682131,1085.8486996982247,stimuli/159_xa.png,l,4.968116585165262,harmless,0.333,6.389830508,1.174689235,0.152931512
146,21,0,1,9,15,207,1086.4706090409309,1090.4727106019855,stimuli/145_xa.png,l,3.99170402623713,harmless,0.333,6.661016949,0.822321556,0.107057148
146,21,0,1,9,16,208,1091.0292304679751,1094.1046846807003,stimuli/241_yb.png,l,3.065012564882636,ambig,0.333,5.508474576,1.442852555,0.187843403
146,21,0,1,9,17,209,1094.6740907970816,1098.3767405543476,stimuli/250_yb.png,l,3.6919454149901867,ambig,0.333,5.950819672,1.585625318,0.203018519
146,21,0,1,9,18,210,1098.9375624004751,1102.8406892623752,stimuli/365_zb.png,a,3.892694666981697,awful,0.333,2.966101695,2.165291266,0.281896912
146,21,0,1,9,19,211,1103.3977404274046,1106.84074321948,stimuli/192_za.png,a,3.432193687185645,awful,0.333,2.68852459,2.093967396,0.268105052
146,21,0,1,9,20,212,1107.3883519247174,1111.23272167705,stimuli/349_za.png,a,3.8334586415439844,awful,0.333,3.288135593,2.101320172,0.273568585
146,21,0,1,9,21,213,1111.8536113519222,1115.8006784394383,stimuli/273_ya.png,l,3.9364875946193933,ambig,0.333,5.551724138,1.836973233,0.241206403
146,21,0,1,9,22,214,1116.3891498558223,1121.9047298152,stimuli/336_ya.png,l,5.504848835989833,ambig,0.333,5.033898305,1.884291705,0.245313885
146,21,0,1,9,23,215,1122.5473712161183,1130.424702340737,stimuli/176_xb.png,l,7.866667741909623,harmless,0.333,6.796610169,0.517942249,0.067430337
146,21,0,1,9,24,216,1130.9849987979978,1135.392683442682,stimuli/207_yb.png,l,4.396912954747677,ambig,0.333,5.655737705,1.662179753,0.212820309
146,21,0,1,10,1,217,1144.06724961102,1148.0647033974528,stimuli/251_ya.png,l,3.9865663051605225,ambig,0.333,5.655172414,1.792300532,0.235340589
146,21,0,1,10,2,218,1148.6883826833218,1152.2567006014287,stimuli/180_xc.png,l,3.5578936003148556,harmless,0.333,6.672131148,0.723908638,0.092687003
146,21,0,1,10,3,219,1152.8256018068641,1156.8966784216464,stimuli/309_ya.png,l,4.060525478795171,ambig,0.333,4.706896552,1.946734744,0.255618795
146,21,0,1,10,4,220,1157.5019359514117,1162.8567148596048,stimuli/219_ya.png,l,5.34460074454546,ambig,0.333,5.271186441,1.998538332,0.260187529
146,21,0,1,10,5,221,1163.430751029402,1166.0727024115622,stimuli/106_xc.png,l,2.63188979588449,harmless,0.333,6.661016949,0.863237081,0.112383896
146,21,0,1,10,6,222,1166.6928741037846,1169.0007140431553,stimuli/143_xb.png,l,2.2974683959037066,harmless,0.333,6.655172414,0.738697862,0.096995781
146,21,0,1,10,7,223,1169.5689476784319,1172.1687193270773,stimuli/291_za.png,a,2.589639563113451,awful,0.333,2.593220339,1.830005126,0.238246374
146,21,0,1,10,8,224,1172.7851073406637,1176.5687027070671,stimuli/256_zb.png,a,3.7730509247630835,awful,0.333,3.051724138,2.012438634,0.264246138
146,21,0,1,10,9,225,1177.136060822755,1181.7926959674805,stimuli/229_za.png,l,4.645983576774597,awful,0.333,3.406779661,2.043649913,0.266060557
146,21,0,1,10,10,226,1182.354200348258,1187.6086682379246,stimuli/140_xb.png,l,5.2439100574702024,harmless,0.333,6.724137931,0.790138861,0.103750315
146,21,0,1,10,11,227,1188.1999765280634,1191.336703736335,stimuli/247_ya.png,a,3.1259216479957104,ambig,0.333,4.65,2.081598147,0.268733165
146,21,0,1,10,12,228,1191.8961711470038,1194.8808485660702,stimuli/168_xa.png,l,2.97414124943316,harmless,0.333,6.474576271,1.164946827,0.151663159
146,21,0,1,10,13,229,1195.445954669267,1199.8170076925308,stimuli/322_za.png,l,4.360470378771424,awful,0.333,2.406779661,1.975004531,0.257123689
146,21,0,1,10,14,230,1200.4622323270887,1210.1847169604152,stimuli/319_ya.png,a,9.71170979179442,ambig,0.333,4.216666667,2.108028774,0.272145344
146,21,0,1,10,15,231,1210.7589390259236,1214.8806709405035,stimuli/121_xc.png,l,4.111103978008032,harmless,0.333,6.508474576,1.006408455,0.131023221
146,21,0,1,10,16,232,1215.4947065114975,1218.6006908845156,stimuli/357_za.png,a,3.0955041274428368,awful,0.333,2.793103448,2.066937905,0.271402243
146,21,0,1,10,17,233,1219.2220791690052,1220.8006650488824,stimuli/199_za.png,a,1.5681800730526447,awful,0.333,3.033898305,2.189048775,0.284989876
146,21,0,1,10,18,234,1221.3882392831147,1224.5367054697126,stimuli/354_zb.png,a,3.137716945260763,awful,0.333,2,1.701925887,0.221571878
146,21,0,1,10,19,235,1225.1106041874737,1229.280698824674,stimuli/289_yb.png,l,4.159465124830604,ambig,0.333,5.305084746,1.714584873,0.223219937
146,21,0,1,10,20,236,1229.9020134601742,1234.4646777175367,stimuli/266_zb.png,a,4.552222611382604,awful,0.333,3.491525424,1.888010094,0.245797978
146,21,0,1,10,21,237,1235.0734873451293,1238.3126680981368,stimuli/208_xb.png,l,3.22853391058743,harmless,0.333,6.216666667,1.165778516,0.150501359
146,21,0,1,10,22,238,1238.8917703107,1242.5687401220202,stimuli/288_yb.png,l,3.66631312482059,ambig,0.333,5.189655172,1.914459262,0.251380817
146,21,0,1,10,23,239,1243.131034558639,1246.1207142174244,stimuli/183_xb.png,l,2.978741765022278,harmless,0.333,6.448275862,1.095003225,0.143780967
146,21,0,1,10,24,240,1246.6887977980077,1250.296654317528,stimuli/223_yb.png,l,3.597335711121559,ambig,0.333,5.542372881,1.77455224,0.231027024
