id,age,condition,counterbalance,block,trialinblock,trial,tstart,tend,trialstim,response,RT,trialtype,ethicfreq,norm_mean,norm_sd,norm_se
059,67,1,2,0,0,practice,2.5664048735052347e-06,33.567551310698036,stimuli/prac_217_1.png,l,33.55085772872553,harmless,NA,NA,NA,NA
059,67,1,2,1,1,1,4.637664868234424,19.603002836520318,stimuli/365_zb.png,a,14.953010503697442,awful,0.333,2.966101695,2.165291266,0.281896912
059,67,1,2,1,2,2,20.148888773401268,26.499042726354674,stimuli/366_za.png,a,6.332428029651055,awful,0.333,3.689655172,2.036568291,0.267414518
059,67,1,2,1,3,3,27.048279120965162,31.890998163085897,stimuli/102_xc.png,l,4.824035524361534,harmless,0.333,6.66011236,0.937292468,0.049676401
059,67,1,2,1,4,4,32.43179329048144,41.28307229661732,stimuli/311_za.png,a,8.833175177889643,awful,0.333,3.116666667,1.975199339,0.254997138
059,67,1,2,1,5,5,41.83204787908471,47.25099047666299,stimuli/279_ya.png,a,5.401132624101592,ambig,0.333,5.31147541,1.970964092,0.252356093
059,67,1,2,1,6,6,47.79854137674556,53.77912739245221,stimuli/167_xb.png,l,5.962653174996376,harmless,0.333,6.590163934,0.955284411,0.122311635
059,67,1,2,1,7,7,54.315014888416044,61.283041178801795,stimuli/267_ya.png,l,6.949926953355316,ambig,0.333,5.103448276,1.898195405,0.249245267
059,67,1,2,1,8,8,61.831662274867995,66.54701548125013,stimuli/299_za.png,a,4.697244245267939,awful,0.333,1.288135593,0.929420425,0.121000233
059,67,1,2,1,9,9,67.09801725015859,72.43508407904301,stimuli/156_xc.png,l,5.318680694705108,harmless,0.333,6.590163934,0.955284411,0.122311635
059,67,1,2,1,10,10,72.98226798142423,81.02702854434028,stimuli/350_ya.png,a,8.027316303894622,ambig,0.333,4.915254237,2.02814792,0.264042369
059,67,1,2,1,11,11,81.56539038734627,87.29102979417075,stimuli/333_za.png,a,5.707981172774453,awful,0.333,3.266666667,2.185209657,0.282109354
059,67,1,2,1,12,12,87.832192881644,93.81912564727827,stimuli/129_xa.png,l,5.96946797525743,harmless,0.333,6.770491803,0.642740036,0.082294429
059,67,1,2,1,13,13,94.36545108311111,97.65908418683102,stimuli/321_zb.png,a,3.276113135390915,awful,0.333,2.918032787,2.177881861,0.278849198
059,67,1,2,1,14,14,98.19821627583588,102.94703171384754,stimuli/205_yb.png,l,4.730680491949897,ambig,0.333,5.847457627,1.52918233,0.199082582
059,67,1,2,1,15,15,103.49798343761358,110.8110504153301,stimuli/189_yb.png,l,7.294740512763383,ambig,0.333,5.983333333,1.455459234,0.187898979
059,67,1,2,1,16,16,111.34845338069135,118.48304624747834,stimuli/250_yb.png,l,7.116770061198622,ambig,0.333,5.950819672,1.585625318,0.203018519
059,67,1,2,1,17,17,119.03158778461511,124.19514491595328,stimuli/259_xc.png,l,5.1455857943801675,harmless,0.333,6.568965517,0.993170874,0.130409725
059,67,1,2,1,18,18,124.74753800380859,128.4990517088154,stimuli/113_xb.png,l,3.7328317912470084,harmless,0.333,6.733333333,0.660422737,0.085260209
059,67,1,2,1,19,19,129.0484289355809,138.39504155350733,stimuli/338_zb.png,a,9.328825421398506,awful,0.333,3.310344828,2.137443107,0.28066003
059,67,1,2,1,20,20,138.9311141523067,143.66703173951828,stimuli/209_ya.png,a,4.717504184867721,ambig,0.333,5.603448276,1.825161903,0.239655499
059,67,1,2,1,21,21,144.21462209825404,147.61919596712687,stimuli/192_za.png,a,3.386385348829208,awful,0.333,2.68852459,2.093967396,0.268105052
059,67,1,2,1,22,22,148.16484803921776,157.4590983662638,stimuli/173_yb.png,l,9.276297275791876,ambig,0.333,5.796610169,1.242628763,0.161776485
059,67,1,2,1,23,23,157.99817463569343,162.97106941964012,stimuli/227_xa.png,l,4.954961301613366,harmless,0.333,6.180327869,1.05685377,0.135316259
059,67,1,2,1,24,24,163.51453137540375,167.01108499779366,stimuli/152_xa.png,l,3.4783015835273545,harmless,0.333,6.576271186,0.968528743,0.126091702
059,67,1,2,2,1,25,176.7143503788393,183.19508588835015,stimuli/272_xb.png,l,6.46238594679744,harmless,0.333,6.355932203,1.029943284,0.134087194
059,67,1,2,2,2,26,183.73111646209145,189.49124562987708,stimuli/103_xb.png,l,5.741855314379791,harmless,0.333,6.779661017,0.589207434,0.076708274
059,67,1,2,2,3,27,190.03071841076599,195.0031797910051,stimuli/178_xa.png,l,4.953839456487913,harmless,0.333,6.483333333,1.112207557,0.143585378
059,67,1,2,2,4,28,195.54779246408725,200.65907424196484,stimuli/294_za.png,a,5.093064385640901,awful,0.333,1.557377049,1.38473331,0.177296933
059,67,1,2,2,5,29,201.19847676716745,207.69915943418164,stimuli/278_xb.png,l,6.483180984389037,harmless,0.333,6.360655738,1.140654591,0.146045855
059,67,1,2,2,6,30,208.2481154476991,210.9710777605069,stimuli/308_zb.png,a,2.7051189758931287,awful,0.333,1.644067797,1.471132708,0.191525165
059,67,1,2,2,7,31,211.51447844304494,215.48318804203882,stimuli/241_yb.png,l,3.9505762569315266,ambig,0.333,5.508474576,1.442852555,0.187843403
059,67,1,2,2,8,32,216.03162820567377,221.05924125155434,stimuli/182_xb.png,l,5.009984646399971,harmless,0.333,6.542372881,0.988241802,0.128658124
059,67,1,2,2,9,33,221.5977756861248,226.82719317998271,stimuli/236_yb.png,a,5.211253033980029,ambig,0.333,5.93442623,1.49297078,0.19115532
059,67,1,2,2,10,34,227.36471452136175,234.64322597367573,stimuli/281_ya.png,l,7.260671323427232,ambig,0.333,5.881355932,1.543448286,0.200939852
059,67,1,2,2,11,35,235.1813414406497,243.20308509020833,stimuli/212_ya.png,l,8.003882989345584,ambig,0.333,5.677966102,1.490668422,0.194068498
059,67,1,2,2,12,36,243.74824505177094,248.4750961283571,stimuli/309_ya.png,a,4.709195408941014,ambig,0.333,4.706896552,1.946734744,0.255618795
059,67,1,2,2,13,37,249.01497087435564,252.0111805968627,stimuli/229_za.png,a,2.97866826041718,awful,0.333,3.406779661,2.043649913,0.266060557
059,67,1,2,2,14,38,252.54796730127418,255.76311583587085,stimuli/290_zb.png,a,3.1972853079496417,awful,0.333,2.586206897,2.026443456,0.266085062
059,67,1,2,2,15,39,256.2978632009763,262.47527834397624,stimuli/147_ya.png,l,6.159455034125131,ambig,0.333,5.883333333,1.766847875,0.22809908
059,67,1,2,2,16,40,263.01425580633804,267.2191271229822,stimuli/164_xb.png,l,4.186632751458092,harmless,0.333,6.830508475,0.460604639,0.059965616
059,67,1,2,2,17,41,267.7648661324638,272.8831349813554,stimuli/211_zb.png,a,5.10061735167983,awful,0.333,3.983333333,2.127237938,0.274625237
059,67,1,2,2,18,42,273.43157161618,278.1231386256695,stimuli/289_yb.png,l,4.674000524828443,ambig,0.333,5.305084746,1.714584873,0.223219937
059,67,1,2,2,19,43,278.66421605896903,286.76329933470697,stimuli/257_yb.png,a,8.080875186773483,ambig,0.333,5.620689655,1.843219782,0.242026615
059,67,1,2,2,20,44,287.31508803131874,290.01120786502725,stimuli/359_za.png,a,2.6788022915425245,awful,0.333,2.01754386,1.641985167,0.217486248
059,67,1,2,2,21,45,290.54788325109985,292.1951202141936,stimuli/349_za.png,a,1.629367641202407,awful,0.333,3.288135593,2.101320172,0.273568585
059,67,1,2,2,22,46,292.7310147678072,296.21922336361604,stimuli/345_zb.png,a,3.4701602663262747,awful,0.333,3.694915254,2.191317013,0.285285176
059,67,1,2,2,23,47,296.7644176510512,300.30714176181937,stimuli/151_xa.png,l,3.5247556610265747,harmless,0.333,6.610169492,0.947172729,0.123311386
059,67,1,2,2,24,48,300.8524101545336,307.55525432233117,stimuli/142_xa.png,l,6.68953151977621,harmless,0.333,6.4,1.076718178,0.139003719
059,67,1,2,3,1,49,316.1855208511697,320.69122631757637,stimuli/131_xb.png,l,4.492207073955797,harmless,0.333,6.525423729,1.119666394,0.145768149
059,67,1,2,3,2,50,321.23053324376815,323.555150703236,stimuli/199_za.png,a,2.306176147336373,awful,0.333,3.033898305,2.189048775,0.284989876
059,67,1,2,3,3,51,324.09796688423376,326.5311864610994,stimuli/302_za.png,a,2.4155148265126627,awful,0.333,3.137931034,2.188071937,0.287307921
059,67,1,2,3,4,52,327.0811934225203,331.803143604513,stimuli/367_zb.png,a,4.704150794976158,awful,0.333,3.413793103,2.086165649,0.27392697
059,67,1,2,3,5,53,332.34767094423296,336.3471496407292,stimuli/105_xa.png,l,3.981456672772765,harmless,0.333,6.557377049,1.088187946,0.139328189
059,67,1,2,3,6,54,336.89729422624805,339.42715000003227,stimuli/337_zb.png,a,2.5115578602126334,awful,0.333,3.033333333,2.20143764,0.284204377
059,67,1,2,3,7,55,339.96372978703585,343.3071565187129,stimuli/150_xc.png,l,3.3248728179605678,harmless,0.333,6.482758621,1.030097582,0.135258439
059,67,1,2,3,8,56,343.84788459847914,348.1232422447647,stimuli/307_za.png,a,4.2576490462815855,awful,0.333,2.93220339,2.172432347,0.282826601
059,67,1,2,3,9,57,348.66433635976864,352.6511501078203,stimuli/356_za.png,a,3.9688526767422445,awful,0.333,3.033333333,2.178217796,0.281206708
059,67,1,2,3,10,58,353.1974094584002,356.7793278938043,stimuli/243_ya.png,l,3.5637360106338747,ambig,0.333,5.830508475,1.652088985,0.215083666
059,67,1,2,3,11,59,357.33081728199613,361.79516204679385,stimuli/215_yb.png,a,4.446281036827713,ambig,0.333,5.866666667,1.466769385,0.189359113
059,67,1,2,3,12,60,362.3313937634812,365.79515755554894,stimuli/166_xa.png,l,3.4462685255275574,harmless,0.333,6.593220339,1.052397002,0.13701042
059,67,1,2,3,13,61,366.33081439477974,369.01917659066385,stimuli/232_yb.png,a,2.6702878814248834,ambig,0.333,5.483333333,1.845669845,0.238274952
059,67,1,2,3,14,62,369.563931379118,375.85125237953616,stimuli/326_zb.png,a,6.269067999150138,awful,0.333,3.389830508,2.220724867,0.289113752
059,67,1,2,3,15,63,376.3977593893942,380.619146242796,stimuli/325_yb.png,a,4.203631737094838,ambig,0.333,5.131147541,1.811770863,0.231973488
059,67,1,2,3,16,64,381.1645596380695,388.8593112505914,stimuli/204_xb.png,l,7.67715304766898,harmless,0.333,6.508474576,0.858484658,0.111765183
059,67,1,2,3,17,65,389.3973680107447,394.6911737060291,stimuli/296_yb.png,a,5.275686147710076,ambig,0.333,4.229508197,2.052587332,0.262806878
059,67,1,2,3,18,66,395.2309483617428,400.39532161378884,stimuli/200_ya.png,l,5.146538897592109,ambig,0.333,5.862068966,1.444266048,0.189641423
059,67,1,2,3,19,67,400.93538242502837,406.2191585615801,stimuli/168_xa.png,l,5.270407668955158,harmless,0.333,6.474576271,1.164946827,0.151663159
059,67,1,2,3,20,68,406.76373562566005,409.95528467019903,stimuli/190_xc.png,l,3.1732222588034347,harmless,0.333,6.517241379,1.046990328,0.137476565
059,67,1,2,3,21,69,410.4973883496132,415.36331486154813,stimuli/315_yb.png,l,4.847884919290664,ambig,0.333,5.050847458,1.915667965,0.249398726
059,67,1,2,3,22,70,415.91414307645755,422.10723838742706,stimuli/222_ya.png,l,6.175174339936348,ambig,0.333,5.931034483,1.543089507,0.202617579
059,67,1,2,3,23,71,422.6476453442301,425.97918507267605,stimuli/266_zb.png,a,3.3137830081395805,awful,0.333,3.491525424,1.888010094,0.245797978
059,67,1,2,3,24,72,426.51358340503066,430.0034024276829,stimuli/174_xc.png,l,3.4713398558669724,harmless,0.333,6.533333333,1.111826512,0.143536185
059,67,1,2,4,1,73,438.63122765210574,446.2512763113773,stimuli/220_yb.png,l,7.602627498010406,ambig,0.333,4.75,2.096203186,0.270618668
059,67,1,2,4,2,74,446.79778781245113,450.8111819442129,stimuli/355_zb.png,a,3.995887637109263,awful,0.333,3.183333333,2.070713188,0.267327923
059,67,1,2,4,3,75,451.3471352046181,456.0752736602735,stimuli/277_yb.png,l,4.709970146155683,ambig,0.333,5.491525424,2.02886822,0.264136144
059,67,1,2,4,4,76,456.61395726786577,461.4033788808156,stimuli/317_za.png,a,4.77144193512504,awful,0.333,3.65,2.03215674,0.262350307
059,67,1,2,4,5,77,461.9478491177433,470.61121248459676,stimuli/339_ya.png,l,8.645940922375303,ambig,0.333,4.949152542,1.960152429,0.25519011
059,67,1,2,4,6,78,471.14729984028963,475.69934999066754,stimuli/123_xc.png,l,4.534086191852111,harmless,0.333,6.491525424,1.023396666,0.133234897
059,67,1,2,4,7,79,476.24740422933246,481.97936953391763,stimuli/360_za.png,a,5.714135441376129,awful,0.333,3.2,2.207844259,0.285031468
059,67,1,2,4,8,80,482.53056859615026,487.0512102902867,stimuli/180_xc.png,l,4.502620632818434,harmless,0.333,6.672131148,0.723908638,0.092687003
059,67,1,2,4,9,81,487.59757422239636,493.53921421433915,stimuli/176_xb.png,l,5.92401736692409,harmless,0.333,6.796610169,0.517942249,0.067430337
059,67,1,2,4,10,82,494.0804959986126,498.4592186670925,stimuli/371_zb.png,a,4.36066631891299,awful,0.333,3.131147541,2.085468851,0.267016925
059,67,1,2,4,11,83,498.99722794853733,502.46735356823774,stimuli/139_xa.png,l,3.452169039635919,harmless,0.333,6.724137931,0.790138861,0.103750315
059,67,1,2,4,12,84,503.0141730393807,505.3553650632384,stimuli/313_zb.png,a,2.3235097296128515,awful,0.333,2.101694915,1.688652955,0.219843889
059,67,1,2,4,13,85,505.8969567423919,509.7393514535215,stimuli/197_xa.png,l,3.824193038220983,harmless,0.333,6.779661017,0.55918033,0.072799078
059,67,1,2,4,14,86,510.28073525289074,517.0913843447051,stimuli/207_yb.png,l,6.792899749940261,ambig,0.333,5.655737705,1.662179753,0.212820309
059,67,1,2,4,15,87,517.6303082331142,521.1872711477627,stimuli/260_ya.png,a,3.538822194124805,ambig,0.333,4.966101695,2.016877936,0.262575142
059,67,1,2,4,16,88,521.7303468577156,525.1553237439075,stimuli/116_xa.png,l,3.406866962701315,harmless,0.333,6.63559322,0.958030802,0.050918763
059,67,1,2,4,17,89,525.6969712426362,529.0672186388401,stimuli/306_zb.png,a,3.3521089213027153,awful,0.333,2.352112676,1.917055413,0.101746737
059,67,1,2,4,18,90,529.6140878343431,534.5554063825402,stimuli/352_zb.png,a,4.923661918146536,awful,0.333,2.93442623,2.135952968,0.273480754
059,67,1,2,4,19,91,535.0971016807889,538.2352236921433,stimuli/252_zb.png,a,3.120132067851955,awful,0.333,2.711864407,1.983125776,0.258180985
059,67,1,2,4,20,92,538.7803583103523,542.939247128641,stimuli/213_ya.png,l,4.140811937424587,ambig,0.333,5.98245614,1.597891781,0.211645937
059,67,1,2,4,21,93,543.4812074094953,547.6513076216797,stimuli/118_xb.png,l,4.152901366818696,harmless,0.333,6.474576271,0.953323265,0.124112118
059,67,1,2,4,22,94,548.1972817791393,552.107257956377,stimuli/282_xc.png,l,3.892217211308889,harmless,0.333,6.55,0.998728005,0.128935231
059,67,1,2,4,23,95,552.6475799005711,558.7393424710608,stimuli/228_ya.png,l,6.074299063329818,ambig,0.333,5.442622951,1.793735303,0.229664272
059,67,1,2,4,24,96,559.2802200446022,561.9392506574804,stimuli/261_yb.png,a,2.6408857219212223,ambig,0.333,5.706896552,1.901141123,0.249632059
059,67,1,2,5,1,97,570.9806806523411,575.8192668002448,stimuli/181_xa.png,l,4.820939462719252,harmless,0.25,6.666666667,0.950765377,0.122743282
059,67,1,2,5,2,98,576.3642073331575,581.1634470961872,stimuli/344_za.png,a,4.781806090497412,awful,0.25,2.711864407,2.043077863,0.265986082
059,67,1,2,5,3,99,581.7137161529681,589.6112779282266,stimuli/357_za.png,a,7.8796648643910885,awful,0.25,2.793103448,2.066937905,0.271402243
059,67,1,2,5,4,100,590.1471214742924,594.0033093950769,stimuli/329_zb.png,a,3.8383638320083264,awful,0.25,2.406779661,1.992387617,0.259386774
059,67,1,2,5,5,101,594.5468403232808,599.0113608876709,stimuli/251_ya.png,a,4.44643149303738,ambig,0.25,5.655172414,1.792300532,0.235340589
059,67,1,2,5,6,102,599.5466834510153,602.6114011162426,stimuli/160_xb.png,l,3.0464367541717365,harmless,0.25,6.666666667,0.680644427,0.087870818
059,67,1,2,5,7,103,603.1472802713688,613.7073315483867,stimuli/235_ya.png,l,10.542436992865987,ambig,0.25,5.694915254,1.567495667,0.204070554
059,67,1,2,5,8,104,614.2471408507554,620.4912671236088,stimuli/224_yb.png,l,6.226335226703668,ambig,0.25,5.881355932,1.609077116,0.209483997
059,67,1,2,5,9,105,621.0303183704673,624.8912788649614,stimuli/136_xc.png,l,3.8430616588157136,harmless,0.25,6.559322034,1.038420326,0.135190811
059,67,1,2,5,10,106,625.429765500041,628.739319694112,stimuli/134_xc.png,l,3.291129884455586,harmless,0.25,6.516666667,0.965360505,0.124627505
059,67,1,2,5,11,107,629.2802389719291,632.1236435682513,stimuli/109_xb.png,l,2.8254672643670347,harmless,0.25,6.644067797,0.97843492,0.127381377
059,67,1,2,5,12,108,632.66353082555,639.4592869979388,stimuli/301_za.png,a,6.777768474508775,awful,0.25,3.610169492,2.212947396,0.288101212
059,67,1,2,5,13,109,639.9968587052426,642.8274090798513,stimuli/125_xc.png,l,2.812567809567554,harmless,0.25,6.683333333,0.999858747,0.129081209
059,67,1,2,5,14,110,643.3810516921221,647.2913695236493,stimuli/217_yb.png,l,3.8932562894769944,ambig,0.25,5.169491525,2.001314588,0.260548967
059,67,1,2,5,15,111,647.8297862238542,651.9314577314071,stimuli/161_xc.png,l,4.08333445613971,harmless,0.25,6.796610169,0.609682252,0.079373868
059,67,1,2,5,16,112,652.4803832687612,657.2753942177224,stimuli/163_xa.png,l,4.777286629658192,harmless,0.25,6.627118644,0.963082427,0.125382652
059,67,1,2,5,17,113,657.8135135343182,663.1714183882286,stimuli/273_ya.png,l,5.340003131015692,ambig,0.25,5.551724138,1.836973233,0.241206403
059,67,1,2,5,18,114,663.713501215505,665.9073510531452,stimuli/331_za.png,a,2.1759583803941496,awful,0.25,1.983606557,1.638004917,0.209725039
059,67,1,2,5,19,115,666.4466871723416,669.8994853050099,stimuli/146_xa.png,l,3.434721893398091,harmless,0.25,6.442622951,1.162247681,0.148810567
059,67,1,2,5,20,116,670.446754861594,674.3953575436317,stimuli/285_yb.png,a,3.930595736048417,ambig,0.25,4.120689655,2.119893958,0.278355714
059,67,1,2,5,21,117,674.9473823505978,678.5073091563827,stimuli/354_zb.png,a,3.542599639535183,awful,0.25,2,1.701925887,0.221571878
059,67,1,2,5,22,118,679.0470215764944,683.7954395406414,stimuli/214_xb.png,l,4.7307023064931855,harmless,0.25,6.465517241,0.940614156,0.12350869
059,67,1,2,5,23,119,684.3467726981908,688.7233119871526,stimuli/226_yb.png,l,4.358570518408669,ambig,0.25,5.683333333,1.712285287,0.22105508
059,67,1,2,5,24,120,689.2635245378187,697.9953583135502,stimuli/342_yb.png,a,8.714014819794102,ambig,0.25,4.916666667,2.085394461,0.269223267
059,67,1,2,6,1,121,706.6793717153778,712.7713209927024,stimuli/319_ya.png,a,6.073364245821722,ambig,0.166,4.216666667,2.108028774,0.272145344
059,67,1,2,6,2,122,713.313455789932,719.9954083586927,stimuli/198_yb.png,l,6.664129442389822,ambig,0.166,5.101694915,1.83542643,0.238952168
059,67,1,2,6,3,123,720.5470443534432,724.7393658896035,stimuli/170_xc.png,l,4.1747675627993885,harmless,0.166,6.583333333,1.062323432,0.137145365
059,67,1,2,6,4,124,725.2794077735452,728.6113343893958,stimuli/143_xb.png,l,3.313382647029357,harmless,0.166,6.655172414,0.738697862,0.096995781
059,67,1,2,6,5,125,729.146931238618,732.9393318204093,stimuli/140_xb.png,l,3.7747455557691865,harmless,0.166,6.724137931,0.790138861,0.103750315
059,67,1,2,6,6,126,733.479872230906,738.6833268851915,stimuli/304_ya.png,a,5.18542204410187,ambig,0.166,4.034482759,2.017167697,0.264867095
059,67,1,2,6,7,127,739.230070647056,744.8593552004895,stimuli/370_za.png,a,5.611467201524647,awful,0.166,2.393442623,1.882185684,0.240989182
059,67,1,2,6,8,128,745.3965053737338,750.9153592374641,stimuli/269_za.png,l,5.500844992900966,awful,0.166,3.457627119,2.119873401,0.27598401
059,67,1,2,6,9,129,751.4628863981634,760.0833614035218,stimuli/323_yb.png,l,8.602173562947428,ambig,0.166,4.603448276,1.955107169,0.256718148
059,67,1,2,6,10,130,760.6297894960444,766.0193854328827,stimuli/159_xa.png,l,5.37155755222193,harmless,0.166,6.389830508,1.174689235,0.152931512
059,67,1,2,6,11,131,766.5632313888054,769.8193457175803,stimuli/135_xa.png,a,3.238202340202406,harmless,0.166,6.508474576,1.179901828,0.153610134
059,67,1,2,6,12,132,770.3631756333925,774.9393279707874,stimuli/368_za.png,a,4.558129030483542,awful,0.166,3.590163934,2.02794682,0.259651984
059,67,1,2,6,13,133,775.4798642108508,778.8195192715502,stimuli/347_zb.png,a,3.321728636045009,awful,0.166,3.796610169,2.147810923,0.279621165
059,67,1,2,6,14,134,779.3630412172934,783.4673728163762,stimuli/254_ya.png,l,4.0862640214618295,ambig,0.166,5.983606557,1.627798137,0.208418195
059,67,1,2,6,15,135,784.0129045876674,788.875578486477,stimuli/244_xb.png,l,4.844483133172616,harmless,0.166,6.610169492,0.743174671,0.096753101
059,67,1,2,6,16,136,789.4135755774623,804.7794992021518,stimuli/253_ya.png,l,15.348388257873012,ambig,0.166,5.491803279,1.849531029,0.236808182
059,67,1,2,6,17,137,805.329432379076,808.3633655482845,stimuli/107_xa.png,l,3.015645521314582,harmless,0.166,6.813559322,0.540580029,0.070377525
059,67,1,2,6,18,138,808.9129490508349,811.8033864517347,stimuli/263_ya.png,l,2.8723759185231756,ambig,0.166,4.983050847,2.071910042,0.269739712
059,67,1,2,6,19,139,812.3466267331969,815.8434058795392,stimuli/132_xc.png,l,3.4790471277665347,harmless,0.166,6.627118644,0.692280217,0.090127208
059,67,1,2,6,20,140,816.3964476293477,820.9874643348157,stimuli/258_ya.png,l,4.573125889815856,ambig,0.166,5.627118644,1.78014243,0.231754804
059,67,1,2,6,21,141,821.5298487161053,825.1314355319191,stimuli/119_xc.png,l,3.583766897470923,harmless,0.166,6.694915254,0.914523379,0.119060803
059,67,1,2,6,22,142,825.6844339734525,828.9954067546641,stimuli/117_xc.png,l,3.29775316582527,harmless,0.166,6.627118644,0.868972939,0.113130641
059,67,1,2,6,23,143,829.5505394929787,834.579470394121,stimuli/231_xb.png,l,5.015167205303442,harmless,0.166,6.62295082,1.05141071,0.134619347
059,67,1,2,6,24,144,835.1293098968163,837.7473990964936,stimuli/112_xc.png,l,2.5997803788632154,harmless,0.166,6.706896552,0.749470472,0.098410294
059,67,1,2,7,1,145,848.1127343700209,875.163575417042,stimuli/169_xc.png,l,27.032646110950736,harmless,0.083,6.603448276,0.916508538,0.120343467
059,67,1,2,7,2,146,875.7132853156654,878.8594049248204,stimuli/110_xa.png,l,3.12854735009023,harmless,0.083,6.428571429,1.059281795,0.141552484
059,67,1,2,7,3,147,879.3963202708983,883.2113903372956,stimuli/336_ya.png,a,3.797156794607872,ambig,0.083,5.033898305,1.884291705,0.245313885
059,67,1,2,7,4,148,883.7632444775372,886.9714062619314,stimuli/249_ya.png,l,3.1905853548669256,ambig,0.083,5.327868852,1.859402337,0.238072074
059,67,1,2,7,5,149,887.5124445573601,890.7235452103196,stimuli/225_ya.png,l,3.192719330836553,ambig,0.083,5.85,1.792876677,0.231459384
059,67,1,2,7,6,150,891.2630616203242,896.6434611216537,stimuli/210_yb.png,l,5.36265015945537,ambig,0.083,5.557377049,1.76564049,0.226067099
059,67,1,2,7,7,151,897.179755073972,901.883428836125,stimuli/239_ya.png,l,4.685988580720732,ambig,0.083,5.157894737,1.925296579,0.255011762
059,67,1,2,7,8,152,902.4285618503345,904.8515157581132,stimuli/195_xc.png,l,2.404069247073494,harmless,0.083,6.637640449,1.001766915,0.05309354
059,67,1,2,7,9,153,905.3960209624784,910.6915233803738,stimuli/145_xa.png,l,5.277411421702709,harmless,0.083,6.661016949,0.822321556,0.107057148
059,67,1,2,7,10,154,911.2293533334159,914.0595238782698,stimuli/202_yb.png,a,2.8121174033440184,ambig,0.083,5.431034483,1.892849601,0.248543329
059,67,1,2,7,11,155,914.5961424823327,917.8274084382574,stimuli/275_yb.png,a,3.2133052054268774,ambig,0.083,4.836065574,2.138382004,0.27379176
059,67,1,2,7,12,156,918.3620268408558,920.8194952113845,stimuli/292_zb.png,a,2.4387643214140553,awful,0.083,2.396551724,1.955107169,0.256718148
059,67,1,2,7,13,157,921.3632038639917,926.2594975083193,stimuli/280_xb.png,l,4.878747691021999,harmless,0.083,6.333333333,1.068289726,0.137915611
059,67,1,2,7,14,158,926.7957487939275,930.1156161358231,stimuli/274_xb.png,l,3.3015726363519207,harmless,0.083,6.491525424,1.179901828,0.153610134
059,67,1,2,7,15,159,930.6631773015833,935.5554445580055,stimuli/172_xb.png,l,4.874744400876807,harmless,0.083,6.482758621,1.127664553,0.14806961
059,67,1,2,7,16,160,936.0958851989999,941.9955979527731,stimuli/219_ya.png,a,5.8815778076823335,ambig,0.083,5.271186441,1.998538332,0.260187529
059,67,1,2,7,17,161,942.5459051849903,946.1395422024652,stimuli/305_zb.png,a,3.575522923551034,awful,0.083,2.75,2.12830003,0.274762352
059,67,1,2,7,18,162,946.6790114545438,951.4034209059027,stimuli/153_xb.png,l,4.70608683602768,harmless,0.083,6.633333333,0.973664521,0.125699549
059,67,1,2,7,19,163,951.9460721945798,956.0675647843746,stimuli/155_xb.png,l,4.10355237062322,harmless,0.083,6.655737705,0.892286312,0.114245555
059,67,1,2,7,20,164,956.6120895576896,960.2515364819265,stimuli/124_xa.png,l,3.620903597009601,harmless,0.083,6.344262295,1.181598436,0.151288177
059,67,1,2,7,21,165,960.7963211049791,965.5635563613905,stimuli/188_xa.png,l,4.749617764202412,harmless,0.083,6.655172414,0.806807095,0.105938962
059,67,1,2,7,22,166,966.1125762145675,969.091466149257,stimuli/104_xc.png,l,2.960860532533843,harmless,0.083,6.745762712,0.756425814,0.098478253
059,67,1,2,7,23,167,969.6294978868682,973.4594701759634,stimuli/127_xb.png,l,3.8122001702722628,harmless,0.083,6.423728814,1.162686987,0.151368953
059,67,1,2,7,24,168,973.9955655517406,978.3555350883689,stimuli/154_xc.png,l,4.341598480154062,harmless,0.083,6.5,0.965506805,0.124646393
059,67,1,2,8,1,169,986.8133592284867,991.2275786558748,stimuli/157_xc.png,l,4.397025394049706,harmless,0.0412,6.603448276,0.877389573,0.115206895
059,67,1,2,8,2,170,991.7788351416821,995.6914460670669,stimuli/208_xb.png,l,3.8942167711793445,harmless,0.0412,6.216666667,1.165778516,0.150501359
059,67,1,2,8,3,171,996.2295968222606,1000.3716133717971,stimuli/193_xc.png,l,4.1244327415770385,harmless,0.0412,6.482758621,1.012923151,0.133003326
059,67,1,2,8,4,172,1000.9142957782897,1005.1155375392991,stimuli/255_xb.png,l,4.1849883195827715,harmless,0.0412,6.770491803,0.642740036,0.082294429
059,67,1,2,8,5,173,1005.6661225862044,1013.4034642141778,stimuli/137_xa.png,a,7.722988939378411,harmless,0.0412,6.355932203,1.094858074,0.14253838
059,67,1,2,8,6,174,1013.9455284349388,1016.7394675838877,stimuli/133_xa.png,l,2.775681656465167,harmless,0.0412,6.568965517,1.186356193,0.1557762
059,67,1,2,8,7,175,1017.2799691773253,1023.5394945954322,stimuli/276_ya.png,l,6.242368918639841,ambig,0.0412,5.186440678,1.804922162,0.234980851
059,67,1,2,8,8,176,1024.0793674166198,1027.1554700296838,stimuli/185_xa.png,l,3.0583433263236657,harmless,0.0412,6.5,0.965506805,0.124646393
059,67,1,2,8,9,177,1027.6952110012062,1031.8355000310985,stimuli/230_yb.png,a,4.1217373618274,ambig,0.0412,4.98245614,1.875511626,0.248417583
059,67,1,2,8,10,178,1032.3792077213002,1035.8594758221006,stimuli/101_xa.png,l,3.4623878716374747,harmless,0.0412,6.508522727,1.13475832,0.060482822
059,67,1,2,8,11,179,1036.3998782876588,1039.4835598517384,stimuli/158_xa.png,l,3.069804304279387,harmless,0.0412,6.786885246,0.661179605,0.084655374
059,67,1,2,8,12,180,1040.0287567055493,1045.6516489551577,stimuli/201_yb.png,l,5.604579899925739,ambig,0.0412,5.898305085,1.626238682,0.211718243
059,67,1,2,8,13,181,1046.1952087555837,1049.0755011090077,stimuli/183_xb.png,l,2.8617897680960596,harmless,0.0412,6.448275862,1.095003225,0.143780967
059,67,1,2,8,14,182,1049.612123883533,1053.723533661454,stimuli/221_xb.png,l,4.093121167621575,harmless,0.0412,6.440677966,1.133672495,0.147591588
059,67,1,2,8,15,183,1054.26206905843,1056.467486059526,stimuli/184_xb.png,l,2.187125824362738,harmless,0.0412,6.508474576,1.194425,0.15550089
059,67,1,2,8,16,184,1057.01221069257,1060.9874932070088,stimuli/270_yb.png,a,3.9571414731035475,ambig,0.0412,5.534482759,1.912246013,0.251090203
059,67,1,2,8,17,185,1061.5283531364403,1065.8915476971888,stimuli/223_yb.png,l,4.3445142510172445,ambig,0.0412,5.542372881,1.77455224,0.231027024
059,67,1,2,8,18,186,1066.4282853188633,1070.2994989711733,stimuli/283_yb.png,l,3.8524781645974144,ambig,0.0412,5.949152542,1.478859402,0.192531095
059,67,1,2,8,19,187,1070.8456896700955,1074.8595008446719,stimuli/237_ya.png,l,3.995846895239083,ambig,0.0412,4.305084746,2.019339575,0.26289562
059,67,1,2,8,20,188,1075.3954845812696,1079.7635373699013,stimuli/248_zb.png,a,4.349890574376332,awful,0.0412,3.288135593,1.991800844,0.259310383
059,67,1,2,8,21,189,1080.3115203905036,1083.8914938024245,stimuli/115_xb.png,l,3.561201994365547,harmless,0.0412,6.440677966,1.021681954,0.133011661
059,67,1,2,8,22,190,1084.4286529581295,1086.331567959045,stimuli/312_yb.png,a,1.8846235033706762,ambig,0.0412,4.677966102,2.112692986,0.275049199
059,67,1,2,8,23,191,1086.879008503165,1089.8275120573526,stimuli/177_xb.png,l,2.9305710342596285,harmless,0.0412,6.482758621,1.063614811,0.139659467
059,67,1,2,8,24,192,1090.383751883899,1094.1155814891972,stimuli/165_xb.png,l,3.718643032538239,harmless,0.0412,6.557377049,1.008705278,0.129151477
059,67,1,2,9,1,193,1102.6616996868106,1107.2595302301343,stimuli/108_xb.png,l,4.579293632123154,harmless,0.0412,6.568965517,1.077880782,0.141532681
059,67,1,2,9,2,194,1107.7947886330658,1111.0676398520882,stimuli/148_xc.png,l,3.2540765934390947,harmless,0.0412,6.491525424,1.135218061,0.147792803
059,67,1,2,9,3,195,1111.612982670893,1114.763548277173,stimuli/373_zb.png,a,3.133313186932355,awful,0.0412,2.327586207,1.858011869,0.243968911
059,67,1,2,9,4,196,1115.3125078195299,1119.9476348219032,stimuli/335_yb.png,l,4.617428988829488,ambig,0.0412,5.016949153,2.046793332,0.266469795
059,67,1,2,9,5,197,1120.4953714664443,1124.0115389328566,stimuli/130_xc.png,l,3.4979802295856643,harmless,0.0412,6.644067797,0.960651931,0.125066229
059,67,1,2,9,6,198,1124.5617489620345,1128.0195753477456,stimuli/206_xa.png,l,3.439415228989674,harmless,0.0412,6.325842697,1.136094431,0.060212884
059,67,1,2,9,7,199,1128.5623963407998,1132.1716618770733,stimuli/240_xa.png,l,3.591492455045227,harmless,0.0412,6.482758621,1.096107616,0.143925981
059,67,1,2,9,8,200,1132.7118907886615,1135.8116374832753,stimuli/128_xc.png,l,3.0814978637790773,harmless,0.0412,6.627118644,0.98082135,0.127692063
059,67,1,2,9,9,201,1136.3618587405363,1139.7396475539135,stimuli/114_xc.png,l,3.3594918622111436,harmless,0.0412,6.644067797,0.97843492,0.127381377
059,67,1,2,9,10,202,1140.2787491666968,1147.14755680284,stimuli/262_ya.png,l,6.850751928199315,ambig,0.0412,5.491525424,1.7750462,0.231091332
059,67,1,2,9,11,203,1147.6946749407798,1151.4195479512564,stimuli/187_xc.png,l,3.706070475105662,harmless,0.0412,6.224137931,1.185335891,0.155642228
059,67,1,2,9,12,204,1151.9614835303219,1155.5155669247615,stimuli/120_xa.png,l,3.535480398015352,harmless,0.0412,6.440677966,1.054893138,0.137335389
059,67,1,2,9,13,205,1156.0622417141567,1161.7315421665553,stimuli/218_yb.png,l,5.651455832296051,ambig,0.0412,5.850282486,1.552723069,0.0825263
059,67,1,2,9,14,206,1162.2788688259025,1166.2516529331042,stimuli/264_xa.png,l,3.954895216389559,harmless,0.0412,6.533333333,0.947193297,0.122282129
059,67,1,2,9,15,207,1166.7951180968957,1173.643542605394,stimuli/245_yb.png,a,6.830122424522415,ambig,0.0412,4.949152542,2.096168334,0.272897873
059,67,1,2,9,16,208,1174.1778491883306,1176.531591634237,stimuli/106_xc.png,l,2.3348337250354234,harmless,0.0412,6.661016949,0.863237081,0.112383896
059,67,1,2,9,17,209,1177.0786988649343,1180.9155286210007,stimuli/246_ya.png,l,3.8188298676977865,ambig,0.0412,5.542372881,1.715266481,0.223308675
059,67,1,2,9,18,210,1181.4624363127514,1183.8596468096366,stimuli/330_ya.png,a,2.3796144984662533,ambig,0.0412,4.796610169,2.049219036,0.266785595
059,67,1,2,9,19,211,1184.3947643804422,1186.8116532026033,stimuli/121_xc.png,l,2.398295129009057,harmless,0.0412,6.508474576,1.006408455,0.131023221
059,67,1,2,9,20,212,1187.3615575073054,1189.4837038918922,stimuli/196_xb.png,l,2.1036758794507477,harmless,0.0412,6.594366197,0.982313556,0.05213579
059,67,1,2,9,21,213,1190.0288555126172,1192.371713462082,stimuli/144_xa.png,l,2.3250409183383454,harmless,0.0412,6.542372881,1.00553698,0.130909764
059,67,1,2,9,22,214,1192.912290764798,1194.8675510540488,stimuli/271_ya.png,a,1.9375500852474943,ambig,0.0412,5.711864407,1.771915459,0.230683744
059,67,1,2,9,23,215,1195.4112805587938,1198.2916380350653,stimuli/216_xa.png,l,2.861636745452415,harmless,0.0412,6.603448276,0.877389573,0.115206895
059,67,1,2,9,24,216,1198.827917230461,1200.8195802239352,stimuli/247_ya.png,a,1.9729300721664913,ambig,0.0412,4.65,2.081598147,0.268733165
059,67,1,2,10,1,217,1209.9282651083195,1213.0516228418855,stimuli/122_xa.png,l,3.105005604418693,harmless,0.0412,6.457627119,1.039264227,0.135300678
059,67,1,2,10,2,218,1213.5953173791931,1218.3076094913704,stimuli/203_yb.png,l,4.694316925597377,ambig,0.0412,6,1.542501327,0.200816568
059,67,1,2,10,3,219,1218.8453091987467,1223.4435821282386,stimuli/288_yb.png,a,4.580302234127885,ambig,0.0412,5.189655172,1.914459262,0.251380817
059,67,1,2,10,4,220,1223.978080550849,1227.6915763127326,stimuli/242_xb.png,l,3.6950018382049166,harmless,0.0412,6.576271186,0.913564256,0.118935936
059,67,1,2,10,5,221,1228.2285821250116,1231.3477383126738,stimuli/149_xa.png,l,3.1011479584267363,harmless,0.0412,6.721311475,0.933294301,0.11949609
059,67,1,2,10,6,222,1231.8952965912176,1235.763689109328,stimuli/265_yb.png,l,3.8504574317776132,ambig,0.0412,5.627118644,1.856008928,0.241631781
059,67,1,2,10,7,223,1236.3120234082744,1239.611549968453,stimuli/233_yb.png,l,3.281627082877094,ambig,0.0412,5.318309859,1.922973646,0.102060844
059,67,1,2,10,8,224,1240.1613692606043,1245.315605805983,stimuli/191_ya.png,l,5.13574839613284,ambig,0.0412,5.517241379,2.062542966,0.270825159
059,67,1,2,10,9,225,1245.8619049360568,1251.8195856775856,stimuli/186_xa.png,l,5.939724482275778,harmless,0.0412,6.65,0.879618561,0.113558268
059,67,1,2,10,10,226,1252.3619687756873,1255.1476844820718,stimuli/284_ya.png,l,2.7678162291122135,ambig,0.0412,5.948275862,1.431750417,0.18799804
059,67,1,2,10,11,227,1255.695214209205,1259.1956049462606,stimuli/171_xa.png,l,3.482405926391948,harmless,0.0412,6.465517241,1.046556882,0.137419651
059,67,1,2,10,12,228,1259.7488763904257,1263.627602587716,stimuli/238_xb.png,l,3.8644421603530645,harmless,0.0412,6.4,1.076718178,0.139003719
059,67,1,2,10,13,229,1264.1781979002699,1267.4196082620474,stimuli/138_xc.png,l,3.2231262426939793,harmless,0.0412,6.661016949,0.70978796,0.092406522
059,67,1,2,10,14,230,1267.962474808999,1273.2916389974707,stimuli/268_zb.png,a,5.311775428213878,awful,0.0412,2.655737705,2.048456703,0.262278005
059,67,1,2,10,15,231,1273.8286297320738,1277.459590476792,stimuli/162_xa.png,l,3.613134410348721,harmless,0.0412,6.644067797,0.905209289,0.117848212
059,67,1,2,10,16,232,1277.994598974823,1281.419698407466,stimuli/194_xb.png,l,3.4065869024198037,harmless,0.0412,6.586206897,1.026567825,0.134794959
059,67,1,2,10,17,233,1281.961918538058,1287.403586119006,stimuli/287_ya.png,l,5.423818148788996,ambig,0.0412,5.950819672,1.407435369,0.180203633
059,67,1,2,10,18,234,1287.945848916279,1292.3397208251117,stimuli/286_ya.png,l,4.376619810296688,ambig,0.0412,5.06779661,1.779814082,0.231712057
059,67,1,2,10,19,235,1292.8833893774718,1296.0836042507435,stimuli/175_xb.png,l,3.1871983256714884,harmless,0.0412,6.6,1.028409995,0.13276716
059,67,1,2,10,20,236,1296.6276253646647,1299.6276231190423,stimuli/111_xa.png,l,2.981227299227612,harmless,0.0412,6.590163934,0.863655973,0.110579816
059,67,1,2,10,21,237,1300.1788273141137,1303.891759426595,stimuli/234_xb.png,l,3.69538744239253,harmless,0.0412,6.637931034,0.788030542,0.103473479
059,67,1,2,10,22,238,1304.428127805004,1306.6836056622851,stimuli/179_xb.png,l,2.237247632961953,harmless,0.0412,6.704918033,0.882123617,0.112944356
059,67,1,2,10,23,239,1307.2281682902249,1310.7716247923381,stimuli/141_xc.png,l,3.525220182549674,harmless,0.0412,6.508474576,1.040107444,0.135410455
059,67,1,2,10,24,240,1311.3154479713412,1314.4916437453358,stimuli/126_xa.png,l,3.161964669416193,harmless,0.0412,6.6,0.977717855,0.126222832
