id,age,condition,counterbalance,block,trialinblock,trial,tstart,tend,trialstim,response,RT,trialtype,ethicfreq,norm_mean,norm_sd,norm_se
149,24,0,1,0,0,practice,9.452283848077059e-06,5.943831663927995,stimuli/prac_217_1.png,l,5.922723885625601,harmless,NA,NA,NA,NA
149,24,0,1,1,1,1,4.506325165508315,11.288280248176306,stimuli/346_zb.png,a,6.770099532732274,awful,0.333,1.288135593,0.983499162,0.128040685
149,24,0,1,1,2,2,11.913448420353234,17.784274047473446,stimuli/299_za.png,a,5.859246950829402,awful,0.333,1.288135593,0.929420425,0.121000233
149,24,0,1,1,3,3,18.41106368333567,22.320282592321746,stimuli/156_xc.png,l,3.8974259805982,harmless,0.333,6.590163934,0.955284411,0.122311635
149,24,0,1,1,4,4,22.972456779389177,28.488262997707352,stimuli/233_yb.png,a,5.504053462180309,ambig,0.333,5.318309859,1.922973646,0.102060844
149,24,0,1,1,5,5,29.11693915555952,36.960265672707465,stimuli/265_yb.png,l,7.832340972905513,ambig,0.333,5.627118644,1.856008928,0.241631781
149,24,0,1,1,6,6,37.55634005286265,43.36830658861436,stimuli/269_za.png,a,5.800211810390465,awful,0.333,3.457627119,2.119873401,0.27598401
149,24,0,1,1,7,7,43.98916608642321,52.22427831677487,stimuli/251_ya.png,a,8.223786009359173,ambig,0.333,5.655172414,1.792300532,0.235340589
149,24,0,1,1,8,8,52.841392339847516,58.2722259068978,stimuli/306_zb.png,a,5.419530189072248,awful,0.333,2.352112676,1.917055413,0.101746737
149,24,0,1,1,9,9,58.86661147576524,63.08025083260145,stimuli/257_yb.png,l,4.201675893156789,ambig,0.333,5.620689655,1.843219782,0.242026615
149,24,0,1,1,10,10,63.734258372394834,69.52029133570613,stimuli/214_xb.png,l,5.774279813340399,harmless,0.333,6.465517241,0.940614156,0.12350869
149,24,0,1,1,11,11,70.13609779038234,77.75230045407079,stimuli/276_ya.png,a,7.604429821425583,ambig,0.333,5.186440678,1.804922162,0.234980851
149,24,0,1,1,12,12,78.37328558875015,85.82425492227776,stimuli/253_ya.png,l,7.439272109710146,ambig,0.333,5.491803279,1.849531029,0.236808182
149,24,0,1,1,13,13,86.39596402453026,93.87224071548553,stimuli/303_zb.png,l,7.464448710205033,awful,0.333,3.620689655,2.158846233,0.283470398
149,24,0,1,1,14,14,94.48065862065414,99.86422201251844,stimuli/311_za.png,a,5.371882709499914,awful,0.333,3.116666667,1.975199339,0.254997138
149,24,0,1,1,15,15,100.43980931560509,106.11227601981955,stimuli/141_xc.png,l,5.660615486616734,harmless,0.333,6.508474576,1.040107444,0.135410455
149,24,0,1,1,16,16,106.75263876770623,113.7681881985045,stimuli/217_yb.png,l,7.003896317677572,ambig,0.333,5.169491525,2.001314588,0.260548967
149,24,0,1,1,17,17,114.40085480321432,120.2081700185663,stimuli/244_xb.png,l,5.795866114436649,harmless,0.333,6.610169492,0.743174671,0.096753101
149,24,0,1,1,18,18,120.77211011620238,125.52027164341416,stimuli/139_xa.png,l,4.7364930541370995,harmless,0.333,6.724137931,0.790138861,0.103750315
149,24,0,1,1,19,19,126.1540922166896,131.05624749907292,stimuli/126_xa.png,l,4.890247350966092,harmless,0.333,6.6,0.977717855,0.126222832
149,24,0,1,1,20,20,131.64918056421448,135.66417545994045,stimuli/125_xc.png,l,4.003224416519515,harmless,0.333,6.683333333,0.999858747,0.129081209
149,24,0,1,1,21,21,136.23557027312927,139.30417941417545,stimuli/113_xb.png,l,3.0564003112958744,harmless,0.333,6.733333333,0.660422737,0.085260209
149,24,0,1,1,22,22,139.95657100412063,149.5361684463569,stimuli/341_zb.png,l,9.567966384463944,awful,0.333,3.603448276,2.15975677,0.283589957
149,24,0,1,1,23,23,150.1649418841116,155.13622342725284,stimuli/305_zb.png,a,4.959882854484022,awful,0.333,2.75,2.12830003,0.274762352
149,24,0,1,1,24,24,155.72350913565606,161.65616660314845,stimuli/243_ya.png,l,5.921016957436223,ambig,0.333,5.830508475,1.652088985,0.215083666
149,24,0,1,2,1,25,177.59113594616065,189.35225776117295,stimuli/359_za.png,l,11.749440738814883,awful,0.333,2.01754386,1.641985167,0.217486248
149,24,0,1,2,2,26,189.93119748064782,195.0882313324837,stimuli/343_zb.png,l,5.145640677015763,awful,0.333,3.103448276,2.141401862,0.28117984
149,24,0,1,2,3,27,195.68719811714254,201.49612770689419,stimuli/221_xb.png,l,5.797113424458075,harmless,0.333,6.440677966,1.133672495,0.147591588
149,24,0,1,2,4,28,202.09285941591952,207.42417560174363,stimuli/371_zb.png,a,5.319621718896087,awful,0.333,3.131147541,2.085468851,0.267016925
149,24,0,1,2,5,29,208.049751010607,212.3282418245799,stimuli/104_xc.png,l,4.2665876086684875,harmless,0.333,6.745762712,0.756425814,0.098478253
149,24,0,1,2,6,30,212.92592821607832,219.1521328332019,stimuli/198_yb.png,l,6.21454008249566,ambig,0.333,5.101694915,1.83542643,0.238952168
149,24,0,1,2,7,31,219.78464938263642,226.94413650070783,stimuli/177_xb.png,l,7.14740510674892,harmless,0.333,6.482758621,1.063614811,0.139659467
149,24,0,1,2,8,32,227.51279841706855,235.50410466222093,stimuli/370_za.png,a,7.97928764304379,awful,0.333,2.393442623,1.882185684,0.240989182
149,24,0,1,2,9,33,236.0762824410922,241.8481416774448,stimuli/196_xb.png,l,5.7599513049353845,harmless,0.333,6.594366197,0.982313556,0.05213579
149,24,0,1,2,10,34,242.4725737515837,252.2641638809,stimuli/134_xc.png,l,9.779848400852643,harmless,0.333,6.516666667,0.965360505,0.124627505
149,24,0,1,2,11,35,252.83318695396883,259.216157607676,stimuli/328_za.png,a,6.371087928419001,awful,0.333,2.706896552,1.955725922,0.256799395
149,24,0,1,2,12,36,259.7820830825949,266.09614290937316,stimuli/362_zb.png,a,6.30194630776532,awful,0.333,1.474576271,1.222715071,0.159183944
149,24,0,1,2,13,37,266.7085847383132,271.93616033310536,stimuli/173_yb.png,l,5.215904758602846,ambig,0.333,5.796610169,1.242628763,0.161776485
149,24,0,1,2,14,38,272.53512672387296,280.71213171468116,stimuli/281_ya.png,l,8.165420406847261,ambig,0.333,5.881355932,1.543448286,0.200939852
149,24,0,1,2,15,39,281.32732455740916,286.5841235195403,stimuli/317_za.png,l,5.244813836878166,awful,0.333,3.65,2.03215674,0.262350307
149,24,0,1,2,16,40,287.1706833699718,292.9521437821095,stimuli/254_ya.png,l,5.769725379068404,ambig,0.333,5.983606557,1.627798137,0.208418195
149,24,0,1,2,17,41,293.5862049952266,300.61612940835766,stimuli/318_za.png,a,7.0181306970189326,awful,0.333,3.06557377,2.197489875,0.281359747
149,24,0,1,2,18,42,301.2287776125595,306.5521526830271,stimuli/288_yb.png,l,5.311253280728124,ambig,0.333,5.189655172,1.914459262,0.251380817
149,24,0,1,2,19,43,307.18874199310085,315.8480696036131,stimuli/239_ya.png,a,8.647265291481744,ambig,0.333,5.157894737,1.925296579,0.255011762
149,24,0,1,2,20,44,316.4394036542508,320.6641167768976,stimuli/159_xa.png,l,4.213098606385756,harmless,0.333,6.389830508,1.174689235,0.152931512
149,24,0,1,2,21,45,321.25488172023324,325.45603537367424,stimuli/147_ya.png,l,4.189595457224641,ambig,0.333,5.883333333,1.766847875,0.22809908
149,24,0,1,2,22,46,326.0543712171493,330.5680837505497,stimuli/261_yb.png,a,4.502160244854167,ambig,0.333,5.706896552,1.901141123,0.249632059
149,24,0,1,2,23,47,331.1467060302966,337.3360970814829,stimuli/108_xb.png,l,6.177611119695939,harmless,0.333,6.568965517,1.077880782,0.141532681
149,24,0,1,2,24,48,337.92904590041144,342.0802669802797,stimuli/185_xa.png,l,4.139436422206927,harmless,0.333,6.5,0.965506805,0.124646393
149,24,0,1,3,1,49,360.26622015045723,366.87206309096655,stimuli/266_zb.png,a,6.594031895219814,awful,0.333,3.491525424,1.888010094,0.245797978
149,24,0,1,3,2,50,367.447630701703,373.49606744851917,stimuli/193_xc.png,l,6.03678599675186,harmless,0.333,6.482758621,1.012923151,0.133003326
149,24,0,1,3,3,51,374.0651842568768,379.5920792071847,stimuli/213_ya.png,l,5.514928335847799,ambig,0.333,5.98245614,1.597891781,0.211645937
149,24,0,1,3,4,52,380.1656196929398,383.5762359672808,stimuli/297_za.png,a,3.398854065919295,awful,0.333,1.898305085,1.446695584,0.188343723
149,24,0,1,3,5,53,384.15145896282047,390.7601663447567,stimuli/188_xa.png,l,6.597089321061503,harmless,0.333,6.655172414,0.806807095,0.105938962
149,24,0,1,3,6,54,391.32853130128933,395.9041891027591,stimuli/183_xb.png,l,4.5641133898170665,harmless,0.333,6.448275862,1.095003225,0.143780967
149,24,0,1,3,7,55,396.48303154233145,401.656005914032,stimuli/247_ya.png,a,5.161282267828938,ambig,0.333,4.65,2.081598147,0.268733165
149,24,0,1,3,8,56,402.2423314260668,409.48804283782374,stimuli/351_zb.png,a,7.233985437138472,awful,0.333,3.06779661,2.033040926,0.264679384
149,24,0,1,3,9,57,410.10172094916925,418.4720022811671,stimuli/277_yb.png,a,8.358347406727262,ambig,0.333,5.491525424,2.02886822,0.264136144
149,24,0,1,3,10,58,419.0405188683653,426.37604251015,stimuli/344_za.png,a,7.323333716660272,awful,0.333,2.711864407,2.043077863,0.265986082
149,24,0,1,3,11,59,426.9387490823283,437.3360250076512,stimuli/327_zb.png,l,10.385548769147135,awful,0.333,2.502808989,1.906990248,0.101070281
149,24,0,1,3,12,60,437.93822054110933,443.8880859246128,stimuli/180_xc.png,l,5.938344208756462,harmless,0.333,6.672131148,0.723908638,0.092687003
149,24,0,1,3,13,61,444.47255524084903,451.67202520300634,stimuli/307_za.png,a,7.187697513727471,awful,0.333,2.93220339,2.172432347,0.282826601
149,24,0,1,3,14,62,452.2421581338858,455.48800975480117,stimuli/179_xb.png,l,3.233635308162775,harmless,0.333,6.704918033,0.882123617,0.112944356
149,24,0,1,3,15,63,456.1276998138055,459.42403381719487,stimuli/364_za.png,a,3.284044041414745,awful,0.333,1.677966102,1.279017376,0.166513879
149,24,0,1,3,16,64,459.9976818229188,466.27201323007466,stimuli/237_ya.png,l,6.262754306313582,ambig,0.333,4.305084746,2.019339575,0.26289562
149,24,0,1,3,17,65,466.8728129736264,471.1760258898721,stimuli/363_zb.png,a,4.291661021532491,awful,0.333,2.433333333,2.019956927,0.260775318
149,24,0,1,3,18,66,471.7455274857348,476.37600391329033,stimuli/315_yb.png,a,4.619412114087027,ambig,0.333,5.050847458,1.915667965,0.249398726
149,24,0,1,3,19,67,476.98751272121444,483.7520562695572,stimuli/236_yb.png,a,6.752134251059033,ambig,0.333,5.93442623,1.49297078,0.19115532
149,24,0,1,3,20,68,484.3772484663641,488.69595409964677,stimuli/274_xb.png,l,4.307008015573956,harmless,0.333,6.491525424,1.179901828,0.153610134
149,24,0,1,3,21,69,489.27691346104257,496.7680649247486,stimuli/212_ya.png,a,7.479510559816845,ambig,0.333,5.677966102,1.490668422,0.194068498
149,24,0,1,3,22,70,497.3342527010245,501.3359919246286,stimuli/122_xa.png,l,3.9899715013452806,harmless,0.333,6.457627119,1.039264227,0.135300678
149,24,0,1,3,23,71,501.91302267293213,507.5039577576681,stimuli/131_xb.png,l,5.57913979323348,harmless,0.333,6.525423729,1.119666394,0.145768149
149,24,0,1,3,24,72,508.1165279804263,511.7600462217815,stimuli/260_ya.png,a,3.6320707158301957,ambig,0.333,4.966101695,2.016877936,0.262575142
149,24,0,1,4,1,73,520.8448455809266,526.1919868896948,stimuli/348_za.png,a,5.33543857105542,awful,0.333,3.084745763,2.119597681,0.275948114
149,24,0,1,4,2,74,526.7602537786006,531.2239774184418,stimuli/105_xa.png,l,4.451673923933413,harmless,0.333,6.557377049,1.088187946,0.139328189
149,24,0,1,4,3,75,531.8573277397081,536.7760603907518,stimuli/278_xb.png,l,4.906897581124213,harmless,0.333,6.360655738,1.140654591,0.146045855
149,24,0,1,4,4,76,537.3487517447793,541.7999814104987,stimuli/312_yb.png,a,4.439348121988587,ambig,0.333,4.677966102,2.112692986,0.275049199
149,24,0,1,4,5,77,542.3858386397478,548.8399382607313,stimuli/235_ya.png,l,6.442927393713035,ambig,0.333,5.694915254,1.567495667,0.204070554
149,24,0,1,4,6,78,549.4411546932533,555.3039368050522,stimuli/207_yb.png,a,5.85046694369521,ambig,0.333,5.655737705,1.662179753,0.212820309
149,24,0,1,4,7,79,555.8733706594212,560.11991584301,stimuli/114_xc.png,l,4.2343871599878184,harmless,0.333,6.644067797,0.97843492,0.127381377
149,24,0,1,4,8,80,560.74936236348,565.6079252039781,stimuli/296_yb.png,a,4.846804964356124,ambig,0.333,4.229508197,2.052587332,0.262806878
149,24,0,1,4,9,81,566.219561224163,570.7199397101067,stimuli/323_yb.png,a,4.488398086861707,ambig,0.333,4.603448276,1.955107169,0.256718148
149,24,0,1,4,10,82,571.3336497229175,576.5199861051515,stimuli/354_zb.png,a,5.174524943053257,awful,0.333,2,1.701925887,0.221571878
149,24,0,1,4,11,83,577.0818293670309,581.9039429490804,stimuli/264_xa.png,l,4.810729465680197,harmless,0.333,6.533333333,0.947193297,0.122282129
149,24,0,1,4,12,84,582.4661119215889,588.3519391397713,stimuli/112_xc.png,l,5.873920468322467,harmless,0.333,6.706896552,0.749470472,0.098410294
149,24,0,1,4,13,85,588.9637177322293,592.031935390376,stimuli/225_ya.png,l,3.0561553391162306,ambig,0.333,5.85,1.792876677,0.231459384
149,24,0,1,4,14,86,592.6073056843015,596.3599137319834,stimuli/345_zb.png,a,3.740705630101729,awful,0.333,3.694915254,2.191317013,0.285285176
149,24,0,1,4,15,87,596.9453373369179,600.4159820312052,stimuli/304_ya.png,a,3.4585095137590542,ambig,0.333,4.034482759,2.017167697,0.264867095
149,24,0,1,4,16,88,601.0295900379424,605.7999302105163,stimuli/355_zb.png,a,4.7585945056634955,awful,0.333,3.183333333,2.070713188,0.267327923
149,24,0,1,4,17,89,606.3753611567081,609.631970285147,stimuli/293_zb.png,a,3.2447228585369885,awful,0.333,3.677966102,2.169066842,0.28238845
149,24,0,1,4,18,90,610.2325679857167,611.9759478296037,stimuli/365_zb.png,a,1.7311402942286804,awful,0.333,2.966101695,2.165291266,0.281896912
149,24,0,1,4,19,91,612.5454911731649,620.6159726576298,stimuli/209_ya.png,l,8.05904183583334,ambig,0.333,5.603448276,1.825161903,0.239655499
149,24,0,1,4,20,92,621.2147949007922,626.4800442210399,stimuli/242_xb.png,l,5.2535335855791345,harmless,0.333,6.576271186,0.913564256,0.118935936
149,24,0,1,4,21,93,627.0506663085544,631.2638783425791,stimuli/106_xc.png,l,4.201537259388715,harmless,0.333,6.661016949,0.863237081,0.112383896
149,24,0,1,4,22,94,631.8523893056554,636.9038941121544,stimuli/118_xb.png,l,5.039750081079546,harmless,0.333,6.474576271,0.953323265,0.124112118
149,24,0,1,4,23,95,637.4708081403514,646.7439202005044,stimuli/300_za.png,a,9.26128604868427,awful,0.333,3.75,2.12032137,0.273732312
149,24,0,1,4,24,96,647.3561359619489,651.6319167221081,stimuli/357_za.png,a,4.264023277908564,awful,0.333,2.793103448,2.066937905,0.271402243
149,24,0,1,5,1,97,664.1556872926303,668.7475041983998,stimuli/194_xb.png,l,4.5802732817828655,harmless,0.333,6.586206897,1.026567825,0.134794959
149,24,0,1,5,2,98,669.35993578739,674.2159079093835,stimuli/262_ya.png,a,4.844284744292963,ambig,0.333,5.491525424,1.7750462,0.231091332
149,24,0,1,5,3,99,674.8211049426463,678.6238889606902,stimuli/164_xb.png,l,3.7910690711578354,harmless,0.333,6.830508475,0.460604639,0.059965616
149,24,0,1,5,4,100,679.2727446019417,683.3678434257745,stimuli/215_yb.png,l,4.083474067621864,ambig,0.333,5.866666667,1.466769385,0.189359113
149,24,0,1,5,5,101,683.9820142383105,692.3518320136936,stimuli/234_xb.png,l,8.35827257600613,harmless,0.333,6.637931034,0.788030542,0.103473479
149,24,0,1,5,6,102,692.9412031362881,697.9279061103007,stimuli/167_xb.png,l,4.9750305624329485,harmless,0.333,6.590163934,0.955284411,0.122311635
149,24,0,1,5,7,103,698.5101387755712,702.1038752863533,stimuli/361_za.png,a,3.581933342386037,awful,0.333,2.416666667,1.907093508,0.246204713
149,24,0,1,5,8,104,702.6724155042903,707.3358528969693,stimuli/358_za.png,a,4.651535762764979,awful,0.333,3.949152542,2.112554662,0.275031191
149,24,0,1,5,9,105,707.9474708002526,713.8158754564938,stimuli/294_za.png,a,5.856357303331606,awful,0.333,1.557377049,1.38473331,0.177296933
149,24,0,1,5,10,106,714.4230830731685,721.1518472949392,stimuli/336_ya.png,a,6.71713946555974,ambig,0.333,5.033898305,1.884291705,0.245313885
149,24,0,1,5,11,107,721.7475908445194,729.1838106483337,stimuli/267_ya.png,l,7.424488315358758,ambig,0.333,5.103448276,1.898195405,0.249245267
149,24,0,1,5,12,108,729.7868943043868,734.9358129610191,stimuli/228_ya.png,a,5.13693038065685,ambig,0.333,5.442622951,1.793735303,0.229664272
149,24,0,1,5,13,109,735.5520282277139,741.135854393593,stimuli/224_yb.png,a,5.570421619922854,ambig,0.333,5.881355932,1.609077116,0.209483997
149,24,0,1,5,14,110,741.7112652536598,745.3998422253644,stimuli/349_za.png,a,3.676692671026103,awful,0.333,3.288135593,2.101320172,0.273568585
149,24,0,1,5,15,111,746.0323359316681,753.8877948724548,stimuli/373_zb.png,a,7.842843268241268,awful,0.333,2.327586207,1.858011869,0.243968911
149,24,0,1,5,16,112,754.4630332280067,758.6321215219796,stimuli/138_xc.png,l,4.1572260486427695,harmless,0.333,6.661016949,0.70978796,0.092406522
149,24,0,1,5,17,113,759.2670834606979,764.4478299877374,stimuli/252_zb.png,a,5.16885198635282,awful,0.333,2.711864407,1.983125776,0.258180985
149,24,0,1,5,18,114,765.0691510729957,769.7278950038599,stimuli/123_xc.png,l,4.647179826919455,harmless,0.333,6.491525424,1.023396666,0.133234897
149,24,0,1,5,19,115,770.3229824061273,773.999847187777,stimuli/109_xb.png,l,3.6653239146107808,harmless,0.333,6.644067797,0.97843492,0.127381377
149,24,0,1,5,20,116,774.5951063068933,777.791811076866,stimuli/320_za.png,a,3.1850000630365685,awful,0.333,1.423728814,1.117314975,0.14546202
149,24,0,1,5,21,117,778.3946958407178,784.69614275184,stimuli/284_ya.png,l,6.289626807381865,ambig,0.333,5.948275862,1.431750417,0.18799804
149,24,0,1,5,22,118,785.2483253671671,788.7997919705813,stimuli/107_xa.png,l,3.5396012073615566,harmless,0.333,6.813559322,0.540580029,0.070377525
149,24,0,1,5,23,119,789.3634961544885,795.4558152137906,stimuli/211_zb.png,l,6.080113774165511,awful,0.333,3.983333333,2.127237938,0.274625237
149,24,0,1,5,24,120,796.0271407101536,802.4557809492107,stimuli/279_ya.png,a,6.416747273819055,ambig,0.333,5.31147541,1.970964092,0.252356093
149,24,0,1,6,1,121,814.1087759111542,826.7997927583056,stimuli/301_za.png,l,12.67926487873774,awful,0.333,3.610169492,2.212947396,0.288101212
149,24,0,1,6,2,122,827.3674290998606,831.5917877611937,stimuli/292_zb.png,a,4.212505868345033,awful,0.333,2.396551724,1.955107169,0.256718148
149,24,0,1,6,3,123,832.2258143158397,836.6317745437264,stimuli/170_xc.png,l,4.393947139615193,harmless,0.333,6.583333333,1.062323432,0.137145365
149,24,0,1,6,4,124,837.2375824319897,840.7597894342616,stimuli/162_xa.png,l,3.510509778454434,harmless,0.333,6.644067797,0.905209289,0.117848212
149,24,0,1,6,5,125,841.3593072092626,843.5197777606663,stimuli/199_za.png,a,2.1481715309782885,awful,0.333,3.033898305,2.189048775,0.284989876
149,24,0,1,6,6,126,844.1254162951373,845.9918060356285,stimuli/271_ya.png,a,1.854392799839843,ambig,0.333,5.711864407,1.771915459,0.230683744
149,24,0,1,6,7,127,846.5575818491052,850.7117508656811,stimuli/356_za.png,a,4.142657688003965,awful,0.333,3.033333333,2.178217796,0.281206708
149,24,0,1,6,8,128,851.3345008239266,856.3757542149397,stimuli/163_xa.png,l,5.029355699545704,harmless,0.333,6.627118644,0.963082427,0.125382652
149,24,0,1,6,9,129,856.978478683508,866.583800565917,stimuli/350_ya.png,l,9.59430167969549,ambig,0.333,4.915254237,2.02814792,0.264042369
149,24,0,1,6,10,130,867.1582547742291,876.3678320042673,stimuli/191_ya.png,a,9.19766614784021,ambig,0.333,5.517241379,2.062542966,0.270825159
149,24,0,1,6,11,131,876.9299994013854,883.3357414386119,stimuli/325_yb.png,a,6.393808505847119,ambig,0.333,5.131147541,1.811770863,0.231973488
149,24,0,1,6,12,132,883.9005913203,887.5197454652516,stimuli/158_xa.png,l,3.6070162075338885,harmless,0.333,6.786885246,0.661179605,0.084655374
149,24,0,1,6,13,133,888.1248605785659,892.5837206151919,stimuli/238_xb.png,l,4.447179748152848,harmless,0.333,6.4,1.076718178,0.139003719
149,24,0,1,6,14,134,893.16966724745,897.6958969919942,stimuli/219_ya.png,a,4.514696360565722,ambig,0.333,5.271186441,1.998538332,0.260187529
149,24,0,1,6,15,135,898.2946128967451,904.2157495833235,stimuli/186_xa.png,l,5.909344939689618,harmless,0.333,6.65,0.879618561,0.113558268
149,24,0,1,6,16,136,904.8417668873444,909.3597116890596,stimuli/149_xa.png,l,4.506323983951006,harmless,0.333,6.721311475,0.933294301,0.11949609
149,24,0,1,6,17,137,909.9941076711984,912.4960406669998,stimuli/331_za.png,a,2.489101101877168,awful,0.333,1.983606557,1.638004917,0.209725039
149,24,0,1,6,18,138,913.1120972138015,917.2636873273295,stimuli/369_za.png,a,4.139455720724072,awful,0.333,2.948275862,2.055565093,0.26990892
149,24,0,1,6,19,139,917.8920779468608,924.1437407643534,stimuli/246_ya.png,l,6.239457138581201,ambig,0.333,5.542372881,1.715266481,0.223308675
149,24,0,1,6,20,140,924.7706442216877,927.9437119347858,stimuli/201_yb.png,a,3.1610963725252077,ambig,0.333,5.898305085,1.626238682,0.211718243
149,24,0,1,6,21,141,928.5344575796626,933.1276942999684,stimuli/175_xb.png,l,4.5814197672880255,harmless,0.333,6.6,1.028409995,0.13276716
149,24,0,1,6,22,142,933.7089907935006,937.0318723750534,stimuli/372_zb.png,a,3.3108866101829335,awful,0.333,2.796610169,2.082601664,0.271131643
149,24,0,1,6,23,143,937.6358272182406,941.0796935406397,stimuli/248_zb.png,a,3.4322159662260674,awful,0.333,3.288135593,1.991800844,0.259310383
149,24,0,1,6,24,144,941.7262940201908,943.7917354584206,stimuli/230_yb.png,a,2.0536764728603885,ambig,0.333,4.98245614,1.875511626,0.248417583
149,24,0,1,7,1,145,953.0584550054627,964.4796673104865,stimuli/275_yb.png,a,11.409493025799748,ambig,0.333,4.836065574,2.138382004,0.27379176
149,24,0,1,7,2,146,965.054498429352,968.1677346455399,stimuli/152_xa.png,l,3.101873367500957,harmless,0.333,6.576271186,0.968528743,0.126091702
149,24,0,1,7,3,147,968.7623179250513,972.0557445578743,stimuli/353_zb.png,a,3.2816392182721756,awful,0.333,1.949152542,1.623361018,0.211343603
149,24,0,1,7,4,148,972.6787174328929,976.575713333732,stimuli/268_zb.png,a,3.8853282154304907,awful,0.333,2.655737705,2.048456703,0.262278005
149,24,0,1,7,5,149,977.1537361799856,981.7277733054361,stimuli/115_xb.png,l,4.562094141787384,harmless,0.333,6.440677966,1.021681954,0.133011661
149,24,0,1,7,6,150,982.3022893475718,993.7758051786222,stimuli/223_yb.png,l,11.461613807303365,ambig,0.333,5.542372881,1.77455224,0.231027024
149,24,0,1,7,7,151,994.3901228957111,999.0797309560003,stimuli/200_ya.png,l,4.67801323637832,ambig,0.333,5.862068966,1.444266048,0.189641423
149,24,0,1,7,8,152,999.660304742225,1003.7277051701094,stimuli/332_zb.png,a,4.055625616339967,awful,0.333,2.694915254,2.002190501,0.260663001
149,24,0,1,7,9,153,1004.3172161080292,1012.1997373835766,stimuli/310_zb.png,a,7.870307719742414,awful,0.333,3.224137931,2.102989547,0.276136056
149,24,0,1,7,10,154,1012.7963009203668,1019.6156969655422,stimuli/136_xc.png,l,6.807617689075414,harmless,0.333,6.559322034,1.038420326,0.135190811
149,24,0,1,7,11,155,1020.1851989552379,1024.2156712079886,stimuli/132_xc.png,l,4.018556838273071,harmless,0.333,6.627118644,0.692280217,0.090127208
149,24,0,1,7,12,156,1024.7951879117754,1029.2957282683928,stimuli/216_xa.png,l,4.488339797651861,harmless,0.333,6.603448276,0.877389573,0.115206895
149,24,0,1,7,13,157,1029.86572177778,1033.8956733662635,stimuli/273_ya.png,a,4.017866820213385,ambig,0.333,5.551724138,1.836973233,0.241206403
149,24,0,1,7,14,158,1034.4594295378192,1037.7756618186831,stimuli/192_za.png,a,3.304452743206639,awful,0.333,2.68852459,2.093967396,0.268105052
149,24,0,1,7,15,159,1038.3977579927305,1041.7037829688634,stimuli/340_za.png,a,3.2943289338145405,awful,0.333,2.508474576,1.832398855,0.238558011
149,24,0,1,7,16,160,1042.3034149592277,1046.8236653349595,stimuli/133_xa.png,l,4.50829951511696,harmless,0.333,6.568965517,1.186356193,0.1557762
149,24,0,1,7,17,161,1047.4431058059563,1054.0237603305723,stimuli/286_ya.png,l,6.5689517869614065,ambig,0.333,5.06779661,1.779814082,0.231712057
149,24,0,1,7,18,162,1054.5967431305326,1058.7916594462004,stimuli/161_xc.png,l,4.1831659225863405,harmless,0.333,6.796610169,0.609682252,0.079373868
149,24,0,1,7,19,163,1059.3476485823048,1064.5916503089247,stimuli/287_ya.png,l,5.232217856624629,ambig,0.333,5.950819672,1.407435369,0.180203633
149,24,0,1,7,20,164,1065.2037128643133,1069.1276856353506,stimuli/128_xc.png,l,3.9124775901436806,harmless,0.333,6.627118644,0.98082135,0.127692063
149,24,0,1,7,21,165,1069.7578469861764,1073.039631533553,stimuli/322_za.png,a,3.26946859160671,awful,0.333,2.406779661,1.975004531,0.257123689
149,24,0,1,7,22,166,1073.645044394303,1081.5116582331248,stimuli/203_yb.png,l,7.854546793620102,ambig,0.333,6,1.542501327,0.200816568
149,24,0,1,7,23,167,1082.0821149053518,1084.791772086115,stimuli/229_za.png,a,2.6982955136336386,awful,0.333,3.406779661,2.043649913,0.266060557
149,24,0,1,7,24,168,1085.3814527716022,1091.5676312216092,stimuli/210_yb.png,l,6.174701386014931,ambig,0.333,5.557377049,1.76564049,0.226067099
149,24,0,1,8,1,169,1100.9853863471071,1109.6396420098026,stimuli/335_yb.png,l,8.642566315771546,ambig,0.333,5.016949153,2.046793332,0.266469795
149,24,0,1,8,2,170,1110.233340317558,1115.079620285309,stimuli/298_za.png,a,4.834157784178387,awful,0.333,2.881355932,2.026418156,0.263817173
149,24,0,1,8,3,171,1115.7361771897413,1122.4076309222728,stimuli/258_ya.png,l,6.6596285087871365,ambig,0.333,5.627118644,1.78014243,0.231754804
149,24,0,1,8,4,172,1122.9822076166747,1127.1116092387238,stimuli/117_xc.png,l,4.117694552056491,harmless,0.333,6.627118644,0.868972939,0.113130641
149,24,0,1,8,5,173,1127.6880318889162,1133.0156888522906,stimuli/302_za.png,a,5.315698225807864,awful,0.333,3.137931034,2.188071937,0.287307921
149,24,0,1,8,6,174,1133.5763623918174,1137.743591339211,stimuli/127_xb.png,l,4.155303686740808,harmless,0.333,6.423728814,1.162686987,0.151368953
149,24,0,1,8,7,175,1138.3595576952794,1142.3755884058191,stimuli/119_xc.png,l,4.003879776166286,harmless,0.333,6.694915254,0.914523379,0.119060803
149,24,0,1,8,8,176,1142.9914011619985,1148.959570928535,stimuli/171_xa.png,l,5.956397711939644,harmless,0.333,6.465517241,1.046556882,0.137419651
149,24,0,1,8,9,177,1149.5370679904008,1154.7515871991054,stimuli/172_xb.png,l,5.202929898630828,harmless,0.333,6.482758621,1.127664553,0.14806961
149,24,0,1,8,10,178,1155.3292284085765,1164.0716228500241,stimuli/285_yb.png,a,8.730990238953382,ambig,0.333,4.120689655,2.119893958,0.278355714
149,24,0,1,8,11,179,1164.6437061058823,1171.7116551611107,stimuli/368_za.png,a,7.056047425314318,awful,0.333,3.590163934,2.02794682,0.259651984
149,24,0,1,8,12,180,1172.3198698417982,1177.4876229980728,stimuli/241_yb.png,a,5.155584892665502,ambig,0.333,5.508474576,1.442852555,0.187843403
149,24,0,1,8,13,181,1178.0463982003275,1183.0635659440304,stimuli/181_xa.png,l,5.005088095495012,harmless,0.333,6.666666667,0.950765377,0.122743282
149,24,0,1,8,14,182,1183.6379705277504,1188.78355646017,stimuli/205_yb.png,a,5.134105717646889,ambig,0.333,5.847457627,1.52918233,0.199082582
149,24,0,1,8,15,183,1189.3457136173383,1192.9915972973104,stimuli/324_za.png,a,3.634520437452011,awful,0.333,2.491525424,1.994586478,0.259673041
149,24,0,1,8,16,184,1193.6041320738732,1200.1916048591374,stimuli/360_za.png,a,6.575799586018547,awful,0.333,3.2,2.207844259,0.285031468
149,24,0,1,8,17,185,1200.7688344996423,1203.183717700711,stimuli/321_zb.png,a,2.402936672733631,awful,0.333,2.918032787,2.177881861,0.278849198
149,24,0,1,8,18,186,1203.7545776711777,1205.8076814921224,stimuli/202_yb.png,a,2.04170631384477,ambig,0.333,5.431034483,1.892849601,0.248543329
149,24,0,1,8,19,187,1206.391867239261,1210.3355768109905,stimuli/333_za.png,a,3.931940274022054,awful,0.333,3.266666667,2.185209657,0.282109354
149,24,0,1,8,20,188,1210.9094989334699,1214.0635533409077,stimuli/178_xa.png,l,3.142344186664559,harmless,0.333,6.483333333,1.112207557,0.143585378
149,24,0,1,8,21,189,1214.6674624980078,1222.2476621306268,stimuli/319_ya.png,a,7.568160944327246,ambig,0.333,4.216666667,2.108028774,0.272145344
149,24,0,1,8,22,190,1222.8304371217382,1226.527572759136,stimuli/347_zb.png,a,3.685918905597646,awful,0.333,3.796610169,2.147810923,0.279621165
149,24,0,1,8,23,191,1227.2051929372828,1232.2075449851109,stimuli/220_yb.png,l,4.990827722358517,ambig,0.333,4.75,2.096203186,0.270618668
149,24,0,1,8,24,192,1232.7866146737942,1237.28752209479,stimuli/148_xc.png,l,4.489469741645735,harmless,0.333,6.491525424,1.135218061,0.147792803
149,24,0,1,9,1,193,1247.155630972702,1255.4315594250802,stimuli/339_ya.png,l,8.26422413927503,ambig,0.333,4.949152542,1.960152429,0.25519011
149,24,0,1,9,2,194,1256.0045516773243,1260.2875744762714,stimuli/169_xc.png,l,4.271138498268556,harmless,0.333,6.603448276,0.916508538,0.120343467
149,24,0,1,9,3,195,1260.866057728359,1264.3195457066176,stimuli/153_xb.png,l,3.441893548180815,harmless,0.333,6.633333333,0.973664521,0.125699549
149,24,0,1,9,4,196,1264.9383666579379,1268.1275214016205,stimuli/283_yb.png,l,3.177524473576341,ambig,0.333,5.949152542,1.478859402,0.192531095
149,24,0,1,9,5,197,1268.6892390266876,1272.9835289697512,stimuli/176_xb.png,l,4.282547033100855,harmless,0.333,6.796610169,0.517942249,0.067430337
149,24,0,1,9,6,198,1273.5830325663555,1279.6635433372576,stimuli/295_za.png,a,6.069481115904637,awful,0.333,2.3,1.825432384,0.235662307
149,24,0,1,9,7,199,1280.2494872126263,1283.4075352177024,stimuli/366_za.png,a,3.146413796581328,awful,0.333,3.689655172,2.036568291,0.267414518
149,24,0,1,9,8,200,1283.9790048616705,1289.1834928147146,stimuli/146_xa.png,l,5.192679664643947,harmless,0.333,6.442622951,1.162247681,0.148810567
149,24,0,1,9,9,201,1289.7589781116112,1293.00750985404,stimuli/334_za.png,a,3.2364587895572186,awful,0.333,3.333333333,2.214487481,0.285889104
149,24,0,1,9,10,202,1293.5582368148607,1294.839442802535,stimuli/316_za.png,a,1.269161785603501,awful,0.333,2.344827586,1.802062407,0.236622386
149,24,0,1,9,11,203,1295.4114630430704,1300.8314945980092,stimuli/326_zb.png,a,5.40821854036767,awful,0.333,3.389830508,2.220724867,0.289113752
149,24,0,1,9,12,204,1301.4027818912873,1304.135497569223,stimuli/338_zb.png,a,2.7210594140342437,awful,0.333,3.310344828,2.137443107,0.28066003
149,24,0,1,9,13,205,1304.7287969110184,1309.51152156858,stimuli/222_ya.png,l,4.770860836899374,ambig,0.333,5.931034483,1.543089507,0.202617579
149,24,0,1,9,14,206,1310.1109767221496,1315.1034893173492,stimuli/256_zb.png,a,4.980584183766041,awful,0.333,3.051724138,2.012438634,0.264246138
149,24,0,1,9,15,207,1315.708523298381,1320.9275118705118,stimuli/101_xa.png,l,5.206980210030451,harmless,0.333,6.508522727,1.13475832,0.060482822
149,24,0,1,9,16,208,1321.51849224756,1327.1596312657348,stimuli/314_zb.png,a,5.629500477341935,awful,0.333,1.833333333,1.451669602,0.18740974
149,24,0,1,9,17,209,1327.739421692444,1332.2074689728324,stimuli/232_yb.png,l,4.456387078098487,ambig,0.333,5.483333333,1.845669845,0.238274952
149,24,0,1,9,18,210,1332.788106562104,1338.2474679645966,stimuli/245_yb.png,l,5.44771892321296,ambig,0.333,4.949152542,2.096168334,0.272897873
149,24,0,1,9,19,211,1338.826330490294,1345.9354726781603,stimuli/137_xa.png,l,7.0973335055750795,harmless,0.333,6.355932203,1.094858074,0.14253838
149,24,0,1,9,20,212,1346.5130059738876,1351.2074528251542,stimuli/145_xa.png,l,4.682773652020842,harmless,0.333,6.661016949,0.822321556,0.107057148
149,24,0,1,9,21,213,1351.7845115365344,1361.0875054744538,stimuli/342_yb.png,a,9.291045440360904,ambig,0.333,4.916666667,2.085394461,0.269223267
149,24,0,1,9,22,214,1361.6886695254943,1366.5914711090736,stimuli/155_xb.png,l,4.891148470458575,harmless,0.333,6.655737705,0.892286312,0.114245555
149,24,0,1,9,23,215,1367.1800096413936,1371.7676797434106,stimuli/270_yb.png,l,4.575507746136282,ambig,0.333,5.534482759,1.912246013,0.251090203
149,24,0,1,9,24,216,1372.3836539764307,1383.919494349102,stimuli/189_yb.png,l,11.523542139912024,ambig,0.333,5.983333333,1.455459234,0.187898979
149,24,0,1,10,1,217,1392.7014754256234,1397.6874249723624,stimuli/111_xa.png,l,4.97408730146708,harmless,0.333,6.590163934,0.863655973,0.110579816
149,24,0,1,10,2,218,1398.2710104983998,1402.247425035399,stimuli/337_zb.png,a,3.9647555162082426,awful,0.333,3.033333333,2.20143764,0.284204377
149,24,0,1,10,3,219,1402.851236124814,1407.8394305933616,stimuli/165_xb.png,l,4.976157749479171,harmless,0.333,6.557377049,1.008705278,0.129151477
149,24,0,1,10,4,220,1408.464438076422,1414.7754637142061,stimuli/329_zb.png,a,6.299276820092928,awful,0.333,2.406779661,1.992387617,0.259386774
149,24,0,1,10,5,221,1415.390976359835,1419.7996265552938,stimuli/367_zb.png,a,4.396914374723565,awful,0.333,3.413793103,2.086165649,0.27392697
149,24,0,1,10,6,222,1420.3827768815681,1427.0074173002504,stimuli/249_ya.png,a,6.612960130209103,ambig,0.333,5.327868852,1.859402337,0.238072074
149,24,0,1,10,7,223,1427.578129184607,1432.4234532883274,stimuli/352_zb.png,a,4.833501242974307,awful,0.333,2.93442623,2.135952968,0.273480754
149,24,0,1,10,8,224,1432.9864969925839,1437.8474500839948,stimuli/330_ya.png,a,4.848879350814968,ambig,0.333,4.796610169,2.049219036,0.266785595
149,24,0,1,10,9,225,1438.4743614182225,1446.3994345947867,stimuli/282_xc.png,l,7.913710327877197,harmless,0.333,6.55,0.998728005,0.128935231
149,24,0,1,10,10,226,1447.0127944786218,1454.0074283279246,stimuli/208_xb.png,l,6.98289999779081,harmless,0.333,6.216666667,1.165778516,0.150501359
149,24,0,1,10,11,227,1454.5817872255575,1459.759430246777,stimuli/308_zb.png,a,5.166026929626241,awful,0.333,1.644067797,1.471132708,0.191525165
149,24,0,1,10,12,228,1460.3456986511592,1462.7194659134257,stimuli/313_zb.png,a,2.362047195318155,awful,0.333,2.101694915,1.688652955,0.219843889
149,24,0,1,10,13,229,1463.3174102740595,1474.495454230404,stimuli/309_ya.png,l,11.166234486445319,ambig,0.333,4.706896552,1.946734744,0.255618795
149,24,0,1,10,14,230,1475.1000935778138,1479.0073771279422,stimuli/291_za.png,a,3.8953346587368287,awful,0.333,2.593220339,1.830005126,0.238246374
149,24,0,1,10,15,231,1479.5790787471342,1485.1194235355943,stimuli/250_yb.png,l,5.528461275447626,ambig,0.333,5.950819672,1.585625318,0.203018519
149,24,0,1,10,16,232,1485.7615873408504,1492.0074322663713,stimuli/289_yb.png,l,6.233318655984476,ambig,0.333,5.305084746,1.714584873,0.223219937
149,24,0,1,10,17,233,1492.6612082247739,1499.9514088656288,stimuli/263_ya.png,l,7.278445521660615,ambig,0.333,4.983050847,2.071910042,0.269739712
149,24,0,1,10,18,234,1500.5289677613764,1504.535403991409,stimuli/144_xa.png,l,3.9944593755644746,harmless,0.333,6.542372881,1.00553698,0.130909764
149,24,0,1,10,19,235,1505.1044904736918,1508.1434138722252,stimuli/150_xc.png,l,3.026816968806088,harmless,0.333,6.482758621,1.030097582,0.135258439
149,24,0,1,10,20,236,1508.724501233548,1514.3673731737654,stimuli/168_xa.png,l,5.630780082778074,harmless,0.333,6.474576271,1.164946827,0.151663159
149,24,0,1,10,21,237,1514.9433129688841,1521.7113794689649,stimuli/290_zb.png,a,6.756096734839957,awful,0.333,2.586206897,2.026443456,0.266085062
149,24,0,1,10,22,238,1522.2657491107238,1528.4953593134996,stimuli/218_yb.png,l,6.217847206629813,ambig,0.333,5.850282486,1.552723069,0.0825263
149,24,0,1,10,23,239,1529.1160667868098,1538.3034007807728,stimuli/226_yb.png,l,9.17557769321138,ambig,0.333,5.683333333,1.712285287,0.22105508
149,24,0,1,10,24,240,1538.9043320688652,1547.2394445354585,stimuli/120_xa.png,l,8.323166332149412,harmless,0.333,6.440677966,1.054893138,0.137335389
