id,age,condition,counterbalance,block,trialinblock,trial,tstart,tend,trialstim,response,RT,trialtype,ethicfreq,norm_mean,norm_sd,norm_se
109,19,0,1,0,0,practice,2.566412149462849e-06,7.694425035908353,stimuli/prac_217_1.png,l,7.677738832389878,harmless,NA,NA,NA,NA
109,19,0,1,1,1,1,4.070721798445447,12.743886954456684,stimuli/326_zb.png,a,8.660586824145867,awful,0.333,3.389830508,2.220724867,0.289113752
109,19,0,1,1,2,2,13.287389652075944,22.84791154586128,stimuli/213_ya.png,l,9.547966338868719,ambig,0.333,5.98245614,1.597891781,0.211645937
109,19,0,1,1,3,3,23.400475621281657,38.65588482689054,stimuli/367_zb.png,a,15.239311674049532,awful,0.333,3.413793103,2.086165649,0.27392697
109,19,0,1,1,4,4,39.20388709560939,45.13581223577785,stimuli/102_xc.png,l,5.9192736654149485,harmless,0.333,6.66011236,0.937292468,0.049676401
109,19,0,1,1,5,5,45.68327908569336,50.91182720569486,stimuli/119_xc.png,l,5.211971630822518,harmless,0.333,6.694915254,0.914523379,0.119060803
109,19,0,1,1,6,6,51.470829459649394,58.06385951945413,stimuli/194_xb.png,l,6.580661532549129,harmless,0.333,6.586206897,1.026567825,0.134794959
109,19,0,1,1,7,7,58.61949720035773,68.28784743676079,stimuli/337_zb.png,l,9.654692084463022,awful,0.333,3.033333333,2.20143764,0.284204377
109,19,0,1,1,8,8,68.83760545569385,75.98383157116768,stimuli/329_zb.png,a,7.134036275027029,awful,0.333,2.406779661,1.992387617,0.259386774
109,19,0,1,1,9,9,76.54515162072494,81.54387611134007,stimuli/152_xa.png,l,4.994107826736581,harmless,0.333,6.576271186,0.968528743,0.126091702
109,19,0,1,1,10,10,82.09829442323826,90.5757917557712,stimuli/315_yb.png,l,8.459368802505196,ambig,0.333,5.050847458,1.915667965,0.249398726
109,19,0,1,1,11,11,91.12070919091639,101.22393562655634,stimuli/210_yb.png,l,10.09087555250153,ambig,0.333,5.557377049,1.76564049,0.226067099
109,19,0,1,1,12,12,101.76998998456111,112.69590714188962,stimuli/318_za.png,a,10.91284061971237,awful,0.333,3.06557377,2.197489875,0.281359747
109,19,0,1,1,13,13,113.23774198909086,124.50394682896876,stimuli/226_yb.png,l,11.25427677398693,ambig,0.333,5.683333333,1.712285287,0.22105508
109,19,0,1,1,14,14,125.05374815619143,130.14385859554022,stimuli/147_ya.png,l,5.077542373153847,ambig,0.333,5.883333333,1.766847875,0.22809908
109,19,0,1,1,15,15,130.6972249971659,136.76787493591837,stimuli/124_xa.png,l,6.051578891987447,harmless,0.333,6.344262295,1.181598436,0.151288177
109,19,0,1,1,16,16,137.33209920742956,148.47984817075485,stimuli/252_zb.png,l,11.13023637344304,awful,0.333,2.711864407,1.983125776,0.258180985
109,19,0,1,1,17,17,149.03093206501217,156.46388441370073,stimuli/312_yb.png,l,7.414314064029895,ambig,0.333,4.677966102,2.112692986,0.275049199
109,19,0,1,1,18,18,157.03262140918378,166.97596518141654,stimuli/327_zb.png,a,9.926403493402177,awful,0.333,2.502808989,1.906990248,0.101070281
109,19,0,1,1,19,19,167.52044953365112,175.4318799070752,stimuli/146_xa.png,l,7.899018537878874,harmless,0.333,6.442622951,1.162247681,0.148810567
109,19,0,1,1,20,20,175.99870267607184,182.77591616284917,stimuli/192_za.png,a,6.7597445259962115,awful,0.333,2.68852459,2.093967396,0.268105052
109,19,0,1,1,21,21,183.32020065533288,188.23188959529944,stimuli/108_xb.png,l,4.899066979000054,harmless,0.333,6.568965517,1.077880782,0.141532681
109,19,0,1,1,22,22,188.7995775677191,197.3518628660604,stimuli/172_xb.png,l,8.535727736489207,harmless,0.333,6.482758621,1.127664553,0.14806961
109,19,0,1,1,23,23,197.90338625927689,207.21587675550836,stimuli/228_ya.png,l,9.299766840988013,ambig,0.333,5.442622951,1.793735303,0.229664272
109,19,0,1,1,24,24,207.77010515253642,220.52800089568336,stimuli/223_yb.png,l,12.74525517566508,ambig,0.333,5.542372881,1.77455224,0.231027024
109,19,0,1,2,1,25,229.91972631726094,239.85604388060165,stimuli/236_yb.png,l,9.923333095939597,ambig,0.333,5.93442623,1.49297078,0.19115532
109,19,0,1,2,2,26,240.40390275075333,248.90395985353825,stimuli/339_ya.png,a,8.487959653357393,ambig,0.333,4.949152542,1.960152429,0.25519011
109,19,0,1,2,3,27,249.46405893007613,259.36791163568705,stimuli/277_yb.png,l,9.885255804430926,ambig,0.333,5.491525424,2.02886822,0.264136144
109,19,0,1,2,4,28,259.9200814452561,268.49603905573895,stimuli/341_zb.png,a,8.563418737285247,awful,0.333,3.603448276,2.15975677,0.283589957
109,19,0,1,2,5,29,269.0369095716451,278.61599949441734,stimuli/302_za.png,a,9.566742889262969,awful,0.333,3.137931034,2.188071937,0.287307921
109,19,0,1,2,6,30,279.17003765575646,290.64802838201285,stimuli/280_xb.png,l,11.465460193910985,harmless,0.333,6.333333333,1.068289726,0.137915611
109,19,0,1,2,7,31,291.2033904938653,297.98393711508106,stimuli/242_xb.png,l,6.768069662830385,harmless,0.333,6.576271186,0.913564256,0.118935936
109,19,0,1,2,8,32,298.53708023839863,309.647906797989,stimuli/289_yb.png,l,11.098721410911821,ambig,0.333,5.305084746,1.714584873,0.223219937
109,19,0,1,2,9,33,310.2026327591666,317.8639317640991,stimuli/314_zb.png,a,7.648120131423639,awful,0.333,1.833333333,1.451669602,0.18740974
109,19,0,1,2,10,34,318.4316181325121,325.9839656664699,stimuli/258_ya.png,a,7.534848738570872,ambig,0.333,5.627118644,1.78014243,0.231754804
109,19,0,1,2,11,35,326.53531197689153,334.119957551462,stimuli/134_xc.png,a,7.5708581393628265,harmless,0.333,6.516666667,0.965360505,0.124627505
109,19,0,1,2,12,36,334.6699491143663,343.1279785678489,stimuli/118_xb.png,l,8.445602219435386,harmless,0.333,6.474576271,0.953323265,0.124112118
109,19,0,1,2,13,37,343.66895366526296,358.04800515593524,stimuli/371_zb.png,a,14.365614371425181,awful,0.333,3.131147541,2.085468851,0.267016925
109,19,0,1,2,14,38,358.6028049016022,368.655948666521,stimuli/257_yb.png,l,10.040260991801915,ambig,0.333,5.620689655,1.843219782,0.242026615
109,19,0,1,2,15,39,369.20256956113735,374.79199957910896,stimuli/251_ya.png,l,5.576338081846188,ambig,0.333,5.655172414,1.792300532,0.235340589
109,19,0,1,2,16,40,375.3362279312205,384.74403131542203,stimuli/347_zb.png,a,9.395051177561982,awful,0.333,3.796610169,2.147810923,0.279621165
109,19,0,1,2,17,41,385.2866229349165,389.72799666109495,stimuli/135_xa.png,l,4.4290218806345365,harmless,0.333,6.508474576,1.179901828,0.153610134
109,19,0,1,2,18,42,390.2704609221255,395.3359918208298,stimuli/181_xa.png,l,5.053724416829937,harmless,0.333,6.666666667,0.950765377,0.122743282
109,19,0,1,2,19,43,395.8982851841356,399.04797724614764,stimuli/154_xc.png,l,3.1323895975438063,harmless,0.333,6.5,0.965506805,0.124646393
109,19,0,1,2,20,44,399.6142071727518,403.6960078737684,stimuli/306_zb.png,a,4.063761674791749,awful,0.333,2.352112676,1.917055413,0.101746737
109,19,0,1,2,21,45,404.2487769417712,410.8159833901518,stimuli/373_zb.png,a,6.550414700956026,awful,0.333,2.327586207,1.858011869,0.243968911
109,19,0,1,2,22,46,411.37022269444424,417.7120117310915,stimuli/364_za.png,a,6.329778203798924,awful,0.333,1.677966102,1.279017376,0.166513879
109,19,0,1,2,23,47,418.25236158509506,432.3200107404555,stimuli/222_ya.png,l,14.054476377088577,ambig,0.333,5.931034483,1.543089507,0.202617579
109,19,0,1,2,24,48,432.8801351603688,464.96002708853484,stimuli/240_xa.png,l,32.061210976818984,harmless,0.333,6.482758621,1.096107616,0.143925981
109,19,0,1,3,1,49,473.9525405285458,483.00806881591416,stimuli/276_ya.png,l,9.042674065647589,ambig,0.333,5.186440678,1.804922162,0.234980851
109,19,0,1,3,2,50,483.5527539902978,488.3201130763482,stimuli/141_xc.png,l,4.754760864445416,harmless,0.333,6.508474576,1.040107444,0.135410455
109,19,0,1,3,3,51,488.8689080471959,497.9440594818516,stimuli/287_ya.png,l,9.062054686495685,ambig,0.333,5.950819672,1.407435369,0.180203633
109,19,0,1,3,4,52,498.4859899281,505.2000313744502,stimuli/369_za.png,a,6.701392858813051,awful,0.333,2.948275862,2.055565093,0.26990892
109,19,0,1,3,5,53,505.76262019655405,512.5600868860565,stimuli/294_za.png,a,6.794789274681534,awful,0.333,1.557377049,1.38473331,0.177296933
109,19,0,1,3,6,54,513.1024167309879,524.0721435936139,stimuli/283_yb.png,l,10.956833503034431,ambig,0.333,5.949152542,1.478859402,0.192531095
109,19,0,1,3,7,55,524.618708989452,537.976067196505,stimuli/279_ya.png,l,13.344130892415706,ambig,0.333,5.31147541,1.970964092,0.252356093
109,19,0,1,3,8,56,538.5287316829999,544.0480144591929,stimuli/164_xb.png,l,5.51614116064593,harmless,0.333,6.830508475,0.460604639,0.059965616
109,19,0,1,3,9,57,544.6110909005802,548.7681665450873,stimuli/209_ya.png,l,4.1529841337687685,ambig,0.333,5.603448276,1.825161903,0.239655499
109,19,0,1,3,10,58,549.3193091461362,555.9441666297789,stimuli/360_za.png,l,6.612334650548291,awful,0.333,3.2,2.207844259,0.285031468
109,19,0,1,3,11,59,556.4850974564906,565.3121793181417,stimuli/311_za.png,l,8.813678747435915,awful,0.333,3.116666667,1.975199339,0.254997138
109,19,0,1,3,12,60,565.8689058015807,571.0481655570111,stimuli/259_xc.png,l,5.166390776808839,harmless,0.333,6.568965517,0.993170874,0.130409725
109,19,0,1,3,13,61,571.6017100038298,575.6560615888811,stimuli/160_xb.png,l,4.040931789117167,harmless,0.333,6.666666667,0.680644427,0.087870818
109,19,0,1,3,14,62,576.2025185535967,582.6080715106509,stimuli/357_za.png,a,6.3929752667900175,awful,0.333,2.793103448,2.066937905,0.271402243
109,19,0,1,3,15,63,583.1634788556112,591.0560691598148,stimuli/176_xb.png,l,7.874328641279135,harmless,0.333,6.796610169,0.517942249,0.067430337
109,19,0,1,3,16,64,591.6028956886148,600.1840791662762,stimuli/211_zb.png,l,8.569028283840453,awful,0.333,3.983333333,2.127237938,0.274625237
109,19,0,1,3,17,65,600.7349231005137,609.0721403855932,stimuli/177_xb.png,l,8.32376540893165,harmless,0.333,6.482758621,1.063614811,0.139659467
109,19,0,1,3,18,66,609.6192825837134,623.0321761357845,stimuli/370_za.png,a,13.400513155131193,awful,0.333,2.393442623,1.882185684,0.240989182
109,19,0,1,3,19,67,623.58557878805,634.9120979627187,stimuli/309_ya.png,l,11.313808672312007,ambig,0.333,4.706896552,1.946734744,0.255618795
109,19,0,1,3,20,68,635.4689094587229,648.3841637938822,stimuli/241_yb.png,a,12.902542870397156,ambig,0.333,5.508474576,1.442852555,0.187843403
109,19,0,1,3,21,69,648.9349442093007,659.4001631599822,stimuli/116_xa.png,l,10.451939666098042,harmless,0.333,6.63559322,0.958030802,0.050918763
109,19,0,1,3,22,70,659.9518341221847,664.8321421949149,stimuli/145_xa.png,l,4.867279334626801,harmless,0.333,6.661016949,0.822321556,0.107057148
109,19,0,1,3,23,71,665.3957672079923,670.0721211374621,stimuli/233_yb.png,l,4.657273579439789,ambig,0.333,5.318309859,1.922973646,0.102060844
109,19,0,1,3,24,72,670.6188212702109,676.5281584095428,stimuli/299_za.png,a,5.896652621951944,awful,0.333,1.288135593,0.929420425,0.121000233
109,19,0,1,4,1,73,685.1355132481694,690.9521921373962,stimuli/352_zb.png,a,5.804062702707597,awful,0.333,2.93442623,2.135952968,0.273480754
109,19,0,1,4,2,74,691.5013630883768,699.2321224976622,stimuli/161_xc.png,l,7.717318440409144,harmless,0.333,6.796610169,0.609682252,0.079373868
109,19,0,1,4,3,75,699.7953936659542,705.6641336128159,stimuli/297_za.png,a,5.866018261338468,awful,0.333,1.898305085,1.446695584,0.188343723
109,19,0,1,4,4,76,706.2187774486374,710.8561856751621,stimuli/291_za.png,a,4.624784340754559,awful,0.333,2.593220339,1.830005126,0.238246374
109,19,0,1,4,5,77,711.402026699725,717.4241511414511,stimuli/173_yb.png,l,6.00943158348673,ambig,0.333,5.796610169,1.242628763,0.161776485
109,19,0,1,4,6,78,717.9686826515972,724.2481818537635,stimuli/202_yb.png,l,6.26680153189227,ambig,0.333,5.431034483,1.892849601,0.248543329
109,19,0,1,4,7,79,724.8009499593536,728.8561099658473,stimuli/298_za.png,a,4.041417483589612,awful,0.333,2.881355932,2.026418156,0.263817173
109,19,0,1,4,8,80,729.4021572662023,740.2802559744596,stimuli/317_za.png,l,10.865552777409903,awful,0.333,3.65,2.03215674,0.262350307
109,19,0,1,4,9,81,740.8349306072851,752.9202274102354,stimuli/171_xa.png,a,12.072245287898113,harmless,0.333,6.465517241,1.046556882,0.137419651
109,19,0,1,4,10,82,753.4807457751958,756.2961805936502,stimuli/349_za.png,a,2.798229557040031,awful,0.333,3.288135593,2.101320172,0.273568585
109,19,0,1,4,11,83,756.863543914289,762.5601667657975,stimuli/136_xc.png,l,5.678897890597,harmless,0.333,6.559322034,1.038420326,0.135190811
109,19,0,1,4,12,84,763.1300913708692,769.7202133591054,stimuli/244_xb.png,a,6.572299503466638,harmless,0.333,6.610169492,0.743174671,0.096753101
109,19,0,1,4,13,85,770.2792005353549,776.6641842995596,stimuli/227_xa.png,l,6.366276827880938,harmless,0.333,6.180327869,1.05685377,0.135316259
109,19,0,1,4,14,86,777.2294877495297,784.4801526120063,stimuli/332_zb.png,a,7.232240552861185,awful,0.333,2.694915254,2.002190501,0.260663001
109,19,0,1,4,15,87,785.0471312908485,793.2561573162457,stimuli/200_ya.png,l,8.191626037070819,ambig,0.333,5.862068966,1.444266048,0.189641423
109,19,0,1,4,16,88,793.8030557047314,800.8722190462795,stimuli/217_yb.png,l,7.057697551572346,ambig,0.333,5.169491525,2.001314588,0.260548967
109,19,0,1,4,17,89,801.4302037157904,815.6482022567798,stimuli/123_xc.png,a,14.200382973620435,harmless,0.333,6.491525424,1.023396666,0.133234897
109,19,0,1,4,18,90,816.2116258060996,829.0082686756577,stimuli/288_yb.png,l,12.79380858247896,ambig,0.333,5.189655172,1.914459262,0.251380817
109,19,0,1,4,19,91,829.5509889368186,836.5203205711805,stimuli/201_yb.png,l,6.955918254476273,ambig,0.333,5.898305085,1.626238682,0.211718243
109,19,0,1,4,20,92,837.068794098268,847.824199775052,stimuli/249_ya.png,l,10.743142693441769,ambig,0.333,5.327868852,1.859402337,0.238072074
109,19,0,1,4,21,93,848.3685115357293,854.024243981592,stimuli/266_zb.png,a,5.643214103998616,awful,0.333,3.491525424,1.888010094,0.245797978
109,19,0,1,4,22,94,854.5689650858185,863.5602062244652,stimuli/235_ya.png,l,8.979159408518171,ambig,0.333,5.694915254,1.567495667,0.204070554
109,19,0,1,4,23,95,864.1018229261899,878.5203180047683,stimuli/127_xb.png,l,14.405975453504652,harmless,0.333,6.423728814,1.162686987,0.151368953
109,19,0,1,4,24,96,879.0686465292747,884.2882099432027,stimuli/234_xb.png,l,5.207226966886083,harmless,0.333,6.637931034,0.788030542,0.103473479
109,19,0,1,5,1,97,894.7007907131629,900.6802157458733,stimuli/260_ya.png,l,5.965946529984649,ambig,0.333,4.966101695,2.016877936,0.262575142
109,19,0,1,5,2,98,901.2346282833314,906.7762854061366,stimuli/353_zb.png,a,5.528724625357427,awful,0.333,1.949152542,1.623361018,0.211343603
109,19,0,1,5,3,99,907.3291526395915,915.6003090607992,stimuli/239_ya.png,l,8.252738527633483,ambig,0.333,5.157894737,1.925296579,0.255011762
109,19,0,1,5,4,100,916.1519768149883,923.9203627887473,stimuli/344_za.png,a,7.7561733563561575,awful,0.333,2.711864407,2.043077863,0.265986082
109,19,0,1,5,5,101,924.4678389419205,931.9763151765728,stimuli/170_xc.png,l,7.495455837408372,harmless,0.333,6.583333333,1.062323432,0.137145365
109,19,0,1,5,6,102,932.5446068986566,959.8323532827417,stimuli/331_za.png,a,27.284863976681663,awful,0.333,1.983606557,1.638004917,0.209725039
109,19,0,1,5,7,103,960.3843055884427,975.2803448366612,stimuli/286_ya.png,l,14.882940896051878,ambig,0.333,5.06779661,1.779814082,0.231712057
109,19,0,1,5,8,104,975.8341536244552,980.7042759078249,stimuli/138_xc.png,l,4.8568840614607325,harmless,0.333,6.661016949,0.70978796,0.092406522
109,19,0,1,5,9,105,981.2503568924003,987.1602846285095,stimuli/301_za.png,l,5.896267659358273,awful,0.333,3.610169492,2.212947396,0.288101212
109,19,0,1,5,10,106,987.7009915353192,1008.1762939394685,stimuli/348_za.png,a,20.462291310170258,awful,0.333,3.084745763,2.119597681,0.275948114
109,19,0,1,5,11,107,1008.7336883330063,1015.3602640330137,stimuli/262_ya.png,a,6.612991653375502,ambig,0.333,5.491525424,1.7750462,0.231091332
109,19,0,1,5,12,108,1015.9006985787855,1023.8562687629164,stimuli/284_ya.png,l,7.942313997300516,ambig,0.333,5.948275862,1.431750417,0.18799804
109,19,0,1,5,13,109,1024.4002080722857,1032.1842998781576,stimuli/316_za.png,a,7.770375267944473,awful,0.333,2.344827586,1.802062407,0.236622386
109,19,0,1,5,14,110,1032.7336597816102,1039.352385131977,stimuli/203_yb.png,l,6.605113393939973,ambig,0.333,6,1.542501327,0.200816568
109,19,0,1,5,15,111,1039.9002170547392,1046.32036266043,stimuli/305_zb.png,a,6.406516967552307,awful,0.333,2.75,2.12830003,0.274762352
109,19,0,1,5,16,112,1046.86729056271,1065.408321479692,stimuli/109_xb.png,l,18.52782926652435,harmless,0.333,6.644067797,0.97843492,0.127381377
109,19,0,1,5,17,113,1065.9613523222579,1073.5522952432148,stimuli/335_yb.png,l,7.571833057125332,ambig,0.333,5.016949153,2.046793332,0.266469795
109,19,0,1,5,18,114,1074.1119512919686,1077.6483889636365,stimuli/193_xc.png,l,3.5179639585185214,harmless,0.333,6.482758621,1.012923151,0.133003326
109,19,0,1,5,19,115,1078.1999085072239,1082.3683434353952,stimuli/114_xc.png,l,4.154616695959703,harmless,0.333,6.644067797,0.97843492,0.127381377
109,19,0,1,5,20,116,1082.9161910774637,1088.0083998837436,stimuli/113_xb.png,l,5.07801331072551,harmless,0.333,6.733333333,0.660422737,0.085260209
109,19,0,1,5,21,117,1088.550080745903,1104.4883195933799,stimuli/183_xb.png,l,15.924615662974247,harmless,0.333,6.448275862,1.095003225,0.143780967
109,19,0,1,5,22,118,1105.0445225276926,1119.8082976120131,stimuli/243_ya.png,l,14.744634423484968,ambig,0.333,5.830508475,1.652088985,0.215083666
109,19,0,1,5,23,119,1120.350304088366,1127.9604560010266,stimuli/290_zb.png,a,7.596831886199652,awful,0.333,2.586206897,2.026443456,0.266085062
109,19,0,1,5,24,120,1128.5006598900436,1135.4483822909533,stimuli/206_xa.png,l,6.934784129021864,harmless,0.333,6.325842697,1.136094431,0.060212884
109,19,0,1,6,1,121,1144.6000264340983,1148.520338536102,stimuli/225_ya.png,l,3.9067874037646106,ambig,0.333,5.85,1.792876677,0.231459384
109,19,0,1,6,2,122,1149.078455696901,1149.1283635304426,stimuli/303_zb.png,l,0.03149314798793057,awful,0.333,3.620689655,2.158846233,0.283470398
109,19,0,1,6,3,123,1149.6840397076085,1152.0163381331804,stimuli/237_ya.png,l,2.319440033417777,ambig,0.333,4.305084746,2.019339575,0.26289562
109,19,0,1,6,4,124,1152.566788763972,1155.3123827067102,stimuli/153_xb.png,l,2.7321831292720162,harmless,0.333,6.633333333,0.973664521,0.125699549
109,19,0,1,6,5,125,1155.866666281705,1161.3843514631517,stimuli/333_za.png,l,5.504168824067165,awful,0.333,3.266666667,2.185209657,0.282109354
109,19,0,1,6,6,126,1161.9453667506532,1166.680408547967,stimuli/208_xb.png,l,4.716909738461254,harmless,0.333,6.216666667,1.165778516,0.150501359
109,19,0,1,6,7,127,1167.2334233504225,1174.2644227838828,stimuli/267_ya.png,l,7.017599206461455,ambig,0.333,5.103448276,1.898195405,0.249245267
109,19,0,1,6,8,128,1174.8166670195496,1184.8643770374983,stimuli/263_ya.png,l,10.03424466810975,ambig,0.333,4.983050847,2.071910042,0.269739712
109,19,0,1,6,9,129,1185.4266694383987,1189.256459511882,stimuli/111_xa.png,l,3.8263433750835247,harmless,0.333,6.590163934,0.863655973,0.110579816
109,19,0,1,6,10,130,1189.8003439640743,1197.0163820830712,stimuli/328_za.png,a,7.202939766830241,awful,0.333,2.706896552,1.955725922,0.256799395
109,19,0,1,6,11,131,1197.5775689997317,1202.7763810051765,stimuli/220_yb.png,a,5.179567404702539,ambig,0.333,4.75,2.096203186,0.270618668
109,19,0,1,6,12,132,1203.3289309653046,1211.1363627322862,stimuli/345_zb.png,l,7.789640400027565,awful,0.333,3.694915254,2.191317013,0.285285176
109,19,0,1,6,13,133,1211.6930311505348,1215.264383004418,stimuli/343_zb.png,l,3.567670969910978,awful,0.333,3.103448276,2.141401862,0.28117984
109,19,0,1,6,14,134,1215.8283070051039,1223.5604747358666,stimuli/110_xa.png,l,7.713721285799693,harmless,0.333,6.428571429,1.059281795,0.141552484
109,19,0,1,6,15,135,1224.1167235448884,1230.6084086737246,stimuli/188_xa.png,l,6.478407769063779,harmless,0.333,6.655172414,0.806807095,0.105938962
109,19,0,1,6,16,136,1231.149483861409,1233.9364057839339,stimuli/143_xb.png,l,2.773098557481717,harmless,0.333,6.655172414,0.738697862,0.096995781
109,19,0,1,6,17,137,1234.482903811324,1241.1763747816149,stimuli/215_yb.png,l,6.679738392253057,ambig,0.333,5.866666667,1.466769385,0.189359113
109,19,0,1,6,18,138,1241.7272498336679,1246.7923835792972,stimuli/281_ya.png,l,5.062420400965493,ambig,0.333,5.881355932,1.543448286,0.200939852
109,19,0,1,6,19,139,1247.3333808120515,1264.856447128921,stimuli/358_za.png,l,17.50984605987469,awful,0.333,3.949152542,2.112554662,0.275031191
109,19,0,1,6,20,140,1265.3994416759233,1273.904479232231,stimuli/247_ya.png,l,8.49122381532652,ambig,0.333,4.65,2.081598147,0.268733165
109,19,0,1,6,21,141,1274.4498669633467,1282.9844446240968,stimuli/229_za.png,a,8.521221704446361,awful,0.333,3.406779661,2.043649913,0.266060557
109,19,0,1,6,22,142,1283.5339273947757,1293.2003544222243,stimuli/334_za.png,a,9.653842600338976,awful,0.333,3.333333333,2.214487481,0.285889104
109,19,0,1,6,23,143,1293.7498676691102,1297.6964630920338,stimuli/185_xa.png,l,3.933313892724982,harmless,0.333,6.5,0.965506805,0.124646393
109,19,0,1,6,24,144,1298.2611932685468,1306.5364306140254,stimuli/149_xa.png,l,8.25663146183797,harmless,0.333,6.721311475,0.933294301,0.11949609
109,19,0,1,7,1,145,1318.099651737175,1325.944449898081,stimuli/300_za.png,a,7.8313664952947875,awful,0.333,3.75,2.12032137,0.273732312
109,19,0,1,7,2,146,1326.4998877192484,1330.4004438618722,stimuli/363_zb.png,a,3.8873836851635133,awful,0.333,2.433333333,2.019956927,0.260775318
109,19,0,1,7,3,147,1330.9594881409066,1337.816427380334,stimuli/265_yb.png,l,6.853368069787393,ambig,0.333,5.627118644,1.856008928,0.241631781
109,19,0,1,7,4,148,1338.3665424520732,1340.752441464836,stimuli/106_xc.png,l,2.372750936257944,harmless,0.333,6.661016949,0.863237081,0.112383896
109,19,0,1,7,5,149,1341.3107546357496,1345.7444133907993,stimuli/330_ya.png,a,4.41470383865817,ambig,0.333,4.796610169,2.049219036,0.266785595
109,19,0,1,7,6,150,1346.2992708808524,1350.1204387546968,stimuli/150_xc.png,l,3.8074340125967865,harmless,0.333,6.482758621,1.030097582,0.135258439
109,19,0,1,7,7,151,1350.666687198005,1356.0565660823559,stimuli/219_ya.png,l,5.376886396894406,ambig,0.333,5.271186441,1.998538332,0.260187529
109,19,0,1,7,8,152,1356.5992343735707,1363.5925543102057,stimuli/187_xc.png,l,6.979570676885487,harmless,0.333,6.224137931,1.185335891,0.155642228
109,19,0,1,7,9,153,1364.1489994501462,1367.8884628636224,stimuli/199_za.png,a,3.7254748353152536,awful,0.333,3.033898305,2.189048775,0.284989876
109,19,0,1,7,10,154,1368.4435375367393,1373.9444309707542,stimuli/224_yb.png,l,5.498142234697298,ambig,0.333,5.881355932,1.609077116,0.209483997
109,19,0,1,7,11,155,1374.4996766314216,1381.44054252778,stimuli/355_zb.png,l,6.927613238345657,awful,0.333,3.183333333,2.070713188,0.267327923
109,19,0,1,7,12,156,1381.9831983077092,1384.192445365792,stimuli/230_yb.png,a,2.196193939023942,ambig,0.333,4.98245614,1.875511626,0.248417583
109,19,0,1,7,13,157,1384.7433140017965,1390.0564351950816,stimuli/120_xa.png,l,5.310193552781129,harmless,0.333,6.440677966,1.054893138,0.137335389
109,19,0,1,7,14,158,1390.600348519467,1395.2164615778456,stimuli/272_xb.png,l,4.6035770723974565,harmless,0.333,6.355932203,1.029943284,0.134087194
109,19,0,1,7,15,159,1395.7658352757935,1400.6725431206214,stimuli/166_xa.png,l,4.892995156529651,harmless,0.333,6.593220339,1.052397002,0.13701042
109,19,0,1,7,16,160,1401.2164882044235,1407.0885696265832,stimuli/268_zb.png,a,5.859046268014936,awful,0.333,2.655737705,2.048456703,0.262278005
109,19,0,1,7,17,161,1407.6319340584741,1414.67247158174,stimuli/323_yb.png,l,7.026292624177586,ambig,0.333,4.603448276,1.955107169,0.256718148
109,19,0,1,7,18,162,1415.2153076524773,1418.5604635077907,stimuli/128_xc.png,l,3.3309744750513346,harmless,0.333,6.627118644,0.98082135,0.127692063
109,19,0,1,7,19,163,1419.116174652394,1422.5444615752785,stimuli/359_za.png,a,3.4149810117160087,awful,0.333,2.01754386,1.641985167,0.217486248
109,19,0,1,7,20,164,1423.1112240334696,1429.5924699392344,stimuli/319_ya.png,a,6.46300028294354,ambig,0.333,4.216666667,2.108028774,0.272145344
109,19,0,1,7,21,165,1430.1317698077692,1438.2564973665358,stimuli/197_xa.png,l,8.110377757373499,harmless,0.333,6.779661017,0.55918033,0.072799078
109,19,0,1,7,22,166,1438.7996629010959,1450.5605058536821,stimuli/253_ya.png,l,11.747722465072002,ambig,0.333,5.491803279,1.849531029,0.236808182
109,19,0,1,7,23,167,1451.115387724698,1455.504484172583,stimuli/366_za.png,a,4.375089583998488,awful,0.333,3.689655172,2.036568291,0.267414518
109,19,0,1,7,24,168,1456.0608600192645,1459.3126945264084,stimuli/307_za.png,a,3.2333085032441886,awful,0.333,2.93220339,2.172432347,0.282826601
109,19,0,1,8,1,169,1469.9997388670454,1472.376564311533,stimuli/365_zb.png,a,2.3638544507775805,awful,0.333,2.966101695,2.165291266,0.281896912
109,19,0,1,8,2,170,1472.9427310401152,1476.072504816846,stimuli/248_zb.png,a,3.126491329036071,awful,0.333,3.288135593,1.991800844,0.259310383
109,19,0,1,8,3,171,1476.6153360755488,1479.8006663702472,stimuli/130_xc.png,l,3.171340433327714,harmless,0.333,6.644067797,0.960651931,0.125066229
109,19,0,1,8,4,172,1480.349608589284,1482.1925634209838,stimuli/295_za.png,a,1.8298943341869744,awful,0.333,2.3,1.825432384,0.235662307
109,19,0,1,8,5,173,1482.731644502448,1489.3925704144713,stimuli/274_xb.png,l,6.646562636939052,harmless,0.333,6.491525424,1.179901828,0.153610134
109,19,0,1,8,6,174,1489.9321240375139,1494.984542468752,stimuli/254_ya.png,l,5.038577422070375,ambig,0.333,5.983606557,1.627798137,0.208418195
109,19,0,1,8,7,175,1495.5323955644635,1499.0245336659427,stimuli/182_xb.png,l,3.4785611124898423,harmless,0.333,6.542372881,0.988241802,0.128658124
109,19,0,1,8,8,176,1499.5769565884111,1502.2805232026585,stimuli/155_xb.png,l,2.6845834672640194,harmless,0.333,6.655737705,0.892286312,0.114245555
109,19,0,1,8,9,177,1502.8319234078444,1507.9765185651413,stimuli/232_yb.png,l,5.130587010207819,ambig,0.333,5.483333333,1.845669845,0.238274952
109,19,0,1,8,10,178,1508.5280185398005,1515.5045361425364,stimuli/245_yb.png,l,6.958593423682032,ambig,0.333,4.949152542,2.096168334,0.272897873
109,19,0,1,8,11,179,1516.048602810355,1522.0805174923807,stimuli/292_zb.png,a,6.0179588256869465,awful,0.333,2.396551724,1.955107169,0.256718148
109,19,0,1,8,12,180,1522.6441184452924,1530.952628749139,stimuli/285_yb.png,l,8.29008791904198,ambig,0.333,4.120689655,2.119893958,0.278355714
109,19,0,1,8,13,181,1531.5098470222874,1547.2085242908215,stimuli/342_yb.png,a,15.696000495321641,ambig,0.333,4.916666667,2.085394461,0.269223267
109,19,0,1,8,14,182,1547.7598847165355,1553.792570606951,stimuli/361_za.png,a,6.013426532772428,awful,0.333,2.416666667,1.907093508,0.246204713
109,19,0,1,8,15,183,1554.359405566429,1562.7685351467662,stimuli/308_zb.png,a,8.406070731747604,awful,0.333,1.644067797,1.471132708,0.191525165
109,19,0,1,8,16,184,1563.3158486532411,1567.008612896374,stimuli/354_zb.png,a,3.679512547532795,awful,0.333,2,1.701925887,0.221571878
109,19,0,1,8,17,185,1567.548220734985,1573.3126002105782,stimuli/246_ya.png,l,5.7501772431933205,ambig,0.333,5.542372881,1.715266481,0.223308675
109,19,0,1,8,18,186,1573.8656775694471,1578.184605923423,stimuli/325_yb.png,l,4.305527806172904,ambig,0.333,5.131147541,1.811770863,0.231973488
109,19,0,1,8,19,187,1578.732282577941,1590.0325440958622,stimuli/350_ya.png,a,11.286786544020288,ambig,0.333,4.915254237,2.02814792,0.264042369
109,19,0,1,8,20,188,1590.578302674272,1596.008547773541,stimuli/148_xc.png,l,5.412845110942726,harmless,0.333,6.491525424,1.135218061,0.147792803
109,19,0,1,8,21,189,1596.5750721965305,1603.2085566918395,stimuli/310_zb.png,a,6.6295360623335,awful,0.333,3.224137931,2.102989547,0.276136056
109,19,0,1,8,22,190,1603.7596803655615,1607.1685898756114,stimuli/115_xb.png,l,3.389575405504729,harmless,0.333,6.440677966,1.021681954,0.133011661
109,19,0,1,8,23,191,1607.7246641682577,1615.432686082895,stimuli/107_xa.png,l,7.7036949351095245,harmless,0.333,6.813559322,0.540580029,0.070377525
109,19,0,1,8,24,192,1615.9820071692884,1620.016651236081,stimuli/190_xc.png,l,4.021022807108238,harmless,0.333,6.517241379,1.046990328,0.137476565
109,19,0,1,9,1,193,1628.698304496429,1633.2725855948302,stimuli/256_zb.png,a,4.560327166873321,awful,0.333,3.051724138,2.012438634,0.264246138
109,19,0,1,9,2,194,1633.8158201018523,1637.6167498506693,stimuli/196_xb.png,l,3.7878307550490717,harmless,0.333,6.594366197,0.982313556,0.05213579
109,19,0,1,9,3,195,1638.1650604102542,1641.680574402686,stimuli/104_xc.png,l,3.501672341655649,harmless,0.333,6.745762712,0.756425814,0.098478253
109,19,0,1,9,4,196,1642.2317420263062,1644.3045987631194,stimuli/320_za.png,a,2.059040429412562,awful,0.333,1.423728814,1.117314975,0.14546202
109,19,0,1,9,5,197,1644.8593054761586,1653.3365763223628,stimuli/362_zb.png,a,8.474345772112429,awful,0.333,1.474576271,1.222715071,0.159183944
109,19,0,1,9,6,198,1653.893314354682,1658.8806125139818,stimuli/313_zb.png,a,4.968415423398255,awful,0.333,2.101694915,1.688652955,0.219843889
109,19,0,1,9,7,199,1659.431715656363,1662.248579969244,stimuli/338_zb.png,a,2.803059875157487,awful,0.333,3.310344828,2.137443107,0.28066003
109,19,0,1,9,8,200,1662.7987864695897,1666.3765979957607,stimuli/304_ya.png,a,3.5644247728560003,ambig,0.333,4.034482759,2.017167697,0.264867095
109,19,0,1,9,9,201,1666.9317509446046,1672.9446837628566,stimuli/180_xc.png,l,5.999192220158875,harmless,0.333,6.672131148,0.723908638,0.092687003
109,19,0,1,9,10,202,1673.4982949365221,1676.3926137227609,stimuli/346_zb.png,a,2.8804764938613516,awful,0.333,1.288135593,0.983499162,0.128040685
109,19,0,1,9,11,203,1676.9430107795924,1682.2246311256386,stimuli/250_yb.png,l,5.26250791579514,ambig,0.333,5.950819672,1.585625318,0.203018519
109,19,0,1,9,12,204,1682.765328408379,1687.2887078281492,stimuli/139_xa.png,l,4.509930751642969,harmless,0.333,6.724137931,0.790138861,0.103750315
109,19,0,1,9,13,205,1687.8317014127533,1692.9046033826671,stimuli/151_xa.png,l,5.059161692624912,harmless,0.333,6.610169492,0.947172729,0.123311386
109,19,0,1,9,14,206,1693.4594393789812,1698.6246130323998,stimuli/269_za.png,a,5.1458488521384425,awful,0.333,3.457627119,2.119873401,0.27598401
109,19,0,1,9,15,207,1699.1656497238218,1702.1767039246333,stimuli/214_xb.png,l,2.9979641894969973,harmless,0.333,6.465517241,0.940614156,0.12350869
109,19,0,1,9,16,208,1702.7324064075729,1706.024593655944,stimuli/207_yb.png,l,3.2791979689354775,ambig,0.333,5.655737705,1.662179753,0.212820309
109,19,0,1,9,17,209,1706.5753323670797,1715.1525917927283,stimuli/261_yb.png,a,8.573861809978553,ambig,0.333,5.706896552,1.901141123,0.249632059
109,19,0,1,9,18,210,1715.6948780085659,1721.360700323945,stimuli/103_xb.png,l,5.648664853491937,harmless,0.333,6.779661017,0.589207434,0.076708274
109,19,0,1,9,19,211,1721.9148879790955,1726.1686819458337,stimuli/282_xc.png,l,4.240005889929307,harmless,0.333,6.55,0.998728005,0.128935231
109,19,0,1,9,20,212,1726.7150397826772,1731.0486525346932,stimuli/270_yb.png,l,4.319987642702472,ambig,0.333,5.534482759,1.912246013,0.251090203
109,19,0,1,9,21,213,1731.6091256665459,1736.8406171463648,stimuli/296_yb.png,a,5.228620942092675,ambig,0.333,4.229508197,2.052587332,0.262806878
109,19,0,1,9,22,214,1737.3933313571906,1745.8806093059611,stimuli/336_ya.png,l,8.468629398441408,ambig,0.333,5.033898305,1.884291705,0.245313885
109,19,0,1,9,23,215,1746.431568408174,1750.4487168876076,stimuli/356_za.png,a,4.003426808667427,awful,0.333,3.033333333,2.178217796,0.281206708
109,19,0,1,9,24,216,1750.9989455233008,1759.3526196383536,stimuli/271_ya.png,l,8.340676173960674,ambig,0.333,5.711864407,1.771915459,0.230683744
109,19,0,1,10,1,217,1768.2653874359748,1778.712677074771,stimuli/218_yb.png,l,10.434118785335158,ambig,0.333,5.850282486,1.552723069,0.0825263
109,19,0,1,10,2,218,1779.2654422931446,1782.9446683643546,stimuli/212_ya.png,l,3.6661511376005365,ambig,0.333,5.677966102,1.490668422,0.194068498
109,19,0,1,10,3,219,1783.498672520669,1787.0087476332847,stimuli/368_za.png,a,3.4968949558970053,awful,0.333,3.590163934,2.02794682,0.259651984
109,19,0,1,10,4,220,1787.5770788140362,1790.9846778472638,stimuli/163_xa.png,l,3.389498092190479,harmless,0.333,6.627118644,0.963082427,0.125382652
109,19,0,1,10,5,221,1791.5317850779538,1799.072670671565,stimuli/189_yb.png,l,7.52750718115567,ambig,0.333,5.983333333,1.455459234,0.187898979
109,19,0,1,10,6,222,1799.6155073839036,1805.256709737565,stimuli/278_xb.png,l,5.628230397545849,harmless,0.333,6.360655738,1.140654591,0.146045855
109,19,0,1,10,7,223,1805.7947921619052,1808.9526386940051,stimuli/178_xa.png,l,3.140818674277398,harmless,0.333,6.483333333,1.112207557,0.143585378
109,19,0,1,10,8,224,1809.5103054485662,1819.1286990895023,stimuli/351_zb.png,a,9.60024169235112,awful,0.333,3.06779661,2.033040926,0.264679384
109,19,0,1,10,9,225,1819.6822332706506,1826.528746760705,stimuli/293_zb.png,l,6.83365477710322,awful,0.333,3.677966102,2.169066842,0.28238845
109,19,0,1,10,10,226,1827.0818177035326,1836.5767820720357,stimuli/167_xb.png,l,9.481708823273948,harmless,0.333,6.590163934,0.955284411,0.122311635
109,19,0,1,10,11,227,1837.1428310662232,1841.3686674455748,stimuli/322_za.png,a,4.206961021896859,awful,0.333,2.406779661,1.975004531,0.257123689
109,19,0,1,10,12,228,1841.9151519992738,1846.680687004242,stimuli/273_ya.png,l,4.752322447231563,ambig,0.333,5.551724138,1.836973233,0.241206403
109,19,0,1,10,13,229,1847.2315097655373,1850.6326597129591,stimuli/191_ya.png,l,3.387637118859857,ambig,0.333,5.517241379,2.062542966,0.270825159
109,19,0,1,10,14,230,1851.1816683380457,1855.7447659523677,stimuli/372_zb.png,a,4.549774700637499,awful,0.333,2.796610169,2.082601664,0.271131643
109,19,0,1,10,15,231,1856.3114456436015,1860.8326477791197,stimuli/340_za.png,a,4.50432152589201,awful,0.333,2.508474576,1.832398855,0.238558011
109,19,0,1,10,16,232,1861.3816262488035,1868.3286910052848,stimuli/205_yb.png,l,6.933712649806694,ambig,0.333,5.847457627,1.52918233,0.199082582
109,19,0,1,10,17,233,1868.8921645997398,1875.120815055634,stimuli/321_zb.png,a,6.22584375779843,awful,0.333,2.918032787,2.177881861,0.278849198
109,19,0,1,10,18,234,1875.6646026255767,1882.0567518268072,stimuli/156_xc.png,l,6.378478538012132,harmless,0.333,6.590163934,0.955284411,0.122311635
109,19,0,1,10,19,235,1882.599002433606,1888.2887889910999,stimuli/198_yb.png,l,5.6772085464253905,ambig,0.333,5.101694915,1.83542643,0.238952168
109,19,0,1,10,20,236,1888.8316946759078,1894.7847719064594,stimuli/255_xb.png,a,5.939839650251088,harmless,0.333,6.770491803,0.642740036,0.082294429
109,19,0,1,10,21,237,1895.3319400895562,1904.6007671662883,stimuli/129_xa.png,l,9.255875972754438,harmless,0.333,6.770491803,0.642740036,0.082294429
109,19,0,1,10,22,238,1905.148420402249,1910.0886985890465,stimuli/275_yb.png,l,4.927180476232024,ambig,0.333,4.836065574,2.138382004,0.27379176
109,19,0,1,10,23,239,1910.631540113427,1916.928730913074,stimuli/324_za.png,a,6.2838829636748414,awful,0.333,2.491525424,1.994586478,0.259673041
109,19,0,1,10,24,240,1917.4917066225753,1920.1527977477162,stimuli/184_xb.png,l,2.657962341676466,harmless,0.333,6.508474576,1.194425,0.15550089
