id,age,condition,counterbalance,block,trialinblock,trial,tstart,tend,trialstim,response,RT,trialtype,ethicfreq,norm_mean,norm_sd,norm_se
057,67,1,2,0,0,practice,2.5664048735052347e-06,10.148247121513123,stimuli/prac_217_1.png,a,10.13154777046293,harmless,NA,NA,NA,NA
057,67,1,2,1,1,1,5.758860151807312,11.521586609975202,stimuli/160_xb.png,l,5.7549216649495065,harmless,0.333,6.666666667,0.680644427,0.087870818
057,67,1,2,1,2,2,12.06900003112969,20.049618454067968,stimuli/141_xc.png,l,7.966324445733335,harmless,0.333,6.508474576,1.040107444,0.135410455
057,67,1,2,1,3,3,20.60272290368448,27.05754354808596,stimuli/247_ya.png,l,6.440613604529062,ambig,0.333,4.65,2.081598147,0.268733165
057,67,1,2,1,4,4,27.60279380096472,36.58556640971801,stimuli/258_ya.png,l,8.968977478740271,ambig,0.333,5.627118644,1.78014243,0.231754804
057,67,1,2,1,5,5,37.13606177622569,45.59362656137091,stimuli/304_ya.png,l,8.443765163887292,ambig,0.333,4.034482759,2.017167697,0.264867095
057,67,1,2,1,6,6,46.13599440778489,53.13755093936925,stimuli/116_xa.png,l,6.987724188511493,harmless,0.333,6.63559322,0.958030802,0.050918763
057,67,1,2,1,7,7,53.68629793464788,59.98555011296412,stimuli/233_yb.png,l,6.285752506984863,ambig,0.333,5.318309859,1.922973646,0.102060844
057,67,1,2,1,8,8,60.53595790051622,67.80161215865519,stimuli/208_xb.png,l,7.251836030365666,harmless,0.333,6.216666667,1.165778516,0.150501359
057,67,1,2,1,9,9,68.34911925400957,78.20155993208755,stimuli/348_za.png,l,9.835134690365521,awful,0.333,3.084745763,2.119597681,0.275948114
057,67,1,2,1,10,10,78.75295546915731,83.84157030039933,stimuli/105_xa.png,l,5.075196643621894,harmless,0.333,6.557377049,1.088187946,0.139328189
057,67,1,2,1,11,11,84.38594380125869,93.67366282484727,stimuli/147_ya.png,l,9.273973297065822,ambig,0.333,5.883333333,1.766847875,0.22809908
057,67,1,2,1,12,12,94.21888677196694,101.83366509611369,stimuli/269_za.png,l,7.6006777905568015,awful,0.333,3.457627119,2.119873401,0.27598401
057,67,1,2,1,13,13,102.38605896919034,109.61756160281948,stimuli/207_yb.png,l,7.217928215395659,ambig,0.333,5.655737705,1.662179753,0.212820309
057,67,1,2,1,14,14,110.16901328024687,118.57763393726782,stimuli/248_zb.png,l,8.394694639748195,awful,0.333,3.288135593,1.991800844,0.259310383
057,67,1,2,1,15,15,119.11935889633605,133.58563730696915,stimuli/290_zb.png,a,14.452728694159305,awful,0.333,2.586206897,2.026443456,0.266085062
057,67,1,2,1,16,16,134.13540605679736,139.25757229194278,stimuli/138_xc.png,l,5.10802303487435,harmless,0.333,6.661016949,0.70978796,0.092406522
057,67,1,2,1,17,17,139.80273304105503,147.08158188775997,stimuli/211_zb.png,l,7.265399541298393,awful,0.333,3.983333333,2.127237938,0.274625237
057,67,1,2,1,18,18,147.63577706439537,153.7535592186032,stimuli/117_xc.png,l,6.104074923961889,harmless,0.333,6.627118644,0.868972939,0.113130641
057,67,1,2,1,19,19,154.30260006859316,163.2816446366487,stimuli/239_ya.png,l,8.965521157369949,ambig,0.333,5.157894737,1.925296579,0.255011762
057,67,1,2,1,20,20,163.8355026502977,171.65757299770485,stimuli/297_za.png,l,7.80814080129494,awful,0.333,1.898305085,1.446695584,0.188343723
057,67,1,2,1,21,21,172.20216079434613,180.20957068022108,stimuli/192_za.png,l,7.993506324768532,awful,0.333,2.68852459,2.093967396,0.268105052
057,67,1,2,1,22,22,180.75232701792265,188.84960254229372,stimuli/279_ya.png,l,8.083559311635327,ambig,0.333,5.31147541,1.970964092,0.252356093
057,67,1,2,1,23,23,189.40192134768586,198.92169574683066,stimuli/299_za.png,a,9.50564884301275,awful,0.333,1.288135593,0.929420425,0.121000233
057,67,1,2,1,24,24,199.46910884717363,205.3137107270013,stimuli/193_xc.png,l,5.831067241058918,harmless,0.333,6.482758621,1.012923151,0.133003326
057,67,1,2,2,1,25,217.4786758061091,227.049571937765,stimuli/359_za.png,l,9.566965664853342,awful,0.333,2.01754386,1.641985167,0.217486248
057,67,1,2,2,2,26,227.60246850765543,233.46557521252544,stimuli/162_xa.png,l,5.849649379379116,harmless,0.333,6.644067797,0.905209289,0.117848212
057,67,1,2,2,3,27,234.01901361710043,244.68161711184075,stimuli/365_zb.png,l,10.649072063999483,awful,0.333,2.966101695,2.165291266,0.281896912
057,67,1,2,2,4,28,245.23548859916627,253.44958515482722,stimuli/342_yb.png,l,8.200408252712805,ambig,0.333,4.916666667,2.085394461,0.269223267
057,67,1,2,2,5,29,254.00187861683662,264.36959444524837,stimuli/334_za.png,l,10.353762863756856,awful,0.333,3.333333333,2.214487481,0.285889104
057,67,1,2,2,6,30,264.9187068340834,269.4657583904918,stimuli/356_za.png,l,4.533310321130557,awful,0.333,3.033333333,2.178217796,0.281206708
057,67,1,2,2,7,31,270.0206477827742,277.56161500737653,stimuli/205_yb.png,l,7.529186731495429,ambig,0.333,5.847457627,1.52918233,0.199082582
057,67,1,2,2,8,32,278.1014594247972,282.9056078444992,stimuli/103_xb.png,l,4.789858292089775,harmless,0.333,6.779661017,0.589207434,0.076708274
057,67,1,2,2,9,33,283.451821145165,289.37761193024926,stimuli/157_xc.png,l,5.91184840691858,harmless,0.333,6.603448276,0.877389573,0.115206895
057,67,1,2,2,10,34,289.91898753587157,296.96961812043446,stimuli/252_zb.png,l,7.037212717754301,awful,0.333,2.711864407,1.983125776,0.258180985
057,67,1,2,2,11,35,297.5187783087895,309.62559641111875,stimuli/176_xb.png,l,12.093227964825928,harmless,0.333,6.796610169,0.517942249,0.067430337
057,67,1,2,2,12,36,310.16890035790857,324.3136112783686,stimuli/327_zb.png,l,14.13130331930006,awful,0.333,2.502808989,1.906990248,0.101070281
057,67,1,2,2,13,37,324.86807817433146,329.0656864666671,stimuli/143_xb.png,l,4.18342210460105,harmless,0.333,6.655172414,0.738697862,0.096995781
057,67,1,2,2,14,38,329.6182612721168,336.94568660782534,stimuli/273_ya.png,l,7.313437082862947,ambig,0.333,5.551724138,1.836973233,0.241206403
057,67,1,2,2,15,39,337.50207574971137,345.6897000404424,stimuli/278_xb.png,l,8.174128469021525,harmless,0.333,6.360655738,1.140654591,0.146045855
057,67,1,2,2,16,40,346.23498975197435,350.9695953434857,stimuli/158_xa.png,l,4.720729298540391,harmless,0.333,6.786885246,0.661179605,0.084655374
057,67,1,2,2,17,41,351.5184093864227,361.6256323409616,stimuli/265_yb.png,l,10.093423974903999,ambig,0.333,5.627118644,1.856008928,0.241631781
057,67,1,2,2,18,42,362.16885159601225,374.8257576462347,stimuli/339_ya.png,l,12.64353534131078,ambig,0.333,4.949152542,1.960152429,0.25519011
057,67,1,2,2,19,43,375.36843602903537,381.12980324888485,stimuli/173_yb.png,l,5.747655177547131,ambig,0.333,5.796610169,1.242628763,0.161776485
057,67,1,2,2,20,44,381.68483732288587,389.0496832561039,stimuli/295_za.png,l,7.35089938461897,awful,0.333,2.3,1.825432384,0.235662307
057,67,1,2,2,21,45,389.60188079829095,400.14557901083026,stimuli/170_xc.png,l,10.530132135172607,harmless,0.333,6.583333333,1.062323432,0.137145365
057,67,1,2,2,22,46,400.70255137083586,413.08974277129164,stimuli/340_za.png,l,12.374358676577685,awful,0.333,2.508474576,1.832398855,0.238558011
057,67,1,2,2,23,47,413.64534562733024,419.8256768041174,stimuli/222_ya.png,l,6.17695890556206,ambig,0.333,5.931034483,1.543089507,0.202617579
057,67,1,2,2,24,48,420.36805876580183,429.16964943072526,stimuli/257_yb.png,l,8.787612036103383,ambig,0.333,5.620689655,1.843219782,0.242026615
057,67,1,2,3,1,49,441.9175118464336,449.6015997756913,stimuli/310_zb.png,l,7.6696495911164675,awful,0.333,3.224137931,2.102989547,0.276136056
057,67,1,2,3,2,50,450.1514904303185,457.65773436112795,stimuli/198_yb.png,l,7.492458745633485,ambig,0.333,5.101694915,1.83542643,0.238952168
057,67,1,2,3,3,51,458.2011634207447,464.0256231018575,stimuli/202_yb.png,l,5.810371338011464,ambig,0.333,5.431034483,1.892849601,0.248543329
057,67,1,2,3,4,52,464.568394517235,472.39369117093156,stimuli/200_ya.png,l,7.811806285608327,ambig,0.333,5.862068966,1.444266048,0.189641423
057,67,1,2,3,5,53,472.93490252591437,482.88176455246867,stimuli/242_xb.png,l,9.933262264996301,harmless,0.333,6.576271186,0.913564256,0.118935936
057,67,1,2,3,6,54,483.43456648575375,491.37765748414677,stimuli/372_zb.png,a,7.929166585148778,awful,0.333,2.796610169,2.082601664,0.271131643
057,67,1,2,3,7,55,491.91787306952756,498.64168463426176,stimuli/119_xc.png,l,6.709878810623195,harmless,0.333,6.694915254,0.914523379,0.119060803
057,67,1,2,3,8,56,499.1845814832486,506.1776351563167,stimuli/189_yb.png,l,6.9792094603180885,ambig,0.333,5.983333333,1.455459234,0.187898979
057,67,1,2,3,9,57,506.7225533790479,512.8577307040105,stimuli/346_zb.png,a,6.125983779609669,awful,0.333,1.288135593,0.983499162,0.128040685
057,67,1,2,3,10,58,513.4012438137433,533.6896342760301,stimuli/293_zb.png,l,20.274557477619965,awful,0.333,3.677966102,2.169066842,0.28238845
057,67,1,2,3,11,59,534.2343882481218,539.2016927441291,stimuli/129_xa.png,l,4.953358589002164,harmless,0.333,6.770491803,0.642740036,0.082294429
057,67,1,2,3,12,60,539.7508532532665,544.0977878452686,stimuli/190_xc.png,l,4.332801978191128,harmless,0.333,6.517241379,1.046990328,0.137476565
057,67,1,2,3,13,61,544.6514543400845,552.0336271131528,stimuli/352_zb.png,l,7.368656740814913,awful,0.333,2.93442623,2.135952968,0.273480754
057,67,1,2,3,14,62,552.5843842541508,569.1776197578292,stimuli/186_xa.png,l,16.579337075410876,harmless,0.333,6.65,0.879618561,0.113558268
057,67,1,2,3,15,63,569.7177644459589,574.9616202043835,stimuli/191_ya.png,l,5.230057420383673,ambig,0.333,5.517241379,2.062542966,0.270825159
057,67,1,2,3,16,64,575.5175165942928,582.6817925905634,stimuli/171_xa.png,l,7.150245397526305,harmless,0.333,6.465517241,1.046556882,0.137419651
057,67,1,2,3,17,65,583.2344167995034,590.441636321455,stimuli/238_xb.png,l,7.193431449559284,harmless,0.333,6.4,1.076718178,0.139003719
057,67,1,2,3,18,66,590.9842559974641,599.353761580569,stimuli/210_yb.png,l,8.355580528237624,ambig,0.333,5.557377049,1.76564049,0.226067099
057,67,1,2,3,19,67,599.9006684552587,605.8177488229121,stimuli/260_ya.png,l,5.902938771410845,ambig,0.333,4.966101695,2.016877936,0.262575142
057,67,1,2,3,20,68,606.3676234374288,615.633740612946,stimuli/136_xc.png,l,9.252282266039401,harmless,0.333,6.559322034,1.038420326,0.135190811
057,67,1,2,3,21,69,616.1845099443744,624.9696550126828,stimuli/370_za.png,l,8.771538569882978,awful,0.333,2.393442623,1.882185684,0.240989182
057,67,1,2,3,22,70,625.5176949602319,633.1936479909637,stimuli/306_zb.png,l,7.662235534808133,awful,0.333,2.352112676,1.917055413,0.101746737
057,67,1,2,3,23,71,633.7343479874544,646.3937341583951,stimuli/212_ya.png,l,12.645681827882072,ambig,0.333,5.677966102,1.490668422,0.194068498
057,67,1,2,3,24,72,646.9344367213198,657.305675918702,stimuli/292_zb.png,a,10.357651947095292,awful,0.333,2.396551724,1.955107169,0.256718148
057,67,1,2,4,1,73,669.3174993993016,680.3857859666459,stimuli/319_ya.png,l,11.054489191708853,ambig,0.333,4.216666667,2.108028774,0.272145344
057,67,1,2,4,2,74,680.9338900746079,689.7697478527843,stimuli/347_zb.png,l,8.821837765892269,awful,0.333,3.796610169,2.147810923,0.279621165
057,67,1,2,4,3,75,690.3176427978324,698.9536482732801,stimuli/325_yb.png,l,8.622432661242783,ambig,0.333,5.131147541,1.811770863,0.231973488
057,67,1,2,4,4,76,699.5010677896498,708.3856801019574,stimuli/344_za.png,l,8.871173914172687,awful,0.333,2.711864407,2.043077863,0.265986082
057,67,1,2,4,5,77,708.9307875979284,717.7298282072879,stimuli/240_xa.png,l,8.781995433702832,harmless,0.333,6.482758621,1.096107616,0.143925981
057,67,1,2,4,6,78,718.2839877748629,726.4736716148327,stimuli/261_yb.png,l,8.175883256277302,ambig,0.333,5.706896552,1.901141123,0.249632059
057,67,1,2,4,7,79,727.0167760227341,731.8177254043403,stimuli/178_xa.png,l,4.786610171286156,harmless,0.333,6.483333333,1.112207557,0.143585378
057,67,1,2,4,8,80,732.3676096429117,745.9856793961953,stimuli/333_za.png,l,13.60458227241179,awful,0.333,3.266666667,2.185209657,0.282109354
057,67,1,2,4,9,81,746.5338961056841,758.6897051732813,stimuli/312_yb.png,l,12.141989877418382,ambig,0.333,4.677966102,2.112692986,0.275049199
057,67,1,2,4,10,82,759.2339968696178,766.4497099468135,stimuli/360_za.png,l,7.202029586274875,awful,0.333,3.2,2.207844259,0.285031468
057,67,1,2,4,11,83,767.0002200702147,772.8576671851915,stimuli/323_yb.png,l,5.843335994926747,ambig,0.333,4.603448276,1.955107169,0.256718148
057,67,1,2,4,12,84,773.4004488662467,782.1777265848941,stimuli/307_za.png,l,8.763432543491945,awful,0.333,2.93220339,2.172432347,0.282826601
057,67,1,2,4,13,85,782.7332842078467,794.0336838951334,stimuli/243_ya.png,l,11.28605053210049,ambig,0.333,5.830508475,1.652088985,0.215083666
057,67,1,2,4,14,86,794.5834776675329,805.3216986982152,stimuli/324_za.png,l,10.724110552226193,awful,0.333,2.491525424,1.994586478,0.259673041
057,67,1,2,4,15,87,805.8663487304293,811.6976880116563,stimuli/113_xb.png,l,5.816771659825463,harmless,0.333,6.733333333,0.660422737,0.085260209
057,67,1,2,4,16,88,812.250517854729,820.9137783520855,stimuli/291_za.png,l,8.649587592924945,awful,0.333,2.593220339,1.830005126,0.238246374
057,67,1,2,4,17,89,821.4669937992294,829.4256927800598,stimuli/231_xb.png,l,7.944854447297985,harmless,0.333,6.62295082,1.05141071,0.134619347
057,67,1,2,4,18,90,829.9668319545744,835.8097589268873,stimuli/137_xa.png,l,5.828941927466076,harmless,0.333,6.355932203,1.094858074,0.14253838
057,67,1,2,4,19,91,836.3506915048638,847.3137784162536,stimuli/131_xb.png,l,10.94965011725435,harmless,0.333,6.525423729,1.119666394,0.145768149
057,67,1,2,4,20,92,847.8674975226168,854.8017950158392,stimuli/350_ya.png,l,6.921037461026572,ambig,0.333,4.915254237,2.02814792,0.264042369
057,67,1,2,4,21,93,855.3505266126303,866.8416322151897,stimuli/213_ya.png,l,11.477566793386359,ambig,0.333,5.98245614,1.597891781,0.211645937
057,67,1,2,4,22,94,867.3837482319796,874.5617991477484,stimuli/282_xc.png,l,7.164433189260308,harmless,0.333,6.55,0.998728005,0.128935231
057,67,1,2,4,23,95,875.1166728207318,881.6497643548646,stimuli/317_za.png,l,6.519075371499639,awful,0.333,3.65,2.03215674,0.262350307
057,67,1,2,4,24,96,882.1997031297651,887.233674463554,stimuli/114_xc.png,l,5.019672865309985,harmless,0.333,6.644067797,0.97843492,0.127381377
057,67,1,2,5,1,97,898.1669870944461,905.0576920794265,stimuli/345_zb.png,l,6.87709142890526,awful,0.25,3.694915254,2.191317013,0.285285176
057,67,1,2,5,2,98,905.6001128581702,912.113847517001,stimuli/361_za.png,l,6.499922847084235,awful,0.25,2.416666667,1.907093508,0.246204713
057,67,1,2,5,3,99,912.6669404177519,922.8418227716174,stimuli/271_ya.png,l,10.161251153680496,ambig,0.25,5.711864407,1.771915459,0.230683744
057,67,1,2,5,4,100,923.383191961213,929.8976926953765,stimuli/237_ya.png,l,6.500486496312078,ambig,0.25,4.305084746,2.019339575,0.26289562
057,67,1,2,5,5,101,930.4496416159964,936.1377777464222,stimuli/270_yb.png,l,5.6739265241485555,ambig,0.25,5.534482759,1.912246013,0.251090203
057,67,1,2,5,6,102,936.6827684704331,944.9697185314726,stimuli/128_xc.png,l,8.272550860740012,harmless,0.25,6.627118644,0.98082135,0.127692063
057,67,1,2,5,7,103,945.5164605139289,953.3458098599804,stimuli/277_yb.png,l,7.815329012984876,ambig,0.25,5.491525424,2.02886822,0.264136144
057,67,1,2,5,8,104,953.8997467909358,960.7137804052327,stimuli/126_xa.png,l,6.7999943539034575,harmless,0.25,6.6,0.977717855,0.126222832
057,67,1,2,5,9,105,961.2667161129648,969.0656717097736,stimuli/349_za.png,l,7.785254140995676,awful,0.25,3.288135593,2.101320172,0.273568585
057,67,1,2,5,10,106,969.6168000187317,983.1377341173356,stimuli/123_xc.png,l,13.507320863340283,harmless,0.25,6.491525424,1.023396666,0.133234897
057,67,1,2,5,11,107,983.6835621347127,994.8338774670847,stimuli/303_zb.png,a,11.136827851529233,awful,0.25,3.620689655,2.158846233,0.283470398
057,67,1,2,5,12,108,995.3830873797415,1002.4577887050109,stimuli/203_yb.png,l,7.0607900648901705,ambig,0.25,6,1.542501327,0.200816568
057,67,1,2,5,13,109,1002.9995361202164,1009.0658154291159,stimuli/274_xb.png,l,6.0521746048762,harmless,0.25,6.491525424,1.179901828,0.153610134
057,67,1,2,5,14,110,1009.6167079485604,1022.0976922462578,stimuli/330_ya.png,l,12.46737042083987,ambig,0.25,4.796610169,2.049219036,0.266785595
057,67,1,2,5,15,111,1022.6498753523629,1027.105774854048,stimuli/184_xb.png,l,4.442161153623601,harmless,0.25,6.508474576,1.194425,0.15550089
057,67,1,2,5,16,112,1027.6494390615553,1038.5698573746195,stimuli/152_xa.png,l,10.906274150387617,harmless,0.25,6.576271186,0.968528743,0.126091702
057,67,1,2,5,17,113,1039.1164620537602,1045.8978101089306,stimuli/221_xb.png,l,6.76759077978204,harmless,0.25,6.440677966,1.133672495,0.147591588
057,67,1,2,5,18,114,1046.4503858767566,1053.6658375002735,stimuli/217_yb.png,l,7.202279170276597,ambig,0.25,5.169491525,2.001314588,0.260548967
057,67,1,2,5,19,115,1054.2163136186718,1067.4816961574543,stimuli/140_xb.png,l,13.251523569168057,harmless,0.25,6.724137931,0.790138861,0.103750315
057,67,1,2,5,20,116,1068.0331042058242,1075.0417921671178,stimuli/144_xa.png,l,6.994928440311924,harmless,0.25,6.542372881,1.00553698,0.130909764
057,67,1,2,5,21,117,1075.5834346800402,1082.9857804488565,stimuli/229_za.png,l,7.3889952704194,awful,0.25,3.406779661,2.043649913,0.266060557
057,67,1,2,5,22,118,1083.532948135602,1091.41776576126,stimuli/287_ya.png,l,7.871002926694928,ambig,0.25,5.950819672,1.407435369,0.180203633
057,67,1,2,5,23,119,1091.9659667514206,1097.5617571226903,stimuli/156_xc.png,l,5.581690158462152,harmless,0.25,6.590163934,0.955284411,0.122311635
057,67,1,2,5,24,120,1098.1162971615267,1105.7699589405383,stimuli/314_zb.png,l,7.639920543733751,awful,0.25,1.833333333,1.451669602,0.18740974
057,67,1,2,6,1,121,1119.4003641745076,1127.049740358867,stimuli/175_xb.png,l,7.6364241221453995,harmless,0.166,6.6,1.028409995,0.13276716
057,67,1,2,6,2,122,1127.5998700110067,1138.913730873377,stimuli/234_xb.png,l,11.300433371507097,harmless,0.166,6.637931034,0.788030542,0.103473479
057,67,1,2,6,3,123,1139.4659245659714,1144.3057346254936,stimuli/183_xb.png,l,4.825807049754076,harmless,0.166,6.448275862,1.095003225,0.143780967
057,67,1,2,6,4,124,1144.8487626825226,1157.0658070882491,stimuli/209_ya.png,l,12.202565004932694,ambig,0.166,5.603448276,1.825161903,0.239655499
057,67,1,2,6,5,125,1157.6164596477465,1172.8978181289858,stimuli/276_ya.png,l,15.267926819942659,ambig,0.166,5.186440678,1.804922162,0.234980851
057,67,1,2,6,6,126,1173.4493179267156,1179.7457229867869,stimuli/216_xa.png,l,6.282557960104896,harmless,0.166,6.603448276,0.877389573,0.115206895
057,67,1,2,6,7,127,1180.300086584466,1190.8817581364128,stimuli/373_zb.png,l,10.568624532286776,awful,0.166,2.327586207,1.858011869,0.243968911
057,67,1,2,6,8,128,1191.432525222248,1198.0177689051197,stimuli/226_yb.png,l,6.571327610465232,ambig,0.166,5.683333333,1.712285287,0.22105508
057,67,1,2,6,9,129,1198.5657154992514,1203.3697333525342,stimuli/164_xb.png,l,4.789982442511246,harmless,0.166,6.830508475,0.460604639,0.059965616
057,67,1,2,6,10,130,1203.9162761168845,1212.737824198557,stimuli/354_zb.png,l,8.808097172237467,awful,0.166,2,1.701925887,0.221571878
057,67,1,2,6,11,131,1213.281924055249,1220.6818227459444,stimuli/236_yb.png,l,7.385471901419805,ambig,0.166,5.93442623,1.49297078,0.19115532
057,67,1,2,6,12,132,1221.231986403116,1225.5377656201017,stimuli/150_xc.png,l,4.291404076822801,harmless,0.166,6.482758621,1.030097582,0.135258439
057,67,1,2,6,13,133,1226.0819921935908,1233.321857174422,stimuli/223_yb.png,l,7.225541168998461,ambig,0.166,5.542372881,1.77455224,0.231027024
057,67,1,2,6,14,134,1233.8652108455426,1242.265789957426,stimuli/139_xa.png,l,8.386144302552566,harmless,0.166,6.724137931,0.790138861,0.103750315
057,67,1,2,6,15,135,1242.816122998076,1253.4658061900118,stimuli/182_xb.png,l,10.63619346547057,harmless,0.166,6.542372881,0.988241802,0.128658124
057,67,1,2,6,16,136,1254.0186328250566,1258.9297058533994,stimuli/122_xa.png,l,4.900128545385087,harmless,0.166,6.457627119,1.039264227,0.135300678
057,67,1,2,6,17,137,1259.4828574609128,1275.185791227792,stimuli/285_yb.png,l,15.689548301073955,ambig,0.166,4.120689655,2.119893958,0.278355714
057,67,1,2,6,18,138,1275.732777661411,1286.3777434590738,stimuli/118_xb.png,l,10.631549855665071,harmless,0.166,6.474576271,0.953323265,0.124112118
057,67,1,2,6,19,139,1286.9317663649854,1295.9057733783848,stimuli/199_za.png,l,8.959628665208584,awful,0.166,3.033898305,2.189048775,0.284989876
057,67,1,2,6,20,140,1296.448835761228,1303.977722542797,stimuli/275_yb.png,l,7.5149402329698205,ambig,0.166,4.836065574,2.138382004,0.27379176
057,67,1,2,6,21,141,1304.5322532783612,1312.5778463082388,stimuli/264_xa.png,l,8.031736947450554,harmless,0.166,6.533333333,0.947193297,0.122282129
057,67,1,2,6,22,142,1313.1316475399071,1324.0818616271717,stimuli/167_xb.png,l,10.935794997232733,harmless,0.166,6.590163934,0.955284411,0.122311635
057,67,1,2,6,23,143,1324.6327268784225,1335.0257645755482,stimuli/362_zb.png,a,10.37972312857164,awful,0.166,1.474576271,1.222715071,0.159183944
057,67,1,2,6,24,144,1335.5662615043693,1343.1538508918602,stimuli/286_ya.png,l,7.574524082156131,ambig,0.166,5.06779661,1.779814082,0.231712057
057,67,1,2,7,1,145,1356.5152276716253,1362.9937928010186,stimuli/124_xa.png,l,6.464510470512323,harmless,0.083,6.344262295,1.181598436,0.151288177
057,67,1,2,7,2,146,1363.5490190354467,1369.7378264441504,stimuli/166_xa.png,l,6.175239727337612,harmless,0.083,6.593220339,1.052397002,0.13701042
057,67,1,2,7,3,147,1370.2823638748669,1377.929839948658,stimuli/235_ya.png,l,7.633936622994952,ambig,0.083,5.694915254,1.567495667,0.204070554
057,67,1,2,7,4,148,1378.478151294752,1385.3378671218525,stimuli/146_xa.png,l,6.841984135040548,harmless,0.083,6.442622951,1.162247681,0.148810567
057,67,1,2,7,5,149,1385.881819088827,1398.2817768070963,stimuli/214_xb.png,l,12.385905305010965,harmless,0.083,6.465517241,0.940614156,0.12350869
057,67,1,2,7,6,150,1398.8318105394428,1408.9138915952062,stimuli/134_xc.png,l,10.068061685102293,harmless,0.083,6.516666667,0.965360505,0.124627505
057,67,1,2,7,7,151,1409.4653018891695,1421.8977639134391,stimuli/335_yb.png,l,12.418653741362505,ambig,0.083,5.016949153,2.046793332,0.266469795
057,67,1,2,7,8,152,1422.4489371346717,1429.1778285999608,stimuli/281_ya.png,l,6.7154004556068685,ambig,0.083,5.881355932,1.543448286,0.200939852
057,67,1,2,7,9,153,1429.7315018316149,1438.385784041835,stimuli/305_zb.png,l,8.640039561316371,awful,0.083,2.75,2.12830003,0.274762352
057,67,1,2,7,10,154,1438.9319825855782,1444.63378199641,stimuli/249_ya.png,l,5.688077102851821,ambig,0.083,5.327868852,1.859402337,0.238072074
057,67,1,2,7,11,155,1445.181615989044,1453.1537671624974,stimuli/159_xa.png,l,7.958036524592899,harmless,0.083,6.389830508,1.174689235,0.152931512
057,67,1,2,7,12,156,1453.698765585781,1465.4577941586322,stimuli/288_yb.png,l,11.745482385216746,ambig,0.083,5.189655172,1.914459262,0.251380817
057,67,1,2,7,13,157,1465.9985705060244,1472.2337822530535,stimuli/228_ya.png,l,6.221480135776801,ambig,0.083,5.442622951,1.793735303,0.229664272
057,67,1,2,7,14,158,1472.7817901203816,1485.3617951056513,stimuli/367_zb.png,a,12.566163659736048,awful,0.083,3.413793103,2.086165649,0.27392697
057,67,1,2,7,15,159,1485.9155174200423,1501.7058761633525,stimuli/245_yb.png,l,15.776967503072228,ambig,0.083,4.949152542,2.096168334,0.272897873
057,67,1,2,7,16,160,1502.2481089520734,1510.2339266139606,stimuli/174_xc.png,l,7.971747925301315,harmless,0.083,6.533333333,1.111826512,0.143536185
057,67,1,2,7,17,161,1510.7813108421105,1520.8817940662557,stimuli/127_xb.png,l,10.086282921110978,harmless,0.083,6.423728814,1.162686987,0.151368953
057,67,1,2,7,18,162,1521.4315076381317,1530.2258180211938,stimuli/246_ya.png,l,8.780353247973835,ambig,0.083,5.542372881,1.715266481,0.223308675
057,67,1,2,7,19,163,1530.781294802,1540.6017983521742,stimuli/153_xb.png,l,9.806355537875788,harmless,0.083,6.633333333,0.973664521,0.125699549
057,67,1,2,7,20,164,1541.1479006553127,1546.9138803671522,stimuli/148_xc.png,l,5.751797694538254,harmless,0.083,6.491525424,1.135218061,0.147792803
057,67,1,2,7,21,165,1547.4642275230726,1554.0018491030496,stimuli/185_xa.png,l,6.523119402205339,harmless,0.083,6.5,0.965506805,0.124646393
057,67,1,2,7,22,166,1554.5485333411198,1572.8658001589356,stimuli/172_xb.png,l,18.303760409646202,harmless,0.083,6.482758621,1.127664553,0.14806961
057,67,1,2,7,23,167,1573.4150575502717,1579.7937961373536,stimuli/108_xb.png,l,6.3651699432812165,harmless,0.083,6.568965517,1.077880782,0.141532681
057,67,1,2,7,24,168,1580.3478007575322,1586.2897859512595,stimuli/111_xa.png,l,5.927834614994936,harmless,0.083,6.590163934,0.863655973,0.110579816
057,67,1,2,8,1,169,1601.6310413844185,1607.201909606316,stimuli/115_xb.png,l,5.5566541243752,harmless,0.0412,6.440677966,1.021681954,0.133011661
057,67,1,2,8,2,170,1607.7509055440023,1616.209770539921,stimuli/155_xb.png,l,8.44787784627988,harmless,0.0412,6.655737705,0.892286312,0.114245555
057,67,1,2,8,3,171,1616.7652678520826,1622.8819740361942,stimuli/121_xc.png,l,6.103448397538159,harmless,0.0412,6.508474576,1.006408455,0.131023221
057,67,1,2,8,4,172,1623.4278585147404,1630.3779737949662,stimuli/230_yb.png,l,6.9328076884849,ambig,0.0412,4.98245614,1.875511626,0.248417583
057,67,1,2,8,5,173,1630.9310362195247,1641.6738174514321,stimuli/107_xa.png,l,10.728671395074343,harmless,0.0412,6.813559322,0.540580029,0.070377525
057,67,1,2,8,6,174,1642.2144603451889,1654.64186107539,stimuli/163_xa.png,l,12.413437179086031,harmless,0.0412,6.627118644,0.963082427,0.125382652
057,67,1,2,8,7,175,1655.1973702572286,1662.2178865111491,stimuli/161_xc.png,l,7.006142717786133,harmless,0.0412,6.796610169,0.609682252,0.079373868
057,67,1,2,8,8,176,1662.764682067529,1669.1618542615615,stimuli/232_yb.png,l,6.383465284568956,ambig,0.0412,5.483333333,1.845669845,0.238274952
057,67,1,2,8,9,177,1669.7167635435471,1676.881885494833,stimuli/250_yb.png,l,7.153519824118121,ambig,0.0412,5.950819672,1.585625318,0.203018519
057,67,1,2,8,10,178,1677.4311913273123,1688.8658271062886,stimuli/284_ya.png,l,11.420816588797607,ambig,0.0412,5.948275862,1.431750417,0.18799804
057,67,1,2,8,11,179,1689.4144903722627,1697.1778115974448,stimuli/154_xc.png,l,7.749479899677681,harmless,0.0412,6.5,0.965506805,0.124646393
057,67,1,2,8,12,180,1697.7304990043922,1704.633934698184,stimuli/130_xc.png,l,6.888985165162012,harmless,0.0412,6.644067797,0.960651931,0.125066229
057,67,1,2,8,13,181,1705.1773871763144,1713.8979169359955,stimuli/187_xc.png,l,8.703001456102356,harmless,0.0412,6.224137931,1.185335891,0.155642228
057,67,1,2,8,14,182,1714.4476577760652,1721.9699219199829,stimuli/125_xc.png,l,7.508366357214982,harmless,0.0412,6.683333333,0.999858747,0.129081209
057,67,1,2,8,15,183,1722.5144776364032,1729.6338204926578,stimuli/315_yb.png,l,7.105620548274601,ambig,0.0412,5.050847458,1.915667965,0.249398726
057,67,1,2,8,16,184,1730.180907337286,1736.7778917338,stimuli/132_xc.png,l,6.583049075969029,harmless,0.0412,6.627118644,0.692280217,0.090127208
057,67,1,2,8,17,185,1737.3307292761165,1746.3218279814464,stimuli/251_ya.png,l,8.977009720634669,ambig,0.0412,5.655172414,1.792300532,0.235340589
057,67,1,2,8,18,186,1746.8644511862658,1756.3779247122584,stimuli/104_xc.png,l,9.49978105261107,harmless,0.0412,6.745762712,0.756425814,0.098478253
057,67,1,2,8,19,187,1756.9305771517684,1760.5937738095236,stimuli/179_xb.png,l,3.649007261992665,harmless,0.0412,6.704918033,0.882123617,0.112944356
057,67,1,2,8,20,188,1761.1470450762135,1783.433926164842,stimuli/267_ya.png,l,22.272504344466142,ambig,0.0412,5.103448276,1.898195405,0.249245267
057,67,1,2,8,21,189,1783.9810999468318,1790.6098212907964,stimuli/101_xa.png,l,6.615128319215728,harmless,0.0412,6.508522727,1.13475832,0.060482822
057,67,1,2,8,22,190,1791.1639859912102,1801.225824758032,stimuli/244_xb.png,l,10.047822604159592,harmless,0.0412,6.610169492,0.743174671,0.096753101
057,67,1,2,8,23,191,1801.7805017793435,1807.9379729223729,stimuli/254_ya.png,l,6.143346870114328,ambig,0.0412,5.983606557,1.627798137,0.208418195
057,67,1,2,8,24,192,1808.480337560759,1819.4099539103627,stimuli/301_za.png,l,10.915348998940317,awful,0.0412,3.610169492,2.212947396,0.288101212
057,67,1,2,9,1,193,1847.580220243457,1854.0019447020604,stimuli/112_xc.png,l,6.407444275886519,harmless,0.0412,6.706896552,0.749470472,0.098410294
057,67,1,2,9,2,194,1854.547906814696,1861.9538968948764,stimuli/188_xa.png,l,7.392754428932676,harmless,0.0412,6.655172414,0.806807095,0.105938962
057,67,1,2,9,3,195,1862.4970057939936,1873.7938699218212,stimuli/151_xa.png,l,11.28275685737026,harmless,0.0412,6.610169492,0.947172729,0.123311386
057,67,1,2,9,4,196,1874.3478684467846,1884.9219401979935,stimuli/253_ya.png,l,10.560880370641826,ambig,0.0412,5.491803279,1.849531029,0.236808182
057,67,1,2,9,5,197,1885.46409984387,1893.1618141612853,stimuli/142_xa.png,l,7.684078626014525,harmless,0.0412,6.4,1.076718178,0.139003719
057,67,1,2,9,6,198,1893.713783292449,1902.7779215683986,stimuli/201_yb.png,l,9.050246263708686,ambig,0.0412,5.898305085,1.626238682,0.211718243
057,67,1,2,9,7,199,1903.3299227797252,1915.7058408751327,stimuli/263_ya.png,l,12.361491626914358,ambig,0.0412,4.983050847,2.071910042,0.269739712
057,67,1,2,9,8,200,1916.2473457639862,1924.7698495470395,stimuli/336_ya.png,l,8.508890868601156,ambig,0.0412,5.033898305,1.884291705,0.245313885
057,67,1,2,9,9,201,1925.3141778148129,1943.2978958272433,stimuli/181_xa.png,l,17.970325488975504,harmless,0.0412,6.666666667,0.950765377,0.122743282
057,67,1,2,9,10,202,1943.846699925285,1949.1378422276175,stimuli/106_xc.png,l,5.276973117113812,harmless,0.0412,6.661016949,0.863237081,0.112383896
057,67,1,2,9,11,203,1949.6799511867575,1957.9538580778171,stimuli/227_xa.png,l,8.259675791021436,harmless,0.0412,6.180327869,1.05685377,0.135316259
057,67,1,2,9,12,204,1958.4971206411428,1965.4819146236696,stimuli/296_yb.png,l,6.971082581818337,ambig,0.0412,4.229508197,2.052587332,0.262806878
057,67,1,2,9,13,205,1966.0302849973377,1972.3299401030526,stimuli/194_xb.png,l,6.285812176181935,harmless,0.0412,6.586206897,1.026567825,0.134794959
057,67,1,2,9,14,206,1972.880353344226,1977.9379177444207,stimuli/180_xc.png,l,5.043813861644594,harmless,0.0412,6.672131148,0.723908638,0.092687003
057,67,1,2,9,15,207,1978.4760959159757,1988.6739476970688,stimuli/259_xc.png,l,10.179821743135108,harmless,0.0412,6.568965517,0.993170874,0.130409725
057,67,1,2,9,16,208,1989.2302184629953,1994.7699489956722,stimuli/109_xb.png,l,5.525900114414981,harmless,0.0412,6.644067797,0.97843492,0.127381377
057,67,1,2,9,17,209,1995.3136080703407,2001.4979050021793,stimuli/220_yb.png,l,6.170519766717916,ambig,0.0412,4.75,2.096203186,0.270618668
057,67,1,2,9,18,210,2002.0470424135565,2008.9698731580866,stimuli/196_xb.png,l,6.909180617018137,harmless,0.0412,6.594366197,0.982313556,0.05213579
057,67,1,2,9,19,211,2009.512856944406,2015.2019538769964,stimuli/215_yb.png,l,5.674632609443506,ambig,0.0412,5.866666667,1.466769385,0.189359113
057,67,1,2,9,20,212,2015.7467755383404,2022.6178689311782,stimuli/204_xb.png,l,6.8572254407336,harmless,0.0412,6.508474576,0.858484658,0.111765183
057,67,1,2,9,21,213,2023.1632179910957,2030.905900095182,stimuli/197_xa.png,l,7.7286110842833295,harmless,0.0412,6.779661017,0.55918033,0.072799078
057,67,1,2,9,22,214,2031.4469471995253,2039.3299843737332,stimuli/311_za.png,l,7.86939314196934,awful,0.0412,3.116666667,1.975199339,0.254997138
057,67,1,2,9,23,215,2039.8803161311662,2045.8258917414933,stimuli/262_ya.png,l,5.931990926415892,ambig,0.0412,5.491525424,1.7750462,0.231091332
057,67,1,2,9,24,216,2046.3795912789355,2058.450018237607,stimuli/165_xb.png,l,12.056102184433257,harmless,0.0412,6.557377049,1.008705278,0.129151477
057,67,1,2,10,1,217,2074.313806326012,2091.11390044936,stimuli/255_xb.png,l,16.786751324194483,harmless,0.0412,6.770491803,0.642740036,0.082294429
057,67,1,2,10,2,218,2091.6634112743195,2098.505972853076,stimuli/283_yb.png,l,6.828890278295148,ambig,0.0412,5.949152542,1.478859402,0.192531095
057,67,1,2,10,3,219,2099.0468188145314,2106.401948936662,stimuli/135_xa.png,l,7.341557307925541,harmless,0.0412,6.508474576,1.179901828,0.153610134
057,67,1,2,10,4,220,2106.94586593617,2116.2819734587683,stimuli/316_za.png,l,9.32160694882623,awful,0.0412,2.344827586,1.802062407,0.236622386
057,67,1,2,10,5,221,2116.8302453462093,2123.673879687034,stimuli/219_ya.png,l,6.830206208338495,ambig,0.0412,5.271186441,1.998538332,0.260187529
057,67,1,2,10,6,222,2124.212807252188,2128.96987540368,stimuli/195_xc.png,l,4.742845713131828,harmless,0.0412,6.637640449,1.001766915,0.05309354
057,67,1,2,10,7,223,2129.5135514808644,2138.8019092213653,stimuli/272_xb.png,l,9.274935703258961,harmless,0.0412,6.355932203,1.029943284,0.134087194
057,67,1,2,10,8,224,2139.345909308613,2151.313905774674,stimuli/177_xb.png,l,11.953631591575686,harmless,0.0412,6.482758621,1.063614811,0.139659467
057,67,1,2,10,9,225,2151.8626999278495,2157.4979813530517,stimuli/225_ya.png,l,5.621085934195435,ambig,0.0412,5.85,1.792876677,0.231459384
057,67,1,2,10,10,226,2158.046949701762,2168.8819111589983,stimuli/289_yb.png,l,10.821693084173603,ambig,0.0412,5.305084746,1.714584873,0.223219937
057,67,1,2,10,11,227,2169.4303543547576,2183.193993173976,stimuli/309_ya.png,l,13.750463799573481,ambig,0.0412,4.706896552,1.946734744,0.255618795
057,67,1,2,10,12,228,2183.7457483301405,2190.321932562918,stimuli/206_xa.png,l,6.56178374926094,harmless,0.0412,6.325842697,1.136094431,0.060212884
057,67,1,2,10,13,229,2190.8630781534885,2199.641987150593,stimuli/120_xa.png,l,8.765198879642412,harmless,0.0412,6.440677966,1.054893138,0.137335389
057,67,1,2,10,14,230,2200.1966542270384,2211.081885366526,stimuli/133_xa.png,l,10.8717738140258,harmless,0.0412,6.568965517,1.186356193,0.1557762
057,67,1,2,10,15,231,2211.6301485923177,2223.0901309417677,stimuli/280_xb.png,l,11.446711409982527,harmless,0.0412,6.333333333,1.068289726,0.137915611
057,67,1,2,10,16,232,2223.645772294054,2230.3619911157,stimuli/224_yb.png,l,6.701960453443462,ambig,0.0412,5.881355932,1.609077116,0.209483997
057,67,1,2,10,17,233,2230.912940096314,2239.1139633265557,stimuli/168_xa.png,l,8.187241894687759,harmless,0.0412,6.474576271,1.164946827,0.151663159
057,67,1,2,10,18,234,2239.662975625135,2248.3619664139405,stimuli/218_yb.png,l,8.685310185101116,ambig,0.0412,5.850282486,1.552723069,0.0825263
057,67,1,2,10,19,235,2248.9125689283246,2254.569915439788,stimuli/102_xc.png,l,5.6432623387663625,harmless,0.0412,6.66011236,0.937292468,0.049676401
057,67,1,2,10,20,236,2255.112291947851,2263.9939060441393,stimuli/169_xc.png,l,8.867295417323476,harmless,0.0412,6.603448276,0.916508538,0.120343467
057,67,1,2,10,21,237,2264.5465828646265,2269.409983744961,stimuli/110_xa.png,l,4.85005615639966,harmless,0.0412,6.428571429,1.059281795,0.141552484
057,67,1,2,10,22,238,2269.962548926327,2280.9859286593855,stimuli/241_yb.png,l,11.00936004158575,ambig,0.0412,5.508474576,1.442852555,0.187843403
057,67,1,2,10,23,239,2281.5290856788633,2288.569911590166,stimuli/149_xa.png,l,7.02672954814625,harmless,0.0412,6.721311475,0.933294301,0.11949609
057,67,1,2,10,24,240,2289.112140529265,2308.578022107744,stimuli/145_xa.png,l,19.45148430299014,harmless,0.0412,6.661016949,0.822321556,0.107057148
