id,age,condition,counterbalance,block,trialinblock,trial,tstart,tend,trialstim,response,RT,trialtype,ethicfreq,norm_mean,norm_sd,norm_se
128,22,1,1,0,0,practice,3.938446752727032e-06,7.463739787577651,stimuli/prac_217_1.png,l,7.449235623818822,harmless,NA,NA,NA,NA
128,22,1,1,1,1,1,4.494320348021574,10.223862021695822,stimuli/158_xa.png,l,5.717755834455602,harmless,0.333,6.786885246,0.661179605,0.084655374
128,22,1,1,1,2,2,10.776191541459411,17.175798246986233,stimuli/320_za.png,a,6.38759401103016,awful,0.333,1.423728814,1.117314975,0.14546202
128,22,1,1,1,3,3,17.72898792626802,24.039860357996076,stimuli/145_xa.png,l,6.298947564908303,harmless,0.333,6.661016949,0.822321556,0.107057148
128,22,1,1,1,4,4,24.58823842171114,30.623798770015128,stimuli/257_yb.png,l,6.023721733712591,ambig,0.333,5.620689655,1.843219782,0.242026615
128,22,1,1,1,5,5,31.182846513576806,34.54383583879098,stimuli/293_zb.png,a,3.349032950703986,awful,0.333,3.677966102,2.169066842,0.28238845
128,22,1,1,1,6,6,35.10464210435748,40.391824310063384,stimuli/319_ya.png,a,5.275152181973681,ambig,0.333,4.216666667,2.108028774,0.272145344
128,22,1,1,1,7,7,40.94869644881692,47.82378742727451,stimuli/324_za.png,a,6.863131453166716,awful,0.333,2.491525424,1.994586478,0.259673041
128,22,1,1,1,8,8,48.385258110938594,55.343849150813185,stimuli/191_ya.png,l,6.947174234315753,ambig,0.333,5.517241379,2.062542966,0.270825159
128,22,1,1,1,9,9,55.90292485745158,62.12775770924054,stimuli/373_zb.png,a,6.213136021862738,awful,0.333,2.327586207,1.858011869,0.243968911
128,22,1,1,1,10,10,62.68226047081407,70.72774573625065,stimuli/220_yb.png,l,8.033516287920065,ambig,0.333,4.75,2.096203186,0.270618668
128,22,1,1,1,11,11,71.27662713511381,77.79175239382312,stimuli/249_ya.png,l,6.503143678070046,ambig,0.333,5.327868852,1.859402337,0.238072074
128,22,1,1,1,12,12,78.35472875053529,84.8797990125604,stimuli/172_xb.png,l,6.51311191834975,harmless,0.333,6.482758621,1.127664553,0.14806961
128,22,1,1,1,13,13,85.43246684607584,92.12770887231454,stimuli/271_ya.png,a,6.683295104070567,ambig,0.333,5.711864407,1.771915459,0.230683744
128,22,1,1,1,14,14,92.68507331842557,99.43174650194123,stimuli/277_yb.png,a,6.734838901320472,ambig,0.333,5.491525424,2.02886822,0.264136144
128,22,1,1,1,15,15,99.99783345358446,104.51169683004264,stimuli/120_xa.png,l,4.502023580367677,harmless,0.333,6.440677966,1.054893138,0.137335389
128,22,1,1,1,16,16,105.07562393078115,108.93583737954032,stimuli/123_xc.png,l,3.8482373820152134,harmless,0.333,6.491525424,1.023396666,0.133234897
128,22,1,1,1,17,17,109.49782203207724,119.64772451587487,stimuli/336_ya.png,l,10.137953198514879,ambig,0.333,5.033898305,1.884291705,0.245313885
128,22,1,1,1,18,18,120.20045930321794,123.51973522535991,stimuli/331_za.png,a,3.307363658444956,awful,0.333,1.983606557,1.638004917,0.209725039
128,22,1,1,1,19,19,124.07495084812399,127.91168280912098,stimuli/117_xc.png,l,3.824717691168189,harmless,0.333,6.627118644,0.868972939,0.113130641
128,22,1,1,1,20,20,128.46544120204635,135.54368302656803,stimuli/294_za.png,a,7.066255911602639,awful,0.333,1.557377049,1.38473331,0.177296933
128,22,1,1,1,21,21,136.10590516822413,151.7596748251235,stimuli/138_xc.png,a,15.64175026700832,harmless,0.333,6.661016949,0.70978796,0.092406522
128,22,1,1,1,22,22,152.31325047346763,157.82368778425734,stimuli/137_xa.png,a,5.4987621422624215,harmless,0.333,6.355932203,1.094858074,0.14253838
128,22,1,1,1,23,23,158.37258848152123,164.34374005545396,stimuli/365_zb.png,a,5.959204651764594,awful,0.333,2.966101695,2.165291266,0.281896912
128,22,1,1,1,24,24,164.90349042019807,170.88768144487403,stimuli/329_zb.png,a,5.972147216438316,awful,0.333,2.406779661,1.992387617,0.259386774
128,22,1,1,2,1,25,181.77320264477748,192.59167275822256,stimuli/210_yb.png,l,10.806650009588338,ambig,0.333,5.557377049,1.76564049,0.226067099
128,22,1,1,2,2,26,193.14030918490607,200.26363061356824,stimuli/279_ya.png,l,7.111295343493111,ambig,0.333,5.31147541,1.970964092,0.252356093
128,22,1,1,2,3,27,200.81184129277244,204.6236975515494,stimuli/201_yb.png,l,3.799969988875091,ambig,0.333,5.898305085,1.626238682,0.211718243
128,22,1,1,2,4,28,205.17172272934113,210.6397428343771,stimuli/157_xc.png,l,5.456099176662974,harmless,0.333,6.603448276,0.877389573,0.115206895
128,22,1,1,2,5,29,211.2032753014937,215.68767624604516,stimuli/256_zb.png,a,4.4724276347551495,awful,0.333,3.051724138,2.012438634,0.264246138
128,22,1,1,2,6,30,216.24873654230032,218.42371992208064,stimuli/318_za.png,a,2.163015977595933,awful,0.333,3.06557377,2.197489875,0.281359747
128,22,1,1,2,7,31,218.9835077021271,223.1356783445226,stimuli/134_xc.png,l,4.140208360273391,harmless,0.333,6.516666667,0.965360505,0.124627505
128,22,1,1,2,8,32,223.68596892408095,229.2716457719216,stimuli/128_xc.png,l,5.573851230205037,harmless,0.333,6.627118644,0.98082135,0.127692063
128,22,1,1,2,9,33,229.81995373102836,232.78376519854646,stimuli/366_za.png,a,2.951979154488072,awful,0.333,3.689655172,2.036568291,0.267414518
128,22,1,1,2,10,34,233.33113068446983,239.551651317277,stimuli/204_xb.png,a,6.208660356816836,harmless,0.333,6.508474576,0.858484658,0.111765183
128,22,1,1,2,11,35,240.1120219893055,245.1996566451853,stimuli/302_za.png,a,5.076056373538449,awful,0.333,3.137931034,2.188071937,0.287307921
128,22,1,1,2,12,36,245.75202633731533,252.22362532024272,stimuli/232_yb.png,a,6.459681993001141,ambig,0.333,5.483333333,1.845669845,0.238274952
128,22,1,1,2,13,37,252.78334181418177,258.47968070127536,stimuli/281_ya.png,l,5.684358487953432,ambig,0.333,5.881355932,1.543448286,0.200939852
128,22,1,1,2,14,38,259.0349317701766,264.0396268074401,stimuli/340_za.png,a,4.992967881145887,awful,0.333,2.508474576,1.832398855,0.238558011
128,22,1,1,2,15,39,264.597021579626,268.38367721333634,stimuli/108_xb.png,l,3.7744968223851174,harmless,0.333,6.568965517,1.077880782,0.141532681
128,22,1,1,2,16,40,268.94135279778857,281.78359860170167,stimuli/350_ya.png,a,12.830512346234173,ambig,0.333,4.915254237,2.02814792,0.264042369
128,22,1,1,2,17,41,282.33212672080845,284.97564299288206,stimuli/266_zb.png,a,2.631657571415417,awful,0.333,3.491525424,1.888010094,0.245797978
128,22,1,1,2,18,42,285.53626336320303,293.9996152125532,stimuli/227_xa.png,l,8.451449431711808,harmless,0.333,6.180327869,1.05685377,0.135316259
128,22,1,1,2,19,43,294.5520829723682,301.69564611220267,stimuli/237_ya.png,l,7.131787934456952,ambig,0.333,4.305084746,2.019339575,0.26289562
128,22,1,1,2,20,44,302.2540920592146,308.9676589483861,stimuli/337_zb.png,a,6.701604213216342,awful,0.333,3.033333333,2.20143764,0.284204377
128,22,1,1,2,21,45,309.5210534275975,313.1115674910834,stimuli/307_za.png,a,3.5785758058773354,awful,0.333,2.93220339,2.172432347,0.282826601
128,22,1,1,2,22,46,313.6613185016904,318.08757833600976,stimuli/159_xa.png,l,4.41431212448515,harmless,0.333,6.389830508,1.174689235,0.152931512
128,22,1,1,2,23,47,318.6474815129768,322.6315693500219,stimuli/285_yb.png,a,3.972129099536687,ambig,0.333,4.120689655,2.119893958,0.278355714
128,22,1,1,2,24,48,323.1931369197555,328.86358988983557,stimuli/193_xc.png,l,5.658411524840631,harmless,0.333,6.482758621,1.012923151,0.133003326
128,22,1,1,3,1,49,339.6657252436271,346.9036274785176,stimuli/328_za.png,a,7.226245183264837,awful,0.333,2.706896552,1.955725922,0.256799395
128,22,1,1,3,2,50,347.46305843419395,352.60759673651773,stimuli/314_zb.png,a,5.1324732264038175,awful,0.333,1.833333333,1.451669602,0.18740974
128,22,1,1,3,3,51,353.1655397422146,359.3915824886644,stimuli/233_yb.png,a,6.214046987355687,ambig,0.333,5.318309859,1.922973646,0.102060844
128,22,1,1,3,4,52,359.94751333561726,366.5595900694607,stimuli/188_xa.png,l,6.599908076343127,harmless,0.333,6.655172414,0.806807095,0.105938962
128,22,1,1,3,5,53,367.1200509321643,373.7115763919428,stimuli/217_yb.png,l,6.579803029773757,ambig,0.333,5.169491525,2.001314588,0.260548967
128,22,1,1,3,6,54,374.2591864562128,381.68760850455146,stimuli/370_za.png,a,7.416408960125409,awful,0.333,2.393442623,1.882185684,0.240989182
128,22,1,1,3,7,55,382.2388714896515,389.127562755486,stimuli/258_ya.png,a,6.876673845225014,ambig,0.333,5.627118644,1.78014243,0.231754804
128,22,1,1,3,8,56,389.676440609619,396.17559935478494,stimuli/367_zb.png,a,6.48712281382177,awful,0.333,3.413793103,2.086165649,0.27392697
128,22,1,1,3,9,57,396.72377773863263,401.951567191747,stimuli/205_yb.png,l,5.21571925713215,ambig,0.333,5.847457627,1.52918233,0.199082582
128,22,1,1,3,10,58,402.5042464467697,407.6877991260262,stimuli/240_xa.png,l,5.171572674065828,harmless,0.333,6.482758621,1.096107616,0.143925981
128,22,1,1,3,11,59,408.2391562402481,415.11157261102926,stimuli/309_ya.png,a,6.860601386986673,ambig,0.333,4.706896552,1.946734744,0.255618795
128,22,1,1,3,12,60,415.6610006679548,418.25557528296486,stimuli/129_xa.png,a,2.582561526680365,harmless,0.333,6.770491803,0.642740036,0.082294429
128,22,1,1,3,13,61,418.8175225201994,425.97557722066995,stimuli/110_xa.png,l,7.146014043013565,harmless,0.333,6.428571429,1.059281795,0.141552484
128,22,1,1,3,14,62,426.53637915395666,433.3115498467814,stimuli/228_ya.png,a,6.763284029089846,ambig,0.333,5.442622951,1.793735303,0.229664272
128,22,1,1,3,15,63,433.86366865900345,440.0074830725789,stimuli/189_yb.png,l,6.131663479143754,ambig,0.333,5.983333333,1.455459234,0.187898979
128,22,1,1,3,16,64,440.5662322809221,442.4315149205504,stimuli/292_zb.png,a,1.8533077543834224,awful,0.333,2.396551724,1.955107169,0.256718148
128,22,1,1,3,17,65,442.9889392311452,452.7835202263668,stimuli/212_ya.png,a,9.782554516103119,ambig,0.333,5.677966102,1.490668422,0.194068498
128,22,1,1,3,18,66,453.33300696639344,456.3514783401042,stimuli/106_xc.png,l,3.006435836199671,harmless,0.333,6.661016949,0.863237081,0.112383896
128,22,1,1,3,19,67,456.91047448990867,460.39151829178445,stimuli/322_za.png,a,3.4691130274441093,awful,0.333,2.406779661,1.975004531,0.257123689
128,22,1,1,3,20,68,460.9416308529908,466.4955274857348,stimuli/368_za.png,a,5.541841009049676,awful,0.333,3.590163934,2.02794682,0.259651984
128,22,1,1,3,21,69,467.0503035765141,474.1595359550556,stimuli/297_za.png,a,7.0972815179266036,awful,0.333,1.898305085,1.446695584,0.188343723
128,22,1,1,3,22,70,474.70777380955406,480.1674589534523,stimuli/176_xb.png,l,5.447607071022503,harmless,0.333,6.796610169,0.517942249,0.067430337
128,22,1,1,3,23,71,480.722756889998,484.5914522045059,stimuli/185_xa.png,l,3.856740909279324,harmless,0.333,6.5,0.965506805,0.124646393
128,22,1,1,3,24,72,485.18836862721946,493.7995320323389,stimuli/242_xb.png,l,8.599298009066842,harmless,0.333,6.576271186,0.913564256,0.118935936
128,22,1,1,4,1,73,502.9968126050662,508.2395016432274,stimuli/211_zb.png,a,5.230782682192512,awful,0.333,3.983333333,2.127237938,0.274625237
128,22,1,1,4,2,74,508.79238609189633,513.4794888983015,stimuli/341_zb.png,a,4.675079084234312,awful,0.333,3.603448276,2.15975677,0.283589957
128,22,1,1,4,3,75,514.032586417743,519.2554894244531,stimuli/236_yb.png,l,5.210571690928191,ambig,0.333,5.93442623,1.49297078,0.19115532
128,22,1,1,4,4,76,519.8084873008775,523.8314989303472,stimuli/170_xc.png,l,4.011015476542525,harmless,0.333,6.583333333,1.062323432,0.137145365
128,22,1,1,4,5,77,524.3801385078114,529.4634621262085,stimuli/313_zb.png,a,5.071279810159467,awful,0.333,2.101694915,1.688652955,0.219843889
128,22,1,1,4,6,78,530.0197497976478,536.8955000741407,stimuli/283_yb.png,a,6.863882123492658,ambig,0.333,5.949152542,1.478859402,0.192531095
128,22,1,1,4,7,79,537.4421066188952,543.0715133608319,stimuli/264_xa.png,l,5.617364115198143,harmless,0.333,6.533333333,0.947193297,0.122282129
128,22,1,1,4,8,80,543.6305181751959,550.2874547471292,stimuli/347_zb.png,a,6.6448360497597605,awful,0.333,3.796610169,2.147810923,0.279621165
128,22,1,1,4,9,81,550.8346689961618,555.0874861760531,stimuli/182_xb.png,l,4.2408450515940785,harmless,0.333,6.542372881,0.988241802,0.128658124
128,22,1,1,4,10,82,555.6480919740861,562.2954309147317,stimuli/268_zb.png,a,6.635225027799606,awful,0.333,2.655737705,2.048456703,0.262278005
128,22,1,1,4,11,83,562.8500762486365,567.1754303948255,stimuli/175_xb.png,l,4.313357993261889,harmless,0.333,6.6,1.028409995,0.13276716
128,22,1,1,4,12,84,567.7239876585081,572.9354703150457,stimuli/315_yb.png,a,5.199427820625715,ambig,0.333,5.050847458,1.915667965,0.249398726
128,22,1,1,4,13,85,573.4898828860605,579.0874645145377,stimuli/169_xc.png,l,5.585518915671855,harmless,0.333,6.603448276,0.916508538,0.120343467
128,22,1,1,4,14,86,579.6460321599152,586.5754683616105,stimuli/303_zb.png,l,6.9173971195705235,awful,0.333,3.620689655,2.158846233,0.283470398
128,22,1,1,4,15,87,587.1301491416525,590.0874680591514,stimuli/270_yb.png,a,2.945153017062694,ambig,0.333,5.534482759,1.912246013,0.251090203
128,22,1,1,4,16,88,590.646296824445,597.0794540822972,stimuli/371_zb.png,l,6.421101634274237,awful,0.333,3.131147541,2.085468851,0.267016925
128,22,1,1,4,17,89,597.6307481812546,604.7754838003311,stimuli/140_xb.png,l,7.132780426181853,harmless,0.333,6.724137931,0.790138861,0.103750315
128,22,1,1,4,18,90,605.3355204911204,610.5914163645357,stimuli/200_ya.png,l,5.24414469266776,ambig,0.333,5.862068966,1.444266048,0.189641423
128,22,1,1,4,19,91,611.1473995929118,619.0314131507184,stimuli/265_yb.png,a,7.871862623374909,ambig,0.333,5.627118644,1.856008928,0.241631781
128,22,1,1,4,20,92,619.5842306456761,631.0954532851465,stimuli/304_ya.png,l,11.499580947915092,ambig,0.333,4.034482759,2.017167697,0.264867095
128,22,1,1,4,21,93,631.6464791750768,634.8474071548553,stimuli/190_xc.png,l,3.1888861407060176,harmless,0.333,6.517241379,1.046990328,0.137476565
128,22,1,1,4,22,94,635.3971345346654,643.1034077912336,stimuli/226_yb.png,l,7.694338543573394,ambig,0.333,5.683333333,1.712285287,0.22105508
128,22,1,1,4,23,95,643.6628812822746,647.1353770523565,stimuli/306_zb.png,a,3.460557512473315,awful,0.333,2.352112676,1.917055413,0.101746737
128,22,1,1,4,24,96,647.6949297063984,652.2793828749564,stimuli/214_xb.png,l,4.572452683351003,harmless,0.333,6.465517241,0.940614156,0.12350869
128,22,1,1,5,1,97,660.7953769578598,666.7354123409605,stimuli/133_xa.png,l,5.928314134594984,harmless,0.25,6.568965517,1.186356193,0.1557762
128,22,1,1,5,2,98,667.2874610486906,669.2714071013033,stimuli/192_za.png,a,1.9719388720113784,awful,0.25,2.68852459,2.093967396,0.268105052
128,22,1,1,5,3,99,669.8189080700977,673.3594375723042,stimuli/356_za.png,a,3.5286771029932424,awful,0.25,3.033333333,2.178217796,0.281206708
128,22,1,1,5,4,100,673.9126623040065,679.3355031618848,stimuli/104_xc.png,l,5.4108817265369,harmless,0.25,6.745762712,0.756425814,0.098478253
128,22,1,1,5,5,101,679.8978477895726,685.2073736621533,stimuli/289_yb.png,a,5.2973532766336575,ambig,0.25,5.305084746,1.714584873,0.223219937
128,22,1,1,5,6,102,685.7559269872727,695.4313849513419,stimuli/261_yb.png,a,9.663445663405582,ambig,0.25,5.706896552,1.901141123,0.249632059
128,22,1,1,5,7,103,695.9809764543315,698.7033981814748,stimuli/195_xc.png,l,2.7102948173414916,harmless,0.25,6.637640449,1.001766915,0.05309354
128,22,1,1,5,8,104,699.2628311063163,703.2393882155884,stimuli/372_zb.png,a,3.9645038486924022,awful,0.25,2.796610169,2.082601664,0.271131643
128,22,1,1,5,9,105,703.7940808109706,714.0314013353782,stimuli/349_za.png,l,10.225253479322419,awful,0.25,3.288135593,2.101320172,0.273568585
128,22,1,1,5,10,106,714.5912832445465,718.1913772162516,stimuli/151_xa.png,l,3.588031258783303,harmless,0.25,6.610169492,0.947172729,0.123311386
128,22,1,1,5,11,107,718.7469504510518,721.4713874877198,stimuli/112_xc.png,l,2.7122813761234283,harmless,0.25,6.706896552,0.749470472,0.098410294
128,22,1,1,5,12,108,722.028124537319,734.0393920752686,stimuli/243_ya.png,l,11.999230425106362,ambig,0.25,5.830508475,1.652088985,0.215083666
128,22,1,1,5,13,109,734.5916373120854,740.4073717716383,stimuli/198_yb.png,a,5.803732005180791,ambig,0.25,5.101694915,1.83542643,0.238952168
128,22,1,1,5,14,110,740.9655388757819,742.9513316719094,stimuli/184_xb.png,l,1.9738600524142385,harmless,0.25,6.508474576,1.194425,0.15550089
128,22,1,1,5,15,111,743.4976121122018,750.1033829789376,stimuli/311_za.png,a,6.59365734772291,awful,0.25,3.116666667,1.975199339,0.254997138
128,22,1,1,5,16,112,750.653076881892,754.5033654134022,stimuli/274_xb.png,l,3.8385566491633654,harmless,0.25,6.491525424,1.179901828,0.153610134
128,22,1,1,5,17,113,755.0750386756845,760.895374043379,stimuli/300_za.png,a,5.807973331888206,awful,0.25,3.75,2.12032137,0.273732312
128,22,1,1,5,18,114,761.4510626750998,765.1993994638324,stimuli/230_yb.png,a,3.7364012880716473,ambig,0.25,4.98245614,1.875511626,0.248417583
128,22,1,1,5,19,115,765.739761975361,771.2794703088002,stimuli/234_xb.png,l,5.5277204513549805,harmless,0.25,6.637931034,0.788030542,0.103473479
128,22,1,1,5,20,116,771.8340396303684,780.7993339278037,stimuli/276_ya.png,a,8.953309172182344,ambig,0.25,5.186440678,1.804922162,0.234980851
128,22,1,1,5,21,117,781.3483779849485,785.6953014970059,stimuli/223_yb.png,l,4.334951383643784,ambig,0.25,5.542372881,1.77455224,0.231027024
128,22,1,1,5,22,118,786.2551786800614,791.0073275034083,stimuli/330_ya.png,a,4.740306270308793,ambig,0.25,4.796610169,2.049219036,0.266785595
128,22,1,1,5,23,119,791.5675185817527,796.6313464331906,stimuli/206_xa.png,a,5.051817126222886,harmless,0.25,6.325842697,1.136094431,0.060212884
128,22,1,1,5,24,120,797.2316188170807,802.9353281366639,stimuli/103_xb.png,l,5.691857708152384,harmless,0.25,6.779661017,0.589207434,0.076708274
128,22,1,1,6,1,121,814.1961049427046,818.2473781676963,stimuli/360_za.png,a,4.03959529963322,awful,0.166,3.2,2.207844259,0.285031468
128,22,1,1,6,2,122,818.8048650999554,821.5033086995827,stimuli/196_xb.png,l,2.6864667452173308,harmless,0.166,6.594366197,0.982313556,0.05213579
128,22,1,1,6,3,123,822.0539458636194,824.4473120804178,stimuli/202_yb.png,a,2.381461829994805,ambig,0.166,5.431034483,1.892849601,0.248543329
128,22,1,1,6,4,124,825.0083869489608,830.4393307928694,stimuli/181_xa.png,l,5.418931149528362,harmless,0.166,6.666666667,0.950765377,0.122743282
128,22,1,1,6,5,125,830.9795751505299,834.7433306132443,stimuli/130_xc.png,l,3.7518943989416584,harmless,0.166,6.644067797,0.960651931,0.125066229
128,22,1,1,6,6,126,835.3072707108222,841.0072928449372,stimuli/239_ya.png,a,5.688033858081326,ambig,0.166,5.157894737,1.925296579,0.255011762
128,22,1,1,6,7,127,841.5587996207178,846.5032732534455,stimuli/272_xb.png,l,4.9324751168023795,harmless,0.166,6.355932203,1.029943284,0.134087194
128,22,1,1,6,8,128,847.0574829938123,855.2073575144168,stimuli/310_zb.png,a,8.137984312255867,awful,0.166,3.224137931,2.102989547,0.276136056
128,22,1,1,6,9,129,855.761210036464,858.3593028769828,stimuli/126_xa.png,l,2.586110078380443,harmless,0.166,6.6,0.977717855,0.126222832
128,22,1,1,6,10,130,858.9174187810859,864.7192800182384,stimuli/342_yb.png,l,5.789913133368827,ambig,0.166,4.916666667,2.085394461,0.269223267
128,22,1,1,6,11,131,865.28030841297,869.4792777969269,stimuli/338_zb.png,a,4.187290670932271,awful,0.166,3.310344828,2.137443107,0.28066003
128,22,1,1,6,12,132,870.0297782962443,873.5912879707757,stimuli/216_xa.png,l,3.549916032119654,harmless,0.166,6.603448276,0.877389573,0.115206895
128,22,1,1,6,13,133,874.1394643853419,878.3353550757747,stimuli/312_yb.png,a,4.1838862667791545,ambig,0.166,4.677966102,2.112692986,0.275049199
128,22,1,1,6,14,134,878.8910452828277,882.4952951166779,stimuli/144_xa.png,l,3.592405311530456,harmless,0.166,6.542372881,1.00553698,0.130909764
128,22,1,1,6,15,135,883.0478735471843,887.1912964778021,stimuli/224_yb.png,a,4.131261756294407,ambig,0.166,5.881355932,1.609077116,0.209483997
128,22,1,1,6,16,136,887.7488464253256,889.7592809791677,stimuli/179_xb.png,l,1.998449822422117,harmless,0.166,6.704918033,0.882123617,0.112944356
128,22,1,1,6,17,137,890.3128129106481,895.0952894452494,stimuli/119_xc.png,l,4.770849415333942,harmless,0.166,6.694915254,0.914523379,0.119060803
128,22,1,1,6,18,138,895.656421815278,900.4792947323294,stimuli/167_xb.png,l,4.810863767168485,harmless,0.166,6.590163934,0.955284411,0.122311635
128,22,1,1,6,19,139,901.0321650025435,905.9912589836167,stimuli/165_xb.png,l,4.947069865069352,harmless,0.166,6.557377049,1.008705278,0.129151477
128,22,1,1,6,20,140,906.5473465813557,912.5032582873246,stimuli/218_yb.png,l,5.943856082390994,ambig,0.166,5.850282486,1.552723069,0.0825263
128,22,1,1,6,21,141,913.0499164259527,916.6152184427483,stimuli/180_xc.png,l,3.5534228361211717,harmless,0.166,6.672131148,0.723908638,0.092687003
128,22,1,1,6,22,142,917.174799847533,929.0632292057853,stimuli/222_ya.png,l,11.876496614539064,ambig,0.166,5.931034483,1.543089507,0.202617579
128,22,1,1,6,23,143,929.6125272936188,935.1752677365439,stimuli/275_yb.png,a,5.55083290534094,ambig,0.166,4.836065574,2.138382004,0.27379176
128,22,1,1,6,24,144,935.7219747119816,939.5031984227244,stimuli/317_za.png,a,3.7692720624618232,awful,0.166,3.65,2.03215674,0.262350307
128,22,1,1,7,1,145,951.7217770012794,955.6392469824059,stimuli/146_xa.png,l,3.90572313265875,harmless,0.083,6.442622951,1.162247681,0.148810567
128,22,1,1,7,2,146,956.1902642076602,961.1432137985248,stimuli/246_ya.png,l,4.940906570293009,ambig,0.083,5.542372881,1.715266481,0.223308675
128,22,1,1,7,3,147,961.6912184963003,964.71120696445,stimuli/173_yb.png,a,3.008133705938235,ambig,0.083,5.796610169,1.242628763,0.161776485
128,22,1,1,7,4,148,965.2695560253924,970.567224378814,stimuli/101_xa.png,l,5.285730883479118,harmless,0.083,6.508522727,1.13475832,0.060482822
128,22,1,1,7,5,149,971.1298391849268,974.5832743877545,stimuli/124_xa.png,a,3.4413630376802757,harmless,0.083,6.344262295,1.181598436,0.151288177
128,22,1,1,7,6,150,975.1447592498735,982.5352098253788,stimuli/278_xb.png,l,7.37863795470912,harmless,0.083,6.360655738,1.140654591,0.146045855
128,22,1,1,7,7,151,983.0830739202211,998.6792034388054,stimuli/339_ya.png,l,15.584268060978502,ambig,0.083,4.949152542,1.960152429,0.25519011
128,22,1,1,7,8,152,999.2393535571173,1002.9272546891589,stimuli/171_xa.png,l,3.6758998591685668,harmless,0.083,6.465517241,1.046556882,0.137419651
128,22,1,1,7,9,153,1003.4927256659139,1005.9672056317795,stimuli/194_xb.png,l,2.463103726506233,harmless,0.083,6.586206897,1.026567825,0.134794959
128,22,1,1,7,10,154,1006.5203409603564,1009.6632215651916,stimuli/291_za.png,a,3.130971491918899,awful,0.083,2.593220339,1.830005126,0.238246374
128,22,1,1,7,11,155,1010.2829007067485,1017.8232021721778,stimuli/255_xb.png,l,7.528403380187228,harmless,0.083,6.770491803,0.642740036,0.082294429
128,22,1,1,7,12,156,1018.3835799334338,1021.6551981361117,stimuli/131_xb.png,l,3.2596531636081636,harmless,0.083,6.525423729,1.119666394,0.145768149
128,22,1,1,7,13,157,1022.2113838013029,1025.8312378105475,stimuli/287_ya.png,l,3.6078011424979195,ambig,0.083,5.950819672,1.407435369,0.180203633
128,22,1,1,7,14,158,1026.384835908073,1031.1911755671026,stimuli/118_xb.png,l,4.794337992207147,harmless,0.083,6.474576271,0.953323265,0.124112118
128,22,1,1,7,15,159,1031.7417918571737,1037.5351873761974,stimuli/155_xb.png,l,5.781435206066817,harmless,0.083,6.655737705,0.892286312,0.114245555
128,22,1,1,7,16,160,1038.0806285308208,1041.8951605788898,stimuli/162_xa.png,l,3.8023555136751384,harmless,0.083,6.644067797,0.905209289,0.117848212
128,22,1,1,7,17,161,1042.5215595195768,1046.0471642306075,stimuli/122_xa.png,l,3.5132615797920153,harmless,0.083,6.457627119,1.039264227,0.135300678
128,22,1,1,7,18,162,1046.5970385150285,1051.8552108178847,stimuli/207_yb.png,a,5.246235226863064,ambig,0.083,5.655737705,1.662179753,0.212820309
128,22,1,1,7,19,163,1052.4069168796996,1054.5991983660497,stimuli/113_xb.png,l,2.180332988849841,harmless,0.083,6.733333333,0.660422737,0.085260209
128,22,1,1,7,20,164,1055.1581956973532,1059.7832019989146,stimuli/248_zb.png,a,4.613029447034933,awful,0.083,3.288135593,1.991800844,0.259310383
128,22,1,1,7,21,165,1060.331829367089,1068.0391301676864,stimuli/163_xa.png,l,7.695416106027551,harmless,0.083,6.627118644,0.963082427,0.125382652
128,22,1,1,7,22,166,1068.5956356358947,1074.8231761783827,stimuli/273_ya.png,a,6.215690112556331,ambig,0.083,5.551724138,1.836973233,0.241206403
128,22,1,1,7,23,167,1075.3649624428945,1082.52717733779,stimuli/263_ya.png,l,7.150221498915926,ambig,0.083,4.983050847,2.071910042,0.269739712
128,22,1,1,7,24,168,1083.0847481591627,1088.9111676586326,stimuli/253_ya.png,l,5.814779383246787,ambig,0.083,5.491803279,1.849531029,0.236808182
128,22,1,1,8,1,169,1103.5447330197785,1107.191206287127,stimuli/127_xb.png,l,3.634460179018788,harmless,0.0412,6.423728814,1.162686987,0.151368953
128,22,1,1,8,2,170,1107.7472474109381,1110.3511837433325,stimuli/282_xc.png,l,2.5913966721855104,harmless,0.0412,6.55,0.998728005,0.128935231
128,22,1,1,8,3,171,1110.9025865436997,1121.0231329341186,stimuli/284_ya.png,l,10.108677055803128,ambig,0.0412,5.948275862,1.431750417,0.18799804
128,22,1,1,8,4,172,1121.575410466292,1124.5591564450879,stimuli/168_xa.png,l,2.9718604965601116,harmless,0.0412,6.474576271,1.164946827,0.151663159
128,22,1,1,8,5,173,1125.1071816228796,1127.463157683378,stimuli/115_xb.png,l,2.34417564899195,harmless,0.0412,6.440677966,1.021681954,0.133011661
128,22,1,1,8,6,174,1128.0133021459915,1130.6551355145639,stimuli/197_xa.png,l,2.629836821812205,harmless,0.0412,6.779661017,0.55918033,0.072799078
128,22,1,1,8,7,175,1131.2164061245276,1133.5351271177642,stimuli/109_xb.png,l,2.306828421773389,harmless,0.0412,6.644067797,0.97843492,0.127381377
128,22,1,1,8,8,176,1134.0919181242352,1137.4631411418086,stimuli/325_yb.png,a,3.359167393995449,ambig,0.0412,5.131147541,1.811770863,0.231973488
128,22,1,1,8,9,177,1138.011920140707,1141.6871272248682,stimuli/186_xa.png,l,3.663361774291843,harmless,0.0412,6.65,0.879618561,0.113558268
128,22,1,1,8,10,178,1142.2465829928406,1145.5191251579672,stimuli/135_xa.png,l,3.26052631996572,harmless,0.0412,6.508474576,1.179901828,0.153610134
128,22,1,1,8,11,179,1146.0734833781607,1155.183123781113,stimuli/244_xb.png,a,9.097618650062941,harmless,0.0412,6.610169492,0.743174671,0.096753101
128,22,1,1,8,12,180,1155.7312671126565,1159.7511212794343,stimuli/286_ya.png,a,4.0080064937938005,ambig,0.0412,5.06779661,1.779814082,0.231712057
128,22,1,1,8,13,181,1160.3077657751273,1164.4071433410281,stimuli/139_xa.png,l,4.087399136042222,harmless,0.0412,6.724137931,0.790138861,0.103750315
128,22,1,1,8,14,182,1164.9647192824632,1169.8550903010182,stimuli/262_ya.png,l,4.878164551919326,ambig,0.0412,5.491525424,1.7750462,0.231091332
128,22,1,1,8,15,183,1170.4166964676697,1174.4391189037124,stimuli/160_xb.png,l,4.01043455384206,harmless,0.0412,6.666666667,0.680644427,0.087870818
128,22,1,1,8,16,184,1174.9964959528297,1181.863122394774,stimuli/105_xa.png,l,6.854713784297928,harmless,0.0412,6.557377049,1.088187946,0.139328189
128,22,1,1,8,17,185,1182.4165424739476,1194.2391022833763,stimuli/183_xb.png,l,11.810630610329099,harmless,0.0412,6.448275862,1.095003225,0.143780967
128,22,1,1,8,18,186,1194.7925798641518,1198.735098839621,stimuli/250_yb.png,l,3.930625222506933,ambig,0.0412,5.950819672,1.585625318,0.203018519
128,22,1,1,8,19,187,1199.292210436659,1203.7511039501987,stimuli/215_yb.png,l,4.44700291135814,ambig,0.0412,5.866666667,1.466769385,0.189359113
128,22,1,1,8,20,188,1204.3071041139774,1208.6870535756461,stimuli/323_yb.png,a,4.368034834857099,ambig,0.0412,4.603448276,1.955107169,0.256718148
128,22,1,1,8,21,189,1209.2441954988753,1215.2790768566774,stimuli/238_xb.png,a,6.022848971071653,harmless,0.0412,6.4,1.076718178,0.139003719
128,22,1,1,8,22,190,1215.8398212884786,1221.8870808298234,stimuli/251_ya.png,l,6.0356938620097935,ambig,0.0412,5.655172414,1.792300532,0.235340589
128,22,1,1,8,23,191,1222.4465393547434,1227.5590745251393,stimuli/114_xc.png,l,5.100537048303522,harmless,0.0412,6.644067797,0.97843492,0.127381377
128,22,1,1,8,24,192,1228.1204309934983,1231.759069877793,stimuli/359_za.png,a,3.6268991250544786,awful,0.0412,2.01754386,1.641985167,0.217486248
128,22,1,1,9,1,193,1240.4075986269163,1243.9510551920393,stimuli/247_ya.png,a,3.5316770274657756,ambig,0.0412,4.65,2.081598147,0.268733165
128,22,1,1,9,2,194,1244.5104380984558,1246.7990448449273,stimuli/260_ya.png,a,2.276484168949537,ambig,0.0412,4.966101695,2.016877936,0.262575142
128,22,1,1,9,3,195,1247.3552281471202,1249.5750382818514,stimuli/161_xc.png,l,2.20780610491056,harmless,0.0412,6.796610169,0.609682252,0.079373868
128,22,1,1,9,4,196,1250.1373923619976,1254.1830406795489,stimuli/166_xa.png,l,4.0336769769201055,harmless,0.0412,6.593220339,1.052397002,0.13701042
128,22,1,1,9,5,197,1254.731388023356,1258.30309909489,stimuli/102_xc.png,l,3.5595743156736717,harmless,0.0412,6.66011236,0.937292468,0.049676401
128,22,1,1,9,6,198,1258.8539989539422,1264.311089440831,stimuli/148_xc.png,l,5.445222727721557,harmless,0.0412,6.491525424,1.135218061,0.147792803
128,22,1,1,9,7,199,1264.8706574549433,1267.911045960267,stimuli/221_xb.png,l,3.0283742354949936,harmless,0.0412,6.440677966,1.133672495,0.147591588
128,22,1,1,9,8,200,1268.463939073612,1271.1591220229166,stimuli/254_ya.png,l,2.6831836455967277,ambig,0.0412,5.983606557,1.627798137,0.208418195
128,22,1,1,9,9,201,1271.714822076261,1278.175066875061,stimuli/280_xb.png,l,6.44811473833397,harmless,0.0412,6.333333333,1.068289726,0.137915611
128,22,1,1,9,10,202,1278.7307618083432,1283.6150963505497,stimuli/208_xb.png,l,4.872204087791033,harmless,0.0412,6.216666667,1.165778516,0.150501359
128,22,1,1,9,11,203,1284.1697980043245,1287.135038344888,stimuli/213_ya.png,l,2.953412753646262,ambig,0.0412,5.98245614,1.597891781,0.211645937
128,22,1,1,9,12,204,1287.6846164570889,1289.9350445676828,stimuli/116_xa.png,l,2.2384047822561115,harmless,0.0412,6.63559322,0.958030802,0.050918763
128,22,1,1,9,13,205,1290.4818622138118,1293.0870529455133,stimuli/174_xc.png,l,2.5932560187065974,harmless,0.0412,6.533333333,1.111826512,0.143536185
128,22,1,1,9,14,206,1293.6392111424357,1298.0951653838856,stimuli/177_xb.png,l,4.443918310105801,harmless,0.0412,6.482758621,1.063614811,0.139659467
128,22,1,1,9,15,207,1298.6727739041671,1303.7990708387224,stimuli/231_xb.png,l,5.114411058486439,harmless,0.0412,6.62295082,1.05141071,0.134619347
128,22,1,1,9,16,208,1304.358432871406,1309.4230641685426,stimuli/203_yb.png,a,5.052910048747435,ambig,0.0412,6,1.542501327,0.200816568
128,22,1,1,9,17,209,1309.9800064119045,1313.8871040667873,stimuli/209_ya.png,a,3.894959323690273,ambig,0.0412,5.603448276,1.825161903,0.239655499
128,22,1,1,9,18,210,1314.4346885309787,1318.7749993698671,stimuli/125_xc.png,l,4.3283359536435455,harmless,0.0412,6.683333333,0.999858747,0.129081209
128,22,1,1,9,19,211,1319.325352177024,1328.9830488716252,stimuli/259_xc.png,l,9.645727323135361,harmless,0.0412,6.568965517,0.993170874,0.130409725
128,22,1,1,9,20,212,1329.547002753825,1329.7510488117114,stimuli/219_ya.png,l,0.19206565886270255,ambig,0.0412,5.271186441,1.998538332,0.260187529
128,22,1,1,9,21,213,1330.3111504870467,1332.511032411945,stimuli/143_xb.png,l,2.1878176366444677,harmless,0.0412,6.655172414,0.738697862,0.096995781
128,22,1,1,9,22,214,1333.061913366546,1336.791015114286,stimuli/351_zb.png,a,3.717069361009635,awful,0.0412,3.06779661,2.033040926,0.264679384
128,22,1,1,9,23,215,1337.3450684976997,1340.9750163840363,stimuli/147_ya.png,a,3.6180360164726153,ambig,0.0412,5.883333333,1.766847875,0.22809908
128,22,1,1,9,24,216,1341.5297298532678,1353.7750056714285,stimuli/164_xb.png,l,12.233228465309367,harmless,0.0412,6.830508475,0.460604639,0.059965616
128,22,1,1,10,1,217,1363.3398602792295,1372.2149949745508,stimuli/335_yb.png,a,8.863409508368932,ambig,0.0412,5.016949153,2.046793332,0.266469795
128,22,1,1,10,2,218,1372.7676009743009,1375.543011519243,stimuli/150_xc.png,l,2.763415573630482,harmless,0.0412,6.482758621,1.030097582,0.135258439
128,22,1,1,10,3,219,1376.0985512771877,1379.5749744788045,stimuli/154_xc.png,l,3.4646562669659033,harmless,0.0412,6.5,0.965506805,0.124646393
128,22,1,1,10,4,220,1380.1296272957698,1383.0869828410214,stimuli/245_yb.png,a,2.9454582476755604,ambig,0.0412,4.949152542,2.096168334,0.272897873
128,22,1,1,10,5,221,1383.6458116061985,1392.766955066938,stimuli/142_xa.png,l,9.109248526161537,harmless,0.0412,6.4,1.076718178,0.139003719
128,22,1,1,10,6,222,1393.3175500893267,1398.0229462510906,stimuli/187_xc.png,a,4.69363198406063,harmless,0.0412,6.224137931,1.185335891,0.155642228
128,22,1,1,10,7,223,1398.583137723268,1406.8070107725216,stimuli/296_yb.png,a,8.212085634702817,ambig,0.0412,4.229508197,2.052587332,0.262806878
128,22,1,1,10,8,224,1407.364589470788,1410.7029870062834,stimuli/132_xc.png,l,3.32625093345996,harmless,0.0412,6.627118644,0.692280217,0.090127208
128,22,1,1,10,9,225,1411.255884451908,1414.0709548873128,stimuli/156_xc.png,l,2.803102245554328,harmless,0.0412,6.590163934,0.955284411,0.122311635
128,22,1,1,10,10,226,1414.6312282794388,1418.5751418633154,stimuli/152_xa.png,l,3.9319914740044624,harmless,0.0412,6.576271186,0.968528743,0.126091702
128,22,1,1,10,11,227,1419.1300120832166,1421.846996373497,stimuli/111_xa.png,l,2.7050141311483458,harmless,0.0412,6.590163934,0.863655973,0.110579816
128,22,1,1,10,12,228,1422.3965327381156,1429.2709695384838,stimuli/327_zb.png,a,6.862457189010456,awful,0.0412,2.502808989,1.906990248,0.101070281
128,22,1,1,10,13,229,1429.816552477656,1432.9269167693565,stimuli/178_xa.png,l,3.0983886187896132,harmless,0.0412,6.483333333,1.112207557,0.143585378
128,22,1,1,10,14,230,1433.4729656283744,1440.6949194663903,stimuli/107_xa.png,l,7.2098442575661466,harmless,0.0412,6.813559322,0.540580029,0.070377525
128,22,1,1,10,15,231,1441.254914409481,1448.9509378259536,stimuli/225_ya.png,l,7.683997331303544,ambig,0.0412,5.85,1.792876677,0.231459384
128,22,1,1,10,16,232,1449.5061018549604,1452.2629449277883,stimuli/153_xb.png,l,2.7448217138880864,harmless,0.0412,6.633333333,0.973664521,0.125699549
128,22,1,1,10,17,233,1452.818663491751,1456.102944234619,stimuli/141_xc.png,l,3.2722645037574694,harmless,0.0412,6.508474576,1.040107444,0.135410455
128,22,1,1,10,18,234,1456.6647965549491,1460.0469279231038,stimuli/149_xa.png,l,3.369999732240103,harmless,0.0412,6.721311475,0.933294301,0.11949609
128,22,1,1,10,19,235,1460.6018938475754,1463.8149321955862,stimuli/241_yb.png,a,3.20107882283628,ambig,0.0412,5.508474576,1.442852555,0.187843403
128,22,1,1,10,20,236,1464.3674133460736,1469.7989144818857,stimuli/121_xc.png,l,5.419532945961691,harmless,0.0412,6.508474576,1.006408455,0.131023221
128,22,1,1,10,21,237,1470.3527319516288,1476.7109159124084,stimuli/235_ya.png,l,6.346319746226072,ambig,0.0412,5.694915254,1.567495667,0.204070554
128,22,1,1,10,22,238,1477.271844664123,1480.7349775350885,stimuli/267_ya.png,a,3.4514959056396037,ambig,0.0412,5.103448276,1.898195405,0.249245267
128,22,1,1,10,23,239,1481.288120346726,1485.8308979214635,stimuli/136_xc.png,l,4.53073258488439,harmless,0.0412,6.559322034,1.038420326,0.135190811
128,22,1,1,10,24,240,1486.3813633685932,1488.9509622444166,stimuli/288_yb.png,a,2.557581455213949,ambig,0.0412,5.189655172,1.914459262,0.251380817
