id,age,condition,counterbalance,block,trialinblock,trial,tstart,tend,trialstim,response,RT,trialtype,ethicfreq,norm_mean,norm_sd,norm_se
105,21,0,2,0,0,practice,5.120004061609507e-06,5.51231398654636,stimuli/prac_217_1.png,l,5.498339151730761,harmless,NA,NA,NA,NA
105,21,0,2,1,1,1,4.946295957895927,13.056241197511554,stimuli/252_zb.png,a,8.098773800069466,awful,0.333,2.711864407,1.983125776,0.258180985
105,21,0,2,1,2,2,13.617043130856473,21.040142745536286,stimuli/152_xa.png,l,7.412023485871032,harmless,0.333,6.576271186,0.968528743,0.126091702
105,21,0,2,1,3,3,21.60165399534162,30.920160736422986,stimuli/332_zb.png,a,9.307096237083897,awful,0.333,2.694915254,2.002190501,0.260663001
105,21,0,2,1,4,4,31.47610615566373,42.256154236383736,stimuli/342_yb.png,l,10.768586770573165,ambig,0.333,4.916666667,2.085394461,0.269223267
105,21,0,2,1,5,5,42.82025974924909,59.30411324801389,stimuli/309_ya.png,l,16.472441419318784,ambig,0.333,4.706896552,1.946734744,0.255618795
105,21,0,2,1,6,6,59.86836409009993,75.92012292717118,stimuli/365_zb.png,l,16.040456640708726,awful,0.333,2.966101695,2.165291266,0.281896912
105,21,0,2,1,7,7,76.47200228116708,84.04810158390319,stimuli/330_ya.png,l,7.5647537832846865,ambig,0.333,4.796610169,2.049219036,0.266785595
105,21,0,2,1,8,8,84.59737092093565,93.1681304606609,stimuli/251_ya.png,l,8.55935966951074,ambig,0.333,5.655172414,1.792300532,0.235340589
105,21,0,2,1,9,9,93.7232428957941,101.42410904174903,stimuli/350_ya.png,l,7.689510386495385,ambig,0.333,4.915254237,2.02814792,0.264042369
105,21,0,2,1,10,10,101.98772973031737,112.67204489529831,stimuli/240_xa.png,l,10.672936168615706,harmless,0.333,6.482758621,1.096107616,0.143925981
105,21,0,2,1,11,11,113.2213134446647,119.40807754354319,stimuli/190_xc.png,l,6.175377225619741,harmless,0.333,6.517241379,1.046990328,0.137476565
105,21,0,2,1,12,12,119.97125515545486,123.29609651432838,stimuli/297_za.png,a,3.3136707070516422,awful,0.333,1.898305085,1.446695584,0.188343723
105,21,0,2,1,13,13,123.84695226274198,131.25608216255205,stimuli/310_zb.png,l,7.397698128130287,awful,0.333,3.224137931,2.102989547,0.276136056
105,21,0,2,1,14,14,131.81585143186385,140.71210729621816,stimuli/273_ya.png,l,8.88478313270025,ambig,0.333,5.551724138,1.836973233,0.241206403
105,21,0,2,1,15,15,141.26872343511786,147.4641226058011,stimuli/146_xa.png,l,6.184016629762482,harmless,0.333,6.442622951,1.162247681,0.148810567
105,21,0,2,1,16,16,148.01987346517853,163.12007613829337,stimuli/301_za.png,l,15.089301018044353,awful,0.333,3.610169492,2.212947396,0.288101212
105,21,0,2,1,17,17,163.67485459207091,169.50407394219656,stimuli/318_za.png,a,5.817757646087557,awful,0.333,3.06557377,2.197489875,0.281359747
105,21,0,2,1,18,18,170.06548673054203,175.9601026204764,stimuli/139_xa.png,l,5.883342838147655,harmless,0.333,6.724137931,0.790138861,0.103750315
105,21,0,2,1,19,19,176.5186970474315,183.81602393637877,stimuli/211_zb.png,l,7.286073529452551,awful,0.333,3.983333333,2.127237938,0.274625237
105,21,0,2,1,20,20,184.37749658926623,188.52009716967586,stimuli/117_xc.png,l,4.131242064002436,harmless,0.333,6.627118644,0.868972939,0.113130641
105,21,0,2,1,21,21,189.0832267323858,200.38402931159362,stimuli/284_ya.png,l,11.289435792074073,ambig,0.333,5.948275862,1.431750417,0.18799804
105,21,0,2,1,22,22,200.94019922299776,206.3120488494751,stimuli/335_yb.png,l,5.360421793186106,ambig,0.333,5.016949153,2.046793332,0.266469795
105,21,0,2,1,23,23,206.86027528252453,209.9360118531622,stimuli/113_xb.png,l,3.0644505218951963,harmless,0.333,6.733333333,0.660422737,0.085260209
105,21,0,2,1,24,24,210.48676598933525,214.6480860663578,stimuli/216_xa.png,l,4.149969831400085,harmless,0.333,6.603448276,0.877389573,0.115206895
105,21,0,2,2,1,25,223.5104672430316,228.936000825488,stimuli/124_xa.png,l,5.414219176804181,harmless,0.333,6.344262295,1.181598436,0.151288177
105,21,0,2,2,2,26,229.48724805674283,237.8080521011143,stimuli/308_zb.png,a,8.30937345419079,awful,0.333,1.644067797,1.471132708,0.191525165
105,21,0,2,2,3,27,238.36077861761441,242.57640453334898,stimuli/243_ya.png,l,4.204244950145949,ambig,0.333,5.830508475,1.652088985,0.215083666
105,21,0,2,2,4,28,243.1264438391663,246.1040021047229,stimuli/320_za.png,a,2.9663340506958775,awful,0.333,1.423728814,1.117314975,0.14546202
105,21,0,2,2,5,29,246.65984945633681,250.02403877966572,stimuli/359_za.png,a,3.3528548315516673,awful,0.333,2.01754386,1.641985167,0.217486248
105,21,0,2,2,6,30,250.58234609290957,258.4560361613403,stimuli/134_xc.png,l,7.862262235197704,harmless,0.333,6.516666667,0.965360505,0.124627505
105,21,0,2,2,7,31,259.01753283885773,264.60797482851194,stimuli/317_za.png,a,5.578962562605739,awful,0.333,3.65,2.03215674,0.262350307
105,21,0,2,2,8,32,265.1579479682259,270.87203434022376,stimuli/324_za.png,a,5.702691227954347,awful,0.333,2.491525424,1.994586478,0.259673041
105,21,0,2,2,9,33,271.49404898815555,276.88001523393905,stimuli/135_xa.png,l,5.375130756816361,harmless,0.333,6.508474576,1.179901828,0.153610134
105,21,0,2,2,10,34,277.43982113094535,287.14410664717434,stimuli/151_xa.png,l,9.692872255283874,harmless,0.333,6.610169492,0.947172729,0.123311386
105,21,0,2,2,11,35,287.7487538714777,295.2160134600708,stimuli/181_xa.png,l,7.457094031502493,harmless,0.333,6.666666667,0.950765377,0.122743282
105,21,0,2,2,12,36,295.7711581905605,299.7359964144416,stimuli/141_xc.png,l,3.953865676478017,harmless,0.333,6.508474576,1.040107444,0.135410455
105,21,0,2,2,13,37,300.3037465774687,305.92823024548125,stimuli/315_yb.png,a,5.613812412775587,ambig,0.333,5.050847458,1.915667965,0.249398726
105,21,0,2,2,14,38,306.5018747065915,312.43204818782397,stimuli/254_ya.png,l,5.918993770901579,ambig,0.333,5.983606557,1.627798137,0.208418195
105,21,0,2,2,15,39,312.99849669012474,319.02398482273566,stimuli/322_za.png,a,6.013518367370125,awful,0.333,2.406779661,1.975004531,0.257123689
105,21,0,2,2,16,40,319.58306171093136,326.9920053216629,stimuli/323_yb.png,l,7.397677648172248,ambig,0.333,4.603448276,1.955107169,0.256718148
105,21,0,2,2,17,41,327.5486974727828,333.92798566713464,stimuli/281_ya.png,l,6.367836730380077,ambig,0.333,5.881355932,1.543448286,0.200939852
105,21,0,2,2,18,42,334.4853906793869,339.81597352412064,stimuli/208_xb.png,l,5.319111688411795,harmless,0.333,6.216666667,1.165778516,0.150501359
105,21,0,2,2,19,43,340.3774430262274,346.9279620363959,stimuli/307_za.png,a,6.538962783117313,awful,0.333,2.93220339,2.172432347,0.282826601
105,21,0,2,2,20,44,347.48548126395326,352.7039475964266,stimuli/287_ya.png,l,5.207092062279116,ambig,0.333,5.950819672,1.407435369,0.180203633
105,21,0,2,2,21,45,353.26678413775517,359.7679211709765,stimuli/356_za.png,a,6.489824202959426,awful,0.333,3.033333333,2.178217796,0.281206708
105,21,0,2,2,22,46,360.32900824869284,367.4959555962123,stimuli/263_ya.png,a,7.155577015771996,ambig,0.333,4.983050847,2.071910042,0.269739712
105,21,0,2,2,23,47,368.11165374325356,377.7599170402973,stimuli/282_xc.png,l,9.637105642061215,harmless,0.333,6.55,0.998728005,0.128935231
105,21,0,2,2,24,48,378.313129956543,384.7599134956836,stimuli/223_yb.png,l,6.4354758288827725,ambig,0.333,5.542372881,1.77455224,0.231027024
105,21,0,2,3,1,49,393.3556468052557,398.38391942856833,stimuli/314_zb.png,a,5.016982242290396,awful,0.333,1.833333333,1.451669602,0.18740974
105,21,0,2,3,2,50,398.99096162995556,403.8158778195502,stimuli/119_xc.png,l,4.813768774620257,harmless,0.333,6.694915254,0.914523379,0.119060803
105,21,0,2,3,3,51,404.376600589836,411.9279072917998,stimuli/311_za.png,a,7.539968665572815,awful,0.333,3.116666667,1.975199339,0.254997138
105,21,0,2,3,4,52,412.48515673493966,430.6559468370979,stimuli/274_xb.png,a,18.1594981457456,harmless,0.333,6.491525424,1.179901828,0.153610134
105,21,0,2,3,5,53,431.20424849470146,436.1279329705867,stimuli/348_za.png,a,4.91234092565719,awful,0.333,3.084745763,2.119597681,0.275948114
105,21,0,2,3,6,54,436.7638645579573,441.7519452049746,stimuli/138_xc.png,l,4.976025811047293,harmless,0.333,6.661016949,0.70978796,0.092406522
105,21,0,2,3,7,55,442.3138117038179,447.6478761464823,stimuli/205_yb.png,l,5.322685052466113,ambig,0.333,5.847457627,1.52918233,0.199082582
105,21,0,2,3,8,56,448.2042221070151,454.42391566338483,stimuli/259_xc.png,l,6.20842089841608,harmless,0.333,6.568965517,0.993170874,0.130409725
105,21,0,2,3,9,57,454.98544109170325,462.51191502064466,stimuli/213_ya.png,l,7.515155191067606,ambig,0.333,5.98245614,1.597891781,0.211645937
105,21,0,2,3,10,58,463.062952332024,466.0798727404908,stimuli/261_yb.png,a,3.005522507475689,ambig,0.333,5.706896552,1.901141123,0.249632059
105,21,0,2,3,11,59,466.6586533462978,473.439884146268,stimuli/289_yb.png,l,6.769834080594592,ambig,0.333,5.305084746,1.714584873,0.223219937
105,21,0,2,3,12,60,474.0026308907545,477.2638657395146,stimuli/293_zb.png,a,3.2495766156353056,awful,0.333,3.677966102,2.169066842,0.28238845
105,21,0,2,3,13,61,477.81399208528455,483.67189956613583,stimuli/235_ya.png,l,5.846544238331262,ambig,0.333,5.694915254,1.567495667,0.204070554
105,21,0,2,3,14,62,484.21859236317687,489.4478583446471,stimuli/372_zb.png,a,5.21821505879052,awful,0.333,2.796610169,2.082601664,0.271131643
105,21,0,2,3,15,63,490.0005411442835,496.81603614561027,stimuli/244_xb.png,l,6.804228644876275,harmless,0.333,6.610169492,0.743174671,0.096753101
105,21,0,2,3,16,64,497.37569868267747,502.17601643753005,stimuli/132_xc.png,l,4.788881257001776,harmless,0.333,6.627118644,0.692280217,0.090127208
105,21,0,2,3,17,65,502.73510868573794,511.57587835518643,stimuli/256_zb.png,l,8.829513553064317,awful,0.333,3.051724138,2.012438634,0.264246138
105,21,0,2,3,18,66,512.1256210950087,523.6478863864904,stimuli/220_yb.png,a,11.510869359772187,ambig,0.333,4.75,2.096203186,0.270618668
105,21,0,2,3,19,67,524.204616346804,530.4558589307126,stimuli/325_yb.png,a,6.239791119878646,ambig,0.333,5.131147541,1.811770863,0.231973488
105,21,0,2,3,20,68,531.0660696225241,536.1598565455643,stimuli/238_xb.png,l,5.082290954480413,harmless,0.333,6.4,1.076718178,0.139003719
105,21,0,2,3,21,69,536.7206194881,541.1118573616259,stimuli/334_za.png,a,4.379919135593809,awful,0.333,3.333333333,2.214487481,0.285889104
105,21,0,2,3,22,70,541.6724533134839,551.9918525094399,stimuli/102_xc.png,l,10.308022562647238,harmless,0.333,6.66011236,0.937292468,0.049676401
105,21,0,2,3,23,71,552.548530875938,559.9118178982171,stimuli/276_ya.png,l,7.352149059646763,ambig,0.333,5.186440678,1.804922162,0.234980851
105,21,0,2,3,24,72,560.4693835996441,567.6157934577204,stimuli/300_za.png,a,7.135036375606433,awful,0.333,3.75,2.12032137,0.273732312
105,21,0,2,4,1,73,577.5403006777051,591.9197865827591,stimuli/304_ya.png,a,14.368096668680664,ambig,0.333,4.034482759,2.017167697,0.264867095
105,21,0,2,4,2,74,592.4693721780786,599.447808326222,stimuli/269_za.png,a,6.9671063825371675,awful,0.333,3.457627119,2.119873401,0.27598401
105,21,0,2,4,3,75,600.0011393962195,605.8158132288372,stimuli/101_xa.png,l,5.803433470020536,harmless,0.333,6.508522727,1.13475832,0.060482822
105,21,0,2,4,4,76,606.3759176610038,610.3198064325843,stimuli/292_zb.png,a,3.932570033648517,awful,0.333,2.396551724,1.955107169,0.256718148
105,21,0,2,4,5,77,610.8752556060208,613.85578189441,stimuli/363_zb.png,a,2.969049618288409,awful,0.333,2.433333333,2.019956927,0.260775318
105,21,0,2,4,6,78,614.4079267005436,618.7838112784666,stimuli/245_yb.png,a,4.3645622953772545,ambig,0.333,4.949152542,2.096168334,0.272897873
105,21,0,2,4,7,79,619.3454383190256,623.4397522078943,stimuli/290_zb.png,a,4.082967187918257,awful,0.333,2.586206897,2.026443456,0.266085062
105,21,0,2,4,8,80,624.0007679995615,630.4958551655291,stimuli/371_zb.png,a,6.483813720347825,awful,0.333,3.131147541,2.085468851,0.267016925
105,21,0,2,4,9,81,631.1075620779884,636.7998077244265,stimuli/175_xb.png,l,5.6809560530819,harmless,0.333,6.6,1.028409995,0.13276716
105,21,0,2,4,10,82,637.3611196881975,647.4477716985275,stimuli/355_zb.png,l,10.075439610809553,awful,0.333,3.183333333,2.070713188,0.267327923
105,21,0,2,4,11,83,648.0007179811364,653.6478123434354,stimuli/369_za.png,a,5.635832338186447,awful,0.333,2.948275862,2.055565093,0.26990892
105,21,0,2,4,12,84,654.2021835605265,657.5997395103332,stimuli/179_xb.png,l,3.3860863688751124,harmless,0.333,6.704918033,0.882123617,0.112944356
105,21,0,2,4,13,85,658.1563765230239,664.1997468358604,stimuli/232_yb.png,l,6.031964928843081,ambig,0.333,5.483333333,1.845669845,0.238274952
105,21,0,2,4,14,86,664.7499515569652,671.3997827545973,stimuli/126_xa.png,l,6.638473075116053,harmless,0.333,6.6,0.977717855,0.126222832
105,21,0,2,4,15,87,671.9530216646963,679.1518059410737,stimuli/260_ya.png,a,7.187376529269386,ambig,0.333,4.966101695,2.016877936,0.262575142
105,21,0,2,4,16,88,679.702220975887,682.9837483419105,stimuli/294_za.png,a,3.2700648743193597,awful,0.333,1.557377049,1.38473331,0.177296933
105,21,0,2,4,17,89,683.5328380852006,690.5997095780331,stimuli/218_yb.png,l,7.055503524141386,ambig,0.333,5.850282486,1.552723069,0.0825263
105,21,0,2,4,18,90,691.1572512547718,697.6237763207173,stimuli/285_yb.png,a,6.45512716495432,ambig,0.333,4.120689655,2.119893958,0.278355714
105,21,0,2,4,19,91,698.172824316367,705.1437576996977,stimuli/249_ya.png,l,6.959574866981711,ambig,0.333,5.327868852,1.859402337,0.238072074
105,21,0,2,4,20,92,705.7040334548219,713.3837217179243,stimuli/142_xa.png,l,7.668274608266074,harmless,0.333,6.4,1.076718178,0.139003719
105,21,0,2,4,21,93,713.9381067196373,720.4557136015501,stimuli/173_yb.png,l,6.506221584044397,ambig,0.333,5.796610169,1.242628763,0.161776485
105,21,0,2,4,22,94,721.0152638925356,725.4957114117569,stimuli/136_xc.png,l,4.4689405229873955,harmless,0.333,6.559322034,1.038420326,0.135190811
105,21,0,2,4,23,95,726.0455746684456,729.7197077348246,stimuli/107_xa.png,l,3.663023460598197,harmless,0.333,6.813559322,0.540580029,0.070377525
105,21,0,2,4,24,96,730.3362967613502,734.7356990607805,stimuli/162_xa.png,l,4.388116644578986,harmless,0.333,6.644067797,0.905209289,0.117848212
105,21,0,2,5,1,97,743.0095527328085,766.576049678144,stimuli/344_za.png,a,23.55511164746713,awful,0.333,2.711864407,2.043077863,0.265986082
105,21,0,2,5,2,98,767.1256813534419,770.2237411108799,stimuli/229_za.png,a,3.0870104101486504,awful,0.333,3.406779661,2.043649913,0.266060557
105,21,0,2,5,3,99,770.7819700487889,775.4716935059405,stimuli/360_za.png,a,4.678512239130214,awful,0.333,3.2,2.207844259,0.285031468
105,21,0,2,5,4,100,776.0322654332267,781.7116807610728,stimuli/246_ya.png,l,5.668101709918119,ambig,0.333,5.542372881,1.715266481,0.223308675
105,21,0,2,5,5,101,782.2663320026477,790.0876571051194,stimuli/279_ya.png,a,7.810050475294702,ambig,0.333,5.31147541,1.970964092,0.252356093
105,21,0,2,5,6,102,790.6404584523989,797.0636455008644,stimuli/227_xa.png,l,6.411754489061423,harmless,0.333,6.180327869,1.05685377,0.135316259
105,21,0,2,5,7,103,797.6253253167379,801.8796729818569,stimuli/354_zb.png,a,4.242856422672048,awful,0.333,2,1.701925887,0.221571878
105,21,0,2,5,8,104,802.437176061736,808.4397092786967,stimuli/137_xa.png,l,5.991192423680332,harmless,0.333,6.355932203,1.094858074,0.14253838
105,21,0,2,5,9,105,809.0792433746974,814.7356844884343,stimuli/177_xb.png,l,5.645149944990408,harmless,0.333,6.482758621,1.063614811,0.139659467
105,21,0,2,5,10,106,815.2976175472722,822.9516731362673,stimuli/210_yb.png,l,7.6426423280499876,ambig,0.333,5.557377049,1.76564049,0.226067099
105,21,0,2,5,11,107,823.5004867935786,829.6797020476661,stimuli/212_ya.png,l,6.167935113073327,ambig,0.333,5.677966102,1.490668422,0.194068498
105,21,0,2,5,12,108,830.2326703856234,834.7436740468256,stimuli/187_xc.png,l,4.499602215655614,harmless,0.333,6.224137931,1.185335891,0.155642228
105,21,0,2,5,13,109,835.2970740398741,842.6476859188988,stimuli/336_ya.png,l,7.339313621050678,ambig,0.333,5.033898305,1.884291705,0.245313885
105,21,0,2,5,14,110,843.2035253936192,849.7916602338664,stimuli/207_yb.png,l,6.576743634708691,ambig,0.333,5.655737705,1.662179753,0.212820309
105,21,0,2,5,15,111,850.3439129537437,858.7596354404814,stimuli/130_xc.png,l,8.404370271891821,harmless,0.333,6.644067797,0.960651931,0.125066229
105,21,0,2,5,16,112,859.3134572425042,866.3756478765281,stimuli/219_ya.png,a,7.050858111470006,ambig,0.333,5.271186441,1.998538332,0.260187529
105,21,0,2,5,17,113,866.9363127514953,871.2236265017418,stimuli/156_xc.png,l,4.2759134862571955,harmless,0.333,6.590163934,0.955284411,0.122311635
105,21,0,2,5,18,114,871.7811272185063,876.1756635516067,stimuli/280_xb.png,l,4.383183330530301,harmless,0.333,6.333333333,1.068289726,0.137915611
105,21,0,2,5,19,115,876.7344261507387,880.8236310703214,stimuli/122_xa.png,l,4.077848372457083,harmless,0.333,6.457627119,1.039264227,0.135300678
105,21,0,2,5,20,116,881.3753966028453,895.1756733977818,stimuli/321_zb.png,a,13.788785158656538,awful,0.333,2.918032787,2.177881861,0.278849198
105,21,0,2,5,21,117,895.7328373763012,901.8636292744195,stimuli/236_yb.png,l,6.119450711004902,ambig,0.333,5.93442623,1.49297078,0.19115532
105,21,0,2,5,22,118,902.4214265571791,908.6236751023098,stimuli/366_za.png,a,6.1908498564735055,awful,0.333,3.689655172,2.036568291,0.267414518
105,21,0,2,5,23,119,909.1709598497837,916.1996479805093,stimuli/347_zb.png,a,7.0172244575223885,awful,0.333,3.796610169,2.147810923,0.279621165
105,21,0,2,5,24,120,916.7488869914087,920.6876230768394,stimuli/346_zb.png,a,3.9273433044436388,awful,0.333,1.288135593,0.983499162,0.128040685
105,21,0,2,6,1,121,936.2024289265391,957.7515919252182,stimuli/114_xc.png,l,21.537944297597278,harmless,0.333,6.644067797,0.97843492,0.127381377
105,21,0,2,6,2,122,958.3111532438779,962.047592341085,stimuli/225_ya.png,l,3.7252081869519316,ambig,0.333,5.85,1.792876677,0.231459384
105,21,0,2,6,3,123,962.6079299300909,971.8716066235211,stimuli/270_yb.png,l,9.252256343257613,ambig,0.333,5.534482759,1.912246013,0.251090203
105,21,0,2,6,4,124,972.422286322806,977.3276014310541,stimuli/182_xb.png,l,4.894018031831365,harmless,0.333,6.542372881,0.988241802,0.128658124
105,21,0,2,6,5,125,977.875509636593,987.1915674437187,stimuli/268_zb.png,a,9.304661087691784,awful,0.333,2.655737705,2.048456703,0.262278005
105,21,0,2,6,6,126,987.7500681353267,993.6076152471942,stimuli/226_yb.png,l,5.846239795442671,ambig,0.333,5.683333333,1.712285287,0.22105508
105,21,0,2,6,7,127,994.1551284252782,999.5195761115174,stimuli/283_yb.png,a,5.35287334228633,ambig,0.333,5.949152542,1.478859402,0.192531095
105,21,0,2,6,8,128,1000.0874751483207,1007.4795353721129,stimuli/104_xc.png,l,7.380734002799727,harmless,0.333,6.745762712,0.756425814,0.098478253
105,21,0,2,6,9,129,1008.0312516738195,1017.6155925962958,stimuli/349_za.png,a,9.572878430772107,awful,0.333,3.288135593,2.101320172,0.273568585
105,21,0,2,6,10,130,1018.1721894367365,1026.5916180135682,stimuli/278_xb.png,l,8.40793969744118,harmless,0.333,6.360655738,1.140654591,0.146045855
105,21,0,2,6,11,131,1027.1410299228155,1036.8155398997478,stimuli/253_ya.png,l,9.663077023695223,ambig,0.333,5.491803279,1.849531029,0.236808182
105,21,0,2,6,12,132,1037.373868480674,1042.2555095105781,stimuli/191_ya.png,l,4.870164359745104,ambig,0.333,5.517241379,2.062542966,0.270825159
105,21,0,2,6,13,133,1042.8119582649088,1048.503719874716,stimuli/362_zb.png,a,5.6802794258110225,awful,0.333,1.474576271,1.222715071,0.159183944
105,21,0,2,6,14,134,1049.0618093911908,1053.671534077148,stimuli/327_zb.png,a,4.598336237308104,awful,0.333,2.502808989,1.906990248,0.101070281
105,21,0,2,6,15,135,1054.2176337421988,1058.903521927772,stimuli/192_za.png,a,4.674526518443599,awful,0.333,2.68852459,2.093967396,0.268105052
105,21,0,2,6,16,136,1059.4888427389087,1064.0795194607344,stimuli/106_xc.png,l,4.579445417679381,harmless,0.333,6.661016949,0.863237081,0.112383896
105,21,0,2,6,17,137,1064.6402493202477,1070.5275743344682,stimuli/198_yb.png,l,5.875934596348088,ambig,0.333,5.101694915,1.83542643,0.238952168
105,21,0,2,6,18,138,1071.0778731847531,1076.4875158719951,stimuli/168_xa.png,l,5.3981388417305425,harmless,0.333,6.474576271,1.164946827,0.151663159
105,21,0,2,6,19,139,1077.0466589262942,1082.9595744730905,stimuli/302_za.png,a,5.901518433529418,awful,0.333,3.137931034,2.188071937,0.287307921
105,21,0,2,6,20,140,1083.5148003358627,1089.2555583475041,stimuli/266_zb.png,a,5.729362079931889,awful,0.333,3.491525424,1.888010094,0.245797978
105,21,0,2,6,21,141,1089.8115675697918,1095.287483497872,stimuli/160_xb.png,l,5.464447528705932,harmless,0.333,6.666666667,0.680644427,0.087870818
105,21,0,2,6,22,142,1095.8451460853103,1103.215544783452,stimuli/217_yb.png,a,7.358927147986833,ambig,0.333,5.169491525,2.001314588,0.260548967
105,21,0,2,6,23,143,1103.7651370741078,1112.1755048317136,stimuli/313_zb.png,a,8.398954102769494,awful,0.333,2.101694915,1.688652955,0.219843889
105,21,0,2,6,24,144,1112.7334356282372,1124.055482650292,stimuli/149_xa.png,l,11.310665662633255,harmless,0.333,6.721311475,0.933294301,0.11949609
105,21,0,2,7,1,145,1168.7518538327422,1176.1994758698274,stimuli/340_za.png,a,7.436408849840518,awful,0.333,2.508474576,1.832398855,0.238558011
105,21,0,2,7,2,146,1176.7504288982018,1179.40748992539,stimuli/373_zb.png,a,2.6456513108569197,awful,0.333,2.327586207,1.858011869,0.243968911
105,21,0,2,7,3,147,1179.9674955022638,1185.6474689097959,stimuli/275_yb.png,l,5.66862355574267,ambig,0.333,4.836065574,2.138382004,0.27379176
105,21,0,2,7,4,148,1186.202072102169,1189.0714188378188,stimuli/178_xa.png,l,2.858759763475973,harmless,0.333,6.483333333,1.112207557,0.143585378
105,21,0,2,7,5,149,1189.6235069301329,1195.951494724024,stimuli/367_zb.png,a,6.316536329919472,awful,0.333,3.413793103,2.086165649,0.27392697
105,21,0,2,7,6,150,1196.4990480744164,1204.159470182727,stimuli/352_zb.png,a,7.648984822793864,awful,0.333,2.93442623,2.135952968,0.273480754
105,21,0,2,7,7,151,1204.7171532501816,1209.991409038892,stimuli/296_yb.png,a,5.262882306182291,ambig,0.333,4.229508197,2.052587332,0.262806878
105,21,0,2,7,8,152,1210.5464033202734,1218.8154390751733,stimuli/222_ya.png,l,8.257625644735526,ambig,0.333,5.931034483,1.543089507,0.202617579
105,21,0,2,7,9,153,1219.3737979822326,1224.5914545675041,stimuli/345_zb.png,a,5.206574548734352,awful,0.333,3.694915254,2.191317013,0.285285176
105,21,0,2,7,10,154,1225.1384329028078,1234.1914882807177,stimuli/123_xc.png,l,9.04161809233483,harmless,0.333,6.491525424,1.023396666,0.133234897
105,21,0,2,7,11,155,1234.7481898841215,1242.3994215978892,stimuli/189_yb.png,l,7.639868077356368,ambig,0.333,5.983333333,1.455459234,0.187898979
105,21,0,2,7,12,156,1242.9584516183822,1249.0714113547583,stimuli/193_xc.png,l,6.101623275375459,harmless,0.333,6.482758621,1.012923151,0.133003326
105,21,0,2,7,13,157,1249.6242103389231,1254.135405409208,stimuli/264_xa.png,l,4.499671926314477,harmless,0.333,6.533333333,0.947193297,0.122282129
105,21,0,2,7,14,158,1254.6880685166107,1262.103399914282,stimuli/286_ya.png,l,7.404116635094397,ambig,0.333,5.06779661,1.779814082,0.231712057
105,21,0,2,7,15,159,1262.6543356134207,1270.3673877460533,stimuli/319_ya.png,a,7.701573887083214,ambig,0.333,4.216666667,2.108028774,0.272145344
105,21,0,2,7,16,160,1270.9195266444585,1275.6154082764406,stimuli/129_xa.png,l,4.684408900269773,harmless,0.333,6.770491803,0.642740036,0.082294429
105,21,0,2,7,17,161,1276.1689677771064,1281.3753989659017,stimuli/202_yb.png,l,5.195064007828478,ambig,0.333,5.431034483,1.892849601,0.248543329
105,21,0,2,7,18,162,1281.9203572655097,1292.6393860099488,stimuli/338_zb.png,l,10.707615089660976,awful,0.333,3.310344828,2.137443107,0.28066003
105,21,0,2,7,19,163,1293.1943184575066,1298.5994201012654,stimuli/206_xa.png,l,5.393637970555574,harmless,0.333,6.325842697,1.136094431,0.060212884
105,21,0,2,7,20,164,1299.1561413969612,1301.6714151356719,stimuli/295_za.png,a,2.5039569700020365,awful,0.333,2.3,1.825432384,0.235662307
105,21,0,2,7,21,165,1302.2312430880265,1307.2313655740581,stimuli/166_xa.png,l,4.989075895631686,harmless,0.333,6.593220339,1.052397002,0.13701042
105,21,0,2,7,22,166,1307.779430530325,1314.8313890473219,stimuli/250_yb.png,l,7.040584246802609,ambig,0.333,5.950819672,1.585625318,0.203018519
105,21,0,2,7,23,167,1315.3885593273444,1320.4554099463276,stimuli/358_za.png,a,5.055403487232979,awful,0.333,3.949152542,2.112554662,0.275031191
105,21,0,2,7,24,168,1321.077002785285,1334.7034166921512,stimuli/272_xb.png,l,13.61529169807909,harmless,0.333,6.355932203,1.029943284,0.134087194
105,21,0,2,8,1,169,1346.1387913026265,1351.927359452122,stimuli/145_xa.png,l,5.777180882403627,harmless,0.333,6.661016949,0.822321556,0.107057148
105,21,0,2,8,2,170,1352.4834285390098,1358.7673548205057,stimuli/215_yb.png,l,6.272504355933052,ambig,0.333,5.866666667,1.466769385,0.189359113
105,21,0,2,8,3,171,1359.3276321510784,1362.1433654291322,stimuli/331_za.png,a,2.8043956355541013,awful,0.333,1.983606557,1.638004917,0.209725039
105,21,0,2,8,4,172,1362.7019165329984,1367.9593964547385,stimuli/203_yb.png,l,5.246364014456049,ambig,0.333,6,1.542501327,0.200816568
105,21,0,2,8,5,173,1368.5129476846778,1373.9913377527846,stimuli/248_zb.png,a,5.466769644233864,awful,0.333,3.288135593,1.991800844,0.259310383
105,21,0,2,8,6,174,1374.5435443927418,1380.375341070583,stimuli/148_xc.png,l,5.820625238295179,harmless,0.333,6.491525424,1.135218061,0.147792803
105,21,0,2,8,7,175,1380.9346810478019,1386.3353271126398,stimuli/157_xc.png,l,5.389154034666717,harmless,0.333,6.603448276,0.877389573,0.115206895
105,21,0,2,8,8,176,1386.8873868480441,1391.0713530655485,stimuli/201_yb.png,l,4.172516722697765,ambig,0.333,5.898305085,1.626238682,0.211718243
105,21,0,2,8,9,177,1391.6238157053012,1397.36736765987,stimuli/241_yb.png,l,5.732088675198611,ambig,0.333,5.508474576,1.442852555,0.187843403
105,21,0,2,8,10,178,1397.9207432345138,1419.1833411839907,stimuli/303_zb.png,l,21.251163814682513,awful,0.333,3.620689655,2.158846233,0.283470398
105,21,0,2,8,11,179,1419.7506325165741,1425.4873039828963,stimuli/165_xb.png,l,5.725311768474057,harmless,0.333,6.557377049,1.008705278,0.129151477
105,21,0,2,8,12,180,1426.0444478752906,1435.4233225314529,stimuli/339_ya.png,l,9.367486601346172,ambig,0.333,4.949152542,1.960152429,0.25519011
105,21,0,2,8,13,181,1435.980253747024,1439.4633620893583,stimuli/298_za.png,a,3.471667512145359,awful,0.333,2.881355932,2.026418156,0.263817173
105,21,0,2,8,14,182,1440.12241597689,1444.1993080914835,stimuli/155_xb.png,l,4.065716736542527,harmless,0.333,6.655737705,0.892286312,0.114245555
105,21,0,2,8,15,183,1444.7468244203483,1448.4152916192543,stimuli/316_za.png,a,3.6570303072221577,awful,0.333,2.344827586,1.802062407,0.236622386
105,21,0,2,8,16,184,1448.9669669610448,1454.7913695755415,stimuli/329_zb.png,a,5.812971236649901,awful,0.333,2.406779661,1.992387617,0.259386774
105,21,0,2,8,17,185,1455.342199723993,1459.1192880526069,stimuli/183_xb.png,l,3.7656238676863723,harmless,0.333,6.448275862,1.095003225,0.143780967
105,21,0,2,8,18,186,1459.6696160474676,1464.0313095691963,stimuli/185_xa.png,l,4.350307829969097,harmless,0.333,6.5,0.965506805,0.124646393
105,21,0,2,8,19,187,1464.5957018019399,1470.9193001830718,stimuli/200_ya.png,l,6.312135101761669,ambig,0.333,5.862068966,1.444266048,0.189641423
105,21,0,2,8,20,188,1471.4655274542165,1476.6473097960697,stimuli/343_zb.png,a,5.170734963787254,awful,0.333,3.103448276,2.141401862,0.28117984
105,21,0,2,8,21,189,1477.2110423368867,1483.6392891238793,stimuli/133_xa.png,l,6.416865821462125,harmless,0.333,6.568965517,1.186356193,0.1557762
105,21,0,2,8,22,190,1484.1853198658791,1502.4633183724363,stimuli/357_za.png,a,18.266570279432926,awful,0.333,2.793103448,2.066937905,0.271402243
105,21,0,2,8,23,191,1503.013295056764,1507.7672894420684,stimuli/230_yb.png,l,4.742547253612429,ambig,0.333,4.98245614,1.875511626,0.248417583
105,21,0,2,8,24,192,1508.326726305415,1513.4312545883004,stimuli/237_ya.png,a,5.0930614588432945,ambig,0.333,4.305084746,2.019339575,0.26289562
105,21,0,2,9,1,193,1522.6300026308745,1529.7913022278808,stimuli/147_ya.png,l,7.150091529765632,ambig,0.333,5.883333333,1.766847875,0.22809908
105,21,0,2,9,2,194,1530.340298629715,1542.983291480632,stimuli/305_zb.png,a,12.631511454586871,awful,0.333,2.75,2.12830003,0.274762352
105,21,0,2,9,3,195,1543.566998311202,1560.7112896721228,stimuli/234_xb.png,l,17.133406641194597,harmless,0.333,6.637931034,0.788030542,0.103473479
105,21,0,2,9,4,196,1561.262958318519,1565.1592472658958,stimuli/258_ya.png,l,3.884630714310333,ambig,0.333,5.627118644,1.78014243,0.231754804
105,21,0,2,9,5,197,1565.7167070227442,1569.5832684800262,stimuli/262_ya.png,l,3.8550993594690226,ambig,0.333,5.491525424,1.7750462,0.231091332
105,21,0,2,9,6,198,1570.1373250142788,1573.6712130926899,stimuli/257_yb.png,l,3.522431888268329,ambig,0.333,5.620689655,1.843219782,0.242026615
105,21,0,2,9,7,199,1574.215302962053,1587.4312053575413,stimuli/209_ya.png,l,13.204505282221362,ambig,0.333,5.603448276,1.825161903,0.239655499
105,21,0,2,9,8,200,1587.981408503314,1593.6312164640403,stimuli/267_ya.png,l,5.638417149020825,ambig,0.333,5.103448276,1.898195405,0.249245267
105,21,0,2,9,9,201,1594.184448678745,1605.127193327935,stimuli/341_zb.png,a,10.93145584355807,awful,0.333,3.603448276,2.15975677,0.283589957
105,21,0,2,9,10,202,1605.6834628823563,1617.8472362256143,stimuli/326_zb.png,a,12.152347479190212,awful,0.333,3.389830508,2.220724867,0.289113752
105,21,0,2,9,11,203,1618.4045447456301,1626.455239017203,stimuli/370_za.png,a,8.039236899872776,awful,0.333,2.393442623,1.882185684,0.240989182
105,21,0,2,9,12,204,1627.013289149094,1639.4311974806478,stimuli/299_za.png,a,12.406786910432857,awful,0.333,1.288135593,0.929420425,0.121000233
105,21,0,2,9,13,205,1639.981428983272,1643.9432227781508,stimuli/180_xc.png,l,3.9503537524142303,harmless,0.333,6.672131148,0.723908638,0.092687003
105,21,0,2,9,14,206,1644.4976668567397,1651.0391695522121,stimuli/333_za.png,l,6.530027600703761,awful,0.333,3.266666667,2.185209657,0.282109354
105,21,0,2,9,15,207,1651.6008989926777,1671.3271674128482,stimuli/255_xb.png,l,19.713578704569954,harmless,0.333,6.770491803,0.642740036,0.082294429
105,21,0,2,9,16,208,1671.8714341190062,1677.0711514163995,stimuli/265_yb.png,l,5.188298128719907,ambig,0.333,5.627118644,1.856008928,0.241631781
105,21,0,2,9,17,209,1677.6222997923614,1682.8151413276792,stimuli/204_xb.png,l,5.181364471325651,harmless,0.333,6.508474576,0.858484658,0.111765183
105,21,0,2,9,18,210,1683.3891016531852,1688.4951726305299,stimuli/121_xc.png,l,5.0948156485683285,harmless,0.333,6.508474576,1.006408455,0.131023221
105,21,0,2,9,19,211,1689.0427874208544,1693.447136425064,stimuli/143_xb.png,l,4.392903054016642,harmless,0.333,6.655172414,0.738697862,0.096995781
105,21,0,2,9,20,212,1693.9972438662662,1716.823204141343,stimuli/368_za.png,l,22.814556860306766,awful,0.333,3.590163934,2.02794682,0.259651984
105,21,0,2,9,21,213,1717.3724813553272,1720.8071505877888,stimuli/103_xb.png,l,3.4232339161098935,harmless,0.333,6.779661017,0.589207434,0.076708274
105,21,0,2,9,22,214,1721.35512023326,1724.4951344275032,stimuli/153_xb.png,l,3.128598570183385,harmless,0.333,6.633333333,0.973664521,0.125699549
105,21,0,2,9,23,215,1725.0435499065788,1727.4871704691323,stimuli/312_yb.png,a,2.432245898526162,ambig,0.333,4.677966102,2.112692986,0.275049199
105,21,0,2,9,24,216,1728.0437035064679,1731.6551300006686,stimuli/291_za.png,a,3.600100273208227,awful,0.333,2.593220339,1.830005126,0.238246374
105,21,0,2,10,1,217,1740.3159605271649,1744.2391089787125,stimuli/247_ya.png,l,3.91201442736201,ambig,0.333,4.65,2.081598147,0.268733165
105,21,0,2,10,2,218,1744.7956093269167,1748.335145155841,stimuli/351_zb.png,a,3.528117054142058,awful,0.333,3.06779661,2.033040926,0.264679384
105,21,0,2,10,3,219,1748.887588497193,1752.4311699114041,stimuli/306_zb.png,a,3.5321145902271383,awful,0.333,2.352112676,1.917055413,0.101746737
105,21,0,2,10,4,220,1752.9828929085634,1758.5271316516446,stimuli/176_xb.png,l,5.532834934419952,harmless,0.333,6.796610169,0.517942249,0.067430337
105,21,0,2,10,5,221,1759.0742801284068,1763.567166877212,stimuli/112_xc.png,l,4.481457340181805,harmless,0.333,6.706896552,0.749470472,0.098410294
105,21,0,2,10,6,222,1764.1207685194095,1770.0630752119469,stimuli/116_xa.png,l,5.930979683820624,harmless,0.333,6.63559322,0.958030802,0.050918763
105,21,0,2,10,7,223,1770.625691199617,1780.2791418412235,stimuli/328_za.png,l,9.642312678974122,awful,0.333,2.706896552,1.955725922,0.256799395
105,21,0,2,10,8,224,1780.8249988972093,1787.3110799885471,stimuli/271_ya.png,l,6.474575276602991,ambig,0.333,5.711864407,1.771915459,0.230683744
105,21,0,2,10,9,225,1787.871165909979,1795.983098889992,stimuli/288_yb.png,l,8.100498845276888,ambig,0.333,5.189655172,1.914459262,0.251380817
105,21,0,2,10,10,226,1796.5284884508583,1800.8710950177046,stimuli/364_za.png,a,4.331046007515397,awful,0.333,1.677966102,1.279017376,0.166513879
105,21,0,2,10,11,227,1801.4195400352473,1809.5751253217459,stimuli/224_yb.png,l,8.144109797896817,ambig,0.333,5.881355932,1.609077116,0.209483997
105,21,0,2,10,12,228,1810.1215967774042,1821.199067845475,stimuli/239_ya.png,l,11.066336256219074,ambig,0.333,5.157894737,1.925296579,0.255011762
105,21,0,2,10,13,229,1821.7774735098938,1825.2470879032626,stimuli/115_xb.png,l,3.4584559507202357,harmless,0.333,6.440677966,1.021681954,0.133011661
105,21,0,2,10,14,230,1825.7919760982622,1830.1270980171976,stimuli/337_zb.png,a,4.32361925492296,awful,0.333,3.033333333,2.20143764,0.284204377
105,21,0,2,10,15,231,1830.6827953135362,1833.5591517189168,stimuli/199_za.png,a,2.8648848552256823,awful,0.333,3.033898305,2.189048775,0.284989876
105,21,0,2,10,16,232,1834.1052214516676,1837.27105657832,stimuli/353_zb.png,a,3.1544135949225165,awful,0.333,1.949152542,1.623361018,0.211343603
105,21,0,2,10,17,233,1837.8251182325184,1841.7990905310144,stimuli/361_za.png,a,3.9625176836852916,awful,0.333,2.416666667,1.907093508,0.246204713
105,21,0,2,10,18,234,1842.3559284051298,1847.5270721809356,stimuli/277_yb.png,a,5.160019597795326,ambig,0.333,5.491525424,2.02886822,0.264136144
105,21,0,2,10,19,235,1848.076844065392,1853.9030757003347,stimuli/242_xb.png,l,5.814841610903386,harmless,0.333,6.576271186,0.913564256,0.118935936
105,21,0,2,10,20,236,1854.5178861186723,1861.639026034798,stimuli/196_xb.png,l,7.110282371810172,harmless,0.333,6.594366197,0.982313556,0.05213579
105,21,0,2,10,21,237,1862.1832230302389,1865.2950540041784,stimuli/158_xa.png,l,3.100385417637881,harmless,0.333,6.786885246,0.661179605,0.084655374
105,21,0,2,10,22,238,1865.856206460332,1877.66303133755,stimuli/228_ya.png,l,11.795348600950092,ambig,0.333,5.442622951,1.793735303,0.229664272
105,21,0,2,10,23,239,1878.2156672694837,1881.8790774868103,stimuli/131_xb.png,l,3.6520119225024246,harmless,0.333,6.525423729,1.119666394,0.145768149
105,21,0,2,10,24,240,1882.4339740943979,1910.039080543036,stimuli/233_yb.png,l,27.593665224616416,ambig,0.333,5.318309859,1.922973646,0.102060844
