id,age,condition,counterbalance,block,trialinblock,trial,tstart,tend,trialstim,response,RT,trialtype,ethicfreq,norm_mean,norm_sd,norm_se
005,75,1,1,0,0,practice,4.332279786467552e-06,11.935806316090748,stimuli/prac_217_1.png,a,11.92153847112786,harmless,NA,NA,NA,NA
005,75,1,1,1,1,1,6.488268914632499,19.88783237617463,stimuli/266_zb.png,a,13.387818197719753,awful,0.333,3.491525424,1.888010094,0.245797978
005,75,1,1,1,2,2,20.43632540467661,31.487719106138684,stimuli/265_yb.png,a,11.039722480578348,ambig,0.333,5.627118644,1.856008928,0.241631781
005,75,1,1,1,3,3,32.038394039380364,39.29573473078199,stimuli/136_xc.png,a,7.245518233859912,harmless,0.333,6.559322034,1.038420326,0.135190811
005,75,1,1,1,4,4,39.848178818589076,48.399727301322855,stimuli/144_xa.png,a,8.539873717352748,harmless,0.333,6.542372881,1.00553698,0.130909764
005,75,1,1,1,5,5,48.95867496158462,60.423688474460505,stimuli/319_ya.png,l,11.453298181295395,ambig,0.333,4.216666667,2.108028774,0.272145344
005,75,1,1,1,6,6,60.973314990638755,62.47182389115915,stimuli/209_ya.png,l,1.4867451259633526,ambig,0.333,5.603448276,1.825161903,0.239655499
005,75,1,1,1,7,7,63.02069264848251,74.51168697467074,stimuli/308_zb.png,l,11.479158871807158,awful,0.333,1.644067797,1.471132708,0.191525165
005,75,1,1,1,8,8,75.07619415957015,84.03164391953032,stimuli/358_za.png,l,8.94315547531005,awful,0.333,3.949152542,2.112554662,0.275031191
005,75,1,1,1,9,9,84.59381441841833,107.43164494342636,stimuli/369_za.png,l,22.825759157072753,awful,0.333,2.948275862,2.055565093,0.26990892
005,75,1,1,1,10,10,107.99124363053124,114.74361714115366,stimuli/313_zb.png,l,6.740310019580647,awful,0.333,2.101694915,1.688652955,0.219843889
005,75,1,1,1,11,11,115.37000416696537,122.17558740102686,stimuli/140_xb.png,a,6.7935102907940745,harmless,0.333,6.724137931,0.790138861,0.103750315
005,75,1,1,1,12,12,122.72792593820486,130.47961061273236,stimuli/102_xc.png,a,7.739687349530868,harmless,0.333,6.66011236,0.937292468,0.049676401
005,75,1,1,1,13,13,131.0382987287594,142.99953880684916,stimuli/268_zb.png,l,11.94921557768248,awful,0.333,2.655737705,2.048456703,0.262278005
005,75,1,1,1,14,14,143.55470554926433,148.57554195122793,stimuli/304_ya.png,l,5.00903639360331,ambig,0.333,4.034482759,2.017167697,0.264867095
005,75,1,1,1,15,15,149.1318713258952,157.41558982711285,stimuli/323_yb.png,a,8.271875169826671,ambig,0.333,4.603448276,1.955107169,0.256718148
005,75,1,1,1,16,16,157.97134221799206,186.8796037598513,stimuli/335_yb.png,a,28.89626421686262,ambig,0.333,5.016949153,2.046793332,0.266469795
005,75,1,1,1,17,17,187.43673973029945,198.06353793095332,stimuli/101_xa.png,a,10.61489697394427,harmless,0.333,6.508522727,1.13475832,0.060482822
005,75,1,1,1,18,18,198.62265100632794,208.0954642376164,stimuli/359_za.png,l,9.460856472374871,awful,0.333,2.01754386,1.641985167,0.217486248
005,75,1,1,1,19,19,208.64341848541517,216.6234327899292,stimuli/182_xb.png,a,7.9681075640255585,harmless,0.333,6.542372881,0.988241802,0.128658124
005,75,1,1,1,20,20,217.17029647913296,236.11945888760965,stimuli/273_ya.png,a,18.937252517207526,ambig,0.333,5.551724138,1.836973233,0.241206403
005,75,1,1,1,21,21,236.66989003040362,242.98341358592734,stimuli/240_xa.png,a,6.301368298358284,harmless,0.333,6.482758621,1.096107616,0.143925981
005,75,1,1,1,22,22,243.5453588052187,264.6794510264881,stimuli/289_yb.png,a,21.122247314546257,ambig,0.333,5.305084746,1.714584873,0.223219937
005,75,1,1,1,23,23,265.2361214715056,272.95139945158735,stimuli/331_za.png,l,7.703374390373938,awful,0.333,1.983606557,1.638004917,0.209725039
005,75,1,1,1,24,24,273.5037773732329,279.87937375402544,stimuli/162_xa.png,a,6.363359597628005,harmless,0.333,6.644067797,0.905209289,0.117848212
005,75,1,1,2,1,25,299.95250970241614,308.15936529415194,stimuli/255_xb.png,a,8.195168617065065,harmless,0.333,6.770491803,0.642740036,0.082294429
005,75,1,1,2,2,26,308.709334456129,323.2073096957756,stimuli/333_za.png,l,14.486027933075093,awful,0.333,3.266666667,2.185209657,0.282109354
005,75,1,1,2,3,27,323.7545589598594,337.51132109214086,stimuli/371_zb.png,a,13.744990086881444,awful,0.333,3.131147541,2.085468851,0.267016925
005,75,1,1,2,4,28,338.0665366713656,359.8953241073759,stimuli/235_ya.png,a,21.816882270853966,ambig,0.333,5.694915254,1.567495667,0.204070554
005,75,1,1,2,5,29,360.4497197001474,367.61531602567993,stimuli/285_yb.png,l,7.153661228134297,ambig,0.333,4.120689655,2.119893958,0.278355714
005,75,1,1,2,6,30,368.1756334810052,378.21526222641114,stimuli/356_za.png,l,10.027519962051883,awful,0.333,3.033333333,2.178217796,0.281206708
005,75,1,1,2,7,31,378.7772432855563,388.25530923577026,stimuli/269_za.png,a,9.466171418898739,awful,0.333,3.457627119,2.119873401,0.27598401
005,75,1,1,2,8,32,388.8092649029568,397.0632551497547,stimuli/176_xb.png,a,8.24195078026969,harmless,0.333,6.796610169,0.517942249,0.067430337
005,75,1,1,2,9,33,397.61338578839786,409.5672195997322,stimuli/307_za.png,l,11.94167304050643,awful,0.333,2.93220339,2.172432347,0.282826601
005,75,1,1,2,10,34,410.12732319685165,422.27916840289254,stimuli/279_ya.png,l,12.13994791789446,ambig,0.333,5.31147541,1.970964092,0.252356093
005,75,1,1,2,11,35,422.8296708317939,430.6952367523918,stimuli/324_za.png,l,7.853654847829603,awful,0.333,2.491525424,1.994586478,0.259673041
005,75,1,1,2,12,36,431.25928116880823,439.8311579928268,stimuli/217_yb.png,l,8.559732200810686,ambig,0.333,5.169491525,2.001314588,0.260548967
005,75,1,1,2,13,37,440.3784517614404,449.41514793236274,stimuli/233_yb.png,a,9.02486819960177,ambig,0.333,5.318309859,1.922973646,0.102060844
005,75,1,1,2,14,38,449.9647768116556,458.19913503632415,stimuli/267_ya.png,a,8.222670462331735,ambig,0.333,5.103448276,1.898195405,0.249245267
005,75,1,1,2,15,39,458.7619644389488,468.83915581554174,stimuli/115_xb.png,a,10.065238556126133,harmless,0.333,6.440677966,1.021681954,0.133011661
005,75,1,1,2,16,40,469.3946104591014,479.703128236928,stimuli/121_xc.png,a,10.296635061851703,harmless,0.333,6.508474576,1.006408455,0.131023221
005,75,1,1,2,17,41,480.2671450841008,489.6071264001075,stimuli/202_yb.png,a,9.327984778676182,ambig,0.333,5.431034483,1.892849601,0.248543329
005,75,1,1,2,18,42,490.1658826513449,498.2710965371225,stimuli/137_xa.png,a,8.093318172963336,harmless,0.333,6.355932203,1.094858074,0.14253838
005,75,1,1,2,19,43,498.8276799421292,503.67113418877125,stimuli/153_xb.png,a,4.831186349620111,harmless,0.333,6.633333333,0.973664521,0.125699549
005,75,1,1,2,20,44,504.26359180896543,510.02311873738654,stimuli/152_xa.png,a,5.747864766046405,harmless,0.333,6.576271186,0.968528743,0.126091702
005,75,1,1,2,21,45,510.5772918072762,519.591046865331,stimuli/330_ya.png,l,9.001877068192698,ambig,0.333,4.796610169,2.049219036,0.266785595
005,75,1,1,2,22,46,520.1438107556896,530.4390094625996,stimuli/310_zb.png,l,10.283306932542473,awful,0.333,3.224137931,2.102989547,0.276136056
005,75,1,1,2,23,47,530.9982871654211,538.8472205922008,stimuli/149_xa.png,a,7.837291350471787,harmless,0.333,6.721311475,0.933294301,0.11949609
005,75,1,1,2,24,48,539.4622672274709,546.5910244161496,stimuli/355_zb.png,l,7.117191518540494,awful,0.333,3.183333333,2.070713188,0.267327923
005,75,1,1,3,1,49,571.5266405048314,582.2069922562223,stimuli/213_ya.png,a,10.669027902418748,ambig,0.333,5.98245614,1.597891781,0.211645937
005,75,1,1,3,2,50,582.7578861676157,591.2229650588706,stimuli/281_ya.png,a,8.453193812281825,ambig,0.333,5.881355932,1.543448286,0.200939852
005,75,1,1,3,3,51,591.7675519265467,598.4709334062645,stimuli/283_yb.png,a,6.691458591492847,ambig,0.333,5.949152542,1.478859402,0.192531095
005,75,1,1,3,4,52,599.0185532791074,606.422990579973,stimuli/303_zb.png,l,7.392525834264234,awful,0.333,3.620689655,2.158846233,0.283470398
005,75,1,1,3,5,53,606.9755677875364,612.8629251859384,stimuli/360_za.png,l,5.87548649776727,awful,0.333,3.2,2.207844259,0.285031468
005,75,1,1,3,6,54,613.4124528468819,621.6229692335473,stimuli/220_yb.png,a,8.198644698481075,ambig,0.333,4.75,2.096203186,0.270618668
005,75,1,1,3,7,55,622.1792765528662,628.3029058717657,stimuli/160_xb.png,a,6.111716670682654,harmless,0.333,6.666666667,0.680644427,0.087870818
005,75,1,1,3,8,56,628.856536616222,640.8468783403514,stimuli/254_ya.png,a,11.978546048048884,ambig,0.333,5.983606557,1.627798137,0.208418195
005,75,1,1,3,9,57,641.4048717126716,648.1828845725395,stimuli/108_xb.png,a,6.766090365475975,harmless,0.333,6.568965517,1.077880782,0.141532681
005,75,1,1,3,10,58,648.7359308501473,654.6949504266959,stimuli/132_xc.png,a,5.947082509868778,harmless,0.333,6.627118644,0.692280217,0.090127208
005,75,1,1,3,11,59,655.2453410034068,659.0468550246442,stimuli/346_zb.png,l,3.789621853036806,awful,0.333,1.288135593,0.983499162,0.128040685
005,75,1,1,3,12,60,659.6064938839991,667.15091809351,stimuli/264_xa.png,a,7.5321693094447255,harmless,0.333,6.533333333,0.947193297,0.122282129
005,75,1,1,3,13,61,667.7067654011771,671.4068342454266,stimuli/300_za.png,l,3.6885185340652242,awful,0.333,3.75,2.12032137,0.273732312
005,75,1,1,3,14,62,671.967769250623,681.8468570726691,stimuli/336_ya.png,l,9.867180293891579,ambig,0.333,5.033898305,1.884291705,0.245313885
005,75,1,1,3,15,63,682.4092544266023,696.2068150257692,stimuli/363_zb.png,l,13.785454178927466,awful,0.333,2.433333333,2.019956927,0.260775318
005,75,1,1,3,16,64,696.7563785265666,704.1988242921652,stimuli/225_ya.png,a,7.430566594237462,ambig,0.333,5.85,1.792876677,0.231459384
005,75,1,1,3,17,65,704.7587975263596,733.8787806225009,stimuli/278_xb.png,a,29.107906214310788,harmless,0.333,6.360655738,1.140654591,0.146045855
005,75,1,1,3,18,66,734.429126694682,746.4227267034585,stimuli/142_xa.png,a,11.981668455991894,harmless,0.333,6.4,1.076718178,0.139003719
005,75,1,1,3,19,67,746.9817499821074,758.0707653916907,stimuli/361_za.png,l,11.077361124102026,awful,0.333,2.416666667,1.907093508,0.246204713
005,75,1,1,3,20,68,758.6305503677577,767.9827314453432,stimuli/218_yb.png,a,9.340479924459942,ambig,0.333,5.850282486,1.552723069,0.0825263
005,75,1,1,3,21,69,768.5427783287596,778.1186928579118,stimuli/177_xb.png,a,9.563938078004867,harmless,0.333,6.482758621,1.063614811,0.139659467
005,75,1,1,3,22,70,778.6703102637548,786.0866854189662,stimuli/367_zb.png,l,7.404343171860091,awful,0.333,3.413793103,2.086165649,0.27392697
005,75,1,1,3,23,71,786.6499488394475,793.0306699392386,stimuli/274_xb.png,a,6.36884901765734,harmless,0.333,6.491525424,1.179901828,0.153610134
005,75,1,1,3,24,72,793.5779333817773,799.7586301419651,stimuli/305_zb.png,l,6.168787656584755,awful,0.333,2.75,2.12830003,0.274762352
005,75,1,1,4,1,73,824.2108641524101,824.2306730112759,stimuli/316_za.png,a,0.008492099004797637,awful,0.333,2.344827586,1.802062407,0.236622386
005,75,1,1,4,2,74,824.7880425321637,837.2945866708178,stimuli/341_zb.png,a,12.494634247384965,awful,0.333,3.603448276,2.15975677,0.283589957
005,75,1,1,4,3,75,837.8584219551412,846.6306125953561,stimuli/216_xa.png,a,8.760047198389657,harmless,0.333,6.603448276,0.877389573,0.115206895
005,75,1,1,4,4,76,847.1932001768146,856.9666436398402,stimuli/237_ya.png,a,9.761504033347592,ambig,0.333,4.305084746,2.019339575,0.26289562
005,75,1,1,4,5,77,857.522484645946,869.598612639471,stimuli/342_yb.png,l,12.063953831791878,ambig,0.333,4.916666667,2.085394461,0.269223267
005,75,1,1,4,6,78,870.1579632038483,875.1186196026392,stimuli/199_za.png,l,4.949300648295321,awful,0.333,3.033898305,2.189048775,0.284989876
005,75,1,1,4,7,79,875.6703634328442,882.806576512754,stimuli/322_za.png,l,7.124239779426716,awful,0.333,2.406779661,1.975004531,0.257123689
005,75,1,1,4,8,80,883.3627251123544,883.7985152808251,stimuli/296_yb.png,a,0.42372431431431323,ambig,0.333,4.229508197,2.052587332,0.262806878
005,75,1,1,4,9,81,884.3467566419858,893.5665161914658,stimuli/109_xb.png,a,9.207884710398503,harmless,0.333,6.644067797,0.97843492,0.127381377
005,75,1,1,4,10,82,894.1234331837622,902.7665621925844,stimuli/141_xc.png,a,8.63123959756922,harmless,0.333,6.508474576,1.040107444,0.135410455
005,75,1,1,4,11,83,903.3210011082701,908.84655066079,stimuli/124_xa.png,a,5.513739304151386,harmless,0.333,6.344262295,1.181598436,0.151288177
005,75,1,1,4,12,84,909.4091780206654,919.246495758649,stimuli/229_za.png,l,9.825210136245005,awful,0.333,3.406779661,2.043649913,0.266060557
005,75,1,1,4,13,85,919.8034816740546,924.5744966850616,stimuli/184_xb.png,a,4.759082670556381,harmless,0.333,6.508474576,1.194425,0.15550089
005,75,1,1,4,14,86,925.1232476824662,931.8785336812725,stimuli/105_xa.png,a,6.743381227599457,harmless,0.333,6.557377049,1.088187946,0.139328189
005,75,1,1,4,15,87,932.4232721796725,939.6385111691197,stimuli/343_zb.png,l,7.203232212224975,awful,0.333,3.103448276,2.141401862,0.28117984
005,75,1,1,4,16,88,940.1880325285019,948.430478766677,stimuli/116_xa.png,a,8.23079982958734,harmless,0.333,6.63559322,0.958030802,0.050918763
005,75,1,1,4,17,89,948.9906178099336,959.470539954491,stimuli/261_yb.png,l,10.468110714689828,ambig,0.333,5.706896552,1.901141123,0.249632059
005,75,1,1,4,18,90,960.0166411586106,969.3904766555643,stimuli/191_ya.png,l,9.362004374735989,ambig,0.333,5.517241379,2.062542966,0.270825159
005,75,1,1,4,19,91,969.9560771560064,983.9424390700879,stimuli/332_zb.png,l,13.974204293917865,awful,0.333,2.694915254,2.002190501,0.260663001
005,75,1,1,4,20,92,984.5009672848973,989.5664307269035,stimuli/232_yb.png,l,5.053372381837107,ambig,0.333,5.483333333,1.845669845,0.238274952
005,75,1,1,4,21,93,990.1276284272317,996.47837984527,stimuli/169_xc.png,a,6.338816714589484,harmless,0.333,6.603448276,0.916508538,0.120343467
005,75,1,1,4,22,94,997.0327545640757,1003.206378644798,stimuli/298_za.png,l,6.162000908982009,awful,0.333,2.881355932,2.026418156,0.263817173
005,75,1,1,4,23,95,1003.7612456707284,1012.4064238582505,stimuli/249_ya.png,a,8.633106819586828,ambig,0.333,5.327868852,1.859402337,0.238072074
005,75,1,1,4,24,96,1012.9512749963906,1019.3823630422121,stimuli/287_ya.png,l,6.418937121052295,ambig,0.333,5.950819672,1.407435369,0.180203633
005,75,1,1,5,1,97,1047.1532685641432,1053.5103222996695,stimuli/135_xa.png,a,6.345299413311295,harmless,0.25,6.508474576,1.179901828,0.153610134
005,75,1,1,5,2,98,1054.0676327437395,1057.7665054787649,stimuli/320_za.png,l,3.6870991142932326,awful,0.25,1.423728814,1.117314975,0.14546202
005,75,1,1,5,3,99,1058.335331968614,1072.574324180605,stimuli/203_yb.png,a,14.226467527798377,ambig,0.25,6,1.542501327,0.200816568
005,75,1,1,5,4,100,1073.1319107104791,1081.1822890780168,stimuli/242_xb.png,a,8.038618137594312,harmless,0.25,6.576271186,0.913564256,0.118935936
005,75,1,1,5,5,101,1081.7412859689211,1089.694350599777,stimuli/205_yb.png,a,7.941273287055083,ambig,0.25,5.847457627,1.52918233,0.199082582
005,75,1,1,5,6,102,1090.2625752934255,1098.7584800868062,stimuli/334_za.png,l,8.484185129520483,awful,0.25,3.333333333,2.214487481,0.285889104
005,75,1,1,5,7,103,1099.3351834887872,1109.3262420118554,stimuli/198_yb.png,a,9.979032447328791,ambig,0.25,5.101694915,1.83542643,0.238952168
005,75,1,1,5,8,104,1109.8826438541291,1119.038195935078,stimuli/326_zb.png,l,9.143655186635442,awful,0.25,3.389830508,2.220724867,0.289113752
005,75,1,1,5,9,105,1119.5967690481339,1125.374251004192,stimuli/129_xa.png,a,5.765647289226763,harmless,0.25,6.770491803,0.642740036,0.082294429
005,75,1,1,5,10,106,1125.926561578177,1138.77422564046,stimuli/119_xc.png,a,12.836174798081629,harmless,0.25,6.694915254,0.914523379,0.119060803
005,75,1,1,5,11,107,1139.335739992559,1146.1181395049207,stimuli/197_xa.png,a,6.770547122461721,harmless,0.25,6.779661017,0.55918033,0.072799078
005,75,1,1,5,12,108,1146.6706800847314,1158.5022315292154,stimuli/222_ya.png,a,11.81964509782847,ambig,0.25,5.931034483,1.543089507,0.202617579
005,75,1,1,5,13,109,1159.0504744658247,1165.1741931876168,stimuli/128_xc.png,a,6.111808830522932,harmless,0.25,6.627118644,0.98082135,0.127692063
005,75,1,1,5,14,110,1165.737902835128,1180.6621722318232,stimuli/234_xb.png,a,14.912348477751948,harmless,0.25,6.637931034,0.788030542,0.103473479
005,75,1,1,5,15,111,1181.2227555329446,1190.6621840472799,stimuli/210_yb.png,a,9.427358721732162,ambig,0.25,5.557377049,1.76564049,0.226067099
005,75,1,1,5,16,112,1191.2168521811254,1202.4221347535495,stimuli/258_ya.png,a,11.193474293337204,ambig,0.25,5.627118644,1.78014243,0.231754804
005,75,1,1,5,17,113,1202.975841116393,1210.6381141727325,stimuli/292_zb.png,l,7.650324961985461,awful,0.25,2.396551724,1.955107169,0.256718148
005,75,1,1,5,18,114,1211.1870301914169,1221.3740698351758,stimuli/248_zb.png,a,10.175374724436551,awful,0.25,3.288135593,1.991800844,0.259310383
005,75,1,1,5,19,115,1221.923857040354,1228.7980477861129,stimuli/236_yb.png,a,6.8624013712396845,ambig,0.25,5.93442623,1.49297078,0.19115532
005,75,1,1,5,20,116,1229.3490236173384,1240.7980761430226,stimuli/118_xb.png,a,11.437123729730956,harmless,0.25,6.474576271,0.953323265,0.124112118
005,75,1,1,5,21,117,1241.3466652698116,1251.8220767006278,stimuli/286_ya.png,l,10.463560616364703,ambig,0.25,5.06779661,1.779814082,0.231712057
005,75,1,1,5,22,118,1252.376180059975,1260.8300768865738,stimuli/188_xa.png,a,8.441646258928813,harmless,0.25,6.655172414,0.806807095,0.105938962
005,75,1,1,5,23,119,1261.3810231793905,1267.6940599418012,stimuli/328_za.png,l,6.30126983707305,awful,0.25,2.706896552,1.955725922,0.256799395
005,75,1,1,5,24,120,1268.2428396899486,1274.7579901429126,stimuli/131_xb.png,a,6.503256315598264,harmless,0.25,6.525423729,1.119666394,0.145768149
005,75,1,1,6,1,121,1284.8320063361898,1292.49401748518,stimuli/170_xc.png,a,7.650668789166957,harmless,0.166,6.583333333,1.062323432,0.137145365
005,75,1,1,6,2,122,1293.0519399653422,1299.3579855742864,stimuli/294_za.png,l,6.2941258715,awful,0.166,1.557377049,1.38473331,0.177296933
005,75,1,1,6,3,123,1299.9034349638969,1310.8060716027394,stimuli/311_za.png,l,10.890708236838691,awful,0.166,3.116666667,1.975199339,0.254997138
005,75,1,1,6,4,124,1311.3572616860038,1319.0860056414967,stimuli/145_xa.png,a,7.7170794300036505,harmless,0.166,6.661016949,0.822321556,0.107057148
005,75,1,1,6,5,125,1319.645065941615,1325.1819487953326,stimuli/178_xa.png,a,5.524935547146015,harmless,0.166,6.483333333,1.112207557,0.143585378
005,75,1,1,6,6,126,1325.7320290217176,1332.917899731663,stimuli/139_xa.png,a,7.173942307941616,harmless,0.166,6.724137931,0.790138861,0.103750315
005,75,1,1,6,7,127,1333.4769289180404,1342.0299106049351,stimuli/224_yb.png,a,8.540965063497424,ambig,0.166,5.881355932,1.609077116,0.209483997
005,75,1,1,6,8,128,1342.5773926317925,1349.7019797831308,stimuli/263_ya.png,l,7.112639056984335,ambig,0.166,4.983050847,2.071910042,0.269739712
005,75,1,1,6,9,129,1350.255993345636,1357.9661706312327,stimuli/368_za.png,a,7.698441867949441,awful,0.166,3.590163934,2.02794682,0.259651984
005,75,1,1,6,10,130,1358.5174989543157,1366.1818885370158,stimuli/165_xb.png,a,7.652691186522134,harmless,0.166,6.557377049,1.008705278,0.129151477
005,75,1,1,6,11,131,1366.7515870009083,1377.9819114587735,stimuli/253_ya.png,a,11.218211736064404,ambig,0.166,5.491803279,1.849531029,0.236808182
005,75,1,1,6,12,132,1378.538837903412,1387.2859165535774,stimuli/280_xb.png,a,8.735111651243642,harmless,0.166,6.333333333,1.068289726,0.137915611
005,75,1,1,6,13,133,1387.8449130507652,1392.909827865893,stimuli/260_ya.png,a,5.053013982367702,ambig,0.166,4.966101695,2.016877936,0.262575142
005,75,1,1,6,14,134,1393.4591424562968,1401.317818835727,stimuli/277_yb.png,a,7.846819263417274,ambig,0.166,5.491525424,2.02886822,0.264136144
005,75,1,1,6,15,135,1401.8669794326415,1408.4378614026355,stimuli/315_yb.png,a,6.559053210890852,ambig,0.166,5.050847458,1.915667965,0.249398726
005,75,1,1,6,16,136,1408.9937406117097,1419.5818919240264,stimuli/352_zb.png,l,10.576229999540374,awful,0.166,2.93442623,2.135952968,0.273480754
005,75,1,1,6,17,137,1420.1419139951468,1424.8778235777281,stimuli/113_xb.png,a,4.723967395955697,harmless,0.166,6.733333333,0.660422737,0.085260209
005,75,1,1,6,18,138,1425.4280223515816,1434.565822235425,stimuli/138_xc.png,a,9.125854152604006,harmless,0.166,6.661016949,0.70978796,0.092406522
005,75,1,1,6,19,139,1435.1262346075382,1440.4617709818995,stimuli/257_yb.png,a,5.3235142370685935,ambig,0.166,5.620689655,1.843219782,0.242026615
005,75,1,1,6,20,140,1441.0237933949102,1452.6857407409698,stimuli/284_ya.png,a,11.650367103517056,ambig,0.166,5.948275862,1.431750417,0.18799804
005,75,1,1,6,21,141,1453.2430996280164,1460.677767730318,stimuli/175_xb.png,a,7.42275584791787,harmless,0.166,6.6,1.028409995,0.13276716
005,75,1,1,6,22,142,1461.2276293723844,1467.3177451866213,stimuli/125_xc.png,a,6.078227978316136,harmless,0.166,6.683333333,0.999858747,0.129081209
005,75,1,1,6,23,143,1467.8806257891702,1472.2537259764504,stimuli/179_xb.png,a,4.361234800540842,harmless,0.166,6.704918033,0.882123617,0.112944356
005,75,1,1,6,24,144,1472.8119328131434,1477.9417703202926,stimuli/148_xc.png,a,5.117900046752766,harmless,0.166,6.491525424,1.135218061,0.147792803
005,75,1,1,7,1,145,1504.4350454064552,1513.7816571133444,stimuli/239_ya.png,a,9.335023193620145,ambig,0.083,5.157894737,1.925296579,0.255011762
005,75,1,1,7,2,146,1514.4015929480083,1520.1656951808836,stimuli/161_xc.png,a,5.752366815228015,harmless,0.083,6.796610169,0.609682252,0.079373868
005,75,1,1,7,3,147,1520.7259535592748,1527.8536895063007,stimuli/159_xa.png,a,7.115674031316303,harmless,0.083,6.389830508,1.174689235,0.152931512
005,75,1,1,7,4,148,1528.41384548496,1536.0376638496527,stimuli/282_xc.png,a,7.611631993786432,harmless,0.083,6.55,0.998728005,0.128935231
005,75,1,1,7,5,149,1536.5936604248127,1542.037660305039,stimuli/206_xa.png,l,5.431900943047367,harmless,0.083,6.325842697,1.136094431,0.060212884
005,75,1,1,7,6,150,1542.688928921125,1550.2776804541936,stimuli/196_xb.png,a,7.57708661374636,harmless,0.083,6.594366197,0.982313556,0.05213579
005,75,1,1,7,7,151,1550.8416953320848,1558.2696282806573,stimuli/185_xa.png,a,7.415746183833107,harmless,0.083,6.5,0.965506805,0.124646393
005,75,1,1,7,8,152,1558.8222744112136,1570.3976221965859,stimuli/183_xb.png,a,11.56340323574841,harmless,0.083,6.448275862,1.095003225,0.143780967
005,75,1,1,7,9,153,1570.957850248902,1580.677592075197,stimuli/259_xc.png,a,9.707694876706228,harmless,0.083,6.568965517,0.993170874,0.130409725
005,75,1,1,7,10,154,1581.232836405281,1593.1575918074232,stimuli/318_za.png,l,11.912866384722292,awful,0.083,3.06557377,2.197489875,0.281359747
005,75,1,1,7,11,155,1593.70885947824,1599.1656006579287,stimuli/187_xc.png,a,5.444422082742676,harmless,0.083,6.224137931,1.185335891,0.155642228
005,75,1,1,7,12,156,1599.7205913513899,1606.4295071494998,stimuli/246_ya.png,a,6.697074042167515,ambig,0.083,5.542372881,1.715266481,0.223308675
005,75,1,1,7,13,157,1606.988686784869,1616.4455693550408,stimuli/339_ya.png,l,9.444850980653428,ambig,0.083,4.949152542,1.960152429,0.25519011
005,75,1,1,7,14,158,1617.0071412086254,1635.8134991370607,stimuli/270_yb.png,l,18.794514203211293,ambig,0.083,5.534482759,1.912246013,0.251090203
005,75,1,1,7,15,159,1636.3669239004375,1645.757506500464,stimuli/309_ya.png,a,9.378696733387187,ambig,0.083,4.706896552,1.946734744,0.255618795
005,75,1,1,7,16,160,1646.3153498176252,1653.5494863071945,stimuli/168_xa.png,a,7.222332936595194,harmless,0.083,6.474576271,1.164946827,0.151663159
005,75,1,1,7,17,161,1654.1079042451456,1660.8294652443146,stimuli/163_xa.png,a,6.7095691880676895,harmless,0.083,6.627118644,0.963082427,0.125382652
005,75,1,1,7,18,162,1661.3931315689115,1674.0054823309183,stimuli/350_ya.png,l,12.600357769289985,ambig,0.083,4.915254237,2.02814792,0.264042369
005,75,1,1,7,19,163,1674.5617124565179,1682.5494894579751,stimuli/366_za.png,l,7.975691061234102,awful,0.083,3.689655172,2.036568291,0.267414518
005,75,1,1,7,20,164,1683.106132727582,1690.9894409992266,stimuli/214_xb.png,a,7.871345998952165,harmless,0.083,6.465517241,0.940614156,0.12350869
005,75,1,1,7,21,165,1691.5496080054436,1699.4774881787598,stimuli/120_xa.png,a,7.916045112651773,harmless,0.083,6.440677966,1.054893138,0.137335389
005,75,1,1,7,22,166,1700.0441111023538,1706.2613945442718,stimuli/154_xc.png,l,6.205178990960121,harmless,0.083,6.5,0.965506805,0.124646393
005,75,1,1,7,23,167,1706.830128874164,1720.9814085179241,stimuli/325_yb.png,l,14.139218909549527,ambig,0.083,5.131147541,1.811770863,0.231973488
005,75,1,1,7,24,168,1721.5333473017672,1729.213402881287,stimuli/147_ya.png,a,7.668196494341828,ambig,0.083,5.883333333,1.766847875,0.22809908
005,75,1,1,8,1,169,1751.1598934411304,1757.4294118388789,stimuli/134_xc.png,a,6.257890106062405,harmless,0.0412,6.516666667,0.965360505,0.124627505
005,75,1,1,8,2,170,1757.9884134560125,1768.589374203002,stimuli/275_yb.png,a,10.589011471136473,ambig,0.0412,4.836065574,2.138382004,0.27379176
005,75,1,1,8,3,171,1769.142005761154,1775.3253846099833,stimuli/123_xc.png,a,6.17147762211971,harmless,0.0412,6.491525424,1.023396666,0.133234897
005,75,1,1,8,4,172,1775.8871376325842,1781.9093410726637,stimuli/127_xb.png,a,6.010282915085554,harmless,0.0412,6.423728814,1.162686987,0.151368953
005,75,1,1,8,5,173,1782.4566742258612,1787.6853654060978,stimuli/117_xc.png,a,5.217035713139921,harmless,0.0412,6.627118644,0.868972939,0.113130641
005,75,1,1,8,6,174,1788.2374306143029,1792.9892818855587,stimuli/114_xc.png,a,4.739846857031807,harmless,0.0412,6.644067797,0.97843492,0.127381377
005,75,1,1,8,7,175,1793.554298706702,1799.9093142912025,stimuli/231_xb.png,a,6.343074579373933,harmless,0.0412,6.62295082,1.05141071,0.134619347
005,75,1,1,8,8,176,1800.467753890669,1808.9652687248308,stimuli/173_yb.png,a,8.440864869160578,ambig,0.0412,5.796610169,1.242628763,0.161776485
005,75,1,1,8,9,177,1809.5268244307954,1822.7652691974072,stimuli/228_ya.png,a,13.226547872298397,ambig,0.0412,5.442622951,1.793735303,0.229664272
005,75,1,1,8,10,178,1823.3139008596772,1830.9252374692587,stimuli/238_xb.png,a,7.599543690448627,harmless,0.0412,6.4,1.076718178,0.139003719
005,75,1,1,8,11,179,1831.4799871291034,1848.5972463890212,stimuli/230_yb.png,a,17.10541435307823,ambig,0.0412,4.98245614,1.875511626,0.248417583
005,75,1,1,8,12,180,1849.1829200186767,1908.99718321627,stimuli/155_xb.png,a,59.80242971237749,harmless,0.0412,6.655737705,0.892286312,0.114245555
005,75,1,1,8,13,181,1909.551737922593,1917.2771298580337,stimuli/271_ya.png,a,7.71342966274824,ambig,0.0412,5.711864407,1.771915459,0.230683744
005,75,1,1,8,14,182,1917.8359034385066,1924.3811224284582,stimuli/221_xb.png,a,6.533367387834005,harmless,0.0412,6.440677966,1.133672495,0.147591588
005,75,1,1,8,15,183,1924.9294756418094,1931.5331704650307,stimuli/151_xa.png,a,6.591838888707571,harmless,0.0412,6.610169492,0.947172729,0.123311386
005,75,1,1,8,16,184,1932.0889933542348,1938.3810771362623,stimuli/251_ya.png,a,6.280035650939681,ambig,0.0412,5.655172414,1.792300532,0.235340589
005,75,1,1,8,17,185,1938.9365487152245,1945.9330730276415,stimuli/247_ya.png,a,6.984411590732634,ambig,0.0412,4.65,2.081598147,0.268733165
005,75,1,1,8,18,186,1946.4904850838939,1951.0691518062958,stimuli/112_xc.png,a,4.5667855818755925,harmless,0.0412,6.706896552,0.749470472,0.098410294
005,75,1,1,8,19,187,1951.6293026648927,1955.77306812827,stimuli/143_xb.png,a,4.131673615425825,harmless,0.0412,6.655172414,0.738697862,0.096995781
005,75,1,1,8,20,188,1956.329029651126,1964.5410351681057,stimuli/146_xa.png,a,8.200053878128529,harmless,0.0412,6.442622951,1.162247681,0.148810567
005,75,1,1,8,21,189,1965.1021808807272,1973.0930239702575,stimuli/329_zb.png,l,7.979164385586046,awful,0.0412,2.406779661,1.992387617,0.259386774
005,75,1,1,8,22,190,1973.6389554269845,1977.2770345474128,stimuli/150_xc.png,a,3.6261192108504474,harmless,0.0412,6.482758621,1.030097582,0.135258439
005,75,1,1,8,23,191,1977.8342051762156,1985.5730930193095,stimuli/110_xa.png,a,7.727073656278662,harmless,0.0412,6.428571429,1.059281795,0.141552484
005,75,1,1,8,24,192,1986.1322809254052,1994.1410593502223,stimuli/250_yb.png,a,7.996759832138196,ambig,0.0412,5.950819672,1.585625318,0.203018519
005,75,1,1,9,1,193,2007.0327025764855,2011.9730920740403,stimuli/158_xa.png,a,4.928610756876878,harmless,0.0412,6.786885246,0.661179605,0.084655374
005,75,1,1,9,2,194,2012.5353574897163,2031.8530191810569,stimuli/172_xb.png,a,19.305631283321418,harmless,0.0412,6.482758621,1.127664553,0.14806961
005,75,1,1,9,3,195,2032.4195495509775,2039.7809643389191,stimuli/272_xb.png,a,7.349290250916965,harmless,0.0412,6.355932203,1.029943284,0.134087194
005,75,1,1,9,4,196,2040.3352516239975,2053.9729944003047,stimuli/288_yb.png,a,13.625926226377487,ambig,0.0412,5.189655172,1.914459262,0.251380817
005,75,1,1,9,5,197,2054.5208174975123,2065.3809637087397,stimuli/245_yb.png,l,10.848200479988009,ambig,0.0412,4.949152542,2.096168334,0.272897873
005,75,1,1,9,6,198,2065.92767064739,2073.6449135233415,stimuli/227_xa.png,a,7.7053396799601614,harmless,0.0412,6.180327869,1.05685377,0.135316259
005,75,1,1,9,7,199,2074.1956782534253,2078.3409277269384,stimuli/190_xc.png,a,4.133377391495742,harmless,0.0412,6.517241379,1.046990328,0.137476565
005,75,1,1,9,8,200,2078.8930378336227,2084.0368627676507,stimuli/130_xc.png,a,5.13195994112175,harmless,0.0412,6.644067797,0.960651931,0.125066229
005,75,1,1,9,9,201,2084.590557315154,2094.0848981476156,stimuli/312_yb.png,a,9.482649525511079,ambig,0.0412,4.677966102,2.112692986,0.275049199
005,75,1,1,9,10,202,2094.6459611526225,2105.43684725021,stimuli/276_ya.png,l,10.779070729156956,ambig,0.0412,5.186440678,1.804922162,0.234980851
005,75,1,1,9,11,203,2106.000050412258,2110.2288735306356,stimuli/195_xc.png,a,4.2168789624702185,harmless,0.0412,6.637640449,1.001766915,0.05309354
005,75,1,1,9,12,204,2110.7867322078673,2119.492903296021,stimuli/241_yb.png,a,8.694003621814772,ambig,0.0412,5.508474576,1.442852555,0.187843403
005,75,1,1,9,13,205,2120.03727354866,2130.1328382169595,stimuli/107_xa.png,a,10.083560647908598,harmless,0.0412,6.813559322,0.540580029,0.070377525
005,75,1,1,9,14,206,2130.692246282706,2136.3728280399228,stimuli/215_yb.png,a,5.6684615523554385,ambig,0.0412,5.866666667,1.466769385,0.189359113
005,75,1,1,9,15,207,2136.922480156063,2143.052824936458,stimuli/186_xa.png,a,6.118384476867504,harmless,0.0412,6.65,0.879618561,0.113558268
005,75,1,1,9,16,208,2143.6069034833927,2151.1087951238733,stimuli/166_xa.png,a,7.489827361656353,harmless,0.0412,6.593220339,1.052397002,0.13701042
005,75,1,1,9,17,209,2151.6668621454155,2167.748810389312,stimuli/180_xc.png,a,16.069979669642635,harmless,0.0412,6.672131148,0.723908638,0.092687003
005,75,1,1,9,18,210,2168.3126448859693,2174.988743104739,stimuli/174_xc.png,a,6.66404733073432,harmless,0.0412,6.533333333,1.111826512,0.143536185
005,75,1,1,9,19,211,2175.5499222943326,2190.660782744526,stimuli/133_xa.png,a,15.098908811341971,harmless,0.0412,6.568965517,1.186356193,0.1557762
005,75,1,1,9,20,212,2191.2225905116647,2199.636730593047,stimuli/223_yb.png,a,8.402332589961588,ambig,0.0412,5.542372881,1.77455224,0.231027024
005,75,1,1,9,21,213,2200.193637345452,2207.220741800382,stimuli/181_xa.png,a,7.0151705391472206,harmless,0.0412,6.666666667,0.950765377,0.122743282
005,75,1,1,9,22,214,2207.768482583808,2214.1727276880993,stimuli/208_xb.png,a,6.392491175909527,harmless,0.0412,6.216666667,1.165778516,0.150501359
005,75,1,1,9,23,215,2214.722461724188,2221.8527277352987,stimuli/189_yb.png,a,7.118498691939749,ambig,0.0412,5.983333333,1.455459234,0.187898979
005,75,1,1,9,24,216,2222.4102768498706,2233.4207279370166,stimuli/353_zb.png,l,10.998516777413897,awful,0.0412,1.949152542,1.623361018,0.211343603
005,75,1,1,10,1,217,2252.745207883534,2259.020648931619,stimuli/164_xb.png,a,6.2634571137605235,harmless,0.0412,6.830508475,0.460604639,0.059965616
005,75,1,1,10,2,218,2259.5816445890814,2265.2606604160974,stimuli/106_xc.png,a,5.667192187975161,harmless,0.0412,6.661016949,0.863237081,0.112383896
005,75,1,1,10,3,219,2265.8193532582372,2270.6446075052954,stimuli/122_xa.png,a,4.813315605046228,harmless,0.0412,6.457627119,1.039264227,0.135300678
005,75,1,1,10,4,220,2271.2132374660578,2281.084639391047,stimuli/204_xb.png,a,9.85953890136443,harmless,0.0412,6.508474576,0.858484658,0.111765183
005,75,1,1,10,5,221,2281.6453995287884,2290.3966675148113,stimuli/200_ya.png,a,8.739369910093956,ambig,0.0412,5.862068966,1.444266048,0.189641423
005,75,1,1,10,6,222,2290.9558644792996,2302.3405775981955,stimuli/212_ya.png,l,11.373175411717966,ambig,0.0412,5.677966102,1.490668422,0.194068498
005,75,1,1,10,7,223,2302.8952516397694,2309.8126007752726,stimuli/157_xc.png,a,6.905637348536402,harmless,0.0412,6.603448276,0.877389573,0.115206895
005,75,1,1,10,8,224,2310.3653327641077,2322.3005660349736,stimuli/201_yb.png,a,11.923452167073265,ambig,0.0412,5.898305085,1.626238682,0.211718243
005,75,1,1,10,9,225,2322.8614372372394,2330.076538774534,stimuli/262_ya.png,a,7.203231424442492,ambig,0.0412,5.491525424,1.7750462,0.231091332
005,75,1,1,10,10,226,2330.6476633533603,2337.428616270772,stimuli/171_xa.png,a,6.769454988650978,harmless,0.0412,6.465517241,1.046556882,0.137419651
005,75,1,1,10,11,227,2337.9883980960585,2344.612575254054,stimuli/219_ya.png,a,6.612244029878639,ambig,0.0412,5.271186441,1.998538332,0.260187529
005,75,1,1,10,12,228,2345.176438895287,2349.892523471266,stimuli/111_xa.png,a,4.704101823270321,harmless,0.0412,6.590163934,0.863655973,0.110579816
005,75,1,1,10,13,229,2350.439833387616,2355.220496434602,stimuli/243_ya.png,a,4.7688110510353,ambig,0.0412,5.830508475,1.652088985,0.215083666
005,75,1,1,10,14,230,2355.783377037151,2363.620506517007,stimuli/226_yb.png,a,7.825149877928197,ambig,0.0412,5.683333333,1.712285287,0.22105508
005,75,1,1,10,15,231,2364.1780304253334,2369.4685088926926,stimuli/156_xc.png,a,5.278544157627039,harmless,0.0412,6.590163934,0.955284411,0.122311635
005,75,1,1,10,16,232,2370.0226760549704,2374.3724794866284,stimuli/103_xb.png,a,4.337769479025155,harmless,0.0412,6.779661017,0.589207434,0.076708274
005,75,1,1,10,17,233,2374.9203128237277,2389.3564617856173,stimuli/126_xa.png,a,14.423955107922666,harmless,0.0412,6.6,0.977717855,0.126222832
005,75,1,1,10,18,234,2389.9144405856496,2398.396475318121,stimuli/244_xb.png,a,8.46999329677783,harmless,0.0412,6.610169492,0.743174671,0.096753101
005,75,1,1,10,19,235,2398.94412748632,2405.052454327699,stimuli/104_xc.png,a,6.096457910141908,harmless,0.0412,6.745762712,0.756425814,0.098478253
005,75,1,1,10,20,236,2405.6216951430542,2413.3484474212164,stimuli/207_yb.png,a,7.714925882173702,ambig,0.0412,5.655737705,1.662179753,0.212820309
005,75,1,1,10,21,237,2413.8959030604456,2422.3404653522884,stimuli/167_xb.png,a,8.43269099749159,harmless,0.0412,6.590163934,0.955284411,0.122311635
005,75,1,1,10,22,238,2422.892419495969,2430.5084377484163,stimuli/193_xc.png,a,7.604235573206097,harmless,0.0412,6.482758621,1.012923151,0.133003326
005,75,1,1,10,23,239,2431.066929729306,2437.75639428047,stimuli/194_xb.png,a,6.677568050683476,harmless,0.0412,6.586206897,1.026567825,0.134794959
005,75,1,1,10,24,240,2438.3027266719146,2444.7003847084707,stimuli/317_za.png,l,6.38580446515698,awful,0.0412,3.65,2.03215674,0.262350307
