id,age,condition,counterbalance,block,trialinblock,trial,tstart,tend,trialstim,response,RT,trialtype,ethicfreq,norm_mean,norm_sd,norm_se
129,23,0,2,0,0,practice,4.7262292355299e-06,8.86376413074322,stimuli/prac_217_1.png,l,8.848853535717353,harmless,NA,NA,NA,NA
129,23,0,2,1,1,1,4.772298249881715,18.232308560749516,stimuli/280_xb.png,l,13.448574220528826,harmless,0.333,6.333333333,1.068289726,0.137915611
129,23,0,2,1,2,2,18.904878445668146,26.32069496391341,stimuli/256_zb.png,a,7.403330435743555,awful,0.333,3.051724138,2.012438634,0.264246138
129,23,0,2,1,3,3,26.931625672150403,41.19223833014257,stimuli/181_xa.png,l,14.248892998788506,harmless,0.333,6.666666667,0.950765377,0.122743282
129,23,0,2,1,4,4,41.80718586803414,47.72021809592843,stimuli/154_xc.png,l,5.900977800134569,harmless,0.333,6.5,0.965506805,0.124646393
129,23,0,2,1,5,5,48.32242749026045,55.24020476825535,stimuli/192_za.png,a,6.90595403756015,awful,0.333,2.68852459,2.093967396,0.268105052
129,23,0,2,1,6,6,55.8739442480728,77.77625324577093,stimuli/226_yb.png,l,21.890127357793972,ambig,0.333,5.683333333,1.712285287,0.22105508
129,23,0,2,1,7,7,78.38643643516116,85.19214656413533,stimuli/331_za.png,a,6.7942968814168125,awful,0.333,1.983606557,1.638004917,0.209725039
129,23,0,2,1,8,8,85.81335151847452,103.4561781946104,stimuli/223_yb.png,a,17.630718291271478,ambig,0.333,5.542372881,1.77455224,0.231027024
129,23,0,2,1,9,9,104.11695358972065,113.71216080570593,stimuli/359_za.png,a,9.583445021416992,awful,0.333,2.01754386,1.641985167,0.217486248
129,23,0,2,1,10,10,114.34614486363716,122.69609427405521,stimuli/371_zb.png,a,8.3382541697938,awful,0.333,3.131147541,2.085468851,0.267016925
129,23,0,2,1,11,11,123.29993694531731,142.8320887160953,stimuli/218_yb.png,a,19.520448653027415,ambig,0.333,5.850282486,1.552723069,0.0825263
129,23,0,2,1,12,12,143.41338097816333,153.74409615830518,stimuli/158_xa.png,l,10.31925821583718,harmless,0.333,6.786885246,0.661179605,0.084655374
129,23,0,2,1,13,13,154.3548516051378,163.28002018062398,stimuli/115_xb.png,l,8.91312871989794,harmless,0.333,6.440677966,1.021681954,0.133011661
129,23,0,2,1,14,14,163.87989210220985,170.61601131455973,stimuli/295_za.png,a,6.724241227377206,awful,0.333,2.3,1.825432384,0.235662307
129,23,0,2,1,15,15,171.2464121663943,179.55997655843385,stimuli/341_zb.png,a,8.301766357617453,awful,0.333,3.603448276,2.15975677,0.283589957
129,23,0,2,1,16,16,180.1272758853156,194.9359910550993,stimuli/186_xa.png,l,14.797309405403212,harmless,0.333,6.65,0.879618561,0.113558268
129,23,0,2,1,17,17,195.50323209282942,203.69614704931155,stimuli/343_zb.png,a,8.18111928505823,awful,0.333,3.103448276,2.141401862,0.28117984
129,23,0,2,1,18,18,204.37253447831608,212.74394019553438,stimuli/271_ya.png,a,8.359273307956755,ambig,0.333,5.711864407,1.771915459,0.230683744
129,23,0,2,1,19,19,213.37552770366892,234.43986235908233,stimuli/221_xb.png,l,21.05288162943907,harmless,0.333,6.440677966,1.133672495,0.147591588
129,23,0,2,1,20,20,235.04325801576488,237.12788201333024,stimuli/147_ya.png,a,2.072770430939272,ambig,0.333,5.883333333,1.766847875,0.22809908
129,23,0,2,1,21,21,237.73555877036415,248.03188297129236,stimuli/260_ya.png,a,10.284658104646951,ambig,0.333,4.966101695,2.016877936,0.262575142
129,23,0,2,1,22,22,248.65061890846118,257.7359053543769,stimuli/150_xc.png,l,9.073215082520619,harmless,0.333,6.482758621,1.030097582,0.135258439
129,23,0,2,1,23,23,258.3848523888737,265.6641081154812,stimuli/230_yb.png,a,7.26787122990936,ambig,0.333,4.98245614,1.875511626,0.248417583
129,23,0,2,1,24,24,266.3176328155678,279.3438975813333,stimuli/213_ya.png,l,13.01421545795165,ambig,0.333,5.98245614,1.597891781,0.211645937
129,23,0,2,2,1,25,290.3086393545382,305.2798287719488,stimuli/262_ya.png,l,14.959712366806343,ambig,0.333,5.491525424,1.7750462,0.231091332
129,23,0,2,2,2,26,305.8889930830337,321.0557602457702,stimuli/297_za.png,a,15.154561892151833,awful,0.333,1.898305085,1.446695584,0.188343723
129,23,0,2,2,3,27,321.67315001925454,330.71175593254156,stimuli/336_ya.png,a,9.026321479585022,ambig,0.333,5.033898305,1.884291705,0.245313885
129,23,0,2,2,4,28,331.27838296513073,348.57598637626506,stimuli/340_za.png,a,17.285610816907138,awful,0.333,2.508474576,1.832398855,0.238558011
129,23,0,2,2,5,29,349.1986524972599,356.5836691195145,stimuli/368_za.png,a,7.373750279191881,awful,0.333,3.590163934,2.02794682,0.259651984
129,23,0,2,2,6,30,357.23905119486153,362.0636915056966,stimuli/199_za.png,a,4.81244134157896,awful,0.333,3.033898305,2.189048775,0.284989876
129,23,0,2,2,7,31,362.67340365587734,369.93565116636455,stimuli/290_zb.png,a,7.250031212111935,awful,0.333,2.586206897,2.026443456,0.266085062
129,23,0,2,2,8,32,370.559501580894,380.2076861304231,stimuli/231_xb.png,l,9.635695710312575,harmless,0.333,6.62295082,1.05141071,0.134619347
129,23,0,2,2,9,33,380.84828600427136,395.159651163267,stimuli/373_zb.png,a,14.299588785972446,awful,0.333,2.327586207,1.858011869,0.243968911
129,23,0,2,2,10,34,395.78651252621785,406.5836045288015,stimuli/305_zb.png,a,10.785612195264548,awful,0.333,2.75,2.12830003,0.274762352
129,23,0,2,2,11,35,407.18734952644445,415.3516130137723,stimuli/114_xc.png,l,8.152256320929155,harmless,0.333,6.644067797,0.97843492,0.127381377
129,23,0,2,2,12,36,416.00532557838596,436.60758184012957,stimuli/172_xb.png,l,20.590552356326953,harmless,0.333,6.482758621,1.127664553,0.14806961
129,23,0,2,2,13,37,437.2190568426158,449.19953746791,stimuli/107_xa.png,l,11.968828707467765,harmless,0.333,6.813559322,0.540580029,0.070377525
129,23,0,2,2,14,38,449.84115858306177,456.60752906487323,stimuli/242_xb.png,l,6.753485827706754,harmless,0.333,6.576271186,0.913564256,0.118935936
129,23,0,2,2,15,39,457.20517379022203,478.1035388195887,stimuli/222_ya.png,l,20.886612680973485,ambig,0.333,5.931034483,1.543089507,0.202617579
129,23,0,2,2,16,40,478.69727699202485,488.17547035985626,stimuli/176_xb.png,l,9.466439444106072,harmless,0.333,6.796610169,0.517942249,0.067430337
129,23,0,2,2,17,41,488.7900382305961,495.7034442180302,stimuli/324_za.png,a,6.901701688067988,awful,0.333,2.491525424,1.994586478,0.259673041
129,23,0,2,2,18,42,496.32613278832287,508.4074512410443,stimuli/200_ya.png,a,12.069909537676722,ambig,0.333,5.862068966,1.444266048,0.189641423
129,23,0,2,2,19,43,509.0642767599784,526.6393777716439,stimuli/232_yb.png,l,17.562782313441858,ambig,0.333,5.483333333,1.845669845,0.238274952
129,23,0,2,2,20,44,527.2285268565174,546.0633835184854,stimuli/335_yb.png,l,18.82312991353683,ambig,0.333,5.016949153,2.046793332,0.266469795
129,23,0,2,2,21,45,546.6914717098698,558.2232859551441,stimuli/235_ya.png,a,11.520200136583298,ambig,0.333,5.694915254,1.567495667,0.204070554
129,23,0,2,2,22,46,558.7873163647018,574.0633476786315,stimuli/117_xc.png,l,15.264262424083427,harmless,0.333,6.627118644,0.868972939,0.113130641
129,23,0,2,2,23,47,574.6915729283355,599.4232909176499,stimuli/202_yb.png,a,24.720342944841832,ambig,0.333,5.431034483,1.892849601,0.248543329
129,23,0,2,2,24,48,600.006744209677,608.207222180441,stimuli/194_xb.png,l,8.188675997778773,harmless,0.333,6.586206897,1.026567825,0.134794959
129,23,0,2,3,1,49,618.0681837068405,625.2631482351571,stimuli/306_zb.png,a,7.183556794654578,awful,0.333,2.352112676,1.917055413,0.101746737
129,23,0,2,3,2,50,625.8503237606492,636.6071864194237,stimuli/293_zb.png,a,10.745388759067282,awful,0.333,3.677966102,2.169066842,0.28238845
129,23,0,2,3,3,51,637.2786216353998,648.4071798815858,stimuli/118_xb.png,l,11.116386846173555,harmless,0.333,6.474576271,0.953323265,0.124112118
129,23,0,2,3,4,52,648.9878159970976,655.5751226730645,stimuli/216_xa.png,l,6.575543300015852,harmless,0.333,6.603448276,0.877389573,0.115206895
129,23,0,2,3,5,53,656.185423228424,662.3031830196269,stimuli/164_xb.png,l,6.106022408930585,harmless,0.333,6.830508475,0.460604639,0.059965616
129,23,0,2,3,6,54,662.9703682495747,669.0471452702768,stimuli/346_zb.png,a,6.065066026058048,awful,0.333,1.288135593,0.983499162,0.128040685
129,23,0,2,3,7,55,669.6926378863864,695.327138669556,stimuli/309_ya.png,a,25.622831536224112,ambig,0.333,4.706896552,1.946734744,0.255618795
129,23,0,2,3,8,56,695.9512470527552,706.8710238840431,stimuli/292_zb.png,a,10.90739078563638,awful,0.333,2.396551724,1.955107169,0.256718148
129,23,0,2,3,9,57,707.4838986131363,714.6551347405184,stimuli/337_zb.png,a,7.15952316345647,awful,0.333,3.033333333,2.20143764,0.284204377
129,23,0,2,3,10,58,715.2239212277345,722.8070239974186,stimuli/160_xb.png,l,7.5711507415398955,harmless,0.333,6.666666667,0.680644427,0.087870818
129,23,0,2,3,11,59,723.4475994529203,730.7190070212819,stimuli/255_xb.png,l,7.259745410643518,harmless,0.333,6.770491803,0.642740036,0.082294429
129,23,0,2,3,12,60,731.3595419104677,741.1510247662663,stimuli/365_zb.png,a,9.779400464845821,awful,0.333,2.966101695,2.165291266,0.281896912
129,23,0,2,3,13,61,741.7534373847302,760.7349991158117,stimuli/350_ya.png,a,18.969831044087186,ambig,0.333,4.915254237,2.02814792,0.264042369
129,23,0,2,3,14,62,761.4362602485344,793.0629825838841,stimuli/325_yb.png,a,31.615221654297784,ambig,0.333,5.131147541,1.811770863,0.231973488
129,23,0,2,3,15,63,793.6571185400244,802.022870211862,stimuli/133_xa.png,l,8.354009957285598,harmless,0.333,6.568965517,1.186356193,0.1557762
129,23,0,2,3,16,64,802.6680052161682,809.198916767491,stimuli/125_xc.png,l,6.51893628644757,harmless,0.333,6.683333333,0.999858747,0.129081209
129,23,0,2,3,17,65,809.8459189932328,816.2548944160808,stimuli/261_yb.png,a,6.397160059306771,ambig,0.333,5.706896552,1.901141123,0.249632059
129,23,0,2,3,18,66,816.8155885606539,827.7109434292652,stimuli/339_ya.png,a,10.883567467797548,ambig,0.333,4.949152542,1.960152429,0.25519011
129,23,0,2,3,19,67,828.2829129756428,860.4308385718614,stimuli/330_ya.png,a,32.13616143260151,ambig,0.333,4.796610169,2.049219036,0.266785595
129,23,0,2,3,20,68,861.0416680616327,880.4307791013271,stimuli/250_yb.png,l,19.377371688140556,ambig,0.333,5.950819672,1.585625318,0.203018519
129,23,0,2,3,21,69,881.0397102558054,888.0787379774265,stimuli/349_za.png,a,7.0272202347405255,awful,0.333,3.288135593,2.101320172,0.273568585
129,23,0,2,3,22,70,888.6465823864564,900.2066971845925,stimuli/257_yb.png,l,11.54864995693788,ambig,0.333,5.620689655,1.843219782,0.242026615
129,23,0,2,3,23,71,900.8024821716826,907.0868736431003,stimuli/248_zb.png,a,6.272854950278997,awful,0.333,3.288135593,1.991800844,0.259310383
129,23,0,2,3,24,72,907.7372964164242,914.3187383397017,stimuli/135_xa.png,l,6.569652159465477,harmless,0.333,6.508474576,1.179901828,0.153610134
129,23,0,2,4,1,73,925.0049711174797,935.7186600433197,stimuli/254_ya.png,a,10.701355261495337,ambig,0.333,5.983606557,1.627798137,0.208418195
129,23,0,2,4,2,74,936.3774697557092,947.9586159011815,stimuli/326_zb.png,a,11.569084628485143,awful,0.333,3.389830508,2.220724867,0.289113752
129,23,0,2,4,3,75,948.5443846106064,953.6945834828075,stimuli/345_zb.png,a,5.138487483607605,awful,0.333,3.694915254,2.191317013,0.285285176
129,23,0,2,4,4,76,954.3048938843422,959.5746264278423,stimuli/317_za.png,a,5.257742312503979,awful,0.333,3.65,2.03215674,0.262350307
129,23,0,2,4,5,77,960.1553294970654,964.6386062281672,stimuli/184_xb.png,l,4.471534228883684,harmless,0.333,6.508474576,1.194425,0.15550089
129,23,0,2,4,6,78,965.2678893469274,974.9586288980208,stimuli/180_xc.png,l,9.67909275344573,harmless,0.333,6.672131148,0.723908638,0.092687003
129,23,0,2,4,7,79,975.566682565026,982.214636715129,stimuli/353_zb.png,a,6.635838282294571,awful,0.333,1.949152542,1.623361018,0.211343603
129,23,0,2,4,8,80,982.8726032043342,1005.6305276702624,stimuli/284_ya.png,l,22.745692413765937,ambig,0.333,5.948275862,1.431750417,0.18799804
129,23,0,2,4,9,81,1006.2053888298105,1017.014564798912,stimuli/328_za.png,a,10.796486268518493,awful,0.333,2.706896552,1.955725922,0.256799395
129,23,0,2,4,10,82,1017.6742299436592,1026.3424549254123,stimuli/243_ya.png,l,8.656413950491697,ambig,0.333,5.830508475,1.652088985,0.215083666
129,23,0,2,4,11,83,1026.975440979004,1039.5424311372917,stimuli/233_yb.png,a,12.554736050777137,ambig,0.333,5.318309859,1.922973646,0.102060844
129,23,0,2,4,12,84,1040.1901446476113,1051.7344508829992,stimuli/245_yb.png,a,11.532395167276263,ambig,0.333,4.949152542,2.096168334,0.272897873
129,23,0,2,4,13,85,1052.3600637558848,1062.838452864904,stimuli/220_yb.png,a,10.466650545364246,ambig,0.333,4.75,2.096203186,0.270618668
129,23,0,2,4,14,86,1063.4830951686017,1068.0784414117225,stimuli/320_za.png,a,4.583256369223818,awful,0.333,1.423728814,1.117314975,0.14546202
129,23,0,2,4,15,87,1068.6841772983316,1085.1423963999841,stimuli/189_yb.png,a,16.446482507046312,ambig,0.333,5.983333333,1.455459234,0.187898979
129,23,0,2,4,16,88,1085.7319267275743,1093.3743571951054,stimuli/334_za.png,a,7.630736408289522,awful,0.333,3.333333333,2.214487481,0.285889104
129,23,0,2,4,17,89,1093.9457588163204,1107.8463541923556,stimuli/127_xb.png,l,13.88857521279715,harmless,0.333,6.423728814,1.162686987,0.151368953
129,23,0,2,4,18,90,1108.419225644786,1121.2543174324092,stimuli/140_xb.png,l,12.823684447910637,harmless,0.333,6.724137931,0.790138861,0.103750315
129,23,0,2,4,19,91,1121.8582006697543,1130.8222973241936,stimuli/312_yb.png,a,8.952263567596674,ambig,0.333,4.677966102,2.112692986,0.275049199
129,23,0,2,4,20,92,1131.4478570278734,1137.8462813310325,stimuli/356_za.png,a,6.386686920886859,awful,0.333,3.033333333,2.178217796,0.281206708
129,23,0,2,4,21,93,1138.4643410355784,1148.1262459794525,stimuli/282_xc.png,l,9.650178983109072,harmless,0.333,6.55,0.998728005,0.128935231
129,23,0,2,4,22,94,1148.7719363057986,1155.206242686836,stimuli/109_xb.png,l,6.422578450990841,harmless,0.333,6.644067797,0.97843492,0.127381377
129,23,0,2,4,23,95,1155.8680609846488,1163.4222759779077,stimuli/171_xa.png,l,7.542116454569623,harmless,0.333,6.465517241,1.046556882,0.137419651
129,23,0,2,4,24,96,1164.071094224928,1171.4222342302091,stimuli/136_xc.png,l,7.3393565432634205,harmless,0.333,6.559322034,1.038420326,0.135190811
129,23,0,2,5,1,97,1180.3517792166676,1199.9742200581823,stimuli/173_yb.png,a,19.61050377972424,ambig,0.333,5.796610169,1.242628763,0.161776485
129,23,0,2,5,2,98,1200.6078658027109,1208.8941796338186,stimuli/126_xa.png,l,8.274584719445556,harmless,0.333,6.6,0.977717855,0.126222832
129,23,0,2,5,3,99,1209.523056697799,1215.5101295083296,stimuli/289_yb.png,a,5.974795072339475,ambig,0.333,5.305084746,1.714584873,0.223219937
129,23,0,2,5,4,100,1216.1319161723368,1221.2461266284809,stimuli/363_zb.png,a,5.102491978323087,awful,0.333,2.433333333,2.019956927,0.260775318
129,23,0,2,5,5,101,1221.8561924519017,1227.2140967529267,stimuli/268_zb.png,a,5.346517047379166,awful,0.333,2.655737705,2.048456703,0.262278005
129,23,0,2,5,6,102,1227.8296059144195,1273.5661004614085,stimuli/210_yb.png,l,45.72480206307955,ambig,0.333,5.557377049,1.76564049,0.226067099
129,23,0,2,5,7,103,1274.1748331179842,1289.6620750850998,stimuli/157_xc.png,l,15.475399821996689,harmless,0.333,6.603448276,0.877389573,0.115206895
129,23,0,2,5,8,104,1290.2649197520223,1298.5020517380908,stimuli/212_ya.png,a,8.225342616206035,ambig,0.333,5.677966102,1.490668422,0.194068498
129,23,0,2,5,9,105,1299.0683219467755,1306.63798316475,stimuli/352_zb.png,a,7.55776669154875,awful,0.333,2.93442623,2.135952968,0.273480754
129,23,0,2,5,10,106,1307.193519903347,1324.0620219947305,stimuli/279_ya.png,l,16.856430334504694,ambig,0.333,5.31147541,1.970964092,0.252356093
129,23,0,2,5,11,107,1324.6436210623942,1332.4459961079992,stimuli/121_xc.png,l,7.790816469117999,harmless,0.333,6.508474576,1.006408455,0.131023221
129,23,0,2,5,12,108,1333.064136157278,1344.517946552951,stimuli/201_yb.png,l,11.441808349452913,ambig,0.333,5.898305085,1.626238682,0.211718243
129,23,0,2,5,13,109,1345.074721935438,1353.6299601390492,stimuli/123_xc.png,l,8.5432038619183,harmless,0.333,6.491525424,1.023396666,0.133234897
129,23,0,2,5,14,110,1354.2675254335627,1359.3419098432641,stimuli/329_zb.png,a,5.06272500869818,awful,0.333,2.406779661,1.992387617,0.259386774
129,23,0,2,5,15,111,1359.9528181022033,1375.3499214476906,stimuli/182_xb.png,l,15.385549495229498,harmless,0.333,6.542372881,0.988241802,0.128658124
129,23,0,2,5,16,112,1375.9209319802467,1382.7739059268497,stimuli/314_zb.png,a,6.840988441603258,awful,0.333,1.833333333,1.451669602,0.18740974
129,23,0,2,5,17,113,1383.4131139509846,1394.7338549948763,stimuli/159_xa.png,l,11.309014689177275,harmless,0.333,6.389830508,1.174689235,0.152931512
129,23,0,2,5,18,114,1395.3684503010008,1405.6618123902008,stimuli/145_xa.png,l,10.281274578301236,harmless,0.333,6.661016949,0.822321556,0.107057148
129,23,0,2,5,19,115,1406.2236447483301,1411.157800877234,stimuli/357_za.png,a,4.922117848647758,awful,0.333,2.793103448,2.066937905,0.271402243
129,23,0,2,5,20,116,1411.7662479958963,1419.2378609939478,stimuli/321_zb.png,a,7.459847258869559,awful,0.333,2.918032787,2.177881861,0.278849198
129,23,0,2,5,21,117,1419.8036006928887,1468.2697506605182,stimuli/224_yb.png,l,48.454425582429394,ambig,0.333,5.881355932,1.609077116,0.209483997
129,23,0,2,5,22,118,1468.8546395192388,1474.045740423724,stimuli/241_yb.png,a,5.179696715436876,ambig,0.333,5.508474576,1.442852555,0.187843403
129,23,0,2,5,23,119,1474.6684861015528,1490.8056640492287,stimuli/214_xb.png,l,16.126166028901935,harmless,0.333,6.465517241,0.940614156,0.12350869
129,23,0,2,5,24,120,1491.3724651616067,1503.0856578422245,stimuli/211_zb.png,a,11.701580935157835,awful,0.333,3.983333333,2.127237938,0.274625237
129,23,0,2,6,1,121,1512.950303399004,1552.4055911088362,stimuli/116_xa.png,l,39.443620432168245,harmless,0.333,6.63559322,0.958030802,0.050918763
129,23,0,2,6,2,122,1553.0122493815143,1560.7095228286926,stimuli/163_xa.png,l,7.68466369737871,harmless,0.333,6.627118644,0.963082427,0.125382652
129,23,0,2,6,3,123,1561.2652123791631,1570.4855346472468,stimuli/319_ya.png,a,9.208369058324024,ambig,0.333,4.216666667,2.108028774,0.272145344
129,23,0,2,6,4,124,1571.1027436456643,1584.2375967237167,stimuli/177_xb.png,l,13.123142871074378,harmless,0.333,6.482758621,1.063614811,0.139659467
129,23,0,2,6,5,125,1584.8072417939547,1591.5494872722775,stimuli/185_xa.png,l,6.730258004041389,harmless,0.333,6.5,0.965506805,0.124646393
129,23,0,2,6,6,126,1592.1422707634047,1598.853462709114,stimuli/307_za.png,a,6.699504975695163,awful,0.333,2.93220339,2.172432347,0.282826601
129,23,0,2,6,7,127,1599.478636050364,1606.5974611935671,stimuli/285_yb.png,a,7.107013717992231,ambig,0.333,4.120689655,2.119893958,0.278355714
129,23,0,2,6,8,128,1607.1546961935237,1613.1494718336035,stimuli/228_ya.png,a,5.982823217986152,ambig,0.333,5.442622951,1.793735303,0.229664272
129,23,0,2,6,9,129,1613.789063856937,1621.933448388707,stimuli/362_zb.png,a,8.131929169176146,awful,0.333,1.474576271,1.222715071,0.159183944
129,23,0,2,6,10,130,1622.5055065504275,1629.1734003082383,stimuli/318_za.png,a,6.655835391487926,awful,0.333,3.06557377,2.197489875,0.281359747
129,23,0,2,6,11,131,1629.7967383295763,1634.9253808585927,stimuli/298_za.png,a,5.116909479023889,awful,0.333,2.881355932,2.026418156,0.263817173
129,23,0,2,6,12,132,1635.5568990500178,1652.5013325761538,stimuli/119_xc.png,l,16.932646913221106,harmless,0.333,6.694915254,0.914523379,0.119060803
129,23,0,2,6,13,133,1653.1156377519947,1667.5173278215807,stimuli/267_ya.png,l,14.38994599180296,ambig,0.333,5.103448276,1.898195405,0.249245267
129,23,0,2,6,14,134,1668.0840418941807,1688.773376992438,stimuli/288_yb.png,a,20.677371254889295,ambig,0.333,5.189655172,1.914459262,0.251380817
129,23,0,2,6,15,135,1689.3882335519884,1700.9732917642687,stimuli/259_xc.png,l,11.573339340742677,harmless,0.333,6.568965517,0.993170874,0.130409725
129,23,0,2,6,16,136,1701.5691862404346,1705.7573037655093,stimuli/308_zb.png,a,4.175692094722763,awful,0.333,1.644067797,1.471132708,0.191525165
129,23,0,2,6,17,137,1706.3948741802014,1724.893269456923,stimuli/191_ya.png,l,18.486672860570252,ambig,0.333,5.517241379,2.062542966,0.270825159
129,23,0,2,6,18,138,1725.7007526780944,1765.277249084087,stimuli/246_ya.png,l,39.56524621043354,ambig,0.333,5.542372881,1.715266481,0.223308675
129,23,0,2,6,19,139,1765.908581774449,1771.7653976834845,stimuli/156_xc.png,l,5.84523133886978,harmless,0.333,6.590163934,0.955284411,0.122311635
129,23,0,2,6,20,140,1772.4160016258247,1791.3651601159945,stimuli/251_ya.png,a,18.93713596370071,ambig,0.333,5.655172414,1.792300532,0.235340589
129,23,0,2,6,21,141,1791.9828535444103,1801.3971289454494,stimuli/151_xa.png,l,9.40175387263298,harmless,0.333,6.610169492,0.947172729,0.123311386
129,23,0,2,6,22,142,1802.0333232642151,1810.9651084435172,stimuli/332_zb.png,a,8.920087575446814,awful,0.333,2.694915254,2.002190501,0.260663001
129,23,0,2,6,23,143,1811.524196092505,1830.5410826103762,stimuli/269_za.png,a,19.00525862444192,awful,0.333,3.457627119,2.119873401,0.27598401
129,23,0,2,6,24,144,1831.2129191551358,1838.4770468838979,stimuli/348_za.png,a,7.252124106977135,awful,0.333,3.084745763,2.119597681,0.275948114
129,23,0,2,7,1,145,1848.3386350183282,1854.6210647455882,stimuli/369_za.png,a,6.270650203572586,awful,0.333,2.948275862,2.055565093,0.26990892
129,23,0,2,7,2,146,1855.2411121882033,1863.5410128997173,stimuli/303_zb.png,a,8.288071957184002,awful,0.333,3.620689655,2.158846233,0.283470398
129,23,0,2,7,3,147,1864.194438744802,1876.7090474572033,stimuli/141_xc.png,l,12.50290756393224,harmless,0.333,6.508474576,1.040107444,0.135410455
129,23,0,2,7,4,148,1877.3117487644777,1886.5409963582642,stimuli/110_xa.png,l,9.217273116577417,harmless,0.333,6.428571429,1.059281795,0.141552484
129,23,0,2,7,5,149,1887.1322217965499,1891.1089530130848,stimuli/205_yb.png,a,3.9642774295061827,ambig,0.333,5.847457627,1.52918233,0.199082582
129,23,0,2,7,6,150,1891.713785812026,1899.7489810234401,stimuli/105_xa.png,l,8.022652809042484,harmless,0.333,6.557377049,1.088187946,0.139328189
129,23,0,2,7,7,151,1900.3675334285945,1908.3729086315725,stimuli/143_xb.png,l,7.993478707037866,harmless,0.333,6.655172414,0.738697862,0.096995781
129,23,0,2,7,8,152,1908.9313239865005,1917.196899885079,stimuli/344_za.png,a,8.25364631973207,awful,0.333,2.711864407,2.043077863,0.265986082
129,23,0,2,7,9,153,1917.7712151748128,1931.4448515931144,stimuli/162_xa.png,l,13.661656821146607,harmless,0.333,6.644067797,0.905209289,0.117848212
129,23,0,2,7,10,154,1932.0502487726044,1942.5248490883969,stimuli/239_ya.png,a,10.462879474973306,ambig,0.333,5.157894737,1.925296579,0.255011762
129,23,0,2,7,11,155,1943.1485675645526,1948.9568443843164,stimuli/361_za.png,a,5.796552828280255,awful,0.333,2.416666667,1.907093508,0.246204713
129,23,0,2,7,12,156,1949.553905824665,1985.1408422859386,stimuli/208_xb.png,a,35.57555669080466,harmless,0.333,6.216666667,1.165778516,0.150501359
129,23,0,2,7,13,157,1985.7725463723764,1996.6687775470782,stimuli/165_xb.png,l,10.884571773698553,harmless,0.333,6.557377049,1.008705278,0.129151477
129,23,0,2,7,14,158,1997.3026796851773,2006.7487860699184,stimuli/287_ya.png,l,9.432858605170622,ambig,0.333,5.950819672,1.407435369,0.180203633
129,23,0,2,7,15,159,2007.4142781582195,2017.4447310764808,stimuli/351_zb.png,a,10.018830538960174,awful,0.333,3.06779661,2.033040926,0.264679384
129,23,0,2,7,16,160,2018.0565183984581,2025.012732629897,stimuli/302_za.png,a,6.944482363061979,awful,0.333,3.137931034,2.188071937,0.287307921
129,23,0,2,7,17,161,2025.616676519392,2032.5246541348752,stimuli/225_ya.png,l,6.895945242838934,ambig,0.333,5.85,1.792876677,0.231459384
129,23,0,2,7,18,162,2033.1690920328256,2043.0607022186741,stimuli/275_yb.png,a,9.880138649372384,ambig,0.333,4.836065574,2.138382004,0.27379176
129,23,0,2,7,19,163,2043.6238173313905,2051.012668039184,stimuli/102_xc.png,l,7.37693648878485,harmless,0.333,6.66011236,0.937292468,0.049676401
129,23,0,2,7,20,164,2051.6558184563182,2062.6286655690055,stimuli/313_zb.png,a,10.96094155847095,awful,0.333,2.101694915,1.688652955,0.219843889
129,23,0,2,7,21,165,2063.240702982759,2078.3886998649687,stimuli/209_ya.png,l,15.136625776300207,ambig,0.333,5.603448276,1.825161903,0.239655499
129,23,0,2,7,22,166,2078.991282624658,2089.2605996613856,stimuli/300_za.png,a,10.257368553197011,awful,0.333,3.75,2.12032137,0.273732312
129,23,0,2,7,23,167,2089.826813156251,2144.444595987443,stimuli/215_yb.png,l,54.605949744349346,ambig,0.333,5.866666667,1.466769385,0.189359113
129,23,0,2,7,24,168,2145.0172350711655,2156.188527518185,stimuli/203_yb.png,a,11.159594449447468,ambig,0.333,6,1.542501327,0.200816568
129,23,0,2,8,1,169,2165.0256216162816,2171.4444668062497,stimuli/124_xa.png,l,6.406101532513276,harmless,0.333,6.344262295,1.181598436,0.151288177
129,23,0,2,8,2,170,2172.0870209413115,2177.8044584882446,stimuli/183_xb.png,l,5.705276780761778,harmless,0.333,6.448275862,1.095003225,0.143780967
129,23,0,2,8,3,171,2178.3998110329267,2185.5724244378507,stimuli/266_zb.png,a,7.1607795304153115,awful,0.333,3.491525424,1.888010094,0.245797978
129,23,0,2,8,4,172,2186.214362598723,2192.5004377593286,stimuli/301_za.png,a,6.274106197291985,awful,0.333,3.610169492,2.212947396,0.288101212
129,23,0,2,8,5,173,2193.0577692515217,2203.844430651283,stimuli/277_yb.png,a,10.774695980828255,ambig,0.333,5.491525424,2.02886822,0.264136144
129,23,0,2,8,6,174,2204.441815044731,2211.2284039768856,stimuli/149_xa.png,l,6.774499845923856,harmless,0.333,6.721311475,0.933294301,0.11949609
129,23,0,2,8,7,175,2211.8654218262527,2217.0043649892323,stimuli/333_za.png,a,5.127236500615254,awful,0.333,3.266666667,2.185209657,0.282109354
129,23,0,2,8,8,176,2217.641803071834,2222.732363895979,stimuli/195_xc.png,l,5.078363430453464,harmless,0.333,6.637640449,1.001766915,0.05309354
129,23,0,2,8,9,177,2223.3528705623467,2230.4523539552465,stimuli/258_ya.png,a,7.087815721286461,ambig,0.333,5.627118644,1.78014243,0.231754804
129,23,0,2,8,10,178,2231.0652578291483,2243.548340788344,stimuli/366_za.png,a,12.471407804638147,awful,0.333,3.689655172,2.036568291,0.267414518
129,23,0,2,8,11,179,2244.1719592276495,2260.6603094760794,stimuli/273_ya.png,a,16.4760910209734,ambig,0.333,5.551724138,1.836973233,0.241206403
129,23,0,2,8,12,180,2261.295358098112,2275.508376502199,stimuli/120_xa.png,l,14.200994696002454,harmless,0.333,6.440677966,1.054893138,0.137335389
129,23,0,2,8,13,181,2276.1087139488664,2283.2123528053053,stimuli/338_zb.png,a,7.091835308121517,awful,0.333,3.310344828,2.137443107,0.28066003
129,23,0,2,8,14,182,2283.852897540899,2288.7722604407463,stimuli/113_xb.png,l,4.9072690876200795,harmless,0.333,6.733333333,0.660422737,0.085260209
129,23,0,2,8,15,183,2289.3582453713752,2299.276296371827,stimuli/155_xb.png,l,9.906052498612553,harmless,0.333,6.655737705,0.892286312,0.114245555
129,23,0,2,8,16,184,2299.875152959721,2306.5722117612604,stimuli/355_zb.png,a,6.685259585501626,awful,0.333,3.183333333,2.070713188,0.267327923
129,23,0,2,8,17,185,2307.14258190128,2316.3801849263255,stimuli/281_ya.png,l,9.225756941363215,ambig,0.333,5.881355932,1.543448286,0.200939852
129,23,0,2,8,18,186,2316.961762726307,2321.8282073691953,stimuli/179_xb.png,l,4.854643851518631,harmless,0.333,6.704918033,0.882123617,0.112944356
129,23,0,2,8,19,187,2322.414294305723,2341.10019507166,stimuli/217_yb.png,l,18.67417086660862,ambig,0.333,5.169491525,2.001314588,0.260548967
129,23,0,2,8,20,188,2341.696619663853,2351.7241526120342,stimuli/367_zb.png,a,10.01517013926059,awful,0.333,3.413793103,2.086165649,0.27392697
129,23,0,2,8,21,189,2352.325276962016,2362.5161860636435,stimuli/323_yb.png,a,10.17906183633022,ambig,0.333,4.603448276,1.955107169,0.256718148
129,23,0,2,8,22,190,2363.122426466085,2372.732147281058,stimuli/299_za.png,a,9.598002731101587,awful,0.333,1.288135593,0.929420425,0.121000233
129,23,0,2,8,23,191,2373.286164563615,2401.2681638570502,stimuli/247_ya.png,a,27.970062231412157,ambig,0.333,4.65,2.081598147,0.268733165
129,23,0,2,8,24,192,2401.8655198938213,2408.46805933048,stimuli/207_yb.png,a,6.590522030368447,ambig,0.333,5.655737705,1.662179753,0.212820309
129,23,0,2,9,1,193,2417.777178782737,2425.2440388537943,stimuli/252_zb.png,a,7.455151045694947,awful,0.333,2.711864407,1.983125776,0.258180985
129,23,0,2,9,2,194,2425.8351977320854,2433.4679734723177,stimuli/274_xb.png,l,7.620461768237874,harmless,0.333,6.491525424,1.179901828,0.153610134
129,23,0,2,9,3,195,2434.031228794018,2438.7719638750423,stimuli/322_za.png,a,4.728814560687169,awful,0.333,2.406779661,1.975004531,0.257123689
129,23,0,2,9,4,196,2439.342436808627,2446.5640055974945,stimuli/354_zb.png,a,7.209534841123968,awful,0.333,2,1.701925887,0.221571878
129,23,0,2,9,5,197,2447.1274889556225,2452.083975334419,stimuli/291_za.png,a,4.944970337674022,awful,0.333,2.593220339,1.830005126,0.238246374
129,23,0,2,9,6,198,2452.701058696024,2459.8519586131442,stimuli/104_xc.png,l,7.13925745151937,harmless,0.333,6.745762712,0.756425814,0.098478253
129,23,0,2,9,7,199,2460.461554578971,2468.3719334702473,stimuli/237_ya.png,a,7.89864072133787,ambig,0.333,4.305084746,2.019339575,0.26289562
129,23,0,2,9,8,200,2468.9401173738297,2477.0439602420665,stimuli/347_zb.png,a,8.091818766435608,awful,0.333,3.796610169,2.147810923,0.279621165
129,23,0,2,9,9,201,2477.621045053238,2494.9078976649325,stimuli/130_xc.png,l,17.274904128164053,harmless,0.333,6.644067797,0.960651931,0.125066229
129,23,0,2,9,10,202,2495.4905026138294,2502.611981487833,stimuli/372_zb.png,a,7.109750156290829,awful,0.333,2.796610169,2.082601664,0.271131643
129,23,0,2,9,11,203,2503.203175812261,2510.0758436073083,stimuli/174_xc.png,l,6.8609426219481975,harmless,0.333,6.533333333,1.111826512,0.143536185
129,23,0,2,9,12,204,2510.6491668003146,2515.2038236879744,stimuli/229_za.png,a,4.542928957613185,awful,0.333,3.406779661,2.043649913,0.266060557
129,23,0,2,9,13,205,2515.8055872493424,2525.2918060061056,stimuli/131_xb.png,l,9.474466014653444,harmless,0.333,6.525423729,1.119666394,0.145768149
129,23,0,2,9,14,206,2525.92295122589,2535.067844999954,stimuli/263_ya.png,a,9.13284092163667,ambig,0.333,4.983050847,2.071910042,0.269739712
129,23,0,2,9,15,207,2535.6311074108817,2542.531832756009,stimuli/187_xc.png,l,6.888865476939827,harmless,0.333,6.224137931,1.185335891,0.155642228
129,23,0,2,9,16,208,2543.10013441951,2553.3078004638664,stimuli/270_yb.png,l,10.195718742441386,ambig,0.333,5.534482759,1.912246013,0.251090203
129,23,0,2,9,17,209,2553.939855466597,2569.6518654294778,stimuli/304_ya.png,a,15.700070537859574,ambig,0.333,4.034482759,2.017167697,0.264867095
129,23,0,2,9,18,210,2570.228018402122,2583.163734552916,stimuli/286_ya.png,a,12.9239496239461,ambig,0.333,5.06779661,1.779814082,0.231712057
129,23,0,2,9,19,211,2583.737787147984,2589.355740514118,stimuli/296_yb.png,a,5.60599346132949,ambig,0.333,4.229508197,2.052587332,0.262806878
129,23,0,2,9,20,212,2589.961481126724,2606.6197882923298,stimuli/265_yb.png,a,16.645921513671055,ambig,0.333,5.627118644,1.856008928,0.241631781
129,23,0,2,9,21,213,2607.2018804545514,2625.0436404396314,stimuli/360_za.png,a,17.82983946450986,awful,0.333,3.2,2.207844259,0.285031468
129,23,0,2,9,22,214,2625.729959075572,2641.2036279467866,stimuli/236_yb.png,l,15.461970873409882,ambig,0.333,5.93442623,1.49297078,0.19115532
129,23,0,2,9,23,215,2641.7751323617995,2650.3235857896507,stimuli/142_xa.png,l,8.536403726320714,harmless,0.333,6.4,1.076718178,0.139003719
129,23,0,2,9,24,216,2650.92203789833,2658.56357276137,stimuli/101_xa.png,l,7.629807326942682,harmless,0.333,6.508522727,1.13475832,0.060482822
129,23,0,2,10,1,217,2667.2198988841847,2673.515618138481,stimuli/227_xa.png,a,6.283975570462644,harmless,0.333,6.180327869,1.05685377,0.135316259
129,23,0,2,10,2,218,2674.1105740810744,2679.811572124716,stimuli/327_zb.png,a,5.688933769706637,awful,0.333,2.502808989,1.906990248,0.101070281
129,23,0,2,10,3,219,2680.4225512756966,2687.49153960892,stimuli/219_ya.png,a,7.057245437055826,ambig,0.333,5.271186441,1.998538332,0.260187529
129,23,0,2,10,4,220,2688.059738872573,2695.019562303787,stimuli/310_zb.png,a,6.947916695382446,awful,0.333,3.224137931,2.102989547,0.276136056
129,23,0,2,10,5,221,2695.6200446859,2699.2035101871006,stimuli/294_za.png,a,3.5718108266592026,awful,0.333,1.557377049,1.38473331,0.177296933
129,23,0,2,10,6,222,2699.817814969225,2706.443479829468,stimuli/139_xa.png,l,6.614189779153094,harmless,0.333,6.724137931,0.790138861,0.103750315
129,23,0,2,10,7,223,2707.0263833133504,2712.411491307663,stimuli/148_xc.png,l,5.373241824563593,harmless,0.333,6.491525424,1.135218061,0.147792803
129,23,0,2,10,8,224,2713.052552768495,2716.9154862791765,stimuli/316_za.png,a,3.850863328902051,awful,0.333,2.344827586,1.802062407,0.236622386
129,23,0,2,10,9,225,2717.5277903261594,2722.8034494561143,stimuli/364_za.png,a,5.263974128989503,awful,0.333,1.677966102,1.279017376,0.166513879
129,23,0,2,10,10,226,2723.378366541816,2735.819457304664,stimuli/253_ya.png,a,12.4292911530938,ambig,0.333,5.491803279,1.849531029,0.236808182
129,23,0,2,10,11,227,2736.481245670235,2740.419447773602,stimuli/311_za.png,a,3.926402887329459,awful,0.333,3.116666667,1.975199339,0.254997138
129,23,0,2,10,12,228,2740.992001786595,2757.8274645765778,stimuli/342_yb.png,a,16.823906182777137,ambig,0.333,4.916666667,2.085394461,0.269223267
129,23,0,2,10,13,229,2758.408356297994,2764.6194212285336,stimuli/108_xb.png,l,6.199042798019946,harmless,0.333,6.568965517,1.077880782,0.141532681
129,23,0,2,10,14,230,2765.19868912478,2783.4194694352336,stimuli/278_xb.png,l,18.20882001146674,harmless,0.333,6.360655738,1.140654591,0.146045855
129,23,0,2,10,15,231,2784.0950975299347,2790.5873964729253,stimuli/315_yb.png,a,6.480492637725547,ambig,0.333,5.050847458,1.915667965,0.249398726
129,23,0,2,10,16,232,2791.2097357022576,2798.0913646628615,stimuli/249_ya.png,l,6.87017435929738,ambig,0.333,5.327868852,1.859402337,0.238072074
129,23,0,2,10,17,233,2798.7027817699127,2809.915303534828,stimuli/103_xb.png,l,11.201329858507961,harmless,0.333,6.779661017,0.589207434,0.076708274
129,23,0,2,10,18,234,2810.5307906409726,2820.467290544184,stimuli/166_xa.png,l,9.924874766962603,harmless,0.333,6.593220339,1.052397002,0.13701042
129,23,0,2,10,19,235,2821.2006878906395,2829.9552855440415,stimuli/370_za.png,a,8.742768899071962,awful,0.333,2.393442623,1.882185684,0.240989182
129,23,0,2,10,20,236,2830.5571759233717,2836.7552557692397,stimuli/358_za.png,a,6.185911202803254,awful,0.333,3.949152542,2.112554662,0.275031191
129,23,0,2,10,21,237,2837.3251647159923,2845.563301795628,stimuli/283_yb.png,a,8.226229162188247,ambig,0.333,5.949152542,1.478859402,0.192531095
129,23,0,2,10,22,238,2846.1270888086874,2864.9553111440036,stimuli/276_ya.png,a,18.81623131665401,ambig,0.333,5.186440678,1.804922162,0.234980851
129,23,0,2,10,23,239,2865.5955652215052,2874.227226378862,stimuli/196_xb.png,l,8.619570495793596,harmless,0.333,6.594366197,0.982313556,0.05213579
129,23,0,2,10,24,240,2874.7902166426647,2882.7711982394103,stimuli/198_yb.png,a,7.969233186915517,ambig,0.333,5.101694915,1.83542643,0.238952168
