id,age,condition,counterbalance,block,trialinblock,trial,tstart,tend,trialstim,response,RT,trialtype,ethicfreq,norm_mean,norm_sd,norm_se
107,19,0,2,0,0,practice,4.332279786467552e-06,46.06369898864068,stimuli/prac_217_1.png,l,46.04616932128556,harmless,NA,NA,NA,NA
107,19,0,2,1,1,1,5.908122156513855,98.2957842387259,stimuli/237_ya.png,l,92.37595305661671,ambig,0.333,4.305084746,2.019339575,0.26289562
107,19,0,2,1,2,2,98.8704461127054,119.58357065799646,stimuli/203_yb.png,l,20.701326117152348,ambig,0.333,6,1.542501327,0.200816568
107,19,0,2,1,3,3,120.19028131198138,133.24748815200292,stimuli/189_yb.png,a,13.045428104000166,ambig,0.333,5.983333333,1.455459234,0.187898979
107,19,0,2,1,4,4,133.86693734349683,147.22352029313333,stimuli/289_yb.png,a,13.344941665651277,ambig,0.333,5.305084746,1.714584873,0.223219937
107,19,0,2,1,5,5,147.78638807078823,159.58347613504156,stimuli/196_xb.png,l,11.785343986470252,harmless,0.333,6.594366197,0.982313556,0.05213579
107,19,0,2,1,6,6,160.18735819100402,174.91141982469708,stimuli/350_ya.png,a,14.71242586360313,ambig,0.333,4.915254237,2.02814792,0.264042369
107,19,0,2,1,7,7,175.51724708313122,185.9273906517774,stimuli/371_zb.png,a,10.398315995698795,awful,0.333,3.131147541,2.085468851,0.267016925
107,19,0,2,1,8,8,186.48449883353896,196.75941123254597,stimuli/176_xb.png,l,10.262919017113745,harmless,0.333,6.796610169,0.517942249,0.067430337
107,19,0,2,1,9,9,197.32034680456854,206.271380786784,stimuli/268_zb.png,a,8.938910237513483,awful,0.333,2.655737705,2.048456703,0.262278005
107,19,0,2,1,10,10,206.91586830909364,216.9833568786271,stimuli/146_xa.png,l,10.055445563280955,harmless,0.333,6.442622951,1.162247681,0.148810567
107,19,0,2,1,11,11,217.63203412899747,232.71133530535735,stimuli/217_yb.png,l,15.067581123206764,ambig,0.333,5.169491525,2.001314588,0.260548967
107,19,0,2,1,12,12,233.2715828293003,242.83131874818355,stimuli/190_xc.png,l,9.547996173379943,harmless,0.333,6.517241379,1.046990328,0.137476565
107,19,0,2,1,13,13,243.55218471982516,256.5272988069337,stimuli/175_xb.png,l,12.96337512950413,harmless,0.333,6.6,1.028409995,0.13276716
107,19,0,2,1,14,14,257.1391428424977,262.22324420744553,stimuli/124_xa.png,l,5.071950051002204,harmless,0.333,6.344262295,1.181598436,0.151288177
107,19,0,2,1,15,15,262.85128946974874,268.3032767546829,stimuli/320_za.png,a,5.4397780757863075,awful,0.333,1.423728814,1.117314975,0.14546202
107,19,0,2,1,16,16,268.87044886965305,277.4952149745077,stimuli/364_za.png,a,8.612783357035369,awful,0.333,1.677966102,1.279017376,0.166513879
107,19,0,2,1,17,17,278.0981549520511,289.5272113732062,stimuli/184_xb.png,l,11.417142989812419,harmless,0.333,6.508474576,1.194425,0.15550089
107,19,0,2,1,18,18,290.08595322608016,297.4231849729549,stimuli/302_za.png,a,7.32472321530804,awful,0.333,3.137931034,2.188071937,0.287307921
107,19,0,2,1,19,19,297.99574528750964,311.00720697804354,stimuli/291_za.png,a,12.999363939743489,awful,0.333,2.593220339,1.830005126,0.238246374
107,19,0,2,1,20,20,311.6043712119572,332.8711786651984,stimuli/173_yb.png,l,21.254944434389472,ambig,0.333,5.796610169,1.242628763,0.161776485
107,19,0,2,1,21,21,333.4902930879034,338.00716719962656,stimuli/334_za.png,a,4.504770847037435,awful,0.333,3.333333333,2.214487481,0.285889104
107,19,0,2,1,22,22,338.6103230044246,347.26310727512464,stimuli/330_ya.png,a,8.640922039514408,ambig,0.333,4.796610169,2.049219036,0.266785595
107,19,0,2,1,23,23,347.82975203101523,357.6950986327138,stimuli/118_xb.png,l,9.85365096712485,harmless,0.333,6.474576271,0.953323265,0.124112118
107,19,0,2,1,24,24,358.291234142147,362.39111138065346,stimuli/316_za.png,a,4.088174908421934,awful,0.333,2.344827586,1.802062407,0.236622386
107,19,0,2,2,1,25,371.43690142873675,384.80704723414965,stimuli/231_xb.png,l,13.357742824358866,harmless,0.333,6.62295082,1.05141071,0.134619347
107,19,0,2,2,2,26,385.3977878487203,395.20703549752943,stimuli/304_ya.png,a,9.79677928937599,ambig,0.333,4.034482759,2.017167697,0.264867095
107,19,0,2,2,3,27,395.85959291341715,413.0070317166392,stimuli/351_zb.png,l,17.13553836895153,awful,0.333,3.06779661,2.033040926,0.264679384
107,19,0,2,2,4,28,413.645544603467,426.591049389448,stimuli/256_zb.png,a,12.933656733017415,awful,0.333,3.051724138,2.012438634,0.264246138
107,19,0,2,2,5,29,427.21762639586814,435.1511153506581,stimuli/170_xc.png,l,7.921698797261342,harmless,0.333,6.583333333,1.062323432,0.137145365
107,19,0,2,2,6,30,435.7318574106321,449.1269509627018,stimuli/145_xa.png,l,13.383033216698095,harmless,0.333,6.661016949,0.822321556,0.107057148
107,19,0,2,2,7,31,449.7264916601125,457.27093495358713,stimuli/372_zb.png,a,7.532397136325017,awful,0.333,2.796610169,2.082601664,0.271131643
107,19,0,2,2,8,32,457.857502381783,482.82293771672994,stimuli/147_ya.png,l,24.953026052331552,ambig,0.333,5.883333333,1.766847875,0.22809908
107,19,0,2,2,9,33,483.444221440237,491.27087745210156,stimuli/127_xb.png,l,7.814757940592244,harmless,0.333,6.423728814,1.162686987,0.151368953
107,19,0,2,2,10,34,491.8455086061731,498.862842138391,stimuli/233_yb.png,a,7.00546815036796,ambig,0.333,5.318309859,1.922973646,0.102060844
107,19,0,2,2,11,35,499.4338971755933,506.5348752120044,stimuli/313_zb.png,a,7.089042943669483,awful,0.333,2.101694915,1.688652955,0.219843889
107,19,0,2,2,12,36,507.3364988004323,516.1108529234771,stimuli/308_zb.png,a,8.7625879899133,awful,0.333,1.644067797,1.471132708,0.191525165
107,19,0,2,2,13,37,516.7055382940453,538.0788470725529,stimuli/344_za.png,a,21.361526891589165,awful,0.333,2.711864407,2.043077863,0.265986082
107,19,0,2,2,14,38,538.6526243693661,545.9347606818192,stimuli/315_yb.png,a,7.270134266000241,ambig,0.333,5.050847458,1.915667965,0.249398726
107,19,0,2,2,15,39,546.4958230720367,563.8068408591207,stimuli/142_xa.png,l,17.299035432981327,harmless,0.333,6.4,1.076718178,0.139003719
107,19,0,2,2,16,40,564.3834688095376,571.7427740190178,stimuli/139_xa.png,l,7.3476934637874365,harmless,0.333,6.724137931,0.790138861,0.103750315
107,19,0,2,2,17,41,572.3282560089137,579.1587012079544,stimuli/323_yb.png,a,6.818555004661903,ambig,0.333,4.603448276,1.955107169,0.256718148
107,19,0,2,2,18,42,579.7415641257539,586.9666995790321,stimuli/250_yb.png,a,7.2134181573055685,ambig,0.333,5.950819672,1.585625318,0.203018519
107,19,0,2,2,19,43,587.5441357002128,595.8147094976157,stimuli/123_xc.png,l,8.258766310755163,harmless,0.333,6.491525424,1.023396666,0.133234897
107,19,0,2,2,20,44,596.4022048255429,601.806735308608,stimuli/209_ya.png,l,5.392902983585373,ambig,0.333,5.603448276,1.825161903,0.239655499
107,19,0,2,2,21,45,602.3799305020366,615.2466547749937,stimuli/271_ya.png,l,12.854908515466377,ambig,0.333,5.711864407,1.771915459,0.230683744
107,19,0,2,2,22,46,615.8461612078827,623.3109657994937,stimuli/299_za.png,a,7.453038852429017,awful,0.333,1.288135593,0.929420425,0.121000233
107,19,0,2,2,23,47,623.8809298847336,636.4066351931542,stimuli/132_xc.png,l,12.514319236157462,harmless,0.333,6.627118644,0.692280217,0.090127208
107,19,0,2,2,24,48,637.0065898220055,650.1105795947369,stimuli/306_zb.png,a,13.09183727717027,awful,0.333,2.352112676,1.917055413,0.101746737
107,19,0,2,3,1,49,659.4784513365012,669.1265468772035,stimuli/234_xb.png,l,9.636334527516738,harmless,0.333,6.637931034,0.788030542,0.103473479
107,19,0,2,3,2,50,669.7034654854797,684.8865039795637,stimuli/262_ya.png,a,15.171140422811732,ambig,0.333,5.491525424,1.7750462,0.231091332
107,19,0,2,3,3,51,685.4922839766368,693.0945296047721,stimuli/214_xb.png,a,7.590238855453208,harmless,0.333,6.465517241,0.940614156,0.12350869
107,19,0,2,3,4,52,693.6575411360245,708.2224506088533,stimuli/226_yb.png,a,14.553060632199049,ambig,0.333,5.683333333,1.712285287,0.22105508
107,19,0,2,3,5,53,708.7889701216482,712.8144712210633,stimuli/331_za.png,a,4.014059495180845,awful,0.333,1.983606557,1.638004917,0.209725039
107,19,0,2,3,6,54,713.4194588011596,724.4464722671546,stimuli/205_yb.png,l,11.014907444361597,ambig,0.333,5.847457627,1.52918233,0.199082582
107,19,0,2,3,7,55,725.0165438721888,731.7665095091797,stimuli/369_za.png,l,6.737999430624768,awful,0.333,2.948275862,2.055565093,0.26990892
107,19,0,2,3,8,56,732.3476733777206,741.0464599791449,stimuli/362_zb.png,a,8.687358781695366,awful,0.333,1.474576271,1.222715071,0.159183944
107,19,0,2,3,9,57,741.6198729691096,749.7984602218494,stimuli/240_xa.png,l,8.166268554748967,harmless,0.333,6.482758621,1.096107616,0.143925981
107,19,0,2,3,10,58,750.3592800032347,758.7984176864848,stimuli/174_xc.png,l,8.427025754004717,harmless,0.333,6.533333333,1.111826512,0.143536185
107,19,0,2,3,11,59,759.3950325059704,775.5424043554813,stimuli/348_za.png,l,16.13575695315376,awful,0.333,3.084745763,2.119597681,0.275948114
107,19,0,2,3,12,60,776.1333627665881,791.198348448379,stimuli/252_zb.png,a,15.052580731455237,awful,0.333,2.711864407,1.983125776,0.258180985
107,19,0,2,3,13,61,791.7815197471064,799.9583216984756,stimuli/275_yb.png,l,8.16438715485856,ambig,0.333,4.836065574,2.138382004,0.27379176
107,19,0,2,3,14,62,800.549344306346,811.2303007363807,stimuli/177_xb.png,l,10.669036697363481,harmless,0.333,6.482758621,1.063614811,0.139659467
107,19,0,2,3,15,63,811.8843709125649,831.8143203782383,stimuli/198_yb.png,l,19.917926545487717,ambig,0.333,5.101694915,1.83542643,0.238952168
107,19,0,2,3,16,64,832.3831813023426,839.3822829409037,stimuli/261_yb.png,l,6.98744657007046,ambig,0.333,5.706896552,1.901141123,0.249632059
107,19,0,2,3,17,65,839.9842127049342,847.8622222256381,stimuli/290_zb.png,a,7.866296950727701,awful,0.333,2.586206897,2.026443456,0.266085062
107,19,0,2,3,18,66,848.430384074105,856.0542612699792,stimuli/274_xb.png,l,7.612385179381818,harmless,0.333,6.491525424,1.179901828,0.153610134
107,19,0,2,3,19,67,856.6785122251604,864.1102208015509,stimuli/312_yb.png,a,7.420213802950457,ambig,0.333,4.677966102,2.112692986,0.275049199
107,19,0,2,3,20,68,864.6911357596982,877.54246579553,stimuli/365_zb.png,a,12.839367374079302,awful,0.333,2.966101695,2.165291266,0.281896912
107,19,0,2,3,21,69,878.1753648091108,891.6141531514004,stimuli/249_ya.png,a,13.426956437062472,ambig,0.333,5.327868852,1.859402337,0.238072074
107,19,0,2,3,22,70,892.1705945529975,904.2942466661334,stimuli/101_xa.png,l,12.111843050923198,harmless,0.333,6.508522727,1.13475832,0.060482822
107,19,0,2,3,23,71,904.8909241070505,910.1581510058604,stimuli/360_za.png,a,5.255391448969021,awful,0.333,3.2,2.207844259,0.285031468
107,19,0,2,3,24,72,910.721342918463,915.7581631361973,stimuli/187_xc.png,l,5.025117099983618,harmless,0.333,6.224137931,1.185335891,0.155642228
107,19,0,2,4,1,73,924.2889679553919,930.8780926221516,stimuli/229_za.png,a,6.577491259668022,awful,0.333,3.406779661,2.043649913,0.266060557
107,19,0,2,4,2,74,931.4776384395082,940.2942836876027,stimuli/322_za.png,a,8.8044368266128,awful,0.333,2.406779661,1.975004531,0.257123689
107,19,0,2,4,3,75,940.9046960950363,949.6061242180876,stimuli/211_zb.png,a,8.689904992701486,awful,0.333,3.983333333,2.127237938,0.274625237
107,19,0,2,4,4,76,950.2032144090626,964.5420695869252,stimuli/218_yb.png,a,14.327512034913525,ambig,0.333,5.850282486,1.552723069,0.0825263
107,19,0,2,4,5,77,965.1096394855995,989.1020307852887,stimuli/228_ya.png,l,23.980433363933116,ambig,0.333,5.442622951,1.793735303,0.229664272
107,19,0,2,4,6,78,989.6581831041258,995.2860097822268,stimuli/215_yb.png,l,5.616003831382841,ambig,0.333,5.866666667,1.466769385,0.189359113
107,19,0,2,4,7,79,995.8531027340796,1002.6699464803096,stimuli/162_xa.png,l,6.80522136669606,harmless,0.333,6.644067797,0.905209289,0.117848212
107,19,0,2,4,8,80,1003.2404729768168,1007.5019662734121,stimuli/112_xc.png,l,4.24951212387532,harmless,0.333,6.706896552,0.749470472,0.098410294
107,19,0,2,4,9,81,1008.0885703291278,1017.9739601199981,stimuli/260_ya.png,l,9.873537799576297,ambig,0.333,4.966101695,2.016877936,0.262575142
107,19,0,2,4,10,82,1018.546562575968,1025.973903800128,stimuli/295_za.png,a,7.415285614784807,awful,0.333,2.3,1.825432384,0.235662307
107,19,0,2,4,11,83,1026.5430266314652,1046.6140479948372,stimuli/336_ya.png,a,20.059190639760345,ambig,0.333,5.033898305,1.884291705,0.245313885
107,19,0,2,4,12,84,1047.1728855520487,1054.0859016322065,stimuli/340_za.png,l,6.901349590159953,awful,0.333,2.508474576,1.832398855,0.238558011
107,19,0,2,4,13,85,1054.6479911715724,1072.0058482112363,stimuli/283_yb.png,l,17.345806156517938,ambig,0.333,5.949152542,1.478859402,0.192531095
107,19,0,2,4,14,86,1072.5949842992704,1082.7817962267436,stimuli/197_xa.png,l,10.174726779572666,harmless,0.333,6.779661017,0.55918033,0.072799078
107,19,0,2,4,15,87,1083.4144805946853,1087.7257882521953,stimuli/135_xa.png,l,4.299091359367594,harmless,0.333,6.508474576,1.179901828,0.153610134
107,19,0,2,4,16,88,1088.2849030764773,1099.0698291931767,stimuli/154_xc.png,l,10.772869325708598,harmless,0.333,6.5,0.965506805,0.124646393
107,19,0,2,4,17,89,1099.6804015017115,1107.3258338593878,stimuli/352_zb.png,a,7.633702458348125,awful,0.333,2.93442623,2.135952968,0.273480754
107,19,0,2,4,18,90,1107.8959200368263,1113.5337968631648,stimuli/263_ya.png,a,5.626149290241301,ambig,0.333,4.983050847,2.071910042,0.269739712
107,19,0,2,4,19,91,1114.1915762757417,1130.7897353633307,stimuli/140_xb.png,l,16.586507957428694,harmless,0.333,6.724137931,0.790138861,0.103750315
107,19,0,2,4,20,92,1131.3552040965296,1153.925718777813,stimuli/191_ya.png,l,22.558642997639254,ambig,0.333,5.517241379,2.062542966,0.270825159
107,19,0,2,4,21,93,1154.5116619607434,1164.8217258544173,stimuli/179_xb.png,l,10.298187877750024,harmless,0.333,6.704918033,0.882123617,0.112944356
107,19,0,2,4,22,94,1165.4519971311092,1171.2136544643436,stimuli/259_xc.png,l,5.749982572393492,harmless,0.333,6.568965517,0.993170874,0.130409725
107,19,0,2,4,23,95,1171.7867311101872,1181.3577904796693,stimuli/370_za.png,a,9.55918414122425,awful,0.333,2.393442623,1.882185684,0.240989182
107,19,0,2,4,24,96,1181.9502848880365,1188.3095960051287,stimuli/248_zb.png,a,6.347933709621429,awful,0.333,3.288135593,1.991800844,0.259310383
107,19,0,2,5,1,97,1196.9635291229934,1201.8136039734818,stimuli/178_xa.png,l,4.838425295660272,harmless,0.333,6.483333333,1.112207557,0.143585378
107,19,0,2,5,2,98,1202.426878061844,1208.8856296427548,stimuli/148_xc.png,l,6.446868869708851,harmless,0.333,6.491525424,1.135218061,0.147792803
107,19,0,2,5,3,99,1209.5047200408299,1217.3975672952365,stimuli/342_yb.png,a,7.881224087439477,ambig,0.333,4.916666667,2.085394461,0.269223267
107,19,0,2,5,4,100,1217.958596602548,1223.085584586719,stimuli/311_za.png,a,5.114954036194831,awful,0.333,3.116666667,1.975199339,0.254997138
107,19,0,2,5,5,101,1223.6553864076268,1229.0615737985354,stimuli/129_xa.png,l,5.394360605627298,harmless,0.333,6.770491803,0.642740036,0.082294429
107,19,0,2,5,6,102,1229.6587096755393,1236.8456078551244,stimuli/159_xa.png,l,7.1751923048868775,harmless,0.333,6.389830508,1.174689235,0.152931512
107,19,0,2,5,7,103,1237.4201381846797,1245.89356287173,stimuli/335_yb.png,a,8.461519920499995,ambig,0.333,5.016949153,2.046793332,0.266469795
107,19,0,2,5,8,104,1246.4687458029948,1251.2295197409112,stimuli/106_xc.png,l,4.749009774066508,harmless,0.333,6.661016949,0.863237081,0.112383896
107,19,0,2,5,9,105,1251.80006080959,1259.36556420126,stimuli/269_za.png,a,7.553602957166731,awful,0.333,3.457627119,2.119873401,0.27598401
107,19,0,2,5,10,106,1259.933681151364,1267.10155501985,stimuli/169_xc.png,l,7.1565259993076324,harmless,0.333,6.603448276,0.916508538,0.120343467
107,19,0,2,5,11,107,1267.6775469100103,1275.189493621001,stimuli/286_ya.png,a,7.500112836714834,ambig,0.333,5.06779661,1.779814082,0.231712057
107,19,0,2,5,12,108,1275.7737692624796,1284.1975099514239,stimuli/253_ya.png,a,8.412045448087156,ambig,0.333,5.491803279,1.849531029,0.236808182
107,19,0,2,5,13,109,1284.7679308974184,1290.677406307077,stimuli/232_yb.png,l,5.89775338745676,ambig,0.333,5.483333333,1.845669845,0.238274952
107,19,0,2,5,14,110,1291.2540153528098,1297.781467759516,stimuli/270_yb.png,l,6.515410581836477,ambig,0.333,5.534482759,1.912246013,0.251090203
107,19,0,2,5,15,111,1298.3638864196837,1313.7334414569195,stimuli/367_zb.png,a,15.357922811759636,awful,0.333,3.413793103,2.086165649,0.27392697
107,19,0,2,5,16,112,1314.2986711259,1320.7254274897277,stimuli/104_xc.png,l,6.414701542118564,harmless,0.333,6.745762712,0.756425814,0.098478253
107,19,0,2,5,17,113,1321.2991697343532,1328.7413979228586,stimuli/361_za.png,a,7.4302521359641105,awful,0.333,2.416666667,1.907093508,0.246204713
107,19,0,2,5,18,114,1329.3153748994227,1337.485425158171,stimuli/349_za.png,a,8.158336113207042,awful,0.333,3.288135593,2.101320172,0.273568585
107,19,0,2,5,19,115,1338.1213284248952,1346.6133883036673,stimuli/354_zb.png,a,8.480131875257939,awful,0.333,2,1.701925887,0.221571878
107,19,0,2,5,20,116,1347.2115296681877,1359.485320789041,stimuli/230_yb.png,l,12.261562219588086,ambig,0.333,4.98245614,1.875511626,0.248417583
107,19,0,2,5,21,117,1360.099987908965,1371.941341051599,stimuli/373_zb.png,a,11.829623243538663,awful,0.333,2.327586207,1.858011869,0.243968911
107,19,0,2,5,22,118,1372.545047058491,1376.3973676157184,stimuli/102_xc.png,l,3.8403649844694883,harmless,0.333,6.66011236,0.937292468,0.049676401
107,19,0,2,5,23,119,1376.9554151189514,1385.7412758308928,stimuli/343_zb.png,l,8.773813373176381,awful,0.333,3.103448276,2.141401862,0.28117984
107,19,0,2,5,24,120,1386.336533064954,1401.053286108654,stimuli/296_yb.png,a,14.704875058494508,ambig,0.333,4.229508197,2.052587332,0.262806878
107,19,0,2,6,1,121,1409.6779387861025,1422.085328587098,stimuli/227_xa.png,l,12.39573276322335,harmless,0.333,6.180327869,1.05685377,0.135316259
107,19,0,2,6,2,122,1422.6814991489518,1430.4132159568835,stimuli/307_za.png,a,7.7194532479625195,awful,0.333,2.93220339,2.172432347,0.282826601
107,19,0,2,6,3,123,1430.9819654226303,1445.453220415162,stimuli/219_ya.png,l,14.459000491071492,ambig,0.333,5.271186441,1.998538332,0.260187529
107,19,0,2,6,4,124,1446.0148924782407,1451.4931685535703,stimuli/138_xc.png,l,5.4662582750897855,harmless,0.333,6.661016949,0.70978796,0.092406522
107,19,0,2,6,5,125,1452.0707767852582,1458.6211813236587,stimuli/192_za.png,a,6.538391070440412,awful,0.333,2.68852459,2.093967396,0.268105052
107,19,0,2,6,6,126,1459.2233186441008,1462.6611590005923,stimuli/346_zb.png,a,3.425619331886992,awful,0.333,1.288135593,0.983499162,0.128040685
107,19,0,2,6,7,127,1463.2285882963333,1468.5490871253423,stimuli/157_xc.png,l,5.30911275674589,harmless,0.333,6.603448276,0.877389573,0.115206895
107,19,0,2,6,8,128,1469.2343585260678,1475.101072559366,stimuli/359_za.png,a,5.854933327995241,awful,0.333,2.01754386,1.641985167,0.217486248
107,19,0,2,6,9,129,1475.7382251038216,1482.7091494631022,stimuli/277_yb.png,l,6.958910891320556,ambig,0.333,5.491525424,2.02886822,0.264136144
107,19,0,2,6,10,130,1483.2840362226125,1490.90110422438,stimuli/321_zb.png,a,7.605746126268059,awful,0.333,2.918032787,2.177881861,0.278849198
107,19,0,2,6,11,131,1491.4826962028164,1497.8771662977524,stimuli/287_ya.png,l,6.382823297055438,ambig,0.333,5.950819672,1.407435369,0.180203633
107,19,0,2,6,12,132,1498.466726163635,1514.413062357111,stimuli/309_ya.png,a,15.934509408427402,ambig,0.333,4.706896552,1.946734744,0.255618795
107,19,0,2,6,13,133,1515.034626892535,1521.7090317034163,stimuli/294_za.png,a,6.662471293704584,awful,0.333,1.557377049,1.38473331,0.177296933
107,19,0,2,6,14,134,1522.3206559731625,1531.7250190719496,stimuli/265_yb.png,l,9.39280767319724,ambig,0.333,5.627118644,1.856008928,0.241631781
107,19,0,2,6,15,135,1532.2942273677327,1542.1170433864463,stimuli/183_xb.png,l,9.810949061298743,harmless,0.333,6.448275862,1.095003225,0.143780967
107,19,0,2,6,16,136,1542.7377993569244,1547.1729804687202,stimuli/113_xb.png,l,4.423637501429766,harmless,0.333,6.733333333,0.660422737,0.085260209
107,19,0,2,6,17,137,1547.7488451465033,1555.3889554706402,stimuli/186_xa.png,l,7.628095674561337,harmless,0.333,6.65,0.879618561,0.113558268
107,19,0,2,6,18,138,1555.9447037042119,1563.6129645258188,stimuli/220_yb.png,a,7.656159132486209,ambig,0.333,4.75,2.096203186,0.270618668
107,19,0,2,6,19,139,1564.1778641524725,1570.2369484538212,stimuli/156_xc.png,l,6.047232310054824,harmless,0.333,6.590163934,0.955284411,0.122311635
107,19,0,2,6,20,140,1570.8113322728314,1580.189023763407,stimuli/337_zb.png,a,9.365757185732946,awful,0.333,3.033333333,2.20143764,0.284204377
107,19,0,2,6,21,141,1580.7791547051165,1587.1889146682806,stimuli/339_ya.png,a,6.397789030335844,ambig,0.333,4.949152542,1.960152429,0.25519011
107,19,0,2,6,22,142,1587.8337739806157,1594.436953416327,stimuli/267_ya.png,a,6.591050571063533,ambig,0.333,5.103448276,1.898195405,0.249245267
107,19,0,2,6,23,143,1595.0561410943046,1604.7968860215042,stimuli/332_zb.png,a,9.729014634154737,awful,0.333,2.694915254,2.002190501,0.260663001
107,19,0,2,6,24,144,1605.411268390948,1611.1408659163862,stimuli/195_xc.png,l,5.71781051857397,harmless,0.333,6.637640449,1.001766915,0.05309354
107,19,0,2,7,1,145,1619.8873212088365,1626.4449047623202,stimuli/103_xb.png,l,6.545980866299942,harmless,0.333,6.779661017,0.589207434,0.076708274
107,19,0,2,7,2,146,1627.0002248857636,1635.4208758571185,stimuli/355_zb.png,a,8.408995508914813,awful,0.333,3.183333333,2.070713188,0.267327923
107,19,0,2,7,3,147,1636.0025938660838,1645.6608116286807,stimuli/225_ya.png,l,9.646510706283152,ambig,0.333,5.85,1.792876677,0.231459384
107,19,0,2,7,4,148,1646.2301735242363,1654.6688555283472,stimuli/202_yb.png,l,8.426921384874731,ambig,0.333,5.431034483,1.892849601,0.248543329
107,19,0,2,7,5,149,1655.2375396159478,1660.6448207155336,stimuli/114_xc.png,l,5.395825316896662,harmless,0.333,6.644067797,0.97843492,0.127381377
107,19,0,2,7,6,150,1661.2625842483249,1671.5887918672524,stimuli/281_ya.png,l,10.314768377458677,ambig,0.333,5.881355932,1.543448286,0.200939852
107,19,0,2,7,7,151,1672.2120129165705,1677.0527725340798,stimuli/329_zb.png,a,4.828967490699142,awful,0.333,2.406779661,1.992387617,0.259386774
107,19,0,2,7,8,152,1677.636132091051,1686.2687530498952,stimuli/206_xa.png,l,8.620844192104414,harmless,0.333,6.325842697,1.136094431,0.060212884
107,19,0,2,7,9,153,1686.905941828154,1695.6288148362655,stimuli/235_ya.png,l,8.710652771173045,ambig,0.333,5.694915254,1.567495667,0.204070554
107,19,0,2,7,10,154,1696.19421267719,1710.0847074929625,stimuli/325_yb.png,a,13.879020916065201,ambig,0.333,5.131147541,1.811770863,0.231973488
107,19,0,2,7,11,155,1710.6631991199683,1717.8687175249215,stimuli/280_xb.png,l,7.1937585736159235,harmless,0.333,6.333333333,1.068289726,0.137915611
107,19,0,2,7,12,156,1718.4971207927447,1729.6447458849289,stimuli/180_xc.png,l,11.135642738081515,harmless,0.333,6.672131148,0.723908638,0.092687003
107,19,0,2,7,13,157,1730.2258869104553,1736.1966970544308,stimuli/338_zb.png,a,5.95889041130431,awful,0.333,3.310344828,2.137443107,0.28066003
107,19,0,2,7,14,158,1736.7763127163053,1760.5726568065584,stimuli/358_za.png,l,23.784429871244356,awful,0.333,3.949152542,2.112554662,0.275031191
107,19,0,2,7,15,159,1761.1498109344393,1770.4125779271126,stimuli/333_za.png,l,9.250774398446083,awful,0.333,3.266666667,2.185209657,0.282109354
107,19,0,2,7,16,160,1771.0362440219615,1780.7405842381995,stimuli/327_zb.png,a,9.69248192361556,awful,0.333,2.502808989,1.906990248,0.101070281
107,19,0,2,7,17,161,1781.333650116343,1790.9805629390758,stimuli/241_yb.png,a,9.63467210601084,ambig,0.333,5.508474576,1.442852555,0.187843403
107,19,0,2,7,18,162,1791.6072884250898,1799.3085594037548,stimuli/161_xc.png,l,7.689776598941535,harmless,0.333,6.796610169,0.609682252,0.079373868
107,19,0,2,7,19,163,1799.9347705277614,1804.740520829102,stimuli/305_zb.png,a,4.794027491239831,awful,0.333,2.75,2.12830003,0.274762352
107,19,0,2,7,20,164,1805.4020212935284,1819.5804955125786,stimuli/242_xb.png,l,14.166440665023401,harmless,0.333,6.576271186,0.913564256,0.118935936
107,19,0,2,7,21,165,1820.1884306322318,1824.3805098487064,stimuli/199_za.png,a,4.180528910830617,awful,0.333,3.033898305,2.189048775,0.284989876
107,19,0,2,7,22,166,1824.9668701139744,1831.7005266107153,stimuli/245_yb.png,l,6.721881699049845,ambig,0.333,4.949152542,2.096168334,0.272897873
107,19,0,2,7,23,167,1832.3189864621963,1836.7484705995303,stimuli/243_ya.png,l,4.417738877935335,ambig,0.333,5.830508475,1.652088985,0.215083666
107,19,0,2,7,24,168,1837.405410727486,1842.6924661695957,stimuli/163_xa.png,l,5.2750081033445895,harmless,0.333,6.627118644,0.963082427,0.125382652
107,19,0,2,8,1,169,1851.45168244862,1859.2364305469673,stimuli/300_za.png,a,7.773352180141956,awful,0.333,3.75,2.12032137,0.273732312
107,19,0,2,8,2,170,1859.8477456483524,1876.932406667387,stimuli/210_yb.png,a,17.072763341711834,ambig,0.333,5.557377049,1.76564049,0.226067099
107,19,0,2,8,3,171,1877.5535820834339,1898.9803868900053,stimuli/347_zb.png,a,21.414987473748624,awful,0.333,3.796610169,2.147810923,0.279621165
107,19,0,2,8,4,172,1899.5790595521685,1904.4923903150484,stimuli/144_xa.png,l,4.9012767288368195,harmless,0.333,6.542372881,1.00553698,0.130909764
107,19,0,2,8,5,173,1905.1412782727275,1908.4604730792344,stimuli/298_za.png,a,3.3065291305538267,awful,0.333,2.881355932,2.026418156,0.263817173
107,19,0,2,8,6,174,1909.0766175133176,1913.5963753615506,stimuli/131_xb.png,l,4.507995259715244,harmless,0.333,6.525423729,1.119666394,0.145768149
107,19,0,2,8,7,175,1914.1573121149559,1922.0523798700888,stimuli/247_ya.png,l,7.8830247486475855,ambig,0.333,4.65,2.081598147,0.268733165
107,19,0,2,8,8,176,1922.652471951209,1931.156333409017,stimuli/257_yb.png,l,8.492117773974314,ambig,0.333,5.620689655,1.843219782,0.242026615
107,19,0,2,8,9,177,1931.7631047151517,1940.1803146589082,stimuli/368_za.png,a,8.405505250673741,awful,0.333,3.590163934,2.02794682,0.259651984
107,19,0,2,8,10,178,1940.8268442698754,1948.2682804353535,stimuli/353_zb.png,a,7.429649552563205,awful,0.333,1.949152542,1.623361018,0.211343603
107,19,0,2,8,11,179,1948.887313331943,1965.9242899063975,stimuli/188_xa.png,l,17.02523564756848,harmless,0.333,6.655172414,0.806807095,0.105938962
107,19,0,2,8,12,180,1966.540225996403,1976.0602512655314,stimuli/212_ya.png,l,9.508639984764159,ambig,0.333,5.677966102,1.490668422,0.194068498
107,19,0,2,8,13,181,1976.6635590947699,1984.1962031722069,stimuli/208_xb.png,l,7.520495914388448,harmless,0.333,6.216666667,1.165778516,0.150501359
107,19,0,2,8,14,182,1984.7579882689752,1987.9562012345996,stimuli/293_zb.png,a,3.186307805357501,awful,0.333,3.677966102,2.169066842,0.28238845
107,19,0,2,8,15,183,1988.5186605944764,1994.356280082371,stimuli/345_zb.png,l,5.825568210799247,awful,0.333,3.694915254,2.191317013,0.285285176
107,19,0,2,8,16,184,1994.9138108603656,2001.7962011243217,stimuli/246_ya.png,l,6.870435085147619,ambig,0.333,5.542372881,1.715266481,0.223308675
107,19,0,2,8,17,185,2002.429388826713,2013.5402189071756,stimuli/136_xc.png,l,11.099451491376385,harmless,0.333,6.559322034,1.038420326,0.135190811
107,19,0,2,8,18,186,2014.1662555576768,2019.1401703853626,stimuli/152_xa.png,l,4.962251488352194,harmless,0.333,6.576271186,0.968528743,0.126091702
107,19,0,2,8,19,187,2019.751726520015,2030.1401660530828,stimuli/266_zb.png,a,10.376673400169238,awful,0.333,3.491525424,1.888010094,0.245797978
107,19,0,2,8,20,188,2030.768385394942,2036.1881427310873,stimuli/153_xb.png,l,5.407941972371191,harmless,0.333,6.633333333,0.973664521,0.125699549
107,19,0,2,8,21,189,2036.8130466821603,2041.9880905072205,stimuli/284_ya.png,l,5.16341278119944,ambig,0.333,5.948275862,1.431750417,0.18799804
107,19,0,2,8,22,190,2042.600278763799,2047.3321160883643,stimuli/201_yb.png,l,4.720231880666688,ambig,0.333,5.898305085,1.626238682,0.211718243
107,19,0,2,8,23,191,2047.9238696733955,2053.004068029579,stimuli/278_xb.png,l,5.068351484835148,harmless,0.333,6.360655738,1.140654591,0.146045855
107,19,0,2,8,24,192,2053.6157092349604,2059.8520684959367,stimuli/213_ya.png,l,6.2247790230903774,ambig,0.333,5.98245614,1.597891781,0.211645937
107,19,0,2,9,1,193,2068.6236846053507,2075.324063917855,stimuli/273_ya.png,l,6.688655714737251,ambig,0.333,5.551724138,1.836973233,0.241206403
107,19,0,2,9,2,194,2075.900498490082,2082.812038437696,stimuli/341_zb.png,a,6.8998628235422075,awful,0.333,3.603448276,2.15975677,0.283589957
107,19,0,2,9,3,195,2083.4545630342327,2091.804029984167,stimuli/264_xa.png,l,8.337626380147412,harmless,0.333,6.533333333,0.947193297,0.122282129
107,19,0,2,9,4,196,2092.430114683695,2097.843995451927,stimuli/303_zb.png,l,5.402255238033831,awful,0.333,3.620689655,2.158846233,0.283470398
107,19,0,2,9,5,197,2098.4691936052404,2106.3800159664825,stimuli/168_xa.png,l,7.898806136334315,harmless,0.333,6.474576271,1.164946827,0.151663159
107,19,0,2,9,6,198,2106.9695687431376,2111.844000571873,stimuli/357_za.png,a,4.8627972402609885,awful,0.333,2.793103448,2.066937905,0.271402243
107,19,0,2,9,7,199,2112.4110391729046,2119.371989396168,stimuli/251_ya.png,a,6.949064755113795,ambig,0.333,5.655172414,1.792300532,0.235340589
107,19,0,2,9,8,200,2119.939470679499,2136.4120202420745,stimuli/160_xb.png,l,16.46062470972538,harmless,0.333,6.666666667,0.680644427,0.087870818
107,19,0,2,9,9,201,2136.981385682244,2143.059940127656,stimuli/310_zb.png,a,6.066770983394235,awful,0.333,3.224137931,2.102989547,0.276136056
107,19,0,2,9,10,202,2143.639816909097,2157.883906568866,stimuli/223_yb.png,l,14.232140388572589,ambig,0.333,5.542372881,1.77455224,0.231027024
107,19,0,2,9,11,203,2158.519954376854,2165.6759061496705,stimuli/207_yb.png,a,7.1444022548384964,ambig,0.333,5.655737705,1.662179753,0.212820309
107,19,0,2,9,12,204,2166.2745532118715,2174.8199157407507,stimuli/204_xb.png,l,8.533468790119514,harmless,0.333,6.508474576,0.858484658,0.111765183
107,19,0,2,9,13,205,2175.4357498246245,2189.3078445743304,stimuli/254_ya.png,l,13.860698043834418,ambig,0.333,5.983606557,1.627798137,0.208418195
107,19,0,2,9,14,206,2189.9513888368383,2204.379841492977,stimuli/141_xc.png,l,14.417191433021799,harmless,0.333,6.508474576,1.040107444,0.135410455
107,19,0,2,9,15,207,2204.985777452821,2211.275802489603,stimuli/363_zb.png,a,6.278379026567563,awful,0.333,2.433333333,2.019956927,0.260775318
107,19,0,2,9,16,208,2211.8918720930815,2217.323795315344,stimuli/239_ya.png,a,5.420203563058749,ambig,0.333,5.157894737,1.925296579,0.255011762
107,19,0,2,9,17,209,2217.8912001927383,2223.8198015254457,stimuli/110_xa.png,l,5.916659938404337,harmless,0.333,6.428571429,1.059281795,0.141552484
107,19,0,2,9,18,210,2224.40733229951,2228.2757804342546,stimuli/318_za.png,a,3.85676904162392,awful,0.333,3.06557377,2.197489875,0.281359747
107,19,0,2,9,19,211,2228.907424262492,2233.107791956514,stimuli/121_xc.png,l,4.188654336379841,harmless,0.333,6.508474576,1.006408455,0.131023221
107,19,0,2,9,20,212,2233.722916724859,2246.139780478319,stimuli/109_xb.png,l,12.405294937081635,harmless,0.333,6.644067797,0.97843492,0.127381377
107,19,0,2,9,21,213,2246.7118752675597,2251.5317098761443,stimuli/297_za.png,a,4.807928660418838,awful,0.333,1.898305085,1.446695584,0.188343723
107,19,0,2,9,22,214,2252.1495687195566,2259.923761759652,stimuli/258_ya.png,l,7.762553331675008,ambig,0.333,5.627118644,1.78014243,0.231754804
107,19,0,2,9,23,215,2260.5166204751004,2265.539681701921,stimuli/279_ya.png,l,5.01111628790386,ambig,0.333,5.31147541,1.970964092,0.252356093
107,19,0,2,9,24,216,2266.1349483884405,2274.5717135467567,stimuli/366_za.png,a,8.425093548139557,awful,0.333,3.689655172,2.036568291,0.267414518
107,19,0,2,10,1,217,2283.9301912868395,2288.651683078846,stimuli/324_za.png,a,4.709891862003133,awful,0.333,2.491525424,1.994586478,0.259673041
107,19,0,2,10,2,218,2289.2691697382834,2293.187659088988,stimuli/111_xa.png,l,3.9062001910060644,harmless,0.333,6.590163934,0.863655973,0.110579816
107,19,0,2,10,3,219,2293.7965595235582,2298.539677369641,stimuli/255_xb.png,l,4.7316982969641685,harmless,0.333,6.770491803,0.642740036,0.082294429
107,19,0,2,10,4,220,2299.176597545389,2306.283658524975,stimuli/288_yb.png,l,7.0952633388806134,ambig,0.333,5.189655172,1.914459262,0.251380817
107,19,0,2,10,5,221,2306.893367524259,2314.9156572078355,stimuli/285_yb.png,a,8.010411698371172,ambig,0.333,4.120689655,2.119893958,0.278355714
107,19,0,2,10,6,222,2315.5409680011217,2321.427650392754,stimuli/356_za.png,a,5.874539348529652,awful,0.333,3.033333333,2.178217796,0.281206708
107,19,0,2,10,7,223,2322.0494059431367,2326.267615624005,stimuli/326_zb.png,a,4.206371868029237,awful,0.333,3.389830508,2.220724867,0.289113752
107,19,0,2,10,8,224,2326.8816588928457,2333.147620365955,stimuli/301_za.png,a,6.254215426277369,awful,0.333,3.610169492,2.212947396,0.288101212
107,19,0,2,10,9,225,2333.7178207584657,2339.1477377319243,stimuli/120_xa.png,l,5.418018902186304,harmless,0.333,6.440677966,1.054893138,0.137335389
107,19,0,2,10,10,226,2339.7479845942,2350.107559193857,stimuli/276_ya.png,l,10.347463064128533,ambig,0.333,5.186440678,1.804922162,0.234980851
107,19,0,2,10,11,227,2350.727633811999,2356.3635650416836,stimuli/193_xc.png,l,5.623980383388698,harmless,0.333,6.482758621,1.012923151,0.133003326
107,19,0,2,10,12,228,2356.9872874564026,2363.0195430053864,stimuli/224_yb.png,l,6.020016801543534,ambig,0.333,5.881355932,1.609077116,0.209483997
107,19,0,2,10,13,229,2363.611890509259,2369.915527632693,stimuli/317_za.png,a,6.291606326121837,awful,0.333,3.65,2.03215674,0.262350307
107,19,0,2,10,14,230,2370.5001860919874,2391.92349079391,stimuli/319_ya.png,a,21.411657116375864,ambig,0.333,4.216666667,2.108028774,0.272145344
107,19,0,2,10,15,231,2392.5505593195558,2396.0114829579834,stimuli/292_zb.png,a,3.4490421086084098,awful,0.333,2.396551724,1.955107169,0.256718148
107,19,0,2,10,16,232,2396.6301105879247,2401.4194670720026,stimuli/314_zb.png,a,4.777456837473437,awful,0.333,1.833333333,1.451669602,0.18740974
107,19,0,2,10,17,233,2402.0167593057267,2412.6034614287782,stimuli/200_ya.png,a,10.574869430158287,ambig,0.333,5.862068966,1.444266048,0.189641423
107,19,0,2,10,18,234,2413.230902138399,2416.6034488258883,stimuli/328_za.png,a,3.360800640657544,awful,0.333,2.706896552,1.955725922,0.256799395
107,19,0,2,10,19,235,2417.2401626266073,2423.171449197689,stimuli/182_xb.png,l,5.91924356482923,harmless,0.333,6.542372881,0.988241802,0.128658124
107,19,0,2,10,20,236,2423.7960357090924,2429.491432088893,stimuli/236_yb.png,l,5.684150516521186,ambig,0.333,5.93442623,1.49297078,0.19115532
107,19,0,2,10,21,237,2430.125687900232,2440.7234239978716,stimuli/167_xb.png,l,10.586031404556707,harmless,0.333,6.590163934,0.955284411,0.122311635
107,19,0,2,10,22,238,2441.349442925304,2446.483405912528,stimuli/137_xa.png,l,5.122312644962221,harmless,0.333,6.355932203,1.094858074,0.14253838
107,19,0,2,10,23,239,2447.1234362858813,2453.267399403034,stimuli/164_xb.png,l,6.132049686042592,harmless,0.333,6.830508475,0.460604639,0.059965616
107,19,0,2,10,24,240,2453.8829790626187,2462.6434209889267,stimuli/222_ya.png,l,8.749092481797561,ambig,0.333,5.931034483,1.543089507,0.202617579
