id,age,condition,counterbalance,block,trialinblock,trial,tstart,tend,trialstim,response,RT,trialtype,ethicfreq,norm_mean,norm_sd,norm_se
047,72,0,2,0,0,practice,3.544599167071283e-06,52.51987444196129,stimuli/prac_217_1.png,l,52.50555420991441,harmless,NA,NA,NA,NA
047,72,0,2,1,1,1,5.687584603001596,60.871721677074675,stimuli/131_xb.png,a,55.17285378673114,harmless,0.333,6.525423729,1.119666394,0.145768149
047,72,0,2,1,2,2,61.42900634682155,72.93573067251418,stimuli/319_ya.png,a,11.494833334319992,ambig,0.333,4.216666667,2.108028774,0.272145344
047,72,0,2,1,3,3,73.49241945362883,85.01563922152855,stimuli/198_yb.png,a,11.51137879495218,ambig,0.333,5.101694915,1.83542643,0.238952168
047,72,0,2,1,4,4,85.57087313637021,105.62363547211862,stimuli/367_zb.png,l,20.04096626120736,awful,0.333,3.413793103,2.086165649,0.27392697
047,72,0,2,1,5,5,106.18374047140242,118.0236394105741,stimuli/119_xc.png,a,11.827959898626432,harmless,0.333,6.694915254,0.914523379,0.119060803
047,72,0,2,1,6,6,118.57556187022419,152.80760791867215,stimuli/246_ya.png,l,34.22023225085286,ambig,0.333,5.542372881,1.715266481,0.223308675
047,72,0,2,1,7,7,153.35962135667796,165.7995990650088,stimuli/101_xa.png,l,12.428564058020129,harmless,0.333,6.508522727,1.13475832,0.060482822
047,72,0,2,1,8,8,166.35968082740146,174.2716236094857,stimuli/116_xa.png,l,7.900109292197158,harmless,0.333,6.63559322,0.958030802,0.050918763
047,72,0,2,1,9,9,174.8329471675679,186.35157941999205,stimuli/340_za.png,a,11.50671487339423,awful,0.333,2.508474576,1.832398855,0.238558011
047,72,0,2,1,10,10,186.90998221786867,195.92755049595144,stimuli/265_yb.png,a,9.005795834294986,ambig,0.333,5.627118644,1.856008928,0.241631781
047,72,0,2,1,11,11,196.47525132283045,206.39157642675855,stimuli/230_yb.png,l,9.90450658017653,ambig,0.333,4.98245614,1.875511626,0.248417583
047,72,0,2,1,12,12,206.95266840353725,218.66357379587134,stimuli/266_zb.png,l,11.69866742285376,awful,0.333,3.491525424,1.888010094,0.245797978
047,72,0,2,1,13,13,219.24595431782654,227.90353299344133,stimuli/128_xc.png,l,8.64577354262292,harmless,0.333,6.627118644,0.98082135,0.127692063
047,72,0,2,1,14,14,228.46237571704842,240.95147780778643,stimuli/252_zb.png,a,12.477198102453258,awful,0.333,2.711864407,1.983125776,0.258180985
047,72,0,2,1,15,15,241.55328674138582,247.4874770831084,stimuli/190_xc.png,l,5.922119756680331,harmless,0.333,6.517241379,1.046990328,0.137476565
047,72,0,2,1,16,16,248.0423588998383,258.759483510672,stimuli/344_za.png,a,10.705297816326492,awful,0.333,2.711864407,2.043077863,0.265986082
047,72,0,2,1,17,17,259.30740095271904,264.85547514537757,stimuli/270_yb.png,a,5.536157601323794,ambig,0.333,5.534482759,1.912246013,0.251090203
047,72,0,2,1,18,18,265.418346911174,273.9754760118376,stimuli/361_za.png,a,8.545601628939039,awful,0.333,2.416666667,1.907093508,0.246204713
047,72,0,2,1,19,19,274.5281164523185,289.21545765863266,stimuli/250_yb.png,l,14.675673525489401,ambig,0.333,5.950819672,1.585625318,0.203018519
047,72,0,2,1,20,20,289.76229438789596,297.4554326100333,stimuli/241_yb.png,l,7.681761987187201,ambig,0.333,5.508474576,1.442852555,0.187843403
047,72,0,2,1,21,21,298.0137645156792,306.37545198724547,stimuli/292_zb.png,a,8.349924873909913,awful,0.333,2.396551724,1.955107169,0.256718148
047,72,0,2,1,22,22,306.93736434474704,327.77538857808395,stimuli/333_za.png,l,20.826252971077338,awful,0.333,3.266666667,2.185209657,0.282109354
047,72,0,2,1,23,23,328.3395013518748,335.3353687282506,stimuli/158_xa.png,l,6.984046883400879,harmless,0.333,6.786885246,0.661179605,0.084655374
047,72,0,2,1,24,24,335.89183104805124,351.59940017289773,stimuli/141_xc.png,l,15.695899474798352,harmless,0.333,6.508474576,1.040107444,0.135410455
047,72,0,2,2,1,25,364.2567937410058,372.22334323855466,stimuli/154_xc.png,l,7.954844795225654,harmless,0.333,6.5,0.965506805,0.124646393
047,72,0,2,2,2,26,372.7882578823337,381.3033376459498,stimuli/338_zb.png,a,8.503227369132219,awful,0.333,3.310344828,2.137443107,0.28066003
047,72,0,2,2,3,27,381.86615191026067,388.92733191156003,stimuli/306_zb.png,a,7.0493595083244145,awful,0.333,2.352112676,1.917055413,0.101746737
047,72,0,2,2,4,28,389.47546675647027,399.17540157499025,stimuli/144_xa.png,l,9.688046190232853,harmless,0.333,6.542372881,1.00553698,0.130909764
047,72,0,2,2,5,29,399.74130949779646,406.631351304517,stimuli/115_xb.png,l,6.878206741457689,harmless,0.333,6.440677966,1.021681954,0.133011661
047,72,0,2,2,6,30,407.1872776002274,416.9353230421402,stimuli/218_yb.png,l,9.736243459687103,ambig,0.333,5.850282486,1.552723069,0.0825263
047,72,0,2,2,7,31,417.49961501576763,429.671333345148,stimuli/151_xa.png,l,12.159786771895597,harmless,0.333,6.610169492,0.947172729,0.123311386
047,72,0,2,2,8,32,430.2354949558212,438.35128206643276,stimuli/219_ya.png,l,8.10389218077762,ambig,0.333,5.271186441,1.998538332,0.260187529
047,72,0,2,2,9,33,438.9081748596509,447.3752877535735,stimuli/206_xa.png,l,8.455184881051537,harmless,0.333,6.325842697,1.136094431,0.060212884
047,72,0,2,2,10,34,447.9402689572744,458.5352816883387,stimuli/235_ya.png,l,10.58315403504821,ambig,0.333,5.694915254,1.567495667,0.204070554
047,72,0,2,2,11,35,459.087140344971,468.04730560265307,stimuli/205_yb.png,l,8.948487336863764,ambig,0.333,5.847457627,1.52918233,0.199082582
047,72,0,2,2,12,36,468.6034390612331,476.2552947640215,stimuli/189_yb.png,l,7.6400399359554285,ambig,0.333,5.983333333,1.455459234,0.187898979
047,72,0,2,2,13,37,476.82197895682475,483.4152414373093,stimuli/317_za.png,a,6.581452227503178,awful,0.333,3.65,2.03215674,0.262350307
047,72,0,2,2,14,38,483.98105050482263,503.89525356775266,stimuli/296_yb.png,a,19.902396748409956,ambig,0.333,4.229508197,2.052587332,0.262806878
047,72,0,2,2,15,39,504.45087896529003,510.4632232731383,stimuli/360_za.png,a,6.000477734909509,awful,0.333,3.2,2.207844259,0.285031468
047,72,0,2,2,16,40,511.0280461508519,518.7352820821834,stimuli/201_yb.png,a,7.695538318235776,ambig,0.333,5.898305085,1.626238682,0.211718243
047,72,0,2,2,17,41,519.2958073149057,529.9752444305341,stimuli/342_yb.png,a,10.667550062717055,ambig,0.333,4.916666667,2.085394461,0.269223267
047,72,0,2,2,18,42,530.5289632207132,547.2712147975835,stimuli/204_xb.png,l,16.73048110230593,harmless,0.333,6.508474576,0.858484658,0.111765183
047,72,0,2,2,19,43,547.8279402063345,556.5352198545588,stimuli/327_zb.png,a,8.695692311928724,awful,0.333,2.502808989,1.906990248,0.101070281
047,72,0,2,2,20,44,557.0936159570556,571.2312197600404,stimuli/105_xa.png,l,14.125808122291346,harmless,0.333,6.557377049,1.088187946,0.139328189
047,72,0,2,2,21,45,571.7833497763932,580.1511552480952,stimuli/365_zb.png,a,8.35594323107216,awful,0.333,2.966101695,2.165291266,0.281896912
047,72,0,2,2,22,46,580.6966974063398,589.0071439683525,stimuli/180_xc.png,l,8.298575656779576,harmless,0.333,6.672131148,0.723908638,0.092687003
047,72,0,2,2,23,47,589.574076283985,598.3991713485157,stimuli/370_za.png,a,8.813249759259634,awful,0.333,2.393442623,1.882185684,0.240989182
047,72,0,2,2,24,48,598.9497456740937,607.7031237876945,stimuli/332_zb.png,a,8.741415048454655,awful,0.333,2.694915254,2.002190501,0.260663001
047,72,0,2,3,1,49,620.2498163694108,628.0231092941685,stimuli/267_ya.png,l,7.761589010129683,ambig,0.333,5.103448276,1.898195405,0.249245267
047,72,0,2,3,2,50,628.5780620031437,636.4551466780104,stimuli/350_ya.png,a,7.865308292617556,ambig,0.333,4.915254237,2.02814792,0.264042369
047,72,0,2,3,3,51,637.0074704664876,644.799107151659,stimuli/247_ya.png,l,7.779744906103588,ambig,0.333,4.65,2.081598147,0.268733165
047,72,0,2,3,4,52,645.3410609811108,652.4551391949499,stimuli/355_zb.png,a,7.102243936256855,awful,0.333,3.183333333,2.070713188,0.267327923
047,72,0,2,3,5,53,653.0124829415581,662.4551549487805,stimuli/291_za.png,a,9.430878295752336,awful,0.333,2.593220339,1.830005126,0.238246374
047,72,0,2,3,6,54,663.0120985480899,668.7910955410771,stimuli/346_zb.png,a,5.767282838365645,awful,0.333,1.288135593,0.983499162,0.128040685
047,72,0,2,3,7,55,669.3877821166534,675.5430900744977,stimuli/153_xb.png,l,6.143317323498195,harmless,0.333,6.633333333,0.973664521,0.125699549
047,72,0,2,3,8,56,676.0922493122489,682.9270566133637,stimuli/295_za.png,a,6.8230025619704975,awful,0.333,2.3,1.825432384,0.235662307
047,72,0,2,3,9,57,683.4842144647846,696.7830709335976,stimuli/234_xb.png,l,13.28693121287506,harmless,0.333,6.637931034,0.788030542,0.103473479
047,72,0,2,3,10,58,697.3436851754523,711.3350048147695,stimuli/191_ya.png,l,13.979613755451282,ambig,0.333,5.517241379,2.062542966,0.270825159
047,72,0,2,3,11,59,711.8920720816532,720.0070214823209,stimuli/226_yb.png,l,8.10311472923786,ambig,0.333,5.683333333,1.712285287,0.22105508
047,72,0,2,3,12,60,720.5644282442663,727.8070108484826,stimuli/279_ya.png,a,7.230836154252756,ambig,0.333,5.31147541,1.970964092,0.252356093
047,72,0,2,3,13,61,728.3620131820207,738.1030139047216,stimuli/202_yb.png,a,9.729263725021156,ambig,0.333,5.431034483,1.892849601,0.248543329
047,72,0,2,3,14,62,738.6598570733768,745.3190138889768,stimuli/125_xc.png,l,6.647678574590827,harmless,0.333,6.683333333,0.999858747,0.129081209
047,72,0,2,3,15,63,745.8785552949703,753.8469731968362,stimuli/303_zb.png,a,7.956630098095047,awful,0.333,3.620689655,2.158846233,0.283470398
047,72,0,2,3,16,64,754.3981634972006,763.7269672103721,stimuli/352_zb.png,a,9.316935564856976,awful,0.333,2.93442623,2.135952968,0.273480754
047,72,0,2,3,17,65,764.288987875465,772.3429431700351,stimuli/227_xa.png,l,8.042115896998439,harmless,0.333,6.180327869,1.05685377,0.135316259
047,72,0,2,3,18,66,772.9006244424672,783.4789546545653,stimuli/278_xb.png,l,10.56643685765448,harmless,0.333,6.360655738,1.140654591,0.146045855
047,72,0,2,3,19,67,784.0425306165853,791.3910014119465,stimuli/221_xb.png,l,7.336668419287889,harmless,0.333,6.440677966,1.133672495,0.147591588
047,72,0,2,3,20,68,791.9479355589574,797.7589695419447,stimuli/117_xc.png,l,5.7991205424041254,harmless,0.333,6.627118644,0.868972939,0.113130641
047,72,0,2,3,21,69,798.3248215386411,811.2069635869993,stimuli/211_zb.png,a,12.870286503108218,awful,0.333,3.983333333,2.127237938,0.274625237
047,72,0,2,3,22,70,811.7615315086441,820.1749155693105,stimuli/310_zb.png,a,8.401673844491597,awful,0.333,3.224137931,2.102989547,0.276136056
047,72,0,2,3,23,71,820.732991475219,828.3269416104013,stimuli/281_ya.png,l,7.582099316088716,ambig,0.333,5.881355932,1.543448286,0.200939852
047,72,0,2,3,24,72,828.8889484908868,835.7349441625265,stimuli/132_xc.png,l,6.834207080173655,harmless,0.333,6.627118644,0.692280217,0.090127208
047,72,0,2,4,1,73,849.3124185477791,856.7029217448144,stimuli/257_yb.png,l,7.3789446114969905,ambig,0.333,5.620689655,1.843219782,0.242026615
047,72,0,2,4,2,74,857.265465830933,864.254913915167,stimuli/232_yb.png,a,6.977631923567969,ambig,0.333,5.483333333,1.845669845,0.238274952
047,72,0,2,4,3,75,864.8130859194207,871.3668956879847,stimuli/185_xa.png,l,6.541929804865504,harmless,0.333,6.5,0.965506805,0.124646393
047,72,0,2,4,4,76,871.9233607646893,876.9188555629808,stimuli/299_za.png,a,4.98361798535916,awful,0.333,1.288135593,0.929420425,0.121000233
047,72,0,2,4,5,77,877.5114292072103,885.7668740264635,stimuli/110_xa.png,l,8.243861027585808,harmless,0.333,6.428571429,1.059281795,0.141552484
047,72,0,2,4,6,78,886.3083812348341,897.6948483004671,stimuli/175_xb.png,l,11.374719827974332,harmless,0.333,6.6,1.028409995,0.13276716
047,72,0,2,4,7,79,898.247369405668,908.7428163516888,stimuli/217_yb.png,a,10.48355359157722,ambig,0.333,5.169491525,2.001314588,0.260548967
047,72,0,2,4,8,80,909.293786886119,927.9828259615315,stimuli/208_xb.png,l,18.677289474668214,harmless,0.333,6.216666667,1.165778516,0.150501359
047,72,0,2,4,9,81,928.5479150789761,934.8147952100553,stimuli/322_za.png,a,6.255209693335928,awful,0.333,2.406779661,1.975004531,0.257123689
047,72,0,2,4,10,82,935.374036505571,942.7268238505203,stimuli/251_ya.png,l,7.340947553529986,ambig,0.333,5.655172414,1.792300532,0.235340589
047,72,0,2,4,11,83,943.2807407451182,950.3908088213648,stimuli/366_za.png,a,7.098244038657867,awful,0.333,3.689655172,2.036568291,0.267414518
047,72,0,2,4,12,84,950.9537613255379,960.6547902476013,stimuli/300_za.png,a,9.689094213827047,awful,0.333,3.75,2.12032137,0.273732312
047,72,0,2,4,13,85,961.2045071709435,970.6868059699191,stimuli/335_yb.png,l,9.470621665852377,ambig,0.333,5.016949153,2.046793332,0.266469795
047,72,0,2,4,14,86,971.2379379811173,978.166778715793,stimuli/345_zb.png,a,6.917074592420249,awful,0.333,3.694915254,2.191317013,0.285285176
047,72,0,2,4,15,87,978.7230401742418,986.6067843871715,stimuli/213_ya.png,l,7.871819350824808,ambig,0.333,5.98245614,1.597891781,0.211645937
047,72,0,2,4,16,88,987.16194780363,1000.0787782116677,stimuli/253_ya.png,l,12.905130038023344,ambig,0.333,5.491803279,1.849531029,0.236808182
047,72,0,2,4,17,89,1000.6307924373832,1007.6067631195037,stimuli/123_xc.png,l,6.964097413816489,harmless,0.333,6.491525424,1.023396666,0.133234897
047,72,0,2,4,18,90,1008.1496322465246,1014.0227378976124,stimuli/259_xc.png,l,5.8614497856469825,harmless,0.333,6.568965517,0.993170874,0.130409725
047,72,0,2,4,19,91,1014.5874315939145,1019.9187283507927,stimuli/349_za.png,a,5.319732657488203,awful,0.333,3.288135593,2.101320172,0.273568585
047,72,0,2,4,20,92,1020.4783772766823,1026.534720851967,stimuli/351_zb.png,a,6.044698737518047,awful,0.333,3.06779661,2.033040926,0.264679384
047,72,0,2,4,21,93,1027.0890997276583,1036.5026878004282,stimuli/272_xb.png,l,9.40159980149474,harmless,0.333,6.355932203,1.029943284,0.134087194
047,72,0,2,4,22,94,1037.0574479188217,1045.2707126442256,stimuli/328_za.png,a,8.201435173978098,awful,0.333,2.706896552,1.955725922,0.256799395
047,72,0,2,4,23,95,1045.823806401182,1052.3827089893311,stimuli/285_yb.png,a,6.547097061309614,ambig,0.333,4.120689655,2.119893958,0.278355714
047,72,0,2,4,24,96,1052.9355888880382,1061.5586883360666,stimuli/188_xa.png,l,8.61126438275096,harmless,0.333,6.655172414,0.806807095,0.105938962
047,72,0,2,5,1,97,1075.5491486039246,1086.5746449972794,stimuli/268_zb.png,a,11.014389155068784,awful,0.333,2.655737705,2.048456703,0.262278005
047,72,0,2,5,2,98,1087.1255454271595,1100.342690714897,stimuli/311_za.png,a,13.205332277837442,awful,0.333,3.116666667,1.975199339,0.254997138
047,72,0,2,5,3,99,1100.8921540015726,1108.0546421615873,stimuli/120_xa.png,l,7.150676725490484,harmless,0.333,6.440677966,1.054893138,0.137335389
047,72,0,2,5,4,100,1108.613176897794,1115.0145931671723,stimuli/236_yb.png,l,6.389559936433216,ambig,0.333,5.93442623,1.49297078,0.19115532
047,72,0,2,5,5,101,1115.5676093365182,1128.2626293537178,stimuli/225_ya.png,l,12.683175893485895,ambig,0.333,5.85,1.792876677,0.231459384
047,72,0,2,5,6,102,1128.8197482144024,1137.0466155848699,stimuli/315_yb.png,a,8.214870828436688,ambig,0.333,5.050847458,1.915667965,0.249398726
047,72,0,2,5,7,103,1137.6014891308441,1143.8225988700578,stimuli/255_xb.png,l,6.209188815570087,harmless,0.333,6.770491803,0.642740036,0.082294429
047,72,0,2,5,8,104,1144.3830595120671,1150.478567898026,stimuli/316_za.png,a,6.0836457514815265,awful,0.333,2.344827586,1.802062407,0.236622386
047,72,0,2,5,9,105,1151.0400970436021,1155.8145742625784,stimuli/353_zb.png,a,4.762627187563339,awful,0.333,1.949152542,1.623361018,0.211343603
047,72,0,2,5,10,106,1156.3689369905915,1164.9186208308965,stimuli/214_xb.png,l,8.537779852034873,harmless,0.333,6.465517241,0.940614156,0.12350869
047,72,0,2,5,11,107,1165.484948199446,1172.7346322366793,stimuli/195_xc.png,l,7.237781230491237,harmless,0.333,6.637640449,1.001766915,0.05309354
047,72,0,2,5,12,108,1173.291482888395,1182.8225724824006,stimuli/210_yb.png,l,9.51922774722334,ambig,0.333,5.557377049,1.76564049,0.226067099
047,72,0,2,5,13,109,1183.3710015300894,1189.6785738057224,stimuli/256_zb.png,a,6.295931770160678,awful,0.333,3.051724138,2.012438634,0.264246138
047,72,0,2,5,14,110,1190.229872019816,1197.3025688590133,stimuli/356_za.png,a,7.060796001678682,awful,0.333,3.033333333,2.178217796,0.281206708
047,72,0,2,5,15,111,1197.8733825246745,1206.142537902735,stimuli/171_xa.png,l,8.257263599007274,harmless,0.333,6.465517241,1.046556882,0.137419651
047,72,0,2,5,16,112,1206.734551498288,1218.7185255202203,stimuli/164_xb.png,l,11.97245836557704,harmless,0.333,6.830508475,0.460604639,0.059965616
047,72,0,2,5,17,113,1219.2695811253361,1226.7585615177231,stimuli/173_yb.png,l,7.477051985668368,ambig,0.333,5.796610169,1.242628763,0.161776485
047,72,0,2,5,18,114,1227.318254160491,1242.1586064161384,stimuli/368_za.png,l,14.828427787389955,awful,0.333,3.590163934,2.02794682,0.259651984
047,72,0,2,5,19,115,1242.7108297739614,1254.7265493400191,stimuli/245_yb.png,a,12.003999897598987,ambig,0.333,4.949152542,2.096168334,0.272897873
047,72,0,2,5,20,116,1255.2731509433652,1263.7744953358924,stimuli/107_xa.png,l,8.4893104351504,harmless,0.333,6.813559322,0.540580029,0.070377525
047,72,0,2,5,21,117,1264.3381197409326,1271.9424607089604,stimuli/258_ya.png,l,7.59240350285836,ambig,0.333,5.627118644,1.78014243,0.231754804
047,72,0,2,5,22,118,1272.4953063430876,1279.4704853952135,stimuli/358_za.png,a,6.963468442118028,awful,0.333,3.949152542,2.112554662,0.275031191
047,72,0,2,5,23,119,1280.0414361192088,1286.422508285541,stimuli/138_xc.png,l,6.369167390366783,harmless,0.333,6.661016949,0.70978796,0.092406522
047,72,0,2,5,24,120,1286.9798547890678,1293.998440370764,stimuli/263_ya.png,l,7.006795020992286,ambig,0.333,4.983050847,2.071910042,0.269739712
047,72,0,2,6,1,121,1306.2023516530753,1312.0944323993317,stimuli/122_xa.png,l,5.8801204380288254,harmless,0.333,6.457627119,1.039264227,0.135300678
047,72,0,2,6,2,122,1312.654457841767,1318.214443899633,stimuli/283_yb.png,l,5.548172260270803,ambig,0.333,5.949152542,1.478859402,0.192531095
047,72,0,2,6,3,123,1318.7564528674993,1327.1504467195628,stimuli/289_yb.png,l,8.381971316208364,ambig,0.333,5.305084746,1.714584873,0.223219937
047,72,0,2,6,4,124,1327.7095281137008,1334.8064118090697,stimuli/134_xc.png,l,7.085062414698768,harmless,0.333,6.516666667,0.965360505,0.124627505
047,72,0,2,6,5,125,1335.3570901099447,1344.5264051924605,stimuli/318_za.png,l,9.157415426539956,awful,0.333,3.06557377,2.197489875,0.281359747
047,72,0,2,6,6,126,1345.0771854993945,1351.422408642553,stimuli/372_zb.png,a,6.333361296376097,awful,0.333,2.796610169,2.082601664,0.271131643
047,72,0,2,6,7,127,1351.98419733248,1359.9504841349117,stimuli/288_yb.png,a,7.954339491116116,ambig,0.333,5.189655172,1.914459262,0.251380817
047,72,0,2,6,8,128,1360.5185853847797,1367.0863802226377,stimuli/162_xa.png,l,6.556065323253279,harmless,0.333,6.644067797,0.905209289,0.117848212
047,72,0,2,6,9,129,1367.6442324241507,1384.6384023252758,stimuli/224_yb.png,l,16.98246322957857,ambig,0.333,5.881355932,1.609077116,0.209483997
047,72,0,2,6,10,130,1385.204293312694,1391.5183853111375,stimuli/109_xb.png,l,6.302483788327663,harmless,0.333,6.644067797,0.97843492,0.127381377
047,72,0,2,6,11,131,1392.0671747277083,1398.9183797972946,stimuli/229_za.png,a,6.839322742816876,awful,0.333,3.406779661,2.043649913,0.266060557
047,72,0,2,6,12,132,1399.473609773675,1407.4783248951862,stimuli/239_ya.png,a,7.992893840841134,ambig,0.333,5.157894737,1.925296579,0.255011762
047,72,0,2,6,13,133,1408.0369431267027,1414.8383271007333,stimuli/313_zb.png,a,6.7895000718854135,awful,0.333,2.101694915,1.688652955,0.219843889
047,72,0,2,6,14,134,1415.3977070299588,1421.3823182943306,stimuli/301_za.png,a,5.972679313053959,awful,0.333,3.610169492,2.212947396,0.288101212
047,72,0,2,6,15,135,1421.944590233019,1427.254396401826,stimuli/359_za.png,a,5.29819992792909,awful,0.333,2.01754386,1.641985167,0.217486248
047,72,0,2,6,16,136,1427.8244700312935,1438.4223586241424,stimuli/280_xb.png,l,10.586137022881303,harmless,0.333,6.333333333,1.068289726,0.137915611
047,72,0,2,6,17,137,1438.9760596912674,1447.6702825646498,stimuli/309_ya.png,l,8.682349211230758,ambig,0.333,4.706896552,1.946734744,0.255618795
047,72,0,2,6,18,138,1448.2257716915483,1452.4623052186507,stimuli/337_zb.png,a,4.224680344923399,awful,0.333,3.033333333,2.20143764,0.284204377
047,72,0,2,6,19,139,1453.0236906105274,1460.670310921545,stimuli/104_xc.png,l,7.6345804459560895,harmless,0.333,6.745762712,0.756425814,0.098478253
047,72,0,2,6,20,140,1461.2271639363316,1468.6622949786688,stimuli/220_yb.png,l,7.423322758579161,ambig,0.333,4.75,2.096203186,0.270618668
047,72,0,2,6,21,141,1469.2083140841278,1476.3742964437697,stimuli/373_zb.png,a,7.154058679079753,awful,0.333,2.327586207,1.858011869,0.243968911
047,72,0,2,6,22,142,1476.9263583248248,1484.5982584140293,stimuli/169_xc.png,l,7.660040605507675,harmless,0.333,6.603448276,0.916508538,0.120343467
047,72,0,2,6,23,143,1485.1749419569824,1493.4542585558083,stimuli/170_xc.png,l,8.267429939762224,harmless,0.333,6.583333333,1.062323432,0.137145365
047,72,0,2,6,24,144,1494.0064586767257,1511.870303044634,stimuli/312_yb.png,a,17.852004970336566,ambig,0.333,4.677966102,2.112692986,0.275049199
047,72,0,2,7,1,145,1524.4164848083892,1536.1262082695903,stimuli/271_ya.png,a,11.697954955860041,ambig,0.333,5.711864407,1.771915459,0.230683744
047,72,0,2,7,2,146,1536.6823586635292,1542.2381892547128,stimuli/192_za.png,a,5.544017187436111,awful,0.333,2.68852459,2.093967396,0.268105052
047,72,0,2,7,3,147,1542.7908793197566,1550.278252427568,stimuli/277_yb.png,l,7.475551433293731,ambig,0.333,5.491525424,2.02886822,0.264136144
047,72,0,2,7,4,148,1550.8381360855274,1562.1182084743778,stimuli/223_yb.png,l,11.268296006601304,ambig,0.333,5.542372881,1.77455224,0.231027024
047,72,0,2,7,5,149,1562.667407884408,1582.102192342456,stimuli/269_za.png,l,19.422865897475276,awful,0.333,3.457627119,2.119873401,0.27598401
047,72,0,2,7,6,150,1582.6535137934698,1588.7821965959884,stimuli/298_za.png,a,6.1167126481595915,awful,0.333,2.881355932,2.026418156,0.263817173
047,72,0,2,7,7,151,1589.3441046211956,1597.0781263969257,stimuli/166_xa.png,l,7.722212310443865,harmless,0.333,6.593220339,1.052397002,0.13701042
047,72,0,2,7,8,152,1597.6405724154465,1605.5741404808505,stimuli/308_zb.png,a,7.921710550930584,awful,0.333,1.644067797,1.471132708,0.191525165
047,72,0,2,7,9,153,1606.1261011435417,1612.8780976461858,stimuli/108_xb.png,l,6.740265806511161,harmless,0.333,6.568965517,1.077880782,0.141532681
047,72,0,2,7,10,154,1613.4388284663873,1621.494126381178,stimuli/287_ya.png,l,8.043374234228395,ambig,0.333,5.950819672,1.407435369,0.180203633
047,72,0,2,7,11,155,1622.0499168000824,1627.6701758324489,stimuli/187_xc.png,l,5.608672483765986,harmless,0.333,6.224137931,1.185335891,0.155642228
047,72,0,2,7,12,156,1628.2227115099522,1640.126119654291,stimuli/228_ya.png,a,11.89150573144434,ambig,0.333,5.442622951,1.793735303,0.229664272
047,72,0,2,7,13,157,1640.6763596048258,1649.9181017421797,stimuli/347_zb.png,a,9.229899589015986,awful,0.333,3.796610169,2.147810923,0.279621165
047,72,0,2,7,14,158,1650.4813130030234,1657.2541266174812,stimuli/196_xb.png,l,6.760998635319993,harmless,0.333,6.594366197,0.982313556,0.05213579
047,72,0,2,7,15,159,1657.801400515542,1663.6060731017205,stimuli/111_xa.png,l,5.7927697794366395,harmless,0.333,6.590163934,0.863655973,0.110579816
047,72,0,2,7,16,160,1664.1609214415512,1669.8780736215995,stimuli/103_xb.png,l,5.705362407039502,harmless,0.333,6.779661017,0.589207434,0.076708274
047,72,0,2,7,17,161,1670.4277224096295,1676.7500768983882,stimuli/237_ya.png,l,6.31062339876371,ambig,0.333,4.305084746,2.019339575,0.26289562
047,72,0,2,7,18,162,1677.304169448209,1685.9420625308994,stimuli/341_zb.png,a,8.626052897423506,awful,0.333,3.603448276,2.15975677,0.283589957
047,72,0,2,7,19,163,1686.4932843389252,1700.6701167555875,stimuli/325_yb.png,l,14.164936305300216,ambig,0.333,5.131147541,1.811770863,0.231973488
047,72,0,2,7,20,164,1701.2264046016935,1706.4542128697067,stimuli/106_xc.png,l,5.215782581391977,harmless,0.333,6.661016949,0.863237081,0.112383896
047,72,0,2,7,21,165,1707.0105605803692,1713.3661332025804,stimuli/124_xa.png,l,6.344086110431817,harmless,0.333,6.344262295,1.181598436,0.151288177
047,72,0,2,7,22,166,1713.918302603517,1724.2139834939298,stimuli/249_ya.png,l,10.283802108257078,ambig,0.333,5.327868852,1.859402337,0.238072074
047,72,0,2,7,23,167,1724.7775334621256,1732.565981965803,stimuli/293_zb.png,a,7.7768320228060475,awful,0.333,3.677966102,2.169066842,0.28238845
047,72,0,2,7,24,168,1733.121302132873,1742.190014828302,stimuli/348_za.png,a,9.057052891526837,awful,0.333,3.084745763,2.119597681,0.275948114
047,72,0,2,8,1,169,1753.8330913151149,1766.0940149228263,stimuli/305_zb.png,a,12.249153920842218,awful,0.333,2.75,2.12830003,0.274762352
047,72,0,2,8,2,170,1766.6453347984498,1776.8539812883973,stimuli/262_ya.png,l,10.19688271076302,ambig,0.333,5.491525424,1.7750462,0.231091332
047,72,0,2,8,3,171,1777.4115893055132,1785.4379840610636,stimuli/323_yb.png,a,8.014539604148013,ambig,0.333,4.603448276,1.955107169,0.256718148
047,72,0,2,8,4,172,1785.9921624692652,1795.1499969477009,stimuli/200_ya.png,l,9.145915524029988,ambig,0.333,5.862068966,1.444266048,0.189641423
047,72,0,2,8,5,173,1795.7108534047002,1802.1179599577008,stimuli/354_zb.png,a,6.395259278506273,awful,0.333,2,1.701925887,0.221571878
047,72,0,2,8,6,174,1802.6646623855631,1809.085938721546,stimuli/146_xa.png,l,6.409405430749757,harmless,0.333,6.442622951,1.162247681,0.148810567
047,72,0,2,8,7,175,1809.6355717557453,1815.829933065921,stimuli/149_xa.png,l,6.1824344788328744,harmless,0.333,6.721311475,0.933294301,0.11949609
047,72,0,2,8,8,176,1816.3852465376112,1820.5500186092104,stimuli/331_za.png,a,4.152874384861207,awful,0.333,1.983606557,1.638004917,0.209725039
047,72,0,2,8,9,177,1821.1044124510372,1838.4299645735737,stimuli/147_ya.png,l,17.313749746463145,ambig,0.333,5.883333333,1.766847875,0.22809908
047,72,0,2,8,10,178,1838.9819409900956,1844.3499095139414,stimuli/304_ya.png,a,5.356171267776517,ambig,0.333,4.034482759,2.017167697,0.264867095
047,72,0,2,8,11,179,1844.9047397368704,1854.5259416360059,stimuli/275_yb.png,a,9.60957360289467,ambig,0.333,4.836065574,2.138382004,0.27379176
047,72,0,2,8,12,180,1855.0774229883828,1872.829907859792,stimuli/336_ya.png,l,17.740872722832137,ambig,0.333,5.033898305,1.884291705,0.245313885
047,72,0,2,8,13,181,1873.3910931779974,1878.3659165874124,stimuli/290_zb.png,a,4.962983617995633,awful,0.333,2.586206897,2.026443456,0.266085062
047,72,0,2,8,14,182,1878.9225061193865,1883.765868932067,stimuli/294_za.png,a,4.831607698099106,awful,0.333,1.557377049,1.38473331,0.177296933
047,72,0,2,8,15,183,1884.3129884426016,1891.5418888449203,stimuli/121_xc.png,l,7.217055490909843,harmless,0.333,6.508474576,1.006408455,0.131023221
047,72,0,2,8,16,184,1892.0876015383692,1898.517841016277,stimuli/240_xa.png,l,6.418665926234098,harmless,0.333,6.482758621,1.096107616,0.143925981
047,72,0,2,8,17,185,1899.0729552020202,1914.7658165505854,stimuli/273_ya.png,l,15.680832511177869,ambig,0.333,5.551724138,1.836973233,0.241206403
047,72,0,2,8,18,186,1915.3255194333324,1921.8858237185777,stimuli/186_xa.png,l,6.548418020014651,harmless,0.333,6.65,0.879618561,0.113558268
047,72,0,2,8,19,187,1922.436597723965,1930.5658122182795,stimuli/334_za.png,a,8.117242370717577,awful,0.333,3.333333333,2.214487481,0.285889104
047,72,0,2,8,20,188,1931.1407451168052,1937.4858296262682,stimuli/130_xc.png,l,6.333224238056573,harmless,0.333,6.644067797,0.960651931,0.125066229
047,72,0,2,8,21,189,1938.045337161515,1944.19781258062,stimuli/302_za.png,a,6.140805769056897,awful,0.333,3.137931034,2.188071937,0.287307921
047,72,0,2,8,22,190,1944.7475027224573,1951.949816566339,stimuli/326_zb.png,a,7.19047799090913,awful,0.333,3.389830508,2.220724867,0.289113752
047,72,0,2,8,23,191,1952.497204285828,1958.0538714054273,stimuli/114_xc.png,l,5.544885223498568,harmless,0.333,6.644067797,0.97843492,0.127381377
047,72,0,2,8,24,192,1958.602660034303,1964.789873437665,stimuli/152_xa.png,l,6.175455138014513,harmless,0.333,6.576271186,0.968528743,0.126091702
047,72,0,2,9,1,193,1979.2795135217166,1989.1817578518094,stimuli/207_yb.png,l,9.890626273845555,ambig,0.333,5.655737705,1.662179753,0.212820309
047,72,0,2,9,2,194,1989.7315472427872,1995.3577371985448,stimuli/135_xa.png,l,5.614283210554277,harmless,0.333,6.508474576,1.179901828,0.153610134
047,72,0,2,9,3,195,1995.9190071936027,2012.8937360800192,stimuli/203_yb.png,l,16.962853648888995,ambig,0.333,6,1.542501327,0.200816568
047,72,0,2,9,4,196,2013.452677265057,2019.845729038061,stimuli/369_za.png,a,6.381120609366917,awful,0.333,2.948275862,2.055565093,0.26990892
047,72,0,2,9,5,197,2020.4061640800937,2026.4057304558955,stimuli/362_zb.png,a,5.987699015182443,awful,0.333,1.474576271,1.222715071,0.159183944
047,72,0,2,9,6,198,2026.9556580867356,2047.309669504335,stimuli/339_ya.png,a,20.34244653051428,ambig,0.333,4.949152542,1.960152429,0.25519011
047,72,0,2,9,7,199,2047.8629408857232,2057.0697217282723,stimuli/307_za.png,l,9.194900878865155,awful,0.333,2.93220339,2.172432347,0.282826601
047,72,0,2,9,8,200,2057.629220992778,2064.9417163404723,stimuli/222_ya.png,l,7.300692577788141,ambig,0.333,5.931034483,1.543089507,0.202617579
047,72,0,2,9,9,201,2065.54051196012,2072.3097053442907,stimuli/133_xa.png,l,6.757381555798929,harmless,0.333,6.568965517,1.186356193,0.1557762
047,72,0,2,9,10,202,2072.863250842347,2078.277698286576,stimuli/243_ya.png,l,5.402485954473377,ambig,0.333,5.830508475,1.652088985,0.215083666
047,72,0,2,9,11,203,2078.8704688536964,2088.077698286579,stimuli/155_xb.png,l,9.195260853899526,harmless,0.333,6.655737705,0.892286312,0.114245555
047,72,0,2,9,12,204,2088.6289685376396,2094.741658445142,stimuli/150_xc.png,l,6.101040737441508,harmless,0.333,6.482758621,1.030097582,0.135258439
047,72,0,2,9,13,205,2095.3511544604116,2111.8696827375534,stimuli/137_xa.png,l,16.506758984120097,harmless,0.333,6.355932203,1.094858074,0.14253838
047,72,0,2,9,14,206,2112.4304088315985,2118.9336495914904,stimuli/357_za.png,a,6.491403725391137,awful,0.333,2.793103448,2.066937905,0.271402243
047,72,0,2,9,15,207,2119.493974750556,2125.981612128875,stimuli/330_ya.png,a,6.475746386960964,ambig,0.333,4.796610169,2.049219036,0.266785595
047,72,0,2,9,16,208,2126.5424083274847,2135.2296120816172,stimuli/260_ya.png,l,8.675338756584097,ambig,0.333,4.966101695,2.016877936,0.262575142
047,72,0,2,9,17,209,2135.8008176238072,2145.8456794134836,stimuli/165_xb.png,l,10.032992853666656,harmless,0.333,6.557377049,1.008705278,0.129151477
047,72,0,2,9,18,210,2146.4023221146344,2160.477638028169,stimuli/276_ya.png,a,14.063385143730557,ambig,0.333,5.186440678,1.804922162,0.234980851
047,72,0,2,9,19,211,2161.0759732421284,2167.7738502165157,stimuli/161_xc.png,l,6.685892641573446,harmless,0.333,6.796610169,0.609682252,0.079373868
047,72,0,2,9,20,212,2168.3254166395927,2175.0295600939717,stimuli/314_zb.png,a,6.692376130580669,awful,0.333,1.833333333,1.451669602,0.18740974
047,72,0,2,9,21,213,2175.59042915405,2183.877581708235,stimuli/324_za.png,a,8.275311187389889,awful,0.333,2.491525424,1.994586478,0.259673041
047,72,0,2,9,22,214,2184.435085356221,2192.501581093835,stimuli/177_xb.png,l,8.054581903183134,harmless,0.333,6.482758621,1.063614811,0.139659467
047,72,0,2,9,23,215,2193.0628384858283,2199.4615785732167,stimuli/364_za.png,a,6.386993243577308,awful,0.333,1.677966102,1.279017376,0.166513879
047,72,0,2,9,24,216,2200.0151591235335,2208.3335680654127,stimuli/371_zb.png,a,8.30656284892757,awful,0.333,3.131147541,2.085468851,0.267016925
047,72,0,2,10,1,217,2219.59677952317,2227.045528570554,stimuli/215_yb.png,l,7.437080185016384,ambig,0.333,5.866666667,1.466769385,0.189359113
047,72,0,2,10,2,218,2227.5978204575367,2234.2534972519497,stimuli/172_xb.png,l,6.643864966041292,harmless,0.333,6.482758621,1.127664553,0.14806961
047,72,0,2,10,3,219,2234.799710917214,2240.5335857884784,stimuli/174_xc.png,l,5.722342673383537,harmless,0.333,6.533333333,1.111826512,0.143536185
047,72,0,2,10,4,220,2241.099437785175,2249.5815046089847,stimuli/118_xb.png,l,8.47017977089854,harmless,0.333,6.474576271,0.953323265,0.124112118
047,72,0,2,10,5,221,2250.1304543207807,2256.9817365841445,stimuli/321_zb.png,a,6.8393889089202275,awful,0.333,2.918032787,2.177881861,0.278849198
047,72,0,2,10,6,222,2257.5369362344063,2270.0695366207656,stimuli/343_zb.png,l,12.521070945411338,awful,0.333,3.103448276,2.141401862,0.28117984
047,72,0,2,10,7,223,2270.6283521690057,2281.9815475381765,stimuli/181_xa.png,l,11.341768721948029,harmless,0.333,6.666666667,0.950765377,0.122743282
047,72,0,2,10,8,224,2282.542034567843,2289.8054961176676,stimuli/329_zb.png,a,7.251716675236821,awful,0.333,2.406779661,1.992387617,0.259386774
047,72,0,2,10,9,225,2290.353160316896,2295.629450604858,stimuli/297_za.png,a,5.264448133471888,awful,0.333,1.898305085,1.446695584,0.188343723
047,72,0,2,10,10,226,2296.1820752914937,2305.0535197011486,stimuli/284_ya.png,a,8.859636519744527,ambig,0.333,5.948275862,1.431750417,0.18799804
047,72,0,2,10,11,227,2305.60345127045,2313.5494754959072,stimuli/209_ya.png,l,7.934216729394393,ambig,0.333,5.603448276,1.825161903,0.239655499
047,72,0,2,10,12,228,2314.10492878285,2325.0694172855,stimuli/233_yb.png,a,10.952686914271908,ambig,0.333,5.318309859,1.922973646,0.102060844
047,72,0,2,10,13,229,2325.6228828328603,2332.5014440355008,stimuli/212_ya.png,a,6.8668088449776405,ambig,0.333,5.677966102,1.490668422,0.194068498
047,72,0,2,10,14,230,2333.063108270173,2343.205417348523,stimuli/286_ya.png,l,10.130627612932585,ambig,0.333,5.06779661,1.779814082,0.231712057
047,72,0,2,10,15,231,2343.752953547868,2348.1574508726626,stimuli/199_za.png,a,4.392708733328618,awful,0.333,3.033898305,2.189048775,0.284989876
047,72,0,2,10,16,232,2348.710218131484,2360.7334195855656,stimuli/244_xb.png,l,12.01132030885492,harmless,0.333,6.610169492,0.743174671,0.096753101
047,72,0,2,10,17,233,2361.285070685466,2372.557399672718,stimuli/248_zb.png,a,11.260413183597848,awful,0.333,3.288135593,1.991800844,0.259310383
047,72,0,2,10,18,234,2373.114553979525,2382.157450084982,stimuli/261_yb.png,a,9.030892474198481,ambig,0.333,5.706896552,1.901141123,0.249632059
047,72,0,2,10,19,235,2382.7101968638162,2388.3813982706342,stimuli/363_zb.png,a,5.659295449309866,awful,0.333,2.433333333,2.019956927,0.260775318
047,72,0,2,10,20,236,2388.933897320472,2393.7333412102453,stimuli/112_xc.png,l,4.7875206030439585,harmless,0.333,6.706896552,0.749470472,0.098410294
047,72,0,2,10,21,237,2394.313795826427,2402.6213196590106,stimuli/176_xb.png,l,8.295616299699759,harmless,0.333,6.796610169,0.517942249,0.067430337
047,72,0,2,10,22,238,2403.1706198935426,2409.917329016782,stimuli/254_ya.png,l,6.7347598426858895,ambig,0.333,5.983606557,1.627798137,0.208418195
047,72,0,2,10,23,239,2410.4673523521487,2415.461333995001,stimuli/197_xa.png,l,4.982070959187695,harmless,0.333,6.779661017,0.55918033,0.072799078
047,72,0,2,10,24,240,2416.013771211059,2420.861311151937,stimuli/320_za.png,a,4.835633195674745,awful,0.333,1.423728814,1.117314975,0.14546202
