id,age,condition,counterbalance,block,trialinblock,trial,tstart,tend,trialstim,response,RT,trialtype,ethicfreq,norm_mean,norm_sd,norm_se
68,63,0,2,0,0,practice,3.1507806852459908e-06,142.3037428285461,stimuli/prac_217_1.png,l,142.28657039254904,harmless,NA,NA,NA,NA
68,63,0,2,1,1,1,6.449525396921672,19.21592599491123,stimuli/314_zb.png,a,12.75449505308643,awful,0.333,1.833333333,1.451669602,0.18740974
68,63,0,2,1,2,2,19.826155571150593,32.72001824283507,stimuli/322_za.png,a,12.882626269711182,awful,0.333,2.406779661,1.975004531,0.257123689
68,63,0,2,1,3,3,33.310726096853614,41.83992360974662,stimuli/251_ya.png,a,8.51790282188449,ambig,0.333,5.655172414,1.792300532,0.235340589
68,63,0,2,1,4,4,42.51898116979282,51.90389627055265,stimuli/142_xa.png,l,9.373304151929915,harmless,0.333,6.4,1.076718178,0.139003719
68,63,0,2,1,5,5,52.48504786589183,61.631904843845405,stimuli/104_xc.png,l,9.135119604878128,harmless,0.333,6.745762712,0.756425814,0.098478253
68,63,0,2,1,6,6,62.257959511945955,70.8800394947175,stimuli/250_yb.png,l,8.609578550211154,ambig,0.333,5.950819672,1.585625318,0.203018519
68,63,0,2,1,7,7,71.45840975560714,93.95183470787015,stimuli/263_ya.png,l,22.48154146259185,ambig,0.333,4.983050847,2.071910042,0.269739712
68,63,0,2,1,8,8,94.54608598654158,106.6397317283554,stimuli/358_za.png,a,12.081878436496481,awful,0.333,3.949152542,2.112554662,0.275031191
68,63,0,2,1,9,9,107.20255692140199,114.32766970887315,stimuli/183_xb.png,l,7.113376989844255,harmless,0.333,6.448275862,1.095003225,0.143780967
68,63,0,2,1,10,10,114.94716212910134,122.26367223577108,stimuli/168_xa.png,l,7.304625041782856,harmless,0.333,6.474576271,1.164946827,0.151663159
68,63,0,2,1,11,11,122.90445828763768,129.215684961644,stimuli/307_za.png,a,6.299500722554512,awful,0.333,2.93220339,2.172432347,0.282826601
68,63,0,2,1,12,12,129.83774367684964,137.83173478150275,stimuli/256_zb.png,a,7.98223994707223,awful,0.333,3.051724138,2.012438634,0.264246138
68,63,0,2,1,13,13,138.44633997732308,152.81567732105032,stimuli/274_xb.png,l,14.357646838296205,harmless,0.333,6.491525424,1.179901828,0.153610134
68,63,0,2,1,14,14,153.38389622338582,161.68763471965212,stimuli/270_yb.png,a,8.292164962855168,ambig,0.333,5.534482759,1.912246013,0.251090203
68,63,0,2,1,15,15,162.25742979021743,169.07166681962553,stimuli/252_zb.png,a,6.8027406895998865,awful,0.333,2.711864407,1.983125776,0.258180985
68,63,0,2,1,16,16,169.67266899789684,173.51959438668564,stimuli/318_za.png,a,3.8351336651248857,awful,0.333,3.06557377,2.197489875,0.281359747
68,63,0,2,1,17,17,174.12893584219273,182.2875943898689,stimuli/159_xa.png,l,8.146765605779365,harmless,0.333,6.389830508,1.174689235,0.152931512
68,63,0,2,1,18,18,182.85048377967905,196.96754203992896,stimuli/137_xa.png,l,14.10517043841537,harmless,0.333,6.355932203,1.094858074,0.14253838
68,63,0,2,1,19,19,197.5999856640119,209.52750516030937,stimuli/309_ya.png,a,11.915827021584846,ambig,0.333,4.706896552,1.946734744,0.255618795
68,63,0,2,1,20,20,210.15562751539983,215.7674466506578,stimuli/143_xb.png,l,5.600154229789041,harmless,0.333,6.655172414,0.738697862,0.096995781
68,63,0,2,1,21,21,216.39614086889196,223.89554911653977,stimuli/373_zb.png,a,7.4876299146562815,awful,0.333,2.327586207,1.858011869,0.243968911
68,63,0,2,1,22,22,224.49622873577755,238.77537239040248,stimuli/241_yb.png,a,14.26763707480859,ambig,0.333,5.508474576,1.442852555,0.187843403
68,63,0,2,1,23,23,239.339570133714,256.38331490790006,stimuli/265_yb.png,a,17.03188688447699,ambig,0.333,5.627118644,1.856008928,0.241631781
68,63,0,2,1,24,24,256.9466757302871,274.8073565546656,stimuli/339_ya.png,a,17.84862286131829,ambig,0.333,4.949152542,1.960152429,0.25519011
68,63,0,2,2,1,25,285.38183011172805,291.20724013401195,stimuli/311_za.png,a,5.813714396907017,awful,0.333,3.116666667,1.975199339,0.254997138
68,63,0,2,2,2,26,291.8317076062085,298.67926432867534,stimuli/255_xb.png,l,6.8356165192089975,harmless,0.333,6.770491803,0.642740036,0.082294429
68,63,0,2,2,3,27,299.295968719176,313.30323082988616,stimuli/223_yb.png,l,13.99527622142341,ambig,0.333,5.542372881,1.77455224,0.231027024
68,63,0,2,2,4,28,313.9062821845291,323.95121164480224,stimuli/108_xb.png,l,10.033177908859216,harmless,0.333,6.568965517,1.077880782,0.141532681
68,63,0,2,2,5,29,324.5665761741111,337.28714658797253,stimuli/150_xc.png,l,12.708799957763404,harmless,0.333,6.482758621,1.030097582,0.135258439
68,63,0,2,2,6,30,337.89695317449514,346.08706774015445,stimuli/141_xc.png,l,8.178244860609993,harmless,0.333,6.508474576,1.040107444,0.135410455
68,63,0,2,2,7,31,346.70642861607485,352.6871463516727,stimuli/346_zb.png,a,5.969111512997188,awful,0.333,1.288135593,0.983499162,0.128040685
68,63,0,2,2,8,32,353.3050740251783,359.86313684261404,stimuli/173_yb.png,l,6.5466610005823895,ambig,0.333,5.796610169,1.242628763,0.161776485
68,63,0,2,2,9,33,360.4902604063973,373.03910488449037,stimuli/225_ya.png,l,12.536960200755857,ambig,0.333,5.85,1.792876677,0.231459384
68,63,0,2,2,10,34,373.66269132494926,381.31897557724733,stimuli/268_zb.png,a,7.644290092168376,awful,0.333,2.655737705,2.048456703,0.262278005
68,63,0,2,2,11,35,381.9278373293346,391.59899278043304,stimuli/148_xc.png,l,9.659364121267572,harmless,0.333,6.491525424,1.135218061,0.147792803
68,63,0,2,2,12,36,392.2220006623538,399.2709410417592,stimuli/247_ya.png,l,7.0372896522749215,ambig,0.333,4.65,2.081598147,0.268733165
68,63,0,2,2,13,37,399.90743733232375,414.2389860219555,stimuli/202_yb.png,l,14.319048044737428,ambig,0.333,5.431034483,1.892849601,0.248543329
68,63,0,2,2,14,38,414.8312538965838,421.6389991764445,stimuli/110_xa.png,l,6.795991365332156,harmless,0.333,6.428571429,1.059281795,0.141552484
68,63,0,2,2,15,39,422.2792858326575,431.5989010144258,stimuli/239_ya.png,a,9.307591483346187,ambig,0.333,5.157894737,1.925296579,0.255011762
68,63,0,2,2,16,40,432.2177081442205,439.75084135169163,stimuli/162_xa.png,l,7.521479329676367,harmless,0.333,6.644067797,0.905209289,0.117848212
68,63,0,2,2,17,41,440.3444609027356,448.27885654149577,stimuli/301_za.png,a,7.922540899831802,awful,0.333,3.610169492,2.212947396,0.288101212
68,63,0,2,2,18,42,448.89948441728484,456.6068078496028,stimuli/329_zb.png,a,7.695566760841757,awful,0.333,2.406779661,1.992387617,0.259386774
68,63,0,2,2,19,43,457.20863907202147,466.8068114729831,stimuli/249_ya.png,l,9.586250314605422,ambig,0.333,5.327868852,1.859402337,0.238072074
68,63,0,2,2,20,44,467.41510805732105,479.76678932318464,stimuli/123_xc.png,l,12.34020816301927,harmless,0.333,6.491525424,1.023396666,0.133234897
68,63,0,2,2,21,45,480.34059925109614,486.08679126086645,stimuli/313_zb.png,a,5.734614143962972,awful,0.333,2.101694915,1.688652955,0.219843889
68,63,0,2,2,22,46,486.69172480143607,491.9507606921252,stimuli/324_za.png,a,5.2472398347454146,awful,0.333,2.491525424,1.994586478,0.259673041
68,63,0,2,2,23,47,492.56682311499026,498.95874629635364,stimuli/219_ya.png,l,6.380585954990238,ambig,0.333,5.271186441,1.998538332,0.260187529
68,63,0,2,2,24,48,499.5264945536619,505.7746870998526,stimuli/352_zb.png,a,6.236247616703622,awful,0.333,2.93442623,2.135952968,0.273480754
68,63,0,2,3,1,49,517.0635004404467,531.7828085805522,stimuli/261_yb.png,a,14.707573917810805,ambig,0.333,5.706896552,1.901141123,0.249632059
68,63,0,2,3,2,50,532.3511503625195,536.550602208823,stimuli/320_za.png,a,4.187623101170175,awful,0.333,1.423728814,1.117314975,0.14546202
68,63,0,2,3,3,51,537.1769534423947,542.8786421321565,stimuli/182_xb.png,l,5.690117519465275,harmless,0.333,6.542372881,0.988241802,0.128658124
68,63,0,2,3,4,52,543.4639318584232,556.6385935159633,stimuli/269_za.png,l,13.16297745355405,awful,0.333,3.457627119,2.119873401,0.27598401
68,63,0,2,3,5,53,557.2731895036995,574.6305425334722,stimuli/189_yb.png,l,17.34555185388308,ambig,0.333,5.983333333,1.455459234,0.187898979
68,63,0,2,3,6,54,575.2739452924579,581.406520263874,stimuli/157_xc.png,l,6.120767100015655,harmless,0.333,6.603448276,0.877389573,0.115206895
68,63,0,2,3,7,55,582.0185327770887,588.1744891533162,stimuli/187_xc.png,l,6.144404504215345,harmless,0.333,6.224137931,1.185335891,0.155642228
68,63,0,2,3,8,56,588.8033290941967,594.1265089684166,stimuli/124_xa.png,l,5.312015152070671,harmless,0.333,6.344262295,1.181598436,0.151288177
68,63,0,2,3,9,57,594.7430609407602,600.6624479286838,stimuli/245_yb.png,a,5.907527522882447,ambig,0.333,4.949152542,2.096168334,0.272897873
68,63,0,2,3,10,58,601.2991214495851,614.4064552794443,stimuli/302_za.png,l,13.095629145973362,awful,0.333,3.137931034,2.188071937,0.287307921
68,63,0,2,3,11,59,615.0258334846003,621.8063924217131,stimuli/178_xa.png,l,6.76874870271422,harmless,0.333,6.483333333,1.112207557,0.143585378
68,63,0,2,3,12,60,622.4349869971629,628.7823974062921,stimuli/267_ya.png,l,6.335975509136915,ambig,0.333,5.103448276,1.898195405,0.249245267
68,63,0,2,3,13,61,629.3991092797369,635.3503697614651,stimuli/282_xc.png,l,5.939441976603121,harmless,0.333,6.55,0.998728005,0.128935231
68,63,0,2,3,14,62,635.9690240792697,641.5423940821784,stimuli/366_za.png,a,5.561916592298076,awful,0.333,3.689655172,2.036568291,0.267414518
68,63,0,2,3,15,63,642.1693951601628,649.3023478289833,stimuli/363_zb.png,a,7.121292489464395,awful,0.333,2.433333333,2.019956927,0.260775318
68,63,0,2,3,16,64,649.9135190889938,655.8863173864083,stimuli/328_za.png,a,5.961069982731715,awful,0.333,2.706896552,1.955725922,0.256799395
68,63,0,2,3,17,65,656.5085202489281,667.0785035775043,stimuli/232_yb.png,l,10.558251863229088,ambig,0.333,5.483333333,1.845669845,0.238274952
68,63,0,2,3,18,66,667.6958534801379,678.1023079719162,stimuli/286_ya.png,a,10.394616294419393,ambig,0.333,5.06779661,1.779814082,0.231712057
68,63,0,2,3,19,67,678.7323188144946,684.2303060687846,stimuli/153_xb.png,l,5.486107703181915,harmless,0.333,6.633333333,0.973664521,0.125699549
68,63,0,2,3,20,68,684.8490127680125,689.6062190510565,stimuli/201_yb.png,l,4.745329488767311,ambig,0.333,5.898305085,1.626238682,0.211718243
68,63,0,2,3,21,69,690.2139126585098,694.8302590437233,stimuli/114_xc.png,l,4.605056814150885,harmless,0.333,6.644067797,0.97843492,0.127381377
68,63,0,2,3,22,70,695.4503761023516,699.8141767710913,stimuli/299_za.png,a,4.352052661823109,awful,0.333,1.288135593,0.929420425,0.121000233
68,63,0,2,3,23,71,700.4283042327734,706.5262507635634,stimuli/331_za.png,a,6.0860642227344215,awful,0.333,1.983606557,1.638004917,0.209725039
68,63,0,2,3,24,72,707.1709228854161,719.5662213196047,stimuli/212_ya.png,l,12.383572482620366,ambig,0.333,5.677966102,1.490668422,0.194068498
68,63,0,2,4,1,73,730.7173905080417,737.9340864702826,stimuli/332_zb.png,a,7.205266969976947,awful,0.333,2.694915254,2.002190501,0.260663001
68,63,0,2,4,2,74,738.5353414971614,748.6701306659961,stimuli/196_xb.png,l,10.123251475277357,harmless,0.333,6.594366197,0.982313556,0.05213579
68,63,0,2,4,3,75,749.2324391341535,755.3260624267859,stimuli/351_zb.png,a,6.08173428918235,awful,0.333,3.06779661,2.033040926,0.264679384
68,63,0,2,4,4,76,755.8874221220613,762.2220861267997,stimuli/258_ya.png,l,6.322736010770313,ambig,0.333,5.627118644,1.78014243,0.231754804
68,63,0,2,4,5,77,762.7885945596499,770.1900259504328,stimuli/296_yb.png,l,7.389447864610702,ambig,0.333,4.229508197,2.052587332,0.262806878
68,63,0,2,4,6,78,770.8134678497445,776.0860145982588,stimuli/163_xa.png,l,5.26075620634947,harmless,0.333,6.627118644,0.963082427,0.125382652
68,63,0,2,4,7,79,776.657632777933,779.9660154961748,stimuli/179_xb.png,l,3.2965008040191606,harmless,0.333,6.704918033,0.882123617,0.112944356
68,63,0,2,4,8,80,780.5699337039841,790.6060433961684,stimuli/185_xa.png,l,10.024272282491438,harmless,0.333,6.5,0.965506805,0.124646393
68,63,0,2,4,9,81,791.2182618904626,802.5579698700458,stimuli/295_za.png,a,11.327955246670172,awful,0.333,2.3,1.825432384,0.235662307
68,63,0,2,4,10,82,803.116956254351,810.3498908458278,stimuli/370_za.png,a,7.221006203559227,awful,0.333,2.393442623,1.882185684,0.240989182
68,63,0,2,4,11,83,810.9359312409069,821.9899010227527,stimuli/347_zb.png,a,11.042745195212774,awful,0.333,3.796610169,2.147810923,0.279621165
68,63,0,2,4,12,84,822.6015240231063,830.3818950961577,stimuli/116_xa.png,l,7.768660087604076,harmless,0.333,6.63559322,0.958030802,0.050918763
68,63,0,2,4,13,85,830.9551579732215,837.0459073778475,stimuli/230_yb.png,a,6.078844647388905,ambig,0.333,4.98245614,1.875511626,0.248417583
68,63,0,2,4,14,86,837.6645026188344,844.0538268160308,stimuli/139_xa.png,l,6.377653777832165,harmless,0.333,6.724137931,0.790138861,0.103750315
68,63,0,2,4,15,87,844.6592558138072,853.1337836821331,stimuli/369_za.png,a,8.462570335832424,awful,0.333,2.948275862,2.055565093,0.26990892
68,63,0,2,4,16,88,853.7480611987412,859.1978323550429,stimuli/127_xb.png,l,5.437966041848995,harmless,0.333,6.423728814,1.162686987,0.151368953
68,63,0,2,4,17,89,859.8118621431058,865.5577603443526,stimuli/236_yb.png,l,5.734144680551253,ambig,0.333,5.93442623,1.49297078,0.19115532
68,63,0,2,4,18,90,866.1670064893551,871.869779041037,stimuli/213_ya.png,l,5.691076926304959,ambig,0.333,5.98245614,1.597891781,0.211645937
68,63,0,2,4,19,91,872.4714034947101,880.4857520610094,stimuli/126_xa.png,l,8.001893607433885,harmless,0.333,6.6,0.977717855,0.126222832
68,63,0,2,4,20,92,881.1086571494816,888.3417622757843,stimuli/281_ya.png,l,7.221354362554848,ambig,0.333,5.881355932,1.543448286,0.200939852
68,63,0,2,4,21,93,888.9688228244195,905.0377374541713,stimuli/228_ya.png,l,16.05571530351881,ambig,0.333,5.442622951,1.793735303,0.229664272
68,63,0,2,4,22,94,905.6480859715957,913.1336513501592,stimuli/325_yb.png,a,7.473949703620747,ambig,0.333,5.131147541,1.811770863,0.231973488
68,63,0,2,4,23,95,913.7522820371669,919.9737108364934,stimuli/326_zb.png,a,6.209868656587787,awful,0.333,3.389830508,2.220724867,0.289113752
68,63,0,2,4,24,96,920.579078788287,926.7095868603792,stimuli/372_zb.png,a,6.118573776446283,awful,0.333,2.796610169,2.082601664,0.271131643
68,63,0,2,5,1,97,938.3933225130895,948.1176533603575,stimuli/140_xb.png,l,9.712529671378434,harmless,0.333,6.724137931,0.790138861,0.103750315
68,63,0,2,5,2,98,948.7316114685964,961.813515505055,stimuli/260_ya.png,l,13.070146577316336,ambig,0.333,4.966101695,2.016877936,0.262575142
68,63,0,2,5,3,99,962.439158604946,969.8775255811634,stimuli/368_za.png,a,7.42658746172674,awful,0.333,3.590163934,2.02794682,0.259651984
68,63,0,2,5,4,100,970.4856106706429,977.3655064119957,stimuli/337_zb.png,a,6.8684494198532775,awful,0.333,3.033333333,2.20143764,0.284204377
68,63,0,2,5,5,101,977.974287819583,986.4055407709675,stimuli/107_xa.png,l,8.41946398455184,harmless,0.333,6.813559322,0.540580029,0.070377525
68,63,0,2,5,6,102,987.0330751152942,993.5094847757136,stimuli/158_xa.png,l,6.464754994842224,harmless,0.333,6.786885246,0.661179605,0.084655374
68,63,0,2,5,7,103,994.1366398470709,1005.037392839673,stimuli/217_yb.png,l,10.888991595013067,ambig,0.333,5.169491525,2.001314588,0.260548967
68,63,0,2,5,8,104,1005.6443070274545,1010.2694735747064,stimuli/103_xb.png,l,4.613370885141194,harmless,0.333,6.779661017,0.589207434,0.076708274
68,63,0,2,5,9,105,1010.8816534721991,1024.909353782772,stimuli/343_zb.png,a,14.015867233159952,awful,0.333,3.103448276,2.141401862,0.28117984
68,63,0,2,5,10,106,1025.5021612251876,1034.1893646843964,stimuli/303_zb.png,a,8.675654737977311,awful,0.333,3.620689655,2.158846233,0.283470398
68,63,0,2,5,11,107,1034.817061686772,1046.0933468133444,stimuli/222_ya.png,a,11.26438155095093,ambig,0.333,5.931034483,1.543089507,0.202617579
68,63,0,2,5,12,108,1046.6612439440796,1053.9652971226024,stimuli/367_zb.png,a,7.292218131828122,awful,0.333,3.413793103,2.086165649,0.27392697
68,63,0,2,5,13,109,1054.569757655263,1062.1093168400694,stimuli/233_yb.png,a,7.527641036896966,ambig,0.333,5.318309859,1.922973646,0.102060844
68,63,0,2,5,14,110,1062.7264217711054,1072.5412283005426,stimuli/235_ya.png,a,9.80286317539867,ambig,0.333,5.694915254,1.567495667,0.204070554
68,63,0,2,5,15,111,1073.146892423858,1079.1412974597188,stimuli/350_ya.png,a,5.982656241278164,ambig,0.333,4.915254237,2.02814792,0.264042369
68,63,0,2,5,16,112,1079.7565217801603,1086.2772319302894,stimuli/266_zb.png,a,6.508992863120511,awful,0.333,3.491525424,1.888010094,0.245797978
68,63,0,2,5,17,113,1086.9453409891576,1101.5572345611872,stimuli/262_ya.png,l,14.600019140983932,ambig,0.333,5.491525424,1.7750462,0.231091332
68,63,0,2,5,18,114,1102.130386767676,1106.5732140402542,stimuli/194_xb.png,l,4.4308760416461155,harmless,0.333,6.586206897,1.026567825,0.134794959
68,63,0,2,5,19,115,1107.1735758263385,1113.0851922495058,stimuli/300_za.png,a,5.89985502557829,awful,0.333,3.75,2.12032137,0.273732312
68,63,0,2,5,20,116,1113.6656290160026,1118.4131270161597,stimuli/197_xa.png,l,4.735844910028391,harmless,0.333,6.779661017,0.55918033,0.072799078
68,63,0,2,5,21,117,1118.984430119861,1128.5171265529934,stimuli/147_ya.png,l,9.52108824136667,ambig,0.333,5.883333333,1.766847875,0.22809908
68,63,0,2,5,22,118,1129.1288515593624,1138.7971354854526,stimuli/208_xb.png,a,9.656490233261138,harmless,0.333,6.216666667,1.165778516,0.150501359
68,63,0,2,5,23,119,1139.4048401204636,1144.7970512026222,stimuli/106_xc.png,l,5.380528059788048,harmless,0.333,6.661016949,0.863237081,0.112383896
68,63,0,2,5,24,120,1145.4112554640742,1154.2370703591732,stimuli/341_zb.png,a,8.814010568428785,awful,0.333,3.603448276,2.15975677,0.283589957
68,63,0,2,6,1,121,1166.8521139046643,1173.8850058820099,stimuli/277_yb.png,l,7.0211416074307635,ambig,0.333,5.491525424,2.02886822,0.264136144
68,63,0,2,6,2,122,1174.5070783818373,1178.7969810981303,stimuli/298_za.png,a,4.277712421375327,awful,0.333,2.881355932,2.026418156,0.263817173
68,63,0,2,6,3,123,1179.4110790214036,1188.8929572217166,stimuli/344_za.png,a,9.469945873948745,awful,0.333,2.711864407,2.043077863,0.265986082
68,63,0,2,6,4,124,1189.454149926547,1195.3009146265686,stimuli/257_yb.png,l,5.834867425845005,ambig,0.333,5.620689655,1.843219782,0.242026615
68,63,0,2,6,5,125,1195.8972552537452,1201.5889320061542,stimuli/149_xa.png,l,5.679976400802843,harmless,0.333,6.721311475,0.933294301,0.11949609
68,63,0,2,6,6,126,1202.2016727391165,1205.4369152629515,stimuli/113_xb.png,l,3.2235535938525572,harmless,0.333,6.733333333,0.660422737,0.085260209
68,63,0,2,6,7,127,1206.0660860338248,1218.5968990995316,stimuli/172_xb.png,l,12.51888782856986,harmless,0.333,6.482758621,1.127664553,0.14806961
68,63,0,2,6,8,128,1219.2121549276635,1228.6128773970995,stimuli/275_yb.png,a,9.388988641090691,ambig,0.333,4.836065574,2.138382004,0.27379176
68,63,0,2,6,9,129,1229.230851150467,1241.8128258822253,stimuli/289_yb.png,a,12.570275167818181,ambig,0.333,5.305084746,1.714584873,0.223219937
68,63,0,2,6,10,130,1242.4318256021943,1248.6528251102427,stimuli/242_xb.png,l,6.209262922755443,harmless,0.333,6.576271186,0.913564256,0.118935936
68,63,0,2,6,11,131,1249.2738889727043,1257.2287503804546,stimuli/340_za.png,a,7.9430700780358166,awful,0.333,2.508474576,1.832398855,0.238558011
68,63,0,2,6,12,132,1257.8554225977277,1263.5967518015532,stimuli/125_xc.png,l,5.729587892303243,harmless,0.333,6.683333333,0.999858747,0.129081209
68,63,0,2,6,13,133,1264.222384267603,1274.660800474463,stimuli/192_za.png,a,10.426537443418056,awful,0.333,2.68852459,2.093967396,0.268105052
68,63,0,2,6,14,134,1275.3029051199555,1283.3887168879155,stimuli/134_xc.png,l,8.074074788833968,harmless,0.333,6.516666667,0.965360505,0.124627505
68,63,0,2,6,15,135,1284.028688468039,1297.068726765574,stimuli/365_zb.png,a,13.027994119096547,awful,0.333,2.966101695,2.165291266,0.281896912
68,63,0,2,6,16,136,1297.716598091647,1306.90866691689,stimuli/305_zb.png,a,9.180155403446406,awful,0.333,2.75,2.12830003,0.274762352
68,63,0,2,6,17,137,1307.5086797561962,1313.9966503470205,stimuli/156_xc.png,l,6.476151691866107,harmless,0.333,6.590163934,0.955284411,0.122311635
68,63,0,2,6,18,138,1314.620177316945,1322.7166807991453,stimuli/272_xb.png,l,8.08475586923305,harmless,0.333,6.355932203,1.029943284,0.134087194
68,63,0,2,6,19,139,1323.317499839468,1329.0525881730719,stimuli/246_ya.png,l,5.723410825012252,ambig,0.333,5.542372881,1.715266481,0.223308675
68,63,0,2,6,20,140,1329.6764770866139,1334.8926177271642,stimuli/292_zb.png,a,5.204282357008196,awful,0.333,2.396551724,1.955107169,0.256718148
68,63,0,2,6,21,141,1335.5075494205812,1343.5965808726614,stimuli/335_yb.png,a,8.077062104246579,ambig,0.333,5.016949153,2.046793332,0.266469795
68,63,0,2,6,22,142,1344.1559181731427,1348.2285806332948,stimuli/317_za.png,a,4.060767549090087,awful,0.333,3.65,2.03215674,0.262350307
68,63,0,2,6,23,143,1348.8489095806144,1364.636509287404,stimuli/288_yb.png,a,15.775687072658911,ambig,0.333,5.189655172,1.914459262,0.251380817
68,63,0,2,6,24,144,1365.2509565514047,1387.6605062721064,stimuli/200_ya.png,a,22.398082525469363,ambig,0.333,5.862068966,1.444266048,0.189641423
68,63,0,2,7,1,145,1400.657150317682,1406.596394190099,stimuli/357_za.png,a,5.927446241141297,awful,0.333,2.793103448,2.066937905,0.271402243
68,63,0,2,7,2,146,1407.2041299389675,1423.4763415250927,stimuli/360_za.png,a,16.260495874565095,awful,0.333,3.2,2.207844259,0.285031468
68,63,0,2,7,3,147,1424.0806705134455,1429.3323052661726,stimuli/109_xb.png,l,5.239767804625444,harmless,0.333,6.644067797,0.97843492,0.127381377
68,63,0,2,7,4,148,1429.905575232464,1440.108301507309,stimuli/207_yb.png,l,10.190820336109027,ambig,0.333,5.655737705,1.662179753,0.212820309
68,63,0,2,7,5,149,1440.7381989224814,1445.212336884113,stimuli/294_za.png,a,4.462328514899127,awful,0.333,1.557377049,1.38473331,0.177296933
68,63,0,2,7,6,150,1445.8159541941714,1451.004274007515,stimuli/297_za.png,a,5.176620249403641,awful,0.333,1.898305085,1.446695584,0.188343723
68,63,0,2,7,7,151,1451.6226687813178,1457.0123033284908,stimuli/243_ya.png,l,5.377857395797037,ambig,0.333,5.830508475,1.652088985,0.215083666
68,63,0,2,7,8,152,1457.6206318142358,1465.8762597629102,stimuli/120_xa.png,l,8.243930747848935,harmless,0.333,6.440677966,1.054893138,0.137335389
68,63,0,2,7,9,153,1466.503130478086,1472.6122244019061,stimuli/361_za.png,a,6.097204920370132,awful,0.333,2.416666667,1.907093508,0.246204713
68,63,0,2,7,10,154,1473.229912617593,1486.8202411986422,stimuli/198_yb.png,a,13.578617595718242,ambig,0.333,5.101694915,1.83542643,0.238952168
68,63,0,2,7,11,155,1487.4513941920595,1492.3641897876514,stimuli/117_xc.png,l,4.901301224948838,harmless,0.333,6.627118644,0.868972939,0.113130641
68,63,0,2,7,12,156,1492.975970719941,1497.5162136199651,stimuli/221_xb.png,l,4.528427151846699,harmless,0.333,6.440677966,1.133672495,0.147591588
68,63,0,2,7,13,157,1498.1391009853687,1504.1481779344613,stimuli/215_yb.png,l,5.997182038030587,ambig,0.333,5.866666667,1.466769385,0.189359113
68,63,0,2,7,14,158,1504.754149650922,1513.556155031547,stimuli/342_yb.png,a,8.790269976831041,ambig,0.333,4.916666667,2.085394461,0.269223267
68,63,0,2,7,15,159,1514.1941034292104,1524.2840950757964,stimuli/284_ya.png,l,10.078276722691953,ambig,0.333,5.948275862,1.431750417,0.18799804
68,63,0,2,7,16,160,1524.9132890835172,1531.748080497142,stimuli/359_za.png,a,6.822945339372382,awful,0.333,2.01754386,1.641985167,0.217486248
68,63,0,2,7,17,161,1532.3688379480736,1547.9320274478523,stimuli/323_yb.png,a,15.551547043491155,ambig,0.333,4.603448276,1.955107169,0.256718148
68,63,0,2,7,18,162,1548.5493663228117,1555.9001145694638,stimuli/248_zb.png,a,7.33901756897103,awful,0.333,3.288135593,1.991800844,0.259310383
68,63,0,2,7,19,163,1556.5108781998279,1564.6519830693724,stimuli/181_xa.png,l,8.12932062894106,harmless,0.333,6.666666667,0.950765377,0.122743282
68,63,0,2,7,20,164,1565.2587223899318,1569.827969228034,stimuli/195_xc.png,l,4.557148309075274,harmless,0.333,6.637640449,1.001766915,0.05309354
68,63,0,2,7,21,165,1570.4596940847114,1583.299997361144,stimuli/319_ya.png,a,12.828666727757081,ambig,0.333,4.216666667,2.108028774,0.272145344
68,63,0,2,7,22,166,1583.9233581285225,1589.1159251678037,stimuli/327_zb.png,a,5.180708362022415,awful,0.333,2.502808989,1.906990248,0.101070281
68,63,0,2,7,23,167,1589.7547045786632,1597.9399657906033,stimuli/176_xb.png,l,8.173261538031511,harmless,0.333,6.796610169,0.517942249,0.067430337
68,63,0,2,7,24,168,1598.5883711706847,1603.331948048668,stimuli/130_xc.png,l,4.731824538903311,harmless,0.333,6.644067797,0.960651931,0.125066229
68,63,0,2,8,1,169,1617.7149096775101,1627.123830427532,stimuli/151_xa.png,l,9.39714044786524,harmless,0.333,6.610169492,0.947172729,0.123311386
68,63,0,2,8,2,170,1627.7052281760843,1635.8518232470378,stimuli/253_ya.png,a,8.134691889048554,ambig,0.333,5.491803279,1.849531029,0.236808182
68,63,0,2,8,3,171,1636.5005484293215,1641.7798098436324,stimuli/164_xb.png,l,5.267661887104623,harmless,0.333,6.830508475,0.460604639,0.059965616
68,63,0,2,8,4,172,1642.398101430037,1660.427822560072,stimuli/273_ya.png,l,18.017971547786146,ambig,0.333,5.551724138,1.836973233,0.241206403
68,63,0,2,8,5,173,1661.0636292278068,1666.9877951327944,stimuli/203_yb.png,l,5.912466341047548,ambig,0.333,6,1.542501327,0.200816568
68,63,0,2,8,6,174,1667.612097189878,1673.8757320103468,stimuli/362_zb.png,a,6.251604820485227,awful,0.333,1.474576271,1.222715071,0.159183944
68,63,0,2,8,7,175,1674.471526374342,1683.899684884469,stimuli/254_ya.png,a,9.416491241543554,ambig,0.333,5.983606557,1.627798137,0.208418195
68,63,0,2,8,8,176,1684.4966670854483,1693.4436555288266,stimuli/354_zb.png,a,8.935250676586293,awful,0.333,2,1.701925887,0.221571878
68,63,0,2,8,9,177,1694.0147038146388,1701.0596257919678,stimuli/315_yb.png,a,7.033005404751748,ambig,0.333,5.050847458,1.915667965,0.249398726
68,63,0,2,8,10,178,1701.675791008398,1708.27564355277,stimuli/216_xa.png,l,6.58806436532177,harmless,0.333,6.603448276,0.877389573,0.115206895
68,63,0,2,8,11,179,1708.8889636319363,1718.1316002046224,stimuli/105_xa.png,l,9.2306396557251,harmless,0.333,6.557377049,1.088187946,0.139328189
68,63,0,2,8,12,180,1718.781021311297,1729.9795629815198,stimuli/210_yb.png,l,11.186715682037175,ambig,0.333,5.557377049,1.76564049,0.226067099
68,63,0,2,8,13,181,1730.5759587470675,1737.6277619866887,stimuli/345_zb.png,a,7.0400721681071445,awful,0.333,3.694915254,2.191317013,0.285285176
68,63,0,2,8,14,182,1738.2459598380374,1744.1716160529759,stimuli/348_za.png,a,5.913924749591388,awful,0.333,3.084745763,2.119597681,0.275948114
68,63,0,2,8,15,183,1744.7909454213222,1750.0915890823817,stimuli/306_zb.png,a,5.288658953271806,awful,0.333,2.352112676,1.917055413,0.101746737
68,63,0,2,8,16,184,1750.7251303528901,1757.0995093083475,stimuli/226_yb.png,l,6.3625742349540815,ambig,0.333,5.683333333,1.712285287,0.22105508
68,63,0,2,8,17,185,1757.7109558660304,1770.595477712457,stimuli/276_ya.png,l,12.872709248913452,ambig,0.333,5.186440678,1.804922162,0.234980851
68,63,0,2,8,18,186,1771.2025628291303,1776.3554814775707,stimuli/135_xa.png,l,5.1412714660400525,harmless,0.333,6.508474576,1.179901828,0.153610134
68,63,0,2,8,19,187,1776.948809189489,1789.6594617947703,stimuli/371_zb.png,a,12.69881204480771,awful,0.333,3.131147541,2.085468851,0.267016925
68,63,0,2,8,20,188,1790.2642322835745,1796.8514266449492,stimuli/338_zb.png,a,6.57524509972427,awful,0.333,3.310344828,2.137443107,0.28066003
68,63,0,2,8,21,189,1797.4754415890202,1809.2673806815874,stimuli/170_xc.png,l,11.779959111008793,harmless,0.333,6.583333333,1.062323432,0.137145365
68,63,0,2,8,22,190,1809.8798031876795,1817.9153114783112,stimuli/101_xa.png,l,8.024174608872272,harmless,0.333,6.508522727,1.13475832,0.060482822
68,63,0,2,8,23,191,1818.5175660841633,1827.635286792065,stimuli/290_zb.png,a,9.106253118719906,awful,0.333,2.586206897,2.026443456,0.266085062
68,63,0,2,8,24,192,1828.2478073656093,1834.899346965365,stimuli/167_xb.png,l,6.63984751899261,harmless,0.333,6.590163934,0.955284411,0.122311635
68,63,0,2,9,1,193,1844.632267181296,1854.403392739594,stimuli/145_xa.png,l,9.759631581488065,harmless,0.333,6.661016949,0.822321556,0.107057148
68,63,0,2,9,2,194,1854.99923436495,1867.9392718353774,stimuli/238_xb.png,a,12.928292614291422,harmless,0.333,6.4,1.076718178,0.139003719
68,63,0,2,9,3,195,1868.5504812984727,1873.3712159850402,stimuli/160_xb.png,l,4.809163516270928,harmless,0.333,6.666666667,0.680644427,0.087870818
68,63,0,2,9,4,196,1873.9696648652898,1879.7391626616009,stimuli/115_xb.png,l,5.757664718898013,harmless,0.333,6.440677966,1.021681954,0.133011661
68,63,0,2,9,5,197,1880.3653370585525,1887.755153168342,stimuli/316_za.png,a,7.378051561419852,awful,0.333,2.344827586,1.802062407,0.236622386
68,63,0,2,9,6,198,1888.3245606952114,1896.0431382525712,stimuli/334_za.png,a,7.706800405983813,awful,0.333,3.333333333,2.214487481,0.285889104
68,63,0,2,9,7,199,1896.6506991342176,1901.6111736230087,stimuli/209_ya.png,l,4.948706002091058,ambig,0.333,5.603448276,1.825161903,0.239655499
68,63,0,2,9,8,200,1902.2325974599225,1909.0351439837832,stimuli/285_yb.png,a,6.790732351015322,ambig,0.333,4.120689655,2.119893958,0.278355714
68,63,0,2,9,9,201,1909.6757437469205,1922.5390983860707,stimuli/218_yb.png,l,12.851323457551189,ambig,0.333,5.850282486,1.552723069,0.0825263
68,63,0,2,9,10,202,1923.1588188426103,1929.0830347659066,stimuli/214_xb.png,l,5.912406870396808,harmless,0.333,6.465517241,0.940614156,0.12350869
68,63,0,2,9,11,203,1929.6974855744047,1934.5070496310946,stimuli/333_za.png,a,4.797841649735346,awful,0.333,3.266666667,2.185209657,0.282109354
68,63,0,2,9,12,204,1935.1333729015896,1942.8910726726754,stimuli/224_yb.png,l,7.746112846885808,ambig,0.333,5.881355932,1.609077116,0.209483997
68,63,0,2,9,13,205,1943.491378532839,1951.611031051143,stimuli/188_xa.png,l,8.107923022238538,harmless,0.333,6.655172414,0.806807095,0.105938962
68,63,0,2,9,14,206,1952.226894188323,1957.0990548109403,stimuli/356_za.png,a,4.8604464863892645,awful,0.333,3.033333333,2.178217796,0.281206708
68,63,0,2,9,15,207,1957.6940134356264,1962.9069867734797,stimuli/304_ya.png,a,5.201271804748103,ambig,0.333,4.034482759,2.017167697,0.264867095
68,63,0,2,9,16,208,1963.517963473918,1970.9869684517616,stimuli/287_ya.png,a,7.456675655557774,ambig,0.333,5.950819672,1.407435369,0.180203633
68,63,0,2,9,17,209,1971.6163676527794,1978.074945580447,stimuli/211_zb.png,l,6.446273417561315,awful,0.333,3.983333333,2.127237938,0.274625237
68,63,0,2,9,18,210,1978.7043940121075,1984.2029397388687,stimuli/169_xc.png,l,5.486639000358991,harmless,0.333,6.603448276,0.916508538,0.120343467
68,63,0,2,9,19,211,1984.8231257204898,1992.7229425430996,stimuli/321_zb.png,a,7.887917973101139,awful,0.333,2.918032787,2.177881861,0.278849198
68,63,0,2,9,20,212,1993.2883237911155,1998.9949075821787,stimuli/353_zb.png,a,5.694702270790003,awful,0.333,1.949152542,1.623361018,0.211343603
68,63,0,2,9,21,213,1999.606455358211,2005.858877407387,stimuli/220_yb.png,a,6.240553919575177,ambig,0.333,4.75,2.096203186,0.270618668
68,63,0,2,9,22,214,2006.4325297973119,2012.1548307667254,stimuli/161_xc.png,l,5.710598254809156,harmless,0.333,6.796610169,0.609682252,0.079373868
68,63,0,2,9,23,215,2012.7754562793998,2018.9148557995213,stimuli/330_ya.png,a,6.127611734904349,ambig,0.333,4.796610169,2.049219036,0.266785595
68,63,0,2,9,24,216,2019.5428859947715,2024.946808849927,stimuli/229_za.png,a,5.392235106555745,awful,0.333,3.406779661,2.043649913,0.266060557
68,63,0,2,10,1,217,2037.9201849180972,2042.786753333523,stimuli/310_zb.png,a,4.85486963915173,awful,0.333,3.224137931,2.102989547,0.276136056
68,63,0,2,10,2,218,2043.4073721509194,2051.338825766463,stimuli/119_xc.png,l,7.919686704059131,harmless,0.333,6.694915254,0.914523379,0.119060803
68,63,0,2,10,3,219,2051.947892711847,2057.786825013347,stimuli/283_yb.png,l,5.8274588047061116,ambig,0.333,5.949152542,1.478859402,0.192531095
68,63,0,2,10,4,220,2058.4118769516936,2062.5466988096014,stimuli/364_za.png,a,4.123082909500226,awful,0.333,1.677966102,1.279017376,0.166513879
68,63,0,2,10,5,221,2063.1325379499467,2068.626678912551,stimuli/191_ya.png,a,5.482264562277123,ambig,0.333,5.517241379,2.062542966,0.270825159
68,63,0,2,10,6,222,2069.236885251943,2076.9066720912233,stimuli/128_xc.png,l,7.658015201683156,harmless,0.333,6.627118644,0.98082135,0.127692063
68,63,0,2,10,7,223,2077.4791898132535,2087.418830287759,stimuli/244_xb.png,l,9.927919642999768,harmless,0.333,6.610169492,0.743174671,0.096753101
68,63,0,2,10,8,224,2088.0503290772904,2094.6906098258914,stimuli/293_zb.png,l,6.628726513590664,awful,0.333,3.677966102,2.169066842,0.28238845
68,63,0,2,10,9,225,2095.320325284498,2102.7146658872953,stimuli/279_ya.png,l,7.382463414687663,ambig,0.333,5.31147541,1.970964092,0.252356093
68,63,0,2,10,10,226,2103.3334395402344,2108.538634436438,stimuli/237_ya.png,a,5.1935335353482515,ambig,0.333,4.305084746,2.019339575,0.26289562
68,63,0,2,10,11,227,2109.1530742172617,2121.0345701514743,stimuli/205_yb.png,l,11.869652222958393,ambig,0.333,5.847457627,1.52918233,0.199082582
68,63,0,2,10,12,228,2121.6622573076747,2127.4105504812906,stimuli/131_xb.png,l,5.736524686799385,harmless,0.333,6.525423729,1.119666394,0.145768149
68,63,0,2,10,13,229,2128.026251748088,2135.658599667833,stimuli/312_yb.png,l,7.619296679273248,ambig,0.333,4.677966102,2.112692986,0.275049199
68,63,0,2,10,14,230,2136.2311024237424,2145.0985105170403,stimuli/278_xb.png,l,8.855452136253007,harmless,0.333,6.360655738,1.140654591,0.146045855
68,63,0,2,10,15,231,2145.718624031055,2151.098463649396,stimuli/175_xb.png,l,5.368100669933483,harmless,0.333,6.6,1.028409995,0.13276716
68,63,0,2,10,16,232,2151.7202510053758,2155.3464825098636,stimuli/199_za.png,a,3.614677663310431,awful,0.333,3.033898305,2.189048775,0.284989876
68,63,0,2,10,17,233,2155.9687164862407,2162.4424972302513,stimuli/308_zb.png,a,6.46207212167792,awful,0.333,1.644067797,1.471132708,0.191525165
68,63,0,2,10,18,234,2163.0396728091873,2168.5304393066326,stimuli/349_za.png,a,5.47892475547269,awful,0.333,3.288135593,2.101320172,0.273568585
68,63,0,2,10,19,235,2169.090780124534,2175.074505655328,stimuli/291_za.png,a,5.971729401499033,awful,0.333,2.593220339,1.830005126,0.238246374
68,63,0,2,10,20,236,2175.700711166137,2184.7464598243823,stimuli/271_ya.png,l,9.034115654183552,ambig,0.333,5.711864407,1.771915459,0.230683744
68,63,0,2,10,21,237,2185.36212013138,2191.8344424668467,stimuli/204_xb.png,l,6.460514464182779,harmless,0.333,6.508474576,0.858484658,0.111765183
68,63,0,2,10,22,238,2192.4617731932085,2197.826428505825,stimuli/355_zb.png,a,5.352930936496705,awful,0.333,3.183333333,2.070713188,0.267327923
68,63,0,2,10,23,239,2198.436846340075,2204.93835772085,stimuli/336_ya.png,a,6.48959323274903,ambig,0.333,5.033898305,1.884291705,0.245313885
68,63,0,2,10,24,240,2205.5497290542116,2214.474311647238,stimuli/154_xc.png,l,8.91284758306574,harmless,0.333,6.5,0.965506805,0.124646393
