id,age,condition,counterbalance,block,trialinblock,trial,tstart,tend,trialstim,response,RT,trialtype,ethicfreq,norm_mean,norm_sd,norm_se
76,70,1,1,0,0,practice,5.119945853948593e-06,21.92779917898588,stimuli/prac_217_1.png,l,21.90547514311038,harmless,NA,NA,NA,NA
76,70,1,1,1,1,1,6.485924104927108,45.07224611355923,stimuli/353_zb.png,a,38.57439553341828,awful,0.333,1.949152542,1.623361018,0.211343603
76,70,1,1,1,2,2,45.6680409302935,56.79227051627822,stimuli/373_zb.png,a,11.112514606909826,awful,0.333,2.327586207,1.858011869,0.243968911
76,70,1,1,1,3,3,57.42429334996268,75.5363022570964,stimuli/260_ya.png,l,18.100089127430692,ambig,0.333,4.966101695,2.016877936,0.262575142
76,70,1,1,1,4,4,76.13476302428171,89.96041404362768,stimuli/216_xa.png,l,13.813921861583367,harmless,0.333,6.603448276,0.877389573,0.115206895
76,70,1,1,1,5,5,90.60203335341066,109.22443135385402,stimuli/239_ya.png,l,18.610648362664506,ambig,0.333,5.157894737,1.925296579,0.255011762
76,70,1,1,1,6,6,109.8392080210615,125.0564508792013,stimuli/110_xa.png,l,15.20497728092596,harmless,0.333,6.428571429,1.059281795,0.141552484
76,70,1,1,1,7,7,125.70547214988619,167.34455862944014,stimuli/224_yb.png,a,41.62602572515607,ambig,0.333,5.881355932,1.609077116,0.209483997
76,70,1,1,1,8,8,167.96971986070275,190.71258502663113,stimuli/233_yb.png,l,22.731256131548434,ambig,0.333,5.318309859,1.922973646,0.102060844
76,70,1,1,1,9,9,191.31285985326394,212.15264407219365,stimuli/287_ya.png,a,20.826400510035455,ambig,0.333,5.950819672,1.407435369,0.180203633
76,70,1,1,1,10,10,212.79634801438078,224.80864746239968,stimuli/111_xa.png,a,11.999471063259989,harmless,0.333,6.590163934,0.863655973,0.110579816
76,70,1,1,1,11,11,225.45294847665355,241.89669708092697,stimuli/341_zb.png,a,16.431812283117324,awful,0.333,3.603448276,2.15975677,0.283589957
76,70,1,1,1,12,12,242.45927681028843,279.29678144305944,stimuli/229_za.png,a,36.82549269287847,awful,0.333,3.406779661,2.043649913,0.266060557
76,70,1,1,1,13,13,279.92154449480586,285.75276963063516,stimuli/299_za.png,a,5.8196180707309395,awful,0.333,1.288135593,0.929420425,0.121000233
76,70,1,1,1,14,14,286.4013167093508,301.94480155431665,stimuli/318_za.png,a,15.530474109109491,awful,0.333,3.06557377,2.197489875,0.281359747
76,70,1,1,1,15,15,302.5632662049029,313.81681742472574,stimuli/202_yb.png,a,11.241073752986267,ambig,0.333,5.431034483,1.892849601,0.248543329
76,70,1,1,1,16,16,314.4329887041822,321.81685287109576,stimuli/181_xa.png,l,7.371885310159996,harmless,0.333,6.666666667,0.950765377,0.122743282
76,70,1,1,1,17,17,322.4664550658781,338.37689465028234,stimuli/168_xa.png,l,15.898492629174143,harmless,0.333,6.474576271,1.164946827,0.151663159
76,70,1,1,1,18,18,338.9498589436989,364.2812059754506,stimuli/238_xb.png,l,25.31958400318399,harmless,0.333,6.4,1.076718178,0.139003719
76,70,1,1,1,19,19,364.90874171000905,371.0089056685101,stimuli/117_xc.png,l,6.087871205527335,harmless,0.333,6.627118644,0.868972939,0.113130641
76,70,1,1,1,20,20,371.5812598930206,380.8809554099571,stimuli/372_zb.png,a,9.287377557950094,awful,0.333,2.796610169,2.082601664,0.271131643
76,70,1,1,1,21,21,381.4649119733367,386.5529907364398,stimuli/314_zb.png,a,5.0761518941726536,awful,0.333,1.833333333,1.451669602,0.18740974
76,70,1,1,1,22,22,387.15474918461405,396.84901638678275,stimuli/267_ya.png,l,9.682417527306825,ambig,0.333,5.103448276,1.898195405,0.249245267
76,70,1,1,1,23,23,397.4719768008217,416.09707422880456,stimuli/319_ya.png,a,18.61344703962095,ambig,0.333,4.216666667,2.108028774,0.272145344
76,70,1,1,1,24,24,416.7258454617113,423.9530467414297,stimuli/129_xa.png,l,7.215563888428733,harmless,0.333,6.770491803,0.642740036,0.082294429
76,70,1,1,2,1,25,434.64800475141965,444.58535747719,stimuli/313_zb.png,a,9.923831564141437,awful,0.333,2.101694915,1.688652955,0.219843889
76,70,1,1,2,2,26,445.22700278111733,491.75324657931924,stimuli/285_yb.png,a,46.51457096077502,ambig,0.333,4.120689655,2.119893958,0.278355714
76,70,1,1,2,3,27,492.3243936628569,495.2013696425129,stimuli/179_xb.png,l,2.8650774678681046,harmless,0.333,6.704918033,0.882123617,0.112944356
76,70,1,1,2,4,28,495.83188837440684,500.6332410024479,stimuli/347_zb.png,a,4.789300909731537,awful,0.333,3.796610169,2.147810923,0.279621165
76,70,1,1,2,5,29,501.22248890041374,518.6093396092765,stimuli/232_yb.png,a,17.375075864838436,ambig,0.333,5.483333333,1.845669845,0.238274952
76,70,1,1,2,6,30,519.2676115583163,535.1053717974573,stimuli/213_ya.png,l,15.82566637918353,ambig,0.333,5.98245614,1.597891781,0.211645937
76,70,1,1,2,7,31,535.6739789615385,551.3773834144231,stimuli/366_za.png,a,15.69149058079347,awful,0.333,3.689655172,2.036568291,0.267414518
76,70,1,1,2,8,32,552.01612764108,561.2333972810302,stimuli/147_ya.png,l,9.204848886700347,ambig,0.333,5.883333333,1.766847875,0.22809908
76,70,1,1,2,9,33,561.8182829294819,584.0174100070726,stimuli/187_xc.png,a,22.18722738395445,harmless,0.333,6.224137931,1.185335891,0.155642228
76,70,1,1,2,10,34,584.6078110889066,591.8734675906599,stimuli/192_za.png,a,7.253957276232541,awful,0.333,2.68852459,2.093967396,0.268105052
76,70,1,1,2,11,35,592.4374053045176,608.6895225276239,stimuli/250_yb.png,l,16.239991067675874,ambig,0.333,5.950819672,1.585625318,0.203018519
76,70,1,1,2,12,36,609.3217765493318,615.849547686521,stimuli/301_za.png,a,6.5156473447568715,awful,0.333,3.610169492,2.212947396,0.288101212
76,70,1,1,2,13,37,616.422359561082,621.2414510585368,stimuli/215_yb.png,l,4.807396604446694,ambig,0.333,5.866666667,1.466769385,0.189359113
76,70,1,1,2,14,38,621.8631803067401,631.4495212200563,stimuli/367_zb.png,a,9.573016675189137,awful,0.333,3.413793103,2.086165649,0.27392697
76,70,1,1,2,15,39,632.0950037750881,650.6895461583044,stimuli/171_xa.png,a,18.582728154491633,harmless,0.333,6.465517241,1.046556882,0.137419651
76,70,1,1,2,16,40,651.3073479642626,665.729747697711,stimuli/220_yb.png,a,14.410362587310374,ambig,0.333,4.75,2.096203186,0.270618668
76,70,1,1,2,17,41,666.4095587457996,669.3536155351903,stimuli/195_xc.png,l,2.932351656490937,harmless,0.333,6.637640449,1.001766915,0.05309354
76,70,1,1,2,18,42,669.9185748882592,687.7456307597458,stimuli/127_xb.png,l,17.814851734321564,harmless,0.333,6.423728814,1.162686987,0.151368953
76,70,1,1,2,19,43,688.369172886014,693.9536729583051,stimuli/362_zb.png,a,5.572323898319155,awful,0.333,1.474576271,1.222715071,0.159183944
76,70,1,1,2,20,44,694.5202167576645,701.4017144949175,stimuli/176_xb.png,l,6.8694645296782255,harmless,0.333,6.796610169,0.517942249,0.067430337
76,70,1,1,2,21,45,702.0227604187094,720.1777455173433,stimuli/214_xb.png,a,18.14329296257347,harmless,0.333,6.465517241,0.940614156,0.12350869
76,70,1,1,2,22,46,720.8436364368536,728.2257042673882,stimuli/291_za.png,a,7.369515138911083,awful,0.333,2.593220339,1.830005126,0.238246374
76,70,1,1,2,23,47,728.9349148129113,732.6897269340698,stimuli/160_xb.png,l,3.741623760201037,harmless,0.333,6.666666667,0.680644427,0.087870818
76,70,1,1,2,24,48,733.2900092436466,756.9537493644748,stimuli/261_yb.png,a,23.65103382873349,ambig,0.333,5.706896552,1.901141123,0.249632059
76,70,1,1,3,1,49,767.7103239509743,778.5778231839649,stimuli/152_xa.png,l,10.855725570581853,harmless,0.333,6.576271186,0.968528743,0.126091702
76,70,1,1,3,2,50,779.2473493113648,786.913843997987,stimuli/350_ya.png,a,7.654092444572598,ambig,0.333,4.915254237,2.02814792,0.264042369
76,70,1,1,3,3,51,787.5348647155333,790.5298132339958,stimuli/331_za.png,a,2.980991761898622,awful,0.333,1.983606557,1.638004917,0.209725039
76,70,1,1,3,4,52,791.1601279531606,814.0339929352049,stimuli/209_ya.png,l,22.86230124020949,ambig,0.333,5.603448276,1.825161903,0.239655499
76,70,1,1,3,5,53,814.67527471832,819.2019344191067,stimuli/364_za.png,a,4.514990801690146,awful,0.333,1.677966102,1.279017376,0.166513879
76,70,1,1,3,6,54,819.8059035304468,830.9459842769429,stimuli/161_xc.png,l,11.128350801067427,harmless,0.333,6.796610169,0.609682252,0.079373868
76,70,1,1,3,7,55,831.6195473358966,837.186060415348,stimuli/324_za.png,a,5.5532534322701395,awful,0.333,2.491525424,1.994586478,0.259673041
76,70,1,1,3,8,56,837.8018933802377,844.8259877585806,stimuli/173_yb.png,a,7.01214584778063,ambig,0.333,5.796610169,1.242628763,0.161776485
76,70,1,1,3,9,57,845.3810713978019,851.1139694778249,stimuli/205_yb.png,l,5.720726238330826,ambig,0.333,5.847457627,1.52918233,0.199082582
76,70,1,1,3,10,58,851.7274633850902,867.9220399542246,stimuli/189_yb.png,l,16.183089627418667,ambig,0.333,5.983333333,1.455459234,0.187898979
76,70,1,1,3,11,59,868.5267766735051,888.0660390846897,stimuli/141_xc.png,a,19.527763260062784,harmless,0.333,6.508474576,1.040107444,0.135410455
76,70,1,1,3,12,60,888.7462128656916,893.2900387821719,stimuli/136_xc.png,l,4.532058161683381,harmless,0.333,6.559322034,1.038420326,0.135190811
76,70,1,1,3,13,61,893.9112056170125,904.2740966430865,stimuli/185_xa.png,l,10.351279234746471,harmless,0.333,6.5,0.965506805,0.124646393
76,70,1,1,3,14,62,904.882564274827,910.0101045388728,stimuli/363_zb.png,a,5.115673259831965,awful,0.333,2.433333333,2.019956927,0.260775318
76,70,1,1,3,15,63,910.659277046565,932.1702632119413,stimuli/315_yb.png,a,21.498399602714926,ambig,0.333,5.050847458,1.915667965,0.249398726
76,70,1,1,3,16,64,932.8138371845707,946.6421907818876,stimuli/155_xb.png,l,13.816428697668016,harmless,0.333,6.655737705,0.892286312,0.114245555
76,70,1,1,3,17,65,947.2479081801139,952.5941808316857,stimuli/349_za.png,a,5.334431247320026,awful,0.333,3.288135593,2.101320172,0.273568585
76,70,1,1,3,18,66,953.2114147103857,963.5622095132712,stimuli/371_zb.png,a,10.339179860893637,awful,0.333,3.131147541,2.085468851,0.267016925
76,70,1,1,3,19,67,964.1994323090184,975.498243245529,stimuli/134_xc.png,a,11.287167637376115,harmless,0.333,6.516666667,0.965360505,0.124627505
76,70,1,1,3,20,68,976.1303925041575,983.6262730613817,stimuli/365_zb.png,a,7.483902094420046,awful,0.333,2.966101695,2.165291266,0.281896912
76,70,1,1,3,21,69,984.2378654752392,992.7543162677903,stimuli/271_ya.png,a,8.50461135758087,ambig,0.333,5.711864407,1.771915459,0.230683744
76,70,1,1,3,22,70,993.3573409342207,999.6342913925182,stimuli/105_xa.png,l,6.264576573157683,harmless,0.333,6.557377049,1.088187946,0.139328189
76,70,1,1,3,23,71,1000.2010581095237,1007.2263422997203,stimuli/276_ya.png,a,7.013312422903255,ambig,0.333,5.186440678,1.804922162,0.234980851
76,70,1,1,3,24,72,1007.8570658320095,1015.8103827524465,stimuli/328_za.png,a,7.940692942356691,awful,0.333,2.706896552,1.955725922,0.256799395
76,70,1,1,4,1,73,1026.3804936243687,1037.106422581477,stimuli/196_xb.png,l,10.713772475486621,harmless,0.333,6.594366197,0.982313556,0.05213579
76,70,1,1,4,2,74,1037.679785841843,1054.218509076396,stimuli/225_ya.png,a,16.526814876357093,ambig,0.333,5.85,1.792876677,0.231459384
76,70,1,1,4,3,75,1054.8818667719606,1066.7064764597453,stimuli/339_ya.png,a,11.812257070327178,ambig,0.333,4.949152542,1.960152429,0.25519011
76,70,1,1,4,4,76,1067.27516357461,1072.5706279929727,stimuli/175_xb.png,l,5.283499740064144,harmless,0.333,6.6,1.028409995,0.13276716
76,70,1,1,4,5,77,1073.2200064829085,1076.258459735429,stimuli/337_zb.png,a,3.0264968452975154,awful,0.333,3.033333333,2.20143764,0.284204377
76,70,1,1,4,6,78,1076.8198382314295,1082.2824469872285,stimuli/359_za.png,a,5.4504038309678435,awful,0.333,2.01754386,1.641985167,0.217486248
76,70,1,1,4,7,79,1082.876977555221,1090.12247499777,stimuli/197_xa.png,l,7.232300417032093,harmless,0.333,6.779661017,0.55918033,0.072799078
76,70,1,1,4,8,80,1090.7303869114257,1095.5064892203081,stimuli/370_za.png,a,4.764291231054813,awful,0.333,2.393442623,1.882185684,0.240989182
76,70,1,1,4,9,81,1096.1409271238372,1106.6025268437807,stimuli/139_xa.png,l,10.449911916162819,harmless,0.333,6.724137931,0.790138861,0.103750315
76,70,1,1,4,10,82,1107.171480199322,1126.802647991106,stimuli/191_ya.png,a,19.619882499799132,ambig,0.333,5.517241379,2.062542966,0.270825159
76,70,1,1,4,11,83,1127.4019827046432,1141.5226081968285,stimuli/332_zb.png,a,14.108600555220619,awful,0.333,2.694915254,2.002190501,0.260663001
76,70,1,1,4,12,84,1142.1410657579545,1155.6906575947069,stimuli/165_xb.png,l,13.536987157072872,harmless,0.333,6.557377049,1.008705278,0.129151477
76,70,1,1,4,13,85,1156.3291615745984,1161.4746742590796,stimuli/249_ya.png,a,5.13294699578546,ambig,0.333,5.327868852,1.859402337,0.238072074
76,70,1,1,4,14,86,1162.1126961703412,1170.6506683388725,stimuli/344_za.png,a,8.525383242871612,awful,0.333,2.711864407,2.043077863,0.265986082
76,70,1,1,4,15,87,1171.2207390381955,1180.7307441306766,stimuli/118_xb.png,l,9.498089645057917,harmless,0.333,6.474576271,0.953323265,0.124112118
76,70,1,1,4,16,88,1181.3504765746184,1185.4426690698601,stimuli/326_zb.png,a,4.079407433746383,awful,0.333,3.389830508,2.220724867,0.289113752
76,70,1,1,4,17,89,1186.0376198722515,1189.754721536534,stimuli/245_yb.png,a,3.704943607095629,ambig,0.333,4.949152542,2.096168334,0.272897873
76,70,1,1,4,18,90,1190.375162905082,1195.01078471262,stimuli/159_xa.png,l,4.623392464127392,harmless,0.333,6.389830508,1.174689235,0.152931512
76,70,1,1,4,19,91,1195.569454722805,1198.242690888932,stimuli/270_yb.png,a,2.661487316014245,ambig,0.333,5.534482759,1.912246013,0.251090203
76,70,1,1,4,20,92,1198.8025235354435,1203.6267484347336,stimuli/158_xa.png,l,4.812440996989608,harmless,0.333,6.786885246,0.661179605,0.084655374
76,70,1,1,4,21,93,1204.2692475987133,1228.6668266998604,stimuli/288_yb.png,a,24.384682974778116,ambig,0.333,5.189655172,1.914459262,0.251380817
76,70,1,1,4,22,94,1229.3229198872577,1235.3628197398502,stimuli/351_zb.png,a,6.027751247864217,awful,0.333,3.06779661,2.033040926,0.264679384
76,70,1,1,4,23,95,1235.966290634824,1242.0588687059935,stimuli/243_ya.png,a,6.079775286605582,ambig,0.333,5.830508475,1.652088985,0.215083666
76,70,1,1,4,24,96,1242.6520271110348,1246.8028441269416,stimuli/302_za.png,a,4.138850762275979,awful,0.333,3.137931034,2.188071937,0.287307921
76,70,1,1,5,1,97,1258.323084909236,1276.2508899958339,stimuli/286_ya.png,a,17.91610113508068,ambig,0.25,5.06779661,1.779814082,0.231712057
76,70,1,1,5,2,98,1276.8389039710164,1289.131068345625,stimuli/284_ya.png,a,12.28041749377735,ambig,0.25,5.948275862,1.431750417,0.18799804
76,70,1,1,5,3,99,1289.7455894059967,1295.1550024282187,stimuli/266_zb.png,a,5.397581070428714,awful,0.25,3.491525424,1.888010094,0.245797978
76,70,1,1,5,4,100,1295.7242082396988,1298.7869110461324,stimuli/116_xa.png,l,3.0507538821548223,harmless,0.25,6.63559322,0.958030802,0.050918763
76,70,1,1,5,5,101,1299.351582890842,1302.7629635727499,stimuli/114_xc.png,l,3.3991320398636162,harmless,0.25,6.644067797,0.97843492,0.127381377
76,70,1,1,5,6,102,1303.3513784843963,1307.3629784602672,stimuli/368_za.png,a,3.9994840605650097,awful,0.25,3.590163934,2.02794682,0.259651984
76,70,1,1,5,7,103,1307.95334488363,1313.602982130833,stimuli/128_xc.png,l,5.6374346853699535,harmless,0.25,6.627118644,0.98082135,0.127692063
76,70,1,1,5,8,104,1314.2111142051872,1325.9950666725636,stimuli/312_yb.png,a,11.771880269050598,ambig,0.25,4.677966102,2.112692986,0.275049199
76,70,1,1,5,9,105,1326.6238918623421,1330.2190151698887,stimuli/109_xb.png,l,3.583378395996988,harmless,0.25,6.644067797,0.97843492,0.127381377
76,70,1,1,5,10,106,1330.847390980227,1337.9231080673635,stimuli/325_yb.png,a,7.06328451866284,ambig,0.25,5.131147541,1.811770863,0.231973488
76,70,1,1,5,11,107,1338.5367539997678,1348.6590631876606,stimuli/222_ya.png,l,10.110433125402778,ambig,0.25,5.931034483,1.543089507,0.202617579
76,70,1,1,5,12,108,1349.2228811720852,1351.651074788766,stimuli/320_za.png,a,2.416025713318959,awful,0.25,1.423728814,1.117314975,0.14546202
76,70,1,1,5,13,109,1352.2820401433855,1359.2830771424342,stimuli/231_xb.png,l,6.989171176450327,harmless,0.25,6.62295082,1.05141071,0.134619347
76,70,1,1,5,14,110,1359.8466848125681,1373.8110960093327,stimuli/281_ya.png,l,13.952463453868404,ambig,0.25,5.881355932,1.543448286,0.200939852
76,70,1,1,5,15,111,1374.4191331665497,1379.6990961604752,stimuli/306_zb.png,a,5.267960112541914,awful,0.25,2.352112676,1.917055413,0.101746737
76,70,1,1,5,16,112,1380.2690821830183,1392.5471298990306,stimuli/204_xb.png,a,12.266387481475249,harmless,0.25,6.508474576,0.858484658,0.111765183
76,70,1,1,5,17,113,1393.1187590511981,1423.3872362850234,stimuli/172_xb.png,l,30.256526340264827,harmless,0.25,6.482758621,1.127664553,0.14806961
76,70,1,1,5,18,114,1424.03495431575,1445.0593527441379,stimuli/208_xb.png,a,21.012462894897908,harmless,0.25,6.216666667,1.165778516,0.150501359
76,70,1,1,5,19,115,1445.6639086874202,1449.043249915354,stimuli/345_zb.png,a,3.3667885360773653,awful,0.25,3.694915254,2.191317013,0.285285176
76,70,1,1,5,20,116,1449.6167502345052,1454.2272942278069,stimuli/340_za.png,a,4.598508816445246,awful,0.25,2.508474576,1.832398855,0.238558011
76,70,1,1,5,21,117,1454.7929034284316,1461.5392903743777,stimuli/247_ya.png,a,6.734426600160077,ambig,0.25,4.65,2.081598147,0.268733165
76,70,1,1,5,22,118,1462.1113259766717,1465.5793146826327,stimuli/125_xc.png,l,3.4560728648211807,harmless,0.25,6.683333333,0.999858747,0.129081209
76,70,1,1,5,23,119,1466.204612578731,1472.2753085102886,stimuli/207_yb.png,a,6.058086525881663,ambig,0.25,5.655737705,1.662179753,0.212820309
76,70,1,1,5,24,120,1472.9013141493779,1482.25132480287,stimuli/150_xc.png,a,9.338032190687954,harmless,0.25,6.482758621,1.030097582,0.135258439
76,70,1,1,6,1,121,1492.259302173974,1498.6193921603262,stimuli/242_xb.png,l,6.348281271522865,harmless,0.166,6.576271186,0.913564256,0.118935936
76,70,1,1,6,2,122,1499.1834310928825,1511.179454419529,stimuli/274_xb.png,l,11.98384439572692,harmless,0.166,6.491525424,1.179901828,0.153610134
76,70,1,1,6,3,123,1511.8102027643472,1519.6514312203508,stimuli/283_yb.png,a,7.829460307490081,ambig,0.166,5.949152542,1.478859402,0.192531095
76,70,1,1,6,4,124,1520.2783596429508,1537.6675458645914,stimuli/272_xb.png,l,17.377566159470007,harmless,0.166,6.355932203,1.029943284,0.134087194
76,70,1,1,6,5,125,1538.2990062846802,1543.6514899036847,stimuli/217_yb.png,a,5.340432688361034,ambig,0.166,5.169491525,2.001314588,0.260548967
76,70,1,1,6,6,126,1544.242787775118,1549.547538712388,stimuli/108_xb.png,l,5.29314072127454,harmless,0.166,6.568965517,1.077880782,0.141532681
76,70,1,1,6,7,127,1550.1884002604056,1563.307574032573,stimuli/253_ya.png,a,13.107179555343464,ambig,0.166,5.491803279,1.849531029,0.236808182
76,70,1,1,6,8,128,1563.8746483440045,1567.6755413527135,stimuli/252_zb.png,a,3.789248921908438,awful,0.166,2.711864407,1.983125776,0.258180985
76,70,1,1,6,9,129,1568.294683813816,1574.2195972758345,stimuli/143_xb.png,l,5.911853495286778,harmless,0.166,6.655172414,0.738697862,0.096995781
76,70,1,1,6,10,130,1574.8270420869812,1583.3076433495153,stimuli/119_xc.png,l,8.467241971986368,harmless,0.166,6.694915254,0.914523379,0.119060803
76,70,1,1,6,11,131,1583.9022723792586,1593.6516387776937,stimuli/254_ya.png,a,9.737444255733863,ambig,0.166,5.983606557,1.627798137,0.208418195
76,70,1,1,6,12,132,1594.2579508849885,1629.155848017661,stimuli/235_ya.png,l,34.886158916400746,ambig,0.166,5.694915254,1.567495667,0.204070554
76,70,1,1,6,13,133,1629.7850312143564,1632.8836646834388,stimuli/330_ya.png,a,3.086788520216942,ambig,0.166,4.796610169,2.049219036,0.266785595
76,70,1,1,6,14,134,1633.454860209953,1641.5637088888325,stimuli/338_zb.png,a,8.096953711472452,awful,0.166,3.310344828,2.137443107,0.28066003
76,70,1,1,6,15,135,1642.1257431402337,1646.003676168155,stimuli/334_za.png,a,3.8663472305051982,awful,0.166,3.333333333,2.214487481,0.285889104
76,70,1,1,6,16,136,1646.5757925088983,1656.2917405951302,stimuli/218_yb.png,a,9.70459190174006,ambig,0.166,5.850282486,1.552723069,0.0825263
76,70,1,1,6,17,137,1656.8858036666643,1661.3317826264538,stimuli/240_xa.png,l,4.433859893586487,harmless,0.166,6.482758621,1.096107616,0.143925981
76,70,1,1,6,18,138,1661.9276636957657,1665.6597551768646,stimuli/122_xa.png,l,3.7197160203941166,harmless,0.166,6.457627119,1.039264227,0.135300678
76,70,1,1,6,19,139,1666.2476659642998,1673.2917791921645,stimuli/198_yb.png,a,7.032195023726672,ambig,0.166,5.101694915,1.83542643,0.238952168
76,70,1,1,6,20,140,1673.862115738215,1688.2518005701713,stimuli/280_xb.png,l,14.37797812349163,harmless,0.166,6.333333333,1.068289726,0.137915611
76,70,1,1,6,21,141,1688.916683634976,1692.0358018744737,stimuli/153_xb.png,l,3.106456452049315,harmless,0.166,6.633333333,0.973664521,0.125699549
76,70,1,1,6,22,142,1692.7132388127502,1708.0358841884881,stimuli/221_xb.png,l,15.310053299181163,harmless,0.166,6.440677966,1.133672495,0.147591588
76,70,1,1,6,23,143,1708.6409127484076,1715.2438393468037,stimuli/145_xa.png,l,6.590292774140835,harmless,0.166,6.661016949,0.822321556,0.107057148
76,70,1,1,6,24,144,1715.8272015950643,1719.611860623816,stimuli/317_za.png,a,3.7733308074530214,awful,0.166,3.65,2.03215674,0.262350307
76,70,1,1,7,1,145,1731.972955313744,1738.6119295470417,stimuli/212_ya.png,a,6.627221444621682,ambig,0.083,5.677966102,1.490668422,0.194068498
76,70,1,1,7,2,146,1739.2482996641193,1749.2839530583005,stimuli/236_yb.png,a,10.023886820999905,ambig,0.083,5.93442623,1.49297078,0.19115532
76,70,1,1,7,3,147,1749.8574809466954,1754.6680417179596,stimuli/164_xb.png,l,4.798670530086383,harmless,0.083,6.830508475,0.460604639,0.059965616
76,70,1,1,7,4,148,1755.3025698123965,1763.4039491827134,stimuli/282_xc.png,l,8.089354827301577,harmless,0.083,6.55,0.998728005,0.128935231
76,70,1,1,7,5,149,1763.9710282203741,1803.1480892316904,stimuli/186_xa.png,l,39.16553035238758,harmless,0.083,6.65,0.879618561,0.113558268
76,70,1,1,7,6,150,1803.7304077853914,1809.7880606856197,stimuli/188_xa.png,l,6.04609309672378,harmless,0.083,6.655172414,0.806807095,0.105938962
76,70,1,1,7,7,151,1810.3627768105362,1821.212061800994,stimuli/237_ya.png,a,10.83763184514828,ambig,0.083,4.305084746,2.019339575,0.26289562
76,70,1,1,7,8,152,1821.862042088993,1835.3240978836548,stimuli/226_yb.png,a,13.449425515020266,ambig,0.083,5.683333333,1.712285287,0.22105508
76,70,1,1,7,9,153,1835.9294970536139,1841.564151572995,stimuli/303_zb.png,a,5.622834776993841,awful,0.083,3.620689655,2.158846233,0.283470398
76,70,1,1,7,10,154,1842.1799270359334,1855.9962202503812,stimuli/137_xa.png,l,13.80468811839819,harmless,0.083,6.355932203,1.094858074,0.14253838
76,70,1,1,7,11,155,1856.5671491425019,1866.1081771696918,stimuli/296_yb.png,a,9.529027902754024,ambig,0.083,4.229508197,2.052587332,0.262806878
76,70,1,1,7,12,156,1866.7469139134046,1877.772196528269,stimuli/142_xa.png,l,11.013760226778686,harmless,0.083,6.4,1.076718178,0.139003719
76,70,1,1,7,13,157,1878.3344737831503,1881.9564468227327,stimuli/104_xc.png,l,3.609920927323401,harmless,0.083,6.745762712,0.756425814,0.098478253
76,70,1,1,7,14,158,1882.6125506439712,1888.9321882100776,stimuli/156_xc.png,l,6.307995448587462,harmless,0.083,6.590163934,0.955284411,0.122311635
76,70,1,1,7,15,159,1889.4998119380325,1899.6922227425966,stimuli/223_yb.png,a,10.180449276929721,ambig,0.083,5.542372881,1.77455224,0.231027024
76,70,1,1,7,16,160,1900.3935843110085,1905.6282336316071,stimuli/138_xc.png,l,5.221862289821729,harmless,0.083,6.661016949,0.70978796,0.092406522
76,70,1,1,7,17,161,1906.2819857925642,1919.252294454258,stimuli/203_yb.png,a,12.95843929448165,ambig,0.083,6,1.542501327,0.200816568
76,70,1,1,7,18,162,1919.813482328318,1933.0523552643135,stimuli/154_xc.png,a,13.22712014731951,harmless,0.083,6.5,0.965506805,0.124646393
76,70,1,1,7,19,163,1933.6760631999932,1943.132354649948,stimuli/157_xc.png,l,9.444481553742662,harmless,0.083,6.603448276,0.877389573,0.115206895
76,70,1,1,7,20,164,1943.7610297838692,1952.3643900079187,stimuli/180_xc.png,l,8.591033600270748,harmless,0.083,6.672131148,0.723908638,0.092687003
76,70,1,1,7,21,165,1952.9775519021787,1957.2843961361796,stimuli/123_xc.png,l,4.294404576299712,harmless,0.083,6.491525424,1.023396666,0.133234897
76,70,1,1,7,22,166,1957.8948905046564,1967.9084246633574,stimuli/248_zb.png,a,10.00138397840783,awful,0.083,3.288135593,1.991800844,0.259310383
76,70,1,1,7,23,167,1968.4933040102478,1972.0684084682725,stimuli/163_xa.png,l,3.5633504879660904,harmless,0.083,6.627118644,0.963082427,0.125382652
76,70,1,1,7,24,168,1972.7024060508702,1981.5084383690264,stimuli/258_ya.png,a,8.794185006292537,ambig,0.083,5.627118644,1.78014243,0.231754804
76,70,1,1,8,1,169,1991.338350419188,2007.0445177087095,stimuli/244_xb.png,a,15.693568911403418,harmless,0.0412,6.610169492,0.743174671,0.096753101
76,70,1,1,8,2,170,2007.6524075672496,2016.6284805738833,stimuli/174_xc.png,l,8.964385202853009,harmless,0.0412,6.533333333,1.111826512,0.143536185
76,70,1,1,8,3,171,2017.2437452173326,2022.7885120343417,stimuli/146_xa.png,l,5.532636329298839,harmless,0.0412,6.442622951,1.162247681,0.148810567
76,70,1,1,8,4,172,2023.410750526702,2028.5725294863805,stimuli/279_ya.png,a,5.1501065159682184,ambig,0.0412,5.31147541,1.970964092,0.252356093
76,70,1,1,8,5,173,2029.226169794565,2033.3325175449718,stimuli/182_xb.png,l,4.094777706777677,harmless,0.0412,6.542372881,0.988241802,0.128658124
76,70,1,1,8,6,174,2033.9669960148167,2037.9885201475117,stimuli/149_xa.png,l,4.009792611934245,harmless,0.0412,6.721311475,0.933294301,0.11949609
76,70,1,1,8,7,175,2038.5612067787442,2046.3725422471762,stimuli/219_ya.png,a,7.799573227530345,ambig,0.0412,5.271186441,1.998538332,0.260187529
76,70,1,1,8,8,176,2047.01640609093,2050.668592709815,stimuli/333_za.png,a,3.639901743037626,awful,0.0412,3.266666667,2.185209657,0.282109354
76,70,1,1,8,9,177,2051.236775306752,2055.1165720187128,stimuli/162_xa.png,l,3.8677256950177252,harmless,0.0412,6.644067797,0.905209289,0.117848212
76,70,1,1,8,10,178,2055.680441597011,2065.5726196772885,stimuli/103_xb.png,a,9.88041190081276,harmless,0.0412,6.779661017,0.589207434,0.076708274
76,70,1,1,8,11,179,2066.1370347337797,2078.6526249707676,stimuli/107_xa.png,l,12.503651552600786,harmless,0.0412,6.813559322,0.540580029,0.070377525
76,70,1,1,8,12,180,2079.234727696283,2081.220628760988,stimuli/113_xb.png,l,1.9727449992205948,harmless,0.0412,6.733333333,0.660422737,0.085260209
76,70,1,1,8,13,181,2081.788754644105,2087.444650120102,stimuli/234_xb.png,l,5.643870932981372,harmless,0.0412,6.637931034,0.788030542,0.103473479
76,70,1,1,8,14,182,2088.0133443244267,2096.7646964995656,stimuli/170_xc.png,a,8.739246105775237,harmless,0.0412,6.583333333,1.062323432,0.137145365
76,70,1,1,8,15,183,2097.3288886386435,2103.1647060306277,stimuli/335_yb.png,a,5.82383105205372,ambig,0.0412,5.016949153,2.046793332,0.266469795
76,70,1,1,8,16,184,2103.8343841829337,2109.076717852382,stimuli/336_ya.png,a,5.230524166952819,ambig,0.0412,5.033898305,1.884291705,0.245313885
76,70,1,1,8,17,185,2109.7266843556426,2115.628718851134,stimuli/273_ya.png,a,5.889751588692889,ambig,0.0412,5.551724138,1.836973233,0.241206403
76,70,1,1,8,18,186,2116.201544116717,2136.5727689454798,stimuli/140_xb.png,l,20.359189258189872,harmless,0.0412,6.724137931,0.790138861,0.103750315
76,70,1,1,8,19,187,2137.217243252322,2147.2047468805686,stimuli/190_xc.png,a,9.975418432848528,harmless,0.0412,6.517241379,1.046990328,0.137476565
76,70,1,1,8,20,188,2147.7716927977744,2156.0528479667846,stimuli/210_yb.png,l,8.269378749653697,ambig,0.0412,5.557377049,1.76564049,0.226067099
76,70,1,1,8,21,189,2156.681798793841,2163.604846208822,stimuli/124_xa.png,a,6.910845640813932,harmless,0.0412,6.344262295,1.181598436,0.151288177
76,70,1,1,8,22,190,2164.2254833192565,2170.2288148710504,stimuli/206_xa.png,l,5.991545679979026,harmless,0.0412,6.325842697,1.136094431,0.060212884
76,70,1,1,8,23,191,2170.7977115127724,2173.7011276234407,stimuli/304_ya.png,a,2.8915924297180027,ambig,0.0412,4.034482759,2.017167697,0.264867095
76,70,1,1,8,24,192,2174.265334334923,2178.2848608756904,stimuli/241_yb.png,a,4.007641813484952,ambig,0.0412,5.508474576,1.442852555,0.187843403
76,70,1,1,9,1,193,2191.152088354109,2199.68484204961,stimuli/277_yb.png,a,8.520981608424336,ambig,0.0412,5.491525424,2.02886822,0.264136144
76,70,1,1,9,2,194,2200.3189361249097,2210.124944418436,stimuli/263_ya.png,a,9.794162557227537,ambig,0.0412,4.983050847,2.071910042,0.269739712
76,70,1,1,9,3,195,2210.6998247776646,2214.6289453131612,stimuli/193_xc.png,l,3.9172216297592968,harmless,0.0412,6.482758621,1.012923151,0.133003326
76,70,1,1,9,4,196,2215.2920993897133,2222.7489847610705,stimuli/264_xa.png,l,7.444708803435788,harmless,0.0412,6.533333333,0.947193297,0.122282129
76,70,1,1,9,5,197,2223.3126223634463,2229.5169651568867,stimuli/121_xc.png,l,6.192389930598438,harmless,0.0412,6.508474576,1.006408455,0.131023221
76,70,1,1,9,6,198,2230.090248860186,2235.508950370131,stimuli/262_ya.png,a,5.406105101108551,ambig,0.0412,5.491525424,1.7750462,0.231091332
76,70,1,1,9,7,199,2236.0842938935384,2239.2609890208114,stimuli/131_xb.png,l,3.164733599871397,harmless,0.0412,6.525423729,1.119666394,0.145768149
76,70,1,1,9,8,200,2239.8317316232715,2255.965053167427,stimuli/290_zb.png,a,16.121451782993972,awful,0.0412,2.586206897,2.026443456,0.266085062
76,70,1,1,9,9,201,2256.5771174102556,2273.213147243252,stimuli/259_xc.png,a,16.623455479741096,harmless,0.0412,6.568965517,0.993170874,0.130409725
76,70,1,1,9,10,202,2273.7951428424567,2285.1011210067663,stimuli/278_xb.png,a,11.294258459005505,harmless,0.0412,6.360655738,1.140654591,0.146045855
76,70,1,1,9,11,203,2285.6911747157574,2293.66907635401,stimuli/342_yb.png,a,7.965825895080343,ambig,0.0412,4.916666667,2.085394461,0.269223267
76,70,1,1,9,12,204,2294.246616755845,2299.9331298982725,stimuli/183_xb.png,a,5.674486630130559,harmless,0.0412,6.448275862,1.095003225,0.143780967
76,70,1,1,9,13,205,2300.4944367140997,2308.165144776227,stimuli/323_yb.png,a,7.658652011305094,ambig,0.0412,4.603448276,1.955107169,0.256718148
76,70,1,1,9,14,206,2308.743378742598,2312.869135667337,stimuli/200_ya.png,a,4.114060850115493,ambig,0.0412,5.862068966,1.444266048,0.189641423
76,70,1,1,9,15,207,2313.4549051085487,2317.373134199064,stimuli/148_xc.png,l,3.9061891874298453,harmless,0.0412,6.491525424,1.135218061,0.147792803
76,70,1,1,9,16,208,2317.9655726517085,2322.5171735018957,stimuli/251_ya.png,a,4.538980416720733,ambig,0.0412,5.655172414,1.792300532,0.235340589
76,70,1,1,9,17,209,2323.082549151266,2329.2131700864993,stimuli/255_xb.png,l,6.118660589447245,harmless,0.0412,6.770491803,0.642740036,0.082294429
76,70,1,1,9,18,210,2329.7834794572555,2341.8292184856255,stimuli/130_xc.png,l,12.033852725755423,harmless,0.0412,6.644067797,0.960651931,0.125066229
76,70,1,1,9,19,211,2342.4018610059284,2360.8932607658207,stimuli/166_xa.png,l,18.479428386315703,harmless,0.0412,6.593220339,1.052397002,0.13701042
76,70,1,1,9,20,212,2361.458797498606,2368.9652910509612,stimuli/289_yb.png,a,7.494784480892122,ambig,0.0412,5.305084746,1.714584873,0.223219937
76,70,1,1,9,21,213,2369.62676458247,2376.8933017258532,stimuli/135_xa.png,a,7.254501572810113,harmless,0.0412,6.508474576,1.179901828,0.153610134
76,70,1,1,9,22,214,2377.4609490847215,2382.3013098959345,stimuli/102_xc.png,l,4.828290581936017,harmless,0.0412,6.66011236,0.937292468,0.049676401
76,70,1,1,9,23,215,2382.938939929474,2390.3493304799777,stimuli/177_xb.png,a,7.398004062240943,harmless,0.0412,6.482758621,1.063614811,0.139659467
76,70,1,1,9,24,216,2390.939453505911,2440.645489644492,stimuli/144_xa.png,l,49.69346178532578,harmless,0.0412,6.542372881,1.00553698,0.130909764
76,70,1,1,10,1,217,2452.3600659614895,2460.5574888631236,stimuli/126_xa.png,l,8.185745337745175,harmless,0.0412,6.6,0.977717855,0.126222832
76,70,1,1,10,2,218,2461.1378948956262,2466.381433343282,stimuli/227_xa.png,l,5.231589523144066,harmless,0.0412,6.180327869,1.05685377,0.135316259
76,70,1,1,10,3,219,2466.9678577519953,2472.3735193815082,stimuli/101_xa.png,a,5.393950588768348,harmless,0.0412,6.508522727,1.13475832,0.060482822
76,70,1,1,10,4,220,2473.019974738825,2483.7575757456943,stimuli/151_xa.png,l,10.72568949800916,harmless,0.0412,6.610169492,0.947172729,0.123311386
76,70,1,1,10,5,221,2484.3270800930914,2497.1575710983016,stimuli/133_xa.png,l,12.818304197164252,harmless,0.0412,6.568965517,1.186356193,0.1557762
76,70,1,1,10,6,222,2497.799015540164,2504.181626091944,stimuli/201_yb.png,l,6.370107878698036,ambig,0.0412,5.898305085,1.626238682,0.211718243
76,70,1,1,10,7,223,2504.7556781908497,2510.7175411975477,stimuli/265_yb.png,a,5.950341406278312,ambig,0.0412,5.627118644,1.856008928,0.241631781
76,70,1,1,10,8,224,2511.271541757509,2515.229601383675,stimuli/230_yb.png,a,3.9458511567208916,ambig,0.0412,4.98245614,1.875511626,0.248417583
76,70,1,1,10,9,225,2515.786978394026,2522.6775743907783,stimuli/115_xb.png,l,6.878440302796662,harmless,0.0412,6.440677966,1.021681954,0.133011661
76,70,1,1,10,10,226,2523.245306426892,2537.901641436154,stimuli/275_yb.png,a,14.644296681741253,ambig,0.0412,4.836065574,2.138382004,0.27379176
76,70,1,1,10,11,227,2538.5095978546888,2543.4536471611355,stimuli/120_xa.png,l,4.931975532555953,harmless,0.0412,6.440677966,1.054893138,0.137335389
76,70,1,1,10,12,228,2544.084448675392,2548.3336510367226,stimuli/309_ya.png,a,4.237381043378264,ambig,0.0412,4.706896552,1.946734744,0.255618795
76,70,1,1,10,13,229,2548.9032266703434,2560.061672502896,stimuli/169_xc.png,l,11.14657055749558,harmless,0.0412,6.603448276,0.916508538,0.120343467
76,70,1,1,10,14,230,2560.6382082009222,2565.8377216423396,stimuli/194_xb.png,l,5.187469206051901,harmless,0.0412,6.586206897,1.026567825,0.134794959
76,70,1,1,10,15,231,2566.4874152096454,2569.6456802664325,stimuli/178_xa.png,l,3.146151504246518,harmless,0.0412,6.483333333,1.112207557,0.143585378
76,70,1,1,10,16,232,2570.2025338541716,2584.181744246045,stimuli/184_xb.png,a,13.96715946123004,harmless,0.0412,6.508474576,1.194425,0.15550089
76,70,1,1,10,17,233,2584.849758394528,2596.493796712719,stimuli/132_xc.png,a,11.632492299191654,harmless,0.0412,6.627118644,0.692280217,0.090127208
76,70,1,1,10,18,234,2597.123772329651,2604.213793546194,stimuli/257_yb.png,a,7.0782093508169055,ambig,0.0412,5.620689655,1.843219782,0.242026615
76,70,1,1,10,19,235,2604.7738034238573,2607.949863669928,stimuli/112_xc.png,l,3.163804514799267,harmless,0.0412,6.706896552,0.749470472,0.098410294
76,70,1,1,10,20,236,2608.549825388007,2615.1658529131673,stimuli/246_ya.png,a,6.604502380127087,ambig,0.0412,5.542372881,1.715266481,0.223308675
76,70,1,1,10,21,237,2615.736781805288,2634.6458555283025,stimuli/167_xb.png,a,18.896859345724806,harmless,0.0412,6.590163934,0.955284411,0.122311635
76,70,1,1,10,22,238,2635.3057583977934,2640.6458685253747,stimuli/228_ya.png,a,5.326917434344068,ambig,0.0412,5.442622951,1.793735303,0.229664272
76,70,1,1,10,23,239,2641.2812351200264,2644.1498351553455,stimuli/106_xc.png,l,2.857164293527603,harmless,0.0412,6.661016949,0.863237081,0.112383896
76,70,1,1,10,24,240,2644.810518629616,2648.2218756806105,stimuli/360_za.png,a,3.3990264888852835,awful,0.0412,3.2,2.207844259,0.285031468
