id,age,condition,counterbalance,block,trialinblock,trial,tstart,tend,trialstim,response,RT,trialtype,ethicfreq,norm_mean,norm_sd,norm_se
127,20,1,2,0,0,practice,3.938330337405205e-06,15.144499534741044,stimuli/prac_217_1.png,l,15.124919507885352,harmless,NA,NA,NA,NA
127,20,1,2,1,1,1,4.205482564866543,134.2876525116153,stimuli/179_xb.png,a,130.07024154928513,harmless,0.333,6.704918033,0.882123617,0.112944356
127,20,1,2,1,2,2,134.86634696903639,171.13570929784328,stimuli/233_yb.png,a,36.25750285433605,ambig,0.333,5.318309859,1.922973646,0.102060844
127,20,1,2,1,3,3,171.7048797844909,181.80757144256495,stimuli/271_ya.png,a,10.09076365455985,ambig,0.333,5.711864407,1.771915459,0.230683744
127,20,1,2,1,4,4,182.42282933043316,190.79154311399907,stimuli/351_zb.png,a,8.35674797091633,awful,0.333,3.06779661,2.033040926,0.264679384
127,20,1,2,1,5,5,191.3617068787571,198.93549677892588,stimuli/178_xa.png,l,7.561835115076974,harmless,0.333,6.483333333,1.112207557,0.143585378
127,20,1,2,1,6,6,199.53942018840462,212.61545874900185,stimuli/309_ya.png,a,13.064090077066794,ambig,0.333,4.706896552,1.946734744,0.255618795
127,20,1,2,1,7,7,213.17558024264872,223.98343643546104,stimuli/322_za.png,a,10.796246416633949,awful,0.333,2.406779661,1.975004531,0.257123689
127,20,1,2,1,8,8,224.66565198940225,233.3114388079848,stimuli/258_ya.png,a,8.633318065432832,ambig,0.333,5.627118644,1.78014243,0.231754804
127,20,1,2,1,9,9,233.9119424575474,242.951376627665,stimuli/267_ya.png,a,9.027593994280323,ambig,0.333,5.103448276,1.898195405,0.249245267
127,20,1,2,1,10,10,243.55235131643713,245.27141386969015,stimuli/175_xb.png,a,1.7080155820585787,harmless,0.333,6.6,1.028409995,0.13276716
127,20,1,2,1,11,11,245.8479914078489,274.7114538527094,stimuli/268_zb.png,a,28.851913320831954,awful,0.333,2.655737705,2.048456703,0.262278005
127,20,1,2,1,12,12,275.29476260370575,282.99132909835316,stimuli/304_ya.png,a,7.684626281959936,ambig,0.333,4.034482759,2.017167697,0.264867095
127,20,1,2,1,13,13,283.5563279739581,294.44734345329925,stimuli/185_xa.png,l,10.878797211917117,harmless,0.333,6.5,0.965506805,0.124646393
127,20,1,2,1,14,14,295.00681864633225,303.7032843164634,stimuli/347_zb.png,a,8.684195808833465,awful,0.333,3.796610169,2.147810923,0.279621165
127,20,1,2,1,15,15,304.4644804566633,312.70329376892187,stimuli/104_xc.png,l,8.227107043843716,harmless,0.333,6.745762712,0.756425814,0.098478253
127,20,1,2,1,16,16,313.2754882008303,323.4552810145542,stimuli/148_xc.png,l,10.167600146029145,harmless,0.333,6.491525424,1.135218061,0.147792803
127,20,1,2,1,17,17,324.04249553079717,332.93534081592225,stimuli/334_za.png,a,8.880823152605444,awful,0.333,3.333333333,2.214487481,0.285889104
127,20,1,2,1,18,18,333.5586071575526,342.9192325368058,stimuli/269_za.png,a,9.348784809466451,awful,0.333,3.457627119,2.119873401,0.27598401
127,20,1,2,1,19,19,343.4828226272948,365.23936548340134,stimuli/165_xb.png,a,21.744185167364776,harmless,0.333,6.557377049,1.008705278,0.129151477
127,20,1,2,1,20,20,365.7973220082931,371.38325140671805,stimuli/317_za.png,a,5.573625666322187,awful,0.333,3.65,2.03215674,0.262350307
127,20,1,2,1,21,21,372.0552655758802,377.671162674902,stimuli/237_ya.png,a,5.603947434108704,ambig,0.333,4.305084746,2.019339575,0.26289562
127,20,1,2,1,22,22,378.58879226096906,384.2551283601206,stimuli/216_xa.png,l,5.654017007211223,harmless,0.333,6.603448276,0.877389573,0.115206895
127,20,1,2,1,23,23,384.8663166430779,391.1831999705173,stimuli/303_zb.png,a,6.304577232338488,awful,0.333,3.620689655,2.158846233,0.283470398
127,20,1,2,1,24,24,391.8017504066229,412.4951862238813,stimuli/339_ya.png,a,20.681604305980727,ambig,0.333,4.949152542,1.960152429,0.25519011
127,20,1,2,2,1,25,421.5995489680208,427.7112588994205,stimuli/241_yb.png,a,6.098692157538608,ambig,0.333,5.508474576,1.442852555,0.187843403
127,20,1,2,2,2,26,428.2735788379796,437.215062067844,stimuli/358_za.png,a,8.929146020906046,awful,0.333,3.949152542,2.112554662,0.275031191
127,20,1,2,2,3,27,437.79312282800674,449.183091663057,stimuli/194_xb.png,l,11.378064462216571,harmless,0.333,6.586206897,1.026567825,0.134794959
127,20,1,2,2,4,28,449.7651999730151,455.647074299166,stimuli/243_ya.png,a,5.87040239572525,ambig,0.333,5.830508475,1.652088985,0.215083666
127,20,1,2,2,5,29,456.24890796490945,464.8710219145287,stimuli/220_yb.png,a,8.610340333543718,ambig,0.333,4.75,2.096203186,0.270618668
127,20,1,2,2,6,30,465.47191586508416,471.8870073140133,stimuli/316_za.png,a,6.40348679269664,awful,0.333,2.344827586,1.802062407,0.236622386
127,20,1,2,2,7,31,472.459438447142,482.37501688604243,stimuli/357_za.png,a,9.903672884684056,awful,0.333,2.793103448,2.066937905,0.271402243
127,20,1,2,2,8,32,482.9417699491605,494.8630071596708,stimuli/198_yb.png,a,11.90947422827594,ambig,0.333,5.101694915,1.83542643,0.238952168
127,20,1,2,2,9,33,495.495060587069,504.0230068759993,stimuli/162_xa.png,l,8.516343995695934,harmless,0.333,6.644067797,0.905209289,0.117848212
127,20,1,2,2,10,34,504.6302976643201,511.96689335093834,stimuli/168_xa.png,l,7.324088730383664,harmless,0.333,6.474576271,1.164946827,0.151663159
127,20,1,2,2,11,35,512.5336330232676,523.0069505844731,stimuli/280_xb.png,l,10.461735747754574,harmless,0.333,6.333333333,1.068289726,0.137915611
127,20,1,2,2,12,36,523.5740892223548,533.5748568272684,stimuli/123_xc.png,l,9.98884511529468,harmless,0.333,6.491525424,1.023396666,0.133234897
127,20,1,2,2,13,37,534.1742494388018,546.6228992773686,stimuli/360_za.png,l,12.43719287426211,awful,0.333,3.2,2.207844259,0.285031468
127,20,1,2,2,14,38,547.2227357528172,547.3028025648091,stimuli/348_za.png,l,0.06834636512212455,awful,0.333,3.084745763,2.119597681,0.275948114
127,20,1,2,2,15,39,547.9599864832126,554.3508398949634,stimuli/323_yb.png,a,6.379104214254767,ambig,0.333,4.603448276,1.955107169,0.256718148
127,20,1,2,2,16,40,554.9665857576765,573.5348984487355,stimuli/313_zb.png,a,18.55640398617834,awful,0.333,2.101694915,1.688652955,0.219843889
127,20,1,2,2,17,41,574.1463454882614,581.8707946657669,stimuli/312_yb.png,a,7.71291777654551,ambig,0.333,4.677966102,2.112692986,0.275049199
127,20,1,2,2,18,42,582.422351202229,590.486786681693,stimuli/310_zb.png,a,8.052448399364948,awful,0.333,3.224137931,2.102989547,0.276136056
127,20,1,2,2,19,43,591.1059751473367,600.486785894027,stimuli/202_yb.png,a,9.36918561020866,ambig,0.333,5.431034483,1.892849601,0.248543329
127,20,1,2,2,20,44,601.066771376878,610.3107921136543,stimuli/114_xc.png,l,9.232321557356045,harmless,0.333,6.644067797,0.97843492,0.127381377
127,20,1,2,2,21,45,610.9178284779191,618.7507348170038,stimuli/261_yb.png,a,7.82119849533774,ambig,0.333,5.706896552,1.901141123,0.249632059
127,20,1,2,2,22,46,619.3665464518126,627.862697990844,stimuli/174_xc.png,l,8.484399978304282,harmless,0.333,6.533333333,1.111826512,0.143536185
127,20,1,2,2,23,47,628.4946939169895,638.966688945191,stimuli/244_xb.png,l,10.46024228585884,harmless,0.333,6.610169492,0.743174671,0.096753101
127,20,1,2,2,24,48,639.6127715415787,646.9267219020985,stimuli/337_zb.png,a,7.302038110792637,awful,0.333,3.033333333,2.20143764,0.284204377
127,20,1,2,3,1,49,656.2057452597655,667.2466504427139,stimuli/163_xa.png,l,11.029201671248302,harmless,0.333,6.627118644,0.963082427,0.125382652
127,20,1,2,3,2,50,667.8713763754349,681.742622388294,stimuli/281_ya.png,l,13.859386144438758,ambig,0.333,5.881355932,1.543448286,0.200939852
127,20,1,2,3,3,51,682.3299125228077,694.7266224166378,stimuli/300_za.png,a,12.384762985631824,awful,0.333,3.75,2.12032137,0.273732312
127,20,1,2,3,4,52,695.3080178662203,703.422586721601,stimuli/289_yb.png,a,8.102731830207631,ambig,0.333,5.305084746,1.714584873,0.223219937
127,20,1,2,3,5,53,704.0316978637129,715.0705396903213,stimuli/131_xb.png,l,11.027050487464294,harmless,0.333,6.525423729,1.119666394,0.145768149
127,20,1,2,3,6,54,715.6665538954549,727.7425763083156,stimuli/320_za.png,a,12.064350408967584,awful,0.333,1.423728814,1.117314975,0.14546202
127,20,1,2,3,7,55,728.3310397085734,746.094567019958,stimuli/124_xa.png,l,17.75108297658153,harmless,0.333,6.344262295,1.181598436,0.151288177
127,20,1,2,3,8,56,746.6997215906158,755.3664550797548,stimuli/230_yb.png,a,8.65499216853641,ambig,0.333,4.98245614,1.875511626,0.248417583
127,20,1,2,3,9,57,755.9650249481201,767.8944958914071,stimuli/119_xc.png,l,11.917726471787319,harmless,0.333,6.694915254,0.914523379,0.119060803
127,20,1,2,3,10,58,768.485456665745,778.918464144459,stimuli/361_za.png,a,10.421085776761174,awful,0.333,2.416666667,1.907093508,0.246204713
127,20,1,2,3,11,59,779.5459052477963,798.0944094818551,stimuli/186_xa.png,a,18.53681687009521,harmless,0.333,6.65,0.879618561,0.113558268
127,20,1,2,3,12,60,798.6547334117349,806.3344027549028,stimuli/325_yb.png,a,7.66768698906526,ambig,0.333,5.131147541,1.811770863,0.231973488
127,20,1,2,3,13,61,806.9430274977349,817.5423665463459,stimuli/193_xc.png,l,10.587721789255738,harmless,0.333,6.482758621,1.012923151,0.133003326
127,20,1,2,3,14,62,818.120131134754,831.0943480418064,stimuli/245_yb.png,l,12.962643364677206,ambig,0.333,4.949152542,2.096168334,0.272897873
127,20,1,2,3,15,63,831.7058521888684,840.0623142279219,stimuli/211_zb.png,a,8.345026342431083,awful,0.333,3.983333333,2.127237938,0.274625237
127,20,1,2,3,16,64,840.6743831492495,849.206320668105,stimuli/305_zb.png,a,8.520061896881089,awful,0.333,2.75,2.12830003,0.274762352
127,20,1,2,3,17,65,849.7755360531155,861.9343550207559,stimuli/229_za.png,a,12.14681180124171,awful,0.333,3.406779661,2.043649913,0.266060557
127,20,1,2,3,18,66,862.5050567786675,867.9902625647373,stimuli/277_yb.png,a,5.473180896602571,ambig,0.333,5.491525424,2.02886822,0.264136144
127,20,1,2,3,19,67,868.614387095673,876.1982645592652,stimuli/256_zb.png,a,7.571950641693547,awful,0.333,3.051724138,2.012438634,0.264246138
127,20,1,2,3,20,68,876.8342580166645,886.0462410009932,stimuli/149_xa.png,l,9.200265688123181,harmless,0.333,6.721311475,0.933294301,0.11949609
127,20,1,2,3,21,69,886.6268377320375,895.8942387104034,stimuli/200_ya.png,a,9.255476913414896,ambig,0.333,5.862068966,1.444266048,0.189641423
127,20,1,2,3,22,70,896.5055282115936,906.1022556710523,stimuli/203_yb.png,l,9.584963689558208,ambig,0.333,6,1.542501327,0.200816568
127,20,1,2,3,23,71,906.7416858237702,916.5822111035232,stimuli/326_zb.png,a,9.828742211218923,awful,0.333,3.389830508,2.220724867,0.289113752
127,20,1,2,3,24,72,917.2413607044145,936.5101578650065,stimuli/214_xb.png,l,19.257270091678947,harmless,0.333,6.465517241,0.940614156,0.12350869
127,20,1,2,4,1,73,945.3711067882832,952.9101095006336,stimuli/311_za.png,a,7.527198770083487,awful,0.333,3.116666667,1.975199339,0.254997138
127,20,1,2,4,2,74,953.5355207247194,962.5981602689717,stimuli/235_ya.png,a,9.05050319666043,ambig,0.333,5.694915254,1.567495667,0.204070554
127,20,1,2,4,3,75,963.1528262151405,974.1661200746894,stimuli/161_xc.png,l,11.00168447708711,harmless,0.333,6.796610169,0.609682252,0.079373868
127,20,1,2,4,4,76,974.8093669838272,986.6780746628065,stimuli/366_za.png,a,11.856966358143836,awful,0.333,3.689655172,2.036568291,0.267414518
127,20,1,2,4,5,77,987.3112056513783,998.1340795652941,stimuli/327_zb.png,a,10.811054611811414,awful,0.333,2.502808989,1.906990248,0.101070281
127,20,1,2,4,6,78,998.7756002498791,1009.7660506791435,stimuli/225_ya.png,a,10.978434598306194,ambig,0.333,5.85,1.792876677,0.231459384
127,20,1,2,4,7,79,1010.3912984570488,1024.1899808077142,stimuli/112_xc.png,l,13.786373104667291,harmless,0.333,6.706896552,0.749470472,0.098410294
127,20,1,2,4,8,80,1024.7571288980544,1055.333975038724,stimuli/210_yb.png,a,30.564953977242112,ambig,0.333,5.557377049,1.76564049,0.226067099
127,20,1,2,4,9,81,1055.9467615466565,1063.5259593385272,stimuli/255_xb.png,l,7.567136274883524,harmless,0.333,6.770491803,0.642740036,0.082294429
127,20,1,2,4,10,82,1064.1540699792095,1086.0859106907155,stimuli/227_xa.png,a,21.920236055273563,harmless,0.333,6.180327869,1.05685377,0.135316259
127,20,1,2,4,11,83,1086.7046214218717,1094.8058542762883,stimuli/291_za.png,a,8.089544702786952,awful,0.333,2.593220339,1.830005126,0.238246374
127,20,1,2,4,12,84,1095.3676106221974,1116.4538946785033,stimuli/349_za.png,a,21.07438204670325,awful,0.333,3.288135593,2.101320172,0.273568585
127,20,1,2,4,13,85,1117.0907912235707,1145.2298434816767,stimuli/153_xb.png,l,28.126808784436435,harmless,0.333,6.633333333,0.973664521,0.125699549
127,20,1,2,4,14,86,1145.839574142592,1155.6857676459476,stimuli/367_zb.png,a,9.834460453363135,awful,0.333,3.413793103,2.086165649,0.27392697
127,20,1,2,4,15,87,1156.3110138487536,1165.3817729109433,stimuli/139_xa.png,l,9.058920461684465,harmless,0.333,6.724137931,0.790138861,0.103750315
127,20,1,2,4,16,88,1166.0103274155408,1178.061724247411,stimuli/160_xb.png,l,12.039684655843303,harmless,0.333,6.666666667,0.680644427,0.087870818
127,20,1,2,4,17,89,1178.710429067025,1193.0058363957796,stimuli/234_xb.png,l,14.283448211615905,harmless,0.333,6.637931034,0.788030542,0.103473479
127,20,1,2,4,18,90,1193.5640091418754,1202.2216680378187,stimuli/296_yb.png,a,8.646083384286612,ambig,0.333,4.229508197,2.052587332,0.262806878
127,20,1,2,4,19,91,1202.8456594487652,1215.269680555677,stimuli/306_zb.png,a,12.41151060606353,awful,0.333,2.352112676,1.917055413,0.101746737
127,20,1,2,4,20,92,1215.882043285761,1223.1416642412078,stimuli/299_za.png,a,7.247764631640166,awful,0.333,1.288135593,0.929420425,0.121000233
127,20,1,2,4,21,93,1223.7917002583854,1244.101669235155,stimuli/189_yb.png,a,20.29646244086325,ambig,0.333,5.983333333,1.455459234,0.187898979
127,20,1,2,4,22,94,1244.7178617184982,1251.7256043262314,stimuli/251_ya.png,a,6.995886284159496,ambig,0.333,5.655172414,1.792300532,0.235340589
127,20,1,2,4,23,95,1252.3094494945835,1258.2776141786017,stimuli/260_ya.png,a,5.956475351005793,ambig,0.333,4.966101695,2.016877936,0.262575142
127,20,1,2,4,24,96,1258.884850616334,1268.3815815020353,stimuli/246_ya.png,a,9.484502772102132,ambig,0.333,5.542372881,1.715266481,0.223308675
127,20,1,2,5,1,97,1294.517117901938,1302.7015210704412,stimuli/136_xc.png,l,8.17257835273631,harmless,0.25,6.559322034,1.038420326,0.135190811
127,20,1,2,5,2,98,1303.3197477655485,1309.6855155848898,stimuli/318_za.png,a,6.3544140425510705,awful,0.25,3.06557377,2.197489875,0.281359747
127,20,1,2,5,3,99,1310.3102080407552,1324.5494581277017,stimuli/125_xc.png,l,14.227564298314974,harmless,0.25,6.683333333,0.999858747,0.129081209
127,20,1,2,5,4,100,1325.1261514562648,1333.3334677657112,stimuli/253_ya.png,a,8.195349315181375,ambig,0.25,5.491803279,1.849531029,0.236808182
127,20,1,2,5,5,101,1333.9514553966,1342.901477196021,stimuli/371_zb.png,a,8.938287961762398,awful,0.25,3.131147541,2.085468851,0.267016925
127,20,1,2,5,6,102,1343.504999277182,1354.349413386779,stimuli/350_ya.png,a,10.832696419674903,ambig,0.25,4.915254237,2.02814792,0.264042369
127,20,1,2,5,7,103,1354.9214045945555,1364.0614501310047,stimuli/270_yb.png,a,9.12810886837542,ambig,0.25,5.534482759,1.912246013,0.251090203
127,20,1,2,5,8,104,1364.6825522917788,1377.0214141649194,stimuli/343_zb.png,a,12.327128429431468,awful,0.25,3.103448276,2.141401862,0.28117984
127,20,1,2,5,9,105,1377.618100270629,1385.3976484274026,stimuli/195_xc.png,l,7.767255058512092,harmless,0.25,6.637640449,1.001766915,0.05309354
127,20,1,2,5,10,106,1385.981571183307,1393.0373735704925,stimuli/180_xc.png,l,7.0440153803210706,harmless,0.25,6.672131148,0.723908638,0.092687003
127,20,1,2,5,11,107,1393.5971851076465,1405.6133611281402,stimuli/116_xa.png,a,12.004280312452465,harmless,0.25,6.63559322,0.958030802,0.050918763
127,20,1,2,5,12,108,1406.1858682734892,1422.0773547920398,stimuli/363_zb.png,a,15.879882256034762,awful,0.25,2.433333333,2.019956927,0.260775318
127,20,1,2,5,13,109,1422.717540340498,1432.1413507401012,stimuli/236_yb.png,a,9.41192532540299,ambig,0.25,5.93442623,1.49297078,0.19115532
127,20,1,2,5,14,110,1432.7483079412486,1439.7974279527552,stimuli/331_za.png,a,7.037317250855267,awful,0.25,1.983606557,1.638004917,0.209725039
127,20,1,2,5,15,111,1440.3646051874384,1466.8052623264957,stimuli/101_xa.png,l,26.428875646088272,harmless,0.25,6.508522727,1.13475832,0.060482822
127,20,1,2,5,16,112,1467.4177254871465,1482.9652766152285,stimuli/285_yb.png,a,15.535827924264595,ambig,0.25,4.120689655,2.119893958,0.278355714
127,20,1,2,5,17,113,1483.564740512753,1489.3733005074318,stimuli/345_zb.png,a,5.796773775480688,awful,0.25,3.694915254,2.191317013,0.285285176
127,20,1,2,5,18,114,1489.989511107793,1500.1812177463435,stimuli/152_xa.png,l,10.180383975617588,harmless,0.25,6.576271186,0.968528743,0.126091702
127,20,1,2,5,19,115,1500.8260443697218,1519.397144305287,stimuli/239_ya.png,a,18.55902620917186,ambig,0.25,5.157894737,1.925296579,0.255011762
127,20,1,2,5,20,116,1519.978350315243,1550.5811095177196,stimuli/110_xa.png,l,30.59102930338122,harmless,0.25,6.428571429,1.059281795,0.141552484
127,20,1,2,5,21,117,1551.1872983262874,1564.1891234063078,stimuli/279_ya.png,a,12.990498478524387,ambig,0.25,5.31147541,1.970964092,0.252356093
127,20,1,2,5,22,118,1564.8600812817458,1573.7330791191198,stimuli/146_xa.png,a,8.861009969376028,harmless,0.25,6.442622951,1.162247681,0.148810567
127,20,1,2,5,23,119,1574.3803783042822,1586.7089950756636,stimuli/109_xb.png,l,12.316428829915822,harmless,0.25,6.644067797,0.97843492,0.127381377
127,20,1,2,5,24,120,1587.3298628984485,1602.4609413614962,stimuli/284_ya.png,a,15.11937495158054,ambig,0.25,5.948275862,1.431750417,0.18799804
127,20,1,2,6,1,121,1614.3920172250364,1624.7249580258504,stimuli/167_xb.png,l,10.321171910734847,harmless,0.166,6.590163934,0.955284411,0.122311635
127,20,1,2,6,2,122,1625.276338513242,1632.7009366038255,stimuli/288_yb.png,a,7.412579896626994,ambig,0.166,5.189655172,1.914459262,0.251380817
127,20,1,2,6,3,123,1633.3386247782037,1646.556893142173,stimuli/265_yb.png,l,13.20608475478366,ambig,0.166,5.627118644,1.856008928,0.241631781
127,20,1,2,6,4,124,1647.1590781179257,1658.1249230522662,stimuli/342_yb.png,a,10.954060684423894,ambig,0.166,4.916666667,2.085394461,0.269223267
127,20,1,2,6,5,125,1658.7595731029287,1669.7728653871454,stimuli/207_yb.png,a,11.001508428249508,ambig,0.166,5.655737705,1.662179753,0.212820309
127,20,1,2,6,6,126,1670.3827346814796,1682.252831059508,stimuli/132_xc.png,l,11.858187672914937,harmless,0.166,6.627118644,0.692280217,0.090127208
127,20,1,2,6,7,127,1682.835327307228,1692.2208370238077,stimuli/329_zb.png,a,9.373683719197288,awful,0.166,2.406779661,1.992387617,0.259386774
127,20,1,2,6,8,128,1692.817271462176,1716.8928216544446,stimuli/133_xa.png,l,24.06393687124364,harmless,0.166,6.568965517,1.186356193,0.1557762
127,20,1,2,6,9,129,1717.4850005926564,1727.5887323964853,stimuli/222_ya.png,a,10.092266568914056,ambig,0.166,5.931034483,1.543089507,0.202617579
127,20,1,2,6,10,130,1728.1907940986566,1740.380748912692,stimuli/231_xb.png,a,12.178436803631485,harmless,0.166,6.62295082,1.05141071,0.134619347
127,20,1,2,6,11,131,1740.9964227015153,1762.4048077501357,stimuli/157_xc.png,a,21.396711075445637,harmless,0.166,6.603448276,0.877389573,0.115206895
127,20,1,2,6,12,132,1763.0392372473143,1794.4366848135833,stimuli/144_xa.png,l,31.3852044865489,harmless,0.166,6.542372881,1.00553698,0.130909764
127,20,1,2,6,13,133,1795.059934219811,1801.6525952247903,stimuli/254_ya.png,a,6.580890145851299,ambig,0.166,5.983606557,1.627798137,0.208418195
127,20,1,2,6,14,134,1802.273219651077,1807.6367772098165,stimuli/156_xc.png,l,5.351932816207409,harmless,0.166,6.590163934,0.955284411,0.122311635
127,20,1,2,6,15,135,1808.2457536566071,1815.6605828045867,stimuli/122_xa.png,l,7.403057894902304,harmless,0.166,6.457627119,1.039264227,0.135300678
127,20,1,2,6,16,136,1816.266468746122,1825.7165714807343,stimuli/362_zb.png,a,9.438296035630628,awful,0.166,1.474576271,1.222715071,0.159183944
127,20,1,2,6,17,137,1826.3451578866225,1837.1646293697413,stimuli/353_zb.png,a,10.808084623189643,awful,0.166,1.949152542,1.623361018,0.211343603
127,20,1,2,6,18,138,1837.7907558169682,1867.2685498255305,stimuli/228_ya.png,a,29.466164540033787,ambig,0.166,5.442622951,1.793735303,0.229664272
127,20,1,2,6,19,139,1867.8695197880734,1883.1565141840838,stimuli/171_xa.png,l,15.275434638140723,harmless,0.166,6.465517241,1.046556882,0.137419651
127,20,1,2,6,20,140,1883.7714514818508,1891.7804658166133,stimuli/120_xa.png,l,7.997219057288021,harmless,0.166,6.440677966,1.054893138,0.137335389
127,20,1,2,6,21,141,1892.4259596141055,1925.0124490607996,stimuli/158_xa.png,l,32.57474930747412,harmless,0.166,6.786885246,0.661179605,0.084655374
127,20,1,2,6,22,142,1925.612170533277,1943.3083656318486,stimuli/278_xb.png,a,17.68445141473785,harmless,0.166,6.360655738,1.140654591,0.146045855
127,20,1,2,6,23,143,1943.8768736703787,1954.0604056527372,stimuli/330_ya.png,a,10.172185294795781,ambig,0.166,4.796610169,2.049219036,0.266785595
127,20,1,2,6,24,144,1954.6465370939113,1960.3723462200724,stimuli/354_zb.png,a,5.714098131516948,awful,0.166,2,1.701925887,0.221571878
127,20,1,2,7,1,145,1968.7990541406907,1977.1642859363928,stimuli/126_xa.png,l,8.35346605652012,harmless,0.083,6.6,0.977717855,0.126222832
127,20,1,2,7,2,146,1977.792762853438,2003.1242846287787,stimuli/250_yb.png,a,25.319693808676675,ambig,0.083,5.950819672,1.585625318,0.203018519
127,20,1,2,7,3,147,2003.6892382123042,2009.2683639305178,stimuli/128_xc.png,l,5.567204410210252,harmless,0.083,6.627118644,0.98082135,0.127692063
127,20,1,2,7,4,148,2009.9029403319582,2020.748261073837,stimuli/140_xb.png,l,10.833573513431475,harmless,0.083,6.724137931,0.790138861,0.103750315
127,20,1,2,7,5,149,2021.3846365611535,2040.5161868513096,stimuli/259_xc.png,l,19.119753437116742,harmless,0.083,6.568965517,0.993170874,0.130409725
127,20,1,2,7,6,150,2041.1081192421261,2049.308173041325,stimuli/212_ya.png,a,8.188469229033217,ambig,0.083,5.677966102,1.490668422,0.194068498
127,20,1,2,7,7,151,2049.9449163805693,2058.716202053707,stimuli/218_yb.png,a,8.759833435062319,ambig,0.083,5.850282486,1.552723069,0.0825263
127,20,1,2,7,8,152,2059.2800280575175,2067.444116283441,stimuli/276_ya.png,a,8.152149982517585,ambig,0.083,5.186440678,1.804922162,0.234980851
127,20,1,2,7,9,153,2068.090538374847,2078.7561553120613,stimuli/196_xb.png,l,10.653803149005398,harmless,0.083,6.594366197,0.982313556,0.05213579
127,20,1,2,7,10,154,2079.362934101373,2085.7241309504025,stimuli/373_zb.png,a,6.349538629874587,awful,0.083,2.327586207,1.858011869,0.243968911
127,20,1,2,7,11,155,2086.283478931291,2093.884119639173,stimuli/315_yb.png,a,7.588724913541228,ambig,0.083,5.050847458,1.915667965,0.249398726
127,20,1,2,7,12,156,2094.5250657030847,2108.2840834842063,stimuli/183_xb.png,l,13.747118134517223,harmless,0.083,6.448275862,1.095003225,0.143780967
127,20,1,2,7,13,157,2108.888848935254,2137.1560644125566,stimuli/166_xa.png,l,28.255489516537637,harmless,0.083,6.593220339,1.052397002,0.13701042
127,20,1,2,7,14,158,2137.787707453128,2144.7159862262197,stimuli/159_xa.png,l,6.916592590743676,harmless,0.083,6.389830508,1.174689235,0.152931512
127,20,1,2,7,15,159,2145.346124383388,2158.9160920132417,stimuli/173_yb.png,a,13.557427196763456,ambig,0.083,5.796610169,1.242628763,0.161776485
127,20,1,2,7,16,160,2159.527823802782,2172.259981323732,stimuli/182_xb.png,l,12.720374452415854,harmless,0.083,6.542372881,0.988241802,0.128658124
127,20,1,2,7,17,161,2172.9205271068495,2180.66801545606,stimuli/224_yb.png,a,7.7355248995590955,ambig,0.083,5.881355932,1.609077116,0.209483997
127,20,1,2,7,18,162,2181.317099942593,2192.9079665876925,stimuli/248_zb.png,a,11.578969755442813,awful,0.083,3.288135593,1.991800844,0.259310383
127,20,1,2,7,19,163,2193.514490558766,2207.267918884987,stimuli/130_xc.png,a,13.741504654986784,harmless,0.083,6.644067797,0.960651931,0.125066229
127,20,1,2,7,20,164,2207.8776877489872,2219.171889516758,stimuli/145_xa.png,a,11.282477776287124,harmless,0.083,6.661016949,0.822321556,0.107057148
127,20,1,2,7,21,165,2219.7917798149865,2232.0438925004564,stimuli/106_xc.png,l,12.240148448152468,harmless,0.083,6.661016949,0.863237081,0.112383896
127,20,1,2,7,22,166,2232.666737821186,2241.25987537927,stimuli/155_xb.png,l,8.581471067853272,harmless,0.083,6.655737705,0.892286312,0.114245555
127,20,1,2,7,23,167,2241.865407647565,2266.2118538029026,stimuli/336_ya.png,a,24.33426805981435,ambig,0.083,5.033898305,1.884291705,0.245313885
127,20,1,2,7,24,168,2266.8087644004263,2277.851793197915,stimuli/143_xb.png,a,11.03090938529931,harmless,0.083,6.655172414,0.738697862,0.096995781
127,20,1,2,8,1,169,2286.602156618843,2297.443746856414,stimuli/221_xb.png,l,10.829824892338365,harmless,0.0412,6.440677966,1.133672495,0.147591588
127,20,1,2,8,2,170,2298.106343786698,2302.0437546547037,stimuli/107_xa.png,l,3.9254738059826195,harmless,0.0412,6.813559322,0.540580029,0.070377525
127,20,1,2,8,3,171,2302.7030354063027,2328.947744584875,stimuli/172_xb.png,l,26.232865458121523,harmless,0.0412,6.482758621,1.127664553,0.14806961
127,20,1,2,8,4,172,2329.5889478300232,2334.7156829652376,stimuli/121_xc.png,l,5.1151005467399955,harmless,0.0412,6.508474576,1.006408455,0.131023221
127,20,1,2,8,5,173,2335.339002476074,2355.339655471733,stimuli/272_xb.png,l,19.989040068583563,harmless,0.0412,6.355932203,1.029943284,0.134087194
127,20,1,2,8,6,174,2355.9402103212196,2360.6276214844547,stimuli/115_xb.png,l,4.675775393145159,harmless,0.0412,6.440677966,1.021681954,0.133011661
127,20,1,2,8,7,175,2361.220148975961,2368.1156369640958,stimuli/240_xa.png,l,6.883697830606252,harmless,0.0412,6.482758621,1.096107616,0.143925981
127,20,1,2,8,8,176,2368.69106132281,2383.867701403564,stimuli/204_xb.png,l,15.164884187746793,harmless,0.0412,6.508474576,0.858484658,0.111765183
127,20,1,2,8,9,177,2384.51071673166,2390.8115760630462,stimuli/205_yb.png,a,6.288656817516312,ambig,0.0412,5.847457627,1.52918233,0.199082582
127,20,1,2,8,10,178,2391.4363728880417,2411.4275554760825,stimuli/273_ya.png,a,19.980098595377058,ambig,0.0412,5.551724138,1.836973233,0.241206403
127,20,1,2,8,11,179,2412.0592288426124,2416.2035054606386,stimuli/297_za.png,a,4.132326953113079,awful,0.0412,1.898305085,1.446695584,0.188343723
127,20,1,2,8,12,180,2416.8178137873765,2425.051504745614,stimuli/274_xb.png,l,8.222139864927158,harmless,0.0412,6.491525424,1.179901828,0.153610134
127,20,1,2,8,13,181,2425.674461524468,2434.851537198294,stimuli/335_yb.png,a,9.165652974043041,ambig,0.0412,5.016949153,2.046793332,0.266469795
127,20,1,2,8,14,182,2435.420723832678,2443.5794872683473,stimuli/164_xb.png,l,8.146793684456497,harmless,0.0412,6.830508475,0.460604639,0.059965616
127,20,1,2,8,15,183,2444.2097766620573,2451.291462966474,stimuli/105_xa.png,l,7.0699855498969555,harmless,0.0412,6.557377049,1.088187946,0.139328189
127,20,1,2,8,16,184,2451.8782111695036,2467.6434777025133,stimuli/127_xb.png,l,15.753500793827698,harmless,0.0412,6.423728814,1.162686987,0.151368953
127,20,1,2,8,17,185,2468.2183908496518,2483.651453466853,stimuli/129_xa.png,l,15.421348077943549,harmless,0.0412,6.770491803,0.642740036,0.082294429
127,20,1,2,8,18,186,2484.265607012203,2500.827367296675,stimuli/187_xc.png,a,16.54987127170898,harmless,0.0412,6.224137931,1.185335891,0.155642228
127,20,1,2,8,19,187,2501.399871291127,2506.8353891407605,stimuli/263_ya.png,a,5.423889562487602,ambig,0.0412,4.983050847,2.071910042,0.269739712
127,20,1,2,8,20,188,2507.4567689625546,2517.0753446049057,stimuli/257_yb.png,l,9.60710607492365,ambig,0.0412,5.620689655,1.843219782,0.242026615
127,20,1,2,8,21,189,2517.6937591640744,2523.923324197298,stimuli/262_ya.png,l,6.218467649770901,ambig,0.0412,5.491525424,1.7750462,0.231091332
127,20,1,2,8,22,190,2524.5473120636307,2530.611344245728,stimuli/209_ya.png,a,6.052012806292623,ambig,0.0412,5.603448276,1.825161903,0.239655499
127,20,1,2,8,23,191,2531.2128427487332,2543.7313013006933,stimuli/283_yb.png,a,12.506477773189545,ambig,0.0412,5.949152542,1.478859402,0.192531095
127,20,1,2,8,24,192,2544.3582055927254,2548.5872653222177,stimuli/184_xb.png,l,4.217861127806827,harmless,0.0412,6.508474576,1.194425,0.15550089
127,20,1,2,9,1,193,2557.11474254122,2562.4272837226745,stimuli/150_xc.png,l,5.30064192879945,harmless,0.0412,6.482758621,1.030097582,0.135258439
127,20,1,2,9,2,194,2563.083234904567,2571.051323182881,stimuli/217_yb.png,a,7.955510035855696,ambig,0.0412,5.169491525,2.001314588,0.260548967
127,20,1,2,9,3,195,2571.6648056155536,2580.3632294854615,stimuli/111_xa.png,a,8.686563214054331,harmless,0.0412,6.590163934,0.863655973,0.110579816
127,20,1,2,9,4,196,2580.9752334221266,2591.2351958414074,stimuli/138_xc.png,a,10.248690168373287,harmless,0.0412,6.661016949,0.70978796,0.092406522
127,20,1,2,9,5,197,2591.813386964379,2601.8751927379053,stimuli/134_xc.png,l,10.050283430842683,harmless,0.0412,6.516666667,0.965360505,0.124627505
127,20,1,2,9,6,198,2602.4993385365233,2610.5871999438386,stimuli/154_xc.png,l,8.076228394173086,harmless,0.0412,6.5,0.965506805,0.124646393
127,20,1,2,9,7,199,2611.2354030041024,2622.963173874421,stimuli/282_xc.png,a,11.715738103725016,harmless,0.0412,6.55,0.998728005,0.128935231
127,20,1,2,9,8,200,2623.566963770427,2635.331170071382,stimuli/108_xb.png,l,11.752345251152292,harmless,0.0412,6.568965517,1.077880782,0.141532681
127,20,1,2,9,9,201,2635.950892591616,2653.075146500487,stimuli/275_yb.png,a,17.111611863598228,ambig,0.0412,4.836065574,2.138382004,0.27379176
127,20,1,2,9,10,202,2653.688212638721,2663.755134464707,stimuli/181_xa.png,a,10.055128517793491,harmless,0.0412,6.666666667,0.950765377,0.122743282
127,20,1,2,9,11,203,2664.395832406124,2669.9950552701484,stimuli/264_xa.png,a,5.587583549320698,harmless,0.0412,6.533333333,0.947193297,0.122282129
127,20,1,2,9,12,204,2670.5724216806702,2708.9710283342283,stimuli/151_xa.png,l,38.38669046526775,harmless,0.0412,6.610169492,0.947172729,0.123311386
127,20,1,2,9,13,205,2709.601067636162,2724.842977361288,stimuli/219_ya.png,a,15.230210545938462,ambig,0.0412,5.271186441,1.998538332,0.260187529
127,20,1,2,9,14,206,2725.4396949745715,2735.7629948321264,stimuli/226_yb.png,a,10.31170032126829,ambig,0.0412,5.683333333,1.712285287,0.22105508
127,20,1,2,9,15,207,2736.3676476436667,2746.011246256763,stimuli/208_xb.png,a,9.631830904632807,harmless,0.0412,6.216666667,1.165778516,0.150501359
127,20,1,2,9,16,208,2746.65954935411,2772.8909473440144,stimuli/242_xb.png,l,26.219770490657538,harmless,0.0412,6.576271186,0.913564256,0.118935936
127,20,1,2,9,17,209,2773.51586507936,2780.778880194761,stimuli/223_yb.png,a,7.251332083716989,ambig,0.0412,5.542372881,1.77455224,0.231027024
127,20,1,2,9,18,210,2781.4104641585145,2788.010917395819,stimuli/232_yb.png,a,6.588701282627881,ambig,0.0412,5.483333333,1.845669845,0.238274952
127,20,1,2,9,19,211,2788.639061513357,2795.2428573172074,stimuli/103_xb.png,l,6.592033609282225,harmless,0.0412,6.779661017,0.589207434,0.076708274
127,20,1,2,9,20,212,2795.8468260189984,2802.3628884151112,stimuli/238_xb.png,a,6.504337616730481,harmless,0.0412,6.4,1.076718178,0.139003719
127,20,1,2,9,21,213,2802.981603478547,2810.882817979902,stimuli/147_ya.png,l,7.889630718622357,ambig,0.0412,5.883333333,1.766847875,0.22809908
127,20,1,2,9,22,214,2811.5214868295006,2841.914787597023,stimuli/190_xc.png,l,30.381150241475552,harmless,0.0412,6.517241379,1.046990328,0.137476565
127,20,1,2,9,23,215,2842.5630776972976,2849.2188071443234,stimuli/340_za.png,a,6.643590736202896,awful,0.0412,2.508474576,1.832398855,0.238558011
127,20,1,2,9,24,216,2849.84551293822,2858.826756048482,stimuli/319_ya.png,a,8.969128030119464,ambig,0.0412,4.216666667,2.108028774,0.272145344
127,20,1,2,10,1,217,2867.924673905596,2875.2587883658707,stimuli/215_yb.png,l,7.32302928599529,ambig,0.0412,5.866666667,1.466769385,0.189359113
127,20,1,2,10,2,218,2875.8484746562317,2889.442757910583,stimuli/177_xb.png,l,13.582420629216358,harmless,0.0412,6.482758621,1.063614811,0.139659467
127,20,1,2,10,3,219,2890.0864601051435,2897.9946921446826,stimuli/206_xa.png,a,7.896224085474387,harmless,0.0412,6.325842697,1.136094431,0.060212884
127,20,1,2,10,4,220,2898.6187619308475,2905.4827107752208,stimuli/287_ya.png,a,6.852572224335745,ambig,0.0412,5.950819672,1.407435369,0.180203633
127,20,1,2,10,5,221,2906.092789595481,2918.170679623494,stimuli/137_xa.png,a,12.066170368809253,harmless,0.0412,6.355932203,1.094858074,0.14253838
127,20,1,2,10,6,222,2918.7839848257136,2929.3866152409464,stimuli/142_xa.png,l,10.590846952982247,harmless,0.0412,6.4,1.076718178,0.139003719
127,20,1,2,10,7,223,2930.023500364274,2936.746631341288,stimuli/113_xb.png,l,6.711293951608241,harmless,0.0412,6.733333333,0.660422737,0.085260209
127,20,1,2,10,8,224,2937.321971416939,2945.3546326267533,stimuli/141_xc.png,a,8.02064144029282,harmless,0.0412,6.508474576,1.040107444,0.135410455
127,20,1,2,10,9,225,2945.965479051927,2953.6505771607626,stimuli/286_ya.png,a,7.673369785072282,ambig,0.0412,5.06779661,1.779814082,0.231712057
127,20,1,2,10,10,226,2954.29445579811,2961.4985941685736,stimuli/249_ya.png,a,7.192249357700348,ambig,0.0412,5.327868852,1.859402337,0.238072074
127,20,1,2,10,11,227,2962.1269986177795,2968.1945454766974,stimuli/135_xa.png,l,6.055874067125842,harmless,0.0412,6.508474576,1.179901828,0.153610134
127,20,1,2,10,12,228,2968.8117450226564,2980.9785436931998,stimuli/118_xb.png,l,12.155059712706134,harmless,0.0412,6.474576271,0.953323265,0.124112118
127,20,1,2,10,13,229,2981.5541763962246,2994.4905152167194,stimuli/188_xa.png,a,12.924652638146654,harmless,0.0412,6.655172414,0.806807095,0.105938962
127,20,1,2,10,14,230,2995.0546440875623,3009.602470513666,stimuli/169_xc.png,l,14.536066200817004,harmless,0.0412,6.603448276,0.916508538,0.120343467
127,20,1,2,10,15,231,3010.1652886669617,3027.098451911472,stimuli/201_yb.png,a,16.921318342443556,ambig,0.0412,5.898305085,1.626238682,0.211718243
127,20,1,2,10,16,232,3027.7413971351925,3034.3864785765763,stimuli/197_xa.png,l,6.6333621761295944,harmless,0.0412,6.779661017,0.55918033,0.072799078
127,20,1,2,10,17,233,3035.011705480749,3046.97039896925,stimuli/344_za.png,a,11.946619368391111,awful,0.0412,2.711864407,2.043077863,0.265986082
127,20,1,2,10,18,234,3047.5771604292095,3060.2504175745416,stimuli/170_xc.png,l,12.661451627733186,harmless,0.0412,6.583333333,1.062323432,0.137145365
127,20,1,2,10,19,235,3060.8757874446455,3088.282401764067,stimuli/176_xb.png,l,27.39499942306429,harmless,0.0412,6.796610169,0.517942249,0.067430337
127,20,1,2,10,20,236,3088.9213191301096,3104.2823938871734,stimuli/102_xc.png,l,15.349153842777014,harmless,0.0412,6.66011236,0.937292468,0.049676401
127,20,1,2,10,21,237,3104.871171575971,3111.290295214625,stimuli/191_ya.png,a,6.407372865593061,ambig,0.0412,5.517241379,2.062542966,0.270825159
127,20,1,2,10,22,238,3111.91145330132,3117.866239449242,stimuli/117_xc.png,l,5.94297117786482,harmless,0.0412,6.627118644,0.868972939,0.113130641
127,20,1,2,10,23,239,3118.490442355396,3122.8262759507634,stimuli/247_ya.png,a,4.3243533943314105,ambig,0.0412,4.65,2.081598147,0.268733165
127,20,1,2,10,24,240,3123.3903815848753,3138.834268256789,stimuli/213_ya.png,a,15.43205279740505,ambig,0.0412,5.98245614,1.597891781,0.211645937
