id,age,condition,counterbalance,block,trialinblock,trial,tstart,tend,trialstim,response,RT,trialtype,ethicfreq,norm_mean,norm_sd,norm_se
049,68,0,2,0,0,practice,7.87692260928452e-06,45.935872063128045,stimuli/prac_217_1.png,l,45.91394233703613,harmless,NA,NA,NA,NA
049,68,0,2,1,1,1,4.859743251930922,12.928039652382722,stimuli/331_za.png,l,8.056534984323662,awful,0.333,1.983606557,1.638004917,0.209725039
049,68,0,2,1,2,2,13.482783229264896,19.264045229239855,stimuli/103_xb.png,l,5.769619919126853,harmless,0.333,6.779661017,0.589207434,0.076708274
049,68,0,2,1,3,3,19.811048555275192,25.79202974322834,stimuli/263_ya.png,l,5.9689440797956195,ambig,0.333,4.983050847,2.071910042,0.269739712
049,68,0,2,1,4,4,26.345403524523135,33.44000803443487,stimuli/104_xc.png,l,7.0828135553747416,harmless,0.333,6.745762712,0.756425814,0.098478253
049,68,0,2,1,5,5,34.00386205158429,40.0800196135242,stimuli/159_xa.png,l,6.06429689671495,harmless,0.333,6.389830508,1.174689235,0.152931512
049,68,0,2,1,6,6,40.62814579383121,49.75204258260783,stimuli/366_za.png,l,9.112088898866205,awful,0.333,3.689655172,2.036568291,0.267414518
049,68,0,2,1,7,7,50.3006787931663,65.56004552857485,stimuli/267_ya.png,a,15.247773885290371,ambig,0.333,5.103448276,1.898195405,0.249245267
049,68,0,2,1,8,8,66.11399865697604,74.28003221657127,stimuli/327_zb.png,a,8.15421700506704,awful,0.333,2.502808989,1.906990248,0.101070281
049,68,0,2,1,9,9,74.8230943280214,86.46398930315627,stimuli/334_za.png,l,11.629035491409013,awful,0.333,3.333333333,2.214487481,0.285889104
049,68,0,2,1,10,10,87.02733722847188,98.80795647215564,stimuli/325_yb.png,l,11.76891572290333,ambig,0.333,5.131147541,1.811770863,0.231973488
049,68,0,2,1,11,11,99.35388341770158,104.53590081387665,stimuli/179_xb.png,l,5.170150429388741,harmless,0.333,6.704918033,0.882123617,0.112944356
049,68,0,2,1,12,12,105.08969837322365,112.72795615709038,stimuli/226_yb.png,l,7.626389241719153,ambig,0.333,5.683333333,1.712285287,0.22105508
049,68,0,2,1,13,13,113.27843202123768,122.24796096200589,stimuli/285_yb.png,a,8.95768836166826,ambig,0.333,4.120689655,2.119893958,0.278355714
049,68,0,2,1,14,14,122.81059130033827,136.11994139573653,stimuli/238_xb.png,l,13.297252728836611,harmless,0.333,6.4,1.076718178,0.139003719
049,68,0,2,1,15,15,136.67020379548194,140.85587608037167,stimuli/305_zb.png,a,4.1738608503656,awful,0.333,2.75,2.12830003,0.274762352
049,68,0,2,1,16,16,141.40577653585933,147.56790865928633,stimuli/248_zb.png,a,6.15029981508269,awful,0.333,3.288135593,1.991800844,0.259310383
049,68,0,2,1,17,17,148.12592785138986,156.1439124244498,stimuli/275_yb.png,l,8.006132572423667,ambig,0.333,4.836065574,2.138382004,0.27379176
049,68,0,2,1,18,18,156.6898878130305,161.76791535466327,stimuli/102_xc.png,l,5.066145608725492,harmless,0.333,6.66011236,0.937292468,0.049676401
049,68,0,2,1,19,19,162.33013176108943,167.49593058862956,stimuli/195_xc.png,l,5.153924771526363,harmless,0.333,6.637640449,1.001766915,0.05309354
049,68,0,2,1,20,20,168.05089983911603,175.42388635186944,stimuli/229_za.png,l,7.3611522351857275,awful,0.333,3.406779661,2.043649913,0.266060557
049,68,0,2,1,21,21,175.97307118959725,184.46388138941256,stimuli/265_yb.png,l,8.478937325358856,ambig,0.333,5.627118644,1.856008928,0.241631781
049,68,0,2,1,22,22,185.02185213848134,193.07185479692998,stimuli/321_zb.png,a,8.038175863941433,awful,0.333,2.918032787,2.177881861,0.278849198
049,68,0,2,1,23,23,193.6310838832287,198.975880885293,stimuli/132_xc.png,l,5.3330513397813775,harmless,0.333,6.627118644,0.692280217,0.090127208
049,68,0,2,1,24,24,199.53877982642734,206.25582251732703,stimuli/198_yb.png,l,6.705217077920679,ambig,0.333,5.101694915,1.83542643,0.238952168
049,68,0,2,2,1,25,215.8671924507653,223.7998924801068,stimuli/292_zb.png,a,7.921308434422826,awful,0.333,2.396551724,1.955107169,0.256718148
049,68,0,2,2,2,26,224.3611664136115,231.55983521492453,stimuli/149_xa.png,l,7.186778597621014,harmless,0.333,6.721311475,0.933294301,0.11949609
049,68,0,2,2,3,27,232.1116328254575,237.92782540028566,stimuli/304_ya.png,a,5.80434254341526,ambig,0.333,4.034482759,2.017167697,0.264867095
049,68,0,2,2,4,28,238.48736562475096,244.78382317899377,stimuli/298_za.png,a,6.284626821288839,awful,0.333,2.881355932,2.026418156,0.263817173
049,68,0,2,2,5,29,245.33448808910907,255.19988145242678,stimuli/261_yb.png,a,9.853721350198612,ambig,0.333,5.706896552,1.901141123,0.249632059
049,68,0,2,2,6,30,255.75739730964415,262.94377536611864,stimuli/349_za.png,l,7.174921476980671,awful,0.333,3.288135593,2.101320172,0.273568585
049,68,0,2,2,7,31,263.4930141607183,270.7118305360491,stimuli/278_xb.png,l,7.207306626660284,harmless,0.333,6.360655738,1.140654591,0.146045855
049,68,0,2,2,8,32,271.27649469391326,277.3678145301528,stimuli/185_xa.png,l,6.079337472649058,harmless,0.333,6.5,0.965506805,0.124646393
049,68,0,2,2,9,33,277.9181423082773,282.01579400291666,stimuli/184_xb.png,l,4.085959595366148,harmless,0.333,6.508474576,1.194425,0.15550089
049,68,0,2,2,10,34,282.57527081819717,289.6238099457696,stimuli/223_yb.png,l,7.036757231486263,ambig,0.333,5.542372881,1.77455224,0.231027024
049,68,0,2,2,11,35,290.17117679145304,296.55977968266234,stimuli/237_ya.png,l,6.376726078276988,ambig,0.333,4.305084746,2.019339575,0.26289562
049,68,0,2,2,12,36,297.1096391782048,305.8077623062127,stimuli/362_zb.png,a,8.686338081170106,awful,0.333,1.474576271,1.222715071,0.159183944
049,68,0,2,2,13,37,306.3597552642459,312.5997629048361,stimuli/134_xc.png,l,6.228148944588611,harmless,0.333,6.516666667,0.965360505,0.124627505
049,68,0,2,2,14,38,313.145182183187,320.95973557195975,stimuli/309_ya.png,l,7.802717535785632,ambig,0.333,4.706896552,1.946734744,0.255618795
049,68,0,2,2,15,39,321.5208641763893,328.6637254264788,stimuli/224_yb.png,l,7.130993101774948,ambig,0.333,5.881355932,1.609077116,0.209483997
049,68,0,2,2,16,40,329.2104447897,334.98368454529555,stimuli/127_xb.png,l,5.761312136572087,harmless,0.333,6.423728814,1.162686987,0.151368953
049,68,0,2,2,17,41,335.5405600092781,344.20768865704304,stimuli/340_za.png,a,8.655198665655917,awful,0.333,2.508474576,1.832398855,0.238558011
049,68,0,2,2,18,42,344.7592684708652,352.36767471488565,stimuli/314_zb.png,l,7.596571572590619,awful,0.333,1.833333333,1.451669602,0.18740974
049,68,0,2,2,19,43,352.91599978730665,362.58373416986433,stimuli/170_xc.png,l,9.656101753993426,harmless,0.333,6.583333333,1.062323432,0.137145365
049,68,0,2,2,20,44,363.1354660081561,370.89566592426854,stimuli/308_zb.png,a,7.748458979971474,awful,0.333,1.644067797,1.471132708,0.191525165
049,68,0,2,2,21,45,371.44747653169907,376.2476821191958,stimuli/106_xc.png,l,4.7884229037154,harmless,0.333,6.661016949,0.863237081,0.112383896
049,68,0,2,2,22,46,376.80819356732536,382.887648799835,stimuli/301_za.png,l,6.06771272100741,awful,0.333,3.610169492,2.212947396,0.288101212
049,68,0,2,2,23,47,383.44885538573726,389.0556748251838,stimuli/233_yb.png,l,5.595065900241025,ambig,0.333,5.318309859,1.922973646,0.102060844
049,68,0,2,2,24,48,389.5972375657875,395.8796694846242,stimuli/330_ya.png,l,6.270582281256793,ambig,0.333,4.796610169,2.049219036,0.266785595
049,68,0,2,3,1,49,404.5565351812402,415.6476289500133,stimuli/286_ya.png,l,11.07941624178784,ambig,0.333,5.06779661,1.779814082,0.231712057
049,68,0,2,3,2,50,416.2055555883853,425.73568026025896,stimuli/268_zb.png,a,9.518604289391078,awful,0.333,2.655737705,2.048456703,0.262278005
049,68,0,2,3,3,51,426.28287657070905,434.2316427503829,stimuli/310_zb.png,l,7.9370563573611435,awful,0.333,3.224137931,2.102989547,0.276136056
049,68,0,2,3,4,52,434.78455376290367,441.3116383393062,stimuli/219_ya.png,l,6.515283381886547,ambig,0.333,5.271186441,1.998538332,0.260187529
049,68,0,2,3,5,53,441.86278846740606,454.44760413773474,stimuli/361_za.png,l,12.572997540439246,awful,0.333,2.416666667,1.907093508,0.246204713
049,68,0,2,3,6,54,455.0042369927396,460.94364539702656,stimuli/157_xc.png,l,5.9275434067239985,harmless,0.333,6.603448276,0.877389573,0.115206895
049,68,0,2,3,7,55,461.5039768576098,466.1515719369054,stimuli/187_xc.png,l,4.63573165712296,harmless,0.333,6.224137931,1.185335891,0.155642228
049,68,0,2,3,8,56,466.708347757929,482.76769401333877,stimuli/291_za.png,l,16.047548999340506,awful,0.333,2.593220339,1.830005126,0.238246374
049,68,0,2,3,9,57,483.319224202598,492.0955962135631,stimuli/369_za.png,a,8.764649979420938,awful,0.333,2.948275862,2.055565093,0.26990892
049,68,0,2,3,10,58,492.64761398389237,498.62360041984357,stimuli/311_za.png,l,5.964152552216547,awful,0.333,3.116666667,1.975199339,0.254997138
049,68,0,2,3,11,59,499.1794278602465,505.6795777185762,stimuli/345_zb.png,l,6.488303371530492,awful,0.333,3.694915254,2.191317013,0.285285176
049,68,0,2,3,12,60,506.23011974879773,513.8236071152205,stimuli/342_yb.png,l,7.581801174848806,ambig,0.333,4.916666667,2.085394461,0.269223267
049,68,0,2,3,13,61,514.3725457993278,521.7515301892709,stimuli/245_yb.png,l,7.367158383131027,ambig,0.333,4.949152542,2.096168334,0.272897873
049,68,0,2,3,14,62,522.309771510365,528.9755307564046,stimuli/257_yb.png,l,6.65388715924928,ambig,0.333,5.620689655,1.843219782,0.242026615
049,68,0,2,3,15,63,529.5297745429853,537.1035613503482,stimuli/300_za.png,l,7.562101009651087,awful,0.333,3.75,2.12032137,0.273732312
049,68,0,2,3,16,64,537.6550029242935,544.3514833216032,stimuli/202_yb.png,l,6.6846075228531845,ambig,0.333,5.431034483,1.892849601,0.248543329
049,68,0,2,3,17,65,544.9064805351663,561.3115351517044,stimuli/207_yb.png,l,16.393202222068794,ambig,0.333,5.655737705,1.662179753,0.212820309
049,68,0,2,3,18,66,561.8611768505361,570.1994954835682,stimuli/204_xb.png,l,8.326294521801174,harmless,0.333,6.508474576,0.858484658,0.111765183
049,68,0,2,3,19,67,570.7518480228027,577.3595039906504,stimuli/108_xb.png,l,6.595854379469529,harmless,0.333,6.568965517,1.077880782,0.141532681
049,68,0,2,3,20,68,577.908608089987,583.5355128757947,stimuli/169_xc.png,l,5.615175271203043,harmless,0.333,6.603448276,0.916508538,0.120343467
049,68,0,2,3,21,69,584.0967131601647,591.0875156799739,stimuli/176_xb.png,l,6.979018260666635,harmless,0.333,6.796610169,0.517942249,0.067430337
049,68,0,2,3,22,70,591.6441020611965,598.2634418575326,stimuli/189_yb.png,l,6.607538207957987,ambig,0.333,5.983333333,1.455459234,0.187898979
049,68,0,2,3,23,71,598.8168168203556,606.05544166849,stimuli/234_xb.png,l,7.226845315104583,harmless,0.333,6.637931034,0.788030542,0.103473479
049,68,0,2,3,24,72,606.6128748180927,612.3514242447563,stimuli/274_xb.png,l,5.72674193061539,harmless,0.333,6.491525424,1.179901828,0.153610134
049,68,0,2,4,1,73,620.896051499265,628.6474174548348,stimuli/343_zb.png,l,7.739784133125795,awful,0.333,3.103448276,2.141401862,0.28117984
049,68,0,2,4,2,74,629.2007538207981,636.3114366902737,stimuli/172_xb.png,l,7.098890339548234,harmless,0.333,6.482758621,1.127664553,0.14806961
049,68,0,2,4,3,75,636.8743888005847,642.1514344847237,stimuli/318_za.png,l,5.265220858855173,awful,0.333,3.06557377,2.197489875,0.281359747
049,68,0,2,4,4,76,642.7011490450241,647.0634150760307,stimuli/227_xa.png,l,4.350438448804198,harmless,0.333,6.180327869,1.05685377,0.135316259
049,68,0,2,4,5,77,647.6237292074075,655.455411342351,stimuli/145_xa.png,l,7.819780115911271,harmless,0.333,6.661016949,0.822321556,0.107057148
049,68,0,2,4,6,78,656.0147912715911,663.215384797164,stimuli/284_ya.png,l,7.188860860216664,ambig,0.333,5.948275862,1.431750417,0.18799804
049,68,0,2,4,7,79,663.7641442814493,669.1913767469523,stimuli/247_ya.png,l,5.415385191008681,ambig,0.333,4.65,2.081598147,0.268733165
049,68,0,2,4,8,80,669.7515589399845,684.3113831272349,stimuli/351_zb.png,l,14.548039534216514,awful,0.333,3.06779661,2.033040926,0.264679384
049,68,0,2,4,9,81,684.8607735524711,690.7673895705666,stimuli/262_ya.png,l,5.894915254233638,ambig,0.333,5.491525424,1.7750462,0.231091332
049,68,0,2,4,10,82,691.3141116907063,696.703327799798,stimuli/363_zb.png,l,5.377458631439367,awful,0.333,2.433333333,2.019956927,0.260775318
049,68,0,2,4,11,83,697.253787516267,705.1673387644696,stimuli/181_xa.png,l,7.90172366600018,harmless,0.333,6.666666667,0.950765377,0.122743282
049,68,0,2,4,12,84,705.7217794739408,711.0073944542673,stimuli/347_zb.png,l,5.273859078064561,awful,0.333,3.796610169,2.147810923,0.279621165
049,68,0,2,4,13,85,711.5679208685178,719.1033404028567,stimuli/276_ya.png,l,7.5236620566865895,ambig,0.333,5.186440678,1.804922162,0.234980851
049,68,0,2,4,14,86,719.6622311756364,728.5993013176194,stimuli/303_zb.png,l,8.925259495154023,awful,0.333,3.620689655,2.158846233,0.283470398
049,68,0,2,4,15,87,729.1492084684724,735.9913290916011,stimuli/118_xb.png,l,6.830516745336354,harmless,0.333,6.474576271,0.953323265,0.124112118
049,68,0,2,4,16,88,736.5458599917765,746.6232951893762,stimuli/253_ya.png,l,10.065416600205936,ambig,0.333,5.491803279,1.849531029,0.236808182
049,68,0,2,4,17,89,747.1802742347936,752.8553038224636,stimuli/147_ya.png,l,5.663260294648353,ambig,0.333,5.883333333,1.766847875,0.22809908
049,68,0,2,4,18,90,753.4154533263063,760.5273114315642,stimuli/239_ya.png,l,7.100204996706452,ambig,0.333,5.157894737,1.925296579,0.255011762
049,68,0,2,4,19,91,761.0877437166637,766.9433019635035,stimuli/208_xb.png,l,5.84374208614463,harmless,0.333,6.216666667,1.165778516,0.150501359
049,68,0,2,4,20,92,767.4945446453639,772.7193246332754,stimuli/357_za.png,l,5.212946104176808,awful,0.333,2.793103448,2.066937905,0.271402243
049,68,0,2,4,21,93,773.2763832355558,778.7192691010132,stimuli/146_xa.png,l,5.431059070950141,harmless,0.333,6.442622951,1.162247681,0.148810567
049,68,0,2,4,22,94,779.2762635064428,783.9672966229555,stimuli/199_za.png,l,4.679045239085099,awful,0.333,3.033898305,2.189048775,0.284989876
049,68,0,2,4,23,95,784.5257265962136,791.3673139521852,stimuli/319_ya.png,l,6.829797189129749,ambig,0.333,4.216666667,2.108028774,0.272145344
049,68,0,2,4,24,96,791.9156272092368,798.2072416420851,stimuli/183_xb.png,l,6.279788032203214,harmless,0.333,6.448275862,1.095003225,0.143780967
049,68,0,2,5,1,97,806.9254946210422,816.575279876648,stimuli/370_za.png,l,9.638086460967315,awful,0.333,2.393442623,1.882185684,0.240989182
049,68,0,2,5,2,98,817.1389160970575,832.8152449819027,stimuli/373_zb.png,l,15.664512330316938,awful,0.333,2.327586207,1.858011869,0.243968911
049,68,0,2,5,3,99,833.3725115347479,839.8312701722898,stimuli/336_ya.png,l,6.447337110323133,ambig,0.333,5.033898305,1.884291705,0.245313885
049,68,0,2,5,4,100,840.3887230141845,848.9352706606442,stimuli/367_zb.png,l,8.53469800890889,awful,0.333,3.413793103,2.086165649,0.27392697
049,68,0,2,5,5,101,849.4831451735226,856.9272062747332,stimuli/273_ya.png,l,7.43247691571014,ambig,0.333,5.551724138,1.836973233,0.241206403
049,68,0,2,5,6,102,857.484878488729,863.0152308034594,stimuli/228_ya.png,l,5.518590898631373,ambig,0.333,5.442622951,1.793735303,0.229664272
049,68,0,2,5,7,103,863.5775602436333,870.711183447449,stimuli/213_ya.png,l,7.121905504580354,ambig,0.333,5.98245614,1.597891781,0.211645937
049,68,0,2,5,8,104,871.2566881903331,879.6712002252752,stimuli/242_xb.png,l,8.402864440256963,harmless,0.333,6.576271186,0.913564256,0.118935936
049,68,0,2,5,9,105,880.2259300175356,886.1431751451746,stimuli/372_zb.png,l,5.905529003794072,awful,0.333,2.796610169,2.082601664,0.271131643
049,68,0,2,5,10,106,886.6956994011416,895.4631645900954,stimuli/307_za.png,a,8.75571361897164,awful,0.333,2.93220339,2.172432347,0.282826601
049,68,0,2,5,11,107,896.0245822773431,901.903150963044,stimuli/122_xa.png,l,5.866753312729998,harmless,0.333,6.457627119,1.039264227,0.135300678
049,68,0,2,5,12,108,902.4634450082958,911.9831508842763,stimuli/288_yb.png,l,9.507949186023325,ambig,0.333,5.189655172,1.914459262,0.251380817
049,68,0,2,5,13,109,912.5429183577362,920.8631728608743,stimuli/218_yb.png,l,8.308283954916988,ambig,0.333,5.850282486,1.552723069,0.0825263
049,68,0,2,5,14,110,921.4196320298943,927.1511296481185,stimuli/119_xc.png,l,5.719685789867071,harmless,0.333,6.694915254,0.914523379,0.119060803
049,68,0,2,5,15,111,927.7024605514307,937.0151161943504,stimuli/341_zb.png,a,9.301021438994212,awful,0.333,3.603448276,2.15975677,0.283589957
049,68,0,2,5,16,112,937.5616232746979,943.2071762637061,stimuli/156_xc.png,l,5.633719499106519,harmless,0.333,6.590163934,0.955284411,0.122311635
049,68,0,2,5,17,113,943.7676306041831,949.4231006295595,stimuli/196_xb.png,l,5.643734209239483,harmless,0.333,6.594366197,0.982313556,0.05213579
049,68,0,2,5,18,114,949.9715371603379,957.1352037068573,stimuli/200_ya.png,l,7.1517968228436075,ambig,0.333,5.862068966,1.444266048,0.189641423
049,68,0,2,5,19,115,957.6905234800943,963.5110904998437,stimuli/128_xc.png,l,5.808679573005065,harmless,0.333,6.627118644,0.98082135,0.127692063
049,68,0,2,5,20,116,964.0530644154351,968.9591566186573,stimuli/209_ya.png,l,4.894229568744777,ambig,0.333,5.603448276,1.825161903,0.239655499
049,68,0,2,5,21,117,969.5090677079861,979.543116068322,stimuli/344_za.png,l,10.022179030493135,awful,0.333,2.711864407,2.043077863,0.265986082
049,68,0,2,5,22,118,980.101834336645,994.2710497762018,stimuli/163_xa.png,l,14.15749774032156,harmless,0.333,6.627118644,0.963082427,0.125382652
049,68,0,2,5,23,119,994.8242156069318,1001.2790625682974,stimuli/214_xb.png,l,6.442842936259694,harmless,0.333,6.465517241,0.940614156,0.12350869
049,68,0,2,5,24,120,1001.8408406244125,1007.8630610086839,stimuli/348_za.png,l,6.010427460510982,awful,0.333,3.084745763,2.119597681,0.275948114
049,68,0,2,6,1,121,1016.4902635418985,1023.7910467041947,stimuli/258_ya.png,l,7.289111149177188,ambig,0.333,5.627118644,1.78014243,0.231754804
049,68,0,2,6,2,122,1024.3431018898555,1035.4633595437626,stimuli/339_ya.png,a,11.108360360987717,ambig,0.333,4.949152542,1.960152429,0.25519011
049,68,0,2,6,3,123,1036.0151161943504,1045.3350638916309,stimuli/328_za.png,l,9.308220545761287,awful,0.333,2.706896552,1.955725922,0.256799395
049,68,0,2,6,4,124,1045.8898500038486,1050.4310263817606,stimuli/150_xc.png,l,4.5293078357644845,harmless,0.333,6.482758621,1.030097582,0.135258439
049,68,0,2,6,5,125,1050.985856210842,1057.519042639702,stimuli/271_ya.png,l,6.521577431063633,ambig,0.333,5.711864407,1.771915459,0.230683744
049,68,0,2,6,6,126,1058.0807505912671,1066.4950046572194,stimuli/350_ya.png,l,8.402525339042768,ambig,0.333,4.915254237,2.02814792,0.264042369
049,68,0,2,6,7,127,1067.0507430885045,1074.230971637182,stimuli/333_za.png,l,7.168558110948652,awful,0.333,3.266666667,2.185209657,0.282109354
049,68,0,2,6,8,128,1074.7733941431215,1079.4310224432847,stimuli/125_xc.png,l,4.645765665685758,harmless,0.333,6.683333333,0.999858747,0.129081209
049,68,0,2,6,9,129,1079.9941572980606,1091.4949715741677,stimuli/332_zb.png,a,11.488896109396592,awful,0.333,2.694915254,2.002190501,0.260663001
049,68,0,2,6,10,130,1092.054670518468,1095.7509677775088,stimuli/243_ya.png,l,3.684369640017394,ambig,0.333,5.830508475,1.652088985,0.215083666
049,68,0,2,6,11,131,1096.3060382463445,1100.7430160314834,stimuli/194_xb.png,l,4.4251647752244025,harmless,0.333,6.586206897,1.026567825,0.134794959
049,68,0,2,6,12,132,1101.2914458668674,1106.4229682973819,stimuli/317_za.png,l,5.119862232764717,awful,0.333,3.65,2.03215674,0.262350307
049,68,0,2,6,13,133,1106.980870517291,1114.53495755326,stimuli/302_za.png,l,7.542454013571842,awful,0.333,3.137931034,2.188071937,0.287307921
049,68,0,2,6,14,134,1115.0923355644627,1125.4709391055221,stimuli/365_zb.png,l,10.366864968003938,awful,0.333,2.966101695,2.165291266,0.281896912
049,68,0,2,6,15,135,1126.0292477742769,1131.078958593018,stimuli/368_za.png,l,5.037831248890143,awful,0.333,3.590163934,2.02794682,0.259651984
049,68,0,2,6,16,136,1131.6400411174982,1137.406909236277,stimuli/279_ya.png,l,5.754968856665073,ambig,0.333,5.31147541,1.970964092,0.252356093
049,68,0,2,6,17,137,1137.9699491742067,1143.3509287867637,stimuli/131_xb.png,l,5.3691083134908695,harmless,0.333,6.525423729,1.119666394,0.145768149
049,68,0,2,6,18,138,1143.9077711677237,1150.2149409329868,stimuli/166_xa.png,l,6.295230724703288,harmless,0.333,6.593220339,1.052397002,0.13701042
049,68,0,2,6,19,139,1150.7678066532244,1156.8710300839157,stimuli/175_xb.png,l,6.091406482330058,harmless,0.333,6.6,1.028409995,0.13276716
049,68,0,2,6,20,140,1157.4238729611097,1163.5988897487696,stimuli/212_ya.png,l,6.16308601788478,ambig,0.333,5.677966102,1.490668422,0.194068498
049,68,0,2,6,21,141,1164.1600758546847,1169.6708697886788,stimuli/277_yb.png,l,5.498806844261708,ambig,0.333,5.491525424,2.02886822,0.264136144
049,68,0,2,6,22,142,1170.2234736015089,1176.5349087163922,stimuli/151_xa.png,l,6.299640615732642,harmless,0.333,6.610169492,0.947172729,0.123311386
049,68,0,2,6,23,143,1177.085028543981,1183.950945722143,stimuli/211_zb.png,l,6.854138038994279,awful,0.333,3.983333333,2.127237938,0.274625237
049,68,0,2,6,24,144,1184.5064797474479,1189.2069045101234,stimuli/152_xa.png,l,4.688595211220672,harmless,0.333,6.576271186,0.968528743,0.126091702
049,68,0,2,7,1,145,1199.0785025196092,1206.2548839828814,stimuli/315_yb.png,l,7.16475710546365,ambig,0.333,5.050847458,1.915667965,0.249398726
049,68,0,2,7,2,146,1206.8056028498686,1213.4228477805736,stimuli/356_za.png,l,6.605415379279293,awful,0.333,3.033333333,2.178217796,0.281206708
049,68,0,2,7,3,147,1213.9778186064505,1218.9588706866489,stimuli/254_ya.png,l,4.969593137648189,ambig,0.333,5.983606557,1.627798137,0.208418195
049,68,0,2,7,4,148,1219.507420645008,1226.1668251895753,stimuli/232_yb.png,l,6.6474918916937895,ambig,0.333,5.483333333,1.845669845,0.238274952
049,68,0,2,7,5,149,1226.7275694005366,1231.3508543499338,stimuli/287_ya.png,l,4.611278561205836,ambig,0.333,5.950819672,1.407435369,0.180203633
049,68,0,2,7,6,150,1231.897792297561,1235.9508126022702,stimuli/130_xc.png,l,4.041129313351121,harmless,0.333,6.644067797,0.960651931,0.125066229
049,68,0,2,7,7,151,1236.5095765567094,1243.7588116097904,stimuli/293_zb.png,l,7.237283409456722,awful,0.333,3.677966102,2.169066842,0.28238845
049,68,0,2,7,8,152,1244.307115414529,1248.7588482374267,stimuli/160_xb.png,l,4.4398575853556395,harmless,0.333,6.666666667,0.680644427,0.087870818
049,68,0,2,7,9,153,1249.30898066808,1255.1748222278547,stimuli/312_yb.png,l,5.854098260577302,ambig,0.333,4.677966102,2.112692986,0.275049199
049,68,0,2,7,10,154,1255.7300927703618,1262.0308278834855,stimuli/191_ya.png,l,6.288952035480179,ambig,0.333,5.517241379,2.062542966,0.270825159
049,68,0,2,7,11,155,1262.5906493138173,1269.9348228580202,stimuli/139_xa.png,l,7.332224657497136,harmless,0.333,6.724137931,0.790138861,0.103750315
049,68,0,2,7,12,156,1270.4836701699242,1276.1267923428386,stimuli/249_ya.png,l,5.6313438214419875,ambig,0.333,5.327868852,1.859402337,0.238072074
049,68,0,2,7,13,157,1276.688790952583,1283.1028020156955,stimuli/252_zb.png,l,6.402158274810063,awful,0.333,2.711864407,1.983125776,0.258180985
049,68,0,2,7,14,158,1283.6589744650119,1290.9267647736415,stimuli/352_zb.png,l,7.255943427997408,awful,0.333,2.93442623,2.135952968,0.273480754
049,68,0,2,7,15,159,1291.487047397357,1298.4067686333437,stimuli/266_zb.png,l,6.907846786139999,awful,0.333,3.491525424,1.888010094,0.245797978
049,68,0,2,7,16,160,1298.9555316622427,1305.3827727923344,stimuli/282_xc.png,l,6.415566360054072,harmless,0.333,6.55,0.998728005,0.128935231
049,68,0,2,7,17,161,1305.9414898791292,1311.9027555419016,stimuli/256_zb.png,l,5.949475889763562,awful,0.333,3.051724138,2.012438634,0.264246138
049,68,0,2,7,18,162,1312.4567720794876,1319.9187405600096,stimuli/221_xb.png,l,7.4501023014308885,harmless,0.333,6.440677966,1.133672495,0.147591588
049,68,0,2,7,19,163,1320.4735861429363,1327.5347507842525,stimuli/338_zb.png,l,7.049264985340415,awful,0.333,3.310344828,2.137443107,0.28066003
049,68,0,2,7,20,164,1328.083088065876,1334.918782701512,stimuli/281_ya.png,l,6.8240423148090485,ambig,0.333,5.881355932,1.543448286,0.200939852
049,68,0,2,7,21,165,1335.4758247622522,1344.0627116674732,stimuli/359_za.png,l,8.574987249245169,awful,0.333,2.01754386,1.641985167,0.217486248
049,68,0,2,7,22,166,1344.6145423610578,1350.1667346050672,stimuli/155_xb.png,l,5.5403516649093945,harmless,0.333,6.655737705,0.892286312,0.114245555
049,68,0,2,7,23,167,1350.727387443796,1357.1187267753994,stimuli/110_xa.png,l,6.3794451894646045,harmless,0.333,6.428571429,1.059281795,0.141552484
049,68,0,2,7,24,168,1357.679905004392,1369.038715826493,stimuli/133_xa.png,l,11.347030895238277,harmless,0.333,6.568965517,1.186356193,0.1557762
049,68,0,2,8,1,169,1383.480325631681,1389.25469296769,stimuli/323_yb.png,l,5.762806781247491,ambig,0.333,4.603448276,1.955107169,0.256718148
049,68,0,2,8,2,170,1389.809972962481,1393.0946568914223,stimuli/158_xa.png,l,3.2728937620995566,harmless,0.333,6.786885246,0.661179605,0.084655374
049,68,0,2,8,3,171,1393.6531932030048,1398.8626309290994,stimuli/269_za.png,l,5.197605811583344,awful,0.333,3.457627119,2.119873401,0.27598401
049,68,0,2,8,4,172,1399.4195020608022,1404.87866399638,stimuli/246_ya.png,l,5.447347350302152,ambig,0.333,5.542372881,1.715266481,0.223308675
049,68,0,2,8,5,173,1405.4386370573484,1411.7986534413067,stimuli/217_yb.png,l,6.34817226024461,ambig,0.333,5.169491525,2.001314588,0.260548967
049,68,0,2,8,6,174,1412.3596292336006,1426.9586442253203,stimuli/306_zb.png,a,14.587073588103522,awful,0.333,2.352112676,1.917055413,0.101746737
049,68,0,2,8,7,175,1427.517146272352,1433.6546937553794,stimuli/335_yb.png,l,6.1257852792332415,ambig,0.333,5.016949153,2.046793332,0.266469795
049,68,0,2,8,8,176,1434.2052810778841,1442.1986451705743,stimuli/322_za.png,a,7.981506578216795,awful,0.333,2.406779661,1.975004531,0.257123689
049,68,0,2,8,9,177,1442.7530516154657,1447.7825845340558,stimuli/216_xa.png,l,5.017698247189401,harmless,0.333,6.603448276,0.877389573,0.115206895
049,68,0,2,8,10,178,1448.3311919939006,1452.3346830427763,stimuli/201_yb.png,l,3.9917056081758346,ambig,0.333,5.898305085,1.626238682,0.211718243
049,68,0,2,8,11,179,1452.8953681768617,1458.710601343395,stimuli/296_yb.png,l,5.803609990281984,ambig,0.333,4.229508197,2.052587332,0.262806878
049,68,0,2,8,12,180,1459.2715499603073,1465.6466238556313,stimuli/354_zb.png,a,6.363218350074021,awful,0.333,2,1.701925887,0.221571878
049,68,0,2,8,13,181,1466.192643748771,1471.4066575688194,stimuli/164_xb.png,l,5.202110225596698,harmless,0.333,6.830508475,0.460604639,0.059965616
049,68,0,2,8,14,182,1471.9605110542616,1479.9985912136908,stimuli/289_yb.png,l,8.026213586505037,ambig,0.333,5.305084746,1.714584873,0.223219937
049,68,0,2,8,15,183,1480.5526790373551,1486.6866374039091,stimuli/320_za.png,a,6.1221662304596975,awful,0.333,1.423728814,1.117314975,0.14546202
049,68,0,2,8,16,184,1487.2416007467255,1492.846619129472,stimuli/240_xa.png,l,5.593245545111131,harmless,0.333,6.482758621,1.096107616,0.143925981
049,68,0,2,8,17,185,1493.3873563693778,1499.966552648315,stimuli/109_xb.png,l,6.56734861060977,harmless,0.333,6.644067797,0.97843492,0.127381377
049,68,0,2,8,18,186,1500.5268762320047,1506.358561911562,stimuli/142_xa.png,l,5.819746639026562,harmless,0.333,6.4,1.076718178,0.139003719
049,68,0,2,8,19,187,1506.917121066217,1512.8945655191783,stimuli/294_za.png,a,5.965625141514465,awful,0.333,1.557377049,1.38473331,0.177296933
049,68,0,2,8,20,188,1513.450052676868,1523.6145510256756,stimuli/313_zb.png,l,10.152855874126544,awful,0.333,2.101694915,1.688652955,0.219843889
049,68,0,2,8,21,189,1524.1691902333987,1531.7346070305503,stimuli/326_zb.png,a,7.5536561687185895,awful,0.333,3.389830508,2.220724867,0.289113752
049,68,0,2,8,22,190,1532.2951578632346,1536.5985620690917,stimuli/162_xa.png,l,4.291586863662815,harmless,0.333,6.644067797,0.905209289,0.117848212
049,68,0,2,8,23,191,1537.1547904445033,1542.3265997522685,stimuli/230_yb.png,l,5.159926193300635,ambig,0.333,4.98245614,1.875511626,0.248417583
049,68,0,2,8,24,192,1542.8739532071922,1547.8945115623355,stimuli/137_xa.png,l,5.008672877622303,harmless,0.333,6.355932203,1.094858074,0.14253838
049,68,0,2,9,1,193,1558.5078798691684,1564.2865208255826,stimuli/270_yb.png,l,5.766959097149083,ambig,0.333,5.534482759,1.912246013,0.251090203
049,68,0,2,9,2,194,1564.843330911186,1569.454471626348,stimuli/174_xc.png,l,4.5991433854505885,harmless,0.333,6.533333333,1.111826512,0.143536185
049,68,0,2,9,3,195,1570.0162654362794,1576.1505211564072,stimuli/295_za.png,l,6.122629393095849,awful,0.333,2.3,1.825432384,0.235662307
049,68,0,2,9,4,196,1576.7077546262008,1583.774475643586,stimuli/255_xb.png,l,7.054891072097234,harmless,0.333,6.770491803,0.642740036,0.082294429
049,68,0,2,9,5,197,1584.333313641051,1588.814529758005,stimuli/173_yb.png,l,4.469884780439315,ambig,0.333,5.796610169,1.242628763,0.161776485
049,68,0,2,9,6,198,1589.3643593212473,1597.1904669632204,stimuli/203_yb.png,l,7.814311567432014,ambig,0.333,6,1.542501327,0.200816568
049,68,0,2,9,7,199,1597.7408266428683,1605.774515815865,stimuli/329_zb.png,l,8.021847412339412,awful,0.333,2.406779661,1.992387617,0.259386774
049,68,0,2,9,8,200,1606.3348779964144,1612.4944249162509,stimuli/290_zb.png,l,6.147886328224558,awful,0.333,2.586206897,2.026443456,0.266085062
049,68,0,2,9,9,201,1613.050376811938,1617.726496958523,stimuli/154_xc.png,l,4.664346127421595,harmless,0.333,6.5,0.965506805,0.124646393
049,68,0,2,9,10,202,1618.2846000397694,1623.8384326513915,stimuli/220_yb.png,l,5.542023540154332,ambig,0.333,4.75,2.096203186,0.270618668
049,68,0,2,9,11,203,1624.3938623075665,1629.1984391892329,stimuli/148_xc.png,l,4.792579158092849,harmless,0.333,6.491525424,1.135218061,0.147792803
049,68,0,2,9,12,204,1629.7539728207048,1634.8304344315547,stimuli/236_yb.png,l,5.064633634814527,ambig,0.333,5.93442623,1.49297078,0.19115532
049,68,0,2,9,13,205,1635.3804983330483,1643.7184187880193,stimuli/188_xa.png,l,8.326118078897707,harmless,0.333,6.655172414,0.806807095,0.105938962
049,68,0,2,9,14,206,1644.2717563355109,1653.838474792894,stimuli/337_zb.png,a,9.554872364446055,awful,0.333,3.033333333,2.20143764,0.284204377
049,68,0,2,9,15,207,1654.398675890523,1659.3264059801586,stimuli/283_yb.png,l,4.916076193418121,ambig,0.333,5.949152542,1.478859402,0.192531095
049,68,0,2,9,16,208,1659.8731828448654,1668.0144265704148,stimuli/364_za.png,l,8.129484672506806,awful,0.333,1.677966102,1.279017376,0.166513879
049,68,0,2,9,17,209,1668.5755181533168,1674.7184010649507,stimuli/210_yb.png,l,6.131251464597881,ambig,0.333,5.557377049,1.76564049,0.226067099
049,68,0,2,9,18,210,1675.2811523139244,1683.3983631769952,stimuli/355_zb.png,a,8.105443539272528,awful,0.333,3.183333333,2.070713188,0.267327923
049,68,0,2,9,19,211,1683.9520276164694,1688.9183963387914,stimuli/117_xc.png,l,4.954524598608259,harmless,0.333,6.627118644,0.868972939,0.113130641
049,68,0,2,9,20,212,1689.4672475891712,1693.3663573008089,stimuli/297_za.png,a,3.887332147860434,awful,0.333,1.898305085,1.446695584,0.188343723
049,68,0,2,9,21,213,1693.9228956328297,1699.9343912030454,stimuli/231_xb.png,l,5.999610486527672,harmless,0.333,6.62295082,1.05141071,0.134619347
049,68,0,2,9,22,214,1700.487232111016,1705.2144084534957,stimuli/215_yb.png,l,4.715373966406332,ambig,0.333,5.866666667,1.466769385,0.189359113
049,68,0,2,9,23,215,1705.7569306023943,1709.9423933613289,stimuli/116_xa.png,l,4.173596579843434,harmless,0.333,6.63559322,0.958030802,0.050918763
049,68,0,2,9,24,216,1710.4964930003625,1714.7823525589192,stimuli/346_zb.png,a,4.274042216333328,awful,0.333,1.288135593,0.983499162,0.128040685
049,68,0,2,10,1,217,1729.4055894591147,1736.054357017245,stimuli/205_yb.png,l,6.637374781654216,ambig,0.333,5.847457627,1.52918233,0.199082582
049,68,0,2,10,2,218,1736.608512976236,1741.9503577104188,stimuli/264_xa.png,l,5.330074653465999,harmless,0.333,6.533333333,0.947193297,0.122282129
049,68,0,2,10,3,219,1742.4991632746533,1747.91830969273,stimuli/222_ya.png,l,5.407457863417221,ambig,0.333,5.931034483,1.543089507,0.202617579
049,68,0,2,10,4,220,1748.4678123639897,1752.9023160100332,stimuli/225_ya.png,l,4.422683153068647,ambig,0.333,5.85,1.792876677,0.231459384
049,68,0,2,10,5,221,1753.453938753053,1760.3103177744488,stimuli/358_za.png,l,6.844550257665105,awful,0.333,3.949152542,2.112554662,0.275031191
049,68,0,2,10,6,222,1760.8634264975553,1767.5583204841241,stimuli/280_xb.png,l,6.683119179710047,harmless,0.333,6.333333333,1.068289726,0.137915611
049,68,0,2,10,7,223,1768.1105674726714,1773.3822986020532,stimuli/299_za.png,a,5.259773184225196,awful,0.333,1.288135593,0.929420425,0.121000233
049,68,0,2,10,8,224,1773.9395820902428,1778.79829622322,stimuli/186_xa.png,l,4.846852286194917,harmless,0.333,6.65,0.879618561,0.113558268
049,68,0,2,10,9,225,1779.3454405460216,1783.7902842187905,stimuli/190_xc.png,l,4.4330322382447775,harmless,0.333,6.517241379,1.046990328,0.137476565
049,68,0,2,10,10,226,1784.3476248146326,1789.3182911819895,stimuli/360_za.png,a,4.9588218497810885,awful,0.333,3.2,2.207844259,0.285031468
049,68,0,2,10,11,227,1789.8780921323341,1794.750301784312,stimuli/107_xa.png,l,4.860374980547931,harmless,0.333,6.813559322,0.540580029,0.070377525
049,68,0,2,10,12,228,1795.3006394085824,1807.5502560982131,stimuli/353_zb.png,a,12.237870633485727,awful,0.333,1.949152542,1.623361018,0.211343603
049,68,0,2,10,13,229,1808.0992585853382,1814.1023061638698,stimuli/250_yb.png,l,5.991421251528664,ambig,0.333,5.950819672,1.585625318,0.203018519
049,68,0,2,10,14,230,1814.6630243810068,1820.6302556255832,stimuli/272_xb.png,l,5.955424536194187,harmless,0.333,6.355932203,1.029943284,0.134087194
049,68,0,2,10,15,231,1821.1782522306312,1826.1982473863463,stimuli/316_za.png,a,5.0083448041114025,awful,0.333,2.344827586,1.802062407,0.236622386
049,68,0,2,10,16,232,1826.7435701724899,1833.6942110579985,stimuli/251_ya.png,l,6.938868047873257,ambig,0.333,5.655172414,1.792300532,0.235340589
049,68,0,2,10,17,233,1834.2436062093766,1840.1823029343504,stimuli/192_za.png,l,5.926714755245484,awful,0.333,2.68852459,2.093967396,0.268105052
049,68,0,2,10,18,234,1840.7295031832473,1846.038213673135,stimuli/144_xa.png,l,5.2969085076474585,harmless,0.333,6.542372881,1.00553698,0.130909764
049,68,0,2,10,19,235,1846.5883457099262,1854.9262661648972,stimuli/241_yb.png,l,8.326060577412136,ambig,0.333,5.508474576,1.442852555,0.187843403
049,68,0,2,10,20,236,1855.4805505176191,1863.6942031810759,stimuli/371_zb.png,l,8.201950324233621,awful,0.333,3.131147541,2.085468851,0.267016925
049,68,0,2,10,21,237,1864.2470625998103,1870.4062011015776,stimuli/324_za.png,a,6.147379054891644,awful,0.333,2.491525424,1.994586478,0.259673041
049,68,0,2,10,22,238,1870.9549085982435,1876.4941838826344,stimuli/235_ya.png,l,5.527526471356396,ambig,0.333,5.694915254,1.567495667,0.204070554
049,68,0,2,10,23,239,1877.0479310297233,1882.2862155951152,stimuli/177_xb.png,l,5.22647116164444,harmless,0.333,6.482758621,1.063614811,0.139659467
049,68,0,2,10,24,240,1882.845041777182,1888.342194075376,stimuli/260_ya.png,l,5.48535976826679,ambig,0.333,4.966101695,2.016877936,0.262575142
