id,age,condition,counterbalance,block,trialinblock,trial,tstart,tend,trialstim,response,RT,trialtype,ethicfreq,norm_mean,norm_sd,norm_se
120,22,1,2,0,0,practice,5.513662472367287e-06,15.359620679402724,stimuli/prac_217_1.png,l,15.34540010173805,harmless,NA,NA,NA,NA
120,22,1,2,1,1,1,4.547125380951911,14.183982935501263,stimuli/248_zb.png,a,9.625423826975748,awful,0.333,3.288135593,1.991800844,0.259310383
120,22,1,2,1,2,2,14.806261906400323,21.240010996116325,stimuli/355_zb.png,a,6.421931362943724,awful,0.333,3.183333333,2.070713188,0.267327923
120,22,1,2,1,3,3,21.862657424993813,27.455974576529115,stimuli/340_za.png,a,5.581645935308188,awful,0.333,2.508474576,1.832398855,0.238558011
120,22,1,2,1,4,4,28.06450912868604,32.50395873747766,stimuli/275_yb.png,l,4.427745309425518,ambig,0.333,4.836065574,2.138382004,0.27379176
120,22,1,2,1,5,5,33.123192495433614,40.911963331280276,stimuli/210_yb.png,l,7.777265822282061,ambig,0.333,5.557377049,1.76564049,0.226067099
120,22,1,2,1,6,6,41.54989608377218,47.279892968479544,stimuli/231_xb.png,l,5.717843207763508,harmless,0.333,6.62295082,1.05141071,0.134619347
120,22,1,2,1,7,7,47.9082139225211,52.223895627772436,stimuli/171_xa.png,l,4.304133762605488,harmless,0.333,6.465517241,1.046556882,0.137419651
120,22,1,2,1,8,8,52.831191536039114,53.75989920692518,stimuli/329_zb.png,l,0.9170636299531907,awful,0.333,2.406779661,1.992387617,0.259386774
120,22,1,2,1,9,9,54.392148375744,57.071902001742274,stimuli/185_xa.png,l,2.6681678742170334,harmless,0.333,6.5,0.965506805,0.124646393
120,22,1,2,1,10,10,57.73958308296278,61.31991199916229,stimuli/318_za.png,l,3.5685411216691136,awful,0.333,3.06557377,2.197489875,0.281359747
120,22,1,2,1,11,11,61.95435173623264,65.75185924582183,stimuli/205_yb.png,l,3.7859028531238437,ambig,0.333,5.847457627,1.52918233,0.199082582
120,22,1,2,1,12,12,66.36064546531998,69.22389326477423,stimuli/183_xb.png,a,2.8519920899998397,harmless,0.333,6.448275862,1.095003225,0.143780967
120,22,1,2,1,13,13,69.81815249449573,71.69588474812917,stimuli/259_xc.png,a,1.866159892641008,harmless,0.333,6.568965517,0.993170874,0.130409725
120,22,1,2,1,14,14,72.36683986661956,73.96789017366245,stimuli/103_xb.png,a,1.5895653795450926,harmless,0.333,6.779661017,0.589207434,0.076708274
120,22,1,2,1,15,15,74.60856369673274,75.52788406121545,stimuli/296_yb.png,a,0.907343917991966,ambig,0.333,4.229508197,2.052587332,0.262806878
120,22,1,2,1,16,16,76.1848529400304,76.67183733242564,stimuli/291_za.png,a,0.4754100621212274,awful,0.333,2.593220339,1.830005126,0.238246374
120,22,1,2,1,17,17,77.24189436505549,82.73590417252854,stimuli/226_yb.png,l,5.482207834487781,ambig,0.333,5.683333333,1.712285287,0.22105508
120,22,1,2,1,18,18,83.34369081235491,84.18386320630088,stimuli/224_yb.png,l,0.8285460760816932,ambig,0.333,5.881355932,1.609077116,0.209483997
120,22,1,2,1,19,19,84.7756530251354,91.51988230319694,stimuli/244_xb.png,l,6.732514738803729,harmless,0.333,6.610169492,0.743174671,0.096753101
120,22,1,2,1,20,20,92.1645502068568,98.4238281226717,stimuli/350_ya.png,l,6.2474676722195,ambig,0.333,4.915254237,2.02814792,0.264042369
120,22,1,2,1,21,21,99.04715157183819,102.76783873746172,stimuli/339_ya.png,l,3.7083223876543343,ambig,0.333,4.949152542,1.960152429,0.25519011
120,22,1,2,1,22,22,103.41700120549649,113.00780956144445,stimuli/349_za.png,l,9.579078062903136,awful,0.333,3.288135593,2.101320172,0.273568585
120,22,1,2,1,23,23,113.60927380016074,118.07178266649134,stimuli/324_za.png,a,4.450751397991553,awful,0.333,2.491525424,1.994586478,0.259673041
120,22,1,2,1,24,24,118.67206497490406,121.93577010766603,stimuli/106_xc.png,a,3.252140254713595,harmless,0.333,6.661016949,0.863237081,0.112383896
120,22,1,2,2,1,25,131.00789266289212,139.38376183062792,stimuli/178_xa.png,a,8.364282234339043,harmless,0.333,6.483333333,1.112207557,0.143585378
120,22,1,2,2,2,26,139.96613677381538,142.61571396095678,stimuli/297_za.png,a,2.6376799035351723,awful,0.333,1.898305085,1.446695584,0.188343723
120,22,1,2,2,3,27,143.23124478384852,149.1597342644818,stimuli/338_zb.png,l,5.916879704222083,awful,0.333,3.310344828,2.137443107,0.28066003
120,22,1,2,2,4,28,149.79399204510264,152.7117464800831,stimuli/328_za.png,l,2.9060753418598324,awful,0.333,2.706896552,1.955725922,0.256799395
120,22,1,2,2,5,29,153.33586628478952,157.27172343223356,stimuli/156_xc.png,a,3.9242788788396865,harmless,0.333,6.590163934,0.955284411,0.122311635
120,22,1,2,2,6,30,157.8819204061292,163.27974921488203,stimuli/286_ya.png,a,5.386425407370552,ambig,0.333,5.06779661,1.779814082,0.231712057
120,22,1,2,2,7,31,163.8942682489287,166.99972352036275,stimuli/193_xc.png,a,3.094154663849622,harmless,0.333,6.482758621,1.012923151,0.133003326
120,22,1,2,2,8,32,167.61216108105145,168.6316800620407,stimuli/207_yb.png,a,1.007855641655624,ambig,0.333,5.655737705,1.662179753,0.212820309
120,22,1,2,2,9,33,169.27260407060385,171.40770448348485,stimuli/229_za.png,a,2.123524113325402,awful,0.333,3.406779661,2.043649913,0.266060557
120,22,1,2,2,10,34,172.00155923399143,175.26372640021145,stimuli/233_yb.png,a,3.2505711743142456,ambig,0.333,5.318309859,1.922973646,0.102060844
120,22,1,2,2,11,35,175.88901828904636,178.47171224700287,stimuli/112_xc.png,a,2.5710428280290216,harmless,0.333,6.706896552,0.749470472,0.098410294
120,22,1,2,2,12,36,179.10540840378962,184.45568785700016,stimuli/302_za.png,a,5.338687005918473,awful,0.333,3.137931034,2.188071937,0.287307921
120,22,1,2,2,13,37,185.04279918572865,188.5116513269022,stimuli/177_xb.png,l,3.4571801372803748,harmless,0.333,6.482758621,1.063614811,0.139659467
120,22,1,2,2,14,38,189.15441616927274,191.8796455548145,stimuli/276_ya.png,a,2.713444347959012,ambig,0.333,5.186440678,1.804922162,0.234980851
120,22,1,2,2,15,39,192.52359075192362,196.24763938877732,stimuli/303_zb.png,a,3.711639747954905,awful,0.333,3.620689655,2.158846233,0.283470398
120,22,1,2,2,16,40,196.87067533074878,200.0316722637508,stimuli/126_xa.png,a,3.1497132608201355,harmless,0.333,6.6,0.977717855,0.126222832
120,22,1,2,2,17,41,200.65189693681896,205.2636677173432,stimuli/250_yb.png,a,4.599275245564058,ambig,0.333,5.950819672,1.585625318,0.203018519
120,22,1,2,2,18,42,205.82748584426008,209.11964119109325,stimuli/319_ya.png,l,3.280228131217882,ambig,0.333,4.216666667,2.108028774,0.272145344
120,22,1,2,2,19,43,209.7432639626786,214.1116059559863,stimuli/354_zb.png,a,4.356561288004741,awful,0.333,2,1.701925887,0.221571878
120,22,1,2,2,20,44,214.72633333411068,218.19961978145875,stimuli/164_xb.png,a,3.462118171621114,harmless,0.333,6.830508475,0.460604639,0.059965616
120,22,1,2,2,21,45,218.77524263830855,222.08762746304274,stimuli/181_xa.png,a,3.3005533134564757,harmless,0.333,6.666666667,0.950765377,0.122743282
120,22,1,2,2,22,46,222.71417296188883,227.85558514203876,stimuli/147_ya.png,a,5.129466847516596,ambig,0.333,5.883333333,1.766847875,0.22809908
120,22,1,2,2,23,47,228.4176593213342,232.2795952213928,stimuli/298_za.png,a,3.8500204996671528,awful,0.333,2.881355932,2.026418156,0.263817173
120,22,1,2,2,24,48,232.84759480552748,236.94358557695523,stimuli/267_ya.png,l,4.084084035595879,ambig,0.333,5.103448276,1.898195405,0.249245267
120,22,1,2,3,1,49,246.4363732819911,251.3915729674045,stimuli/125_xc.png,l,4.943619447527453,harmless,0.333,6.683333333,0.999858747,0.129081209
120,22,1,2,3,2,50,252.0422765526455,256.87957505648956,stimuli/364_za.png,a,4.825839176308364,awful,0.333,1.677966102,1.279017376,0.166513879
120,22,1,2,3,3,51,257.4756526707206,262.99201242020354,stimuli/142_xa.png,l,5.5051099478732795,harmless,0.333,6.4,1.076718178,0.139003719
120,22,1,2,3,4,52,263.61643824283965,270.5275307819247,stimuli/352_zb.png,a,6.899274812312797,awful,0.333,2.93442623,2.135952968,0.273480754
120,22,1,2,3,5,53,271.0957288641948,274.59148537623696,stimuli/120_xa.png,a,3.4839387852698565,harmless,0.333,6.440677966,1.054893138,0.137335389
120,22,1,2,3,6,54,275.1602840728592,280.9595126870554,stimuli/314_zb.png,a,5.787900043651462,awful,0.333,1.833333333,1.451669602,0.18740974
120,22,1,2,3,7,55,281.5179355251603,285.81550624687225,stimuli/149_xa.png,a,4.285947160795331,harmless,0.333,6.721311475,0.933294301,0.11949609
120,22,1,2,3,8,56,286.37854613526724,289.9114533015527,stimuli/132_xc.png,l,3.5209189045708627,harmless,0.333,6.627118644,0.692280217,0.090127208
120,22,1,2,3,9,57,290.53226362285204,296.07947683148086,stimuli/217_yb.png,l,5.535608946112916,ambig,0.333,5.169491525,2.001314588,0.260548967
120,22,1,2,3,10,58,296.6801856744569,305.00746218976565,stimuli/212_ya.png,l,8.315561976050958,ambig,0.333,5.677966102,1.490668422,0.194068498
120,22,1,2,3,11,59,305.63350789877586,310.06353514897637,stimuli/195_xc.png,l,4.418378483271226,harmless,0.333,6.637640449,1.001766915,0.05309354
120,22,1,2,3,12,60,310.7057592414785,316.99956992059015,stimuli/258_ya.png,l,6.2823509578593075,ambig,0.333,5.627118644,1.78014243,0.231754804
120,22,1,2,3,13,61,317.56093005812727,320.1674528478179,stimuli/180_xc.png,l,2.594605420017615,harmless,0.333,6.672131148,0.723908638,0.092687003
120,22,1,2,3,14,62,320.8181528884452,323.8634191220626,stimuli/263_ya.png,l,3.0337738231755793,ambig,0.333,4.983050847,2.071910042,0.269739712
120,22,1,2,3,15,63,324.4754770155996,330.24739047838375,stimuli/366_za.png,a,5.760757790179923,awful,0.333,3.689655172,2.036568291,0.267414518
120,22,1,2,3,16,64,330.8670326541178,335.4794008980971,stimuli/230_yb.png,l,4.60078918770887,ambig,0.333,4.98245614,1.875511626,0.248417583
120,22,1,2,3,17,65,336.074192606844,339.46339304954745,stimuli/284_ya.png,l,3.3772566854022443,ambig,0.333,5.948275862,1.431750417,0.18799804
120,22,1,2,3,18,66,340.10393227101304,342.93538177595474,stimuli/312_yb.png,a,2.819918497465551,ambig,0.333,4.677966102,2.112692986,0.275049199
120,22,1,2,3,19,67,343.56291622063145,347.3913622600958,stimuli/316_za.png,a,3.816794515354559,awful,0.333,2.344827586,1.802062407,0.236622386
120,22,1,2,3,20,68,347.9633290495258,353.2153763566166,stimuli/238_xb.png,l,5.240314651047811,harmless,0.333,6.4,1.076718178,0.139003719
120,22,1,2,3,21,69,353.7731347773224,360.67131863790564,stimuli/368_za.png,a,6.886459475150332,awful,0.333,3.590163934,2.02794682,0.259651984
120,22,1,2,3,22,70,361.29606268764473,368.96737896231934,stimuli/308_zb.png,a,7.659559200285003,awful,0.333,1.644067797,1.471132708,0.191525165
120,22,1,2,3,23,71,369.55100003257394,373.23932570498437,stimuli/337_zb.png,a,3.676552450051531,awful,0.333,3.033333333,2.20143764,0.284204377
120,22,1,2,3,24,72,373.826422855258,376.4953709372785,stimuli/202_yb.png,a,2.6572146380785853,ambig,0.333,5.431034483,1.892849601,0.248543329
120,22,1,2,4,1,73,385.6990811978467,391.43932279059663,stimuli/363_zb.png,a,5.7285798287484795,awful,0.333,2.433333333,2.019956927,0.260775318
120,22,1,2,4,2,74,392.03798875724897,395.47129201400094,stimuli/301_za.png,a,3.421689935727045,awful,0.333,3.610169492,2.212947396,0.288101212
120,22,1,2,4,3,75,396.03552682930604,400.59927524556406,stimuli/191_ya.png,l,4.551884609507397,ambig,0.333,5.517241379,2.062542966,0.270825159
120,22,1,2,4,4,76,401.1725842601154,405.4392865567934,stimuli/213_ya.png,l,4.254970428068191,ambig,0.333,5.98245614,1.597891781,0.211645937
120,22,1,2,4,5,77,406.0035926580895,409.9992765057832,stimuli/194_xb.png,l,3.9837822318077087,harmless,0.333,6.586206897,1.026567825,0.134794959
120,22,1,2,4,6,78,410.6268341874238,414.3272367368918,stimuli/305_zb.png,a,3.6891350247897208,awful,0.333,2.75,2.12830003,0.274762352
120,22,1,2,4,7,79,414.9445493167732,419.23925520665944,stimuli/334_za.png,a,4.283063424518332,awful,0.333,3.333333333,2.214487481,0.285889104
120,22,1,2,4,8,80,419.92336240038276,421.5432306432631,stimuli/110_xa.png,a,1.6085317952092737,harmless,0.333,6.428571429,1.059281795,0.141552484
120,22,1,2,4,9,81,422.11201949371025,428.2712173408363,stimuli/200_ya.png,a,6.147358458954841,ambig,0.333,5.862068966,1.444266048,0.189641423
120,22,1,2,4,10,82,428.8960007750429,431.5992236516904,stimuli/182_xb.png,a,2.691007365938276,harmless,0.333,6.542372881,0.988241802,0.128658124
120,22,1,2,4,11,83,432.2460195024032,434.95127462176606,stimuli/192_za.png,a,2.6933629559352994,awful,0.333,2.68852459,2.093967396,0.268105052
120,22,1,2,4,12,84,435.5126607529819,441.5031741973944,stimuli/277_yb.png,l,5.978681933134794,ambig,0.333,5.491525424,2.02886822,0.264136144
120,22,1,2,4,13,85,442.11898465058766,447.1111892675981,stimuli/140_xb.png,l,4.980521585326642,harmless,0.333,6.724137931,0.790138861,0.103750315
120,22,1,2,4,14,86,447.67299208720215,452.5912222873885,stimuli/335_yb.png,l,4.906656263861805,ambig,0.333,5.016949153,2.046793332,0.266469795
120,22,1,2,4,15,87,453.1775061469525,455.7591898913961,stimuli/136_xc.png,l,2.5694316062144935,harmless,0.333,6.559322034,1.038420326,0.135190811
120,22,1,2,4,16,88,456.3096259373706,458.59916851343587,stimuli/184_xb.png,l,2.277663803193718,harmless,0.333,6.508474576,1.194425,0.15550089
120,22,1,2,4,17,89,459.236562485341,461.72716552973725,stimuli/236_yb.png,l,2.4793615136295557,ambig,0.333,5.93442623,1.49297078,0.19115532
120,22,1,2,4,18,90,462.3523589570541,465.0551856253296,stimuli/154_xc.png,l,2.691030996851623,harmless,0.333,6.5,0.965506805,0.124646393
120,22,1,2,4,19,91,465.65675974683836,470.61514997435734,stimuli/219_ya.png,l,4.946996278595179,ambig,0.333,5.271186441,1.998538332,0.260187529
120,22,1,2,4,20,92,471.261089211097,474.2552055537235,stimuli/163_xa.png,l,2.982237569987774,harmless,0.333,6.627118644,0.963082427,0.125382652
120,22,1,2,4,21,93,474.8609953969717,479.75112236104906,stimuli/237_ya.png,a,4.878655033651739,ambig,0.333,4.305084746,2.019339575,0.26289562
120,22,1,2,4,22,94,480.3754327867646,485.2791690805461,stimuli/371_zb.png,l,4.892124942038208,awful,0.333,3.131147541,2.085468851,0.267016925
120,22,1,2,4,23,95,485.8790287927259,490.599161030259,stimuli/310_zb.png,a,4.708483470370993,awful,0.333,3.224137931,2.102989547,0.276136056
120,22,1,2,4,24,96,491.1612025203649,494.88713452615775,stimuli/306_zb.png,a,3.7141528758220375,awful,0.333,2.352112676,1.917055413,0.101746737
120,22,1,2,5,1,97,504.44187687826343,509.47910905862227,stimuli/346_zb.png,a,5.025575142586604,awful,0.25,1.288135593,0.983499162,0.128040685
120,22,1,2,5,2,98,510.1033572568558,514.7351286909543,stimuli/123_xc.png,a,4.620105731766671,harmless,0.25,6.491525424,1.023396666,0.133234897
120,22,1,2,5,3,99,515.3600294911303,521.4551057533827,stimuli/300_za.png,a,6.08348578447476,awful,0.25,3.75,2.12032137,0.273732312
120,22,1,2,5,4,100,522.1038716188632,527.623044606531,stimuli/245_yb.png,a,5.5073844054713845,ambig,0.25,4.949152542,2.096168334,0.272897873
120,22,1,2,5,5,101,528.2124634757638,530.0870678087231,stimuli/201_yb.png,a,1.8627866061870009,ambig,0.25,5.898305085,1.626238682,0.211718243
120,22,1,2,5,6,102,530.7062917205039,535.1910449783318,stimuli/289_yb.png,l,4.4730099679436535,ambig,0.25,5.305084746,1.714584873,0.223219937
120,22,1,2,5,7,103,535.8152250412386,541.1190646011382,stimuli/330_ya.png,l,5.292247112840414,ambig,0.25,4.796610169,2.049219036,0.266785595
120,22,1,2,5,8,104,541.730714864796,545.7110119583085,stimuli/157_xc.png,l,3.968629421899095,harmless,0.25,6.603448276,0.877389573,0.115206895
120,22,1,2,5,9,105,546.3278625572566,551.4470098661259,stimuli/249_ya.png,l,5.106270137708634,ambig,0.25,5.327868852,1.859402337,0.238072074
120,22,1,2,5,10,106,552.0609204089269,556.5190642862581,stimuli/145_xa.png,l,4.446489202557132,harmless,0.25,6.661016949,0.822321556,0.107057148
120,22,1,2,5,11,107,557.1276976936497,559.3669903157279,stimuli/206_xa.png,l,2.2275658736471087,harmless,0.25,6.325842697,1.136094431,0.060212884
120,22,1,2,5,12,108,559.9976286564488,561.6149652607273,stimuli/159_xa.png,l,1.6056267912499607,harmless,0.25,6.389830508,1.174689235,0.152931512
120,22,1,2,5,13,109,562.2253682159353,564.9830071439501,stimuli/228_ya.png,l,2.7463887326885015,ambig,0.25,5.442622951,1.793735303,0.229664272
120,22,1,2,5,14,110,565.6353105292656,570.7909692812245,stimuli/268_zb.png,a,5.143829209730029,awful,0.25,2.655737705,2.048456703,0.262278005
120,22,1,2,5,15,111,571.4244066816755,576.8229637106415,stimuli/326_zb.png,a,5.3869594619609416,awful,0.25,3.389830508,2.220724867,0.289113752
120,22,1,2,5,16,112,577.4518785837572,583.734949097503,stimuli/203_yb.png,l,6.271264602430165,ambig,0.25,6,1.542501327,0.200816568
120,22,1,2,5,17,113,584.3580523869023,587.062969586812,stimuli/179_xb.png,l,2.6928470181301236,harmless,0.25,6.704918033,0.882123617,0.112944356
120,22,1,2,5,18,114,587.6713607793208,593.8069412896875,stimuli/331_za.png,a,6.124021146213636,awful,0.25,1.983606557,1.638004917,0.209725039
120,22,1,2,5,19,115,594.4196955023799,596.4389171297662,stimuli/313_zb.png,a,2.00754804816097,awful,0.25,2.101694915,1.688652955,0.219843889
120,22,1,2,5,20,116,597.098455850035,600.4309393961448,stimuli/114_xc.png,l,3.3196079505141824,harmless,0.25,6.644067797,0.97843492,0.127381377
120,22,1,2,5,21,117,601.0589933230076,603.0629408361856,stimuli/131_xb.png,l,1.9921920138876885,harmless,0.25,6.525423729,1.119666394,0.145768149
120,22,1,2,5,22,118,603.6790758180432,604.8389046054799,stimuli/121_xc.png,l,1.148167417384684,harmless,0.25,6.508474576,1.006408455,0.131023221
120,22,1,2,5,23,119,605.4840648157988,612.1669636918232,stimuli/336_ya.png,a,6.67126153036952,ambig,0.25,5.033898305,1.884291705,0.245313885
120,22,1,2,5,24,120,612.7255381601863,618.9109350009821,stimuli/151_xa.png,l,6.173629919998348,harmless,0.25,6.610169492,0.947172729,0.123311386
120,22,1,2,6,1,121,628.1634840671904,632.4468653248623,stimuli/246_ya.png,l,4.272109794663265,ambig,0.166,5.542372881,1.715266481,0.223308675
120,22,1,2,6,2,122,633.0530738257803,634.9908836591057,stimuli/321_zb.png,l,1.926221324596554,awful,0.166,2.918032787,2.177881861,0.278849198
120,22,1,2,6,3,123,635.6228484713938,637.2948657912202,stimuli/270_yb.png,l,1.6603012052364647,ambig,0.166,5.534482759,1.912246013,0.251090203
120,22,1,2,6,4,124,637.9432661682367,644.726922920905,stimuli/253_ya.png,a,6.772043431876227,ambig,0.166,5.491803279,1.849531029,0.236808182
120,22,1,2,6,5,125,645.4121943216305,650.3188663395122,stimuli/137_xa.png,l,4.895058696856722,harmless,0.166,6.355932203,1.094858074,0.14253838
120,22,1,2,6,6,126,650.8937594005838,654.622853197623,stimuli/264_xa.png,l,3.7172307781875134,harmless,0.166,6.533333333,0.947193297,0.122282129
120,22,1,2,6,7,127,655.2352230169345,659.4788495143875,stimuli/271_ya.png,l,4.231947404332459,ambig,0.166,5.711864407,1.771915459,0.230683744
120,22,1,2,6,8,128,660.0824613922741,663.0307786285412,stimuli/161_xc.png,l,2.936608998570591,harmless,0.166,6.796610169,0.609682252,0.079373868
120,22,1,2,6,9,129,663.6366858377587,666.4868059803266,stimuli/190_xc.png,l,2.838238612981513,harmless,0.166,6.517241379,1.046990328,0.137476565
120,22,1,2,6,10,130,667.1468271613121,668.8067869024817,stimuli/186_xa.png,l,1.6478233935777098,harmless,0.166,6.65,0.879618561,0.113558268
120,22,1,2,6,11,131,669.4151410735212,674.1267930306494,stimuli/348_za.png,a,4.700185540597886,awful,0.166,3.084745763,2.119597681,0.275948114
120,22,1,2,6,12,132,674.775648299139,678.6467706444673,stimuli/102_xc.png,l,3.859348335536197,harmless,0.166,6.66011236,0.937292468,0.049676401
120,22,1,2,6,13,133,679.259501619963,682.9907454194035,stimuli/266_zb.png,l,3.7196899491827935,awful,0.166,3.491525424,1.888010094,0.245797978
120,22,1,2,6,14,134,683.5618319641799,686.6227649762295,stimuli/168_xa.png,l,3.049240528140217,harmless,0.166,6.474576271,1.164946827,0.151663159
120,22,1,2,6,15,135,687.2409664650913,688.9907540839631,stimuli/144_xa.png,l,1.7380860764533281,harmless,0.166,6.542372881,1.00553698,0.130909764
120,22,1,2,6,16,136,689.6006214092486,691.5027630226687,stimuli/119_xc.png,l,1.8903270373120904,harmless,0.166,6.694915254,0.914523379,0.119060803
120,22,1,2,6,17,137,692.1315093298908,695.6707136912737,stimuli/165_xb.png,l,3.527686350978911,harmless,0.166,6.557377049,1.008705278,0.129151477
120,22,1,2,6,18,138,696.2906035957858,700.9668303355575,stimuli/251_ya.png,l,4.6645547358784825,ambig,0.166,5.655172414,1.792300532,0.235340589
120,22,1,2,6,19,139,701.5698408116587,703.8947294419631,stimuli/235_ya.png,l,2.313224109588191,ambig,0.166,5.694915254,1.567495667,0.204070554
120,22,1,2,6,20,140,704.4575842227787,706.8227372495458,stimuli/174_xc.png,l,2.353418401442468,harmless,0.166,6.533333333,1.111826512,0.143536185
120,22,1,2,6,21,141,707.4572463033255,710.0948060841765,stimuli/242_xb.png,l,2.6259437028784305,harmless,0.166,6.576271186,0.913564256,0.118935936
120,22,1,2,6,22,142,710.7005478783976,712.3107448522933,stimuli/199_za.png,l,1.598181536886841,awful,0.166,3.033898305,2.189048775,0.284989876
120,22,1,2,6,23,143,712.9062710830476,715.5827392502688,stimuli/285_yb.png,l,2.6648969878442585,ambig,0.166,4.120689655,2.119893958,0.278355714
120,22,1,2,6,24,144,716.2091835306492,719.2786787429359,stimuli/254_ya.png,l,3.057868894422427,ambig,0.166,5.983606557,1.627798137,0.208418195
120,22,1,2,7,1,145,833.874527533073,857.8704725003336,stimuli/197_xa.png,l,23.98415796039626,harmless,0.083,6.779661017,0.55918033,0.072799078
120,22,1,2,7,2,146,858.4360956209712,863.6464681711514,stimuli/122_xa.png,l,5.198278737952933,harmless,0.083,6.457627119,1.039264227,0.135300678
120,22,1,2,7,3,147,864.2853174018674,866.4065146762878,stimuli/188_xa.png,l,2.1092649386264384,harmless,0.083,6.655172414,0.806807095,0.105938962
120,22,1,2,7,4,148,866.9908612100407,869.7265223800205,stimuli/294_za.png,a,2.7238395048771054,awful,0.083,1.557377049,1.38473331,0.177296933
120,22,1,2,7,5,149,870.3366260125767,872.3504369910806,stimuli/223_yb.png,l,2.0022409805096686,ambig,0.083,5.542372881,1.77455224,0.231027024
120,22,1,2,7,6,150,872.9906087550335,876.4865767622832,stimuli/167_xb.png,l,3.4840994745027274,harmless,0.083,6.590163934,0.955284411,0.122311635
120,22,1,2,7,7,151,877.0653326595202,878.9744583345018,stimuli/113_xb.png,l,1.896716786082834,harmless,0.083,6.733333333,0.660422737,0.085260209
120,22,1,2,7,8,152,879.5370886235032,884.5024034418166,stimuli/260_ya.png,a,4.953353337943554,ambig,0.083,4.966101695,2.016877936,0.262575142
120,22,1,2,7,9,153,885.1135259526782,887.9264473917428,stimuli/274_xb.png,a,2.801146641606465,harmless,0.083,6.491525424,1.179901828,0.153610134
120,22,1,2,7,10,154,888.5587158589624,891.0944784048479,stimuli/243_ya.png,l,2.524040129734203,ambig,0.083,5.830508475,1.652088985,0.215083666
120,22,1,2,7,11,155,891.6861914237961,895.9104159125127,stimuli/265_yb.png,l,4.212689936859533,ambig,0.083,5.627118644,1.856008928,0.241631781
120,22,1,2,7,12,156,896.5748331965879,898.5264055654407,stimuli/172_xb.png,l,1.9399464449379593,harmless,0.083,6.482758621,1.127664553,0.14806961
120,22,1,2,7,13,157,899.1591687025502,901.0543888758402,stimuli/189_yb.png,l,1.8836942862253636,ambig,0.083,5.983333333,1.455459234,0.187898979
120,22,1,2,7,14,158,901.6746462380979,904.5583787271753,stimuli/128_xc.png,l,2.8721668233629316,harmless,0.083,6.627118644,0.98082135,0.127692063
120,22,1,2,7,15,159,905.1767613850534,907.5504431352019,stimuli/353_zb.png,l,2.3620538567192852,awful,0.083,1.949152542,1.623361018,0.211343603
120,22,1,2,7,16,160,908.1701317846309,909.4943686006591,stimuli/104_xc.png,l,1.3123615880031139,harmless,0.083,6.745762712,0.756425814,0.098478253
120,22,1,2,7,17,161,910.107511932496,911.1903978902847,stimuli/309_ya.png,l,1.071309264516458,ambig,0.083,4.706896552,1.946734744,0.255618795
120,22,1,2,7,18,162,911.7989927008748,914.2703623024281,stimuli/204_xb.png,l,2.4597728222142905,harmless,0.083,6.508474576,0.858484658,0.111765183
120,22,1,2,7,19,163,914.8766330308281,917.1983437221497,stimuli/175_xb.png,l,2.310149751836434,harmless,0.083,6.6,1.028409995,0.13276716
120,22,1,2,7,20,164,917.7829316831194,918.8063839983661,stimuli/282_xc.png,l,1.0117196592036635,harmless,0.083,6.55,0.998728005,0.128935231
120,22,1,2,7,21,165,919.4917963959742,920.638372677844,stimuli/173_yb.png,l,1.1349850161932409,ambig,0.083,5.796610169,1.242628763,0.161776485
120,22,1,2,7,22,166,921.2077014902607,922.6303713135421,stimuli/288_yb.png,l,1.4108363427221775,ambig,0.083,5.189655172,1.914459262,0.251380817
120,22,1,2,7,23,167,923.3713742094114,924.2064333078451,stimuli/134_xc.png,l,0.8236253708600998,harmless,0.083,6.516666667,0.965360505,0.124627505
120,22,1,2,7,24,168,924.7956729773432,925.6143402280286,stimuli/133_xa.png,l,0.8069846127182245,harmless,0.083,6.568965517,1.186356193,0.1557762
120,22,1,2,8,1,169,934.5576126978267,937.9983088276349,stimuli/196_xb.png,l,3.4290607534348965,harmless,0.0412,6.594366197,0.982313556,0.05213579
120,22,1,2,8,2,170,938.6398728350177,939.7184371266048,stimuli/351_zb.png,l,1.0669746012426913,awful,0.0412,3.06779661,2.033040926,0.264679384
120,22,1,2,8,3,171,940.2961150689516,942.4783516936004,stimuli/160_xb.png,l,2.170394085580483,harmless,0.0412,6.666666667,0.680644427,0.087870818
120,22,1,2,8,4,172,943.0352838265244,945.8235485712066,stimuli/170_xc.png,l,2.776423780946061,harmless,0.0412,6.583333333,1.062323432,0.137145365
120,22,1,2,8,5,173,946.4250793696847,949.0063164932653,stimuli/115_xb.png,l,2.56960292882286,harmless,0.0412,6.440677966,1.021681954,0.133011661
120,22,1,2,8,6,174,949.5809697026853,952.3344326871447,stimuli/208_xb.png,l,2.7420840016566217,harmless,0.0412,6.216666667,1.165778516,0.150501359
120,22,1,2,8,7,175,952.9280601888895,954.8303380729631,stimuli/109_xb.png,l,1.890856365673244,harmless,0.0412,6.644067797,0.97843492,0.127381377
120,22,1,2,8,8,176,955.4046832949389,958.8142947782762,stimuli/138_xc.png,l,3.3978240825235844,harmless,0.0412,6.661016949,0.70978796,0.092406522
120,22,1,2,8,9,177,959.383515677182,961.5182817152236,stimuli/257_yb.png,l,2.1229274375364184,ambig,0.0412,5.620689655,1.843219782,0.242026615
120,22,1,2,8,10,178,962.127168759238,966.1903061242774,stimuli/241_yb.png,l,4.051492142723873,ambig,0.0412,5.508474576,1.442852555,0.187843403
120,22,1,2,8,11,179,966.8043612081092,967.8863558936864,stimuli/162_xa.png,l,1.0707409454043955,harmless,0.0412,6.644067797,0.905209289,0.117848212
120,22,1,2,8,12,180,968.4960743454285,969.8382693326566,stimuli/176_xb.png,l,1.3304450020659715,harmless,0.0412,6.796610169,0.517942249,0.067430337
120,22,1,2,8,13,181,970.4834673523437,972.0143032853957,stimuli/108_xb.png,l,1.5190249017905444,harmless,0.0412,6.568965517,1.077880782,0.141532681
120,22,1,2,8,14,182,972.5804068974685,974.694248320302,stimuli/281_ya.png,l,2.101932324003428,ambig,0.0412,5.881355932,1.543448286,0.200939852
120,22,1,2,8,15,183,975.2856659551617,976.6224294197746,stimuli/127_xb.png,l,1.3246960397809744,harmless,0.0412,6.423728814,1.162686987,0.151368953
120,22,1,2,8,16,184,977.2467941963114,979.2222655015066,stimuli/155_xb.png,l,1.963782365899533,harmless,0.0412,6.655737705,0.892286312,0.114245555
120,22,1,2,8,17,185,979.8549482938834,983.126220773207,stimuli/221_xb.png,l,3.2597205981146544,harmless,0.0412,6.440677966,1.133672495,0.147591588
120,22,1,2,8,18,186,983.686613232363,985.4702565942425,stimuli/225_ya.png,l,1.7718279983382672,ambig,0.0412,5.85,1.792876677,0.231459384
120,22,1,2,8,19,187,986.0730012243148,989.3102749946993,stimuli/323_yb.png,l,3.2259286581538618,ambig,0.0412,4.603448276,1.955107169,0.256718148
120,22,1,2,8,20,188,989.9506889735349,993.3262513356749,stimuli/209_ya.png,l,3.363648537080735,ambig,0.0412,5.603448276,1.825161903,0.239655499
120,22,1,2,8,21,189,993.9381233341992,997.2702295763884,stimuli/101_xa.png,l,3.3203527121804655,harmless,0.0412,6.508522727,1.13475832,0.060482822
120,22,1,2,8,22,190,997.885090862168,1001.0702246138826,stimuli/262_ya.png,l,3.1734975879080594,ambig,0.0412,5.491525424,1.7750462,0.231091332
120,22,1,2,8,23,191,1001.6447478542104,1006.0541765931994,stimuli/220_yb.png,a,4.397641338407993,ambig,0.0412,4.75,2.096203186,0.270618668
120,22,1,2,8,24,192,1006.6449235093314,1010.2142023034394,stimuli/148_xc.png,l,3.557674925541505,harmless,0.0412,6.491525424,1.135218061,0.147792803
120,22,1,2,9,1,193,1019.3545700053219,1021.7901819841936,stimuli/325_yb.png,l,2.424008504021913,ambig,0.0412,5.131147541,1.811770863,0.231973488
120,22,1,2,9,2,194,1022.3585580845829,1024.126170360949,stimuli/143_xb.png,l,1.7559623278211802,harmless,0.0412,6.655172414,0.738697862,0.096995781
120,22,1,2,9,3,195,1024.7621468829457,1026.2941903462633,stimuli/124_xa.png,l,1.520263151731342,harmless,0.0412,6.344262295,1.181598436,0.151288177
120,22,1,2,9,4,196,1026.9248369578272,1029.9821871577296,stimuli/214_xb.png,l,3.045040954137221,harmless,0.0412,6.465517241,0.940614156,0.12350869
120,22,1,2,9,5,197,1030.5441242787056,1033.8862042631954,stimuli/283_yb.png,l,3.3302784054540098,ambig,0.0412,5.949152542,1.478859402,0.192531095
120,22,1,2,9,6,198,1034.452473684214,1037.8141305446625,stimuli/280_xb.png,l,3.3496366972103715,harmless,0.0412,6.333333333,1.068289726,0.137915611
120,22,1,2,9,7,199,1038.4447287132498,1042.8061488727108,stimuli/278_xb.png,l,4.349783207755536,harmless,0.0412,6.360655738,1.140654591,0.146045855
120,22,1,2,9,8,200,1043.422031399561,1045.1260935610626,stimuli/187_xc.png,l,1.6927229568827897,harmless,0.0412,6.224137931,1.185335891,0.155642228
120,22,1,2,9,9,201,1045.7589815470856,1048.5821248514112,stimuli/304_ya.png,a,2.8115228940732777,ambig,0.0412,4.034482759,2.017167697,0.264867095
120,22,1,2,9,10,202,1049.2233891424257,1051.366160877049,stimuli/150_xc.png,l,2.1309670046903193,harmless,0.0412,6.482758621,1.030097582,0.135258439
120,22,1,2,9,11,203,1051.9427711043973,1053.814131726278,stimuli/240_xa.png,l,1.8596283595543355,harmless,0.0412,6.482758621,1.096107616,0.143925981
120,22,1,2,9,12,204,1054.434336706996,1057.5021840699483,stimuli/135_xa.png,l,3.0562269526999444,harmless,0.0412,6.508474576,1.179901828,0.153610134
120,22,1,2,9,13,205,1058.101054442348,1059.6461081963498,stimuli/158_xa.png,l,1.5323156104423106,harmless,0.0412,6.786885246,0.661179605,0.084655374
120,22,1,2,9,14,206,1060.2629190171137,1063.8540904985275,stimuli/153_xb.png,l,3.5793817178346217,harmless,0.0412,6.633333333,0.973664521,0.125699549
120,22,1,2,9,15,207,1064.4723573657684,1066.8781379144639,stimuli/261_yb.png,l,2.3941073631867766,ambig,0.0412,5.706896552,1.901141123,0.249632059
120,22,1,2,9,16,208,1067.4805434437003,1075.6701000800822,stimuli/169_xc.png,l,8.177861789474264,harmless,0.0412,6.603448276,0.916508538,0.120343467
120,22,1,2,9,17,209,1076.2578978813253,1079.1020756836515,stimuli/227_xa.png,l,2.832586142932996,harmless,0.0412,6.180327869,1.05685377,0.135316259
120,22,1,2,9,18,210,1079.7311807840597,1085.9980520403478,stimuli/358_za.png,l,6.255286292172968,awful,0.0412,3.949152542,2.112554662,0.275031191
120,22,1,2,9,19,211,1086.6465292172506,1090.5103000432719,stimuli/315_yb.png,a,3.8518786625936627,ambig,0.0412,5.050847458,1.915667965,0.249398726
120,22,1,2,9,20,212,1091.143961935537,1095.1820901141036,stimuli/272_xb.png,l,4.026094230590388,harmless,0.0412,6.355932203,1.029943284,0.134087194
120,22,1,2,9,21,213,1095.780982148135,1099.9900786390062,stimuli/273_ya.png,a,4.197518615983427,ambig,0.0412,5.551724138,1.836973233,0.241206403
120,22,1,2,9,22,214,1100.646016824292,1104.3180376884993,stimuli/130_xc.png,l,3.659963285550475,harmless,0.0412,6.644067797,0.960651931,0.125066229
120,22,1,2,9,23,215,1104.9523573028855,1108.6380300321616,stimuli/247_ya.png,l,3.674084220547229,ambig,0.0412,4.65,2.081598147,0.268733165
120,22,1,2,9,24,216,1109.2630923090037,1110.8060638022143,stimuli/342_yb.png,l,1.5312329293228686,ambig,0.0412,4.916666667,2.085394461,0.269223267
120,22,1,2,10,1,217,1120.1003778157756,1123.1261987178586,stimuli/105_xa.png,l,3.014190251706168,harmless,0.0412,6.557377049,1.088187946,0.139328189
120,22,1,2,10,2,218,1123.6846491249744,1125.8619949768763,stimuli/107_xa.png,l,2.1654080022126436,harmless,0.0412,6.813559322,0.540580029,0.070377525
120,22,1,2,10,3,219,1126.4677647340577,1128.053978095064,stimuli/117_xc.png,l,1.5744712527375668,harmless,0.0412,6.627118644,0.868972939,0.113130641
120,22,1,2,10,4,220,1128.6209387148265,1130.558014420094,stimuli/129_xa.png,l,1.925133129581809,harmless,0.0412,6.770491803,0.642740036,0.082294429
120,22,1,2,10,5,221,1131.2030344216619,1134.1499822572805,stimuli/234_xb.png,l,2.9352967054583132,harmless,0.0412,6.637931034,0.788030542,0.103473479
120,22,1,2,10,6,222,1134.7023138813674,1139.3579610148445,stimuli/287_ya.png,l,4.6437506375368685,ambig,0.0412,5.950819672,1.407435369,0.180203633
120,22,1,2,10,7,223,1139.924252097262,1144.2459769670386,stimuli/317_za.png,a,4.3098267985042185,awful,0.0412,3.65,2.03215674,0.262350307
120,22,1,2,10,8,224,1144.8230318459682,1148.5579360448755,stimuli/139_xa.png,l,3.7231880843173712,harmless,0.0412,6.724137931,0.790138861,0.103750315
120,22,1,2,10,9,225,1149.119804636808,1155.7099458186422,stimuli/118_xb.png,l,6.578611749922857,harmless,0.0412,6.474576271,0.953323265,0.124112118
120,22,1,2,10,10,226,1156.27787726745,1159.4139429954812,stimuli/166_xa.png,l,3.1242838411126286,harmless,0.0412,6.593220339,1.052397002,0.13701042
120,22,1,2,10,11,227,1159.9805290682707,1164.3899719857145,stimuli/239_ya.png,a,4.397515307879075,ambig,0.0412,5.157894737,1.925296579,0.255011762
120,22,1,2,10,12,228,1165.0162989003584,1166.4699616038706,stimuli/198_yb.png,l,1.4410234151873738,ambig,0.0412,5.101694915,1.83542643,0.238952168
120,22,1,2,10,13,229,1167.032378822565,1168.6619459036738,stimuli/116_xa.png,l,1.6175410100258887,harmless,0.0412,6.63559322,0.958030802,0.050918763
120,22,1,2,10,14,230,1169.229079027893,1170.4539049186278,stimuli/141_xc.png,l,1.2135831783525646,harmless,0.0412,6.508474576,1.040107444,0.135410455
120,22,1,2,10,15,231,1171.0537685693707,1172.989875808591,stimuli/152_xa.png,l,1.924048085231334,harmless,0.0412,6.576271186,0.968528743,0.126091702
120,22,1,2,10,16,232,1173.6526306709275,1174.949957996374,stimuli/255_xb.png,l,1.2855674938764423,harmless,0.0412,6.770491803,0.642740036,0.082294429
120,22,1,2,10,17,233,1175.5401476211846,1177.445919308113,stimuli/215_yb.png,l,1.8943296887446195,ambig,0.0412,5.866666667,1.466769385,0.189359113
120,22,1,2,10,18,234,1178.0703959367238,1182.0379300741479,stimuli/218_yb.png,l,3.956568298395723,ambig,0.0412,5.850282486,1.552723069,0.0825263
120,22,1,2,10,19,235,1182.6204149003606,1185.6218989100307,stimuli/146_xa.png,l,2.9898836854845285,harmless,0.0412,6.442622951,1.162247681,0.148810567
120,22,1,2,10,20,236,1186.1919390074909,1187.6058784583583,stimuli/111_xa.png,l,1.402129600988701,harmless,0.0412,6.590163934,0.863655973,0.110579816
120,22,1,2,10,21,237,1188.1978825293481,1192.2060942070093,stimuli/279_ya.png,l,3.9966511321254075,ambig,0.0412,5.31147541,1.970964092,0.252356093
120,22,1,2,10,22,238,1192.8002069264185,1194.3898794320412,stimuli/232_yb.png,l,1.5779493018053472,ambig,0.0412,5.483333333,1.845669845,0.238274952
120,22,1,2,10,23,239,1194.9733031857759,1196.5338598783128,stimuli/216_xa.png,l,1.5489981160499156,harmless,0.0412,6.603448276,0.877389573,0.115206895
120,22,1,2,10,24,240,1197.0946603612974,1198.6619242422748,stimuli/222_ya.png,l,1.555320517392829,ambig,0.0412,5.931034483,1.543089507,0.202617579
