id,age,condition,counterbalance,block,trialinblock,trial,tstart,tend,trialstim,response,RT,trialtype,ethicfreq,norm_mean,norm_sd,norm_se
160,21,1,2,0,0,practice,3.1508971005678177e-06,14.583806473761797,stimuli/prac_217_1.png,l,14.4539554733783,harmless,NA,NA,NA,NA
160,21,1,2,1,1,1,4.4431471596471965,19.69570125057362,stimuli/330_ya.png,l,15.240760374814272,ambig,0.333,4.796610169,2.049219036,0.266785595
160,21,1,2,1,2,2,20.347332717850804,28.487789594801143,stimuli/331_za.png,a,8.127753376727924,awful,0.333,1.983606557,1.638004917,0.209725039
160,21,1,2,1,3,3,29.092586480546743,39.863774209748954,stimuli/203_yb.png,l,10.759399133035913,ambig,0.333,6,1.542501327,0.200816568
160,21,1,2,1,4,4,40.4835612650495,54.1356684982311,stimuli/336_ya.png,a,13.640563215361908,ambig,0.333,5.033898305,1.884291705,0.245313885
160,21,1,2,1,5,5,54.70632406277582,66.35166462906636,stimuli/224_yb.png,l,11.633868228644133,ambig,0.333,5.881355932,1.609077116,0.209483997
160,21,1,2,1,6,6,66.92515037045814,72.90378856146708,stimuli/333_za.png,a,5.966559724416584,awful,0.333,3.266666667,2.185209657,0.282109354
160,21,1,2,1,7,7,73.56665684678592,82.87967534479685,stimuli/231_xb.png,l,9.301293704891577,harmless,0.333,6.62295082,1.05141071,0.134619347
160,21,1,2,1,8,8,83.50714515266009,100.10366772953421,stimuli/280_xb.png,l,16.58488994371146,harmless,0.333,6.333333333,1.068289726,0.137915611
160,21,1,2,1,9,9,100.67869183281437,118.15162910427898,stimuli/220_yb.png,l,17.461307788966224,ambig,0.333,4.75,2.096203186,0.270618668
160,21,1,2,1,10,10,118.77939153951593,131.19165369588882,stimuli/191_ya.png,l,12.400330594275147,ambig,0.333,5.517241379,2.062542966,0.270825159
160,21,1,2,1,11,11,131.80995240760967,147.59961387352087,stimuli/140_xb.png,l,15.777774014510214,harmless,0.333,6.724137931,0.790138861,0.103750315
160,21,1,2,1,12,12,148.24590872856788,161.87965092645027,stimuli/314_zb.png,a,13.621841749642044,awful,0.333,1.833333333,1.451669602,0.18740974
160,21,1,2,1,13,13,162.4421771171037,172.08766498207115,stimuli/155_xb.png,l,9.633571268757805,harmless,0.333,6.655737705,0.892286312,0.114245555
160,21,1,2,1,14,14,172.70962173468433,182.72761104092933,stimuli/308_zb.png,a,10.006791872903705,awful,0.333,1.644067797,1.471132708,0.191525165
160,21,1,2,1,15,15,183.29196388903074,199.87962768948637,stimuli/218_yb.png,l,16.575700336834416,ambig,0.333,5.850282486,1.552723069,0.0825263
160,21,1,2,1,16,16,200.45393499336205,207.9435693626292,stimuli/240_xa.png,l,7.4779556561261415,harmless,0.333,6.482758621,1.096107616,0.143925981
160,21,1,2,1,17,17,208.5565208280459,214.6795456907712,stimuli/260_ya.png,l,6.111287466483191,ambig,0.333,4.966101695,2.016877936,0.262575142
160,21,1,2,1,18,18,215.3085747344885,221.69561184756458,stimuli/120_xa.png,l,6.375155569287017,harmless,0.333,6.440677966,1.054893138,0.137335389
160,21,1,2,1,19,19,222.29225336574018,226.28756423620507,stimuli/320_za.png,a,3.983718409668654,awful,0.333,1.423728814,1.117314975,0.14546202
160,21,1,2,1,20,20,226.8725707582198,246.32784994784743,stimuli/293_zb.png,l,19.443646556464955,awful,0.333,3.677966102,2.169066842,0.28238845
160,21,1,2,1,21,21,246.89439572999254,252.56754418159835,stimuli/179_xb.png,l,5.661372064612806,harmless,0.333,6.704918033,0.882123617,0.112944356
160,21,1,2,1,22,22,253.17950630630367,280.1916375483852,stimuli/363_zb.png,l,27.00014848005958,awful,0.333,2.433333333,2.019956927,0.260775318
160,21,1,2,1,23,23,280.80453505693004,287.751560023753,stimuli/123_xc.png,l,6.935398635221645,harmless,0.333,6.491525424,1.023396666,0.133234897
160,21,1,2,1,24,24,288.3624367089942,296.41553147137165,stimuli/332_zb.png,a,8.041508209193125,awful,0.333,2.694915254,2.002190501,0.260663001
160,21,1,2,2,1,25,306.07397017162293,311.04746985505335,stimuli/359_za.png,a,4.961749290348962,awful,0.333,2.01754386,1.641985167,0.217486248
160,21,1,2,2,2,26,311.65247587300837,319.31161837582476,stimuli/166_xa.png,l,7.6475634328089654,harmless,0.333,6.593220339,1.052397002,0.13701042
160,21,1,2,2,3,27,319.9790403076913,326.9517983791884,stimuli/349_za.png,a,6.960997438291088,awful,0.333,3.288135593,2.101320172,0.273568585
160,21,1,2,2,4,28,327.5419311998412,339.59951029205695,stimuli/250_yb.png,l,12.045979148242623,ambig,0.333,5.950819672,1.585625318,0.203018519
160,21,1,2,2,5,29,340.218109508045,345.23952448624186,stimuli/316_za.png,l,5.009578726720065,awful,0.333,2.344827586,1.802062407,0.236622386
160,21,1,2,2,6,30,345.8211923763156,354.76749660493806,stimuli/152_xa.png,l,8.933920531300828,harmless,0.333,6.576271186,0.968528743,0.126091702
160,21,1,2,2,7,31,355.3777518013958,363.92753550130874,stimuli/227_xa.png,l,8.53730705496855,harmless,0.333,6.180327869,1.05685377,0.135316259
160,21,1,2,2,8,32,364.61941014486365,374.16754953796044,stimuli/364_za.png,a,9.535950649529696,awful,0.333,1.677966102,1.279017376,0.166513879
160,21,1,2,2,9,33,374.752691936912,386.0235232352279,stimuli/271_ya.png,l,11.259630714310333,ambig,0.333,5.711864407,1.771915459,0.230683744
160,21,1,2,2,10,34,386.6824416399468,393.97548899916,stimuli/268_zb.png,a,7.281364313792437,awful,0.333,2.655737705,2.048456703,0.262278005
160,21,1,2,2,11,35,394.69518925086595,408.1835310177412,stimuli/275_yb.png,l,13.476399964652956,ambig,0.333,4.836065574,2.138382004,0.27379176
160,21,1,2,2,12,36,408.78158919978887,417.81548357964493,stimuli/315_yb.png,a,9.021971088368446,ambig,0.333,5.050847458,1.915667965,0.249398726
160,21,1,2,2,13,37,418.4291419987567,424.9834474436939,stimuli/125_xc.png,l,6.542701956350356,harmless,0.333,6.683333333,0.999858747,0.129081209
160,21,1,2,2,14,38,425.5972484347876,429.9115638677031,stimuli/158_xa.png,l,4.302693433593959,harmless,0.333,6.786885246,0.661179605,0.084655374
160,21,1,2,2,15,39,430.51993254199624,435.96746399463154,stimuli/135_xa.png,l,5.435940173221752,harmless,0.333,6.508474576,1.179901828,0.153610134
160,21,1,2,2,16,40,436.56803136901,440.9514049270656,stimuli/298_za.png,a,4.371811029501259,awful,0.333,2.881355932,2.026418156,0.263817173
160,21,1,2,2,17,41,441.53175776591524,449.11146784806624,stimuli/287_ya.png,l,7.56809477834031,ambig,0.333,5.950819672,1.407435369,0.180203633
160,21,1,2,2,18,42,449.7989093619399,463.92747799982317,stimuli/215_yb.png,l,14.116981297032908,ambig,0.333,5.866666667,1.466769385,0.189359113
160,21,1,2,2,19,43,464.56481561716646,469.2554122307338,stimuli/355_zb.png,a,4.678377150092274,awful,0.333,3.183333333,2.070713188,0.267327923
160,21,1,2,2,20,44,469.84809244656935,474.1354113169946,stimuli/113_xb.png,l,4.276071812491864,harmless,0.333,6.733333333,0.660422737,0.085260209
160,21,1,2,2,21,45,474.7385489298031,480.8314162227325,stimuli/194_xb.png,l,6.079925122205168,harmless,0.333,6.586206897,1.026567825,0.134794959
160,21,1,2,2,22,46,481.38599460269324,488.4954640765209,stimuli/324_za.png,a,7.097598957829177,awful,0.333,2.491525424,1.994586478,0.259673041
160,21,1,2,2,23,47,489.1118620876223,498.36744642909616,stimuli/279_ya.png,l,9.243912323610857,ambig,0.333,5.31147541,1.970964092,0.252356093
160,21,1,2,2,24,48,498.94597969949245,506.5994157688692,stimuli/223_yb.png,l,7.642502512782812,ambig,0.333,5.542372881,1.77455224,0.231027024
160,21,1,2,3,1,49,528.4608895245474,532.5514118587598,stimuli/199_za.png,a,4.078800691757351,awful,0.333,3.033898305,2.189048775,0.284989876
160,21,1,2,3,2,50,533.1194790678564,541.5753769893199,stimuli/130_xc.png,l,8.444186519132927,harmless,0.333,6.644067797,0.960651931,0.125066229
160,21,1,2,3,3,51,542.1431417246349,559.0074125740211,stimuli/200_ya.png,a,16.852208530297503,ambig,0.333,5.862068966,1.444266048,0.189641423
160,21,1,2,3,4,52,559.6599680038635,566.2873972456437,stimuli/170_xc.png,l,6.615848202491179,harmless,0.333,6.583333333,1.062323432,0.137145365
160,21,1,2,3,5,53,566.8624898782,573.2313951125834,stimuli/226_yb.png,l,6.35822098236531,ambig,0.333,5.683333333,1.712285287,0.22105508
160,21,1,2,3,6,54,573.7958936835639,582.183364026947,stimuli/212_ya.png,l,8.375868036411703,ambig,0.333,5.677966102,1.490668422,0.194068498
160,21,1,2,3,7,55,582.8744651572779,589.4793927997816,stimuli/244_xb.png,l,6.593237114138901,harmless,0.333,6.610169492,0.743174671,0.096753101
160,21,1,2,3,8,56,590.0473111351021,609.7753530433401,stimuli/269_za.png,a,19.716183601412922,awful,0.333,3.457627119,2.119873401,0.27598401
160,21,1,2,3,9,57,610.4208602067083,620.7433455793653,stimuli/108_xb.png,l,10.310635730391368,harmless,0.333,6.568965517,1.077880782,0.141532681
160,21,1,2,3,10,58,621.3334646152798,626.8713841005228,stimuli/119_xc.png,l,5.526140735251829,harmless,0.333,6.694915254,0.914523379,0.119060803
160,21,1,2,3,11,59,627.4666774843354,634.8793476650026,stimuli/325_yb.png,l,7.400826052296907,ambig,0.333,5.131147541,1.811770863,0.231973488
160,21,1,2,3,12,60,635.5369982796255,647.3914410979487,stimuli/208_xb.png,a,11.843052794225514,harmless,0.333,6.216666667,1.165778516,0.150501359
160,21,1,2,3,13,61,647.9564867210574,654.3593009077013,stimuli/139_xa.png,l,6.390919252065942,harmless,0.333,6.724137931,0.790138861,0.103750315
160,21,1,2,3,14,62,654.935362795135,659.3753339813557,stimuli/345_zb.png,a,4.428023082669824,awful,0.333,3.694915254,2.191317013,0.285285176
160,21,1,2,3,15,63,659.9652060759254,666.3753702151589,stimuli/356_za.png,a,6.398098669480532,awful,0.333,3.033333333,2.178217796,0.281206708
160,21,1,2,3,16,64,666.9556056878064,672.303329494549,stimuli/368_za.png,a,5.335861167637631,awful,0.333,3.590163934,2.02794682,0.259651984
160,21,1,2,3,17,65,672.912142821122,681.9592991748359,stimuli/198_yb.png,l,9.035726945148781,ambig,0.333,5.101694915,1.83542643,0.238952168
160,21,1,2,3,18,66,682.6202706980985,693.5596030661836,stimuli/340_za.png,a,10.927334245992824,awful,0.333,2.508474576,1.832398855,0.238558011
160,21,1,2,3,19,67,694.1561146155,704.5432966635562,stimuli/342_yb.png,a,10.375235913554206,ambig,0.333,4.916666667,2.085394461,0.269223267
160,21,1,2,3,20,68,705.2352658302989,712.1512789751869,stimuli/228_ya.png,a,6.903947281418368,ambig,0.333,5.442622951,1.793735303,0.229664272
160,21,1,2,3,21,69,712.7575185187161,719.9353155335411,stimuli/370_za.png,a,7.166035200236365,awful,0.333,2.393442623,1.882185684,0.240989182
160,21,1,2,3,22,70,720.5057257320732,727.3992809948977,stimuli/326_zb.png,a,6.881637485465035,awful,0.333,3.389830508,2.220724867,0.289113752
160,21,1,2,3,23,71,727.981122177327,733.9273125843611,stimuli/172_xb.png,l,5.9342730233911425,harmless,0.333,6.482758621,1.127664553,0.14806961
160,21,1,2,3,24,72,734.5636443193071,750.0152989446651,stimuli/189_yb.png,l,15.4400019061286,ambig,0.333,5.983333333,1.455459234,0.187898979
160,21,1,2,4,1,73,764.5697008818388,776.7112514690962,stimuli/253_ya.png,a,12.129999086260796,ambig,0.333,5.491803279,1.849531029,0.236808182
160,21,1,2,4,2,74,777.341768856626,785.2792273056693,stimuli/352_zb.png,a,7.925791157642379,awful,0.333,2.93442623,2.135952968,0.273480754
160,21,1,2,4,3,75,785.8536370096263,791.4792305352166,stimuli/249_ya.png,a,5.613901421893388,ambig,0.333,5.327868852,1.859402337,0.238072074
160,21,1,2,4,4,76,792.080583632458,807.9992048251443,stimuli/127_xb.png,l,15.907259525731206,harmless,0.333,6.423728814,1.162686987,0.151368953
160,21,1,2,4,5,77,808.6305583475623,814.9671898777597,stimuli/124_xa.png,l,6.324587328126654,harmless,0.333,6.344262295,1.181598436,0.151288177
160,21,1,2,4,6,78,815.5977966682985,822.5512314774096,stimuli/247_ya.png,a,6.94163991138339,ambig,0.333,4.65,2.081598147,0.268733165
160,21,1,2,4,7,79,823.1769660001155,826.2792099765502,stimuli/346_zb.png,a,3.0903214728459716,awful,0.333,1.288135593,0.983499162,0.128040685
160,21,1,2,4,8,80,826.9122842117213,833.9752192145679,stimuli/272_xb.png,l,7.051278739003465,harmless,0.333,6.355932203,1.029943284,0.134087194
160,21,1,2,4,9,81,834.5727953293826,840.2552381507121,stimuli/243_ya.png,l,5.670553006930277,ambig,0.333,5.830508475,1.652088985,0.215083666
160,21,1,2,4,10,82,840.8538106954657,845.383226653561,stimuli/109_xb.png,l,4.518006241647527,harmless,0.333,6.644067797,0.97843492,0.127381377
160,21,1,2,4,11,83,846.0005257842131,848.9351804445032,stimuli/295_za.png,a,2.9219354062806815,awful,0.333,2.3,1.825432384,0.235662307
160,21,1,2,4,12,84,849.5432663375977,857.863274813164,stimuli/284_ya.png,l,8.308354574954137,ambig,0.333,5.948275862,1.431750417,0.18799804
160,21,1,2,4,13,85,858.475922229467,862.9354447149672,stimuli/154_xc.png,l,4.447921359911561,harmless,0.333,6.5,0.965506805,0.124646393
160,21,1,2,4,14,86,863.574811426457,869.3352219557855,stimuli/164_xb.png,l,5.748790499288589,harmless,0.333,6.830508475,0.460604639,0.059965616
160,21,1,2,4,15,87,869.9813183124643,876.7752600957174,stimuli/168_xa.png,l,6.782370983855799,harmless,0.333,6.474576271,1.164946827,0.151663159
160,21,1,2,4,16,88,877.4007457077969,881.535193677526,stimuli/306_zb.png,a,4.122822425793856,awful,0.333,2.352112676,1.917055413,0.101746737
160,21,1,2,4,17,89,882.1410452828277,898.3272020712029,stimuli/207_yb.png,l,16.174508007476106,ambig,0.333,5.655737705,1.662179753,0.212820309
160,21,1,2,4,18,90,898.8819757988676,903.1751354041044,stimuli/337_zb.png,a,4.281359193613753,awful,0.333,3.033333333,2.20143764,0.284204377
160,21,1,2,4,19,91,903.7843177642208,909.015144163277,stimuli/344_za.png,l,5.219561224104837,awful,0.333,2.711864407,2.043077863,0.265986082
160,21,1,2,4,20,92,909.6424375281204,917.6474854513071,stimuli/354_zb.png,a,7.993405050132424,awful,0.333,2,1.701925887,0.221571878
160,21,1,2,4,21,93,918.2393964861985,926.3111938100774,stimuli/289_yb.png,l,8.060187533730641,ambig,0.333,5.305084746,1.714584873,0.223219937
160,21,1,2,4,22,94,926.9348125923425,936.6793145032134,stimuli/217_yb.png,l,9.73352306196466,ambig,0.333,5.169491525,2.001314588,0.260548967
160,21,1,2,4,23,95,937.306707904907,949.3671994877513,stimuli/221_xb.png,l,12.048501337645575,harmless,0.333,6.440677966,1.133672495,0.147591588
160,21,1,2,4,24,96,949.9352745735087,955.7274286902975,stimuli/302_za.png,a,5.780292265349999,awful,0.333,3.137931034,2.188071937,0.287307921
160,21,1,2,5,1,97,965.0143588345964,970.3831723027397,stimuli/162_xa.png,l,5.356758238282055,harmless,0.25,6.644067797,0.905209289,0.117848212
160,21,1,2,5,2,98,971.0441221646033,982.3991384226829,stimuli/251_ya.png,l,11.343235932756215,ambig,0.25,5.655172414,1.792300532,0.235340589
160,21,1,2,5,3,99,982.9878916009329,987.3591154061724,stimuli/305_zb.png,a,4.359708538046107,awful,0.25,2.75,2.12830003,0.274762352
160,21,1,2,5,4,100,987.9630198371597,996.3209340134636,stimuli/256_zb.png,a,8.345849494216964,awful,0.25,3.051724138,2.012438634,0.264246138
160,21,1,2,5,5,101,996.9105816159863,1002.143077921588,stimuli/150_xc.png,l,5.220036596059799,harmless,0.25,6.482758621,1.030097582,0.135258439
160,21,1,2,5,6,102,1002.7721006637439,1010.0790787471924,stimuli/238_xb.png,l,7.2953584471251816,harmless,0.25,6.4,1.076718178,0.139003719
160,21,1,2,5,7,103,1010.6981387629639,1016.3190880576149,stimuli/362_zb.png,a,5.608750311192125,awful,0.25,1.474576271,1.222715071,0.159183944
160,21,1,2,5,8,104,1016.9555974169634,1021.0390955090988,stimuli/106_xc.png,l,4.070965914987028,harmless,0.25,6.661016949,0.863237081,0.112383896
160,21,1,2,5,9,105,1021.6876931814477,1026.6390744778328,stimuli/216_xa.png,a,4.939978669397533,harmless,0.25,6.603448276,0.877389573,0.115206895
160,21,1,2,5,10,106,1027.2660370119847,1028.2390365111642,stimuli/245_yb.png,a,0.961095112375915,ambig,0.25,4.949152542,2.096168334,0.272897873
160,21,1,2,5,11,107,1028.8402722419705,1036.7190555259585,stimuli/195_xc.png,l,7.867103783180937,harmless,0.25,6.637640449,1.001766915,0.05309354
160,21,1,2,5,12,108,1037.29187251674,1053.6390433639754,stimuli/219_ya.png,a,16.335429118713364,ambig,0.25,5.271186441,1.998538332,0.260187529
160,21,1,2,5,13,109,1054.270455175545,1058.1830650980119,stimuli/115_xb.png,l,3.90113403997384,harmless,0.25,6.440677966,1.021681954,0.133011661
160,21,1,2,5,14,110,1058.8020428000018,1070.0471528091002,stimuli/283_yb.png,l,11.233436022186652,ambig,0.25,5.949152542,1.478859402,0.192531095
160,21,1,2,5,15,111,1070.6448033605702,1078.4230795283802,stimuli/254_ya.png,l,7.766571460757405,ambig,0.25,5.983606557,1.627798137,0.208418195
160,21,1,2,5,16,112,1078.9999637661967,1082.479076147778,stimuli/294_za.png,a,3.4675151945557445,awful,0.25,1.557377049,1.38473331,0.177296933
160,21,1,2,5,17,113,1083.1024003333878,1089.311048480915,stimuli/296_yb.png,a,6.197408572770655,ambig,0.25,4.229508197,2.052587332,0.262806878
160,21,1,2,5,18,114,1089.937438756926,1103.3510726788081,stimuli/270_yb.png,l,13.402425067033619,ambig,0.25,5.534482759,1.912246013,0.251090203
160,21,1,2,5,19,115,1103.95262269862,1109.1670753473882,stimuli/116_xa.png,l,5.202842464670539,harmless,0.25,6.63559322,0.958030802,0.050918763
160,21,1,2,5,20,116,1109.7782293001655,1115.8791605883744,stimuli/101_xa.png,l,6.0892049197573215,harmless,0.25,6.508522727,1.13475832,0.060482822
160,21,1,2,5,21,117,1116.479497562861,1124.7190157475416,stimuli/177_xb.png,l,8.227787483949214,harmless,0.25,6.482758621,1.063614811,0.139659467
160,21,1,2,5,22,118,1125.2933147805743,1130.7670314728748,stimuli/297_za.png,a,5.4616019919048995,awful,0.25,1.898305085,1.446695584,0.188343723
160,21,1,2,5,23,119,1131.3342621533666,1138.407010614872,stimuli/285_yb.png,a,7.060802327236161,ambig,0.25,4.120689655,2.119893958,0.278355714
160,21,1,2,5,24,120,1139.0387737371493,1145.39104252588,stimuli/347_zb.png,a,6.341410062974319,awful,0.25,3.796610169,2.147810923,0.279621165
160,21,1,2,6,1,121,1154.622745231958,1160.7670507715084,stimuli/257_yb.png,l,6.132448414107785,ambig,0.166,5.620689655,1.843219782,0.242026615
160,21,1,2,6,2,122,1161.3434454586823,1168.5511176558211,stimuli/167_xb.png,l,7.19578159507364,harmless,0.166,6.590163934,0.955284411,0.122311635
160,21,1,2,6,3,123,1169.2072791389655,1174.3110236686189,stimuli/173_yb.png,l,5.092122136382386,ambig,0.166,5.796610169,1.242628763,0.161776485
160,21,1,2,6,4,124,1174.9488587132655,1182.510990664363,stimuli/365_zb.png,a,7.550473324256018,awful,0.166,2.966101695,2.165291266,0.281896912
160,21,1,2,6,5,125,1183.1190734065603,1190.3189947160427,stimuli/151_xa.png,l,7.188332393299788,harmless,0.166,6.610169492,0.947172729,0.123311386
160,21,1,2,6,6,126,1190.9362517052796,1198.9350193613209,stimuli/206_xa.png,l,7.987229939782992,harmless,0.166,6.325842697,1.136094431,0.060212884
160,21,1,2,6,7,127,1199.5551053457893,1211.0310468738899,stimuli/301_za.png,a,11.46465547918342,awful,0.166,3.610169492,2.212947396,0.288101212
160,21,1,2,6,8,128,1211.6587774076033,1217.622955545783,stimuli/182_xb.png,l,5.95319613837637,harmless,0.166,6.542372881,0.988241802,0.128658124
160,21,1,2,6,9,129,1218.2451572704595,1228.9669248193968,stimuli/261_yb.png,a,10.683110390091315,ambig,0.166,5.706896552,1.901141123,0.249632059
160,21,1,2,6,10,130,1229.5756885213777,1236.951026047347,stimuli/183_xb.png,l,7.3637848435901105,harmless,0.166,6.448275862,1.095003225,0.143780967
160,21,1,2,6,11,131,1237.5716724744998,1241.5509597237688,stimuli/160_xb.png,l,3.9676112930756062,harmless,0.166,6.666666667,0.680644427,0.087870818
160,21,1,2,6,12,132,1242.1296103603672,1248.0309519569855,stimuli/371_zb.png,a,5.8897129020188,awful,0.166,3.131147541,2.085468851,0.267016925
160,21,1,2,6,13,133,1248.6124934228137,1256.4710164847784,stimuli/274_xb.png,l,7.846908151870593,harmless,0.166,6.491525424,1.179901828,0.153610134
160,21,1,2,6,14,134,1257.1111460758839,1267.439024380641,stimuli/128_xc.png,l,10.316233462421224,harmless,0.166,6.627118644,0.98082135,0.127692063
160,21,1,2,6,15,135,1268.0100048677996,1271.974963214714,stimuli/225_ya.png,l,3.952965738484636,ambig,0.166,5.85,1.792876677,0.231459384
160,21,1,2,6,16,136,1272.5429461407475,1277.302999845473,stimuli/159_xa.png,l,4.748276924015954,harmless,0.166,6.389830508,1.174689235,0.152931512
160,21,1,2,6,17,137,1277.9129695037846,1282.8310223766603,stimuli/149_xa.png,l,4.906303267693147,harmless,0.166,6.721311475,0.933294301,0.11949609
160,21,1,2,6,18,138,1283.4625854252372,1291.5749768419191,stimuli/213_ya.png,l,8.100722155999392,ambig,0.166,5.98245614,1.597891781,0.211645937
160,21,1,2,6,19,139,1292.1983179626986,1297.7029377755243,stimuli/304_ya.png,a,5.4933140717912465,ambig,0.166,4.034482759,2.017167697,0.264867095
160,21,1,2,6,20,140,1298.2944210937712,1309.0767203976866,stimuli/204_xb.png,l,10.770385464886203,harmless,0.166,6.508474576,0.858484658,0.111765183
160,21,1,2,6,21,141,1309.6418782668188,1314.830945576774,stimuli/185_xa.png,l,5.177608362864703,harmless,0.166,6.5,0.965506805,0.124646393
160,21,1,2,6,22,142,1315.447387698805,1322.7829408789985,stimuli/341_zb.png,a,7.3239678086247295,awful,0.166,3.603448276,2.15975677,0.283589957
160,21,1,2,6,23,143,1323.399051382672,1332.870895337779,stimuli/237_ya.png,l,9.45990924211219,ambig,0.166,4.305084746,2.019339575,0.26289562
160,21,1,2,6,24,144,1333.4831221268978,1347.6149163627997,stimuli/335_yb.png,a,14.120118673657998,ambig,0.166,5.016949153,2.046793332,0.266469795
160,21,1,2,7,1,145,1356.9047097670846,1363.2629236599896,stimuli/361_za.png,a,6.346531241433695,awful,0.083,2.416666667,1.907093508,0.246204713
160,21,1,2,7,2,146,1363.8225369662978,1377.3189525746275,stimuli/319_ya.png,l,13.484584870748222,ambig,0.083,4.216666667,2.108028774,0.272145344
160,21,1,2,7,3,147,1377.9210602804087,1390.5829065355938,stimuli/282_xc.png,l,12.649757942184806,harmless,0.083,6.55,0.998728005,0.128935231
160,21,1,2,7,4,148,1391.1539917858317,1399.9668511704076,stimuli/262_ya.png,a,8.80119012366049,ambig,0.083,5.491525424,1.7750462,0.231091332
160,21,1,2,7,5,149,1400.5916144689545,1409.7988546171691,stimuli/176_xb.png,l,9.195547650568187,harmless,0.083,6.796610169,0.517942249,0.067430337
160,21,1,2,7,6,150,1410.3777202938218,1417.9508503919933,stimuli/188_xa.png,l,7.5613080251496285,harmless,0.083,6.655172414,0.806807095,0.105938962
160,21,1,2,7,7,151,1418.627788822865,1428.4549093681853,stimuli/146_xa.png,l,9.815451678354293,harmless,0.083,6.442622951,1.162247681,0.148810567
160,21,1,2,7,8,152,1429.065226004459,1433.07894168864,stimuli/209_ya.png,l,4.002263826318085,ambig,0.083,5.603448276,1.825161903,0.239655499
160,21,1,2,7,9,153,1433.6666645661462,1439.7189917229116,stimuli/145_xa.png,l,6.041844553779811,harmless,0.083,6.661016949,0.822321556,0.107057148
160,21,1,2,7,10,154,1440.2957034560386,1444.918977623107,stimuli/201_yb.png,l,4.612106665968895,ambig,0.083,5.898305085,1.626238682,0.211718243
160,21,1,2,7,11,155,1445.4897186520975,1456.1111350480933,stimuli/232_yb.png,l,10.60964000900276,ambig,0.083,5.483333333,1.845669845,0.238274952
160,21,1,2,7,12,156,1456.688942460576,1460.4027732266113,stimuli/318_za.png,a,3.70193149917759,awful,0.083,3.06557377,2.197489875,0.281359747
160,21,1,2,7,13,157,1460.997436456848,1465.9989976622164,stimuli/288_yb.png,a,4.990523673361167,ambig,0.083,5.189655172,1.914459262,0.251380817
160,21,1,2,7,14,158,1466.5858670754824,1477.5111994026229,stimuli/264_xa.png,l,10.914004137041047,harmless,0.083,6.533333333,0.947193297,0.122282129
160,21,1,2,7,15,159,1478.0991511044558,1487.2788263706025,stimuli/222_ya.png,l,9.169330509146675,ambig,0.083,5.931034483,1.543089507,0.202617579
160,21,1,2,7,16,160,1487.846533604432,1492.1907844780944,stimuli/131_xb.png,l,4.3332487877923995,harmless,0.083,6.525423729,1.119666394,0.145768149
160,21,1,2,7,17,161,1492.7520330327097,1497.406782971928,stimuli/121_xc.png,l,4.643158266087994,harmless,0.083,6.508474576,1.006408455,0.131023221
160,21,1,2,7,18,162,1498.0181129737757,1502.8628463086206,stimuli/242_xb.png,l,4.833442559931427,harmless,0.083,6.576271186,0.913564256,0.118935936
160,21,1,2,7,19,163,1503.429819807643,1511.6627816392574,stimuli/276_ya.png,l,8.221155118662864,ambig,0.083,5.186440678,1.804922162,0.234980851
160,21,1,2,7,20,164,1512.2434282868635,1522.2468141803984,stimuli/148_xc.png,l,9.991736718919128,harmless,0.083,6.491525424,1.135218061,0.147792803
160,21,1,2,7,21,165,1522.8196721312124,1537.3587798494846,stimuli/175_xb.png,l,14.527274223743007,harmless,0.083,6.6,1.028409995,0.13276716
160,21,1,2,7,22,166,1537.934587706346,1542.80677249562,stimuli/196_xb.png,l,4.860571060795337,harmless,0.083,6.594366197,0.982313556,0.05213579
160,21,1,2,7,23,167,1543.3801830122247,1553.6947426295374,stimuli/105_xa.png,l,10.303066799417138,harmless,0.083,6.557377049,1.088187946,0.139328189
160,21,1,2,7,24,168,1554.2970110245515,1561.886775599094,stimuli/259_xc.png,l,7.577755818609148,harmless,0.083,6.568965517,0.993170874,0.130409725
160,21,1,2,8,1,169,1623.0586932823062,1626.0867532286793,stimuli/114_xc.png,l,3.016346181044355,harmless,0.0412,6.644067797,0.97843492,0.127381377
160,21,1,2,8,2,170,1626.681612594286,1631.5827505725902,stimuli/278_xb.png,l,4.889461628394201,harmless,0.0412,6.360655738,1.140654591,0.146045855
160,21,1,2,8,3,171,1632.1658760865685,1635.9187338326592,stimuli/122_xa.png,l,3.7407950332853943,harmless,0.0412,6.457627119,1.039264227,0.135300678
160,21,1,2,8,4,172,1636.4914054942783,1641.9427371660713,stimuli/309_ya.png,a,5.4394461896736175,ambig,0.0412,4.706896552,1.946734744,0.255618795
160,21,1,2,8,5,173,1642.570401140023,1653.44682056061,stimuli/277_yb.png,a,10.865115648834035,ambig,0.0412,5.491525424,2.02886822,0.264136144
160,21,1,2,8,6,174,1654.009083662182,1659.926737963222,stimuli/163_xa.png,l,5.905827895505354,harmless,0.0412,6.627118644,0.963082427,0.125382652
160,21,1,2,8,7,175,1660.5161835227627,1664.8707527655642,stimuli/184_xb.png,l,4.342904314398766,harmless,0.0412,6.508474576,1.194425,0.15550089
160,21,1,2,8,8,176,1665.4471297296695,1671.3828765244689,stimuli/174_xc.png,l,5.924134641652927,harmless,0.0412,6.533333333,1.111826512,0.143536185
160,21,1,2,8,9,177,1672.0077036262956,1688.2147913561203,stimuli/339_ya.png,a,16.195464549120516,ambig,0.0412,4.949152542,1.960152429,0.25519011
160,21,1,2,8,10,178,1688.831320518162,1694.2467074480373,stimuli/327_zb.png,a,5.403649533865973,awful,0.0412,2.502808989,1.906990248,0.101070281
160,21,1,2,8,11,179,1694.843035858823,1704.2707103877328,stimuli/265_yb.png,a,9.416061194147915,ambig,0.0412,5.627118644,1.856008928,0.241631781
160,21,1,2,8,12,180,1704.9014739289414,1713.3746868923772,stimuli/180_xc.png,l,8.461664219386876,harmless,0.0412,6.672131148,0.723908638,0.092687003
160,21,1,2,8,13,181,1713.9459221980069,1721.4786941171624,stimuli/205_yb.png,l,7.5211526767816395,ambig,0.0412,5.847457627,1.52918233,0.199082582
160,21,1,2,8,14,182,1722.0505178286694,1735.5347072780132,stimuli/165_xb.png,l,13.472538699395955,harmless,0.0412,6.557377049,1.008705278,0.129151477
160,21,1,2,8,15,183,1736.0976162869483,1742.5026560968254,stimuli/118_xb.png,l,6.393454438308254,harmless,0.0412,6.474576271,0.953323265,0.124112118
160,21,1,2,8,16,184,1743.1117518108804,1748.4626484403852,stimuli/258_ya.png,l,5.33872560900636,ambig,0.0412,5.627118644,1.78014243,0.231754804
160,21,1,2,8,17,185,1749.0303521298338,1755.4786578833591,stimuli/117_xc.png,l,6.436385219218209,harmless,0.0412,6.627118644,0.868972939,0.113130641
160,21,1,2,8,18,186,1756.0747007557657,1761.686647126684,stimuli/110_xa.png,l,5.600421257549897,harmless,0.0412,6.428571429,1.059281795,0.141552484
160,21,1,2,8,19,187,1762.2886004447937,1766.2466834234074,stimuli/103_xb.png,l,3.946249877801165,harmless,0.0412,6.779661017,0.589207434,0.076708274
160,21,1,2,8,20,188,1766.831473724218,1772.3506634728983,stimuli/102_xc.png,l,5.5073661003261805,harmless,0.0412,6.66011236,0.937292468,0.049676401
160,21,1,2,8,21,189,1772.9284960913938,1777.1266431252006,stimuli/236_yb.png,a,4.1862012930214405,ambig,0.0412,5.93442623,1.49297078,0.19115532
160,21,1,2,8,22,190,1777.6882028179243,1784.0226323558018,stimuli/126_xa.png,l,6.322782726259902,harmless,0.0412,6.6,0.977717855,0.126222832
160,21,1,2,8,23,191,1784.628726176219,1788.270681243157,stimuli/190_xc.png,l,3.6302617816254497,harmless,0.0412,6.517241379,1.046990328,0.137476565
160,21,1,2,8,24,192,1788.8463244722225,1794.7906141791027,stimuli/323_yb.png,a,5.932561369147152,ambig,0.0412,4.603448276,1.955107169,0.256718148
160,21,1,2,9,1,193,1803.8895805699285,1808.550662369933,stimuli/153_xb.png,a,4.649333376204595,harmless,0.0412,6.633333333,0.973664521,0.125699549
160,21,1,2,9,2,194,1809.149989523692,1820.1346346526407,stimuli/147_ya.png,l,10.972946723457426,ambig,0.0412,5.883333333,1.766847875,0.22809908
160,21,1,2,9,3,195,1820.7298874703702,1827.3585833203979,stimuli/157_xc.png,l,6.617086453828961,harmless,0.0412,6.603448276,0.877389573,0.115206895
160,21,1,2,9,4,196,1828.0151886679232,1834.9586276675109,stimuli/312_yb.png,l,6.931121468311176,ambig,0.0412,4.677966102,2.112692986,0.275049199
160,21,1,2,9,5,197,1835.5490999831818,1841.2546083910856,stimuli/263_ya.png,a,5.693831270094961,ambig,0.0412,4.983050847,2.071910042,0.269739712
160,21,1,2,9,6,198,1841.860742777586,1852.7025801632553,stimuli/133_xa.png,l,10.83018151554279,harmless,0.0412,6.568965517,1.186356193,0.1557762
160,21,1,2,9,7,199,1853.2562050423585,1863.1026382162236,stimuli/246_ya.png,a,9.83437794400379,ambig,0.0412,5.542372881,1.715266481,0.223308675
160,21,1,2,9,8,200,1863.71863292926,1869.3986039736774,stimuli/234_xb.png,l,5.668978804722428,harmless,0.0412,6.637931034,0.788030542,0.103473479
160,21,1,2,9,9,201,1869.9585807998665,1876.7506273966283,stimuli/169_xc.png,l,6.780221373075619,harmless,0.0412,6.603448276,0.916508538,0.120343467
160,21,1,2,9,10,202,1877.327803080203,1883.254614692647,stimuli/111_xa.png,l,5.915206154808402,harmless,0.0412,6.590163934,0.863655973,0.110579816
160,21,1,2,9,11,203,1883.8435423446354,1888.670532526914,stimuli/241_yb.png,a,4.815049167722464,ambig,0.0412,5.508474576,1.442852555,0.187843403
160,21,1,2,9,12,204,1889.2579438721295,1896.0385972941294,stimuli/107_xa.png,l,6.768855767324567,harmless,0.0412,6.813559322,0.540580029,0.070377525
160,21,1,2,9,13,205,1896.6181919793598,1905.7665722486563,stimuli/252_zb.png,l,9.137277752859518,awful,0.0412,2.711864407,1.983125776,0.258180985
160,21,1,2,9,14,206,1906.3251702201087,1914.0785419351887,stimuli/141_xc.png,l,7.741543340496719,harmless,0.0412,6.508474576,1.040107444,0.135410455
160,21,1,2,9,15,207,1914.6512931536417,1920.7665777625516,stimuli/255_xb.png,l,6.10321362526156,harmless,0.0412,6.770491803,0.642740036,0.082294429
160,21,1,2,9,16,208,1921.3494338858873,1925.7425850627478,stimuli/112_xc.png,l,4.381475614616647,harmless,0.0412,6.706896552,0.749470472,0.098410294
160,21,1,2,9,17,209,1926.3116494896822,1933.3665149833541,stimuli/350_ya.png,a,7.043120220536366,ambig,0.0412,4.915254237,2.02814792,0.264042369
160,21,1,2,9,18,210,1933.9436501008458,1939.8545003198087,stimuli/144_xa.png,l,5.898691013688222,harmless,0.0412,6.542372881,1.00553698,0.130909764
160,21,1,2,9,19,211,1940.435570745729,1948.2385658652056,stimuli/142_xa.png,l,7.791343187913299,harmless,0.0412,6.4,1.076718178,0.139003719
160,21,1,2,9,20,212,1948.8190356760751,1959.1665353847202,stimuli/267_ya.png,a,10.335539001738653,ambig,0.0412,5.103448276,1.898195405,0.249245267
160,21,1,2,9,21,213,1959.7641823915765,1964.9905441531446,stimuli/104_xc.png,l,5.214131664251909,harmless,0.0412,6.745762712,0.756425814,0.098478253
160,21,1,2,9,22,214,1965.630672956584,1983.9025849683676,stimuli/273_ya.png,l,18.260316006373614,ambig,0.0412,5.551724138,1.836973233,0.241206403
160,21,1,2,9,23,215,1984.4761412078515,1990.3505650113802,stimuli/171_xa.png,l,5.8623681797180325,harmless,0.0412,6.465517241,1.046556882,0.137419651
160,21,1,2,9,24,216,1990.9254898654763,1994.6305260520894,stimuli/178_xa.png,l,3.692425634013489,harmless,0.0412,6.483333333,1.112207557,0.143585378
160,21,1,2,10,1,217,2006.2830893588252,2014.8545499444008,stimuli/197_xa.png,l,8.559844100149348,harmless,0.0412,6.779661017,0.55918033,0.072799078
160,21,1,2,10,2,218,2015.4203773515765,2021.6705124408472,stimuli/161_xc.png,l,6.238389028469101,harmless,0.0412,6.796610169,0.609682252,0.079373868
160,21,1,2,10,3,219,2022.2691074348986,2025.8705196087249,stimuli/187_xc.png,l,3.5895613501779735,harmless,0.0412,6.224137931,1.185335891,0.155642228
160,21,1,2,10,4,220,2026.4556072631385,2033.438497808529,stimuli/233_yb.png,a,6.971422146074474,ambig,0.0412,5.318309859,1.922973646,0.102060844
160,21,1,2,10,5,221,2034.0576263535768,2039.0144828960765,stimuli/186_xa.png,l,4.945246358634904,harmless,0.0412,6.65,0.879618561,0.113558268
160,21,1,2,10,6,222,2039.582506388193,2044.8305103769526,stimuli/239_ya.png,a,5.2364387032575905,ambig,0.0412,5.157894737,1.925296579,0.255011762
160,21,1,2,10,7,223,2045.4053068375215,2052.7985612021293,stimuli/129_xa.png,l,7.381257030181587,harmless,0.0412,6.770491803,0.642740036,0.082294429
160,21,1,2,10,8,224,2053.4583870277274,2064.1585155001376,stimuli/138_xc.png,l,10.68848008546047,harmless,0.0412,6.661016949,0.70978796,0.092406522
160,21,1,2,10,9,225,2064.734926335048,2073.2224894685205,stimuli/286_ya.png,a,8.47564890049398,ambig,0.0412,5.06779661,1.779814082,0.231712057
160,21,1,2,10,10,226,2073.8366512225475,2079.582477243617,stimuli/136_xc.png,l,5.734158729435876,harmless,0.0412,6.559322034,1.038420326,0.135190811
160,21,1,2,10,11,227,2080.190639148932,2085.1904591612983,stimuli/229_za.png,l,4.988030628534034,awful,0.0412,3.406779661,2.043649913,0.266060557
160,21,1,2,10,12,228,2085.7599658770487,2092.302452399861,stimuli/132_xc.png,l,6.530679415911436,harmless,0.0412,6.627118644,0.692280217,0.090127208
160,21,1,2,10,13,229,2092.8716633373406,2098.4624487606343,stimuli/137_xa.png,l,5.579231953248382,harmless,0.0412,6.355932203,1.094858074,0.14253838
160,21,1,2,10,14,230,2099.062865291955,2102.542464467231,stimuli/156_xc.png,l,3.4675884500611573,harmless,0.0412,6.590163934,0.955284411,0.122311635
160,21,1,2,10,15,231,2103.164365293691,2108.6784582822584,stimuli/202_yb.png,a,5.502981413621455,ambig,0.0412,5.431034483,1.892849601,0.248543329
160,21,1,2,10,16,232,2109.3429310957436,2117.4624775112607,stimuli/214_xb.png,l,8.107070164289325,harmless,0.0412,6.465517241,0.940614156,0.12350869
160,21,1,2,10,17,233,2118.02488357923,2122.5025316416286,stimuli/181_xa.png,l,4.465732648037374,harmless,0.0412,6.666666667,0.950765377,0.122743282
160,21,1,2,10,18,234,2123.106817709282,2127.0144537515007,stimuli/143_xb.png,l,3.8960045906715095,harmless,0.0412,6.655172414,0.738697862,0.096995781
160,21,1,2,10,19,235,2127.623821612913,2137.8703923965804,stimuli/235_ya.png,a,10.234020883217454,ambig,0.0412,5.694915254,1.567495667,0.204070554
160,21,1,2,10,20,236,2138.4757891097106,2143.742451549042,stimuli/193_xc.png,l,5.254683221923187,harmless,0.0412,6.482758621,1.012923151,0.133003326
160,21,1,2,10,21,237,2144.350941921817,2151.7584365734365,stimuli/230_yb.png,a,7.3957710401155055,ambig,0.0412,4.98245614,1.875511626,0.248417583
160,21,1,2,10,22,238,2152.370310870465,2158.0544610139914,stimuli/134_xc.png,l,5.672032686183229,harmless,0.0412,6.516666667,0.965360505,0.124627505
160,21,1,2,10,23,239,2158.6256589042023,2171.038427940337,stimuli/210_yb.png,l,12.401422335067764,ambig,0.0412,5.557377049,1.76564049,0.226067099
160,21,1,2,10,24,240,2171.6405856646597,2178.4945294801146,stimuli/281_ya.png,l,6.842356868553907,ambig,0.0412,5.881355932,1.543448286,0.200939852
