id,age,condition,counterbalance,block,trialinblock,trial,tstart,tend,trialstim,response,RT,trialtype,ethicfreq,norm_mean,norm_sd,norm_se
173,20,0,2,0,0,practice,5.907611921429634e-06,5.207681879866868,stimuli/prac_217_1.png,l,5.185743891634047,harmless,NA,NA,NA,NA
173,20,0,2,1,1,1,4.251779985264875,13.959795846254565,stimuli/267_ya.png,l,9.696209945017472,ambig,0.333,5.103448276,1.898195405,0.249245267
173,20,0,2,1,2,2,14.576042135246098,23.071711408905685,stimuli/272_xb.png,l,8.484050434315577,harmless,0.333,6.355932203,1.029943284,0.134087194
173,20,0,2,1,3,3,23.692610983736813,32.03970672679134,stimuli/205_yb.png,a,8.335257925558835,ambig,0.333,5.847457627,1.52918233,0.199082582
173,20,0,2,1,4,4,32.6095308274962,44.08770744828507,stimuli/343_zb.png,a,11.466218286543153,awful,0.333,3.103448276,2.141401862,0.28117984
173,20,0,2,1,5,5,44.69789757335093,58.759667137404904,stimuli/359_za.png,a,14.049791537458077,awful,0.333,2.01754386,1.641985167,0.217486248
173,20,0,2,1,6,6,59.333920032018796,72.31164530583192,stimuli/249_ya.png,l,12.965807111817412,ambig,0.333,5.327868852,1.859402337,0.238072074
173,20,0,2,1,7,7,72.92724293109495,78.27962290076539,stimuli/305_zb.png,a,5.3404283308191225,awful,0.333,2.75,2.12830003,0.274762352
173,20,0,2,1,8,8,78.85135124495719,85.30371364904568,stimuli/179_xb.png,l,6.440470629720949,harmless,0.333,6.704918033,0.882123617,0.112944356
173,20,0,2,1,9,9,85.89097171952017,99.89559271011967,stimuli/235_ya.png,l,13.992746545467526,ambig,0.333,5.694915254,1.567495667,0.204070554
173,20,0,2,1,10,10,100.48498227307573,106.01565378764644,stimuli/127_xb.png,l,5.519003050751053,harmless,0.333,6.423728814,1.162686987,0.151368953
173,20,0,2,1,11,11,106.61103452998213,112.47963660652749,stimuli/298_za.png,a,5.856900923419744,awful,0.333,2.881355932,2.026418156,0.263817173
173,20,0,2,1,12,12,113.11262172786519,125.06357337697409,stimuli/340_za.png,a,11.939263886772096,awful,0.333,2.508474576,1.832398855,0.238558011
173,20,0,2,1,13,13,125.68544220586773,130.91954640019685,stimuli/128_xc.png,l,5.222378622740507,harmless,0.333,6.627118644,0.98082135,0.127692063
173,20,0,2,1,14,14,131.534520173911,139.8395559627097,stimuli/238_xb.png,l,8.29372375505045,harmless,0.333,6.4,1.076718178,0.139003719
173,20,0,2,1,15,15,140.47170337440912,151.48753754328936,stimuli/365_zb.png,a,11.003530038171448,awful,0.333,2.966101695,2.165291266,0.281896912
173,20,0,2,1,16,16,152.0868910064455,161.35953693208285,stimuli/370_za.png,a,9.260937289567664,awful,0.333,2.393442623,1.882185684,0.240989182
173,20,0,2,1,17,17,161.92674314102624,173.38353512668982,stimuli/207_yb.png,l,11.444872248335741,ambig,0.333,5.655737705,1.662179753,0.212820309
173,20,0,2,1,18,18,173.99011093052104,181.3515150847379,stimuli/271_ya.png,l,7.349218177143484,ambig,0.333,5.711864407,1.771915459,0.230683744
173,20,0,2,1,19,19,181.96907563647255,191.3834835329326,stimuli/213_ya.png,a,9.402651211130433,ambig,0.333,5.98245614,1.597891781,0.211645937
173,20,0,2,1,20,20,191.98175667750183,198.71944368525874,stimuli/247_ya.png,a,6.725809805677272,ambig,0.333,4.65,2.081598147,0.268733165
173,20,0,2,1,21,21,199.32876695599407,212.53555008023977,stimuli/326_zb.png,a,13.195141835603863,awful,0.333,3.389830508,2.220724867,0.289113752
173,20,0,2,1,22,22,213.1510405795416,217.89548243326135,stimuli/126_xa.png,l,4.7326918637845665,harmless,0.333,6.6,0.977717855,0.126222832
173,20,0,2,1,23,23,218.51488185022026,229.38353118824307,stimuli/204_xb.png,l,10.856864689616486,harmless,0.333,6.508474576,0.858484658,0.111765183
173,20,0,2,1,24,24,229.99287257599644,250.93546091357712,stimuli/187_xc.png,l,20.93083047075197,harmless,0.333,6.224137931,1.185335891,0.155642228
173,20,0,2,2,1,25,259.70898905349895,269.2954098081682,stimuli/285_yb.png,a,9.574702666257508,ambig,0.333,4.120689655,2.119893958,0.278355714
173,20,0,2,2,2,26,269.90199270122685,274.87147951254155,stimuli/227_xa.png,l,4.95810270390939,harmless,0.333,6.180327869,1.05685377,0.135316259
173,20,0,2,2,3,27,275.4811068321578,278.89538436580915,stimuli/294_za.png,a,3.4024893406312913,awful,0.333,1.557377049,1.38473331,0.177296933
173,20,0,2,2,4,28,279.5095125531079,286.8874247459462,stimuli/338_zb.png,a,7.3665198147064075,awful,0.333,3.310344828,2.137443107,0.28066003
173,20,0,2,2,5,29,287.51451005996205,294.86332690843847,stimuli/210_yb.png,l,7.3372752028517425,ambig,0.333,5.557377049,1.76564049,0.226067099
173,20,0,2,2,6,30,295.4821891199099,302.39134075283073,stimuli/224_yb.png,l,6.897351624560542,ambig,0.333,5.881355932,1.609077116,0.209483997
173,20,0,2,2,7,31,302.9970914501464,312.9753381755436,stimuli/226_yb.png,l,9.96654557227157,ambig,0.333,5.683333333,1.712285287,0.22105508
173,20,0,2,2,8,32,313.5805130705703,320.7753673988627,stimuli/284_ya.png,l,7.1832189473789185,ambig,0.333,5.948275862,1.431750417,0.18799804
173,20,0,2,2,9,33,321.3989880530862,326.4553146708058,stimuli/329_zb.png,a,5.043752702767961,awful,0.333,2.406779661,1.992387617,0.259386774
173,20,0,2,2,10,34,327.077425320982,342.87129361741245,stimuli/332_zb.png,a,15.782165567972697,awful,0.333,2.694915254,2.002190501,0.260663001
173,20,0,2,2,11,35,343.45887897361536,353.047285104054,stimuli/215_yb.png,l,9.576736485003494,ambig,0.333,5.866666667,1.466769385,0.189359113
173,20,0,2,2,12,36,353.65622516314033,367.2392722363584,stimuli/281_ya.png,a,13.571289206389338,ambig,0.333,5.881355932,1.543448286,0.200939852
173,20,0,2,2,13,37,367.8543992161285,373.9273067340255,stimuli/193_xc.png,l,6.061035435879603,harmless,0.333,6.482758621,1.012923151,0.133003326
173,20,0,2,2,14,38,374.5456935738912,381.5033803768456,stimuli/301_za.png,l,6.946334596956149,awful,0.333,3.610169492,2.212947396,0.288101212
173,20,0,2,2,15,39,382.08291355951224,387.4232591827167,stimuli/108_xb.png,l,5.328775226837024,harmless,0.333,6.568965517,1.077880782,0.141532681
173,20,0,2,2,16,40,388.0004895500606,396.2712048445828,stimuli/117_xc.png,l,8.25880973553285,harmless,0.333,6.627118644,0.868972939,0.113130641
173,20,0,2,2,17,41,396.845182835008,405.5191983981058,stimuli/220_yb.png,a,8.662394754588604,ambig,0.333,4.75,2.096203186,0.270618668
173,20,0,2,2,18,42,406.088988628122,412.35121142969,stimuli/138_xc.png,l,6.250885955640115,harmless,0.333,6.661016949,0.70978796,0.092406522
173,20,0,2,2,19,43,412.98234783974476,420.8391952001257,stimuli/352_zb.png,a,7.844672804814763,awful,0.333,2.93442623,2.135952968,0.273480754
173,20,0,2,2,20,44,421.46484297770076,433.72717605612706,stimuli/314_zb.png,a,12.250639014528133,awful,0.333,1.833333333,1.451669602,0.18740974
173,20,0,2,2,21,45,434.36609958147164,442.50316297414247,stimuli/154_xc.png,l,8.125050707603805,harmless,0.333,6.5,0.965506805,0.124646393
173,20,0,2,2,22,46,443.12653196102474,448.7991607937729,stimuli/362_zb.png,a,5.660295557463542,awful,0.333,1.474576271,1.222715071,0.159183944
173,20,0,2,2,23,47,449.41706162819173,460.0711332435021,stimuli/182_xb.png,l,10.642357859178446,harmless,0.333,6.542372881,0.988241802,0.128658124
173,20,0,2,2,24,48,460.66405205696356,464.22319821536075,stimuli/107_xa.png,l,3.5473181870765984,harmless,0.333,6.813559322,0.540580029,0.070377525
173,20,0,2,3,1,49,473.06891274196096,476.35108933760785,stimuli/153_xb.png,l,3.2706731531070545,harmless,0.333,6.633333333,0.973664521,0.125699549
173,20,0,2,3,2,50,476.97261827776674,480.6151474597864,stimuli/133_xa.png,l,3.6308284227270633,harmless,0.333,6.568965517,1.186356193,0.1557762
173,20,0,2,3,3,51,481.2373163989978,484.5190924536437,stimuli/363_zb.png,a,3.2700229139300063,awful,0.333,2.433333333,2.019956927,0.260775318
173,20,0,2,3,4,52,485.1367274422664,493.95113006117754,stimuli/222_ya.png,l,8.80300315155182,ambig,0.333,5.931034483,1.543089507,0.202617579
173,20,0,2,3,5,53,494.5550958502572,501.0070624394575,stimuli/198_yb.png,a,6.440194150083698,ambig,0.333,5.101694915,1.83542643,0.238952168
173,20,0,2,3,6,54,501.61095261015,509.3670869524358,stimuli/327_zb.png,a,7.74436899239663,awful,0.333,2.502808989,1.906990248,0.101070281
173,20,0,2,3,7,55,509.9643014399335,517.631068668561,stimuli/236_yb.png,l,7.655016450909898,ambig,0.333,5.93442623,1.49297078,0.19115532
173,20,0,2,3,8,56,518.2218398419209,522.9350320156664,stimuli/212_ya.png,l,4.7015540360007435,ambig,0.333,5.677966102,1.490668422,0.194068498
173,20,0,2,3,9,57,523.4948898531729,528.5110926616471,stimuli/318_za.png,a,5.004799796501175,awful,0.333,3.06557377,2.197489875,0.281359747
173,20,0,2,3,10,58,529.1255048116436,539.7110047553433,stimuli/312_yb.png,l,10.573540821787901,ambig,0.333,4.677966102,2.112692986,0.275049199
173,20,0,2,3,11,59,540.3090833401075,548.9750364897773,stimuli/141_xc.png,l,8.654021596885286,harmless,0.333,6.508474576,1.040107444,0.135410455
173,20,0,2,3,12,60,549.5982506953878,555.1110435884912,stimuli/371_zb.png,a,5.501114583108574,awful,0.333,3.131147541,2.085468851,0.267016925
173,20,0,2,3,13,61,555.684470194974,563.3029385608388,stimuli/337_zb.png,a,7.606964135542512,awful,0.333,3.033333333,2.20143764,0.284204377
173,20,0,2,3,14,62,563.9061489539454,569.2949494026834,stimuli/351_zb.png,a,5.37698508030735,awful,0.333,3.06779661,2.033040926,0.264679384
173,20,0,2,3,15,63,569.9295536233112,580.958953016554,stimuli/135_xa.png,l,11.017805366194807,harmless,0.333,6.508474576,1.179901828,0.153610134
173,20,0,2,3,16,64,581.5676941836718,590.2629596868064,stimuli/263_ya.png,l,8.683462737943046,ambig,0.333,4.983050847,2.071910042,0.269739712
173,20,0,2,3,17,65,590.8782863462111,599.1509468442528,stimuli/248_zb.png,a,8.260320527362637,awful,0.333,3.288135593,1.991800844,0.259310383
173,20,0,2,3,18,66,599.7682915686164,606.5429441377055,stimuli/183_xb.png,l,6.762804117752239,harmless,0.333,6.448275862,1.095003225,0.143780967
173,20,0,2,3,19,67,607.157365740044,609.518914041575,stimuli/292_zb.png,a,2.3498022500425577,awful,0.333,2.396551724,1.955107169,0.256718148
173,20,0,2,3,20,68,610.127680414822,617.1029012242798,stimuli/239_ya.png,a,6.963515718001872,ambig,0.333,5.157894737,1.925296579,0.255011762
173,20,0,2,3,21,69,617.7466233646264,629.366921931156,stimuli/339_ya.png,l,11.60878803464584,ambig,0.333,4.949152542,1.960152429,0.25519011
173,20,0,2,3,22,70,629.9997294280911,637.4949201793643,stimuli/137_xa.png,l,7.483471481245942,harmless,0.333,6.355932203,1.094858074,0.14253838
173,20,0,2,3,23,71,638.0617203334114,641.7109161400003,stimuli/231_xb.png,l,3.6376663701375946,harmless,0.333,6.62295082,1.05141071,0.134619347
173,20,0,2,3,24,72,642.3369920278201,647.3108647038462,stimuli/174_xc.png,l,4.962103781523183,harmless,0.333,6.533333333,1.111826512,0.143536185
173,20,0,2,4,1,73,656.0635674693622,662.766796136857,stimuli/270_yb.png,l,6.691562960506417,ambig,0.333,5.534482759,1.912246013,0.251090203
173,20,0,2,4,2,74,663.3684453259921,668.2868334262166,stimuli/178_xa.png,l,4.906646774848923,harmless,0.333,6.483333333,1.112207557,0.143585378
173,20,0,2,4,3,75,668.9056495577097,672.5428377994103,stimuli/320_za.png,a,3.625270867254585,awful,0.333,1.423728814,1.117314975,0.14546202
173,20,0,2,4,4,76,673.1623967238702,676.9348654190544,stimuli/195_xc.png,l,3.7607722682878375,harmless,0.333,6.637640449,1.001766915,0.05309354
173,20,0,2,4,5,77,677.5575361176161,684.1188527592458,stimuli/200_ya.png,a,6.5495229348307475,ambig,0.333,5.862068966,1.444266048,0.189641423
173,20,0,2,4,6,78,684.7564730495214,699.3988289394183,stimuli/201_yb.png,l,14.630526343127713,ambig,0.333,5.898305085,1.626238682,0.211718243
173,20,0,2,4,7,79,699.9570314438315,704.9668031473411,stimuli/258_ya.png,l,4.997887806035578,ambig,0.333,5.627118644,1.78014243,0.231754804
173,20,0,2,4,8,80,705.5909610069357,713.1587930364767,stimuli/289_yb.png,a,7.5561635656049475,ambig,0.333,5.305084746,1.714584873,0.223219937
173,20,0,2,4,9,81,713.7882768702693,721.1027795260306,stimuli/300_za.png,a,7.30274754576385,awful,0.333,3.75,2.12032137,0.273732312
173,20,0,2,4,10,82,721.7171885252465,729.7587947694119,stimuli/361_za.png,a,8.029772758949548,awful,0.333,2.416666667,1.907093508,0.246204713
173,20,0,2,4,11,83,730.3818061444908,735.9347393884091,stimuli/369_za.png,a,5.541288016946055,awful,0.333,2.948275862,2.055565093,0.26990892
173,20,0,2,4,12,84,736.5487911696546,752.0307420130121,stimuli/122_xa.png,l,15.470202428754419,harmless,0.333,6.457627119,1.039264227,0.135300678
173,20,0,2,4,13,85,752.6521732794354,763.2706755161053,stimuli/328_za.png,a,10.606756579014473,awful,0.333,2.706896552,1.955725922,0.256799395
173,20,0,2,4,14,86,763.8924541544402,783.4226778666489,stimuli/319_ya.png,a,19.51841385778971,ambig,0.333,4.216666667,2.108028774,0.272145344
173,20,0,2,4,15,87,784.0358131690882,792.0466364403255,stimuli/325_yb.png,a,7.999052407452837,ambig,0.333,5.131147541,1.811770863,0.231973488
173,20,0,2,4,16,88,792.6189835160039,798.5106669145171,stimuli/134_xc.png,l,5.879889691714197,harmless,0.333,6.516666667,0.965360505,0.124627505
173,20,0,2,4,17,89,799.0914072339656,802.526657834067,stimuli/180_xc.png,l,3.423577803885564,harmless,0.333,6.672131148,0.723908638,0.092687003
173,20,0,2,4,18,90,803.1692866589874,808.7426191363484,stimuli/257_yb.png,l,5.56158800132107,ambig,0.333,5.620689655,1.843219782,0.242026615
173,20,0,2,4,19,91,809.3099466497079,811.1826876497362,stimuli/316_za.png,a,1.860731859691441,awful,0.333,2.344827586,1.802062407,0.236622386
173,20,0,2,4,20,92,811.7950258087367,815.134710952756,stimuli/297_za.png,a,3.328275042818859,awful,0.333,1.898305085,1.446695584,0.188343723
173,20,0,2,4,21,93,815.7140361849451,828.4706423543394,stimuli/129_xa.png,l,12.744656105875038,harmless,0.333,6.770491803,0.642740036,0.082294429
173,20,0,2,4,22,94,829.0823184588226,833.5426333935466,stimuli/214_xb.png,l,4.448613781598397,harmless,0.333,6.465517241,0.940614156,0.12350869
173,20,0,2,4,23,95,834.1605854278896,837.3746346097905,stimuli/125_xc.png,l,3.202093210653402,harmless,0.333,6.683333333,0.999858747,0.129081209
173,20,0,2,4,24,96,837.9878900351468,840.5505725333933,stimuli/229_za.png,a,2.5512846062192693,awful,0.333,3.406779661,2.043649913,0.266060557
173,20,0,2,5,1,97,849.310269209207,852.4386014385382,stimuli/348_za.png,a,3.1163699565222487,awful,0.333,3.084745763,2.119597681,0.275948114
173,20,0,2,5,2,98,853.0365516296588,859.8705287692137,stimuli/341_zb.png,a,6.822096786694601,awful,0.333,3.603448276,2.15975677,0.283589957
173,20,0,2,5,3,99,860.4798394370591,874.7665826724842,stimuli/309_ya.png,l,14.275138574535958,ambig,0.333,4.706896552,1.946734744,0.255618795
173,20,0,2,5,4,100,875.3882774217054,879.0545283186948,stimuli/111_xa.png,l,3.6544016579864547,harmless,0.333,6.590163934,0.863655973,0.110579816
173,20,0,2,5,5,101,879.6395178384846,884.3665154824266,stimuli/278_xb.png,l,4.7153563554165885,harmless,0.333,6.360655738,1.140654591,0.146045855
173,20,0,2,5,6,102,884.9838456346188,888.1825092376675,stimuli/168_xa.png,l,3.1868978593265638,harmless,0.333,6.474576271,1.164946827,0.151663159
173,20,0,2,5,7,103,888.7951573531609,895.2385581942508,stimuli/245_yb.png,l,6.431720561813563,ambig,0.333,4.949152542,2.096168334,0.272897873
173,20,0,2,5,8,104,895.8774706920376,907.222522376338,stimuli/350_ya.png,a,11.333353288122453,ambig,0.333,4.915254237,2.02814792,0.264042369
173,20,0,2,5,9,105,907.8175017900066,923.2785228899447,stimuli/287_ya.png,l,15.449909927556291,ambig,0.333,5.950819672,1.407435369,0.180203633
173,20,0,2,5,10,106,923.9006615030812,931.3184706502361,stimuli/356_za.png,l,7.406126110930927,awful,0.333,3.033333333,2.178217796,0.281206708
173,20,0,2,5,11,107,931.9594693481922,948.3424802663503,stimuli/202_yb.png,a,16.37110299617052,ambig,0.333,5.431034483,1.892849601,0.248543329
173,20,0,2,5,12,108,948.9656901395647,952.7104309222195,stimuli/259_xc.png,l,3.7328431005589664,harmless,0.333,6.568965517,0.993170874,0.130409725
173,20,0,2,5,13,109,953.3309661899693,963.4064360674238,stimuli/324_za.png,a,10.06374745676294,awful,0.333,2.491525424,1.994586478,0.259673041
173,20,0,2,5,14,110,964.0182799502509,973.7344031230314,stimuli/209_ya.png,l,9.704240063088946,ambig,0.333,5.603448276,1.825161903,0.239655499
173,20,0,2,5,15,111,974.3340456687147,981.3423967710696,stimuli/159_xa.png,l,6.996639315388165,harmless,0.333,6.389830508,1.174689235,0.152931512
173,20,0,2,5,16,112,981.9550350405043,985.2784197024303,stimuli/136_xc.png,l,3.311534241423942,harmless,0.333,6.559322034,1.038420326,0.135190811
173,20,0,2,5,17,113,985.8704496063292,989.2544278092682,stimuli/321_zb.png,a,3.3722270315047354,awful,0.333,2.918032787,2.177881861,0.278849198
173,20,0,2,5,18,114,989.8728059845744,998.0864144532243,stimuli/336_ya.png,a,8.201334270182997,ambig,0.333,5.033898305,1.884291705,0.245313885
173,20,0,2,5,19,115,998.7052869047038,1005.838360247435,stimuli/358_za.png,l,7.121409998741001,awful,0.333,3.949152542,2.112554662,0.275031191
173,20,0,2,5,20,116,1006.4460848988965,1015.8063835283974,stimuli/102_xc.png,l,9.348642768571153,harmless,0.333,6.66011236,0.937292468,0.049676401
173,20,0,2,5,21,117,1016.420790164615,1021.5183358762879,stimuli/290_zb.png,l,5.085720497183502,awful,0.333,2.586206897,2.026443456,0.266085062
173,20,0,2,5,22,118,1022.1399187733186,1026.3103700337233,stimuli/186_xa.png,l,4.158677639788948,harmless,0.333,6.65,0.879618561,0.113558268
173,20,0,2,5,23,119,1026.8844657838345,1034.8863621505443,stimuli/237_ya.png,a,7.990055398317054,ambig,0.333,4.305084746,2.019339575,0.26289562
173,20,0,2,5,24,120,1035.5164265127387,1050.7423115429701,stimuli/372_zb.png,a,15.213961354340427,awful,0.333,2.796610169,2.082601664,0.271131643
173,20,0,2,6,1,121,1059.504524498363,1067.3022646910977,stimuli/342_yb.png,a,7.7859492427669466,ambig,0.333,4.916666667,2.085394461,0.269223267
173,20,0,2,6,2,122,1067.920124171651,1072.6222863052972,stimuli/344_za.png,l,4.690807958482765,awful,0.333,2.711864407,2.043077863,0.265986082
173,20,0,2,6,3,123,1073.199404820567,1076.270287184394,stimuli/346_zb.png,a,3.0590957462554798,awful,0.333,1.288135593,0.983499162,0.128040685
173,20,0,2,6,4,124,1076.8716980968602,1082.006236939109,stimuli/194_xb.png,l,5.122456840472296,harmless,0.333,6.586206897,1.026567825,0.134794959
173,20,0,2,6,5,125,1082.631934341276,1085.8782516878564,stimuli/116_xa.png,l,3.2345102491090074,harmless,0.333,6.63559322,0.958030802,0.050918763
173,20,0,2,6,6,126,1086.523982046987,1088.942248055013,stimuli/303_zb.png,a,2.4065719441277906,awful,0.333,3.620689655,2.158846233,0.283470398
173,20,0,2,6,7,127,1089.5552707177121,1096.2863241838058,stimuli/234_xb.png,l,6.7194299006368965,harmless,0.333,6.637931034,0.788030542,0.103473479
173,20,0,2,6,8,128,1096.9212001578417,1100.7262816326693,stimuli/347_zb.png,a,3.7930648513138294,awful,0.333,3.796610169,2.147810923,0.279621165
173,20,0,2,6,9,129,1101.3404767737957,1104.158237320371,stimuli/103_xb.png,l,2.8064185807015747,harmless,0.333,6.779661017,0.589207434,0.076708274
173,20,0,2,6,10,130,1104.7835515106563,1109.1582030557329,stimuli/367_zb.png,a,4.363069727201946,awful,0.333,3.413793103,2.086165649,0.27392697
173,20,0,2,6,11,131,1109.7421768477652,1111.9742050817003,stimuli/199_za.png,a,2.2202022317796946,awful,0.333,3.033898305,2.189048775,0.284989876
173,20,0,2,6,12,132,1112.617165524629,1118.406216695439,stimuli/304_ya.png,a,5.777293303865008,ambig,0.333,4.034482759,2.017167697,0.264867095
173,20,0,2,6,13,133,1119.0123289430048,1126.4542556200176,stimuli/142_xa.png,l,7.430375185213052,harmless,0.333,6.4,1.076718178,0.139003719
173,20,0,2,6,14,134,1127.0630432608305,1136.478186073131,stimuli/140_xb.png,l,9.403652760433033,harmless,0.333,6.724137931,0.790138861,0.103750315
173,20,0,2,6,15,135,1137.098868639092,1142.4701839180198,stimuli/277_yb.png,l,5.360004820628092,ambig,0.333,5.491525424,2.02886822,0.264136144
173,20,0,2,6,16,136,1143.0757081541233,1154.8061428887304,stimuli/330_ya.png,a,11.718708375352435,ambig,0.333,4.796610169,2.049219036,0.266785595
173,20,0,2,6,17,137,1155.4326976927696,1159.5741477378178,stimuli/124_xa.png,l,4.1297071443405,harmless,0.333,6.344262295,1.181598436,0.151288177
173,20,0,2,6,18,138,1160.15537800116,1166.3262798209907,stimuli/189_yb.png,l,6.158735928824171,ambig,0.333,5.983333333,1.455459234,0.187898979
173,20,0,2,6,19,139,1166.9444910057355,1174.934137198492,stimuli/219_ya.png,l,7.97850548196584,ambig,0.333,5.271186441,1.998538332,0.260187529
173,20,0,2,6,20,140,1175.555546409567,1183.1901419656351,stimuli/253_ya.png,l,7.6227116585941985,ambig,0.333,5.491803279,1.849531029,0.236808182
173,20,0,2,6,21,141,1183.8062200825661,1190.7261296083452,stimuli/317_za.png,a,6.908198132761754,awful,0.333,3.65,2.03215674,0.262350307
173,20,0,2,6,22,142,1191.2827756347833,1195.750117169111,stimuli/355_zb.png,a,4.455410769209266,awful,0.333,3.183333333,2.070713188,0.267327923
173,20,0,2,6,23,143,1196.3514851523796,1201.0701513864333,stimuli/241_yb.png,a,4.706880010198802,ambig,0.333,5.508474576,1.442852555,0.187843403
173,20,0,2,6,24,144,1201.6368964021094,1205.510089143063,stimuli/161_xc.png,l,3.861802725936286,harmless,0.333,6.796610169,0.609682252,0.079373868
173,20,0,2,7,1,145,1214.1468547882978,1218.5660924135009,stimuli/311_za.png,a,4.407642022706568,awful,0.333,3.116666667,1.975199339,0.254997138
173,20,0,2,7,2,146,1219.2208745263051,1225.1740486462368,stimuli/167_xb.png,l,5.941238234867342,harmless,0.333,6.590163934,0.955284411,0.122311635
173,20,0,2,7,3,147,1225.8176211252576,1229.9661170683103,stimuli/275_yb.png,a,4.136562420986593,ambig,0.333,4.836065574,2.138382004,0.27379176
173,20,0,2,7,4,148,1230.5765655559953,1241.3100707110716,stimuli/266_zb.png,a,10.721779977437109,awful,0.333,3.491525424,1.888010094,0.245797978
173,20,0,2,7,5,149,1241.8718753274297,1247.422037079814,stimuli/188_xa.png,l,5.538313694880344,harmless,0.333,6.655172414,0.806807095,0.105938962
173,20,0,2,7,6,150,1247.9941151589155,1250.7900814708555,stimuli/184_xb.png,l,2.784053269890137,harmless,0.333,6.508474576,1.194425,0.15550089
173,20,0,2,7,7,151,1251.4097215274815,1259.1740395878442,stimuli/228_ya.png,l,7.752678347169422,ambig,0.333,5.442622951,1.793735303,0.229664272
173,20,0,2,7,8,152,1259.794743421371,1263.83800854336,stimuli/113_xb.png,l,4.031459993566386,harmless,0.333,6.733333333,0.660422737,0.085260209
173,20,0,2,7,9,153,1264.4571653513703,1267.7740141453687,stimuli/155_xb.png,l,3.3055017080623657,harmless,0.333,6.655737705,0.892286312,0.114245555
173,20,0,2,7,10,154,1268.3852735612309,1271.0539611809654,stimuli/143_xb.png,l,2.6568939129356295,harmless,0.333,6.655172414,0.738697862,0.096995781
173,20,0,2,7,11,155,1271.665983082028,1280.3900107361842,stimuli/217_yb.png,l,8.71230090118479,ambig,0.333,5.169491525,2.001314588,0.260548967
173,20,0,2,7,12,156,1281.0117515653837,1286.8859974495135,stimuli/286_ya.png,l,5.86255575879477,ambig,0.333,5.06779661,1.779814082,0.231712057
173,20,0,2,7,13,157,1287.48590544716,1293.5339861193206,stimuli/251_ya.png,a,6.036252307007089,ambig,0.333,5.655172414,1.792300532,0.235340589
173,20,0,2,7,14,158,1294.1218243243638,1297.613964347518,stimuli/112_xc.png,l,3.4801336396485567,harmless,0.333,6.706896552,0.749470472,0.098410294
173,20,0,2,7,15,159,1298.225182015798,1302.9820107078413,stimuli/299_za.png,a,4.745179132791236,awful,0.333,1.288135593,0.929420425,0.121000233
173,20,0,2,7,16,160,1303.5977268806892,1311.9579837624915,stimuli/306_zb.png,a,8.348387556616217,awful,0.333,2.352112676,1.917055413,0.101746737
173,20,0,2,7,17,161,1312.5612666232046,1317.3979380606906,stimuli/260_ya.png,l,4.824714678572491,ambig,0.333,4.966101695,2.016877936,0.262575142
173,20,0,2,7,18,162,1318.018402829999,1321.725957891671,stimuli/242_xb.png,l,3.6954001984559,harmless,0.333,6.576271186,0.913564256,0.118935936
173,20,0,2,7,19,163,1322.2920625143452,1332.013957100804,stimuli/368_za.png,a,9.710022110491991,awful,0.333,3.590163934,2.02794682,0.259651984
173,20,0,2,7,20,164,1332.6247781664133,1337.677976468578,stimuli/373_zb.png,a,5.041731487144716,awful,0.333,2.327586207,1.858011869,0.243968911
173,20,0,2,7,21,165,1338.2937375396723,1342.9819094896084,stimuli/308_zb.png,a,4.6768272271147,awful,0.333,1.644067797,1.471132708,0.191525165
173,20,0,2,7,22,166,1343.5425944027957,1350.0778605203377,stimuli/313_zb.png,a,6.52459132601507,awful,0.333,2.101694915,1.688652955,0.219843889
173,20,0,2,7,23,167,1350.6905271465657,1356.501913695829,stimuli/265_yb.png,l,5.799813395948149,ambig,0.333,5.627118644,1.856008928,0.241631781
173,20,0,2,7,24,168,1357.107109858538,1365.469859389239,stimuli/218_yb.png,l,8.350977879250422,ambig,0.333,5.850282486,1.552723069,0.0825263
173,20,0,2,8,1,169,1374.1132042255485,1377.2939029549016,stimuli/197_xa.png,l,3.169211040600203,harmless,0.333,6.779661017,0.55918033,0.072799078
173,20,0,2,8,2,170,1377.9216392957605,1379.5498427374987,stimuli/331_za.png,a,1.6163238766603172,awful,0.333,1.983606557,1.638004917,0.209725039
173,20,0,2,8,3,171,1380.1474148367997,1384.718013237929,stimuli/357_za.png,a,4.558877949602902,awful,0.333,2.793103448,2.066937905,0.271402243
173,20,0,2,8,4,172,1385.3086568053113,1392.4298466444016,stimuli/252_zb.png,a,7.110036131343804,awful,0.333,2.711864407,1.983125776,0.258180985
173,20,0,2,8,5,173,1393.0486958590336,1396.6538687847788,stimuli/121_xc.png,l,3.5934658650076017,harmless,0.333,6.508474576,1.006408455,0.131023221
173,20,0,2,8,6,174,1397.274220126681,1401.7418026943924,stimuli/273_ya.png,l,4.455868811579421,ambig,0.333,5.551724138,1.836973233,0.241206403
173,20,0,2,8,7,175,1402.3552420457127,1408.5738117875298,stimuli/255_xb.png,l,6.206501524662599,harmless,0.333,6.770491803,0.642740036,0.082294429
173,20,0,2,8,8,176,1409.196635298198,1413.6378605361097,stimuli/364_za.png,a,4.429288565181196,awful,0.333,1.677966102,1.279017376,0.166513879
173,20,0,2,8,9,177,1414.2897979021072,1424.0618278532056,stimuli/293_zb.png,a,9.760251604253426,awful,0.333,3.677966102,2.169066842,0.28238845
173,20,0,2,8,10,178,1424.691139576491,1432.4058728682576,stimuli/288_yb.png,l,7.703036077087745,ambig,0.333,5.189655172,1.914459262,0.251380817
173,20,0,2,8,11,179,1433.028562471387,1439.0457892784616,stimuli/246_ya.png,l,6.0056130876764655,ambig,0.333,5.542372881,1.715266481,0.223308675
173,20,0,2,8,12,180,1439.6864918044303,1444.6137248893501,stimuli/157_xc.png,l,4.9154090519296005,harmless,0.333,6.603448276,0.877389573,0.115206895
173,20,0,2,8,13,181,1445.2381009395467,1451.3337589491857,stimuli/230_yb.png,l,6.083891084417701,ambig,0.333,4.98245614,1.875511626,0.248417583
173,20,0,2,8,14,182,1451.8910729378695,1459.1977522443049,stimuli/334_za.png,a,7.2945984861580655,awful,0.333,3.333333333,2.214487481,0.285889104
173,20,0,2,8,15,183,1459.8163576684892,1469.2457561165793,stimuli/307_za.png,a,9.417685085674748,awful,0.333,2.93220339,2.172432347,0.282826601
173,20,0,2,8,16,184,1469.8849576970097,1477.7897140129935,stimuli/110_xa.png,l,7.892723544850014,harmless,0.333,6.428571429,1.059281795,0.141552484
173,20,0,2,8,17,185,1478.39195239509,1482.7577034232672,stimuli/232_yb.png,l,4.353834835346788,ambig,0.333,5.483333333,1.845669845,0.238274952
173,20,0,2,8,18,186,1483.3846469528507,1495.1577339856885,stimuli/296_yb.png,a,11.761217313818634,ambig,0.333,4.229508197,2.052587332,0.262806878
173,20,0,2,8,19,187,1495.7624244506005,1499.4376778705046,stimuli/243_ya.png,l,3.6636869619833305,ambig,0.333,5.830508475,1.652088985,0.215083666
173,20,0,2,8,20,188,1500.0724152110051,1504.0216867147246,stimuli/333_za.png,a,3.937432504724711,awful,0.333,3.266666667,2.185209657,0.282109354
173,20,0,2,8,21,189,1504.6149867707863,1510.4056574347196,stimuli/172_xb.png,l,5.777982927625999,harmless,0.333,6.482758621,1.127664553,0.14806961
173,20,0,2,8,22,190,1511.0277515433263,1513.6376683394192,stimuli/152_xa.png,l,2.5982648737262934,harmless,0.333,6.576271186,0.968528743,0.126091702
173,20,0,2,8,23,191,1514.284595989273,1519.2456990090432,stimuli/315_yb.png,l,4.949137990130112,ambig,0.333,5.050847458,1.915667965,0.249398726
173,20,0,2,8,24,192,1519.8372015536297,1524.1416603586404,stimuli/175_xb.png,l,4.2931251098634675,harmless,0.333,6.6,1.028409995,0.13276716
173,20,0,2,9,1,193,1532.7389961505542,1537.405640105484,stimuli/163_xa.png,l,4.654698617523536,harmless,0.333,6.627118644,0.963082427,0.125382652
173,20,0,2,9,2,194,1537.9873756727902,1542.7735919428524,stimuli/360_za.png,a,4.774435953935608,awful,0.333,3.2,2.207844259,0.285031468
173,20,0,2,9,3,195,1543.408266267972,1545.0376012282213,stimuli/261_yb.png,a,1.617485721129924,ambig,0.333,5.706896552,1.901141123,0.249632059
173,20,0,2,9,4,196,1545.6303522634553,1548.0376437634695,stimuli/345_zb.png,l,2.395807749708183,awful,0.333,3.694915254,2.191317013,0.285285176
173,20,0,2,9,5,197,1548.643183359527,1551.4375924060587,stimuli/177_xb.png,l,2.7824999429285526,harmless,0.333,6.482758621,1.063614811,0.139659467
173,20,0,2,9,6,198,1552.083917865879,1555.421583369607,stimuli/279_ya.png,l,3.3259131506783888,ambig,0.333,5.31147541,1.970964092,0.252356093
173,20,0,2,9,7,199,1556.0471559227444,1559.677647213568,stimuli/302_za.png,a,3.618952402146533,awful,0.333,3.137931034,2.188071937,0.287307921
173,20,0,2,9,8,200,1560.284156851354,1569.3496159611968,stimuli/254_ya.png,l,9.053720935247838,ambig,0.333,5.983606557,1.627798137,0.208418195
173,20,0,2,9,9,201,1569.9510233290493,1572.3175963129615,stimuli/162_xa.png,l,2.3545827481430024,harmless,0.333,6.644067797,0.905209289,0.117848212
173,20,0,2,9,10,202,1572.9440471417038,1580.085562565131,stimuli/354_zb.png,a,7.1298115133540705,awful,0.333,2,1.701925887,0.221571878
173,20,0,2,9,11,203,1580.6553492505336,1584.7975574482698,stimuli/132_xc.png,l,4.1303845586953685,harmless,0.333,6.627118644,0.692280217,0.090127208
173,20,0,2,9,12,204,1585.4165027613053,1589.2375582202803,stimuli/349_za.png,a,3.8093834505416453,awful,0.333,3.288135593,2.101320172,0.273568585
173,20,0,2,9,13,205,1589.857232147595,1602.645666950033,stimuli/322_za.png,a,12.776761218556203,awful,0.333,2.406779661,1.975004531,0.257123689
173,20,0,2,9,14,206,1603.2552060482558,1609.4455831396626,stimuli/295_za.png,a,6.1784435694571584,awful,0.333,2.3,1.825432384,0.235662307
173,20,0,2,9,15,207,1610.0748680813704,1615.6295023445273,stimuli/283_yb.png,a,5.5429272023029625,ambig,0.333,5.949152542,1.478859402,0.192531095
173,20,0,2,9,16,208,1616.2005505174166,1621.9415202282835,stimuli/240_xa.png,l,5.729054305818863,harmless,0.333,6.482758621,1.096107616,0.143925981
173,20,0,2,9,17,209,1622.559233986074,1625.2375578264473,stimuli/130_xc.png,l,2.666624262696132,harmless,0.333,6.644067797,0.960651931,0.125066229
173,20,0,2,9,18,210,1625.8584211674752,1628.005486663198,stimuli/366_za.png,a,2.1357318005757406,awful,0.333,3.689655172,2.036568291,0.267414518
173,20,0,2,9,19,211,1628.621603377047,1631.3735519282054,stimuli/147_ya.png,l,2.74015799514018,ambig,0.333,5.883333333,1.766847875,0.22809908
173,20,0,2,9,20,212,1631.9429904540302,1637.6854642613325,stimuli/233_yb.png,a,5.73057336837519,ambig,0.333,5.318309859,1.922973646,0.102060844
173,20,0,2,9,21,213,1638.3028999640374,1642.56554299884,stimuli/225_ya.png,l,4.250904466374777,ambig,0.333,5.85,1.792876677,0.231459384
173,20,0,2,9,22,214,1643.1732164504938,1651.0854786760174,stimuli/164_xb.png,l,7.900336186634377,harmless,0.333,6.830508475,0.460604639,0.059965616
173,20,0,2,9,23,215,1651.6707962692017,1655.4615358561277,stimuli/250_yb.png,l,3.7789407601812854,ambig,0.333,5.950819672,1.585625318,0.203018519
173,20,0,2,9,24,216,1656.0756549849175,1660.9813994595315,stimuli/282_xc.png,l,4.893868454033509,harmless,0.333,6.55,0.998728005,0.128935231
173,20,0,2,10,1,217,1669.6286906288005,1674.0615202598274,stimuli/335_yb.png,a,4.421133991796523,ambig,0.333,5.016949153,2.046793332,0.266469795
173,20,0,2,10,2,218,1674.6473770276643,1682.3414078247733,stimuli/256_zb.png,a,7.682632511365227,awful,0.333,3.051724138,2.012438634,0.264246138
173,20,0,2,10,3,219,1682.9716809252277,1692.6774262662511,stimuli/276_ya.png,a,9.693601899314672,ambig,0.333,5.186440678,1.804922162,0.234980851
173,20,0,2,10,4,220,1693.286615629564,1700.9014094158774,stimuli/109_xb.png,l,7.603014257969335,harmless,0.333,6.644067797,0.97843492,0.127381377
173,20,0,2,10,5,221,1701.5067934429972,1705.4693655068986,stimuli/191_ya.png,l,3.950972916907631,ambig,0.333,5.517241379,2.062542966,0.270825159
173,20,0,2,10,6,222,1706.0853160177357,1709.7334618320456,stimuli/190_xc.png,l,3.636470654979348,harmless,0.333,6.517241379,1.046990328,0.137476565
173,20,0,2,10,7,223,1710.3780382234836,1714.7174638232682,stimuli/268_zb.png,a,4.327671277453192,awful,0.333,2.655737705,2.048456703,0.262278005
173,20,0,2,10,8,224,1715.3429422472836,1718.7973640700802,stimuli/148_xc.png,l,3.442729728179984,harmless,0.333,6.491525424,1.135218061,0.147792803
173,20,0,2,10,9,225,1719.419508590945,1725.5173934036866,stimuli/139_xa.png,l,6.086109222844243,harmless,0.333,6.724137931,0.790138861,0.103750315
173,20,0,2,10,10,226,1726.1321178732906,1733.6214159064693,stimuli/211_zb.png,l,7.4777910460252315,awful,0.333,3.983333333,2.127237938,0.274625237
173,20,0,2,10,11,227,1734.2007541356143,1744.2533703338122,stimuli/323_yb.png,l,10.041103697149083,ambig,0.333,4.603448276,1.955107169,0.256718148
173,20,0,2,10,12,228,1744.8703621726017,1750.0133340370376,stimuli/165_xb.png,l,5.131195486872457,harmless,0.333,6.557377049,1.008705278,0.129151477
173,20,0,2,10,13,229,1750.6153053918388,1756.045340294484,stimuli/173_yb.png,l,5.418256555800326,ambig,0.333,5.796610169,1.242628763,0.161776485
173,20,0,2,10,14,230,1756.664219441358,1763.4133370302152,stimuli/146_xa.png,l,6.73718958068639,harmless,0.333,6.442622951,1.162247681,0.148810567
173,20,0,2,10,15,231,1763.9841351110954,1766.8773214245448,stimuli/192_za.png,a,2.8814599541947246,awful,0.333,2.68852459,2.093967396,0.268105052
173,20,0,2,10,16,232,1767.4905536130536,1772.5733710742788,stimuli/203_yb.png,l,5.0708756684325635,ambig,0.333,6,1.542501327,0.200816568
173,20,0,2,10,17,233,1773.1750131741865,1781.9653534016106,stimuli/223_yb.png,a,8.778650495922193,ambig,0.333,5.542372881,1.77455224,0.231027024
173,20,0,2,10,18,234,1782.589245021576,1789.085256547085,stimuli/262_ya.png,a,6.4840866681188345,ambig,0.333,5.491525424,1.7750462,0.231091332
173,20,0,2,10,19,235,1789.7066287366906,1801.2933381802868,stimuli/353_zb.png,a,11.574998050462455,awful,0.333,1.949152542,1.623361018,0.211343603
173,20,0,2,10,20,236,1801.9087239166256,1805.8692582233343,stimuli/166_xa.png,l,3.948883172008209,harmless,0.333,6.593220339,1.052397002,0.13701042
173,20,0,2,10,21,237,1806.4940214236267,1814.9092871157918,stimuli/310_zb.png,a,8.403263641055673,awful,0.333,3.224137931,2.102989547,0.276136056
173,20,0,2,10,22,238,1815.5341893436853,1817.9652746324427,stimuli/291_za.png,a,2.419386892579496,awful,0.333,2.593220339,1.830005126,0.238246374
173,20,0,2,10,23,239,1818.5851167319342,1826.0773323733592,stimuli/269_za.png,a,7.480352223967202,awful,0.333,3.457627119,2.119873401,0.27598401
173,20,0,2,10,24,240,1826.6982630620478,1831.2372289652703,stimuli/264_xa.png,l,4.527158017968759,harmless,0.333,6.533333333,0.947193297,0.122282129
