id,age,condition,counterbalance,block,trialinblock,trial,tstart,tend,trialstim,response,RT,trialtype,ethicfreq,norm_mean,norm_sd,norm_se
027,62,1,2,0,0,practice,3.938446752727032e-06,18.319912377162836,stimuli/prac_217_1.png,l,18.30448582628742,harmless,NA,NA,NA,NA
027,62,1,2,1,1,1,4.399884760729037,12.632139245048165,stimuli/197_xa.png,l,8.220461162156425,harmless,0.333,6.779661017,0.55918033,0.072799078
027,62,1,2,1,2,2,13.26987779745832,37.0401707085548,stimuli/319_ya.png,a,23.7585133734392,ambig,0.333,4.216666667,2.108028774,0.272145344
027,62,1,2,1,3,3,37.61537046718877,54.49606666073669,stimuli/218_yb.png,l,16.868807954364456,ambig,0.333,5.850282486,1.552723069,0.0825263
027,62,1,2,1,4,4,55.09795735753141,62.82414385769516,stimuli/301_za.png,a,7.714534174767323,awful,0.333,3.610169492,2.212947396,0.288101212
027,62,1,2,1,5,5,63.44778705853969,109.83215153298806,stimuli/324_za.png,a,46.37275232130196,awful,0.333,2.491525424,1.994586478,0.259673041
027,62,1,2,1,6,6,110.42791280569509,126.9200654256856,stimuli/211_zb.png,l,16.480400257743895,awful,0.333,3.983333333,2.127237938,0.274625237
027,62,1,2,1,7,7,127.49344246543478,134.08006099879276,stimuli/298_za.png,a,6.574908706475981,awful,0.333,2.881355932,2.026418156,0.263817173
027,62,1,2,1,8,8,134.67776275030337,140.4883201053599,stimuli/337_zb.png,a,5.798452106770128,awful,0.333,3.033333333,2.20143764,0.284204377
027,62,1,2,1,9,9,141.13937143760268,153.24803470890038,stimuli/339_ya.png,l,12.096390244667418,ambig,0.333,4.949152542,1.960152429,0.25519011
027,62,1,2,1,10,10,153.82670976384543,173.39206298068166,stimuli/233_yb.png,l,19.55361109448131,ambig,0.333,5.318309859,1.922973646,0.102060844
027,62,1,2,1,11,11,174.0289579151431,182.50401565304492,stimuli/144_xa.png,l,8.463329006335698,harmless,0.333,6.542372881,1.00553698,0.130909764
027,62,1,2,1,12,12,183.15155348589178,192.62404571135994,stimuli/145_xa.png,l,9.46043857105542,harmless,0.333,6.661016949,0.822321556,0.107057148
027,62,1,2,1,13,13,193.27075174159836,200.72797928680666,stimuli/206_xa.png,l,7.445043921703473,harmless,0.333,6.325842697,1.136094431,0.060212884
027,62,1,2,1,14,14,201.32090959500056,212.27203528548125,stimuli/257_yb.png,l,10.939373722067103,ambig,0.333,5.620689655,1.843219782,0.242026615
027,62,1,2,1,15,15,212.9281597470399,248.49602609465364,stimuli/271_ya.png,l,35.55610768380575,ambig,0.333,5.711864407,1.771915459,0.230683744
027,62,1,2,1,16,16,249.12565614725463,257.455954635283,stimuli/231_xb.png,l,8.31857251340989,harmless,0.333,6.62295082,1.05141071,0.134619347
027,62,1,2,1,17,17,258.09522721753456,275.82399892248213,stimuli/307_za.png,a,17.716783822746947,awful,0.333,2.93220339,2.172432347,0.282826601
027,62,1,2,1,18,18,276.42674111400265,287.30397697736043,stimuli/261_yb.png,l,10.865379919530824,ambig,0.333,5.706896552,1.901141123,0.249632059
027,62,1,2,1,19,19,287.88834980130196,293.2799760069465,stimuli/109_xb.png,l,5.379954187897965,harmless,0.333,6.644067797,0.97843492,0.127381377
027,62,1,2,1,20,20,293.8883277459536,305.95197679148987,stimuli/217_yb.png,l,12.052066430798732,ambig,0.333,5.169491525,2.001314588,0.260548967
027,62,1,2,1,21,21,306.5576531351544,316.59999590402003,stimuli/116_xa.png,l,10.030358431278728,harmless,0.333,6.63559322,0.958030802,0.050918763
027,62,1,2,1,22,22,317.24723441398237,327.27994528692216,stimuli/293_zb.png,a,10.020933304564096,awful,0.333,3.677966102,2.169066842,0.28238845
027,62,1,2,1,23,23,327.91215148568153,334.7359184329398,stimuli/146_xa.png,l,6.811452566762455,harmless,0.333,6.442622951,1.162247681,0.148810567
027,62,1,2,1,24,24,335.36051552859135,344.8079319780227,stimuli/327_zb.png,a,9.435780271771364,awful,0.333,2.502808989,1.906990248,0.101070281
027,62,1,2,2,1,25,354.3856354152085,373.1999500603415,stimuli/228_ya.png,l,18.8026040304685,ambig,0.333,5.442622951,1.793735303,0.229664272
027,62,1,2,2,2,26,373.8188651409,382.8559358881321,stimuli/140_xb.png,l,9.025222286581993,harmless,0.333,6.724137931,0.790138861,0.103750315
027,62,1,2,2,3,27,383.4759344388731,399.70390506112017,stimuli/360_za.png,a,16.216212352272123,awful,0.333,3.2,2.207844259,0.285031468
027,62,1,2,2,4,28,400.30052176711615,414.76792195858434,stimuli/220_yb.png,a,14.455535189248621,ambig,0.333,4.75,2.096203186,0.270618668
027,62,1,2,2,5,29,415.3979584602639,431.71188910561614,stimuli/280_xb.png,l,16.302145987632684,harmless,0.333,6.333333333,1.068289726,0.137915611
027,62,1,2,2,6,30,432.3316749794176,439.1038666217355,stimuli/122_xa.png,l,6.760670467629097,harmless,0.333,6.457627119,1.039264227,0.135300678
027,62,1,2,2,7,31,439.7355572761735,446.12786562286783,stimuli/353_zb.png,a,6.380565436673351,awful,0.333,1.949152542,1.623361018,0.211343603
027,62,1,2,2,8,32,446.79144401242957,459.5679813505849,stimuli/126_xa.png,l,12.764857049682178,harmless,0.333,6.6,0.977717855,0.126222832
027,62,1,2,2,9,33,460.20251911727246,465.8398949377006,stimuli/247_ya.png,a,5.625307593727484,ambig,0.333,4.65,2.081598147,0.268733165
027,62,1,2,2,10,34,466.4889868864557,473.19186085893307,stimuli/363_zb.png,a,6.690679715014994,awful,0.333,2.433333333,2.019956927,0.260775318
027,62,1,2,2,11,35,473.80217670765705,483.2638893702533,stimuli/274_xb.png,l,9.449500682181679,harmless,0.333,6.491525424,1.179901828,0.153610134
027,62,1,2,2,12,36,483.8969970823964,492.46391741209663,stimuli/221_xb.png,l,8.555266428855248,harmless,0.333,6.440677966,1.133672495,0.147591588
027,62,1,2,2,13,37,493.1028642838355,501.4399203801295,stimuli/318_za.png,a,8.32480906357523,awful,0.333,3.06557377,2.197489875,0.281359747
027,62,1,2,2,14,38,502.0868229394546,508.78126782155596,stimuli/341_zb.png,a,6.682643289095722,awful,0.333,3.603448276,2.15975677,0.283589957
027,62,1,2,2,15,39,509.41693395678885,516.6238515452715,stimuli/265_yb.png,l,7.19511560164392,ambig,0.333,5.627118644,1.856008928,0.241631781
027,62,1,2,2,16,40,517.2543390005594,543.9122101687826,stimuli/342_yb.png,a,26.646185365971178,ambig,0.333,4.916666667,2.085394461,0.269223267
027,62,1,2,2,17,41,544.5405838529114,565.2878332330147,stimuli/270_yb.png,l,20.73488616279792,ambig,0.333,5.534482759,1.912246013,0.251090203
027,62,1,2,2,18,42,565.8928739094408,577.0717748744646,stimuli/368_za.png,a,11.167106067412533,awful,0.333,3.590163934,2.02794682,0.259651984
027,62,1,2,2,19,43,577.7182957971236,585.3837587394519,stimuli/252_zb.png,a,7.653516020043753,awful,0.333,2.711864407,1.983125776,0.258180985
027,62,1,2,2,20,44,586.0036387424916,593.2558222241933,stimuli/282_xc.png,l,7.240917913033627,harmless,0.333,6.55,0.998728005,0.128935231
027,62,1,2,2,21,45,593.8937659704825,601.176069606794,stimuli/251_ya.png,l,7.2706158647779375,ambig,0.333,5.655172414,1.792300532,0.235340589
027,62,1,2,2,22,46,601.8077149689198,607.8077649873449,stimuli/290_zb.png,a,5.988229126902297,awful,0.333,2.586206897,2.026443456,0.266085062
027,62,1,2,2,23,47,608.4273232183186,618.9037720198976,stimuli/123_xc.png,l,10.464757091598585,harmless,0.333,6.491525424,1.023396666,0.133234897
027,62,1,2,2,24,48,619.5381396451266,631.7757394063519,stimuli/237_ya.png,a,12.225645355996676,ambig,0.333,4.305084746,2.019339575,0.26289562
027,62,1,2,3,1,49,645.4771285796305,650.95173615159,stimuli/112_xc.png,l,5.463150594034232,harmless,0.333,6.706896552,0.749470472,0.098410294
027,62,1,2,3,2,50,651.5919358471874,675.3757471257122,stimuli/336_ya.png,a,23.772073882399127,ambig,0.333,5.033898305,1.884291705,0.245313885
027,62,1,2,3,3,51,675.9479174215812,687.9037499645492,stimuli/333_za.png,a,11.943858051672578,awful,0.333,3.266666667,2.185209657,0.282109354
027,62,1,2,3,4,52,688.5157227229793,693.2877268946031,stimuli/295_za.png,a,4.76031561230775,awful,0.333,2.3,1.825432384,0.235662307
027,62,1,2,3,5,53,693.9199149765773,704.8556987929624,stimuli/279_ya.png,a,10.924016488017514,ambig,0.333,5.31147541,1.970964092,0.252356093
027,62,1,2,3,6,54,705.4694737903774,715.1437352504581,stimuli/223_yb.png,l,9.66251815634314,ambig,0.333,5.542372881,1.77455224,0.231027024
027,62,1,2,3,7,55,715.7797373362118,723.9277217903873,stimuli/254_ya.png,l,8.13634512561839,ambig,0.333,5.983606557,1.627798137,0.208418195
027,62,1,2,3,8,56,724.5536965590436,730.8237066887086,stimuli/183_xb.png,l,6.258332991972566,harmless,0.333,6.448275862,1.095003225,0.143780967
027,62,1,2,3,9,57,731.447655513999,737.1036862402689,stimuli/273_ya.png,a,5.644712382229045,ambig,0.333,5.551724138,1.836973233,0.241206403
027,62,1,2,3,10,58,737.7155660510762,744.1837259714957,stimuli/323_yb.png,a,6.456623779493384,ambig,0.333,4.603448276,1.955107169,0.256718148
027,62,1,2,3,11,59,744.8200833062874,754.0476923779352,stimuli/107_xa.png,l,9.21581456786953,harmless,0.333,6.813559322,0.540580029,0.070377525
027,62,1,2,3,12,60,754.6674558025552,761.3917069439776,stimuli/268_zb.png,a,6.7125696713337675,awful,0.333,2.655737705,2.048456703,0.262278005
027,62,1,2,3,13,61,762.0223259436898,771.7916472369106,stimuli/124_xa.png,a,9.757563810911961,harmless,0.333,6.344262295,1.181598436,0.151288177
027,62,1,2,3,14,62,772.4102007668698,776.6796618753579,stimuli/184_xb.png,l,4.257327109458856,harmless,0.333,6.508474576,1.194425,0.15550089
027,62,1,2,3,15,63,777.3119527511299,782.6956721058814,stimuli/349_za.png,a,5.372183213941753,awful,0.333,3.288135593,2.101320172,0.273568585
027,62,1,2,3,16,64,783.3420193425845,811.375760122668,stimuli/234_xb.png,l,28.021716664195992,harmless,0.333,6.637931034,0.788030542,0.103473479
027,62,1,2,3,17,65,812.0154801139142,827.4876580503769,stimuli/358_za.png,a,15.460514583392069,awful,0.333,3.949152542,2.112554662,0.275031191
027,62,1,2,3,18,66,828.1252445783466,833.3596793937031,stimuli/302_za.png,a,5.222410699469037,awful,0.333,3.137931034,2.188071937,0.287307921
027,62,1,2,3,19,67,833.9621833084384,843.9917142695049,stimuli/330_ya.png,a,10.01774787879549,ambig,0.333,4.796610169,2.049219036,0.266785595
027,62,1,2,3,20,68,844.5655647120439,854.4476444863249,stimuli/192_za.png,a,9.870167510583997,awful,0.333,2.68852459,2.093967396,0.268105052
027,62,1,2,3,21,69,855.0981018989114,865.287612679298,stimuli/276_ya.png,a,10.177974639460444,ambig,0.333,5.186440678,1.804922162,0.234980851
027,62,1,2,3,22,70,866.0017427682178,880.679617370828,stimuli/272_xb.png,l,14.66642156324815,harmless,0.333,6.355932203,1.029943284,0.134087194
027,62,1,2,3,23,71,881.295660920674,897.6316449684091,stimuli/238_xb.png,l,16.323695267317817,harmless,0.333,6.4,1.076718178,0.139003719
027,62,1,2,3,24,72,898.2648420835612,903.6479297095211,stimuli/361_za.png,a,5.371354562113993,awful,0.333,2.416666667,1.907093508,0.246204713
027,62,1,2,4,1,73,913.0854448726168,920.7835934816394,stimuli/156_xc.png,l,7.686567569733597,harmless,0.333,6.590163934,0.955284411,0.122311635
027,62,1,2,4,2,74,921.3761614515679,927.1435946474085,stimuli/329_zb.png,a,5.755598125862889,awful,0.333,2.406779661,1.992387617,0.259386774
027,62,1,2,4,3,75,927.7461395222927,940.4635794922942,stimuli/262_ya.png,l,12.70575456158258,ambig,0.333,5.491525424,1.7750462,0.231091332
027,62,1,2,4,4,76,941.0999569132691,951.2635325458832,stimuli/208_xb.png,l,10.15188549796585,harmless,0.333,6.216666667,1.165778516,0.150501359
027,62,1,2,4,5,77,951.882095921901,961.3356945709093,stimuli/236_yb.png,l,9.442069597309455,ambig,0.333,5.93442623,1.49297078,0.19115532
027,62,1,2,4,6,78,961.9154074100079,971.8555416484596,stimuli/286_ya.png,a,9.928527599200606,ambig,0.333,5.06779661,1.779814082,0.231712057
027,62,1,2,4,7,79,972.5034248841694,978.7115740288282,stimuli/304_ya.png,a,6.196364487055689,ambig,0.333,4.034482759,2.017167697,0.264867095
027,62,1,2,4,8,80,979.3223357110983,984.5355548344087,stimuli/356_za.png,a,5.202095732907765,awful,0.333,3.033333333,2.178217796,0.281206708
027,62,1,2,4,9,81,985.1690229155356,997.9196420413209,stimuli/235_ya.png,a,12.738486702204682,ambig,0.333,5.694915254,1.567495667,0.204070554
027,62,1,2,4,10,82,998.5345761273056,1004.6715537693817,stimuli/102_xc.png,l,6.1251941659720615,harmless,0.333,6.66011236,0.937292468,0.049676401
027,62,1,2,4,11,83,1005.2896193242632,1009.1115095956484,stimuli/294_za.png,a,3.8101264875149354,awful,0.333,1.557377049,1.38473331,0.177296933
027,62,1,2,4,12,84,1009.7294120982988,1017.3435167447897,stimuli/310_zb.png,a,7.602366856532171,awful,0.333,3.224137931,2.102989547,0.276136056
027,62,1,2,4,13,85,1017.9954274488846,1026.2075792496325,stimuli/255_xb.png,l,8.200383290764876,harmless,0.333,6.770491803,0.642740036,0.082294429
027,62,1,2,4,14,86,1026.843093360425,1043.1755064070458,stimuli/137_xa.png,l,16.320476364460774,harmless,0.333,6.355932203,1.094858074,0.14253838
027,62,1,2,4,15,87,1043.7946081705159,1050.9195116782794,stimuli/267_ya.png,l,7.11324448697269,ambig,0.333,5.103448276,1.898195405,0.249245267
027,62,1,2,4,16,88,1051.5593565187883,1057.2714795687934,stimuli/332_zb.png,a,5.70022260164842,awful,0.333,2.694915254,2.002190501,0.260663001
027,62,1,2,4,17,89,1057.908112201956,1063.463464489323,stimuli/351_zb.png,a,5.543242312967777,awful,0.333,3.06779661,2.033040926,0.264679384
027,62,1,2,4,18,90,1064.1100968703395,1073.6075140287867,stimuli/350_ya.png,a,9.48577310377732,ambig,0.333,4.915254237,2.02814792,0.264042369
027,62,1,2,4,19,91,1074.2175640314817,1079.6315236638766,stimuli/334_za.png,a,5.4022596516879275,awful,0.333,3.333333333,2.214487481,0.285889104
027,62,1,2,4,20,92,1080.2473592631286,1087.7755310618086,stimuli/241_yb.png,a,7.5166057255119085,ambig,0.333,5.508474576,1.442852555,0.187843403
027,62,1,2,4,21,93,1088.3631495700683,1095.1755134962732,stimuli/149_xa.png,l,6.8005709977587685,harmless,0.333,6.721311475,0.933294301,0.11949609
027,62,1,2,4,22,94,1095.8198706294643,1101.5836221536156,stimuli/244_xb.png,l,5.75202239875216,harmless,0.333,6.610169492,0.743174671,0.096753101
027,62,1,2,4,23,95,1102.1855041857343,1106.3915249871789,stimuli/113_xb.png,l,4.1940096822800115,harmless,0.333,6.733333333,0.660422737,0.085260209
027,62,1,2,4,24,96,1106.9427304707933,1135.9756662297295,stimuli/348_za.png,a,29.02100734761916,awful,0.333,3.084745763,2.119597681,0.275948114
027,62,1,2,5,1,97,1145.1838634236483,1150.9995620433474,stimuli/308_zb.png,a,5.803873002063483,awful,0.25,1.644067797,1.471132708,0.191525165
027,62,1,2,5,2,98,1151.6322546418523,1157.4717781827785,stimuli/326_zb.png,a,5.828007092350163,awful,0.25,3.389830508,2.220724867,0.289113752
027,62,1,2,5,3,99,1158.0581422918476,1187.8474225146929,stimuli/315_yb.png,l,29.777354962192476,ambig,0.25,5.050847458,1.915667965,0.249398726
027,62,1,2,5,4,100,1188.4119711043313,1214.5754049523966,stimuli/277_yb.png,l,26.151531036710367,ambig,0.25,5.491525424,2.02886822,0.264136144
027,62,1,2,5,5,101,1215.2308074943721,1232.1114469741005,stimuli/198_yb.png,l,16.86881189281121,ambig,0.25,5.101694915,1.83542643,0.238952168
027,62,1,2,5,6,102,1232.7352114794776,1269.5034110995475,stimuli/300_za.png,l,36.75661818694789,awful,0.25,3.75,2.12032137,0.273732312
027,62,1,2,5,7,103,1270.0932012741687,1278.1994699621573,stimuli/138_xc.png,l,8.094585642567836,harmless,0.25,6.661016949,0.70978796,0.092406522
027,62,1,2,5,8,104,1278.8330502894241,1285.6119455831358,stimuli/132_xc.png,l,6.767138599185273,harmless,0.25,6.627118644,0.692280217,0.090127208
027,62,1,2,5,9,105,1286.2462624021573,1292.0873680221848,stimuli/367_zb.png,a,5.829369405400939,awful,0.25,3.413793103,2.086165649,0.27392697
027,62,1,2,5,10,106,1292.645379950991,1301.0073637372116,stimuli/171_xa.png,l,8.35001638403628,harmless,0.25,6.465517241,1.046556882,0.137419651
027,62,1,2,5,11,107,1301.5853381403722,1313.4553654417396,stimuli/309_ya.png,l,11.858086286927573,ambig,0.25,4.706896552,1.946734744,0.255618795
027,62,1,2,5,12,108,1314.1037335017463,1325.40736586391,stimuli/128_xc.png,l,11.291436923202127,harmless,0.25,6.627118644,0.98082135,0.127692063
027,62,1,2,5,13,109,1326.0817927393364,1333.0556634255918,stimuli/111_xa.png,l,6.961919825640507,harmless,0.25,6.590163934,0.863655973,0.110579816
027,62,1,2,5,14,110,1333.7073716928717,1338.2314325278858,stimuli/135_xa.png,l,4.512382515822537,harmless,0.25,6.508474576,1.179901828,0.153610134
027,62,1,2,5,15,111,1338.8768286266131,1346.775359738851,stimuli/224_yb.png,l,7.886351821012795,ambig,0.25,5.881355932,1.609077116,0.209483997
027,62,1,2,5,16,112,1347.4133991895942,1357.4073631070787,stimuli/196_xb.png,l,9.981756269349717,harmless,0.25,6.594366197,0.982313556,0.05213579
027,62,1,2,5,17,113,1358.02106681827,1365.9113783661742,stimuli/311_za.png,a,7.878476477926597,awful,0.25,3.116666667,1.975199339,0.254997138
027,62,1,2,5,18,114,1366.496329749818,1376.0553566196468,stimuli/187_xc.png,l,9.547372575150803,harmless,0.25,6.224137931,1.185335891,0.155642228
027,62,1,2,5,19,115,1376.7213918199996,1388.207367754425,stimuli/232_yb.png,a,11.4736741570523,ambig,0.25,5.483333333,1.845669845,0.238274952
027,62,1,2,5,20,116,1388.826048890478,1408.687349353917,stimuli/172_xb.png,l,19.849516987334937,harmless,0.25,6.482758621,1.127664553,0.14806961
027,62,1,2,5,21,117,1409.3168518005405,1415.1032939697616,stimuli/103_xb.png,l,5.774712649988942,harmless,0.25,6.779661017,0.589207434,0.076708274
027,62,1,2,5,22,118,1415.7371759829111,1424.6712623233907,stimuli/201_yb.png,l,8.921996452147141,ambig,0.25,5.898305085,1.626238682,0.211718243
027,62,1,2,5,23,119,1425.2994178169174,1438.5832665107446,stimuli/250_yb.png,a,13.272310189786367,ambig,0.25,5.950819672,1.585625318,0.203018519
027,62,1,2,5,24,120,1439.1707140898798,1447.5192598531721,stimuli/317_za.png,a,8.335558693972416,awful,0.25,3.65,2.03215674,0.262350307
027,62,1,2,6,1,121,1456.7158385924995,1464.5832779323682,stimuli/340_za.png,a,7.8557460544398054,awful,0.166,2.508474576,1.832398855,0.238558011
027,62,1,2,6,2,122,1465.1805031303084,1472.1433185614878,stimuli/125_xc.png,l,6.950768472161144,harmless,0.166,6.683333333,0.999858747,0.129081209
027,62,1,2,6,3,123,1472.7575965001015,1485.639288336155,stimuli/230_yb.png,a,12.869939867639914,ambig,0.166,4.98245614,1.875511626,0.248417583
027,62,1,2,6,4,124,1486.2786073923344,1493.9113070800668,stimuli/214_xb.png,l,7.620298661175184,harmless,0.166,6.465517241,0.940614156,0.12350869
027,62,1,2,6,5,125,1494.4690460736165,1502.255277929129,stimuli/283_yb.png,a,7.774223493295722,ambig,0.166,5.949152542,1.478859402,0.192531095
027,62,1,2,6,6,126,1502.8837894593598,1533.231240724912,stimuli/207_yb.png,l,30.335711112478748,ambig,0.166,5.655737705,1.662179753,0.212820309
027,62,1,2,6,7,127,1533.8635394775774,1541.3595380029874,stimuli/176_xb.png,l,7.483998827985488,harmless,0.166,6.796610169,0.517942249,0.067430337
027,62,1,2,6,8,128,1541.9628146435134,1550.495213196613,stimuli/173_yb.png,l,8.520590658532456,ambig,0.166,5.796610169,1.242628763,0.161776485
027,62,1,2,6,9,129,1551.1013723955257,1557.7512579438044,stimuli/160_xb.png,l,6.6383210505591705,harmless,0.166,6.666666667,0.680644427,0.087870818
027,62,1,2,6,10,130,1558.3810648333747,1574.223208631156,stimuli/179_xb.png,l,15.830351657117717,harmless,0.166,6.704918033,0.882123617,0.112944356
027,62,1,2,6,11,131,1574.8423497793265,1579.4071807563305,stimuli/322_za.png,a,4.552787562599406,awful,0.166,2.406779661,1.975004531,0.257123689
027,62,1,2,6,12,132,1580.0169759407872,1593.519178721006,stimuli/168_xa.png,l,13.490451599471271,harmless,0.166,6.474576271,1.164946827,0.151663159
027,62,1,2,6,13,133,1594.1317682421068,1608.9352084074635,stimuli/175_xb.png,l,14.79185282450635,harmless,0.166,6.6,1.028409995,0.13276716
027,62,1,2,6,14,134,1609.601117183338,1620.0231632601935,stimuli/246_ya.png,l,10.410086945514195,ambig,0.166,5.542372881,1.715266481,0.223308675
027,62,1,2,6,15,135,1620.6440326041775,1656.783176398836,stimuli/275_yb.png,a,36.12731699552387,ambig,0.166,4.836065574,2.138382004,0.27379176
027,62,1,2,6,16,136,1657.418690509512,1663.5431985959876,stimuli/158_xa.png,l,6.112560770357959,harmless,0.166,6.786885246,0.661179605,0.084655374
027,62,1,2,6,17,137,1664.1337930039736,1669.5111147257267,stimuli/314_zb.png,a,5.3656619131797925,awful,0.166,1.833333333,1.451669602,0.18740974
027,62,1,2,6,18,138,1670.146076270612,1674.5671530925902,stimuli/106_xc.png,l,4.409375265822746,harmless,0.166,6.661016949,0.863237081,0.112383896
027,62,1,2,6,19,139,1675.213770507602,1682.89512434497,stimuli/105_xa.png,l,7.66920999228023,harmless,0.166,6.557377049,1.088187946,0.139328189
027,62,1,2,6,20,140,1683.4907587992493,1692.9911841528956,stimuli/194_xb.png,l,9.4886147021316,harmless,0.166,6.586206897,1.026567825,0.134794959
027,62,1,2,6,21,141,1693.5990880891914,1702.8792011544574,stimuli/189_yb.png,l,9.268670265912078,ambig,0.166,5.983333333,1.455459234,0.187898979
027,62,1,2,6,22,142,1703.5237134628696,1709.2391326094512,stimuli/108_xb.png,l,5.703318230574951,harmless,0.166,6.568965517,1.077880782,0.141532681
027,62,1,2,6,23,143,1709.846454441431,1727.655111883767,stimuli/258_ya.png,l,17.79649941867683,ambig,0.166,5.627118644,1.78014243,0.231754804
027,62,1,2,6,24,144,1728.2943844660185,1734.0231321463361,stimuli/305_zb.png,a,5.716872438089922,awful,0.166,2.75,2.12830003,0.274762352
027,62,1,2,7,1,145,1743.9736194125144,1761.7990968325175,stimuli/191_ya.png,a,17.81380343309138,ambig,0.083,5.517241379,2.062542966,0.270825159
027,62,1,2,7,2,146,1762.4021903347457,1775.0790964701446,stimuli/346_zb.png,a,12.66500253637787,awful,0.083,1.288135593,0.983499162,0.128040685
027,62,1,2,7,3,147,1775.7182260864647,1786.6552832067246,stimuli/159_xa.png,l,10.925346111762337,harmless,0.083,6.389830508,1.174689235,0.152931512
027,62,1,2,7,4,148,1787.2731565647991,1806.0950590453576,stimuli/210_yb.png,l,18.810161933652125,ambig,0.083,5.557377049,1.76564049,0.226067099
027,62,1,2,7,5,149,1806.7164900136413,1816.495069442899,stimuli/182_xb.png,l,9.766519867116585,harmless,0.083,6.542372881,0.988241802,0.128658124
027,62,1,2,7,6,150,1817.0958376787603,1831.5431036790833,stimuli/151_xa.png,l,14.435751914861612,harmless,0.083,6.610169492,0.947172729,0.123311386
027,62,1,2,7,7,151,1832.1630758420797,1866.1271011680365,stimuli/253_ya.png,l,33.95232810208108,ambig,0.083,5.491803279,1.849531029,0.236808182
027,62,1,2,7,8,152,1866.714261239511,1884.079023214872,stimuli/335_yb.png,l,17.353130523697473,ambig,0.083,5.016949153,2.046793332,0.266469795
027,62,1,2,7,9,153,1884.7233567172661,1898.4869932384463,stimuli/226_yb.png,l,13.751595863723196,ambig,0.083,5.683333333,1.712285287,0.22105508
027,62,1,2,7,10,154,1899.0959739494137,1924.7190251998836,stimuli/269_za.png,l,25.611678555607796,awful,0.083,3.457627119,2.119873401,0.27598401
027,62,1,2,7,11,155,1925.3178332644748,1939.5509664191632,stimuli/174_xc.png,l,14.221321715507656,harmless,0.083,6.533333333,1.111826512,0.143536185
027,62,1,2,7,12,156,1940.1733630975941,1947.5750244972296,stimuli/119_xc.png,l,7.389805062091909,harmless,0.083,6.694915254,0.914523379,0.119060803
027,62,1,2,7,13,157,1948.197696080082,1999.6949950847775,stimuli/167_xb.png,l,51.48615513427649,harmless,0.083,6.590163934,0.955284411,0.122311635
027,62,1,2,7,14,158,2000.3050403613597,2005.9430616952013,stimuli/150_xc.png,l,5.6262213162845,harmless,0.083,6.482758621,1.030097582,0.135258439
027,62,1,2,7,15,159,2006.5306739018997,2038.4789418462897,stimuli/200_ya.png,l,31.936922031105496,ambig,0.083,5.862068966,1.444266048,0.189641423
027,62,1,2,7,16,160,2039.0878619049909,2045.950870872126,stimuli/177_xb.png,l,6.850582734448835,harmless,0.083,6.482758621,1.063614811,0.139659467
027,62,1,2,7,17,161,2046.5786561504938,2051.038882438559,stimuli/114_xc.png,l,4.448543636593968,harmless,0.083,6.644067797,0.97843492,0.127381377
027,62,1,2,7,18,162,2051.665634659119,2071.046941313776,stimuli/289_yb.png,l,19.36940660024993,ambig,0.083,5.305084746,1.714584873,0.223219937
027,62,1,2,7,19,163,2071.671815283131,2080.36692852166,stimuli/259_xc.png,l,8.683077701018192,harmless,0.083,6.568965517,0.993170874,0.130409725
027,62,1,2,7,20,164,2080.994880790706,2091.8389071720885,stimuli/209_ya.png,l,10.831116505898535,ambig,0.083,5.603448276,1.825161903,0.239655499
027,62,1,2,7,21,165,2092.470939684892,2102.414888321073,stimuli/120_xa.png,l,9.932073393953033,harmless,0.083,6.440677966,1.054893138,0.137335389
027,62,1,2,7,22,166,2103.0624682954513,2119.7348948273575,stimuli/204_xb.png,l,16.66021179454401,harmless,0.083,6.508474576,0.858484658,0.111765183
027,62,1,2,7,23,167,2120.349208999891,2127.046879873844,stimuli/142_xa.png,l,6.685848800931126,harmless,0.083,6.4,1.076718178,0.139003719
027,62,1,2,7,24,168,2127.6751271334942,2134.6388874009717,stimuli/104_xc.png,l,6.952128028264269,harmless,0.083,6.745762712,0.756425814,0.098478253
027,62,1,2,8,1,169,2143.799608044559,2149.5268535964424,stimuli/285_yb.png,a,5.71552784810774,ambig,0.0412,4.120689655,2.119893958,0.278355714
027,62,1,2,8,2,170,2150.153713730746,2159.454823903623,stimuli/190_xc.png,l,9.289127410738729,harmless,0.0412,6.517241379,1.046990328,0.137476565
027,62,1,2,8,3,171,2160.0745593651664,2169.1748116628733,stimuli/162_xa.png,l,9.088434163131751,harmless,0.0412,6.644067797,0.905209289,0.117848212
027,62,1,2,8,4,172,2169.8014839326497,2179.1028130839113,stimuli/215_yb.png,l,9.289425945957191,ambig,0.0412,5.866666667,1.466769385,0.189359113
027,62,1,2,8,5,173,2179.703592347447,2187.5428906085435,stimuli/139_xa.png,l,7.827563228085637,harmless,0.0412,6.724137931,0.790138861,0.103750315
027,62,1,2,8,6,174,2188.1376798694255,2197.0708741488634,stimuli/281_ya.png,l,8.921476575545967,ambig,0.0412,5.881355932,1.543448286,0.200939852
027,62,1,2,8,7,175,2197.7097643067827,2208.0148271174403,stimuli/185_xa.png,l,10.29295165464282,harmless,0.0412,6.5,0.965506805,0.124646393
027,62,1,2,8,8,176,2208.6333022720646,2216.1428534294246,stimuli/118_xb.png,l,7.498155619483441,harmless,0.0412,6.474576271,0.953323265,0.124112118
027,62,1,2,8,9,177,2216.724718242651,2229.8388449443737,stimuli/153_xb.png,l,13.102251853328198,harmless,0.0412,6.633333333,0.973664521,0.125699549
027,62,1,2,8,10,178,2230.479456996778,2236.1027650346514,stimuli/227_xa.png,l,5.611573398695327,harmless,0.0412,6.180327869,1.05685377,0.135316259
027,62,1,2,8,11,179,2236.725104999263,2242.8307864629896,stimuli/147_ya.png,l,6.093938159872778,ambig,0.0412,5.883333333,1.766847875,0.22809908
027,62,1,2,8,12,180,2243.409104299848,2247.406757371966,stimuli/178_xa.png,l,3.985627380781807,harmless,0.0412,6.483333333,1.112207557,0.143585378
027,62,1,2,8,13,181,2248.025418421952,2254.1119928446133,stimuli/164_xb.png,l,6.074888620409183,harmless,0.0412,6.830508475,0.460604639,0.059965616
027,62,1,2,8,14,182,2254.749072886654,2263.9187759740744,stimuli/225_ya.png,l,9.157920005149208,ambig,0.0412,5.85,1.792876677,0.231459384
027,62,1,2,8,15,183,2264.5346056657145,2270.99079779,stimuli/222_ya.png,l,6.444473238894716,ambig,0.0412,5.931034483,1.543089507,0.202617579
027,62,1,2,8,16,184,2271.6216723958496,2280.9028720819624,stimuli/136_xc.png,l,9.27006329887081,harmless,0.0412,6.559322034,1.038420326,0.135190811
027,62,1,2,8,17,185,2281.516560433316,2304.134876474156,stimuli/287_ya.png,a,22.606805499992333,ambig,0.0412,5.950819672,1.407435369,0.180203633
027,62,1,2,8,18,186,2304.6952770784264,2315.7667904392583,stimuli/288_yb.png,a,11.060075287590735,ambig,0.0412,5.189655172,1.914459262,0.251380817
027,62,1,2,8,19,187,2316.3595135845244,2320.8467966936296,stimuli/195_xc.png,l,4.475466943811625,harmless,0.0412,6.637640449,1.001766915,0.05309354
027,62,1,2,8,20,188,2321.419974447228,2330.3907534430036,stimuli/188_xa.png,l,8.958683593664318,harmless,0.0412,6.655172414,0.806807095,0.105938962
027,62,1,2,8,21,189,2331.0085346411215,2344.0707823827397,stimuli/141_xc.png,l,13.050468203960918,harmless,0.0412,6.508474576,1.040107444,0.135410455
027,62,1,2,8,22,190,2344.6344495451776,2348.9747273010435,stimuli/331_za.png,a,4.328808962600306,awful,0.0412,1.983606557,1.638004917,0.209725039
027,62,1,2,8,23,191,2349.6038811940234,2354.1987153533846,stimuli/115_xb.png,l,4.583501636865549,harmless,0.0412,6.440677966,1.021681954,0.133011661
027,62,1,2,8,24,192,2354.7849459486315,2359.2307377837133,stimuli/161_xc.png,l,4.433739756117575,harmless,0.0412,6.796610169,0.609682252,0.079373868
027,62,1,2,9,1,193,2368.276453448925,2376.9107612096705,stimuli/130_xc.png,l,8.621977232629433,harmless,0.0412,6.644067797,0.960651931,0.125066229
027,62,1,2,9,2,194,2377.526618864271,2384.222743105376,stimuli/152_xa.png,l,6.684375423472375,harmless,0.0412,6.576271186,0.968528743,0.126091702
027,62,1,2,9,3,195,2384.7995036753127,2408.0707563889446,stimuli/260_ya.png,a,23.259259711485356,ambig,0.0412,4.966101695,2.016877936,0.262575142
027,62,1,2,9,4,196,2408.691545388312,2416.0227532665012,stimuli/110_xa.png,l,7.319596906541847,harmless,0.0412,6.428571429,1.059281795,0.141552484
027,62,1,2,9,5,197,2416.639886981924,2422.9590514457086,stimuli/163_xa.png,l,6.306755166500807,harmless,0.0412,6.627118644,0.963082427,0.125382652
027,62,1,2,9,6,198,2423.5530352917267,2439.150701990933,stimuli/312_yb.png,l,15.585940330754966,ambig,0.0412,4.677966102,2.112692986,0.275049199
027,62,1,2,9,7,199,2439.775705535547,2450.6386833888246,stimuli/249_ya.png,l,10.851314500090666,ambig,0.0412,5.327868852,1.859402337,0.238072074
027,62,1,2,9,8,200,2451.281397396815,2458.23064168531,stimuli/143_xb.png,l,6.937221747939475,harmless,0.0412,6.655172414,0.738697862,0.096995781
027,62,1,2,9,9,201,2458.848138920497,2466.758657914819,stimuli/157_xc.png,l,7.8988174381665885,harmless,0.0412,6.603448276,0.877389573,0.115206895
027,62,1,2,9,10,202,2467.374081945163,2481.8386941014323,stimuli/245_yb.png,l,14.452859794022515,ambig,0.0412,4.949152542,2.096168334,0.272897873
027,62,1,2,9,11,203,2482.445216032327,2493.254698581877,stimuli/148_xc.png,l,10.797772328718565,harmless,0.0412,6.491525424,1.135218061,0.147792803
027,62,1,2,9,12,204,2493.9025002914714,2506.086650434998,stimuli/170_xc.png,l,12.17201929539442,harmless,0.0412,6.583333333,1.062323432,0.137145365
027,62,1,2,9,13,205,2506.7158378048334,2516.9426241323818,stimuli/203_yb.png,l,10.215164328343235,ambig,0.0412,6,1.542501327,0.200816568
027,62,1,2,9,14,206,2517.5197336499114,2528.67870916205,stimuli/186_xa.png,l,11.147101451526396,harmless,0.0412,6.65,0.879618561,0.113558268
027,62,1,2,9,15,207,2529.305765037774,2537.406624645926,stimuli/117_xc.png,l,8.088383750873618,harmless,0.0412,6.627118644,0.868972939,0.113130641
027,62,1,2,9,16,208,2537.969659685623,2543.9106237574015,stimuli/296_yb.png,a,5.928964768070728,ambig,0.0412,4.229508197,2.052587332,0.262806878
027,62,1,2,9,17,209,2544.477288874914,2554.1746005614987,stimuli/127_xb.png,l,9.685332075110637,harmless,0.0412,6.423728814,1.162686987,0.151368953
027,62,1,2,9,18,210,2554.7755590248853,2561.134614960407,stimuli/205_yb.png,l,6.346731315134093,ambig,0.0412,5.847457627,1.52918233,0.199082582
027,62,1,2,9,19,211,2561.698461322696,2569.902632623678,stimuli/278_xb.png,l,8.192311812541448,harmless,0.0412,6.360655738,1.140654591,0.146045855
027,62,1,2,9,20,212,2570.476574044558,2588.0546449400717,stimuli/181_xa.png,l,17.566213376354426,harmless,0.0412,6.666666667,0.950765377,0.122743282
027,62,1,2,9,21,213,2588.6255419319496,2603.9906012609135,stimuli/239_ya.png,a,15.353018277557567,ambig,0.0412,5.157894737,1.925296579,0.255011762
027,62,1,2,9,22,214,2604.6086246742634,2612.9586004921002,stimuli/291_za.png,a,8.338274261681363,awful,0.0412,2.593220339,1.830005126,0.238246374
027,62,1,2,9,23,215,2613.5900619283784,2626.206576911849,stimuli/155_xb.png,l,12.60450386442244,harmless,0.0412,6.655737705,0.892286312,0.114245555
027,62,1,2,9,24,216,2626.8085814299993,2634.110624230001,stimuli/193_xc.png,l,7.290054130135104,harmless,0.0412,6.482758621,1.012923151,0.133003326
027,62,1,2,10,1,217,2643.274392847088,2655.7425854566973,stimuli/219_ya.png,l,12.456507594906725,ambig,0.0412,5.271186441,1.998538332,0.260187529
027,62,1,2,10,2,218,2656.3517626967514,2665.1505558741046,stimuli/131_xb.png,l,8.787061688839458,harmless,0.0412,6.525423729,1.119666394,0.145768149
027,62,1,2,10,3,219,2665.716484105913,2680.9425260646967,stimuli/202_yb.png,l,15.214100550394505,ambig,0.0412,5.431034483,1.892849601,0.248543329
027,62,1,2,10,4,220,2681.519979409757,2692.966557361302,stimuli/242_xb.png,l,11.434651115559973,harmless,0.0412,6.576271186,0.913564256,0.118935936
027,62,1,2,10,5,221,2693.560808234848,2704.038516161847,stimuli/165_xb.png,l,10.466015823185444,harmless,0.0412,6.557377049,1.008705278,0.129151477
027,62,1,2,10,6,222,2704.616177851334,2710.2385201790603,stimuli/240_xa.png,l,5.611023195902817,harmless,0.0412,6.482758621,1.096107616,0.143925981
027,62,1,2,10,7,223,2710.8882678813534,2717.20652768109,stimuli/134_xc.png,l,6.306060422328301,harmless,0.0412,6.516666667,0.965360505,0.124627505
027,62,1,2,10,8,224,2717.763408878236,2724.918531002011,stimuli/133_xa.png,l,7.142919595586136,harmless,0.0412,6.568965517,1.186356193,0.1557762
027,62,1,2,10,9,225,2725.495390821132,2735.1106951222755,stimuli/263_ya.png,a,9.603536578826606,ambig,0.0412,4.983050847,2.071910042,0.269739712
027,62,1,2,10,10,226,2735.671766840038,2743.4545269437367,stimuli/213_ya.png,l,7.770826966152526,ambig,0.0412,5.98245614,1.597891781,0.211645937
027,62,1,2,10,11,227,2744.048161842278,2763.110535220825,stimuli/284_ya.png,a,19.05036619794555,ambig,0.0412,5.948275862,1.431750417,0.18799804
027,62,1,2,10,12,228,2763.7360602174886,2771.8065192527138,stimuli/264_xa.png,l,8.058701946865767,harmless,0.0412,6.533333333,0.947193297,0.122282129
027,62,1,2,10,13,229,2772.4240326356376,2782.2705095263664,stimuli/180_xc.png,l,9.834664270048961,harmless,0.0412,6.672131148,0.723908638,0.092687003
027,62,1,2,10,14,230,2782.912484285538,2788.8385007231263,stimuli/101_xa.png,l,5.914192789234221,harmless,0.0412,6.508522727,1.13475832,0.060482822
027,62,1,2,10,15,231,2789.4365923820296,2804.4625334375305,stimuli/121_xc.png,l,15.014098108629696,harmless,0.0412,6.508474576,1.006408455,0.131023221
027,62,1,2,10,16,232,2805.063353660982,2817.438594694715,stimuli/169_xc.png,l,12.363384302239865,harmless,0.0412,6.603448276,0.916508538,0.120343467
027,62,1,2,10,17,233,2818.005988427205,2824.9744327042717,stimuli/166_xa.png,l,6.956724210176617,harmless,0.0412,6.593220339,1.052397002,0.13701042
027,62,1,2,10,18,234,2825.5389919277513,2837.2224244839745,stimuli/325_yb.png,a,11.671749904635362,ambig,0.0412,5.131147541,1.811770863,0.231973488
027,62,1,2,10,19,235,2837.8456667496357,2845.582446523593,stimuli/212_ya.png,l,7.7246217504143715,ambig,0.0412,5.677966102,1.490668422,0.194068498
027,62,1,2,10,20,236,2846.160424077534,2859.782479291549,stimuli/154_xc.png,l,13.61027725180611,harmless,0.0412,6.5,0.965506805,0.124646393
027,62,1,2,10,21,237,2860.3712868206203,2868.0224523682846,stimuli/216_xa.png,l,7.639216656214558,harmless,0.0412,6.603448276,0.877389573,0.115206895
027,62,1,2,10,22,238,2868.6523140022764,2888.430511401035,stimuli/243_ya.png,l,19.76626386726275,ambig,0.0412,5.830508475,1.652088985,0.215083666
027,62,1,2,10,23,239,2889.0260099784937,2895.118415290024,stimuli/129_xa.png,l,6.080238229478709,harmless,0.0412,6.770491803,0.642740036,0.082294429
027,62,1,2,10,24,240,2895.7063831395935,2905.4944278679322,stimuli/303_zb.png,l,9.776021006167866,awful,0.0412,3.620689655,2.158846233,0.283470398
