id,age,condition,counterbalance,block,trialinblock,trial,tstart,tend,trialstim,response,RT,trialtype,ethicfreq,norm_mean,norm_sd,norm_se
117,19,1,1,0,0,practice,3.938330337405205e-06,8.39180769934319,stimuli/prac_217_1.png,l,8.377686764346436,harmless,NA,NA,NA,NA
117,19,1,1,1,1,1,4.072743649594486,12.751795049058273,stimuli/131_xb.png,l,8.667182866716757,harmless,0.333,6.525423729,1.119666394,0.145768149
117,19,1,1,1,2,2,13.307632685406134,31.775762908160686,stimuli/218_yb.png,l,18.45604980108328,ambig,0.333,5.850282486,1.552723069,0.0825263
117,19,1,1,1,3,3,32.326213132590055,38.41571923857555,stimuli/232_yb.png,l,6.077116515720263,ambig,0.333,5.483333333,1.845669845,0.238274952
117,19,1,1,1,4,4,38.96971485973336,47.94372421037406,stimuli/237_ya.png,l,8.961858430644497,ambig,0.333,4.305084746,2.019339575,0.26289562
117,19,1,1,1,5,5,48.49002960533835,57.359691571677104,stimuli/191_ya.png,l,8.857534677023068,ambig,0.333,5.517241379,2.062542966,0.270825159
117,19,1,1,1,6,6,57.91491441545077,66.52765248017386,stimuli/345_zb.png,a,8.600596990901977,awful,0.333,3.694915254,2.191317013,0.285285176
117,19,1,1,1,7,7,67.0867854214739,76.23966362443753,stimuli/343_zb.png,a,9.140744218369946,awful,0.333,3.103448276,2.141401862,0.28117984
117,19,1,1,1,8,8,76.7934071845375,87.35966479009949,stimuli/196_xb.png,l,10.554157097823918,harmless,0.333,6.594366197,0.982313556,0.05213579
117,19,1,1,1,9,9,87.90922019770369,98.62366373161785,stimuli/193_xc.png,l,10.702421401394531,harmless,0.333,6.482758621,1.012923151,0.133003326
117,19,1,1,1,10,10,99.17709733522497,104.58362815948203,stimuli/143_xb.png,l,5.3945677685551345,harmless,0.333,6.655172414,0.738697862,0.096995781
117,19,1,1,1,11,11,105.14558300352655,112.43161090277135,stimuli/312_yb.png,a,7.2738100255373865,ambig,0.333,4.677966102,2.112692986,0.275049199
117,19,1,1,1,12,12,113.08401274960488,121.9995679515414,stimuli/234_xb.png,l,8.903942274861038,harmless,0.333,6.637931034,0.788030542,0.103473479
117,19,1,1,1,13,13,122.55380421224982,129.47955764853396,stimuli/153_xb.png,l,6.913632842246443,harmless,0.333,6.633333333,0.973664521,0.125699549
117,19,1,1,1,14,14,130.04134550201707,137.11155318072997,stimuli/174_xc.png,l,7.058102050796151,harmless,0.333,6.533333333,1.111826512,0.143536185
117,19,1,1,1,15,15,137.66971253603697,148.58356514410116,stimuli/340_za.png,a,10.901693023508415,awful,0.333,2.508474576,1.832398855,0.238558011
117,19,1,1,1,16,16,149.14638881129213,157.06354617653415,stimuli/160_xb.png,l,7.905440069036558,harmless,0.333,6.666666667,0.680644427,0.087870818
117,19,1,1,1,17,17,157.61545599228702,165.54352878429927,stimuli/305_zb.png,a,7.915945896646008,awful,0.333,2.75,2.12830003,0.274762352
117,19,1,1,1,18,18,166.10145380161703,173.6795145617798,stimuli/147_ya.png,l,7.565933076897636,ambig,0.333,5.883333333,1.766847875,0.22809908
117,19,1,1,1,19,19,174.2280636942014,181.5279277781956,stimuli/320_za.png,a,7.287721040891483,awful,0.333,1.423728814,1.117314975,0.14546202
117,19,1,1,1,20,20,182.0906707069371,191.49549184786156,stimuli/245_yb.png,l,9.392661950085312,ambig,0.333,4.949152542,2.096168334,0.272897873
117,19,1,1,1,21,21,192.04601257061586,205.25544855650514,stimuli/365_zb.png,a,13.197286641225219,awful,0.333,2.966101695,2.165291266,0.281896912
117,19,1,1,1,22,22,205.81307661440223,218.63145045004785,stimuli/300_za.png,a,12.806196528021246,awful,0.333,3.75,2.12032137,0.273732312
117,19,1,1,1,23,23,219.19001743546687,230.71142628369853,stimuli/276_ya.png,l,11.509173645172268,ambig,0.333,5.186440678,1.804922162,0.234980851
117,19,1,1,1,24,24,231.26977822952904,243.6154134569224,stimuli/370_za.png,a,12.333678473252803,awful,0.333,2.393442623,1.882185684,0.240989182
117,19,1,1,2,1,25,252.23885151511058,260.791733735241,stimuli/261_yb.png,l,8.541109785670415,ambig,0.333,5.706896552,1.901141123,0.249632059
117,19,1,1,2,2,26,261.33829512959346,268.23930876958184,stimuli/369_za.png,a,6.888774104649201,awful,0.333,2.948275862,2.055565093,0.26990892
117,19,1,1,2,3,27,268.7988962086383,276.1274728078861,stimuli/292_zb.png,l,7.3166781342588365,awful,0.333,2.396551724,1.955107169,0.256718148
117,19,1,1,2,4,28,276.68450064514764,302.3512617035303,stimuli/188_xa.png,l,25.654545941390097,harmless,0.333,6.655172414,0.806807095,0.105938962
117,19,1,1,2,5,29,302.8992436984554,308.8872377136722,stimuli/102_xc.png,l,5.975925408769399,harmless,0.333,6.66011236,0.937292468,0.049676401
117,19,1,1,2,6,30,309.4419977888465,313.9992587827146,stimuli/115_xb.png,l,4.545025790808722,harmless,0.333,6.440677966,1.021681954,0.133011661
117,19,1,1,2,7,31,314.5521169784479,321.43921369547024,stimuli/284_ya.png,l,6.875004873843864,ambig,0.333,5.948275862,1.431750417,0.18799804
117,19,1,1,2,8,32,321.9974746629596,331.8072146184277,stimuli/198_yb.png,l,9.797560284845531,ambig,0.333,5.101694915,1.83542643,0.238952168
117,19,1,1,2,9,33,332.36097550787963,340.65524462331086,stimuli/334_za.png,a,8.282473050290719,awful,0.333,3.333333333,2.214487481,0.285889104
117,19,1,1,2,10,34,341.203474347014,352.76723891100846,stimuli/210_yb.png,l,11.551775120664388,ambig,0.333,5.557377049,1.76564049,0.226067099
117,19,1,1,2,11,35,353.3168061338365,360.39916985249147,stimuli/108_xb.png,l,7.070315592223778,harmless,0.333,6.568965517,1.077880782,0.141532681
117,19,1,1,2,12,36,361.01045817206614,370.07920744107105,stimuli/177_xb.png,l,9.056484921369702,harmless,0.333,6.482758621,1.063614811,0.139659467
117,19,1,1,2,13,37,370.6321593718603,379.4071373459883,stimuli/133_xa.png,l,8.762925909366459,harmless,0.333,6.568965517,1.186356193,0.1557762
117,19,1,1,2,14,38,379.96224991302006,385.9751991578378,stimuli/111_xa.png,l,6.000755395740271,harmless,0.333,6.590163934,0.863655973,0.110579816
117,19,1,1,2,15,39,386.52663793438114,395.5271519026719,stimuli/328_za.png,a,8.988408734556288,awful,0.333,2.706896552,1.955725922,0.256799395
117,19,1,1,2,16,40,396.0920645259321,404.3751188919414,stimuli/352_zb.png,a,8.270894781220704,awful,0.333,2.93442623,2.135952968,0.273480754
117,19,1,1,2,17,41,404.9379374391865,412.3111091593746,stimuli/357_za.png,a,7.360975114163011,awful,0.333,2.793103448,2.066937905,0.271402243
117,19,1,1,2,18,42,412.883710433729,422.6232025385834,stimuli/279_ya.png,a,9.727416803129017,ambig,0.333,5.31147541,1.970964092,0.252356093
117,19,1,1,2,19,43,423.17631988436915,431.77508667553775,stimuli/271_ya.png,l,8.586791526293382,ambig,0.333,5.711864407,1.771915459,0.230683744
117,19,1,1,2,20,44,432.3348139296286,441.6870173176285,stimuli/309_ya.png,a,9.340096184751019,ambig,0.333,4.706896552,1.946734744,0.255618795
117,19,1,1,2,21,45,442.2461207206361,451.8950965057593,stimuli/342_yb.png,a,9.63675515446812,ambig,0.333,4.916666667,2.085394461,0.269223267
117,19,1,1,2,22,46,452.4517687007319,460.55104650650173,stimuli/371_zb.png,a,8.087113494984806,awful,0.333,3.131147541,2.085468851,0.267016925
117,19,1,1,2,23,47,461.10669667227194,466.3829536596313,stimuli/298_za.png,a,5.2642403685022146,awful,0.333,2.881355932,2.026418156,0.263817173
117,19,1,1,2,24,48,466.93681458570063,471.79892535321414,stimuli/103_xb.png,l,4.8500748502556235,harmless,0.333,6.779661017,0.589207434,0.076708274
117,19,1,1,3,1,49,480.1913695069961,492.6549200946465,stimuli/215_yb.png,a,12.451326806331053,ambig,0.333,5.866666667,1.466769385,0.189359113
117,19,1,1,3,2,50,493.2096080961637,503.03090584045276,stimuli/267_ya.png,l,9.810121985618025,ambig,0.333,5.103448276,1.898195405,0.249245267
117,19,1,1,3,3,51,503.5853236641269,510.89491691230796,stimuli/203_yb.png,l,7.297502192668617,ambig,0.333,6,1.542501327,0.200816568
117,19,1,1,3,4,52,511.44621232920326,517.4628203981556,stimuli/107_xa.png,l,6.004518589004874,harmless,0.333,6.813559322,0.540580029,0.070377525
117,19,1,1,3,5,53,518.0270189796574,525.5350599254016,stimuli/130_xc.png,l,7.49648788315244,harmless,0.333,6.644067797,0.960651931,0.125066229
117,19,1,1,3,6,54,526.1132317499723,533.9748529675417,stimuli/364_za.png,a,7.848922852426767,awful,0.333,1.677966102,1.279017376,0.166513879
117,19,1,1,3,7,55,534.5325129269622,543.5429057208821,stimuli/296_yb.png,a,8.998420285992324,ambig,0.333,4.229508197,2.052587332,0.262806878
117,19,1,1,3,8,56,544.115508176852,551.0950077332091,stimuli/264_xa.png,l,6.967458519386128,harmless,0.333,6.533333333,0.947193297,0.122282129
117,19,1,1,3,9,57,551.6968028019182,564.8467618222348,stimuli/227_xa.png,l,13.138300013262779,harmless,0.333,6.180327869,1.05685377,0.135316259
117,19,1,1,3,10,58,565.4123195644934,572.5667408539448,stimuli/214_xb.png,l,7.142306209309027,harmless,0.333,6.465517241,0.940614156,0.12350869
117,19,1,1,3,11,59,573.1148587255739,579.286802593153,stimuli/257_yb.png,l,6.15982209215872,ambig,0.333,5.620689655,1.843219782,0.242026615
117,19,1,1,3,12,60,579.8499945057556,586.8227502463851,stimuli/331_za.png,a,6.960857275407761,awful,0.333,1.983606557,1.638004917,0.209725039
117,19,1,1,3,13,61,587.4825689909048,595.6227051117457,stimuli/142_xa.png,l,8.128378258552402,harmless,0.333,6.4,1.076718178,0.139003719
117,19,1,1,3,14,62,596.1816328596324,605.2627024019603,stimuli/303_zb.png,a,9.068851668620482,awful,0.333,3.620689655,2.158846233,0.283470398
117,19,1,1,3,15,63,605.95538479276,613.8467086532619,stimuli/163_xa.png,l,7.878785790409893,harmless,0.333,6.627118644,0.963082427,0.125382652
117,19,1,1,3,16,64,614.4058616806287,624.7107646232471,stimuli/212_ya.png,a,10.292715394869447,ambig,0.333,5.677966102,1.490668422,0.194068498
117,19,1,1,3,17,65,625.26725919405,642.3266294272617,stimuli/205_yb.png,l,17.04739142372273,ambig,0.333,5.847457627,1.52918233,0.199082582
117,19,1,1,3,18,66,642.8822823502123,651.9026512494311,stimuli/349_za.png,a,9.008292810060084,awful,0.333,3.288135593,2.101320172,0.273568585
117,19,1,1,3,19,67,652.4626640414353,662.5106265412178,stimuli/252_zb.png,a,10.035882078111172,awful,0.333,2.711864407,1.983125776,0.258180985
117,19,1,1,3,20,68,663.0721008935943,670.3186174291186,stimuli/301_za.png,a,7.23431953554973,awful,0.333,3.610169492,2.212947396,0.288101212
117,19,1,1,3,21,69,670.8687848725822,680.0305927335285,stimuli/223_yb.png,l,9.149763673078269,ambig,0.333,5.542372881,1.77455224,0.231027024
117,19,1,1,3,22,70,680.5915830498561,686.6785850864835,stimuli/164_xb.png,l,6.074814488878474,harmless,0.333,6.830508475,0.460604639,0.059965616
117,19,1,1,3,23,71,687.2344372952357,694.7985295385588,stimuli/316_za.png,a,7.551883428124711,awful,0.333,2.344827586,1.802062407,0.236622386
117,19,1,1,3,24,72,695.36049619806,701.3585714751389,stimuli/337_zb.png,a,5.986242978135124,awful,0.333,3.033333333,2.20143764,0.284204377
117,19,1,1,4,1,73,709.8403665598016,716.8065112105105,stimuli/255_xb.png,l,6.95415520737879,harmless,0.333,6.770491803,0.642740036,0.082294429
117,19,1,1,4,2,74,717.3674964071251,728.1825272825081,stimuli/373_zb.png,a,10.80317021952942,awful,0.333,2.327586207,1.858011869,0.243968911
117,19,1,1,4,3,75,728.7918558272067,736.5024971771054,stimuli/104_xc.png,l,7.698883881326765,harmless,0.333,6.745762712,0.756425814,0.098478253
117,19,1,1,4,4,76,737.0598196107894,745.3664692582097,stimuli/289_yb.png,l,8.294581828638911,ambig,0.333,5.305084746,1.714584873,0.223219937
117,19,1,1,4,5,77,745.9224089004565,751.2304854500107,stimuli/270_yb.png,l,5.2959531985688955,ambig,0.333,5.534482759,1.912246013,0.251090203
117,19,1,1,4,6,78,751.7808391822036,762.1904947762378,stimuli/269_za.png,a,10.397506249370053,awful,0.333,3.457627119,2.119873401,0.27598401
117,19,1,1,4,7,79,762.7530222714413,770.5344128373545,stimuli/295_za.png,a,7.7692624889314175,awful,0.333,2.3,1.825432384,0.235662307
117,19,1,1,4,8,80,771.1372752273455,779.5344530097209,stimuli/127_xb.png,l,8.385254504857585,harmless,0.333,6.423728814,1.162686987,0.151368953
117,19,1,1,4,9,81,780.0825689120684,785.5423897833098,stimuli/184_xb.png,l,5.447929495479912,harmless,0.333,6.508474576,1.194425,0.15550089
117,19,1,1,4,10,82,786.0996247832663,792.7104243407957,stimuli/315_yb.png,a,6.598678175825626,ambig,0.333,5.050847458,1.915667965,0.249398726
117,19,1,1,4,11,83,793.2741629108787,803.0704172044061,stimuli/308_zb.png,a,9.783954106038436,awful,0.333,1.644067797,1.471132708,0.191525165
117,19,1,1,4,12,84,803.6480711221229,808.9263918595389,stimuli/190_xc.png,l,5.266677484149113,harmless,0.333,6.517241379,1.046990328,0.137476565
117,19,1,1,4,13,85,809.5425221154001,817.9903460601345,stimuli/244_xb.png,l,8.435607252642512,harmless,0.333,6.610169492,0.743174671,0.096753101
117,19,1,1,4,14,86,818.5450490277726,826.614331563469,stimuli/239_ya.png,a,8.057216292480007,ambig,0.333,5.157894737,1.925296579,0.255011762
117,19,1,1,4,15,87,827.171686292626,836.662284610793,stimuli/265_yb.png,l,9.478519471827894,ambig,0.333,5.627118644,1.856008928,0.241631781
117,19,1,1,4,16,88,837.2184219635092,846.1183040856849,stimuli/326_zb.png,a,8.887844235636294,awful,0.333,3.389830508,2.220724867,0.289113752
117,19,1,1,4,17,89,846.6729739704169,857.3103088652715,stimuli/323_yb.png,a,10.625520318979397,ambig,0.333,4.603448276,1.955107169,0.256718148
117,19,1,1,4,18,90,857.8661894309334,867.6462810945231,stimuli/361_za.png,a,9.767954528098926,awful,0.333,2.416666667,1.907093508,0.246204713
117,19,1,1,4,19,91,868.1955730195623,873.6542300772853,stimuli/260_ya.png,l,5.446545522427186,ambig,0.333,4.966101695,2.016877936,0.262575142
117,19,1,1,4,20,92,874.2143094292842,887.6943700185511,stimuli/274_xb.png,l,13.467873435467482,harmless,0.333,6.491525424,1.179901828,0.153610134
117,19,1,1,4,21,93,888.2451660393272,899.6542025082745,stimuli/167_xb.png,l,11.396967862732708,harmless,0.333,6.590163934,0.955284411,0.122311635
117,19,1,1,4,22,94,900.2015976733528,909.9661903367378,stimuli/251_ya.png,l,9.752470100298524,ambig,0.333,5.655172414,1.792300532,0.235340589
117,19,1,1,4,23,95,910.5154231849592,920.5901526033413,stimuli/321_zb.png,a,10.062695076689124,awful,0.333,2.918032787,2.177881861,0.278849198
117,19,1,1,4,24,96,921.1429135189392,931.4782055770047,stimuli/327_zb.png,a,10.32333766692318,awful,0.333,2.502808989,1.906990248,0.101070281
117,19,1,1,5,1,97,1380.9641506110784,1388.7493740811478,stimuli/249_ya.png,a,7.773180857533589,ambig,0.25,5.327868852,1.859402337,0.238072074
117,19,1,1,5,2,98,1389.306882803794,1395.3812971457373,stimuli/195_xc.png,l,6.062186228344217,harmless,0.25,6.637640449,1.001766915,0.05309354
117,19,1,1,5,3,99,1395.9372371819336,1405.1172820567153,stimuli/231_xb.png,l,9.16789395478554,harmless,0.25,6.62295082,1.05141071,0.134619347
117,19,1,1,5,4,100,1405.673500935547,1415.0293028894812,stimuli/122_xa.png,l,9.343571477103978,harmless,0.25,6.457627119,1.039264227,0.135300678
117,19,1,1,5,5,101,1415.5908552235924,1427.7653055235278,stimuli/149_xa.png,l,12.16253214259632,harmless,0.25,6.721311475,0.933294301,0.11949609
117,19,1,1,5,6,102,1428.317434711149,1436.8612273719627,stimuli/161_xc.png,l,8.531661826884374,harmless,0.25,6.796610169,0.609682252,0.079373868
117,19,1,1,5,7,103,1437.4134365103673,1526.86917359801,stimuli/201_yb.png,l,89.44370510894805,ambig,0.25,5.898305085,1.626238682,0.211718243
117,19,1,1,5,8,104,1527.41796612693,1534.013056764612,stimuli/158_xa.png,l,6.582964529981837,harmless,0.25,6.786885246,0.661179605,0.084655374
117,19,1,1,5,9,105,1534.568380432669,1543.3970293025486,stimuli/228_ya.png,l,8.816561752930284,ambig,0.25,5.442622951,1.793735303,0.229664272
117,19,1,1,5,10,106,1543.9594926009886,1550.8530263281427,stimuli/124_xa.png,l,6.881367447087541,harmless,0.25,6.344262295,1.181598436,0.151288177
117,19,1,1,5,11,107,1551.4135597839486,1558.5171580740716,stimuli/254_ya.png,a,7.091363874962553,ambig,0.25,5.983606557,1.627798137,0.208418195
117,19,1,1,5,12,108,1559.0721843889914,1568.7170196769293,stimuli/182_xb.png,l,9.63263041106984,harmless,0.25,6.542372881,0.988241802,0.128658124
117,19,1,1,5,13,109,1569.276821761625,1579.605031690793,stimuli/273_ya.png,a,10.31616259040311,ambig,0.25,5.551724138,1.836973233,0.241206403
117,19,1,1,5,14,110,1580.1542688710615,1588.9729837770574,stimuli/302_za.png,a,8.806657721055672,awful,0.25,3.137931034,2.188071937,0.287307921
117,19,1,1,5,15,111,1589.531672854675,1597.1649554737378,stimuli/229_za.png,a,7.621291206451133,awful,0.25,3.406779661,2.043649913,0.266060557
117,19,1,1,5,16,112,1597.7200837945566,1606.2209362729918,stimuli/306_zb.png,a,8.488711010664701,awful,0.25,2.352112676,1.917055413,0.101746737
117,19,1,1,5,17,113,1606.7680711064022,1611.5489500670228,stimuli/156_xc.png,l,4.76874418836087,harmless,0.25,6.590163934,0.955284411,0.122311635
117,19,1,1,5,18,114,1612.1136157494038,1618.0769735497888,stimuli/294_za.png,a,5.951276984997094,awful,0.25,1.557377049,1.38473331,0.177296933
117,19,1,1,5,19,115,1618.6327020910103,1628.7728925624397,stimuli/217_yb.png,a,10.128187637310475,ambig,0.25,5.169491525,2.001314588,0.260548967
117,19,1,1,5,20,116,1629.3297061480116,1637.068927287124,stimuli/293_zb.png,a,7.727068250067532,awful,0.25,3.677966102,2.169066842,0.28238845
117,19,1,1,5,21,117,1637.6195066927467,1646.2848747195676,stimuli/207_yb.png,a,8.6531308547128,ambig,0.25,5.655737705,1.662179753,0.212820309
117,19,1,1,5,22,118,1646.8517735057976,1653.5968936621211,stimuli/123_xc.png,l,6.733080694684759,harmless,0.25,6.491525424,1.023396666,0.133234897
117,19,1,1,5,23,119,1654.1628129545134,1660.5808113766834,stimuli/290_zb.png,a,6.405800240812823,awful,0.25,2.586206897,2.026443456,0.266085062
117,19,1,1,5,24,120,1661.1307279404718,1672.3487962309737,stimuli/319_ya.png,a,11.206010317895561,ambig,0.25,4.216666667,2.108028774,0.272145344
117,19,1,1,6,1,121,1693.573742638575,1705.5887985625304,stimuli/114_xc.png,a,12.003199600381777,harmless,0.166,6.644067797,0.97843492,0.127381377
117,19,1,1,6,2,122,1706.1415527828503,1714.044746357482,stimuli/283_yb.png,l,7.8909619161859155,ambig,0.166,5.949152542,1.478859402,0.192531095
117,19,1,1,6,3,123,1714.5944723002613,1720.972769525135,stimuli/288_yb.png,a,6.366217197151855,ambig,0.166,5.189655172,1.914459262,0.251380817
117,19,1,1,6,4,124,1721.5359492285643,1729.9087121370248,stimuli/140_xb.png,l,8.36081481887959,harmless,0.166,6.724137931,0.790138861,0.103750315
117,19,1,1,6,5,125,1730.4998946462292,1737.100721249124,stimuli/180_xc.png,l,6.588314526481554,harmless,0.166,6.672131148,0.723908638,0.092687003
117,19,1,1,6,6,126,1737.7607373101637,1746.300721091684,stimuli/152_xa.png,l,8.528166054747999,harmless,0.166,6.576271186,0.968528743,0.126091702
117,19,1,1,6,7,127,1746.8999116604682,1753.1086848042905,stimuli/105_xa.png,l,6.197274825768545,harmless,0.166,6.557377049,1.088187946,0.139328189
117,19,1,1,6,8,128,1753.767933654366,1761.7726641320623,stimuli/165_xb.png,l,7.992688259109855,harmless,0.166,6.557377049,1.008705278,0.129151477
117,19,1,1,6,9,129,1762.3230533103924,1771.4606826049276,stimuli/268_zb.png,a,9.125453955959529,awful,0.166,2.655737705,2.048456703,0.262278005
117,19,1,1,6,10,130,1772.0125345254783,1780.7326451013796,stimuli/329_zb.png,a,8.708038425073028,awful,0.166,2.406779661,1.992387617,0.259386774
117,19,1,1,6,11,131,1781.2956085838377,1787.7486049009021,stimuli/277_yb.png,a,6.440853274194524,ambig,0.166,5.491525424,2.02886822,0.264136144
117,19,1,1,6,12,132,1788.332748604007,1795.8125807628967,stimuli/125_xc.png,l,7.4674732885323465,harmless,0.166,6.683333333,0.999858747,0.129081209
117,19,1,1,6,13,133,1796.377703699749,1804.7086016240064,stimuli/250_yb.png,l,8.318706831894815,ambig,0.166,5.950819672,1.585625318,0.203018519
117,19,1,1,6,14,134,1805.2547723238822,1812.284603360109,stimuli/189_yb.png,l,7.017669876338914,ambig,0.166,5.983333333,1.455459234,0.187898979
117,19,1,1,6,15,135,1812.8377498504706,1820.3566542356275,stimuli/154_xc.png,l,7.506779458839446,harmless,0.166,6.5,0.965506805,0.124646393
117,19,1,1,6,16,136,1820.959308281308,1828.3325402596965,stimuli/112_xc.png,l,7.3614406392443925,harmless,0.166,6.706896552,0.749470472,0.098410294
117,19,1,1,6,17,137,1828.8842472450342,1837.364592190599,stimuli/347_zb.png,a,8.468194419285282,awful,0.166,3.796610169,2.147810923,0.279621165
117,19,1,1,6,18,138,1837.9191545555368,1847.476561272284,stimuli/221_xb.png,l,9.545263673644513,harmless,0.166,6.440677966,1.133672495,0.147591588
117,19,1,1,6,19,139,1848.0313528550323,1855.4045202429406,stimuli/358_za.png,a,7.361005834070966,awful,0.166,3.949152542,2.112554662,0.275031191
117,19,1,1,6,20,140,1855.9549169044476,1865.8604810349643,stimuli/224_yb.png,l,9.893420299747959,ambig,0.166,5.881355932,1.609077116,0.209483997
117,19,1,1,6,21,141,1866.4135011008475,1874.1885062505025,stimuli/118_xb.png,l,7.763220505788922,harmless,0.166,6.474576271,0.953323265,0.124112118
117,19,1,1,6,22,142,1874.7543388968334,1880.420506036142,stimuli/132_xc.png,l,5.654485682956874,harmless,0.166,6.627118644,0.692280217,0.090127208
117,19,1,1,6,23,143,1880.983738908777,1889.004479598254,stimuli/202_yb.png,a,8.00933571276255,ambig,0.166,5.431034483,1.892849601,0.248543329
117,19,1,1,6,24,144,1889.557572525693,1894.756533403648,stimuli/209_ya.png,a,5.187151422025636,ambig,0.166,5.603448276,1.825161903,0.239655499
117,19,1,1,7,1,145,1904.26404580893,1913.6364514995366,stimuli/166_xa.png,l,9.360739594325423,harmless,0.083,6.593220339,1.052397002,0.13701042
117,19,1,1,7,2,146,1914.1939456500113,1927.4284148467705,stimuli/168_xa.png,l,13.222225329140201,harmless,0.083,6.474576271,1.164946827,0.151663159
117,19,1,1,7,3,147,1927.993477919139,1934.3003741137218,stimuli/330_ya.png,a,6.294647600734606,ambig,0.083,4.796610169,2.049219036,0.266785595
117,19,1,1,7,4,148,1934.851467487868,1942.1483288940508,stimuli/287_ya.png,l,7.284752233885229,ambig,0.083,5.950819672,1.407435369,0.180203633
117,19,1,1,7,5,149,1942.697059982922,1949.7564077670686,stimuli/138_xc.png,a,7.047401269897819,harmless,0.083,6.661016949,0.70978796,0.092406522
117,19,1,1,7,6,150,1950.3290941121522,1956.5003310269676,stimuli/185_xa.png,l,6.159418006660417,harmless,0.083,6.5,0.965506805,0.124646393
117,19,1,1,7,7,151,1957.0609231658746,1974.740326269297,stimuli/304_ya.png,a,17.66730771563016,ambig,0.083,4.034482759,2.017167697,0.264867095
117,19,1,1,7,8,152,1975.3048757673241,1984.8202556292526,stimuli/359_za.png,a,9.503969371318817,awful,0.083,2.01754386,1.641985167,0.217486248
117,19,1,1,7,9,153,1985.3701359592378,1997.6282445481047,stimuli/281_ya.png,l,12.245901348767802,ambig,0.083,5.881355932,1.543448286,0.200939852
117,19,1,1,7,10,154,1998.1845280174166,2008.9322231353726,stimuli/181_xa.png,l,10.736032566288486,harmless,0.083,6.666666667,0.950765377,0.122743282
117,19,1,1,7,11,155,2009.4826871445403,2017.884198408341,stimuli/101_xa.png,l,8.389549389714375,harmless,0.083,6.508522727,1.13475832,0.060482822
117,19,1,1,7,12,156,2018.4414204114582,2022.708253070945,stimuli/247_ya.png,a,4.25475853937678,ambig,0.083,4.65,2.081598147,0.268733165
117,19,1,1,7,13,157,2023.2711531440727,2029.308212032076,stimuli/226_yb.png,l,6.0249193895142525,ambig,0.083,5.683333333,1.712285287,0.22105508
117,19,1,1,7,14,158,2029.864804276498,2041.7241955411155,stimuli/186_xa.png,l,11.847539273323491,harmless,0.083,6.65,0.879618561,0.113558268
117,19,1,1,7,15,159,2042.2774909050204,2050.236146584386,stimuli/262_ya.png,a,7.946827712701634,ambig,0.083,5.491525424,1.7750462,0.231091332
117,19,1,1,7,16,160,2050.7912237052806,2060.060211093165,stimuli/120_xa.png,l,9.256800234084949,harmless,0.083,6.440677966,1.054893138,0.137335389
117,19,1,1,7,17,161,2060.6213589478284,2065.6921455794945,stimuli/117_xc.png,l,5.058631773106754,harmless,0.083,6.627118644,0.868972939,0.113130641
117,19,1,1,7,18,162,2066.2477977145463,2072.0041401034687,stimuli/346_zb.png,a,5.7442032841499895,awful,0.083,1.288135593,0.983499162,0.128040685
117,19,1,1,7,19,163,2072.562460935442,2082.300124415662,stimuli/170_xc.png,l,9.72552555706352,harmless,0.083,6.583333333,1.062323432,0.137145365
117,19,1,1,7,20,164,2082.8605306593236,2093.3400950033683,stimuli/350_ya.png,a,10.467413817765191,ambig,0.083,4.915254237,2.02814792,0.264042369
117,19,1,1,7,21,165,2093.892347070854,2101.2361079875845,stimuli/148_xc.png,l,7.3317265750374645,harmless,0.083,6.491525424,1.135218061,0.147792803
117,19,1,1,7,22,166,2101.799075408373,2106.8040417996235,stimuli/150_xc.png,l,4.992801686748862,harmless,0.083,6.482758621,1.030097582,0.135258439
117,19,1,1,7,23,167,2107.3832104469184,2111.708156972658,stimuli/113_xb.png,l,4.31307641742751,harmless,0.083,6.733333333,0.660422737,0.085260209
117,19,1,1,7,24,168,2112.3640380501747,2119.9160297857597,stimuli/172_xb.png,l,7.539756532758474,harmless,0.083,6.482758621,1.127664553,0.14806961
117,19,1,1,8,1,169,2128.5012360839173,2135.1559939142317,stimuli/116_xa.png,l,6.643008238868788,harmless,0.0412,6.63559322,0.958030802,0.050918763
117,19,1,1,8,2,170,2135.708032517461,2145.8600592263974,stimuli/194_xb.png,l,10.13986200443469,harmless,0.0412,6.586206897,1.026567825,0.134794959
117,19,1,1,8,3,171,2146.4198573727626,2155.164056324633,stimuli/241_yb.png,a,8.732099231798202,ambig,0.0412,5.508474576,1.442852555,0.187843403
117,19,1,1,8,4,172,2155.718512351159,2163.643974341685,stimuli/272_xb.png,l,7.913339821156114,harmless,0.0412,6.355932203,1.029943284,0.134087194
117,19,1,1,8,5,173,2164.2049024305306,2170.5879202871583,stimuli/216_xa.png,l,6.370838973438367,harmless,0.0412,6.603448276,0.877389573,0.115206895
117,19,1,1,8,6,174,2171.1453112501185,2178.995916610351,stimuli/275_yb.png,a,7.838487523375079,ambig,0.0412,4.836065574,2.138382004,0.27379176
117,19,1,1,8,7,175,2179.5530834749807,2186.659941230435,stimuli/146_xa.png,l,7.094751733820885,harmless,0.0412,6.442622951,1.162247681,0.148810567
117,19,1,1,8,8,176,2187.2115781111643,2193.3879129616544,stimuli/183_xb.png,l,6.164156361250207,harmless,0.0412,6.448275862,1.095003225,0.143780967
117,19,1,1,8,9,177,2193.946631971514,2202.747910551261,stimuli/348_za.png,a,8.789089062949643,awful,0.0412,3.084745763,2.119597681,0.275948114
117,19,1,1,8,10,178,2203.3968969704583,2211.8599182297476,stimuli/162_xa.png,l,8.4506749920547,harmless,0.0412,6.644067797,0.905209289,0.117848212
117,19,1,1,8,11,179,2212.420984952245,2222.8678400372155,stimuli/242_xb.png,l,10.434635635698214,harmless,0.0412,6.576271186,0.913564256,0.118935936
117,19,1,1,8,12,180,2223.424947431311,2233.31582467095,stimuli/339_ya.png,a,9.878748374758288,ambig,0.0412,4.949152542,1.960152429,0.25519011
117,19,1,1,8,13,181,2233.8783529540524,2243.067854451947,stimuli/259_xc.png,l,9.177371451864019,harmless,0.0412,6.568965517,0.993170874,0.130409725
117,19,1,1,8,14,182,2243.6298837328795,2251.211813630769,stimuli/213_ya.png,a,7.570164946373552,ambig,0.0412,5.98245614,1.597891781,0.211645937
117,19,1,1,8,15,183,2251.7711391625926,2259.227791547077,stimuli/238_xb.png,a,7.444594806060195,harmless,0.0412,6.4,1.076718178,0.139003719
117,19,1,1,8,16,184,2259.7866224087775,2268.067769775167,stimuli/134_xc.png,l,8.269043313805014,harmless,0.0412,6.516666667,0.965360505,0.124627505
117,19,1,1,8,17,185,2268.6331187793985,2275.7717791614123,stimuli/200_ya.png,a,7.126642975723371,ambig,0.0412,5.862068966,1.444266048,0.189641423
117,19,1,1,8,18,186,2276.321313695051,2286.27573356661,stimuli/246_ya.png,a,9.942329603713006,ambig,0.0412,5.542372881,1.715266481,0.223308675
117,19,1,1,8,19,187,2286.839008186711,2293.771731506102,stimuli/233_yb.png,a,6.920651168329641,ambig,0.0412,5.318309859,1.922973646,0.102060844
117,19,1,1,8,20,188,2294.323730724631,2303.443680296652,stimuli/145_xa.png,l,9.107742725871503,harmless,0.0412,6.661016949,0.822321556,0.107057148
117,19,1,1,8,21,189,2303.9992371213157,2315.9076747482177,stimuli/208_xb.png,l,11.896519469562918,harmless,0.0412,6.216666667,1.165778516,0.150501359
117,19,1,1,8,22,190,2316.557850186713,2325.4996374652255,stimuli/135_xa.png,l,8.92977144755423,harmless,0.0412,6.508474576,1.179901828,0.153610134
117,19,1,1,8,23,191,2326.0499754436314,2331.3156533481088,stimuli/335_yb.png,l,5.25367191946134,ambig,0.0412,5.016949153,2.046793332,0.266469795
117,19,1,1,8,24,192,2331.8915192075074,2339.267647919478,stimuli/139_xa.png,l,7.363963219569996,harmless,0.0412,6.724137931,0.790138861,0.103750315
117,19,1,1,9,1,193,2347.764255531598,2354.915579620283,stimuli/128_xc.png,l,7.139519752701744,harmless,0.0412,6.627118644,0.98082135,0.127692063
117,19,1,1,9,2,194,2355.5251527430955,2362.2116651509423,stimuli/136_xc.png,l,6.674734853440896,harmless,0.0412,6.559322034,1.038420326,0.135190811
117,19,1,1,9,3,195,2362.769810721744,2371.8835733754095,stimuli/285_yb.png,a,9.101820077979937,ambig,0.0412,4.120689655,2.119893958,0.278355714
117,19,1,1,9,4,196,2372.444007582264,2376.4916045933496,stimuli/178_xa.png,l,4.035444909473881,harmless,0.0412,6.483333333,1.112207557,0.143585378
117,19,1,1,9,5,197,2377.055711408844,2385.147582950769,stimuli/204_xb.png,l,8.079747403273359,harmless,0.0412,6.508474576,0.858484658,0.111765183
117,19,1,1,9,6,198,2385.7784304234665,2392.147532538511,stimuli/187_xc.png,l,6.357247760752216,harmless,0.0412,6.224137931,1.185335891,0.155642228
117,19,1,1,9,7,199,2392.6989272043575,2399.547527891118,stimuli/243_ya.png,a,6.836750270798802,ambig,0.0412,5.830508475,1.652088985,0.215083666
117,19,1,1,9,8,200,2400.1088439177256,2407.611507691443,stimuli/258_ya.png,a,7.490539635065943,ambig,0.0412,5.627118644,1.78014243,0.231754804
117,19,1,1,9,9,201,2408.1711089152377,2416.2194715617225,stimuli/110_xa.png,l,8.036273560253903,harmless,0.0412,6.428571429,1.059281795,0.141552484
117,19,1,1,9,10,202,2416.780804130016,2423.059437186923,stimuli/173_yb.png,l,6.266571145970374,ambig,0.0412,5.796610169,1.242628763,0.161776485
117,19,1,1,9,11,203,2423.6098350298125,2431.3874820948113,stimuli/137_xa.png,a,7.7653638129122555,harmless,0.0412,6.355932203,1.094858074,0.14253838
117,19,1,1,9,12,204,2431.941513555823,2440.2114887081552,stimuli/307_za.png,a,8.257887247484177,awful,0.0412,2.93220339,2.172432347,0.282826601
117,19,1,1,9,13,205,2440.7711474332027,2452.3794539489318,stimuli/176_xb.png,l,11.59611778659746,harmless,0.0412,6.796610169,0.517942249,0.067430337
117,19,1,1,9,14,206,2452.929494180251,2461.843500782037,stimuli/222_ya.png,a,8.901876161806285,ambig,0.0412,5.931034483,1.543089507,0.202617579
117,19,1,1,9,15,207,2462.4039716161788,2475.8994232921395,stimuli/336_ya.png,l,13.483333051204681,ambig,0.0412,5.033898305,1.884291705,0.245313885
117,19,1,1,9,16,208,2476.451973894378,2485.579459305387,stimuli/206_xa.png,l,9.115419955458492,harmless,0.0412,6.325842697,1.136094431,0.060212884
117,19,1,1,9,17,209,2486.1408548888285,2493.9793782518245,stimuli/230_yb.png,a,7.826829697703943,ambig,0.0412,4.98245614,1.875511626,0.248417583
117,19,1,1,9,18,210,2494.5323254566174,2504.139381906716,stimuli/144_xa.png,l,9.595001628389582,harmless,0.0412,6.542372881,1.00553698,0.130909764
117,19,1,1,9,19,211,2504.7484461811837,2515.3473287627567,stimuli/119_xc.png,l,10.587083759484813,harmless,0.0412,6.694915254,0.914523379,0.119060803
117,19,1,1,9,20,212,2515.895514375996,2523.107342972886,stimuli/157_xc.png,l,7.199711941648275,harmless,0.0412,6.603448276,0.877389573,0.115206895
117,19,1,1,9,21,213,2523.6733217358124,2533.9553461959586,stimuli/236_yb.png,a,10.270289834821597,ambig,0.0412,5.93442623,1.49297078,0.19115532
117,19,1,1,9,22,214,2534.501403862145,2544.9632498866413,stimuli/171_xa.png,l,10.449812076753005,harmless,0.0412,6.465517241,1.046556882,0.137419651
117,19,1,1,9,23,215,2545.5217786689755,2555.7392483144067,stimuli/175_xb.png,l,10.205325026996434,harmless,0.0412,6.6,1.028409995,0.13276716
117,19,1,1,9,24,216,2556.2894610499498,2570.723269610433,stimuli/280_xb.png,l,14.421652520541102,harmless,0.0412,6.333333333,1.068289726,0.137915611
117,19,1,1,10,1,217,2580.1171410600655,2585.9712303769775,stimuli/263_ya.png,a,5.842207787325606,ambig,0.0412,4.983050847,2.071910042,0.269739712
117,19,1,1,10,2,218,2586.53194894013,2592.1472403050866,stimuli/106_xc.png,l,5.603162500075996,harmless,0.0412,6.661016949,0.863237081,0.112383896
117,19,1,1,10,3,219,2592.7252104808576,2596.7151784494054,stimuli/179_xb.png,l,3.977842648513615,harmless,0.0412,6.704918033,0.882123617,0.112944356
117,19,1,1,10,4,220,2597.2681000540033,2603.5791985795368,stimuli/126_xa.png,l,6.29903149465099,harmless,0.0412,6.6,0.977717855,0.126222832
117,19,1,1,10,5,221,2604.218325865222,2613.163169384701,stimuli/282_xc.png,l,8.932932845083997,harmless,0.0412,6.55,0.998728005,0.128935231
117,19,1,1,10,6,222,2613.7419863280375,2621.923119397834,stimuli/278_xb.png,l,8.169321250868961,harmless,0.0412,6.360655738,1.140654591,0.146045855
117,19,1,1,10,7,223,2622.5240476126783,2631.2271487913094,stimuli/240_xa.png,l,8.691260608844459,harmless,0.0412,6.482758621,1.096107616,0.143925981
117,19,1,1,10,8,224,2631.7814626395702,2636.403130362509,stimuli/225_ya.png,a,4.609626685734838,ambig,0.0412,5.85,1.792876677,0.231459384
117,19,1,1,10,9,225,2636.9538141372614,2643.771086781053,stimuli/197_xa.png,l,6.8051591392140836,harmless,0.0412,6.779661017,0.55918033,0.072799078
117,19,1,1,10,10,226,2644.332828160841,2651.4510897111613,stimuli/325_yb.png,a,7.10661869100295,ambig,0.0412,5.131147541,1.811770863,0.231973488
117,19,1,1,10,11,227,2652.006288530305,2662.01108478033,stimuli/121_xc.png,l,9.992588222492486,harmless,0.0412,6.508474576,1.006408455,0.131023221
117,19,1,1,10,12,228,2662.5722881671973,2670.3070911481045,stimuli/332_zb.png,a,7.722542178118601,awful,0.0412,2.694915254,2.002190501,0.260663001
117,19,1,1,10,13,229,2670.853138967883,2676.7150799878873,stimuli/109_xb.png,l,5.849793250672519,harmless,0.0412,6.644067797,0.97843492,0.127381377
117,19,1,1,10,14,230,2677.276104962919,2685.619064798113,stimuli/169_xc.png,l,8.330858145840466,harmless,0.0412,6.603448276,0.916508538,0.120343467
117,19,1,1,10,15,231,2686.175240353914,2695.2670382466167,stimuli/253_ya.png,a,9.079714320134372,ambig,0.0412,5.491803279,1.849531029,0.236808182
117,19,1,1,10,16,232,2695.8161159197334,2704.650978095364,stimuli/141_xc.png,l,8.822886516805738,harmless,0.0412,6.508474576,1.040107444,0.135410455
117,19,1,1,10,17,233,2705.2098818188533,2711.1709411370102,stimuli/220_yb.png,a,5.949246711563319,ambig,0.0412,4.75,2.096203186,0.270618668
117,19,1,1,10,18,234,2711.730137487408,2719.074977934826,stimuli/235_ya.png,a,7.332620210479945,ambig,0.0412,5.694915254,1.567495667,0.204070554
117,19,1,1,10,19,235,2719.6358756974805,2729.850959427189,stimuli/219_ya.png,a,10.202910754131153,ambig,0.0412,5.271186441,1.998538332,0.260187529
117,19,1,1,10,20,236,2730.406908127945,2738.7869520576205,stimuli/286_ya.png,a,8.367880012607202,ambig,0.0412,5.06779661,1.779814082,0.231712057
117,19,1,1,10,21,237,2739.34463801072,2745.290950573515,stimuli/151_xa.png,l,5.934104141313583,harmless,0.0412,6.610169492,0.947172729,0.123311386
117,19,1,1,10,22,238,2745.84439835581,2753.330892410362,stimuli/159_xa.png,l,7.474226950202137,harmless,0.0412,6.389830508,1.174689235,0.152931512
117,19,1,1,10,23,239,2753.877486493904,2765.1069105304778,stimuli/155_xb.png,l,11.217256968840957,harmless,0.0412,6.655737705,0.892286312,0.114245555
117,19,1,1,10,24,240,2765.6609632591717,2771.6589065983426,stimuli/129_xa.png,l,5.985799508169293,harmless,0.0412,6.770491803,0.642740036,0.082294429
