id,age,condition,counterbalance,block,trialinblock,trial,tstart,tend,trialstim,response,RT,trialtype,ethicfreq,norm_mean,norm_sd,norm_se
153,21,1,2,0,0,practice,3.899913281202316e-06,12.12790449988097,stimuli/prac_217_1.png,l,12.109687000047415,harmless,NA,NA,NA,NA
153,21,1,2,1,1,1,4.988227599998936,15.335753099992871,stimuli/141_xc.png,l,10.335618000011891,harmless,0.333,6.508474576,1.040107444,0.135410455
153,21,1,2,1,2,2,15.940324699971825,31.815762099809945,stimuli/326_zb.png,a,15.86363109992817,awful,0.333,3.389830508,2.220724867,0.289113752
153,21,1,2,1,3,3,32.45694869989529,42.19978429982439,stimuli/277_yb.png,l,9.730832799803466,ambig,0.333,5.491525424,2.02886822,0.264136144
153,21,1,2,1,4,4,42.764794499846175,54.159803399816155,stimuli/273_ya.png,l,11.383104699896649,ambig,0.333,5.551724138,1.836973233,0.241206403
153,21,1,2,1,5,5,54.78982939990237,67.2637614000123,stimuli/176_xb.png,l,12.461810000007972,harmless,0.333,6.796610169,0.517942249,0.067430337
153,21,1,2,1,6,6,67.81179399997927,75.49571469984949,stimuli/145_xa.png,l,7.672047900035977,harmless,0.333,6.661016949,0.822321556,0.107057148
153,21,1,2,1,7,7,76.09779869997874,90.93576589995064,stimuli/228_ya.png,l,14.826247200137004,ambig,0.333,5.442622951,1.793735303,0.229664272
153,21,1,2,1,8,8,91.49622149998322,98.03978389990516,stimuli/227_xa.png,l,6.531738199992105,harmless,0.333,6.180327869,1.05685377,0.135316259
153,21,1,2,1,9,9,98.67072859988548,112.21571099990979,stimuli/316_za.png,a,13.53324420005083,awful,0.333,2.344827586,1.802062407,0.236622386
153,21,1,2,1,10,10,112.81033899984322,125.13570340001024,stimuli/331_za.png,a,12.313724000006914,awful,0.333,1.983606557,1.638004917,0.209725039
153,21,1,2,1,11,11,125.73837659996934,137.51964850001968,stimuli/208_xb.png,l,11.769559500040486,harmless,0.333,6.216666667,1.165778516,0.150501359
153,21,1,2,1,12,12,138.14474539994262,159.76774399983697,stimuli/334_za.png,a,21.610899799969047,awful,0.333,3.333333333,2.214487481,0.285889104
153,21,1,2,1,13,13,160.40897989994846,168.68769159982912,stimuli/264_xa.png,l,8.26669429987669,harmless,0.333,6.533333333,0.947193297,0.122282129
153,21,1,2,1,14,14,169.31037930003367,179.33566450001672,stimuli/201_yb.png,l,10.013169300043955,ambig,0.333,5.898305085,1.626238682,0.211718243
153,21,1,2,1,15,15,179.99501419998705,188.79172079986893,stimuli/162_xa.png,l,8.784647499909624,harmless,0.333,6.644067797,0.905209289,0.117848212
153,21,1,2,1,16,16,189.38102789991535,199.29565879981965,stimuli/362_zb.png,a,9.902521099895239,awful,0.333,1.474576271,1.222715071,0.159183944
153,21,1,2,1,17,17,199.9039855999872,214.95969329983927,stimuli/325_yb.png,a,15.043845099862665,ambig,0.333,5.131147541,1.811770863,0.231973488
153,21,1,2,1,18,18,215.5595475998707,222.83167169988155,stimuli/138_xc.png,l,7.260436200071126,harmless,0.333,6.661016949,0.70978796,0.092406522
153,21,1,2,1,19,19,223.44664959982038,230.49559419997968,stimuli/356_za.png,a,7.037427500123158,awful,0.333,3.033333333,2.178217796,0.281206708
153,21,1,2,1,20,20,231.08292479999363,239.10362329985946,stimuli/357_za.png,a,8.008791500004008,awful,0.333,2.793103448,2.066937905,0.271402243
153,21,1,2,1,21,21,239.71902769990265,252.67159249982797,stimuli/189_yb.png,l,12.94076619995758,ambig,0.333,5.983333333,1.455459234,0.187898979
153,21,1,2,1,22,22,253.28094640001655,260.97564799990505,stimuli/320_za.png,a,7.682820599991828,awful,0.333,1.423728814,1.117314975,0.14546202
153,21,1,2,1,23,23,261.58041429985315,277.3596202998888,stimuli/257_yb.png,l,15.767485999967903,ambig,0.333,5.620689655,1.843219782,0.242026615
153,21,1,2,1,24,24,277.93897479982115,286.6635688999668,stimuli/258_ya.png,l,8.712860099971294,ambig,0.333,5.627118644,1.78014243,0.231754804
153,21,1,2,2,1,25,297.41609720001,307.47960600000806,stimuli/288_yb.png,a,10.051111500011757,ambig,0.333,5.189655172,1.914459262,0.251380817
153,21,1,2,2,2,26,308.0436263999436,311.97557429992594,stimuli/333_za.png,l,3.919953200034797,awful,0.333,3.266666667,2.185209657,0.282109354
153,21,1,2,2,3,27,312.5366322998889,332.40758689981885,stimuli/213_ya.png,l,19.85912029980682,ambig,0.333,5.98245614,1.597891781,0.211645937
153,21,1,2,2,4,28,333.0407038999256,346.91157109988853,stimuli/118_xb.png,l,13.85900119994767,harmless,0.333,6.474576271,0.953323265,0.124112118
153,21,1,2,2,5,29,347.50176559994,354.32755589997396,stimuli/159_xa.png,l,6.813623799942434,harmless,0.333,6.389830508,1.174689235,0.152931512
153,21,1,2,2,6,30,354.98337749997154,362.3755389000289,stimuli/360_za.png,a,7.380053100176156,awful,0.333,3.2,2.207844259,0.285031468
153,21,1,2,2,7,31,362.94858989981003,376.55953669990413,stimuli/245_yb.png,l,13.599005100084469,ambig,0.333,4.949152542,2.096168334,0.272897873
153,21,1,2,2,8,32,377.1989641999826,385.1275561999064,stimuli/193_xc.png,l,7.916882300050929,harmless,0.333,6.482758621,1.012923151,0.133003326
153,21,1,2,2,9,33,385.69246589997783,398.43950239988044,stimuli/209_ya.png,l,12.735079600010067,ambig,0.333,5.603448276,1.825161903,0.239655499
153,21,1,2,2,10,34,399.0365462999325,413.2394488998689,stimuli/253_ya.png,l,14.191445400007069,ambig,0.333,5.491803279,1.849531029,0.236808182
153,21,1,2,2,11,35,413.8190679999534,424.41546729998663,stimuli/169_xc.png,l,10.583510800031945,harmless,0.333,6.603448276,0.916508538,0.120343467
153,21,1,2,2,12,36,425.01996659999713,432.2635256999638,stimuli/111_xa.png,l,7.231817899970338,harmless,0.333,6.590163934,0.863655973,0.110579816
153,21,1,2,2,13,37,432.8762793999631,441.76750349998474,stimuli/308_zb.png,a,8.879581399960443,awful,0.333,1.644067797,1.471132708,0.191525165
153,21,1,2,2,14,38,442.3710851999931,454.7834935998544,stimuli/185_xa.png,l,12.400509899947792,harmless,0.333,6.5,0.965506805,0.124646393
153,21,1,2,2,15,39,455.37594369985163,468.47946859989315,stimuli/295_za.png,a,13.09181770007126,awful,0.333,2.3,1.825432384,0.235662307
153,21,1,2,2,16,40,469.1247015998233,481.45553229982033,stimuli/274_xb.png,l,12.319173699943349,harmless,0.333,6.491525424,1.179901828,0.153610134
153,21,1,2,2,17,41,482.050534500042,512.8714391998947,stimuli/340_za.png,a,30.80889069987461,awful,0.333,2.508474576,1.832398855,0.238558011
153,21,1,2,2,18,42,513.4591777999885,523.8313855000306,stimuli/200_ya.png,l,10.360445800004527,ambig,0.333,5.862068966,1.444266048,0.189641423
153,21,1,2,2,19,43,524.4268427998759,535.9034510999918,stimuli/287_ya.png,l,11.462971800006926,ambig,0.333,5.950819672,1.407435369,0.180203633
153,21,1,2,2,20,44,536.4913699999452,549.5274040999357,stimuli/269_za.png,a,13.023795899935067,awful,0.333,3.457627119,2.119873401,0.27598401
153,21,1,2,2,21,45,550.0770380999893,559.5353766998742,stimuli/152_xa.png,l,9.446289999876171,harmless,0.333,6.576271186,0.968528743,0.126091702
153,21,1,2,2,22,46,560.1278881998733,572.0073481998406,stimuli/310_zb.png,a,11.867408899823204,awful,0.333,3.224137931,2.102989547,0.276136056
153,21,1,2,2,23,47,572.6038824999705,582.8073672999162,stimuli/296_yb.png,a,10.19148900010623,ambig,0.333,4.229508197,2.052587332,0.262806878
153,21,1,2,2,24,48,583.3723850999959,592.8394418999087,stimuli/306_zb.png,a,9.455156399868429,awful,0.333,2.352112676,1.917055413,0.101746737
153,21,1,2,3,1,49,606.8734613000415,615.3353343999479,stimuli/154_xc.png,l,8.450095500098541,harmless,0.333,6.5,0.965506805,0.124646393
153,21,1,2,3,2,50,615.9003538000397,625.991309999954,stimuli/263_ya.png,a,10.078960899962112,ambig,0.333,4.983050847,2.071910042,0.269739712
153,21,1,2,3,3,51,626.5794652998447,632.3833133999724,stimuli/298_za.png,a,5.791816400131211,awful,0.333,2.881355932,2.026418156,0.263817173
153,21,1,2,3,4,52,632.9756996999495,643.4794325998519,stimuli/173_yb.png,l,10.491597499931231,ambig,0.333,5.796610169,1.242628763,0.161776485
153,21,1,2,3,5,53,644.1110606000293,655.3673242998775,stimuli/365_zb.png,a,11.244278099853545,awful,0.333,2.966101695,2.165291266,0.281896912
153,21,1,2,3,6,54,655.9611183998641,671.7513653999195,stimuli/366_za.png,a,15.778219799976796,awful,0.333,3.689655172,2.036568291,0.267414518
153,21,1,2,3,7,55,672.3891882998869,684.1672679998446,stimuli/305_zb.png,a,11.766359099885449,awful,0.333,2.75,2.12830003,0.274762352
153,21,1,2,3,8,56,684.7696703998372,693.5592775999103,stimuli/137_xa.png,l,8.77773189987056,harmless,0.333,6.355932203,1.094858074,0.14253838
153,21,1,2,3,9,57,694.1880772998556,701.175310399849,stimuli/363_zb.png,a,6.9750041998922825,awful,0.333,2.433333333,2.019956927,0.260775318
153,21,1,2,3,10,58,701.7507007999811,708.6472837999463,stimuli/225_ya.png,l,6.884959599934518,ambig,0.333,5.85,1.792876677,0.231459384
153,21,1,2,3,11,59,709.215817600023,720.8152666999958,stimuli/347_zb.png,a,11.587829200085253,awful,0.333,3.796610169,2.147810923,0.279621165
153,21,1,2,3,12,60,721.417226199992,734.6233940999955,stimuli/315_yb.png,a,13.1947749000974,ambig,0.333,5.050847458,1.915667965,0.249398726
153,21,1,2,3,13,61,735.1791091999039,746.0632960000075,stimuli/286_ya.png,a,10.87234830018133,ambig,0.333,5.06779661,1.779814082,0.231712057
153,21,1,2,3,14,62,746.651462999871,753.2632805998437,stimuli/323_yb.png,l,6.600252299802378,ambig,0.333,4.603448276,1.955107169,0.256718148
153,21,1,2,3,15,63,753.8573635998182,769.8073803998996,stimuli/164_xb.png,l,15.938801300013438,harmless,0.333,6.830508475,0.460604639,0.059965616
153,21,1,2,3,16,64,770.3755269998219,778.8952744998969,stimuli/139_xa.png,l,8.508156500058249,harmless,0.333,6.724137931,0.790138861,0.103750315
153,21,1,2,3,17,65,779.4958621000405,784.3752671999391,stimuli/106_xc.png,l,4.867944499943405,harmless,0.333,6.661016949,0.863237081,0.112383896
153,21,1,2,3,18,66,784.9373774998821,790.3911667999346,stimuli/248_zb.png,a,5.441990599967539,awful,0.333,3.288135593,1.991800844,0.259310383
153,21,1,2,3,19,67,790.9543320999946,801.8312131999992,stimuli/301_za.png,a,10.864838300039992,awful,0.333,3.610169492,2.212947396,0.288101212
153,21,1,2,3,20,68,802.3942501000129,809.7271755998954,stimuli/276_ya.png,a,7.321909900056198,ambig,0.333,5.186440678,1.804922162,0.234980851
153,21,1,2,3,21,69,810.3277437998913,819.3591665998101,stimuli/270_yb.png,a,9.019424199825153,ambig,0.333,5.534482759,1.912246013,0.251090203
153,21,1,2,3,22,70,819.9296720998827,824.6472261999734,stimuli/178_xa.png,l,4.705398000078276,harmless,0.333,6.483333333,1.112207557,0.143585378
153,21,1,2,3,23,71,825.267220400041,833.4072659998201,stimuli/142_xa.png,l,8.128053199965507,harmless,0.333,6.4,1.076718178,0.139003719
153,21,1,2,3,24,72,833.9828262999654,840.4231668999419,stimuli/160_xb.png,l,6.4274254001211375,harmless,0.333,6.666666667,0.680644427,0.087870818
153,21,1,2,4,1,73,855.2091343998909,865.8151976999361,stimuli/196_xb.png,l,10.594202100066468,harmless,0.333,6.594366197,0.982313556,0.05213579
153,21,1,2,4,2,74,866.4447690998204,873.4871892000083,stimuli/192_za.png,a,7.030316499993205,awful,0.333,2.68852459,2.093967396,0.268105052
153,21,1,2,4,3,75,874.0949059999548,887.08719809982,stimuli/373_zb.png,a,12.980314299929887,awful,0.333,2.327586207,1.858011869,0.243968911
153,21,1,2,4,4,76,887.6412861999124,893.5991295999847,stimuli/279_ya.png,l,5.945903900079429,ambig,0.333,5.31147541,1.970964092,0.252356093
153,21,1,2,4,5,77,894.2105900999159,906.4791019000113,stimuli/223_yb.png,l,12.256808000151068,ambig,0.333,5.542372881,1.77455224,0.231027024
153,21,1,2,4,6,78,907.0666638999246,911.8630939000286,stimuli/243_ya.png,l,4.78346629999578,ambig,0.333,5.830508475,1.652088985,0.215083666
153,21,1,2,4,7,79,912.4161935998127,919.9191260000225,stimuli/131_xb.png,l,7.490885500097647,harmless,0.333,6.525423729,1.119666394,0.145768149
153,21,1,2,4,8,80,920.4653868998867,928.9430887999479,stimuli/110_xa.png,l,8.465604600030929,harmless,0.333,6.428571429,1.059281795,0.141552484
153,21,1,2,4,9,81,929.5537101000082,943.7031086999923,stimuli/351_zb.png,a,14.137580800103024,awful,0.333,3.06779661,2.033040926,0.264679384
153,21,1,2,4,10,82,944.3383805998601,951.5030569999944,stimuli/128_xc.png,l,7.152231400134042,harmless,0.333,6.627118644,0.98082135,0.127692063
153,21,1,2,4,11,83,952.0901691999752,960.1030858999584,stimuli/350_ya.png,a,8.001101800007746,ambig,0.333,4.915254237,2.02814792,0.264042369
153,21,1,2,4,12,84,960.695680799894,967.7190900000278,stimuli/236_yb.png,l,7.0108841001056135,ambig,0.333,5.93442623,1.49297078,0.19115532
153,21,1,2,4,13,85,968.2846635000315,978.5430756998248,stimuli/314_zb.png,a,10.246399199822918,awful,0.333,1.833333333,1.451669602,0.18740974
153,21,1,2,4,14,86,979.1431166999973,994.6390299999621,stimuli/285_yb.png,l,15.484104699920863,ambig,0.333,4.120689655,2.119893958,0.278355714
153,21,1,2,4,15,87,995.2375866998918,1005.3590519998688,stimuli/140_xb.png,l,10.109369399957359,harmless,0.333,6.724137931,0.790138861,0.103750315
153,21,1,2,4,16,88,1005.9501477999147,1027.4630242998246,stimuli/170_xc.png,l,21.501059799920768,harmless,0.333,6.583333333,1.062323432,0.137145365
153,21,1,2,4,17,89,1028.0206442000344,1041.2790429999586,stimuli/252_zb.png,l,13.246355199953541,awful,0.333,2.711864407,1.983125776,0.258180985
153,21,1,2,4,18,90,1041.9130362998694,1050.14300739998,stimuli/259_xc.png,l,8.217717899940908,harmless,0.333,6.568965517,0.993170874,0.130409725
153,21,1,2,4,19,91,1050.7920015999116,1058.9510400998406,stimuli/338_zb.png,a,8.14687559986487,awful,0.333,3.310344828,2.137443107,0.28066003
153,21,1,2,4,20,92,1059.5472356998362,1069.1590024000034,stimuli/199_za.png,a,9.599105600034818,awful,0.333,3.033898305,2.189048775,0.284989876
153,21,1,2,4,21,93,1069.725690299878,1078.199026199989,stimuli/324_za.png,a,8.46139630000107,awful,0.333,2.491525424,1.994586478,0.259673041
153,21,1,2,4,22,94,1078.8104924999643,1084.7270151998382,stimuli/281_ya.png,l,5.9045139998197556,ambig,0.333,5.881355932,1.543448286,0.200939852
153,21,1,2,4,23,95,1085.3071685000323,1099.5669610998593,stimuli/260_ya.png,l,14.246749700047076,ambig,0.333,4.966101695,2.016877936,0.262575142
153,21,1,2,4,24,96,1100.1831431998871,1104.4149678999092,stimuli/112_xc.png,l,4.21970700006932,harmless,0.333,6.706896552,0.749470472,0.098410294
153,21,1,2,5,1,97,1116.5926322999876,1125.6149325999431,stimuli/222_ya.png,l,9.010234700050205,ambig,0.25,5.931034483,1.543089507,0.202617579
153,21,1,2,5,2,98,1126.1738862998318,1131.4229358998127,stimuli/267_ya.png,l,5.237011099932715,ambig,0.25,5.103448276,1.898195405,0.249245267
153,21,1,2,5,3,99,1131.9764514998533,1142.582966499962,stimuli/151_xa.png,l,10.594494699966162,harmless,0.25,6.610169492,0.947172729,0.123311386
153,21,1,2,5,4,100,1143.1567955999635,1150.006955199875,stimuli/294_za.png,a,6.838096699910238,awful,0.25,1.557377049,1.38473331,0.177296933
153,21,1,2,5,5,101,1150.6052078998182,1160.9189778999425,stimuli/246_ya.png,a,10.30190180009231,ambig,0.25,5.542372881,1.715266481,0.223308675
153,21,1,2,5,6,102,1161.5029853000306,1175.7589775999077,stimuli/218_yb.png,l,14.244012400042266,ambig,0.25,5.850282486,1.552723069,0.0825263
153,21,1,2,5,7,103,1176.364671099931,1186.550887499936,stimuli/202_yb.png,l,10.174149800091982,ambig,0.25,5.431034483,1.892849601,0.248543329
153,21,1,2,5,8,104,1187.1584222998936,1200.246906899847,stimuli/321_zb.png,a,13.076420899946243,awful,0.25,2.918032787,2.177881861,0.278849198
153,21,1,2,5,9,105,1200.8579322998412,1206.9349585999735,stimuli/161_xc.png,l,6.064748800126836,harmless,0.25,6.796610169,0.609682252,0.079373868
153,21,1,2,5,10,106,1207.541890299879,1216.1669058999978,stimuli/133_xa.png,l,8.613044600002468,harmless,0.25,6.568965517,1.186356193,0.1557762
153,21,1,2,5,11,107,1216.7662221998908,1223.246893899981,stimuli/283_yb.png,l,6.468553000129759,ambig,0.25,5.949152542,1.478859402,0.192531095
153,21,1,2,5,12,108,1223.8522230999079,1228.710891299881,stimuli/187_xc.png,l,4.846568000037223,harmless,0.25,6.224137931,1.185335891,0.155642228
153,21,1,2,5,13,109,1229.313070999924,1238.8389001998585,stimuli/155_xb.png,l,9.513813499826938,harmless,0.25,6.655737705,0.892286312,0.114245555
153,21,1,2,5,14,110,1239.4030819998588,1248.6469556000084,stimuli/290_zb.png,a,9.231798100052401,awful,0.25,2.586206897,2.026443456,0.266085062
153,21,1,2,5,15,111,1249.22896019998,1265.3829063999,stimuli/342_yb.png,a,16.14229410002008,ambig,0.25,4.916666667,2.085394461,0.269223267
153,21,1,2,5,16,112,1265.9698405000381,1276.358893699944,stimuli/358_za.png,a,10.376111600082368,awful,0.25,3.949152542,2.112554662,0.275031191
153,21,1,2,5,17,113,1276.9258373000193,1288.4548585999291,stimuli/214_xb.png,l,11.517061700113118,harmless,0.25,6.465517241,0.940614156,0.12350869
153,21,1,2,5,18,114,1289.0211540998425,1298.0948637998663,stimuli/344_za.png,a,9.06186049990356,awful,0.25,2.711864407,2.043077863,0.265986082
153,21,1,2,5,19,115,1298.6674041999504,1300.2868323998991,stimuli/232_yb.png,a,1.6064452000427991,ambig,0.25,5.483333333,1.845669845,0.238274952
153,21,1,2,5,20,116,1300.9262467999943,1311.7747930998448,stimuli/175_xb.png,l,10.836887199897319,harmless,0.25,6.6,1.028409995,0.13276716
153,21,1,2,5,21,117,1312.3721445000265,1325.4628178998828,stimuli/272_xb.png,l,13.078453700058162,harmless,0.25,6.355932203,1.029943284,0.134087194
153,21,1,2,5,22,118,1326.0503189999145,1334.8788266000338,stimuli/136_xc.png,l,8.816779000218958,harmless,0.25,6.559322034,1.038420326,0.135190811
153,21,1,2,5,23,119,1335.4647957000416,1339.486783699831,stimuli/101_xa.png,l,4.010308999801055,harmless,0.25,6.508522727,1.13475832,0.060482822
153,21,1,2,5,24,120,1340.1039584998507,1346.390868099872,stimuli/341_zb.png,a,6.274963699979708,awful,0.25,3.603448276,2.15975677,0.283589957
153,21,1,2,6,1,121,1356.033367499942,1359.7667864998803,stimuli/125_xc.png,l,3.721572099952027,harmless,0.166,6.683333333,0.999858747,0.129081209
153,21,1,2,6,2,122,1360.3625162998214,1365.8867988998536,stimuli/215_yb.png,l,5.512646300019696,ambig,0.166,5.866666667,1.466769385,0.189359113
153,21,1,2,6,3,123,1366.4994295998476,1376.7908344999887,stimuli/309_ya.png,a,10.279409799957648,ambig,0.166,4.706896552,1.946734744,0.255618795
153,21,1,2,6,4,124,1377.3590736000333,1388.5107935999986,stimuli/250_yb.png,a,11.139743400039151,ambig,0.166,5.950819672,1.585625318,0.203018519
153,21,1,2,6,5,125,1389.103659400018,1399.3347998999525,stimuli/364_za.png,a,10.218930100090802,awful,0.166,1.677966102,1.279017376,0.166513879
153,21,1,2,6,6,126,1399.9001894998364,1413.0147326998413,stimuli/119_xc.png,l,13.102699699811637,harmless,0.166,6.694915254,0.914523379,0.119060803
153,21,1,2,6,7,127,1413.6142036998644,1426.2707131998613,stimuli/368_za.png,a,12.644988799933344,awful,0.166,3.590163934,2.02794682,0.259651984
153,21,1,2,6,8,128,1426.8274532998912,1436.9347182000056,stimuli/313_zb.png,l,10.095327400136739,awful,0.166,2.101694915,1.688652955,0.219843889
153,21,1,2,6,9,129,1437.529374399921,1445.7427051998675,stimuli/265_yb.png,l,8.201210299972445,ambig,0.166,5.627118644,1.856008928,0.241631781
153,21,1,2,6,10,130,1446.3107968999539,1456.9827202998567,stimuli/289_yb.png,l,10.65994459996,ambig,0.166,5.305084746,1.714584873,0.223219937
153,21,1,2,6,11,131,1457.551269599935,1467.0867266999558,stimuli/237_ya.png,l,9.523496099980548,ambig,0.166,4.305084746,2.019339575,0.26289562
153,21,1,2,6,12,132,1467.6855701999739,1473.7746998998336,stimuli/184_xb.png,l,6.076947099994868,harmless,0.166,6.508474576,1.194425,0.15550089
153,21,1,2,6,13,133,1474.335671799956,1484.974712899886,stimuli/293_zb.png,a,10.627049600007012,awful,0.166,3.677966102,2.169066842,0.28238845
153,21,1,2,6,14,134,1485.6160995999817,1496.4147314999718,stimuli/156_xc.png,l,10.786484400043264,harmless,0.166,6.590163934,0.955284411,0.122311635
153,21,1,2,6,15,135,1497.0522793999407,1508.542698699981,stimuli/135_xa.png,l,11.478193300077692,harmless,0.166,6.508474576,1.179901828,0.153610134
153,21,1,2,6,16,136,1509.165192999877,1515.8866633998696,stimuli/181_xa.png,l,6.7092536999844015,harmless,0.166,6.666666667,0.950765377,0.122743282
153,21,1,2,6,17,137,1516.5296002998948,1526.4466648998205,stimuli/105_xa.png,l,9.905375899979845,harmless,0.166,6.557377049,1.088187946,0.139328189
153,21,1,2,6,18,138,1527.0091748000123,1532.222724799998,stimuli/150_xc.png,l,5.2014289000071585,harmless,0.166,6.482758621,1.030097582,0.135258439
153,21,1,2,6,19,139,1532.8539539999329,1540.0146754998714,stimuli/122_xa.png,l,7.148953599855304,harmless,0.166,6.457627119,1.039264227,0.135300678
153,21,1,2,6,20,140,1540.5888525999617,1549.062679799972,stimuli/335_yb.png,a,8.461847699945793,ambig,0.166,5.016949153,2.046793332,0.266469795
153,21,1,2,6,21,141,1549.6912736999802,1559.8147232998163,stimuli/195_xc.png,l,10.111346799880266,harmless,0.166,6.637640449,1.001766915,0.05309354
153,21,1,2,6,22,142,1560.408788099885,1567.9506250999402,stimuli/166_xa.png,l,7.529749799985439,harmless,0.166,6.593220339,1.052397002,0.13701042
153,21,1,2,6,23,143,1568.5138377998956,1587.3986292998306,stimuli/153_xb.png,l,18.872959499945864,harmless,0.166,6.633333333,0.973664521,0.125699549
153,21,1,2,6,24,144,1587.969840399921,1597.678613099968,stimuli/210_yb.png,a,9.696634399937466,ambig,0.166,5.557377049,1.76564049,0.226067099
153,21,1,2,7,1,145,1612.7123312000185,1618.1905846998561,stimuli/304_ya.png,a,5.4664117998909205,ambig,0.083,4.034482759,2.017167697,0.264867095
153,21,1,2,7,2,146,1618.7476502000354,1623.326660499908,stimuli/337_zb.png,a,4.567166100023314,awful,0.083,3.033333333,2.20143764,0.284204377
153,21,1,2,7,3,147,1623.928308099974,1631.1585917000193,stimuli/183_xb.png,l,7.218507000012323,harmless,0.083,6.448275862,1.095003225,0.143780967
153,21,1,2,7,4,148,1631.7314253000077,1639.6225767999422,stimuli/163_xa.png,l,7.879345499910414,harmless,0.083,6.627118644,0.963082427,0.125382652
153,21,1,2,7,5,149,1640.1722152000293,1651.6465994999744,stimuli/330_ya.png,a,11.462384700076655,ambig,0.083,4.796610169,2.049219036,0.266785595
153,21,1,2,7,6,150,1652.2093140999787,1657.6465827999637,stimuli/284_ya.png,l,5.425340400077403,ambig,0.083,5.948275862,1.431750417,0.18799804
153,21,1,2,7,7,151,1658.283860199852,1661.9105479000136,stimuli/103_xb.png,l,3.614542300114408,harmless,0.083,6.779661017,0.589207434,0.076708274
153,21,1,2,7,8,152,1662.5324798999354,1669.854568199953,stimuli/144_xa.png,l,7.310021300101653,harmless,0.083,6.542372881,1.00553698,0.130909764
153,21,1,2,7,9,153,1670.4987319000065,1684.5265406998806,stimuli/256_zb.png,a,14.016427499940619,awful,0.083,3.051724138,2.012438634,0.264246138
153,21,1,2,7,10,154,1685.10048309993,1693.518646299839,stimuli/242_xb.png,l,8.406194499926642,harmless,0.083,6.576271186,0.913564256,0.118935936
153,21,1,2,7,11,155,1694.1182508999482,1702.774605799932,stimuli/102_xc.png,l,8.644306499976665,harmless,0.083,6.66011236,0.937292468,0.049676401
153,21,1,2,7,12,156,1703.3709861999378,1710.1345722998958,stimuli/182_xb.png,l,6.752139199990779,harmless,0.083,6.542372881,0.988241802,0.128658124
153,21,1,2,7,13,157,1710.7499593000393,1716.6465235999785,stimuli/129_xa.png,l,5.884865200147033,harmless,0.083,6.770491803,0.642740036,0.082294429
153,21,1,2,7,14,158,1717.2126861999277,1727.10253919987,stimuli/207_yb.png,a,9.877783899893984,ambig,0.083,5.655737705,1.662179753,0.212820309
153,21,1,2,7,15,159,1727.7227916999254,1737.574536900036,stimuli/127_xb.png,l,9.840028100181371,harmless,0.083,6.423728814,1.162686987,0.151368953
153,21,1,2,7,16,160,1738.13560030004,1758.886510899989,stimuli/168_xa.png,l,20.7388673000969,harmless,0.083,6.474576271,1.164946827,0.151663159
153,21,1,2,7,17,161,1759.470480900025,1768.990485599963,stimuli/262_ya.png,a,9.507245799992234,ambig,0.083,5.491525424,1.7750462,0.231091332
153,21,1,2,7,18,162,1769.641455499921,1779.7505260999314,stimuli/108_xb.png,l,10.096945200115442,harmless,0.083,6.568965517,1.077880782,0.141532681
153,21,1,2,7,19,163,1780.3283027999569,1789.7504584998824,stimuli/203_yb.png,l,9.410274900030345,ambig,0.083,6,1.542501327,0.200816568
153,21,1,2,7,20,164,1790.3039906998165,1800.5104236998595,stimuli/319_ya.png,l,10.194669699994847,ambig,0.083,4.216666667,2.108028774,0.272145344
153,21,1,2,7,21,165,1801.0629618999083,1817.5184178999625,stimuli/206_xa.png,l,16.443563600070775,harmless,0.083,6.325842697,1.136094431,0.060212884
153,21,1,2,7,22,166,1818.076868099859,1823.9344422998838,stimuli/171_xa.png,a,5.845642899861559,harmless,0.083,6.465517241,1.046556882,0.137419651
153,21,1,2,7,23,167,1824.487965799868,1828.3823813998606,stimuli/226_yb.png,l,3.882390199927613,ambig,0.083,5.683333333,1.712285287,0.22105508
153,21,1,2,7,24,168,1828.9784064998385,1839.0144217000343,stimuli/121_xc.png,l,10.024002100108191,harmless,0.083,6.508474576,1.006408455,0.131023221
153,21,1,2,8,1,169,1883.5406454999465,1893.2464071998838,stimuli/233_yb.png,l,9.69422800000757,ambig,0.0412,5.318309859,1.922973646,0.102060844
153,21,1,2,8,2,170,1893.8457112999167,1901.726385399932,stimuli/235_ya.png,l,7.868091499898583,ambig,0.0412,5.694915254,1.567495667,0.204070554
153,21,1,2,8,3,171,1902.2913285999093,1914.4944626998622,stimuli/188_xa.png,l,12.191066300030798,harmless,0.0412,6.655172414,0.806807095,0.105938962
153,21,1,2,8,4,172,1915.1208154000342,1918.2943788999692,stimuli/132_xc.png,l,3.161798099987209,harmless,0.0412,6.627118644,0.692280217,0.090127208
153,21,1,2,8,5,173,1918.8863381999545,1930.6783215999603,stimuli/217_yb.png,l,11.779016500106081,ambig,0.0412,5.169491525,2.001314588,0.260548967
153,21,1,2,8,6,174,1931.2681545999367,1936.3183622998185,stimuli/282_xc.png,l,5.037927699973807,harmless,0.0412,6.55,0.998728005,0.128935231
153,21,1,2,8,7,175,1936.9772464998532,1940.094354599947,stimuli/115_xb.png,l,3.105002500116825,harmless,0.0412,6.440677966,1.021681954,0.133011661
153,21,1,2,8,8,176,1940.7029812999535,1943.638349399902,stimuli/249_ya.png,l,2.9232459000777453,ambig,0.0412,5.327868852,1.859402337,0.238072074
153,21,1,2,8,9,177,1944.2730650999583,1947.2223459999077,stimuli/179_xb.png,l,2.9374001000542194,harmless,0.0412,6.704918033,0.882123617,0.112944356
153,21,1,2,8,10,178,1947.7911735000089,1951.966324399924,stimuli/240_xa.png,l,4.163061999948695,harmless,0.0412,6.482758621,1.096107616,0.143925981
153,21,1,2,8,11,179,1952.5601076998282,1960.7344386000186,stimuli/194_xb.png,l,8.162703100126237,harmless,0.0412,6.586206897,1.026567825,0.134794959
153,21,1,2,8,12,180,1961.3005037000403,1964.1584069000091,stimuli/180_xc.png,l,2.845834600040689,harmless,0.0412,6.672131148,0.723908638,0.092687003
153,21,1,2,8,13,181,1964.7607930998784,1966.926336799981,stimuli/275_yb.png,l,2.1534872001502663,ambig,0.0412,4.836065574,2.138382004,0.27379176
153,21,1,2,8,14,182,1967.5316247998271,1971.0623184000142,stimuli/123_xc.png,l,3.5185793000273407,harmless,0.0412,6.491525424,1.023396666,0.133234897
153,21,1,2,8,15,183,1971.6548937999178,1983.2703289999627,stimuli/157_xc.png,l,11.603687500115484,harmless,0.0412,6.603448276,0.877389573,0.115206895
153,21,1,2,8,16,184,1983.9145001999568,1995.0143706998788,stimuli/254_ya.png,l,11.087858599843457,ambig,0.0412,5.983606557,1.627798137,0.208418195
153,21,1,2,8,17,185,1995.5875436998904,2003.4863177998923,stimuli/174_xc.png,l,7.88678180007264,harmless,0.0412,6.533333333,1.111826512,0.143536185
153,21,1,2,8,18,186,2004.0925710999873,2011.2782707000151,stimuli/361_za.png,a,7.173972200136632,awful,0.0412,2.416666667,1.907093508,0.246204713
153,21,1,2,8,19,187,2011.8992780998815,2017.7103607000317,stimuli/255_xb.png,l,5.798941200133413,harmless,0.0412,6.770491803,0.642740036,0.082294429
153,21,1,2,8,20,188,2018.2714867999312,2029.0782953999005,stimuli/167_xb.png,l,10.794822399970144,harmless,0.0412,6.590163934,0.955284411,0.122311635
153,21,1,2,8,21,189,2029.6679316998925,2034.7663055998273,stimuli/336_ya.png,a,5.086178299970925,ambig,0.0412,5.033898305,1.884291705,0.245313885
153,21,1,2,8,22,190,2035.3691481999122,2043.5822937998455,stimuli/251_ya.png,l,8.201186599908397,ambig,0.0412,5.655172414,1.792300532,0.235340589
153,21,1,2,8,23,191,2044.181385200005,2058.806443199981,stimuli/109_xb.png,l,14.61309830006212,harmless,0.0412,6.644067797,0.97843492,0.127381377
153,21,1,2,8,24,192,2059.401124399854,2063.8783195998985,stimuli/234_xb.png,l,4.465469300048426,harmless,0.0412,6.637931034,0.788030542,0.103473479
153,21,1,2,9,1,193,2090.6745425998233,2097.526333299931,stimuli/172_xb.png,l,6.840363600058481,harmless,0.0412,6.482758621,1.127664553,0.14806961
153,21,1,2,9,2,194,2098.113545199856,2103.3342334998306,stimuli/231_xb.png,l,5.209025299875066,harmless,0.0412,6.62295082,1.05141071,0.134619347
153,21,1,2,9,3,195,2103.9464294000063,2105.8862449999433,stimuli/107_xa.png,l,1.927792200120166,harmless,0.0412,6.813559322,0.540580029,0.070377525
153,21,1,2,9,4,196,2106.443830099888,2108.8622500000056,stimuli/220_yb.png,l,2.4064223000314087,ambig,0.0412,4.75,2.096203186,0.270618668
153,21,1,2,9,5,197,2109.4712501999456,2115.5021905999165,stimuli/238_xb.png,l,6.019149400060996,harmless,0.0412,6.4,1.076718178,0.139003719
153,21,1,2,9,6,198,2116.067404899979,2125.806223699823,stimuli/339_ya.png,a,9.726926599862054,ambig,0.0412,4.949152542,1.960152429,0.25519011
153,21,1,2,9,7,199,2126.3957238998264,2131.1022053998895,stimuli/126_xa.png,l,4.6936063000466675,harmless,0.0412,6.6,0.977717855,0.126222832
153,21,1,2,9,8,200,2131.662876999937,2141.214235099964,stimuli/230_yb.png,a,9.539500500075519,ambig,0.0412,4.98245614,1.875511626,0.248417583
153,21,1,2,9,9,201,2141.7934530000202,2146.3102692998946,stimuli/244_xb.png,l,4.503917600028217,harmless,0.0412,6.610169492,0.743174671,0.096753101
153,21,1,2,9,10,202,2146.9490755998995,2151.006244499935,stimuli/149_xa.png,l,4.045020200079307,harmless,0.0412,6.721311475,0.933294301,0.11949609
153,21,1,2,9,11,203,2151.5605810999405,2155.5662954999134,stimuli/190_xc.png,l,3.9937434000894427,harmless,0.0412,6.517241379,1.046990328,0.137476565
153,21,1,2,9,12,204,2156.1830738999415,2161.4141970998608,stimuli/124_xa.png,l,5.219569799955934,harmless,0.0412,6.344262295,1.181598436,0.151288177
153,21,1,2,9,13,205,2162.01874520001,2167.86221079994,stimuli/134_xc.png,l,5.83111450006254,harmless,0.0412,6.516666667,0.965360505,0.124627505
153,21,1,2,9,14,206,2168.4347573998384,2179.7981960999314,stimuli/271_ya.png,l,11.351502700010315,ambig,0.0412,5.711864407,1.771915459,0.230683744
153,21,1,2,9,15,207,2180.4064554998185,2195.5821803999133,stimuli/216_xa.png,l,15.16351279988885,harmless,0.0412,6.603448276,0.877389573,0.115206895
153,21,1,2,9,16,208,2196.151707999874,2199.622151999967,stimuli/221_xb.png,l,3.458521299995482,harmless,0.0412,6.440677966,1.133672495,0.147591588
153,21,1,2,9,17,209,2200.1886195999105,2204.366133299889,stimuli/280_xb.png,l,4.165512299863622,harmless,0.0412,6.333333333,1.068289726,0.137915611
153,21,1,2,9,18,210,2204.9780951000284,2209.166232599877,stimuli/212_ya.png,l,4.176058299839497,ambig,0.0412,5.677966102,1.490668422,0.194068498
153,21,1,2,9,19,211,2209.7838179999962,2215.6461467999034,stimuli/311_za.png,a,5.850574800046161,awful,0.0412,3.116666667,1.975199339,0.254997138
153,21,1,2,9,20,212,2216.2579881998245,2221.7981553999707,stimuli/198_yb.png,l,5.527909100055695,ambig,0.0412,5.101694915,1.83542643,0.238952168
153,21,1,2,9,21,213,2222.4116763998754,2233.278169899946,stimuli/241_yb.png,a,10.85441799997352,ambig,0.0412,5.508474576,1.442852555,0.187843403
153,21,1,2,9,22,214,2233.9270495998207,2239.0541895998176,stimuli/219_ya.png,a,5.115067099919543,ambig,0.0412,5.271186441,1.998538332,0.260187529
153,21,1,2,9,23,215,2239.6459957000334,2241.1421083998866,stimuli/148_xc.png,l,1.484027500031516,harmless,0.0412,6.491525424,1.135218061,0.147792803
153,21,1,2,9,24,216,2241.76428829995,2243.5741140998434,stimuli/104_xc.png,l,1.7979499998036772,harmless,0.0412,6.745762712,0.756425814,0.098478253
153,21,1,2,10,1,217,2252.2954563999083,2256.614164999919,stimuli/177_xb.png,l,4.307137900032103,harmless,0.0412,6.482758621,1.063614811,0.139659467
153,21,1,2,10,2,218,2257.1847412998322,2258.750130799832,stimuli/205_yb.png,l,1.5534702998120338,ambig,0.0412,5.847457627,1.52918233,0.199082582
153,21,1,2,10,3,219,2259.3520010998473,2262.254113599891,stimuli/186_xa.png,l,2.8909312000032514,harmless,0.0412,6.65,0.879618561,0.113558268
153,21,1,2,10,4,220,2262.8213186999783,2267.0141431000084,stimuli/116_xa.png,l,4.180696600116789,harmless,0.0412,6.63559322,0.958030802,0.050918763
153,21,1,2,10,5,221,2267.577117800014,2273.478111299919,stimuli/204_xb.png,l,5.889116900041699,harmless,0.0412,6.508474576,0.858484658,0.111765183
153,21,1,2,10,6,222,2274.055523799965,2279.238142899936,stimuli/261_yb.png,a,5.1710540999192744,ambig,0.0412,5.706896552,1.901141123,0.249632059
153,21,1,2,10,7,223,2279.820338799851,2285.4301265999675,stimuli/120_xa.png,l,5.5978771999944,harmless,0.0412,6.440677966,1.054893138,0.137335389
153,21,1,2,10,8,224,2286.0445331998635,2290.086172999814,stimuli/143_xb.png,l,4.030001599807292,harmless,0.0412,6.655172414,0.738697862,0.096995781
153,21,1,2,10,9,225,2290.6915954998694,2298.894158900017,stimuli/130_xc.png,l,8.19039350003004,harmless,0.0412,6.644067797,0.960651931,0.125066229
153,21,1,2,10,10,226,2299.51371999993,2302.8541653999127,stimuli/371_zb.png,l,3.3288467000238597,awful,0.0412,3.131147541,2.085468851,0.267016925
153,21,1,2,10,11,227,2303.419712399831,2308.3580991998315,stimuli/147_ya.png,l,4.926346699940041,ambig,0.0412,5.883333333,1.766847875,0.22809908
153,21,1,2,10,12,228,2308.988397100009,2313.7100945999846,stimuli/312_yb.png,a,4.709469099994749,ambig,0.0412,4.677966102,2.112692986,0.275049199
153,21,1,2,10,13,229,2314.325861699879,2316.1980622999836,stimuli/114_xc.png,l,1.8602174001280218,harmless,0.0412,6.644067797,0.97843492,0.127381377
153,21,1,2,10,14,230,2316.810946899932,2318.8620804999955,stimuli/158_xa.png,l,2.039118400076404,harmless,0.0412,6.786885246,0.661179605,0.084655374
153,21,1,2,10,15,231,2319.4568904000334,2322.47803150001,stimuli/191_ya.png,l,3.0086155000608414,ambig,0.0412,5.517241379,2.062542966,0.270825159
153,21,1,2,10,16,232,2323.039680299815,2328.430126299849,stimuli/113_xb.png,l,5.378424899885431,harmless,0.0412,6.733333333,0.660422737,0.085260209
153,21,1,2,10,17,233,2328.999800699996,2338.4061910999008,stimuli/224_yb.png,a,9.393432500073686,ambig,0.0412,5.881355932,1.609077116,0.209483997
153,21,1,2,10,18,234,2339.034792299848,2343.56607359997,stimuli/197_xa.png,l,4.519314200151712,harmless,0.0412,6.779661017,0.55918033,0.072799078
153,21,1,2,10,19,235,2344.1873127999716,2349.5581550998613,stimuli/165_xb.png,l,5.358629799913615,harmless,0.0412,6.557377049,1.008705278,0.129151477
153,21,1,2,10,20,236,2350.1682058000006,2355.1180666999426,stimuli/239_ya.png,a,4.938115800032392,ambig,0.0412,5.157894737,1.925296579,0.255011762
153,21,1,2,10,21,237,2355.738423499977,2357.726125399815,stimuli/247_ya.png,l,1.9760037998203188,ambig,0.0412,4.65,2.081598147,0.268733165
153,21,1,2,10,22,238,2358.3465666000266,2360.358011299977,stimuli/146_xa.png,l,1.9993924000300467,harmless,0.0412,6.442622951,1.162247681,0.148810567
153,21,1,2,10,23,239,2360.9280158998445,2364.574039199855,stimuli/117_xc.png,l,3.634075599955395,harmless,0.0412,6.627118644,0.868972939,0.113130641
153,21,1,2,10,24,240,2365.206642499892,2369.4460465998854,stimuli/278_xb.png,l,4.2272830998990685,harmless,0.0412,6.360655738,1.140654591,0.146045855
