id,age,condition,counterbalance,block,trialinblock,trial,tstart,tend,trialstim,response,RT,trialtype,ethicfreq,norm_mean,norm_sd,norm_se
039,80,0,2,0,0,practice,5.907844752073288e-06,13.024208133108914,stimuli/prac_217_1.png,a,13.002720293588936,harmless,NA,NA,NA,NA
039,80,0,2,1,1,1,5.043588503263891,10.37579793157056,stimuli/255_xb.png,a,5.32040192745626,harmless,0.333,6.770491803,0.642740036,0.082294429
039,80,0,2,1,2,2,11.00030562421307,72.07183001283556,stimuli/173_yb.png,a,61.059072949457914,ambig,0.333,5.796610169,1.242628763,0.161776485
039,80,0,2,1,3,3,72.68497367529199,78.2077375757508,stimuli/351_zb.png,l,5.511150171980262,awful,0.333,3.06779661,2.033040926,0.264679384
039,80,0,2,1,4,4,78.80439918022603,84.17576043773443,stimuli/248_zb.png,l,5.359641190618277,awful,0.333,3.288135593,1.991800844,0.259310383
039,80,0,2,1,5,5,84.78825425403193,89.67169555369765,stimuli/313_zb.png,l,4.871717294212431,awful,0.333,2.101694915,1.688652955,0.219843889
039,80,0,2,1,6,6,90.30737429205328,93.35177057376131,stimuli/113_xb.png,a,3.0329558453522623,harmless,0.333,6.733333333,0.660422737,0.085260209
039,80,0,2,1,7,7,93.98943862784654,99.07970496220514,stimuli/120_xa.png,a,5.077650268096477,harmless,0.333,6.440677966,1.054893138,0.137335389
039,80,0,2,1,8,8,99.68192885257304,104.95168928382918,stimuli/142_xa.png,a,5.258223896846175,harmless,0.333,6.4,1.076718178,0.139003719
039,80,0,2,1,9,9,105.56823104899377,108.63169380510226,stimuli/364_za.png,l,3.0516706155613065,awful,0.333,1.677966102,1.279017376,0.166513879
039,80,0,2,1,10,10,109.24235072452575,114.73573923297226,stimuli/285_yb.png,a,5.4818500047549605,ambig,0.333,4.120689655,2.119893958,0.278355714
039,80,0,2,1,11,11,115.30084511451423,124.27968771150336,stimuli/315_yb.png,a,8.966965385712683,ambig,0.333,5.050847458,1.915667965,0.249398726
039,80,0,2,1,12,12,124.90769472531974,138.1357153658755,stimuli/289_yb.png,l,13.2163513796404,ambig,0.333,5.305084746,1.714584873,0.223219937
039,80,0,2,1,13,13,138.74885627115145,142.5996820088476,stimuli/246_ya.png,a,3.8390619535930455,ambig,0.333,5.542372881,1.715266481,0.223308675
039,80,0,2,1,14,14,143.2175801792182,152.57565858913586,stimuli/325_yb.png,l,9.346274060197175,ambig,0.333,5.131147541,1.811770863,0.231973488
039,80,0,2,1,15,15,153.171930286102,156.87165939901024,stimuli/168_xa.png,a,3.6877916431985795,harmless,0.333,6.474576271,1.164946827,0.151663159
039,80,0,2,1,16,16,157.44775948906317,160.74365986837074,stimuli/178_xa.png,a,3.2842003982514143,harmless,0.333,6.483333333,1.112207557,0.143585378
039,80,0,2,1,17,17,161.38502574153244,170.4876501732506,stimuli/218_yb.png,a,9.091161152347922,ambig,0.333,5.850282486,1.552723069,0.0825263
039,80,0,2,1,18,18,171.11232288740575,174.8476592162624,stimuli/366_za.png,l,3.7236103541217744,awful,0.333,3.689655172,2.036568291,0.267414518
039,80,0,2,1,19,19,175.47129099536687,178.79170473851264,stimuli/327_zb.png,l,3.308526685461402,awful,0.333,2.502808989,1.906990248,0.101070281
039,80,0,2,1,20,20,179.35151260439306,184.71963802399114,stimuli/336_ya.png,a,5.356245451141149,ambig,0.333,5.033898305,1.884291705,0.245313885
039,80,0,2,1,21,21,185.3299361495301,188.70364275947213,stimuli/294_za.png,l,3.362006628885865,awful,0.333,1.557377049,1.38473331,0.177296933
039,80,0,2,1,22,22,189.32824930734932,193.4876592317596,stimuli/133_xa.png,a,4.1480482569895685,harmless,0.333,6.568965517,1.186356193,0.1557762
039,80,0,2,1,23,23,194.0961047061719,202.17566985310987,stimuli/211_zb.png,a,8.06786634773016,awful,0.333,3.983333333,2.127237938,0.274625237
039,80,0,2,1,24,24,202.78101812303066,207.63964043417946,stimuli/122_xa.png,a,4.8469628961756825,harmless,0.333,6.457627119,1.039264227,0.135300678
039,80,0,2,2,1,25,224.2358050053008,227.90364598901942,stimuli/189_yb.png,a,3.65570383425802,ambig,0.333,5.983333333,1.455459234,0.187898979
039,80,0,2,2,2,26,228.52114086132497,232.11165610607713,stimuli/360_za.png,l,3.5782091352157295,awful,0.333,3.2,2.207844259,0.285031468
039,80,0,2,2,3,27,232.72738339798525,235.703625430353,stimuli/132_xc.png,a,2.9646523287519813,harmless,0.333,6.627118644,0.692280217,0.090127208
039,80,0,2,2,4,28,236.32313246140257,240.9116178243421,stimuli/166_xa.png,a,4.576844852883369,harmless,0.333,6.593220339,1.052397002,0.13701042
039,80,0,2,2,5,29,241.52118497202173,245.05563861317933,stimuli/344_za.png,l,3.522676466498524,awful,0.333,2.711864407,2.043077863,0.265986082
039,80,0,2,2,6,30,245.62167357746512,248.03972841938958,stimuli/297_za.png,l,2.4063020860776305,awful,0.333,1.898305085,1.446695584,0.188343723
039,80,0,2,2,7,31,248.6515936581418,255.26377436704934,stimuli/316_za.png,l,6.600023867096752,awful,0.333,2.344827586,1.802062407,0.236622386
039,80,0,2,2,8,32,255.89465330541134,258.6476189652458,stimuli/230_yb.png,l,2.741274343803525,ambig,0.333,4.98245614,1.875511626,0.248417583
039,80,0,2,2,9,33,259.25907657295465,265.71160277957097,stimuli/291_za.png,l,6.440706102643162,awful,0.333,2.593220339,1.830005126,0.238246374
039,80,0,2,2,10,34,266.32753526512533,269.75169944530353,stimuli/123_xc.png,a,3.41296399012208,harmless,0.333,6.491525424,1.023396666,0.133234897
039,80,0,2,2,11,35,270.3929818230681,273.39162502391264,stimuli/152_xa.png,a,2.9864863585680723,harmless,0.333,6.576271186,0.968528743,0.126091702
039,80,0,2,2,12,36,274.01941581629217,278.6397199910134,stimuli/326_zb.png,l,4.60860340623185,awful,0.333,3.389830508,2.220724867,0.289113752
039,80,0,2,2,13,37,279.18939814018086,282.6715935477987,stimuli/272_xb.png,a,3.470407205168158,harmless,0.333,6.355932203,1.029943284,0.134087194
039,80,0,2,2,14,38,283.2874744394794,286.1595780965872,stimuli/158_xa.png,a,2.860766014549881,harmless,0.333,6.786885246,0.661179605,0.084655374
039,80,0,2,2,15,39,286.7824540855363,293.5516127203591,stimuli/107_xa.png,a,6.757904881611466,harmless,0.333,6.813559322,0.540580029,0.070377525
039,80,0,2,2,16,40,294.1930026183836,297.5916514904238,stimuli/181_xa.png,a,3.386799229774624,harmless,0.333,6.666666667,0.950765377,0.122743282
039,80,0,2,2,17,41,298.1769207078032,304.75964883109555,stimuli/261_yb.png,a,6.571224277839065,ambig,0.333,5.706896552,1.901141123,0.249632059
039,80,0,2,2,18,42,305.3607081193477,309.5916278595105,stimuli/328_za.png,l,4.219940103590488,awful,0.333,2.706896552,1.955725922,0.256799395
039,80,0,2,2,19,43,310.1568735563196,332.43963878042996,stimuli/226_yb.png,a,22.27103412942961,ambig,0.333,5.683333333,1.712285287,0.22105508
039,80,0,2,2,20,44,333.0470185074955,339.83158793952316,stimuli/219_ya.png,a,6.772979333996773,ambig,0.333,5.271186441,1.998538332,0.260187529
039,80,0,2,2,21,45,340.46052088495344,343.7675631651655,stimuli/321_zb.png,l,3.295341511722654,awful,0.333,2.918032787,2.177881861,0.278849198
039,80,0,2,2,22,46,344.3357910630293,348.6715478617698,stimuli/276_ya.png,l,4.324050910305232,ambig,0.333,5.186440678,1.804922162,0.234980851
039,80,0,2,2,23,47,349.2294388799928,357.2876623040065,stimuli/147_ya.png,a,8.04626350523904,ambig,0.333,5.883333333,1.766847875,0.22809908
039,80,0,2,2,24,48,357.8977800481953,363.0155210737139,stimuli/339_ya.png,l,5.106260417029262,ambig,0.333,4.949152542,1.960152429,0.25519011
039,80,0,2,3,1,49,376.2241069935262,379.5355284465477,stimuli/235_ya.png,a,3.29976755194366,ambig,0.333,5.694915254,1.567495667,0.204070554
039,80,0,2,3,2,50,380.1757903699763,382.8319144374691,stimuli/103_xb.png,a,2.6442567021586,harmless,0.333,6.779661017,0.589207434,0.076708274
039,80,0,2,3,3,51,383.3876160662621,389.35955651383847,stimuli/281_ya.png,a,5.959862374700606,ambig,0.333,5.881355932,1.543448286,0.200939852
039,80,0,2,3,4,52,389.96338178170845,391.9114996707067,stimuli/320_za.png,l,1.9364246036857367,awful,0.333,1.423728814,1.117314975,0.14546202
039,80,0,2,3,5,53,392.52394898282364,399.1920211543329,stimuli/116_xa.png,a,6.656454898416996,harmless,0.333,6.63559322,0.958030802,0.050918763
039,80,0,2,3,6,54,399.8151594446972,403.0395287396386,stimuli/134_xc.png,a,3.212375899311155,harmless,0.333,6.516666667,0.965360505,0.124627505
039,80,0,2,3,7,55,403.62234862940386,406.34351004939526,stimuli/310_zb.png,l,2.709802116267383,awful,0.333,3.224137931,2.102989547,0.276136056
039,80,0,2,3,8,56,406.9647484268062,409.7675434728153,stimuli/174_xc.png,a,2.791504270862788,harmless,0.333,6.533333333,1.111826512,0.143536185
039,80,0,2,3,9,57,410.3868823312223,455.59156011836603,stimuli/213_ya.png,a,45.193064058665186,ambig,0.333,5.98245614,1.597891781,0.211645937
039,80,0,2,3,10,58,456.20004655234516,459.4560042596422,stimuli/229_za.png,a,3.2442238554358482,awful,0.333,3.406779661,2.043649913,0.266060557
039,80,0,2,3,11,59,460.0695429495536,466.1434894907288,stimuli/247_ya.png,l,6.0625202832743526,ambig,0.333,4.65,2.081598147,0.268733165
039,80,0,2,3,12,60,466.7192110950127,469.66348189720884,stimuli/267_ya.png,a,2.9333014055155218,ambig,0.333,5.103448276,1.898195405,0.249245267
039,80,0,2,3,13,61,470.22142647812143,471.743633874692,stimuli/298_za.png,l,1.51085163699463,awful,0.333,2.881355932,2.026418156,0.263817173
039,80,0,2,3,14,62,472.3762197406031,488.8714727158658,stimuli/269_za.png,a,16.48429224314168,awful,0.333,3.457627119,2.119873401,0.27598401
039,80,0,2,3,15,63,489.44050051504746,491.8314473363571,stimuli/162_xa.png,a,2.379872661549598,harmless,0.333,6.644067797,0.905209289,0.117848212
039,80,0,2,3,16,64,492.41354333702475,495.9994679139927,stimuli/368_za.png,l,3.5743616544641554,awful,0.333,3.590163934,2.02794682,0.259651984
039,80,0,2,3,17,65,496.6123445490375,498.59958197176456,stimuli/323_yb.png,l,1.9755027834326029,ambig,0.333,4.603448276,1.955107169,0.256718148
039,80,0,2,3,18,66,499.17761939018965,501.77547198487446,stimuli/215_yb.png,a,2.58613528450951,ambig,0.333,5.866666667,1.466769385,0.189359113
039,80,0,2,3,19,67,502.5559450252913,504.871499103494,stimuli/362_zb.png,l,2.30365520529449,awful,0.333,1.474576271,1.222715071,0.159183944
039,80,0,2,3,20,68,505.450335635338,508.4235316636041,stimuli/127_xb.png,a,2.9617154197767377,harmless,0.333,6.423728814,1.162686987,0.151368953
039,80,0,2,3,21,69,508.99572637770325,512.1356775565073,stimuli/204_xb.png,a,3.128818335942924,harmless,0.333,6.508474576,0.858484658,0.111765183
039,80,0,2,3,22,70,512.7184308860451,516.9835356650874,stimuli/234_xb.png,a,4.253823850303888,harmless,0.333,6.637931034,0.788030542,0.103473479
039,80,0,2,3,23,71,517.5645923065022,519.9435949623585,stimuli/192_za.png,l,2.3668773216195405,awful,0.333,2.68852459,2.093967396,0.268105052
039,80,0,2,3,24,72,520.5668644034304,523.3994243545458,stimuli/222_ya.png,l,2.820832007098943,ambig,0.333,5.931034483,1.543089507,0.202617579
039,80,0,2,4,1,73,533.8936998043209,538.0554282995872,stimuli/293_zb.png,l,4.149540539365262,awful,0.333,3.677966102,2.169066842,0.28238845
039,80,0,2,4,2,74,538.6274481462315,542.2954659666866,stimuli/278_xb.png,a,3.6563012981787324,harmless,0.333,6.360655738,1.140654591,0.146045855
039,80,0,2,4,3,75,542.9502867986448,545.7594306403771,stimuli/207_yb.png,l,2.7974588270299137,ambig,0.333,5.655737705,1.662179753,0.212820309
039,80,0,2,4,4,76,546.3752894764766,548.6874482091516,stimuli/305_zb.png,l,2.30054973019287,awful,0.333,2.75,2.12830003,0.274762352
039,80,0,2,4,5,77,549.2793174963444,553.2394496551715,stimuli/239_ya.png,l,3.9484932241030037,ambig,0.333,5.157894737,1.925296579,0.255011762
039,80,0,2,4,6,78,553.8982321829535,573.4714867365547,stimuli/284_ya.png,a,19.561390338931233,ambig,0.333,5.948275862,1.431750417,0.18799804
039,80,0,2,4,7,79,574.1251153969206,577.0553948227316,stimuli/197_xa.png,a,2.9181769345887005,harmless,0.333,6.779661017,0.55918033,0.072799078
039,80,0,2,4,8,80,577.6997035127133,580.61548901489,stimuli/288_yb.png,l,2.9040583460591733,ambig,0.333,5.189655172,1.914459262,0.251380817
039,80,0,2,4,9,81,581.2200330514461,585.8953937357292,stimuli/185_xa.png,a,4.663656371179968,harmless,0.333,6.5,0.965506805,0.124646393
039,80,0,2,4,10,82,586.5249079973437,590.759444818832,stimuli/157_xc.png,l,4.222820692695677,harmless,0.333,6.603448276,0.877389573,0.115206895
039,80,0,2,4,11,83,591.3477391665801,594.4394012913108,stimuli/307_za.png,l,3.0800594235770404,awful,0.333,2.93220339,2.172432347,0.282826601
039,80,0,2,4,12,84,595.01438640384,597.327429714147,stimuli/243_ya.png,l,2.301516621839255,ambig,0.333,5.830508475,1.652088985,0.215083666
039,80,0,2,4,13,85,597.9285693466663,601.1274339677766,stimuli/193_xc.png,a,3.1869755941443145,harmless,0.333,6.482758621,1.012923151,0.133003326
039,80,0,2,4,14,86,601.7029086309485,612.3354712603614,stimuli/154_xc.png,a,10.620740162674338,harmless,0.333,6.5,0.965506805,0.124646393
039,80,0,2,4,15,87,612.9009138802066,619.0714657055214,stimuli/212_ya.png,a,6.158853026106954,ambig,0.333,5.677966102,1.490668422,0.194068498
039,80,0,2,4,16,88,619.6261106454767,622.0957589093596,stimuli/353_zb.png,l,2.45770134171471,awful,0.333,1.949152542,1.623361018,0.211343603
039,80,0,2,4,17,89,622.7004329152405,625.0473965997808,stimuli/180_xc.png,a,2.3352321959100664,harmless,0.333,6.672131148,0.723908638,0.092687003
039,80,0,2,4,18,90,625.6528094606474,628.6393974316306,stimuli/358_za.png,l,2.974838759750128,awful,0.333,3.949152542,2.112554662,0.275031191
039,80,0,2,4,19,91,629.2152588511817,631.2394000305794,stimuli/348_za.png,l,2.0122738140635192,awful,0.333,3.084745763,2.119597681,0.275948114
039,80,0,2,4,20,92,631.871013097465,633.3114100312814,stimuli/308_zb.png,l,1.4282412729226053,awful,0.333,1.644067797,1.471132708,0.191525165
039,80,0,2,4,21,93,633.9419687725604,636.807396741584,stimuli/241_yb.png,l,2.853696874342859,ambig,0.333,5.508474576,1.442852555,0.187843403
039,80,0,2,4,22,94,637.4571491698734,640.4474975815974,stimuli/361_za.png,l,2.9787149908952415,awful,0.333,2.416666667,1.907093508,0.246204713
039,80,0,2,4,23,95,641.079539546743,649.5273841070011,stimuli/309_ya.png,l,8.43616269621998,ambig,0.333,4.706896552,1.946734744,0.255618795
039,80,0,2,4,24,96,650.093422615435,656.511409716215,stimuli/196_xb.png,a,6.405986615456641,harmless,0.333,6.594366197,0.982313556,0.05213579
039,80,0,2,5,1,97,733.953672691714,736.823663759511,stimuli/232_yb.png,l,2.8581749023869634,ambig,0.333,5.483333333,1.845669845,0.238274952
039,80,0,2,5,2,98,737.4560940568335,745.7193296425976,stimuli/250_yb.png,l,8.251330017577857,ambig,0.333,5.950819672,1.585625318,0.203018519
039,80,0,2,5,3,99,746.3501735283062,749.6072879610583,stimuli/333_za.png,l,3.245364039670676,awful,0.333,3.266666667,2.185209657,0.282109354
039,80,0,2,5,4,100,750.2306184484623,754.9993536989205,stimuli/203_yb.png,a,4.757097891531885,ambig,0.333,6,1.542501327,0.200816568
039,80,0,2,5,5,101,755.5757310567424,759.3193759587593,stimuli/237_ya.png,l,3.7319988780654967,ambig,0.333,4.305084746,2.019339575,0.26289562
039,80,0,2,5,6,102,759.8952310769819,769.1032935758121,stimuli/302_za.png,l,9.196694530081004,awful,0.333,3.137931034,2.188071937,0.287307921
039,80,0,2,5,7,103,769.7308141896501,772.007305841893,stimuli/194_xb.png,a,2.2648342065513134,harmless,0.333,6.586206897,1.026567825,0.134794959
039,80,0,2,5,8,104,772.5765660102479,775.8312724689022,stimuli/303_zb.png,l,3.24255985673517,awful,0.333,3.620689655,2.158846233,0.283470398
039,80,0,2,5,9,105,776.4775744131766,779.3272969881073,stimuli/112_xc.png,a,2.8375255605205894,harmless,0.333,6.706896552,0.749470472,0.098410294
039,80,0,2,5,10,106,779.9513107980601,781.5834059324116,stimuli/346_zb.png,l,1.620355375111103,awful,0.333,1.288135593,0.983499162,0.128040685
039,80,0,2,5,11,107,782.2121821269393,785.2713043075055,stimuli/176_xb.png,a,3.047423381358385,harmless,0.333,6.796610169,0.517942249,0.067430337
039,80,0,2,5,12,108,785.8597837626003,788.415271139238,stimuli/195_xc.png,a,2.543795666657388,harmless,0.333,6.637640449,1.001766915,0.05309354
039,80,0,2,5,13,109,788.9902649163269,792.4152589300647,stimuli/191_ya.png,a,3.4132491345517337,ambig,0.333,5.517241379,2.062542966,0.270825159
039,80,0,2,5,14,110,793.0114171993919,795.4473380739801,stimuli/139_xa.png,a,2.4240791094489396,harmless,0.333,6.724137931,0.790138861,0.103750315
039,80,0,2,5,15,111,796.0736397351138,800.967399797868,stimuli/371_zb.png,a,4.881975011434406,awful,0.333,3.131147541,2.085468851,0.267016925
039,80,0,2,5,16,112,801.5830002711155,806.2153017804958,stimuli/275_yb.png,l,4.620904002338648,ambig,0.333,4.836065574,2.138382004,0.27379176
039,80,0,2,5,17,113,806.8153918134049,811.5353126190603,stimuli/249_ya.png,a,4.708495335187763,ambig,0.333,5.327868852,1.859402337,0.238072074
039,80,0,2,5,18,114,812.146585513372,814.7113471734338,stimuli/140_xb.png,a,2.5534897898323834,harmless,0.333,6.724137931,0.790138861,0.103750315
039,80,0,2,5,19,115,815.3414470842108,817.6792959924787,stimuli/125_xc.png,a,2.3264344655908644,harmless,0.333,6.683333333,0.999858747,0.129081209
039,80,0,2,5,20,116,818.3257180596702,828.9993001357652,stimuli/266_zb.png,a,10.661169234197587,awful,0.333,3.491525424,1.888010094,0.245797978
039,80,0,2,5,21,117,829.6115111708641,832.3274076590315,stimuli/257_yb.png,a,2.7042217133566737,ambig,0.333,5.620689655,1.843219782,0.242026615
039,80,0,2,5,22,118,832.9463916625828,834.7192831686698,stimuli/301_za.png,l,1.7613203129731119,awful,0.333,3.610169492,2.212947396,0.288101212
039,80,0,2,5,23,119,835.336463751737,837.6712347543798,stimuli/367_zb.png,l,2.32324707088992,awful,0.333,3.413793103,2.086165649,0.27392697
039,80,0,2,5,24,120,838.2463592882268,841.0232660537586,stimuli/109_xb.png,a,2.7649673265405,harmless,0.333,6.644067797,0.97843492,0.127381377
039,80,0,2,6,1,121,861.0779129629955,865.0553554380313,stimuli/182_xb.png,a,3.9655120940878987,harmless,0.333,6.542372881,0.988241802,0.128658124
039,80,0,2,6,2,122,865.6815031049773,867.3192333867773,stimuli/161_xc.png,a,1.626029119361192,harmless,0.333,6.796610169,0.609682252,0.079373868
039,80,0,2,6,3,123,867.9357806653716,871.0792729132809,stimuli/349_za.png,l,3.1310002426616848,awful,0.333,3.288135593,2.101320172,0.273568585
039,80,0,2,6,4,124,871.7280655391514,880.7512425836176,stimuli/332_zb.png,a,9.011284079402685,awful,0.333,2.694915254,2.002190501,0.260663001
039,80,0,2,6,5,125,881.3799163787626,884.2952339914627,stimuli/306_zb.png,l,2.9031765246763825,awful,0.333,2.352112676,1.917055413,0.101746737
039,80,0,2,6,6,126,884.8944701668806,902.7675454420969,stimuli/172_xb.png,a,17.861337879206985,harmless,0.333,6.482758621,1.127664553,0.14806961
039,80,0,2,6,7,127,903.3744167140685,906.7673985371366,stimuli/365_zb.png,l,3.381095946766436,awful,0.333,2.966101695,2.165291266,0.281896912
039,80,0,2,6,8,128,907.3801542613655,912.0232156417333,stimuli/170_xc.png,a,4.631365731824189,harmless,0.333,6.583333333,1.062323432,0.137145365
039,80,0,2,6,9,129,912.6539850905538,916.4232154050842,stimuli/304_ya.png,l,3.7576020136475563,ambig,0.333,4.034482759,2.017167697,0.264867095
039,80,0,2,6,10,130,917.0544799184427,919.7112869150005,stimuli/187_xc.png,a,2.6451211939565837,harmless,0.333,6.224137931,1.185335891,0.155642228
039,80,0,2,6,11,131,920.3259555487894,931.3352534635924,stimuli/273_ya.png,a,10.997597540263087,ambig,0.333,5.551724138,1.836973233,0.241206403
039,80,0,2,6,12,132,931.9827007115819,936.7352205379866,stimuli/262_ya.png,l,4.740179846063256,ambig,0.333,5.491525424,1.7750462,0.231091332
039,80,0,2,6,13,133,937.3577771177515,940.4552272018045,stimuli/265_yb.png,a,3.085821783170104,ambig,0.333,5.627118644,1.856008928,0.241631781
039,80,0,2,6,14,134,941.0120906759985,949.2552558737807,stimuli/312_yb.png,a,8.231160774361342,ambig,0.333,4.677966102,2.112692986,0.275049199
039,80,0,2,6,15,135,949.8650057660416,951.7752167726867,stimuli/143_xb.png,a,1.898691801354289,harmless,0.333,6.655172414,0.738697862,0.096995781
039,80,0,2,6,16,136,952.3549922332168,955.5112273655832,stimuli/206_xa.png,a,3.1441810838878155,harmless,0.333,6.325842697,1.136094431,0.060212884
039,80,0,2,6,17,137,956.1206806916744,963.9832012900151,stimuli/236_yb.png,a,7.8506331467069685,ambig,0.333,5.93442623,1.49297078,0.19115532
039,80,0,2,6,18,138,964.5959318079986,971.5272269621491,stimuli/343_zb.png,l,6.919944908469915,awful,0.333,3.103448276,2.141401862,0.28117984
039,80,0,2,6,19,139,972.1507212892175,974.7431730749086,stimuli/324_za.png,l,2.580720297060907,awful,0.333,2.491525424,1.994586478,0.259673041
039,80,0,2,6,20,140,975.361645472236,984.7351669748314,stimuli/224_yb.png,a,9.36234336765483,ambig,0.333,5.881355932,1.609077116,0.209483997
039,80,0,2,6,21,141,985.3118058466353,988.3032152792439,stimuli/338_zb.png,l,2.9796696733683348,awful,0.333,3.310344828,2.137443107,0.28066003
039,80,0,2,6,22,142,988.8756986823864,991.5513559328392,stimuli/184_xb.png,a,2.663653220515698,harmless,0.333,6.508474576,1.194425,0.15550089
039,80,0,2,6,23,143,992.1992958821356,995.775165178813,stimuli/350_ya.png,l,3.563406830187887,ambig,0.333,4.915254237,2.02814792,0.264042369
039,80,0,2,6,24,144,996.3433320308104,1007.4153408501297,stimuli/290_zb.png,l,11.059989429544657,awful,0.333,2.586206897,2.026443456,0.266085062
039,80,0,2,7,1,145,1017.3953252062201,1020.1191825019196,stimuli/354_zb.png,l,2.7120198626071215,awful,0.333,2,1.701925887,0.221571878
039,80,0,2,7,2,146,1020.6856636931188,1023.5591308451258,stimuli/175_xb.png,a,2.8617175463587046,harmless,0.333,6.6,1.028409995,0.13276716
039,80,0,2,7,3,147,1024.1784653714858,1026.0791697255336,stimuli/111_xa.png,a,1.888922453392297,harmless,0.333,6.590163934,0.863655973,0.110579816
039,80,0,2,7,4,148,1026.7208896665834,1028.6151432180777,stimuli/331_za.png,l,1.882447232492268,awful,0.333,1.983606557,1.638004917,0.209725039
039,80,0,2,7,5,149,1029.2346856952645,1031.0791323101148,stimuli/150_xc.png,a,1.8325528618879616,harmless,0.333,6.482758621,1.030097582,0.135258439
039,80,0,2,7,6,150,1031.7234094925225,1035.183237996418,stimuli/270_yb.png,a,3.447936326265335,ambig,0.333,5.534482759,1.912246013,0.251090203
039,80,0,2,7,7,151,1035.8160487487912,1038.5431808726862,stimuli/311_za.png,l,2.7155963769182563,awful,0.333,3.116666667,1.975199339,0.254997138
039,80,0,2,7,8,152,1039.116001802031,1041.87114306679,stimuli/240_xa.png,a,2.7431455054320395,harmless,0.333,6.482758621,1.096107616,0.143925981
039,80,0,2,7,9,153,1042.4727029330097,1047.4231413621455,stimuli/118_xb.png,a,4.938596663996577,harmless,0.333,6.474576271,0.953323265,0.124112118
039,80,0,2,7,10,154,1047.9958740700968,1050.7354391221888,stimuli/355_zb.png,l,2.7279465976171196,awful,0.333,3.183333333,2.070713188,0.267327923
039,80,0,2,7,11,155,1051.356974459719,1054.143144087866,stimuli/202_yb.png,l,2.774787480942905,ambig,0.333,5.431034483,1.892849601,0.248543329
039,80,0,2,7,12,156,1054.733514397405,1058.9591845655814,stimuli/329_zb.png,a,4.213865030556917,awful,0.333,2.406779661,1.992387617,0.259386774
039,80,0,2,7,13,157,1059.577534083277,1074.0391593123786,stimuli/319_ya.png,l,14.45018124813214,ambig,0.333,4.216666667,2.108028774,0.272145344
039,80,0,2,7,14,158,1074.6436163089238,1088.0151559785008,stimuli/217_yb.png,a,13.359800304286182,ambig,0.333,5.169491525,2.001314588,0.260548967
039,80,0,2,7,15,159,1088.6375337527134,1091.1991202267818,stimuli/330_ya.png,l,2.54973525647074,ambig,0.333,4.796610169,2.049219036,0.266785595
039,80,0,2,7,16,160,1091.781112252269,1094.5671582124196,stimuli/369_za.png,l,2.774716588202864,awful,0.333,2.948275862,2.055565093,0.26990892
039,80,0,2,7,17,161,1095.2157550971024,1098.823082442861,stimuli/295_za.png,l,3.5954635250382125,awful,0.333,2.3,1.825432384,0.235662307
039,80,0,2,7,18,162,1099.444169189781,1101.83912575664,stimuli/372_zb.png,l,2.383223502896726,awful,0.333,2.796610169,2.082601664,0.271131643
039,80,0,2,7,19,163,1102.467226899229,1106.111153558828,stimuli/208_xb.png,a,3.632232586387545,harmless,0.333,6.216666667,1.165778516,0.150501359
039,80,0,2,7,20,164,1106.7142005870119,1109.743123056367,stimuli/156_xc.png,a,3.0171937374398112,harmless,0.333,6.590163934,0.955284411,0.122311635
039,80,0,2,7,21,165,1110.3714049742557,1113.0311803878285,stimuli/220_yb.png,l,2.6480549527332187,ambig,0.333,4.75,2.096203186,0.270618668
039,80,0,2,7,22,166,1113.6066877399571,1116.7031343043782,stimuli/200_ya.png,l,3.084566989913583,ambig,0.333,5.862068966,1.444266048,0.189641423
039,80,0,2,7,23,167,1117.3228067508899,1119.8711028946564,stimuli/201_yb.png,a,2.5365142431110144,ambig,0.333,5.898305085,1.626238682,0.211718243
039,80,0,2,7,24,168,1120.5420245411806,1122.471082257107,stimuli/119_xc.png,a,1.9169311998412013,harmless,0.333,6.694915254,0.914523379,0.119060803
039,80,0,2,8,1,169,1137.2207553647459,1145.9671595515683,stimuli/341_zb.png,a,8.734673486091197,awful,0.333,3.603448276,2.15975677,0.283589957
039,80,0,2,8,2,170,1146.5809573922306,1149.3671033889987,stimuli/114_xc.png,a,2.774783148430288,harmless,0.333,6.644067797,0.97843492,0.127381377
039,80,0,2,8,3,171,1149.9962840634398,1152.3750815261155,stimuli/190_xc.png,a,2.3671053587459028,harmless,0.333,6.517241379,1.046990328,0.137476565
039,80,0,2,8,4,172,1152.9797909781337,1159.4311356465332,stimuli/223_yb.png,a,6.438954669516534,ambig,0.333,5.542372881,1.77455224,0.231027024
039,80,0,2,8,5,173,1160.0444715060294,1163.567076686304,stimuli/244_xb.png,a,3.5112336669117212,harmless,0.333,6.610169492,0.743174671,0.096753101
039,80,0,2,8,6,174,1164.2024580710568,1167.3270768281072,stimuli/171_xa.png,a,3.1127612376585603,harmless,0.333,6.465517241,1.046556882,0.137419651
039,80,0,2,8,7,175,1167.913297183346,1176.6152834272943,stimuli/210_yb.png,a,8.69018858904019,ambig,0.333,5.557377049,1.76564049,0.226067099
039,80,0,2,8,8,176,1177.2783951093443,1179.4710806817748,stimuli/373_zb.png,l,2.1805452718399465,awful,0.333,2.327586207,1.858011869,0.243968911
039,80,0,2,8,9,177,1180.105984725058,1198.9750333190896,stimuli/263_ya.png,l,18.85711703170091,ambig,0.333,4.983050847,2.071910042,0.269739712
039,80,0,2,8,10,178,1199.604431396816,1201.519103890285,stimuli/356_za.png,l,1.9025597623549402,awful,0.333,3.033333333,2.178217796,0.281206708
039,80,0,2,8,11,179,1202.080953059718,1204.0231293891557,stimuli/292_zb.png,l,1.9303463795222342,awful,0.333,2.396551724,1.955107169,0.256718148
039,80,0,2,8,12,180,1204.660622575786,1206.4550519404002,stimuli/252_zb.png,l,1.7827853099443018,awful,0.333,2.711864407,1.983125776,0.258180985
039,80,0,2,8,13,181,1207.0580028700642,1209.5910890782252,stimuli/138_xc.png,a,2.5214409716427326,harmless,0.333,6.661016949,0.70978796,0.092406522
039,80,0,2,8,14,182,1210.2132529937662,1213.2550971540622,stimuli/145_xa.png,a,3.0300146038644016,harmless,0.333,6.661016949,0.822321556,0.107057148
039,80,0,2,8,15,183,1213.869996975176,1217.103056086693,stimuli/279_ya.png,l,3.2213374692946672,ambig,0.333,5.31147541,1.970964092,0.252356093
039,80,0,2,8,16,184,1217.7112817950547,1222.0150382188149,stimuli/352_zb.png,l,4.2921293042600155,awful,0.333,2.93442623,2.135952968,0.273480754
039,80,0,2,8,17,185,1222.631803294178,1228.7670803098008,stimuli/296_yb.png,l,6.12369676399976,ambig,0.333,4.229508197,2.052587332,0.262806878
039,80,0,2,8,18,186,1229.4005342125893,1231.111041706521,stimuli/359_za.png,l,1.6987933348864317,awful,0.333,2.01754386,1.641985167,0.217486248
039,80,0,2,8,19,187,1231.724382685963,1233.45504051866,stimuli/347_zb.png,l,1.7189921168610454,awful,0.333,3.796610169,2.147810923,0.279621165
039,80,0,2,8,20,188,1234.1082489453256,1251.8790550376289,stimuli/198_yb.png,l,17.75912934867665,ambig,0.333,5.101694915,1.83542643,0.238952168
039,80,0,2,8,21,189,1252.440832133405,1256.1670477781445,stimuli/225_ya.png,a,3.7142443042248487,ambig,0.333,5.85,1.792876677,0.231459384
039,80,0,2,8,22,190,1256.8408441063948,1259.4712598817423,stimuli/335_yb.png,a,2.6184196225367486,ambig,0.333,5.016949153,2.046793332,0.266469795
039,80,0,2,8,23,191,1260.0947061595507,1263.183025319595,stimuli/183_xb.png,a,3.0766258747316897,harmless,0.333,6.448275862,1.095003225,0.143780967
039,80,0,2,8,24,192,1263.7986210663803,1265.9669917733409,stimuli/169_xc.png,a,2.1568715875037014,harmless,0.333,6.603448276,0.916508538,0.120343467
039,80,0,2,9,1,193,1295.9933936283924,1299.135014320258,stimuli/258_ya.png,l,3.1298269755207,ambig,0.333,5.627118644,1.78014243,0.231754804
039,80,0,2,9,2,194,1299.7519869524986,1303.3269929392263,stimuli/342_yb.png,l,3.563353660982102,ambig,0.333,4.916666667,2.085394461,0.269223267
039,80,0,2,9,3,195,1303.935820050072,1308.0150098619051,stimuli/277_yb.png,a,4.066507973242551,ambig,0.333,5.491525424,2.02886822,0.264136144
039,80,0,2,9,4,196,1308.6333294473588,1314.4070145534351,stimuli/357_za.png,l,5.761968583799899,awful,0.333,2.793103448,2.066937905,0.271402243
039,80,0,2,9,5,197,1315.0281588016078,1322.6229839026928,stimuli/287_ya.png,a,7.583116061519831,ambig,0.333,5.950819672,1.407435369,0.180203633
039,80,0,2,9,6,198,1323.2761194678023,1325.9910214943811,stimuli/121_xc.png,a,2.7031681751832366,harmless,0.333,6.508474576,1.006408455,0.131023221
039,80,0,2,9,7,199,1326.5599862784147,1329.350957675837,stimuli/146_xa.png,a,2.77915917057544,harmless,0.333,6.442622951,1.162247681,0.148810567
039,80,0,2,9,8,200,1329.9891081908718,1336.2709809597582,stimuli/334_za.png,a,6.269860074389726,awful,0.333,3.333333333,2.214487481,0.285889104
039,80,0,2,9,9,201,1336.8402844513766,1339.3909578491002,stimuli/363_zb.png,l,2.5390510046854615,awful,0.333,2.433333333,2.019956927,0.260775318
039,80,0,2,9,10,202,1339.9530456890352,1342.0470228400081,stimuli/115_xb.png,a,2.0820219577290118,harmless,0.333,6.440677966,1.021681954,0.133011661
039,80,0,2,9,11,203,1342.6252363072708,1345.1509323907085,stimuli/318_za.png,l,2.513948841020465,awful,0.333,3.06557377,2.197489875,0.281359747
039,80,0,2,9,12,204,1345.7349763535894,1348.3189608454704,stimuli/340_za.png,l,2.5722660003229976,awful,0.333,2.508474576,1.832398855,0.238558011
039,80,0,2,9,13,205,1348.9512036717497,1350.598988051992,stimuli/179_xb.png,a,1.6361044854857028,harmless,0.333,6.704918033,0.882123617,0.112944356
039,80,0,2,9,14,206,1351.228650400415,1353.9431168334559,stimuli/231_xb.png,a,2.7025974923744798,harmless,0.333,6.62295082,1.05141071,0.134619347
039,80,0,2,9,15,207,1354.5711592934094,1360.8550071995705,stimuli/286_ya.png,l,6.272218817844987,ambig,0.333,5.06779661,1.779814082,0.231712057
039,80,0,2,9,16,208,1361.4890932249837,1368.3989348043688,stimuli/155_xb.png,a,6.898389327805489,harmless,0.333,6.655737705,0.892286312,0.114245555
039,80,0,2,9,17,209,1369.0111832548864,1370.8149648844264,stimuli/163_xa.png,a,1.791745304595679,harmless,0.333,6.627118644,0.963082427,0.125382652
039,80,0,2,9,18,210,1371.391752236057,1373.4070121902041,stimuli/283_yb.png,a,2.004309067968279,ambig,0.333,5.949152542,1.478859402,0.192531095
039,80,0,2,9,19,211,1373.9714824045077,1377.4869199828245,stimuli/245_yb.png,l,3.5034323669970036,ambig,0.333,4.949152542,2.096168334,0.272897873
039,80,0,2,9,20,212,1378.0646754079498,1380.0629519382492,stimuli/317_za.png,l,1.9866998232901096,awful,0.333,3.65,2.03215674,0.262350307
039,80,0,2,9,21,213,1380.6511096213944,1385.5269622979686,stimuli/209_ya.png,a,4.864205471239984,ambig,0.333,5.603448276,1.825161903,0.239655499
039,80,0,2,9,22,214,1386.1300558000803,1389.3669277341105,stimuli/322_za.png,l,3.2251688027754426,awful,0.333,2.406779661,1.975004531,0.257123689
039,80,0,2,9,23,215,1389.9951848397031,1392.6149246334098,stimuli/104_xc.png,a,2.6080728960223496,harmless,0.333,6.745762712,0.756425814,0.098478253
039,80,0,2,9,24,216,1393.2448733076453,1397.630948648788,stimuli/345_zb.png,l,4.374425379093736,awful,0.333,3.694915254,2.191317013,0.285285176
039,80,0,2,10,1,217,1429.0994378244504,1431.8628912069835,stimuli/337_zb.png,l,2.751974349375814,awful,0.333,3.033333333,2.20143764,0.284204377
039,80,0,2,10,2,218,1432.5012973286211,1434.431198662147,stimuli/199_za.png,l,1.918549906462431,awful,0.333,3.033898305,2.189048775,0.284989876
039,80,0,2,10,3,219,1435.0417141905054,1437.5429024240002,stimuli/164_xb.png,a,2.489503612741828,harmless,0.333,6.830508475,0.460604639,0.059965616
039,80,0,2,10,4,220,1438.1809028838761,1444.5189538346604,stimuli/253_ya.png,a,6.3263734192587435,ambig,0.333,5.491803279,1.849531029,0.236808182
039,80,0,2,10,5,221,1445.1318962420337,1448.095031476114,stimuli/108_xb.png,a,2.951531745493412,harmless,0.333,6.568965517,1.077880782,0.141532681
039,80,0,2,10,6,222,1448.692261400167,1454.8871851987205,stimuli/233_yb.png,a,6.183049737941474,ambig,0.333,5.318309859,1.922973646,0.102060844
039,80,0,2,10,7,223,1455.501428478863,1457.678902540356,stimuli/102_xc.png,a,2.1658174037002027,harmless,0.333,6.66011236,0.937292468,0.049676401
039,80,0,2,10,8,224,1458.3102403087541,1466.6549283512868,stimuli/205_yb.png,a,8.332331914454699,ambig,0.333,5.847457627,1.52918233,0.199082582
039,80,0,2,10,9,225,1467.2848919914104,1470.1509123044088,stimuli/251_ya.png,a,2.8543069413863122,ambig,0.333,5.655172414,1.792300532,0.235340589
039,80,0,2,10,10,226,1470.7924593472853,1473.3988855737261,stimuli/228_ya.png,l,2.5942173968069255,ambig,0.333,5.442622951,1.793735303,0.229664272
039,80,0,2,10,11,227,1474.030529360287,1477.662859226577,stimuli/370_za.png,l,3.6203880640678108,awful,0.333,2.393442623,1.882185684,0.240989182
039,80,0,2,10,12,228,1478.272892293986,1482.31089448696,stimuli/300_za.png,l,4.026228168979287,awful,0.333,3.75,2.12032137,0.273732312
039,80,0,2,10,13,229,1482.9087525955401,1485.7748989388347,stimuli/314_zb.png,l,2.854288430418819,awful,0.333,1.833333333,1.451669602,0.18740974
039,80,0,2,10,14,230,1486.4017070857808,1490.9108691234142,stimuli/167_xb.png,a,4.497468752320856,harmless,0.333,6.590163934,0.955284411,0.122311635
039,80,0,2,10,15,231,1491.5137452227063,1493.127010583412,stimuli/186_xa.png,a,1.602075016591698,harmless,0.333,6.65,0.879618561,0.113558268
039,80,0,2,10,16,232,1493.6807303791866,1497.9348830906674,stimuli/242_xb.png,a,4.242224299814552,harmless,0.333,6.576271186,0.913564256,0.118935936
039,80,0,2,10,17,233,1498.5090060746297,1502.2788535458967,stimuli/260_ya.png,a,3.7578942477703094,ambig,0.333,4.966101695,2.016877936,0.262575142
039,80,0,2,10,18,234,1502.9039031704888,1505.8628663946874,stimuli/256_zb.png,l,2.94744559423998,awful,0.333,3.051724138,2.012438634,0.264246138
039,80,0,2,10,19,235,1506.4944219603203,1508.5189097239636,stimuli/105_xa.png,a,2.0128133832477033,harmless,0.333,6.557377049,1.088187946,0.139328189
039,80,0,2,10,20,236,1509.142989306245,1511.8149022632279,stimuli/271_ya.png,l,2.6602283362299204,ambig,0.333,5.711864407,1.771915459,0.230683744
039,80,0,2,10,21,237,1512.38633094728,1518.4069058517925,stimuli/268_zb.png,l,6.008697299286723,awful,0.333,2.655737705,2.048456703,0.262278005
039,80,0,2,10,22,238,1518.9825983117335,1521.3028749963269,stimuli/131_xb.png,a,2.3086271160282195,harmless,0.333,6.525423729,1.119666394,0.145768149
039,80,0,2,10,23,239,1521.9182190760039,1527.1989599317312,stimuli/254_ya.png,l,5.269031028728932,ambig,0.333,5.983606557,1.627798137,0.208418195
039,80,0,2,10,24,240,1527.8166217943653,1530.8868969036266,stimuli/299_za.png,l,3.058263202663511,awful,0.333,1.288135593,0.929420425,0.121000233
