id,age,condition,counterbalance,block,trialinblock,trial,tstart,tend,trialstim,response,RT,trialtype,ethicfreq,norm_mean,norm_sd,norm_se
021,80,0,1,0,0,practice,5.513837095350027e-06,56.74381976976292,stimuli/prac_217_1.png,a,56.729411310574505,harmless,NA,NA,NA,NA
021,80,0,1,1,1,1,4.910613123560324,13.696102579531725,stimuli/266_zb.png,a,8.774395210202783,awful,0.333,3.491525424,1.888010094,0.245797978
021,80,0,1,1,2,2,15.131652451469563,26.232117819832638,stimuli/236_yb.png,l,11.088361301692203,ambig,0.333,5.93442623,1.49297078,0.19115532
021,80,0,1,1,3,3,26.8807036766666,34.76018761243904,stimuli/195_xc.png,a,7.86758781975368,harmless,0.333,6.637640449,1.001766915,0.05309354
021,80,0,1,1,4,4,35.35863058199175,43.58416369184852,stimuli/370_za.png,a,8.214530630211812,awful,0.333,2.393442623,1.882185684,0.240989182
021,80,0,1,1,5,5,44.74706112174317,55.96815007418627,stimuli/281_ya.png,a,11.209422054700553,ambig,0.333,5.881355932,1.543448286,0.200939852
021,80,0,1,1,6,6,56.56460175878601,67.20815229549771,stimuli/106_xc.png,l,10.632983256829903,harmless,0.333,6.661016949,0.863237081,0.112383896
021,80,0,1,1,7,7,68.10904254484922,84.01608112279791,stimuli/253_ya.png,l,15.895338991016615,ambig,0.333,5.491803279,1.849531029,0.236808182
021,80,0,1,1,8,8,84.74861760082422,90.6561516369693,stimuli/252_zb.png,a,5.89671075635124,awful,0.333,2.711864407,1.983125776,0.258180985
021,80,0,1,1,9,9,91.28682104905602,103.43204543093452,stimuli/160_xb.png,l,12.133816634770483,harmless,0.333,6.666666667,0.680644427,0.087870818
021,80,0,1,1,10,10,104.03049509582343,109.7602616554941,stimuli/318_za.png,a,5.718770775361918,awful,0.333,3.06557377,2.197489875,0.281359747
021,80,0,1,1,11,11,110.33707736397628,120.84805700054858,stimuli/265_yb.png,l,10.49946003727382,ambig,0.333,5.627118644,1.856008928,0.241631781
021,80,0,1,1,12,12,121.42355805134866,126.58403332880698,stimuli/261_yb.png,a,5.148827678232919,ambig,0.333,5.706896552,1.901141123,0.249632059
021,80,0,1,1,13,13,127.48345413903007,137.6160443376284,stimuli/203_yb.png,a,10.120961503940634,ambig,0.333,6,1.542501327,0.200816568
021,80,0,1,1,14,14,138.19952273753006,157.04809016239597,stimuli/348_za.png,l,18.837008834758308,awful,0.333,3.084745763,2.119597681,0.275948114
021,80,0,1,1,15,15,157.9011549137649,164.52008456661133,stimuli/290_zb.png,a,6.608445868245326,awful,0.333,2.586206897,2.026443456,0.266085062
021,80,0,1,1,16,16,165.22320075432071,170.20803059713216,stimuli/208_xb.png,l,4.973168065072969,harmless,0.333,6.216666667,1.165778516,0.150501359
021,80,0,1,1,17,17,171.09010052523809,176.74405253276927,stimuli/111_xa.png,l,5.641769171634223,harmless,0.333,6.590163934,0.863655973,0.110579816
021,80,0,1,1,18,18,177.6030419083545,184.47198061965173,stimuli/171_xa.png,l,6.857321831979789,harmless,0.333,6.465517241,1.046556882,0.137419651
021,80,0,1,1,19,19,185.1965302962344,199.0160385874333,stimuli/136_xc.png,l,13.807930008799303,harmless,0.333,6.559322034,1.038420326,0.135190811
021,80,0,1,1,20,20,199.61472298455192,206.08806040335912,stimuli/330_ya.png,l,6.461703997978475,ambig,0.333,4.796610169,2.049219036,0.266785595
021,80,0,1,1,21,21,206.75706992816413,212.0880513449083,stimuli/159_xa.png,l,5.319422432803549,harmless,0.333,6.389830508,1.174689235,0.152931512
021,80,0,1,1,22,22,212.6813282375224,220.80799932574155,stimuli/340_za.png,a,8.115061298187356,awful,0.333,2.508474576,1.832398855,0.238558011
021,80,0,1,1,23,23,221.45983204833465,226.97599745419575,stimuli/337_zb.png,a,5.503895923844539,awful,0.333,3.033333333,2.20143764,0.284204377
021,80,0,1,1,24,24,227.6007012820337,234.21606623544358,stimuli/213_ya.png,l,6.603531852655578,ambig,0.333,5.98245614,1.597891781,0.211645937
021,80,0,1,2,1,25,279.7031016154215,328.3999611667823,stimuli/317_za.png,a,48.68559792108135,awful,0.333,3.65,2.03215674,0.262350307
021,80,0,1,2,2,26,328.9663454722031,334.5199431758956,stimuli/353_zb.png,a,5.541035594185814,awful,0.333,1.949152542,1.623361018,0.211343603
021,80,0,1,2,3,27,335.0979097021627,340.61592263920465,stimuli/179_xb.png,l,5.506264119350817,harmless,0.333,6.704918033,0.882123617,0.112944356
021,80,0,1,2,4,28,341.1917080467683,352.5518813232193,stimuli/133_xa.png,l,11.348474083351903,harmless,0.333,6.568965517,1.186356193,0.1557762
021,80,0,1,2,5,29,353.1335763888201,360.3519651336246,stimuli/333_za.png,a,7.206656468682922,awful,0.333,3.266666667,2.185209657,0.282109354
021,80,0,1,2,6,30,360.95800145249814,373.20799042482395,stimuli/292_zb.png,a,12.2383724868414,awful,0.333,2.396551724,1.955107169,0.256718148
021,80,0,1,2,7,31,373.7760627538664,381.95191850228,stimuli/272_xb.png,l,8.164663828909397,harmless,0.333,6.355932203,1.029943284,0.134087194
021,80,0,1,2,8,32,382.5788412580732,388.3759747686563,stimuli/246_ya.png,l,5.784994391608052,ambig,0.333,5.542372881,1.715266481,0.223308675
021,80,0,1,2,9,33,388.9436717625358,393.11993592913495,stimuli/257_yb.png,l,4.1643893182626925,ambig,0.333,5.620689655,1.843219782,0.242026615
021,80,0,1,2,10,34,393.76114032574696,398.6639679031214,stimuli/164_xb.png,l,4.891185098094866,harmless,0.333,6.830508475,0.460604639,0.059965616
021,80,0,1,2,11,35,399.2336353081628,403.15991444094107,stimuli/251_ya.png,l,3.9142900691367686,ambig,0.333,5.655172414,1.792300532,0.235340589
021,80,0,1,2,12,36,403.75993003719486,410.45593454909977,stimuli/366_za.png,l,6.683091485640034,awful,0.333,3.689655172,2.036568291,0.267414518
021,80,0,1,2,13,37,411.04344081127783,417.15990183787653,stimuli/169_xc.png,l,6.105082030233461,harmless,0.333,6.603448276,0.916508538,0.120343467
021,80,0,1,2,14,38,417.7253688761266,424.1598982932628,stimuli/228_ya.png,a,6.422625424165744,ambig,0.333,5.442622951,1.793735303,0.229664272
021,80,0,1,2,15,39,424.72508255013963,434.3598680458963,stimuli/174_xc.png,l,9.622819275129586,harmless,0.333,6.533333333,1.111826512,0.143536185
021,80,0,1,2,16,40,434.9600482697715,439.3119066711515,stimuli/258_ya.png,l,4.340202137478627,ambig,0.333,5.627118644,1.78014243,0.231754804
021,80,0,1,2,17,41,439.88671140233055,445.38382608711254,stimuli/229_za.png,a,5.484985018090811,awful,0.333,3.406779661,2.043649913,0.266060557
021,80,0,1,2,18,42,445.9666357366368,450.35987159051,stimuli/230_yb.png,a,4.381450408545788,ambig,0.333,4.98245614,1.875511626,0.248417583
021,80,0,1,2,19,43,450.92719561228296,456.5038541762042,stimuli/277_yb.png,l,5.564713217143435,ambig,0.333,5.491525424,2.02886822,0.264136144
021,80,0,1,2,20,44,457.0898342853761,465.3598361443728,stimuli/303_zb.png,a,8.258314481237903,awful,0.333,3.620689655,2.158846233,0.283470398
021,80,0,1,2,21,45,465.92701562464936,470.21586498018587,stimuli/372_zb.png,a,4.276917005656287,awful,0.333,2.796610169,2.082601664,0.271131643
021,80,0,1,2,22,46,470.7904696376645,480.3358497462468,stimuli/181_xa.png,l,9.533817580027971,harmless,0.333,6.666666667,0.950765377,0.122743282
021,80,0,1,2,23,47,480.98657497408567,485.68785741517786,stimuli/104_xc.png,l,4.6893737219506875,harmless,0.333,6.745762712,0.756425814,0.098478253
021,80,0,1,2,24,48,486.2959952959209,490.98384168342454,stimuli/239_ya.png,l,4.675872683816124,ambig,0.333,5.157894737,1.925296579,0.255011762
021,80,0,1,3,1,49,500.1661320864805,508.903872450639,stimuli/163_xa.png,l,8.726169564819429,harmless,0.333,6.627118644,0.963082427,0.125382652
021,80,0,1,3,2,50,509.4737820709124,519.9199161580764,stimuli/360_za.png,a,10.43441323254956,awful,0.333,3.2,2.207844259,0.285031468
021,80,0,1,3,3,51,520.5322032056283,526.1518476887722,stimuli/315_yb.png,a,5.608322200598195,ambig,0.333,5.050847458,1.915667965,0.249398726
021,80,0,1,3,4,52,526.7425149582559,533.8158116534469,stimuli/189_yb.png,l,7.061640037456527,ambig,0.333,5.983333333,1.455459234,0.187898979
021,80,0,1,3,5,53,534.4791304984828,538.6077605763567,stimuli/190_xc.png,l,4.1170474631362595,harmless,0.333,6.517241379,1.046990328,0.137476565
021,80,0,1,3,6,54,539.1963377055363,547.2638247795403,stimuli/284_ya.png,l,8.055910366994794,ambig,0.333,5.948275862,1.431750417,0.18799804
021,80,0,1,3,7,55,547.8442335443688,550.7757870617206,stimuli/153_xb.png,l,2.9199740534531884,harmless,0.333,6.633333333,0.973664521,0.125699549
021,80,0,1,3,8,56,551.3746368740685,556.3037650882616,stimuli/359_za.png,l,4.917375458055176,awful,0.333,2.01754386,1.641985167,0.217486248
021,80,0,1,3,9,57,556.8746116679395,568.6878396921093,stimuli/149_xa.png,l,11.801486689597368,harmless,0.333,6.721311475,0.933294301,0.11949609
021,80,0,1,3,10,58,569.2579060630524,572.311781034281,stimuli/178_xa.png,l,3.0418721229652874,harmless,0.333,6.483333333,1.112207557,0.143585378
021,80,0,1,3,11,59,572.8844270959962,577.7438882989809,stimuli/363_zb.png,l,4.847619437670801,awful,0.333,2.433333333,2.019956927,0.260775318
021,80,0,1,3,12,60,578.3130799381179,588.5598212569603,stimuli/312_yb.png,a,10.23483811353799,ambig,0.333,4.677966102,2.112692986,0.275049199
021,80,0,1,3,13,61,589.1554698896944,596.5358002004214,stimuli/350_ya.png,l,7.368609456112608,ambig,0.333,4.915254237,2.02814792,0.264042369
021,80,0,1,3,14,62,597.1045487628435,605.9917516848654,stimuli/339_ya.png,l,8.87527490442153,ambig,0.333,4.949152542,1.960152429,0.25519011
021,80,0,1,3,15,63,606.6092122924165,615.2397840306512,stimuli/287_ya.png,a,8.618828434380703,ambig,0.333,5.950819672,1.407435369,0.180203633
021,80,0,1,3,16,64,615.8050706874928,622.5917338042636,stimuli/248_zb.png,a,6.774640576215461,awful,0.333,3.288135593,1.991800844,0.259310383
021,80,0,1,3,17,65,623.201316311839,631.6157422577962,stimuli/165_xb.png,l,8.402811823587399,harmless,0.333,6.557377049,1.008705278,0.129151477
021,80,0,1,3,18,66,632.2251164208865,637.143729736621,stimuli/180_xc.png,l,4.906939328822773,harmless,0.333,6.672131148,0.723908638,0.092687003
021,80,0,1,3,19,67,637.7057789799874,647.9837239234475,stimuli/373_zb.png,a,10.265879867540207,awful,0.333,2.327586207,1.858011869,0.243968911
021,80,0,1,3,20,68,648.5796313129831,654.3437581722974,stimuli/308_zb.png,a,5.75237095245393,awful,0.333,1.644067797,1.471132708,0.191525165
021,80,0,1,3,21,69,654.9373422647477,658.9597264976474,stimuli/183_xb.png,a,4.00947396364063,harmless,0.333,6.448275862,1.095003225,0.143780967
021,80,0,1,3,22,70,659.5305317235179,663.007702050847,stimuli/232_yb.png,a,3.4650761067750864,ambig,0.333,5.483333333,1.845669845,0.238274952
021,80,0,1,3,23,71,663.5839447135222,667.9677554406226,stimuli/338_zb.png,a,4.372074512531981,awful,0.333,3.310344828,2.137443107,0.28066003
021,80,0,1,3,24,72,668.5546642384725,679.0958668233943,stimuli/305_zb.png,l,10.529524659505114,awful,0.333,2.75,2.12830003,0.274762352
021,80,0,1,4,1,73,776.4564867211157,795.9677700129105,stimuli/200_ya.png,l,19.498976788308937,ambig,0.333,5.862068966,1.444266048,0.189641423
021,80,0,1,4,2,74,796.533461937157,802.7836360170622,stimuli/132_xc.png,l,6.238516240613535,harmless,0.333,6.627118644,0.692280217,0.090127208
021,80,0,1,4,3,75,803.385518049181,811.1436584505136,stimuli/141_xc.png,l,7.746430574392434,harmless,0.333,6.508474576,1.040107444,0.135410455
021,80,0,1,4,4,76,811.8105459334911,817.8876507248497,stimuli/354_zb.png,a,6.064961733936798,awful,0.333,2,1.701925887,0.221571878
021,80,0,1,4,5,77,818.4559432137175,823.5356560528162,stimuli/139_xa.png,l,5.067888009129092,harmless,0.333,6.724137931,0.790138861,0.103750315
021,80,0,1,4,6,78,824.09952683351,829.8716278912616,stimuli/161_xc.png,l,5.760278984729666,harmless,0.333,6.796610169,0.609682252,0.079373868
021,80,0,1,4,7,79,830.47499590402,835.3035906145233,stimuli/173_yb.png,l,4.816424871562049,ambig,0.333,5.796610169,1.242628763,0.161776485
021,80,0,1,4,8,80,835.859204415523,841.5276046606014,stimuli/319_ya.png,a,5.656561630545184,ambig,0.333,4.216666667,2.108028774,0.272145344
021,80,0,1,4,9,81,842.0954320174642,850.5196174653247,stimuli/256_zb.png,a,8.412292482564226,awful,0.333,3.051724138,2.012438634,0.264246138
021,80,0,1,4,10,82,851.1203092950745,856.5835922213737,stimuli/325_yb.png,a,5.451297407213133,ambig,0.333,5.131147541,1.811770863,0.231973488
021,80,0,1,4,11,83,857.1731984699727,864.9036125123384,stimuli/271_ya.png,l,7.718578184721991,ambig,0.333,5.711864407,1.771915459,0.230683744
021,80,0,1,4,12,84,865.480608208396,871.9996372679016,stimuli/332_zb.png,a,6.507159725006204,awful,0.333,2.694915254,2.002190501,0.260663001
021,80,0,1,4,13,85,872.5606313980534,876.1516031104256,stimuli/316_za.png,a,3.5789255410199985,awful,0.333,2.344827586,1.802062407,0.236622386
021,80,0,1,4,14,86,876.7196439317777,883.0556004102691,stimuli/130_xc.png,a,6.324067057808861,harmless,0.333,6.644067797,0.960651931,0.125066229
021,80,0,1,4,15,87,883.6328934599878,891.4955727779889,stimuli/371_zb.png,a,7.85092538036406,awful,0.333,3.131147541,2.085468851,0.267016925
021,80,0,1,4,16,88,892.0573939845781,897.9996049725451,stimuli/123_xc.png,l,5.930493284133263,harmless,0.333,6.491525424,1.023396666,0.133234897
021,80,0,1,4,17,89,898.616837543319,912.4475995879038,stimuli/245_yb.png,a,13.819249534513801,ambig,0.333,4.949152542,2.096168334,0.272897873
021,80,0,1,4,18,90,913.0339172230451,916.67954293394,stimuli/263_ya.png,l,3.6339934716233984,ambig,0.333,4.983050847,2.071910042,0.269739712
021,80,0,1,4,19,91,917.3245983559173,921.7115838750033,stimuli/147_ya.png,a,4.375344615196809,ambig,0.333,5.883333333,1.766847875,0.22809908
021,80,0,1,4,20,92,922.2761438860907,925.9995915818145,stimuli/320_za.png,a,3.711848145641852,awful,0.333,1.423728814,1.117314975,0.14546202
021,80,0,1,4,21,93,926.5729568061652,929.8235377288656,stimuli/294_za.png,a,3.238802172767464,awful,0.333,1.557377049,1.38473331,0.177296933
021,80,0,1,4,22,94,930.4546573067782,941.9755614667665,stimuli/227_xa.png,a,11.50887492398033,harmless,0.333,6.180327869,1.05685377,0.135316259
021,80,0,1,4,23,95,942.5576653443859,956.5595195710193,stimuli/211_zb.png,l,13.990168424264994,awful,0.333,3.983333333,2.127237938,0.274625237
021,80,0,1,4,24,96,957.1514648705488,964.2875382424681,stimuli/142_xa.png,l,7.123985846759751,harmless,0.333,6.4,1.076718178,0.139003719
021,80,0,1,5,1,97,974.003927825368,981.3035291745327,stimuli/215_yb.png,l,7.288009282143321,ambig,0.333,5.866666667,1.466769385,0.189359113
021,80,0,1,5,2,98,981.8698670061422,986.7835474017193,stimuli/113_xb.png,l,4.9021745808422565,harmless,0.333,6.733333333,0.660422737,0.085260209
021,80,0,1,5,3,99,987.3520139704924,992.5515260741813,stimuli/326_zb.png,a,5.187638042960316,awful,0.333,3.389830508,2.220724867,0.289113752
021,80,0,1,5,4,100,993.1353219139273,1002.607624305645,stimuli/322_za.png,a,9.459462620841805,awful,0.333,2.406779661,1.975004531,0.257123689
021,80,0,1,5,5,101,1003.2090100919013,1009.1034684434999,stimuli/198_yb.png,l,5.882856044569053,ambig,0.333,5.101694915,1.83542643,0.238952168
021,80,0,1,5,6,102,1009.6745103707653,1020.4235340267187,stimuli/279_ya.png,a,10.737291773664765,ambig,0.333,5.31147541,1.970964092,0.252356093
021,80,0,1,5,7,103,1021.0688293008716,1027.2155077619245,stimuli/212_ya.png,l,6.134911920293234,ambig,0.333,5.677966102,1.490668422,0.194068498
021,80,0,1,5,8,104,1027.8054538995493,1040.711617351917,stimuli/327_zb.png,a,12.894477256166283,awful,0.333,2.502808989,1.906990248,0.101070281
021,80,0,1,5,9,105,1041.3774717770284,1044.5195564192254,stimuli/369_za.png,a,3.1303956891060807,awful,0.333,2.948275862,2.055565093,0.26990892
021,80,0,1,5,10,106,1045.1039536616881,1048.1914815853816,stimuli/199_za.png,a,3.075844878272619,awful,0.333,3.033898305,2.189048775,0.284989876
021,80,0,1,5,11,107,1048.7641130747506,1051.383502739598,stimuli/346_zb.png,a,2.607441954954993,awful,0.333,1.288135593,0.983499162,0.128040685
021,80,0,1,5,12,108,1052.0218450578977,1055.7755263356958,stimuli/310_zb.png,a,3.7417788602178916,awful,0.333,3.224137931,2.102989547,0.276136056
021,80,0,1,5,13,109,1056.3457478819182,1061.9674754161388,stimuli/109_xb.png,l,5.610154765658081,harmless,0.333,6.644067797,0.97843492,0.127381377
021,80,0,1,5,14,110,1062.5963362877374,1067.9915401895996,stimuli/307_za.png,l,5.383142764389049,awful,0.333,2.93220339,2.172432347,0.282826601
021,80,0,1,5,15,111,1068.6016929860925,1073.3594808953349,stimuli/202_yb.png,a,4.74600719002774,ambig,0.333,5.431034483,1.892849601,0.248543329
021,80,0,1,5,16,112,1073.9354458965827,1078.735494654742,stimuli/103_xb.png,l,4.78824519587215,harmless,0.333,6.779661017,0.589207434,0.076708274
021,80,0,1,5,17,113,1079.3651991442894,1084.3355035556597,stimuli/224_yb.png,l,4.958715889020823,ambig,0.333,5.881355932,1.609077116,0.209483997
021,80,0,1,5,18,114,1084.9116162491264,1094.9674872315372,stimuli/234_xb.png,l,10.0442151123425,harmless,0.333,6.637931034,0.788030542,0.103473479
021,80,0,1,5,19,115,1095.5357501819963,1099.3914808764239,stimuli/131_xb.png,l,3.8439357968163677,harmless,0.333,6.525423729,1.119666394,0.145768149
021,80,0,1,5,20,116,1100.009856388031,1115.5035040471703,stimuli/145_xa.png,l,15.482034718326759,harmless,0.333,6.661016949,0.822321556,0.107057148
021,80,0,1,5,21,117,1116.1319190851646,1118.9914960789029,stimuli/243_ya.png,l,2.8475749331410043,ambig,0.333,5.830508475,1.652088985,0.215083666
021,80,0,1,5,22,118,1119.5565850250423,1123.7274767394993,stimuli/186_xa.png,l,4.159114539856091,harmless,0.333,6.65,0.879618561,0.113558268
021,80,0,1,5,23,119,1124.293095014582,1131.2794242287637,stimuli/116_xa.png,l,6.974785984086338,harmless,0.333,6.63559322,0.958030802,0.050918763
021,80,0,1,5,24,120,1131.8553537839325,1138.9194703245303,stimuli/218_yb.png,l,7.0522893475717865,ambig,0.333,5.850282486,1.552723069,0.0825263
021,80,0,1,6,1,121,1148.78314567887,1156.103409760457,stimuli/177_xb.png,l,7.308657836110797,harmless,0.333,6.482758621,1.063614811,0.139659467
021,80,0,1,6,2,122,1156.744546021684,1166.887449863425,stimuli/347_zb.png,a,10.131099885620642,awful,0.333,3.796610169,2.147810923,0.279621165
021,80,0,1,6,3,123,1167.52380325977,1174.0714282901026,stimuli/364_za.png,a,6.53598530794261,awful,0.333,1.677966102,1.279017376,0.166513879
021,80,0,1,6,4,124,1174.6410153505276,1180.4154487638152,stimuli/222_ya.png,l,5.762701530940831,ambig,0.333,5.931034483,1.543089507,0.202617579
021,80,0,1,6,5,125,1181.0145380345057,1190.6554360189475,stimuli/187_xc.png,l,9.628988477634266,harmless,0.333,6.224137931,1.185335891,0.155642228
021,80,0,1,6,6,126,1191.2340082802111,1201.9513927179505,stimuli/278_xb.png,l,10.705718721554149,harmless,0.333,6.360655738,1.140654591,0.146045855
021,80,0,1,6,7,127,1202.5080403644824,1206.9913728050888,stimuli/367_zb.png,a,4.471394576888997,awful,0.333,3.413793103,2.086165649,0.27392697
021,80,0,1,6,8,128,1207.5680286121205,1215.0073842171696,stimuli/205_yb.png,l,7.427265322941821,ambig,0.333,5.847457627,1.52918233,0.199082582
021,80,0,1,6,9,129,1215.6231142657343,1219.5915148259373,stimuli/126_xa.png,l,3.9567340562934987,harmless,0.333,6.6,0.977717855,0.126222832
021,80,0,1,6,10,130,1220.1523679592065,1223.7354328209185,stimuli/249_ya.png,l,3.5709966349531896,ambig,0.333,5.327868852,1.859402337,0.238072074
021,80,0,1,6,11,131,1224.3048450137721,1230.1994018268306,stimuli/170_xc.png,l,5.882577201700769,harmless,0.333,6.583333333,1.062323432,0.137145365
021,80,0,1,6,12,132,1230.8608688083477,1235.0553944288404,stimuli/304_ya.png,l,4.182820519723464,ambig,0.333,4.034482759,2.017167697,0.264867095
021,80,0,1,6,13,133,1235.665897748142,1252.1673474949785,stimuli/342_yb.png,l,16.48977930448018,ambig,0.333,4.916666667,2.085394461,0.269223267
021,80,0,1,6,14,134,1252.743542896118,1276.0554038811242,stimuli/167_xb.png,a,23.30023150262423,harmless,0.333,6.590163934,0.955284411,0.122311635
021,80,0,1,6,15,135,1276.642088974535,1283.7113885274157,stimuli/341_zb.png,l,7.057466452184599,awful,0.333,3.603448276,2.15975677,0.283589957
021,80,0,1,6,16,136,1284.3461243986385,1290.4553595340694,stimuli/334_za.png,a,6.097331536351703,awful,0.333,3.333333333,2.214487481,0.285889104
021,80,0,1,6,17,137,1291.0279709373135,1296.7913510648068,stimuli/351_zb.png,a,5.751928663463332,awful,0.333,3.06779661,2.033040926,0.264679384
021,80,0,1,6,18,138,1297.458771421283,1302.1753472933196,stimuli/357_za.png,a,4.704601380624808,awful,0.333,2.793103448,2.066937905,0.271402243
021,80,0,1,6,19,139,1302.7427311796928,1307.279292684223,stimuli/220_yb.png,l,4.524854040704668,ambig,0.333,4.75,2.096203186,0.270618668
021,80,0,1,6,20,140,1307.8442835627939,1312.487376844394,stimuli/185_xa.png,l,4.631344857800286,harmless,0.333,6.5,0.965506805,0.124646393
021,80,0,1,6,21,141,1313.0919744441635,1319.0713471578783,stimuli/285_yb.png,a,5.967718419095036,ambig,0.333,4.120689655,2.119893958,0.278355714
021,80,0,1,6,22,142,1319.6772574460483,1326.1113032203866,stimuli/240_xa.png,l,6.421977941470686,harmless,0.333,6.482758621,1.096107616,0.143925981
021,80,0,1,6,23,143,1326.6701627056464,1328.2953296963242,stimuli/254_ya.png,l,1.6133894222439267,ambig,0.333,5.983606557,1.627798137,0.208418195
021,80,0,1,6,24,144,1328.9593558886554,1333.0712947763386,stimuli/368_za.png,l,4.098679670889396,awful,0.333,3.590163934,2.02794682,0.259651984
021,80,0,1,7,1,145,1341.9288481897675,1363.9993840249954,stimuli/175_xb.png,l,22.059322254208382,harmless,0.333,6.6,1.028409995,0.13276716
021,80,0,1,7,2,146,1364.5714775208617,1367.559365971072,stimuli/150_xc.png,l,2.976068346411921,harmless,0.333,6.482758621,1.030097582,0.135258439
021,80,0,1,7,3,147,1368.138911819493,1372.2393149601994,stimuli/108_xb.png,l,4.0887149752816185,harmless,0.333,6.568965517,1.077880782,0.141532681
021,80,0,1,7,4,148,1372.8188375716563,1377.5593620326254,stimuli/207_yb.png,l,4.728754375595599,ambig,0.333,5.655737705,1.662179753,0.212820309
021,80,0,1,7,5,149,1378.1422693559434,1382.1114733618451,stimuli/269_za.png,l,3.9573583020828664,awful,0.333,3.457627119,2.119873401,0.27598401
021,80,0,1,7,6,150,1382.6847952631651,1389.479431790649,stimuli/293_zb.png,a,6.783161038882099,awful,0.333,3.677966102,2.169066842,0.28238845
021,80,0,1,7,7,151,1390.0479188393801,1394.8392962918733,stimuli/110_xa.png,l,4.7794970902614295,harmless,0.333,6.428571429,1.059281795,0.141552484
021,80,0,1,7,8,152,1395.444784771069,1402.0073235649033,stimuli/291_za.png,a,6.550867957645096,awful,0.333,2.593220339,1.830005126,0.238246374
021,80,0,1,7,9,153,1402.5745105282986,1407.511470762489,stimuli/275_yb.png,l,4.925867563812062,ambig,0.333,4.836065574,2.138382004,0.27379176
021,80,0,1,7,10,154,1408.0860324907117,1420.919291124621,stimuli/300_za.png,l,12.822294357290957,awful,0.333,3.75,2.12032137,0.273732312
021,80,0,1,7,11,155,1421.5160555228358,1426.51133331022,stimuli/193_xc.png,l,4.983974803297315,harmless,0.333,6.482758621,1.012923151,0.133003326
021,80,0,1,7,12,156,1427.1162786759087,1439.3912555965362,stimuli/176_xb.png,l,12.263427782803774,harmless,0.333,6.796610169,0.517942249,0.067430337
021,80,0,1,7,13,157,1439.9772719395696,1449.5992747721612,stimuli/226_yb.png,a,9.609684907540213,ambig,0.333,5.683333333,1.712285287,0.22105508
021,80,0,1,7,14,158,1450.1666377846268,1456.783239414217,stimuli/362_zb.png,a,6.6048925903160125,awful,0.333,1.474576271,1.222715071,0.159183944
021,80,0,1,7,15,159,1457.387341161957,1466.7592908252846,stimuli/328_za.png,a,9.360335540957749,awful,0.333,2.706896552,1.955725922,0.256799395
021,80,0,1,7,16,160,1467.4031879464164,1476.799262247805,stimuli/344_za.png,a,9.384481840534136,awful,0.333,2.711864407,2.043077863,0.265986082
021,80,0,1,7,17,161,1477.3676555612474,1493.8152417584206,stimuli/172_xb.png,l,16.436240283830557,harmless,0.333,6.482758621,1.127664553,0.14806961
021,80,0,1,7,18,162,1494.4253520194907,1503.7272447642172,stimuli/309_ya.png,l,9.29012462857645,ambig,0.333,4.706896552,1.946734744,0.255618795
021,80,0,1,7,19,163,1504.3023259752663,1508.9992217604886,stimuli/267_ya.png,l,4.684781084710266,ambig,0.333,5.103448276,1.898195405,0.249245267
021,80,0,1,7,20,164,1509.5544751924463,1513.2712070274865,stimuli/192_za.png,l,3.7048128759488463,awful,0.333,2.68852459,2.093967396,0.268105052
021,80,0,1,7,21,165,1513.843207181897,1517.0472634797916,stimuli/260_ya.png,l,3.1924610801506788,ambig,0.333,4.966101695,2.016877936,0.262575142
021,80,0,1,7,22,166,1517.6194046310266,1521.1113185803988,stimuli/219_ya.png,l,3.4800327994744293,ambig,0.333,5.271186441,1.998538332,0.260187529
021,80,0,1,7,23,167,1521.6906966504175,1525.4471679327544,stimuli/282_xc.png,l,3.744921750680078,harmless,0.333,6.55,0.998728005,0.128935231
021,80,0,1,7,24,168,1526.0394566659234,1531.1352722893353,stimuli/235_ya.png,l,5.084120762592647,ambig,0.333,5.694915254,1.567495667,0.204070554
021,80,0,1,8,1,169,1540.6565521783195,1548.7672532082652,stimuli/352_zb.png,l,8.098829332389869,awful,0.333,2.93442623,2.135952968,0.273480754
021,80,0,1,8,2,170,1549.3447971378337,1552.9431774858967,stimuli/121_xc.png,l,3.5867516533471644,harmless,0.333,6.508474576,1.006408455,0.131023221
021,80,0,1,8,3,171,1553.5118925714632,1557.1511805137852,stimuli/119_xc.png,l,3.6276430999860168,harmless,0.333,6.694915254,0.914523379,0.119060803
021,80,0,1,8,4,172,1557.8019136185758,1562.1511749999481,stimuli/289_yb.png,l,4.337612206698395,ambig,0.333,5.305084746,1.714584873,0.223219937
021,80,0,1,8,5,173,1562.7810626277933,1569.3752335506724,stimuli/343_zb.png,a,6.582536320493091,awful,0.333,3.103448276,2.141401862,0.28117984
021,80,0,1,8,6,174,1569.9439380023396,1583.3191841560765,stimuli/329_zb.png,a,13.363322074583266,awful,0.333,2.406779661,1.992387617,0.259386774
021,80,0,1,8,7,175,1583.9205573392683,1590.687161489448,stimuli/274_xb.png,l,6.754593031131662,harmless,0.333,6.491525424,1.179901828,0.153610134
021,80,0,1,8,8,176,1591.2600072310306,1596.1112138173776,stimuli/223_yb.png,l,4.839620427053887,ambig,0.333,5.542372881,1.77455224,0.231027024
021,80,0,1,8,9,177,1596.7616219993215,1600.1672596673598,stimuli/323_yb.png,l,3.3938329242519103,ambig,0.333,4.603448276,1.955107169,0.256718148
021,80,0,1,8,10,178,1600.731235604966,1604.6951774354675,stimuli/152_xa.png,l,3.952428532706108,harmless,0.333,6.576271186,0.968528743,0.126091702
021,80,0,1,8,11,179,1605.2671129991068,1608.151145461481,stimuli/201_yb.png,l,2.87228561390657,ambig,0.333,5.898305085,1.626238682,0.211718243
021,80,0,1,8,12,180,1608.71152361657,1614.887168263609,stimuli/270_yb.png,a,6.1641215030686,ambig,0.333,5.534482759,1.912246013,0.251090203
021,80,0,1,8,13,181,1615.5422844796558,1621.2951343487366,stimuli/288_yb.png,l,5.7412207805900835,ambig,0.333,5.189655172,1.914459262,0.251380817
021,80,0,1,8,14,182,1621.9113015662879,1627.0871833084966,stimuli/298_za.png,a,5.164422795176506,awful,0.333,2.881355932,2.026418156,0.263817173
021,80,0,1,8,15,183,1627.7629815554246,1633.623211151862,stimuli/314_zb.png,a,5.848201541986782,awful,0.333,1.833333333,1.451669602,0.18740974
021,80,0,1,8,16,184,1634.2215848044725,1644.079131128674,stimuli/299_za.png,a,9.845864460337907,awful,0.333,1.288135593,0.929420425,0.121000233
021,80,0,1,8,17,185,1644.6507488586358,1654.3191459529917,stimuli/146_xa.png,l,9.65698777185753,harmless,0.333,6.442622951,1.162247681,0.148810567
021,80,0,1,8,18,186,1654.9501682510017,1660.3991262134514,stimuli/221_xb.png,l,5.436784578894731,harmless,0.333,6.440677966,1.133672495,0.147591588
021,80,0,1,8,19,187,1660.9656404880225,1668.5271541008842,stimuli/358_za.png,l,7.549617890676018,awful,0.333,3.949152542,2.112554662,0.275031191
021,80,0,1,8,20,188,1669.1200848029112,1683.1191872280906,stimuli/122_xa.png,l,13.987954616372008,harmless,0.333,6.457627119,1.039264227,0.135300678
021,80,0,1,8,21,189,1683.7427756842808,1687.5911524877301,stimuli/125_xc.png,l,3.8366795795736834,harmless,0.333,6.683333333,0.999858747,0.129081209
021,80,0,1,8,22,190,1688.1601050623576,1696.1671950766467,stimuli/311_za.png,a,7.995358525833581,awful,0.333,3.116666667,1.975199339,0.254997138
021,80,0,1,8,23,191,1696.7479512135033,1702.7190653721336,stimuli/191_ya.png,a,5.959199925651774,ambig,0.333,5.517241379,2.062542966,0.270825159
021,80,0,1,8,24,192,1703.315091703087,1707.1591665275046,stimuli/241_yb.png,a,3.832151532988064,ambig,0.333,5.508474576,1.442852555,0.187843403
021,80,0,1,9,1,193,1715.3454194143997,1719.831088936713,stimuli/321_zb.png,a,4.474021923029795,awful,0.333,2.918032787,2.177881861,0.278849198
021,80,0,1,9,2,194,1720.4298115368583,1726.6391465516645,stimuli/335_yb.png,l,6.197452289517969,ambig,0.333,5.016949153,2.046793332,0.266469795
021,80,0,1,9,3,195,1727.2593298160355,1735.5110899134888,stimuli/336_ya.png,l,8.239957716723438,ambig,0.333,5.033898305,1.884291705,0.245313885
021,80,0,1,9,4,196,1736.0919543579803,1740.1190647420008,stimuli/157_xc.png,l,4.015383227844723,harmless,0.333,6.603448276,0.877389573,0.115206895
021,80,0,1,9,5,197,1740.6852434598259,1752.5831073970767,stimuli/188_xa.png,l,11.886191131838132,harmless,0.333,6.655172414,0.806807095,0.105938962
021,80,0,1,9,6,198,1753.2413381466758,1757.9430975351715,stimuli/302_za.png,a,4.689483604975976,awful,0.333,3.137931034,2.188071937,0.287307921
021,80,0,1,9,7,199,1758.5803221187089,1768.1431090354454,stimuli/209_ya.png,l,9.550838025345001,ambig,0.333,5.603448276,1.825161903,0.239655499
021,80,0,1,9,8,200,1768.726590980019,1775.11910176347,stimuli/250_yb.png,l,6.380836008815095,ambig,0.333,5.950819672,1.585625318,0.203018519
021,80,0,1,9,9,201,1775.756570531521,1786.8150487738894,stimuli/225_ya.png,l,11.046820403134916,ambig,0.333,5.85,1.792876677,0.231459384
021,80,0,1,9,10,202,1787.3794508527499,1790.9511107243015,stimuli/295_za.png,a,3.560251730552409,awful,0.333,2.3,1.825432384,0.235662307
021,80,0,1,9,11,203,1791.5455226807971,1800.9510713396594,stimuli/204_xb.png,l,9.393831742694601,harmless,0.333,6.508474576,0.858484658,0.111765183
021,80,0,1,9,12,204,1801.5256027418072,1807.2870353012113,stimuli/134_xc.png,l,5.749702252505813,harmless,0.333,6.516666667,0.965360505,0.124627505
021,80,0,1,9,13,205,1807.921311160375,1812.463004871097,stimuli/361_za.png,a,4.530397422029637,awful,0.333,2.416666667,1.907093508,0.246204713
021,80,0,1,9,14,206,1813.0999695163337,1818.6310463225818,stimuli/217_yb.png,a,5.519528849981725,ambig,0.333,5.169491525,2.001314588,0.260548967
021,80,0,1,9,15,207,1819.2758075416787,1821.3993759117438,stimuli/356_za.png,a,2.1118782354169525,awful,0.333,3.033333333,2.178217796,0.281206708
021,80,0,1,9,16,208,1821.97967518738,1826.1990327931708,stimuli/262_ya.png,a,4.207270868297201,ambig,0.333,5.491525424,1.7750462,0.231091332
021,80,0,1,9,17,209,1826.7864323231042,1832.4310580592137,stimuli/115_xb.png,l,5.6329375706845894,harmless,0.333,6.440677966,1.021681954,0.133011661
021,80,0,1,9,18,210,1833.0655769212754,1837.1430507462937,stimuli/259_xc.png,l,4.065602915128693,harmless,0.333,6.568965517,0.993170874,0.130409725
021,80,0,1,9,19,211,1837.7469748695148,1844.1190387481474,stimuli/324_za.png,a,6.360132316476665,awful,0.333,2.491525424,1.994586478,0.259673041
021,80,0,1,9,20,212,1844.6895903372206,1846.5429989161203,stimuli/349_za.png,a,1.8416420381399803,awful,0.333,3.288135593,2.101320172,0.273568585
021,80,0,1,9,21,213,1847.1133224684745,1850.3509868203546,stimuli/296_yb.png,a,3.2260616510757245,ambig,0.333,4.229508197,2.052587332,0.262806878
021,80,0,1,9,22,214,1850.952674686443,1856.4150269548409,stimuli/144_xa.png,a,5.450367143203039,harmless,0.333,6.542372881,1.00553698,0.130909764
021,80,0,1,9,23,215,1857.040941858897,1861.7430096287862,stimuli/114_xc.png,l,4.690001906245016,harmless,0.333,6.644067797,0.97843492,0.127381377
021,80,0,1,9,24,216,1862.3411733615212,1864.822985950741,stimuli/365_zb.png,a,2.469660473288968,awful,0.333,2.966101695,2.165291266,0.281896912
021,80,0,1,10,1,217,1874.986887293926,1884.807007621741,stimuli/127_xb.png,l,9.808330550149549,harmless,0.333,6.423728814,1.162686987,0.151368953
021,80,0,1,10,2,218,1885.4474243264413,1892.1989973470918,stimuli/247_ya.png,l,6.739592227735557,ambig,0.333,4.65,2.081598147,0.268733165
021,80,0,1,10,3,219,1892.871279731451,1900.4070007688133,stimuli/286_ya.png,a,7.524139998073224,ambig,0.333,5.06779661,1.779814082,0.231712057
021,80,0,1,10,4,220,1901.0134057274554,1907.9429801690858,stimuli/242_xb.png,l,6.917656270205043,harmless,0.333,6.576271186,0.913564256,0.118935936
021,80,0,1,10,5,221,1908.5572395969648,1914.3189844762092,stimuli/237_ya.png,a,5.749873181630392,ambig,0.333,4.305084746,2.019339575,0.26289562
021,80,0,1,10,6,222,1914.8892666746397,1922.366961210908,stimuli/355_zb.png,a,7.465865374018904,awful,0.333,3.183333333,2.070713188,0.267327923
021,80,0,1,10,7,223,1923.0091155638802,1927.4549487527693,stimuli/313_zb.png,a,4.434105245047249,awful,0.333,2.101694915,1.688652955,0.219843889
021,80,0,1,10,8,224,1928.1143019632436,1932.5589914236334,stimuli/306_zb.png,a,4.432721270539332,awful,0.333,2.352112676,1.917055413,0.101746737
021,80,0,1,10,9,225,1933.164523619751,1948.735005104274,stimuli/231_xb.png,l,15.559219460410532,harmless,0.333,6.62295082,1.05141071,0.134619347
021,80,0,1,10,10,226,1949.3033172854339,1954.8069355479092,stimuli/301_za.png,a,5.491806429461576,awful,0.333,3.610169492,2.212947396,0.288101212
021,80,0,1,10,11,227,1955.4188626202522,1959.7190051137004,stimuli/331_za.png,a,4.288369651185349,awful,0.333,1.983606557,1.638004917,0.209725039
021,80,0,1,10,12,228,1960.293343531317,1970.0149661450414,stimuli/233_yb.png,l,9.7099903744529,ambig,0.333,5.318309859,1.922973646,0.102060844
021,80,0,1,10,13,229,1970.6649064379744,1980.0469484030618,stimuli/140_xb.png,a,9.370430993498303,harmless,0.333,6.724137931,0.790138861,0.103750315
021,80,0,1,10,14,230,1980.6220347340568,1983.8309719644603,stimuli/112_xc.png,l,3.197269151103683,harmless,0.333,6.706896552,0.749470472,0.098410294
021,80,0,1,10,15,231,1984.4772171950317,1988.3268995976541,stimuli/297_za.png,a,3.837836305028759,awful,0.333,1.898305085,1.446695584,0.188343723
021,80,0,1,10,16,232,1988.9283984177164,1997.9189591124887,stimuli/214_xb.png,l,8.978156517492607,harmless,0.333,6.465517241,0.940614156,0.12350869
021,80,0,1,10,17,233,1998.5082282290095,2001.9669074903359,stimuli/143_xb.png,l,3.447052142058965,harmless,0.333,6.655172414,0.738697862,0.096995781
021,80,0,1,10,18,234,2002.5672440710478,2008.1029497483978,stimuli/283_yb.png,a,5.523868244315963,ambig,0.333,5.949152542,1.478859402,0.192531095
021,80,0,1,10,19,235,2008.6941743099014,2014.2149603160797,stimuli/210_yb.png,l,5.509163219190668,ambig,0.333,5.557377049,1.76564049,0.226067099
021,80,0,1,10,20,236,2014.8328332803212,2019.1109050422092,stimuli/345_zb.png,a,4.266489147208631,awful,0.333,3.694915254,2.191317013,0.285285176
021,80,0,1,10,21,237,2019.743301074719,2024.894949477457,stimuli/273_ya.png,a,5.140027584973723,ambig,0.333,5.551724138,1.836973233,0.241206403
021,80,0,1,10,22,238,2025.4598541037412,2035.318885620858,stimuli/196_xb.png,a,9.847063721099403,harmless,0.333,6.594366197,0.982313556,0.05213579
021,80,0,1,10,23,239,2035.9098707240191,2043.302951796446,stimuli/276_ya.png,a,7.381500426970888,ambig,0.333,5.186440678,1.804922162,0.234980851
021,80,0,1,10,24,240,2043.9522205821122,2050.1989382701577,stimuli/268_zb.png,a,6.235059061087668,awful,0.333,2.655737705,2.048456703,0.262278005
