id,age,condition,counterbalance,block,trialinblock,trial,tstart,tend,trialstim,response,RT,trialtype,ethicfreq,norm_mean,norm_sd,norm_se
026,70,1,2,0,0,practice,3.938446752727032e-06,41.44826243049465,stimuli/prac_217_1.png,a,41.43436439568177,harmless,NA,NA,NA,NA
026,70,1,2,1,1,1,4.693010495277122,11.976220370968804,stimuli/290_zb.png,a,7.2716973655624315,awful,0.333,2.586206897,2.026443456,0.266085062
026,70,1,2,1,2,2,12.569593361928128,18.952244606683962,stimuli/153_xb.png,l,6.371121799224056,harmless,0.333,6.633333333,0.973664521,0.125699549
026,70,1,2,1,3,3,19.61974609538447,25.632212106487714,stimuli/203_yb.png,a,6.000971224042587,ambig,0.333,6,1.542501327,0.200816568
026,70,1,2,1,4,4,26.24281270580832,32.2722826206591,stimuli/271_ya.png,a,6.01792314008344,ambig,0.333,5.711864407,1.771915459,0.230683744
026,70,1,2,1,5,5,32.87127500528004,39.39224021136761,stimuli/367_zb.png,a,6.5098426033509895,awful,0.333,3.413793103,2.086165649,0.27392697
026,70,1,2,1,6,6,40.01600274746306,43.7361984574236,stimuli/231_xb.png,a,3.708958498085849,harmless,0.333,6.62295082,1.05141071,0.134619347
026,70,1,2,1,7,7,44.35090490046423,53.600278685451485,stimuli/221_xb.png,a,9.237744302721694,harmless,0.333,6.440677966,1.133672495,0.147591588
026,70,1,2,1,8,8,54.19815924298018,60.80825099325739,stimuli/259_xc.png,l,6.598559941747226,harmless,0.333,6.568965517,0.993170874,0.130409725
026,70,1,2,1,9,9,61.43595356401056,67.49623640836217,stimuli/101_xa.png,l,6.048687232774682,harmless,0.333,6.508522727,1.13475832,0.060482822
026,70,1,2,1,10,10,68.10067843901925,72.74424984958023,stimuli/288_yb.png,a,4.631184168625623,ambig,0.333,5.189655172,1.914459262,0.251380817
026,70,1,2,1,11,11,73.30944749724586,84.72022800531704,stimuli/218_yb.png,l,11.399121881113388,ambig,0.333,5.850282486,1.552723069,0.0825263
026,70,1,2,1,12,12,85.2905873976415,90.92820779629983,stimuli/269_za.png,a,5.625855039455928,awful,0.333,3.457627119,2.119873401,0.27598401
026,70,1,2,1,13,13,91.54421038622968,97.3682904408779,stimuli/292_zb.png,a,5.812513587647118,awful,0.333,2.396551724,1.955107169,0.256718148
026,70,1,2,1,14,14,98.01289609086234,103.77618720917962,stimuli/115_xb.png,l,5.752372134011239,harmless,0.333,6.440677966,1.021681954,0.133011661
026,70,1,2,1,15,15,104.41960620135069,110.84816412662622,stimuli/309_ya.png,l,6.416676381486468,ambig,0.333,4.706896552,1.946734744,0.255618795
026,70,1,2,1,16,16,111.43238335079513,116.59219145320822,stimuli/216_xa.png,l,5.147494903532788,harmless,0.333,6.603448276,0.877389573,0.115206895
026,70,1,2,1,17,17,117.14704434387386,120.0002623014152,stimuli/365_zb.png,a,2.8414399952162057,awful,0.333,2.966101695,2.165291266,0.281896912
026,70,1,2,1,18,18,120.595252029947,125.66421326913405,stimuli/341_zb.png,a,5.0568910433212295,awful,0.333,3.603448276,2.15975677,0.283589957
026,70,1,2,1,19,19,126.23118282959331,129.36821009637788,stimuli/330_ya.png,a,3.125315076787956,ambig,0.333,4.796610169,2.049219036,0.266785595
026,70,1,2,1,20,20,130.0037045147037,136.06421342666727,stimuli/358_za.png,a,6.048912512604147,awful,0.333,3.949152542,2.112554662,0.275031191
026,70,1,2,1,21,21,136.6709822990233,142.48023326706607,stimuli/369_za.png,a,5.797660082578659,awful,0.333,2.948275862,2.055565093,0.26990892
026,70,1,2,1,22,22,143.0514413972851,148.69612266565673,stimuli/139_xa.png,l,5.632730801589787,harmless,0.333,6.724137931,0.790138861,0.103750315
026,70,1,2,1,23,23,149.30567878554575,157.4641769565642,stimuli/224_yb.png,l,8.147358239046298,ambig,0.333,5.881355932,1.609077116,0.209483997
026,70,1,2,1,24,24,158.09619253396522,170.82417260855436,stimuli/276_ya.png,a,12.716555785969831,ambig,0.333,5.186440678,1.804922162,0.234980851
026,70,1,2,2,1,25,185.8506225128658,194.20011153724045,stimuli/166_xa.png,a,8.33795052045025,harmless,0.333,6.593220339,1.052397002,0.13701042
026,70,1,2,2,2,26,194.8167631851975,200.47215076105203,stimuli/347_zb.png,l,5.64415548404213,awful,0.333,3.796610169,2.147810923,0.279621165
026,70,1,2,2,3,27,201.07977703597862,213.5681747290073,stimuli/237_ya.png,a,12.477082893601619,ambig,0.333,4.305084746,2.019339575,0.26289562
026,70,1,2,2,4,28,214.18429153424222,219.264110317803,stimuli/334_za.png,a,5.068354322691448,awful,0.333,3.333333333,2.214487481,0.285889104
026,70,1,2,2,5,29,219.8302602849435,225.67209018755239,stimuli/169_xc.png,l,5.830143706407398,harmless,0.333,6.603448276,0.916508538,0.120343467
026,70,1,2,2,6,30,226.29797319020145,232.7361106297467,stimuli/338_zb.png,a,6.426528831128962,awful,0.333,3.310344828,2.137443107,0.28066003
026,70,1,2,2,7,31,233.34395233832765,243.26412764703855,stimuli/257_yb.png,a,9.908591512474231,ambig,0.333,5.620689655,1.843219782,0.242026615
026,70,1,2,2,8,32,243.82244913873728,251.51220252818894,stimuli/287_ya.png,a,7.678006934816949,ambig,0.333,5.950819672,1.407435369,0.180203633
026,70,1,2,2,9,33,252.0835398399504,257.6321061620256,stimuli/366_za.png,a,5.5370557812275365,awful,0.333,3.689655172,2.036568291,0.267414518
026,70,1,2,2,10,34,258.25792378606275,260.2561250918079,stimuli/302_za.png,a,1.986938493908383,awful,0.333,3.137931034,2.188071937,0.287307921
026,70,1,2,2,11,35,260.8360675430158,270.00812031526584,stimuli/241_yb.png,l,9.16052135755308,ambig,0.333,5.508474576,1.442852555,0.187843403
026,70,1,2,2,12,36,270.5688226055354,285.3120709048817,stimuli/300_za.png,a,14.731450250954367,awful,0.333,3.75,2.12032137,0.273732312
026,70,1,2,2,13,37,285.946612610016,296.15213322709315,stimuli/353_zb.png,a,10.193167639779858,awful,0.333,1.949152542,1.623361018,0.211343603
026,70,1,2,2,14,38,296.71692285034806,307.04808898083866,stimuli/188_xa.png,l,10.319678432657383,harmless,0.333,6.655172414,0.806807095,0.105938962
026,70,1,2,2,15,39,307.6317615468288,314.0640551006654,stimuli/255_xb.png,l,6.420792465331033,harmless,0.333,6.770491803,0.642740036,0.082294429
026,70,1,2,2,16,40,314.66566144058015,323.7201106392313,stimuli/284_ya.png,l,9.042833500890993,ambig,0.333,5.948275862,1.431750417,0.18799804
026,70,1,2,2,17,41,324.3293646792881,330.8400741375517,stimuli/182_xb.png,l,6.499149292823859,harmless,0.333,6.542372881,0.988241802,0.128658124
026,70,1,2,2,18,42,331.4150643701432,336.21606466011144,stimuli/117_xc.png,l,4.789272739901207,harmless,0.333,6.627118644,0.868972939,0.113130641
026,70,1,2,2,19,43,336.7929945838405,341.968093360425,stimuli/340_za.png,a,5.163679214078002,awful,0.333,2.508474576,1.832398855,0.238558011
026,70,1,2,2,20,44,342.5629732059315,351.56812195363455,stimuli/246_ya.png,l,8.993531080777757,ambig,0.333,5.542372881,1.715266481,0.223308675
026,70,1,2,2,21,45,352.1702296594158,361.160067253164,stimuli/279_ya.png,a,8.977982831536792,ambig,0.333,5.31147541,1.970964092,0.252356093
026,70,1,2,2,22,46,361.73430957237724,371.8240241286112,stimuli/223_yb.png,l,10.078033086261712,ambig,0.333,5.542372881,1.77455224,0.231027024
026,70,1,2,2,23,47,372.4566029056441,377.8800483170198,stimuli/180_xc.png,a,5.411640273756348,harmless,0.333,6.672131148,0.723908638,0.092687003
026,70,1,2,2,24,48,378.50996115105227,384.4320347971516,stimuli/138_xc.png,l,5.91041974525433,harmless,0.333,6.661016949,0.70978796,0.092406522
026,70,1,2,3,1,49,411.57715874828864,417.4400160846999,stimuli/319_ya.png,a,5.8513180448208,ambig,0.333,4.216666667,2.108028774,0.272145344
026,70,1,2,3,2,50,418.00307672435883,430.5360254802508,stimuli/264_xa.png,l,12.521195605862886,harmless,0.333,6.533333333,0.947193297,0.122282129
026,70,1,2,3,3,51,431.1702887363499,441.54402961093,stimuli/200_ya.png,l,10.361827823217027,ambig,0.333,5.862068966,1.444266048,0.189641423
026,70,1,2,3,4,52,442.1733292269055,446.25604080874473,stimuli/373_zb.png,a,4.071083281072788,awful,0.333,2.327586207,1.858011869,0.243968911
026,70,1,2,3,5,53,446.8525192748057,452.8319494901225,stimuli/355_zb.png,l,5.967514406889677,awful,0.333,3.183333333,2.070713188,0.267327923
026,70,1,2,3,6,54,453.4172655750299,460.47200621967204,stimuli/335_yb.png,l,7.043501463602297,ambig,0.333,5.016949153,2.046793332,0.266469795
026,70,1,2,3,7,55,461.09126355231274,463.74404111120384,stimuli/295_za.png,a,2.640413553919643,awful,0.333,2.3,1.825432384,0.235662307
026,70,1,2,3,8,56,464.3157730565872,475.75995957572013,stimuli/238_xb.png,l,11.432495202985592,harmless,0.333,6.4,1.076718178,0.139003719
026,70,1,2,3,9,57,476.3488498124061,482.519945145119,stimuli/227_xa.png,l,6.159427647362463,harmless,0.333,6.180327869,1.05685377,0.135316259
026,70,1,2,3,10,58,483.08355283678975,487.8159877025755,stimuli/233_yb.png,a,4.720658085076138,ambig,0.333,5.318309859,1.922973646,0.102060844
026,70,1,2,3,11,59,488.4304633518914,492.21591145405546,stimuli/103_xb.png,l,3.773867850541137,harmless,0.333,6.779661017,0.589207434,0.076708274
026,70,1,2,3,12,60,492.77698080870323,502.3439873906318,stimuli/256_zb.png,a,9.555169936618768,awful,0.333,3.051724138,2.012438634,0.264246138
026,70,1,2,3,13,61,502.91428534302395,513.3999816467986,stimuli/235_ya.png,l,10.473863597027957,ambig,0.333,5.694915254,1.567495667,0.204070554
026,70,1,2,3,14,62,513.9566340195015,519.0240557150682,stimuli/171_xa.png,l,5.0556736655998975,harmless,0.333,6.465517241,1.046556882,0.137419651
026,70,1,2,3,15,63,519.6332640689798,523.0719391083112,stimuli/208_xb.png,a,3.4270156247075647,harmless,0.333,6.216666667,1.165778516,0.150501359
026,70,1,2,3,16,64,523.6603457021993,533.5439244540175,stimuli/328_za.png,l,9.871907915570773,awful,0.333,2.706896552,1.955725922,0.256799395
026,70,1,2,3,17,65,534.1764772372553,540.7519440235337,stimuli/243_ya.png,l,6.563836122280918,ambig,0.333,5.830508475,1.652088985,0.215083666
026,70,1,2,3,18,66,541.371920912643,545.479956787196,stimuli/112_xc.png,l,4.096490675234236,harmless,0.333,6.706896552,0.749470472,0.098410294
026,70,1,2,3,19,67,546.0506501608761,555.743971400545,stimuli/219_ya.png,a,9.681822120328434,ambig,0.333,5.271186441,1.998538332,0.260187529
026,70,1,2,3,20,68,556.3358316293452,560.1519067656482,stimuli/354_zb.png,a,3.8045259985374287,awful,0.333,2,1.701925887,0.221571878
026,70,1,2,3,21,69,560.7523811925203,569.5599685553461,stimuli/251_ya.png,l,8.796001991257071,ambig,0.333,5.655172414,1.792300532,0.235340589
026,70,1,2,3,22,70,570.121056814678,575.2879230299732,stimuli/361_za.png,a,5.155258000595495,awful,0.333,2.416666667,1.907093508,0.246204713
026,70,1,2,3,23,71,575.9006429141155,580.9359082716983,stimuli/317_za.png,a,5.0237686013570055,awful,0.333,3.65,2.03215674,0.262350307
026,70,1,2,3,24,72,581.5264940151246,587.2398832798935,stimuli/278_xb.png,l,5.701848791562952,harmless,0.333,6.360655738,1.140654591,0.146045855
026,70,1,2,4,1,73,596.1597671426134,602.2159079094417,stimuli/205_yb.png,l,6.0448429028037935,ambig,0.333,5.847457627,1.52918233,0.199082582
026,70,1,2,4,2,74,602.7933636175003,608.4479205723619,stimuli/141_xc.png,l,5.642957404837944,harmless,0.333,6.508474576,1.040107444,0.135410455
026,70,1,2,4,3,75,609.0520022339188,612.7759702000767,stimuli/303_zb.png,a,3.7121726747136563,awful,0.333,3.620689655,2.158846233,0.283470398
026,70,1,2,4,4,76,613.3410871092929,627.5438779802062,stimuli/339_ya.png,l,14.19162730826065,ambig,0.333,4.949152542,1.960152429,0.25519011
026,70,1,2,4,5,77,628.1405387970153,634.8238732856698,stimuli/207_yb.png,l,6.670896834461018,ambig,0.333,5.655737705,1.662179753,0.212820309
026,70,1,2,4,6,78,635.428435833077,642.8958667445695,stimuli/147_ya.png,l,7.455448149354197,ambig,0.333,5.883333333,1.766847875,0.22809908
026,70,1,2,4,7,79,643.462485388387,660.199917764985,stimuli/137_xa.png,a,16.725538623635657,harmless,0.333,6.355932203,1.094858074,0.14253838
026,70,1,2,4,8,80,660.7703882218339,669.9038704814157,stimuli/228_ya.png,a,9.121619226643816,ambig,0.333,5.442622951,1.793735303,0.229664272
026,70,1,2,4,9,81,670.5153773201164,672.8798458802048,stimuli/349_za.png,a,2.3529150899266824,awful,0.333,3.288135593,2.101320172,0.273568585
026,70,1,2,4,10,82,673.4563961365493,679.2238364216173,stimuli/151_xa.png,l,5.755905719590373,harmless,0.333,6.610169492,0.947172729,0.123311386
026,70,1,2,4,11,83,679.7999329674058,684.9198732288787,stimuli/311_za.png,a,5.10815166530665,awful,0.333,3.116666667,1.975199339,0.254997138
026,70,1,2,4,12,84,685.4875276873354,691.7838439677143,stimuli/170_xc.png,l,6.284507204196416,harmless,0.333,6.583333333,1.062323432,0.137145365
026,70,1,2,4,13,85,692.3873261958361,695.3918546362547,stimuli/229_za.png,a,2.9930265641305596,awful,0.333,3.406779661,2.043649913,0.266060557
026,70,1,2,4,14,86,696.0068903344218,699.2158051156439,stimuli/348_za.png,a,3.1973691880702972,awful,0.333,3.084745763,2.119597681,0.275948114
026,70,1,2,4,15,87,699.7857805080712,705.487845914904,stimuli/136_xc.png,l,5.690040896995924,harmless,0.333,6.559322034,1.038420326,0.135190811
026,70,1,2,4,16,88,706.1249066585442,711.8158128350042,stimuli/248_zb.png,a,5.678266873117536,awful,0.333,3.288135593,1.991800844,0.259310383
026,70,1,2,4,17,89,712.3877676971024,720.687844024389,stimuli/134_xc.png,l,8.288551607984118,harmless,0.333,6.516666667,0.965360505,0.124627505
026,70,1,2,4,18,90,721.3174209079007,737.0477983225137,stimuli/289_yb.png,a,15.718680978403427,ambig,0.333,5.305084746,1.714584873,0.223219937
026,70,1,2,4,19,91,737.6240591021487,740.2958271236857,stimuli/308_zb.png,a,2.6601160899735987,awful,0.333,1.644067797,1.471132708,0.191525165
026,70,1,2,4,20,92,740.8928309802432,744.7837754385546,stimuli/305_zb.png,a,3.879294889746234,awful,0.333,2.75,2.12830003,0.274762352
026,70,1,2,4,21,93,745.3716227712575,752.5999234364135,stimuli/124_xa.png,a,7.21681848121807,harmless,0.333,6.344262295,1.181598436,0.151288177
026,70,1,2,4,22,94,753.1820946616353,762.3838162409374,stimuli/250_yb.png,l,9.190000330796465,ambig,0.333,5.950819672,1.585625318,0.203018519
026,70,1,2,4,23,95,763.0114305901807,768.8238055440597,stimuli/258_ya.png,l,5.8009018283337355,ambig,0.333,5.627118644,1.78014243,0.231754804
026,70,1,2,4,24,96,769.4346723832423,774.6238381545991,stimuli/106_xc.png,l,5.177620178204961,harmless,0.333,6.661016949,0.863237081,0.112383896
026,70,1,2,5,1,97,795.2801532376325,800.3917636577971,stimuli/357_za.png,a,5.099952187039889,awful,0.25,2.793103448,2.066937905,0.271402243
026,70,1,2,5,2,98,800.9695147502935,807.4477969047148,stimuli/108_xb.png,l,6.466734591987915,harmless,0.25,6.568965517,1.077880782,0.141532681
026,70,1,2,5,3,99,808.0117318823468,818.6877782521769,stimuli/122_xa.png,l,10.664694548817351,harmless,0.25,6.457627119,1.039264227,0.135300678
026,70,1,2,5,4,100,819.2640386378625,824.4638961444143,stimuli/313_zb.png,a,5.18810671963729,awful,0.25,2.101694915,1.688652955,0.219843889
026,70,1,2,5,5,101,825.0716929546325,833.7677904141601,stimuli/226_yb.png,l,8.68450539256446,ambig,0.25,5.683333333,1.712285287,0.22105508
026,70,1,2,5,6,102,834.3853711446282,839.6157422577962,stimuli/125_xc.png,l,5.2187050031498075,harmless,0.25,6.683333333,0.999858747,0.129081209
026,70,1,2,5,7,103,840.175560364034,845.3117589788744,stimuli/150_xc.png,a,5.124482880230062,harmless,0.25,6.482758621,1.030097582,0.135258439
026,70,1,2,5,8,104,845.9319091602229,849.143733675126,stimuli/321_zb.png,a,3.200244657113217,awful,0.25,2.918032787,2.177881861,0.278849198
026,70,1,2,5,9,105,849.7301639502402,855.4397411802784,stimuli/301_za.png,a,5.697537754080258,awful,0.25,3.610169492,2.212947396,0.288101212
026,70,1,2,5,10,106,856.0596416632179,864.1197417631047,stimuli/350_ya.png,a,8.048617521999404,ambig,0.25,4.915254237,2.02814792,0.264042369
026,70,1,2,5,11,107,864.7126775851939,871.263738527312,stimuli/121_xc.png,l,6.539400345995091,harmless,0.25,6.508474576,1.006408455,0.131023221
026,70,1,2,5,12,108,871.8500742793549,884.6317453990923,stimuli/239_ya.png,l,12.770228320383467,ambig,0.25,5.157894737,1.925296579,0.255011762
026,70,1,2,5,13,109,885.1902189153479,894.2397241661092,stimuli/342_yb.png,l,9.037396457977593,ambig,0.25,4.916666667,2.085394461,0.269223267
026,70,1,2,5,14,110,894.7986151590012,898.1277419553371,stimuli/297_za.png,a,3.3173224463826045,awful,0.25,1.898305085,1.446695584,0.188343723
026,70,1,2,5,15,111,898.7245217135642,913.9357400995214,stimuli/336_ya.png,a,15.199819697299972,ambig,0.25,5.033898305,1.884291705,0.245313885
026,70,1,2,5,16,112,914.5128118077992,921.719724670169,stimuli/217_yb.png,a,7.195141989272088,ambig,0.25,5.169491525,2.001314588,0.260548967
026,70,1,2,5,17,113,922.2843185520032,928.5518171263393,stimuli/270_yb.png,a,6.255524870590307,ambig,0.25,5.534482759,1.912246013,0.251090203
026,70,1,2,5,18,114,929.1230221057776,937.2157011402305,stimuli/104_xc.png,l,8.080871533718891,harmless,0.25,6.745762712,0.756425814,0.098478253
026,70,1,2,5,19,115,937.7887764939805,943.7516675436636,stimuli/164_xb.png,l,5.951072521274909,harmless,0.25,6.830508475,0.460604639,0.059965616
026,70,1,2,5,20,116,944.4178484670119,949.1197937508114,stimuli/144_xa.png,l,4.6903941767523065,harmless,0.25,6.542372881,1.00553698,0.130909764
026,70,1,2,5,21,117,949.7181099019945,955.1196791416733,stimuli/145_xa.png,l,5.389466354623437,harmless,0.25,6.661016949,0.822321556,0.107057148
026,70,1,2,5,22,118,955.7244145874865,961.9836837511975,stimuli/131_xb.png,l,6.247491595335305,harmless,0.25,6.525423729,1.119666394,0.145768149
026,70,1,2,5,23,119,962.5530510456301,966.5836516921408,stimuli/326_zb.png,a,4.0188667949987575,awful,0.25,3.389830508,2.220724867,0.289113752
026,70,1,2,5,24,120,967.1645889981883,985.4397017956944,stimuli/281_ya.png,l,18.263396275229752,ambig,0.25,5.881355932,1.543448286,0.200939852
026,70,1,2,6,1,121,996.1004259837791,1002.1276332538109,stimuli/149_xa.png,l,6.015618353849277,harmless,0.166,6.721311475,0.933294301,0.11949609
026,70,1,2,6,2,122,1002.7128792342264,1007.7676285434281,stimuli/362_zb.png,a,5.0420056367293,awful,0.166,1.474576271,1.222715071,0.159183944
026,70,1,2,6,3,123,1008.3742308189394,1014.2716548303142,stimuli/197_xa.png,l,5.885681889136322,harmless,0.166,6.779661017,0.55918033,0.072799078
026,70,1,2,6,4,124,1014.8345433593495,1019.7436267853482,stimuli/129_xa.png,l,4.89715501468163,harmless,0.166,6.770491803,0.642740036,0.082294429
026,70,1,2,6,5,125,1020.3086791038513,1025.367614601273,stimuli/304_ya.png,a,5.047146507538855,ambig,0.166,4.034482759,2.017167697,0.264867095
026,70,1,2,6,6,126,1025.956220875145,1028.5916132874554,stimuli/346_zb.png,a,2.623856665333733,awful,0.166,1.288135593,0.983499162,0.128040685
026,70,1,2,6,7,127,1029.1959123519482,1035.3517142537748,stimuli/146_xa.png,l,6.144219287089072,harmless,0.166,6.442622951,1.162247681,0.148810567
026,70,1,2,6,8,128,1035.9130762360292,1042.1116482294165,stimuli/274_xb.png,l,6.187049243366346,harmless,0.166,6.491525424,1.179901828,0.153610134
026,70,1,2,6,9,129,1042.6934677503305,1051.5996292334748,stimuli/272_xb.png,l,8.89444377925247,harmless,0.166,6.355932203,1.029943284,0.134087194
026,70,1,2,6,10,130,1052.1611597817391,1055.0796541559976,stimuli/201_yb.png,a,2.90667230123654,ambig,0.166,5.898305085,1.626238682,0.211718243
026,70,1,2,6,11,131,1055.6478355803993,1061.9436055964325,stimuli/187_xc.png,a,6.283894773805514,harmless,0.166,6.224137931,1.185335891,0.155642228
026,70,1,2,6,12,132,1062.5522850152338,1075.9836991111515,stimuli/323_yb.png,a,13.41986495803576,ambig,0.166,4.603448276,1.955107169,0.256718148
026,70,1,2,6,13,133,1076.578810931882,1086.2156022849958,stimuli/118_xb.png,l,9.624780234065838,harmless,0.166,6.474576271,0.953323265,0.124112118
026,70,1,2,6,14,134,1086.83842037851,1092.7436283606803,stimuli/254_ya.png,l,5.893706105882302,ambig,0.166,5.983606557,1.627798137,0.208418195
026,70,1,2,6,15,135,1093.3517410353525,1099.8715731466655,stimuli/343_zb.png,a,6.508549213409424,awful,0.166,3.103448276,2.141401862,0.28117984
026,70,1,2,6,16,136,1100.439469032688,1103.2156152818352,stimuli/318_za.png,a,2.7646101082209498,awful,0.166,3.06557377,2.197489875,0.281359747
026,70,1,2,6,17,137,1103.8190644269343,1110.5756105399923,stimuli/232_yb.png,l,6.744837467675097,ambig,0.166,5.483333333,1.845669845,0.238274952
026,70,1,2,6,18,138,1111.1874218216399,1116.3356169832405,stimuli/156_xc.png,l,5.136601519305259,harmless,0.166,6.590163934,0.955284411,0.122311635
026,70,1,2,6,19,139,1116.9070882026572,1122.727564567118,stimuli/184_xb.png,l,5.808683829964139,harmless,0.166,6.508474576,1.194425,0.15550089
026,70,1,2,6,20,140,1123.3482216281118,1130.0155462800758,stimuli/253_ya.png,l,6.6554718589177355,ambig,0.166,5.491803279,1.849531029,0.236808182
026,70,1,2,6,21,141,1130.587185671553,1135.463592883083,stimuli/285_yb.png,a,4.864818689064123,ambig,0.166,4.120689655,2.119893958,0.278355714
026,70,1,2,6,22,142,1136.042888639262,1142.8875644726213,stimuli/325_yb.png,a,6.8331692308420315,ambig,0.166,5.131147541,1.811770863,0.231973488
026,70,1,2,6,23,143,1143.4581975877518,1154.2555540151661,stimuli/135_xa.png,l,10.785707252682187,harmless,0.166,6.508474576,1.179901828,0.153610134
026,70,1,2,6,24,144,1154.8250697895419,1161.183584974613,stimuli/116_xa.png,l,6.346924693440087,harmless,0.166,6.63559322,0.958030802,0.050918763
026,70,1,2,7,1,145,1335.1430511401268,1341.9114453200018,stimuli/173_yb.png,l,6.757138063432649,ambig,0.083,5.796610169,1.242628763,0.161776485
026,70,1,2,7,2,146,1342.4796168982284,1345.4394954204326,stimuli/312_yb.png,a,2.9481954767834395,ambig,0.083,4.677966102,2.112692986,0.275049199
026,70,1,2,7,3,147,1346.001382793067,1354.9034593063407,stimuli/162_xa.png,l,8.89057266782038,harmless,0.083,6.644067797,0.905209289,0.117848212
026,70,1,2,7,4,148,1355.4860732144443,1360.7194741842104,stimuli/133_xa.png,l,5.22191090893466,harmless,0.083,6.568965517,1.186356193,0.1557762
026,70,1,2,7,5,149,1361.2831933342386,1366.8074510922888,stimuli/111_xa.png,l,5.512450257316232,harmless,0.083,6.590163934,0.863655973,0.110579816
026,70,1,2,7,6,150,1367.4078912544064,1377.0794576269109,stimuli/329_zb.png,a,9.660119634587318,awful,0.083,2.406779661,1.992387617,0.259386774
026,70,1,2,7,7,151,1377.6985877472907,1385.2714228550903,stimuli/234_xb.png,l,7.561224923818372,harmless,0.083,6.637931034,0.788030542,0.103473479
026,70,1,2,7,8,152,1385.882242826512,1391.9514734563418,stimuli/240_xa.png,l,6.058295497787185,harmless,0.083,6.482758621,1.096107616,0.143925981
026,70,1,2,7,9,153,1392.5366851722356,1403.0794509315165,stimuli/307_za.png,a,10.531267427606508,awful,0.083,2.93220339,2.172432347,0.282826601
026,70,1,2,7,10,154,1403.655799932545,1411.5674142125063,stimuli/165_xb.png,l,7.9000107913743705,harmless,0.083,6.557377049,1.008705278,0.129151477
026,70,1,2,7,11,155,1412.131086888723,1415.0633879256202,stimuli/230_yb.png,a,2.9205628531053662,ambig,0.083,4.98245614,1.875511626,0.248417583
026,70,1,2,7,12,156,1415.6349843880162,1421.0713928439654,stimuli/119_xc.png,l,5.42485616740305,harmless,0.083,6.694915254,0.914523379,0.119060803
026,70,1,2,7,13,157,1421.6439432011684,1435.2074618836632,stimuli/168_xa.png,l,13.551717089489102,harmless,0.083,6.474576271,1.164946827,0.151663159
026,70,1,2,7,14,158,1435.8098370108055,1441.2394252370577,stimuli/105_xa.png,l,5.418065082281828,harmless,0.083,6.557377049,1.088187946,0.139328189
026,70,1,2,7,15,159,1441.849002624629,1446.3193960451754,stimuli/220_yb.png,a,4.458787175128236,ambig,0.083,4.75,2.096203186,0.270618668
026,70,1,2,7,16,160,1446.8938849119004,1456.8474851362407,stimuli/209_ya.png,l,9.941622975980863,ambig,0.083,5.603448276,1.825161903,0.239655499
026,70,1,2,7,17,161,1457.4152565670665,1465.6714675171534,stimuli/262_ya.png,a,8.244380212505348,ambig,0.083,5.491525424,1.7750462,0.231091332
026,70,1,2,7,18,162,1466.2818617412122,1481.7353619287023,stimuli/191_ya.png,l,15.441840379033238,ambig,0.083,5.517241379,2.062542966,0.270825159
026,70,1,2,7,19,163,1482.3015981479548,1486.9353671274148,stimuli/148_xc.png,l,4.622026069439016,harmless,0.083,6.491525424,1.135218061,0.147792803
026,70,1,2,7,20,164,1487.5956305158325,1497.199345506844,stimuli/140_xb.png,l,9.592137890169397,harmless,0.083,6.724137931,0.790138861,0.103750315
026,70,1,2,7,21,165,1497.7603620862355,1509.3753741536057,stimuli/275_yb.png,l,11.603165969834663,ambig,0.083,4.836065574,2.138382004,0.27379176
026,70,1,2,7,22,166,1510.0532814455219,1516.743323524017,stimuli/176_xb.png,l,6.678197162458673,harmless,0.083,6.796610169,0.517942249,0.067430337
026,70,1,2,7,23,167,1517.3221734466497,1522.55935061106,stimuli/154_xc.png,l,5.225253479206003,harmless,0.083,6.5,0.965506805,0.124646393
026,70,1,2,7,24,168,1523.1582724972395,1528.3353058450157,stimuli/158_xa.png,l,5.165904443478212,harmless,0.083,6.786885246,0.661179605,0.084655374
026,70,1,2,8,1,169,1539.1103993440047,1554.0873526622308,stimuli/155_xb.png,l,14.965387638891116,harmless,0.0412,6.655737705,0.892286312,0.114245555
026,70,1,2,8,2,170,1554.6652120624203,1560.5673362310044,stimuli/242_xb.png,l,5.890410009305924,harmless,0.0412,6.576271186,0.913564256,0.118935936
026,70,1,2,8,3,171,1561.175229139626,1565.2233106372878,stimuli/113_xb.png,l,4.036628852132708,harmless,0.0412,6.733333333,0.660422737,0.085260209
026,70,1,2,8,4,172,1565.7855658620829,1570.7113428412704,stimuli/160_xb.png,l,4.913904100074433,harmless,0.0412,6.666666667,0.680644427,0.087870818
026,70,1,2,8,5,173,1571.3075255290605,1586.2473521739012,stimuli/127_xb.png,l,14.927913593361154,harmless,0.0412,6.423728814,1.162686987,0.151368953
026,70,1,2,8,6,174,1586.8124517538818,1592.511323857936,stimuli/128_xc.png,l,5.687179212458432,harmless,0.0412,6.627118644,0.98082135,0.127692063
026,70,1,2,8,7,175,1593.1151447935263,1600.3112859699177,stimuli/267_ya.png,l,7.1849153861403465,ambig,0.0412,5.103448276,1.898195405,0.249245267
026,70,1,2,8,8,176,1600.8952224126551,1609.4232989007141,stimuli/210_yb.png,l,8.516393442638218,ambig,0.0412,5.557377049,1.76564049,0.226067099
026,70,1,2,8,9,177,1610.0151232895441,1616.8314426103607,stimuli/280_xb.png,l,6.804582318523899,harmless,0.0412,6.333333333,1.068289726,0.137915611
026,70,1,2,8,10,178,1617.4445799712557,1624.5593553372892,stimuli/206_xa.png,l,7.103205748251639,harmless,0.0412,6.325842697,1.136094431,0.060212884
026,70,1,2,8,11,179,1625.1543797241757,1632.3516480876133,stimuli/109_xb.png,a,7.184720826218836,harmless,0.0412,6.644067797,0.97843492,0.127381377
026,70,1,2,8,12,180,1632.9509094690438,1638.9912680421257,stimuli/185_xa.png,l,6.028458912391216,harmless,0.0412,6.5,0.965506805,0.124646393
026,70,1,2,8,13,181,1639.5619106095983,1643.5272931285435,stimuli/178_xa.png,l,3.953698292025365,harmless,0.0412,6.483333333,1.112207557,0.143585378
026,70,1,2,8,14,182,1644.0987738001859,1649.7032764829928,stimuli/159_xa.png,l,5.5927861605305225,harmless,0.0412,6.389830508,1.174689235,0.152931512
026,70,1,2,8,15,183,1650.3145485896384,1652.455332358717,stimuli/331_za.png,a,2.128782496205531,awful,0.0412,1.983606557,1.638004917,0.209725039
026,70,1,2,8,16,184,1653.0261797261192,1661.8392671472393,stimuli/273_ya.png,a,8.801402012701146,ambig,0.0412,5.551724138,1.836973233,0.241206403
026,70,1,2,8,17,185,1662.4047869609203,1664.9993489726912,stimuli/202_yb.png,a,2.582675348035991,ambig,0.0412,5.431034483,1.892849601,0.248543329
026,70,1,2,8,18,186,1665.5654847613769,1670.6712804404087,stimuli/194_xb.png,l,5.094064190634526,harmless,0.0412,6.586206897,1.026567825,0.134794959
026,70,1,2,8,19,187,1671.2323950873688,1677.9032734109787,stimuli/172_xb.png,l,6.65930634282995,harmless,0.0412,6.482758621,1.127664553,0.14806961
026,70,1,2,8,20,188,1678.4717108352343,1687.2472458354896,stimuli/283_yb.png,l,8.763727105688304,ambig,0.0412,5.949152542,1.478859402,0.192531095
026,70,1,2,8,21,189,1687.8119003695901,1698.9272302706959,stimuli/222_ya.png,l,11.103450720431283,ambig,0.0412,5.931034483,1.543089507,0.202617579
026,70,1,2,8,22,190,1699.581513896468,1703.7752589143347,stimuli/190_xc.png,l,4.181653160369024,harmless,0.0412,6.517241379,1.046990328,0.137476565
026,70,1,2,8,23,191,1704.3554451562231,1708.7592187514529,stimuli/261_yb.png,a,4.391916076070629,ambig,0.0412,5.706896552,1.901141123,0.249632059
026,70,1,2,8,24,192,1709.367870601127,1719.9752148824045,stimuli/265_yb.png,a,10.595823500305414,ambig,0.0412,5.627118644,1.856008928,0.241631781
026,70,1,2,9,1,193,1730.3117093542824,1736.9112692709314,stimuli/126_xa.png,l,6.588088366435841,harmless,0.0412,6.6,0.977717855,0.126222832
026,70,1,2,9,2,194,1737.5176852572476,1739.9832020776812,stimuli/199_za.png,a,2.45400076569058,awful,0.0412,3.033898305,2.189048775,0.284989876
026,70,1,2,9,3,195,1740.565243727644,1747.639249345404,stimuli/245_yb.png,a,7.0624856245703995,ambig,0.0412,4.949152542,2.096168334,0.272897873
026,70,1,2,9,4,196,1748.1955693122,1755.535275597591,stimuli/263_ya.png,a,7.327990944613703,ambig,0.0412,4.983050847,2.071910042,0.269739712
026,70,1,2,9,5,197,1756.166678350768,1763.4791958769783,stimuli/260_ya.png,a,7.300649373210035,ambig,0.0412,4.966101695,2.016877936,0.262575142
026,70,1,2,9,6,198,1764.0825040250784,1769.543180872919,stimuli/174_xc.png,l,5.449014282319695,harmless,0.0412,6.533333333,1.111826512,0.143536185
026,70,1,2,9,7,199,1770.1843246172648,1780.271213722881,stimuli/167_xb.png,l,10.075105235679075,harmless,0.0412,6.590163934,0.955284411,0.122311635
026,70,1,2,9,8,200,1780.830850659986,1785.5672050802968,stimuli/161_xc.png,l,4.725028593209572,harmless,0.0412,6.796610169,0.609682252,0.079373868
026,70,1,2,9,9,201,1786.1804105765186,1804.767207522178,stimuli/286_ya.png,l,18.5750934202224,ambig,0.0412,5.06779661,1.779814082,0.231712057
026,70,1,2,9,10,202,1805.4234733744524,1809.5351913146442,stimuli/114_xc.png,l,4.099905713344924,harmless,0.0412,6.644067797,0.97843492,0.127381377
026,70,1,2,9,11,203,1810.0971235857578,1817.1991596115986,stimuli/157_xc.png,a,7.090204894426279,harmless,0.0412,6.603448276,0.877389573,0.115206895
026,70,1,2,9,12,204,1817.8009939884068,1823.1511576707708,stimuli/177_xb.png,l,5.33864053839352,harmless,0.0412,6.482758621,1.063614811,0.139659467
026,70,1,2,9,13,205,1823.7476637060754,1828.4392276051221,stimuli/107_xa.png,l,4.679898576810956,harmless,0.0412,6.813559322,0.540580029,0.070377525
026,70,1,2,9,14,206,1829.0123210757738,1833.6072387305321,stimuli/102_xc.png,l,4.583210584707558,harmless,0.0412,6.66011236,0.937292468,0.049676401
026,70,1,2,9,15,207,1834.3071627970785,1838.031268215389,stimuli/179_xb.png,l,3.7125098067335784,harmless,0.0412,6.704918033,0.882123617,0.112944356
026,70,1,2,9,16,208,1838.6527724389452,1843.2552566615632,stimuli/277_yb.png,a,4.590974469319917,ambig,0.0412,5.491525424,2.02886822,0.264136144
026,70,1,2,9,17,209,1843.8252915247576,1850.279246604303,stimuli/189_yb.png,l,6.442202323349193,ambig,0.0412,5.983333333,1.455459234,0.187898979
026,70,1,2,9,18,210,1850.903891749098,1858.951138293487,stimuli/213_ya.png,a,8.035705283517018,ambig,0.0412,5.98245614,1.597891781,0.211645937
026,70,1,2,9,19,211,1859.5593718787422,1865.6472152729984,stimuli/196_xb.png,l,6.07573578285519,harmless,0.0412,6.594366197,0.982313556,0.05213579
026,70,1,2,9,20,212,1866.2536131425295,1877.5591631404823,stimuli/123_xc.png,l,11.293766128015704,harmless,0.0412,6.491525424,1.023396666,0.133234897
026,70,1,2,9,21,213,1878.1412961627357,1884.7511677531293,stimuli/120_xa.png,l,6.598119621980004,harmless,0.0412,6.440677966,1.054893138,0.137335389
026,70,1,2,9,22,214,1885.4273279445479,1891.127108257264,stimuli/143_xb.png,l,5.687795581412502,harmless,0.0412,6.655172414,0.738697862,0.096995781
026,70,1,2,9,23,215,1891.7085815875325,1896.5831727754558,stimuli/225_ya.png,a,4.863104671589099,ambig,0.0412,5.85,1.792876677,0.231459384
026,70,1,2,9,24,216,1897.1473881714046,1905.0150941449683,stimuli/204_xb.png,l,7.855859088245779,harmless,0.0412,6.508474576,0.858484658,0.111765183
026,70,1,2,10,1,217,1940.6489674935583,1945.8630751331802,stimuli/186_xa.png,l,5.202545111067593,harmless,0.0412,6.65,0.879618561,0.113558268
026,70,1,2,10,2,218,1946.4967633741908,1951.3911366551183,stimuli/236_yb.png,a,4.882400364847854,ambig,0.0412,5.93442623,1.49297078,0.19115532
026,70,1,2,10,3,219,1951.9918848047964,1957.2310611312278,stimuli/132_xc.png,l,5.227770154713653,harmless,0.0412,6.627118644,0.692280217,0.090127208
026,70,1,2,10,4,220,1957.8520824997686,1963.5030995673733,stimuli/215_yb.png,a,5.639466748340055,ambig,0.0412,5.866666667,1.466769385,0.189359113
026,70,1,2,10,5,221,1964.112238604459,1972.3750689231092,stimuli/315_yb.png,l,8.25100391334854,ambig,0.0412,5.050847458,1.915667965,0.249398726
026,70,1,2,10,6,222,1972.9891566340812,1982.5430560237728,stimuli/282_xc.png,l,9.542171839624643,harmless,0.0412,6.55,0.998728005,0.128935231
026,70,1,2,10,7,223,1983.1196212462382,1989.407077568816,stimuli/247_ya.png,a,6.275948144728318,ambig,0.0412,4.65,2.081598147,0.268733165
026,70,1,2,10,8,224,1989.9870629492216,1998.7110734507442,stimuli/193_xc.png,l,8.712469634483568,harmless,0.0412,6.482758621,1.012923151,0.133003326
026,70,1,2,10,9,225,1999.2747252531117,2005.9590605042176,stimuli/198_yb.png,a,6.672255209065042,ambig,0.0412,5.101694915,1.83542643,0.238952168
026,70,1,2,10,10,226,2006.6463720488828,2017.4710156971123,stimuli/142_xa.png,l,10.813297340995632,harmless,0.0412,6.4,1.076718178,0.139003719
026,70,1,2,10,11,227,2018.043827174115,2026.0310728678014,stimuli/110_xa.png,l,7.975442131399177,harmless,0.0412,6.428571429,1.059281795,0.141552484
026,70,1,2,10,12,228,2026.605345119373,2037.9110577756073,stimuli/183_xb.png,l,11.293854743242264,harmless,0.0412,6.448275862,1.095003225,0.143780967
026,70,1,2,10,13,229,2038.5702971646097,2050.5270264948485,stimuli/195_xc.png,l,11.945159712457098,harmless,0.0412,6.637640449,1.001766915,0.05309354
026,70,1,2,10,14,230,2051.17609441909,2053.479026523186,stimuli/298_za.png,a,2.2912273971596733,awful,0.0412,2.881355932,2.026418156,0.263817173
026,70,1,2,10,15,231,2054.0805812693434,2060.6790612604236,stimuli/130_xc.png,l,6.5865531550953165,harmless,0.0412,6.644067797,0.960651931,0.125066229
026,70,1,2,10,16,232,2061.2879088515183,2067.8550387071446,stimuli/244_xb.png,l,6.555947782238945,harmless,0.0412,6.610169492,0.743174671,0.096753101
026,70,1,2,10,17,233,2068.44629083795,2075.7430052964482,stimuli/175_xb.png,l,7.285016840789467,harmless,0.0412,6.6,1.028409995,0.13276716
026,70,1,2,10,18,234,2076.372938216664,2084.791015508119,stimuli/214_xb.png,l,8.40644387062639,harmless,0.0412,6.465517241,0.940614156,0.12350869
026,70,1,2,10,19,235,2085.3980135987513,2091.8070245571434,stimuli/249_ya.png,a,6.396682793390937,ambig,0.0412,5.327868852,1.859402337,0.238072074
026,70,1,2,10,20,236,2092.457872271072,2101.4070496057393,stimuli/212_ya.png,a,8.937684123055078,ambig,0.0412,5.677966102,1.490668422,0.194068498
026,70,1,2,10,21,237,2101.9903204487637,2111.18297530117,stimuli/163_xa.png,l,9.181201812927611,harmless,0.0412,6.627118644,0.963082427,0.125382652
026,70,1,2,10,22,238,2111.761758269975,2117.646976996213,stimuli/296_yb.png,a,5.87365147145465,ambig,0.0412,4.229508197,2.052587332,0.262806878
026,70,1,2,10,23,239,2118.205980629078,2129.2149646483595,stimuli/181_xa.png,l,10.99744157679379,harmless,0.0412,6.666666667,0.950765377,0.122743282
026,70,1,2,10,24,240,2129.8169033942977,2135.08703285933,stimuli/152_xa.png,l,5.2580517859896645,harmless,0.0412,6.576271186,0.968528743,0.126091702
