id,age,condition,counterbalance,block,trialinblock,trial,tstart,tend,trialstim,response,RT,trialtype,ethicfreq,norm_mean,norm_sd,norm_se
037,63,0,1,0,0,practice,9.334133937954903e-05,104.49602097459137,stimuli/prac_217_1.png,l,104.47492343652993,harmless,NA,NA,NA,NA
037,63,0,1,1,1,1,5.514053997583687,25.224022710695863,stimuli/104_xc.png,l,19.69796980312094,harmless,0.333,6.745762712,0.756425814,0.098478253
037,63,0,1,1,2,2,25.856437253765762,43.96805043099448,stimuli/283_yb.png,a,18.0996634978801,ambig,0.333,5.949152542,1.478859402,0.192531095
037,63,0,1,1,3,3,44.53422363521531,60.480039888527244,stimuli/337_zb.png,a,15.933664137497544,awful,0.333,3.033333333,2.20143764,0.284204377
037,63,0,1,1,4,4,61.21132275508717,84.4879971514456,stimuli/310_zb.png,a,23.26506027393043,awful,0.333,3.224137931,2.102989547,0.276136056
037,63,0,1,1,5,5,85.14262460498139,99.18401387287304,stimuli/239_ya.png,a,14.029633360914886,ambig,0.333,5.157894737,1.925296579,0.255011762
037,63,0,1,1,6,6,99.92076765280217,117.18396976217628,stimuli/148_xc.png,l,17.251179568935186,harmless,0.333,6.491525424,1.135218061,0.147792803
037,63,0,1,1,7,7,117.76396853337064,134.87999317841604,stimuli/192_za.png,l,17.104239199776202,awful,0.333,2.68852459,2.093967396,0.268105052
037,63,0,1,1,8,8,135.51590389199555,223.51198591291904,stimuli/358_za.png,a,87.98461480299011,awful,0.333,3.949152542,2.112554662,0.275031191
037,63,0,1,1,9,9,224.1021037674509,242.87199771264568,stimuli/236_yb.png,l,18.75755002675578,ambig,0.333,5.93442623,1.49297078,0.19115532
037,63,0,1,1,10,10,243.52153903944418,258.7119710254483,stimuli/371_zb.png,l,15.178652448114008,awful,0.333,3.131147541,2.085468851,0.267016925
037,63,0,1,1,11,11,259.3939337488264,277.21584843844175,stimuli/230_yb.png,l,17.809937835205346,ambig,0.333,4.98245614,1.875511626,0.248417583
037,63,0,1,1,12,12,277.78510348685086,310.81583922263235,stimuli/279_ya.png,l,33.018821109086275,ambig,0.333,5.31147541,1.970964092,0.252356093
037,63,0,1,1,13,13,311.3934548320249,326.1519485129975,stimuli/231_xb.png,l,14.746698783244938,harmless,0.333,6.62295082,1.05141071,0.134619347
037,63,0,1,1,14,14,326.7764038243331,346.99188953079283,stimuli/328_za.png,a,20.20421659294516,awful,0.333,2.706896552,1.955725922,0.256799395
037,63,0,1,1,15,15,347.74049452878535,364.35182689363137,stimuli/144_xa.png,l,16.599340150598437,harmless,0.333,6.542372881,1.00553698,0.130909764
037,63,0,1,1,16,16,365.06190627720207,388.1198457381688,stimuli/173_yb.png,l,23.046157954260707,ambig,0.333,5.796610169,1.242628763,0.161776485
037,63,0,1,1,17,17,388.78420315496624,402.271821427159,stimuli/221_xb.png,l,13.476107730995864,harmless,0.333,6.440677966,1.133672495,0.147591588
037,63,0,1,1,18,18,402.83883115975186,417.8558988664299,stimuli/313_zb.png,a,15.005247602704912,awful,0.333,2.101694915,1.688652955,0.219843889
037,63,0,1,1,19,19,418.47296799113974,437.55981141049415,stimuli/164_xb.png,l,19.074622380547225,harmless,0.333,6.830508475,0.460604639,0.059965616
037,63,0,1,1,20,20,438.17758000595495,450.1997921280563,stimuli/109_xb.png,l,12.010409347712994,harmless,0.333,6.644067797,0.97843492,0.127381377
037,63,0,1,1,21,21,450.819858814124,479.15180160850286,stimuli/218_yb.png,l,28.320064795203507,ambig,0.333,5.850282486,1.552723069,0.0825263
037,63,0,1,1,22,22,479.7633013580926,493.79973604436964,stimuli/317_za.png,a,14.024339677765965,awful,0.333,3.65,2.03215674,0.262350307
037,63,0,1,1,23,23,494.392009023577,510.9597733654082,stimuli/207_yb.png,l,16.556024976540357,ambig,0.333,5.655737705,1.662179753,0.212820309
037,63,0,1,1,24,24,511.5440477277152,524.7277417974547,stimuli/206_xa.png,l,13.171235935762525,harmless,0.333,6.325842697,1.136094431,0.060212884
037,63,0,1,2,1,25,534.5051085753366,554.583735187538,stimuli/242_xb.png,l,20.0669876774773,harmless,0.333,6.576271186,0.913564256,0.118935936
037,63,0,1,2,2,26,555.3179565384053,566.8717082357034,stimuli/133_xa.png,l,11.542069045826793,harmless,0.333,6.568965517,1.186356193,0.1557762
037,63,0,1,2,3,27,567.655133544933,582.4476885967888,stimuli/367_zb.png,a,14.780868855305016,awful,0.333,3.413793103,2.086165649,0.27392697
037,63,0,1,2,4,28,583.3083301563747,596.5757066383958,stimuli/256_zb.png,a,13.254919923376292,awful,0.333,3.051724138,2.012438634,0.264246138
037,63,0,1,2,5,29,597.1982230460271,627.0316640306264,stimuli/271_ya.png,l,29.821729188784957,ambig,0.333,5.711864407,1.771915459,0.230683744
037,63,0,1,2,6,30,627.6090153693222,639.7196762268431,stimuli/251_ya.png,l,12.098799793981016,ambig,0.333,5.655172414,1.792300532,0.235340589
037,63,0,1,2,7,31,640.285096003674,655.2236985755153,stimuli/118_xb.png,l,14.926732843276113,harmless,0.333,6.474576271,0.953323265,0.124112118
037,63,0,1,2,8,32,655.8503125561401,670.3676488655619,stimuli/232_yb.png,a,14.504778138361871,ambig,0.333,5.483333333,1.845669845,0.238274952
037,63,0,1,2,9,33,670.9739782060497,689.071616942063,stimuli/140_xb.png,l,18.08606714894995,harmless,0.333,6.724137931,0.790138861,0.103750315
037,63,0,1,2,10,34,689.6929904087447,700.6796835367568,stimuli/105_xa.png,l,10.975316494703293,harmless,0.333,6.557377049,1.088187946,0.139328189
037,63,0,1,2,11,35,701.247193059884,710.8156285150908,stimuli/362_zb.png,a,9.55648380657658,awful,0.333,1.474576271,1.222715071,0.159183944
037,63,0,1,2,12,36,711.4106962247752,727.3839442408644,stimuli/228_ya.png,l,15.961399555206299,ambig,0.333,5.442622951,1.793735303,0.229664272
037,63,0,1,2,13,37,728.0534173222259,741.9676510714926,stimuli/359_za.png,a,13.902027676347643,awful,0.333,2.01754386,1.641985167,0.217486248
037,63,0,1,2,14,38,742.6003389437683,777.0076394290663,stimuli/185_xa.png,l,34.39568045549095,harmless,0.333,6.5,0.965506805,0.124646393
037,63,0,1,2,15,39,777.5895003038459,794.3435604614206,stimuli/245_yb.png,a,16.74231173377484,ambig,0.333,4.949152542,2.096168334,0.272897873
037,63,0,1,2,16,40,794.9135189186782,803.5916692134924,stimuli/276_ya.png,a,8.666256935801357,ambig,0.333,5.186440678,1.804922162,0.234980851
037,63,0,1,2,17,41,804.3218508865684,818.5755498874933,stimuli/274_xb.png,l,14.242034072522074,harmless,0.333,6.491525424,1.179901828,0.153610134
037,63,0,1,2,18,42,819.3607455343008,848.9515549824573,stimuli/252_zb.png,a,29.579067719634622,awful,0.333,2.711864407,1.983125776,0.258180985
037,63,0,1,2,19,43,849.8272832036018,862.1195188462734,stimuli/282_xc.png,l,12.280628215987235,harmless,0.333,6.55,0.998728005,0.128935231
037,63,0,1,2,20,44,862.8093250109814,877.8395428392105,stimuli/292_zb.png,a,15.018439078237861,awful,0.333,2.396551724,1.955107169,0.256718148
037,63,0,1,2,21,45,878.4603688600473,903.6394765945151,stimuli/265_yb.png,a,25.16765311965719,ambig,0.333,5.627118644,1.856008928,0.241631781
037,63,0,1,2,22,46,904.4502533217892,909.6154787745327,stimuli/297_za.png,a,5.153200943022966,awful,0.333,1.898305085,1.446695584,0.188343723
037,63,0,1,2,23,47,910.2319425581954,919.3835035273805,stimuli/225_ya.png,l,9.139907856006175,ambig,0.333,5.85,1.792876677,0.231459384
037,63,0,1,2,24,48,919.9973947089165,924.1277124169283,stimuli/331_za.png,a,4.119316015858203,awful,0.333,1.983606557,1.638004917,0.209725039
037,63,0,1,3,1,49,933.0190841979347,944.4236324881203,stimuli/160_xb.png,l,11.393346918281168,harmless,0.333,6.666666667,0.680644427,0.087870818
037,63,0,1,3,2,50,945.0508183329366,971.9435075288638,stimuli/233_yb.png,a,26.88097267365083,ambig,0.333,5.318309859,1.922973646,0.102060844
037,63,0,1,3,3,51,972.6731267897412,979.2794368318282,stimuli/364_za.png,a,6.594726639334112,awful,0.333,1.677966102,1.279017376,0.166513879
037,63,0,1,3,4,52,980.0807762229815,1008.0874475790188,stimuli/286_ya.png,a,27.994850070681423,ambig,0.333,5.06779661,1.779814082,0.231712057
037,63,0,1,3,5,53,1008.8582450067624,1021.4874241058715,stimuli/244_xb.png,l,12.617480299901217,harmless,0.333,6.610169492,0.743174671,0.096753101
037,63,0,1,3,6,54,1022.081293342635,1034.6714683049358,stimuli/161_xc.png,l,12.577959437388927,harmless,0.333,6.796610169,0.609682252,0.079373868
037,63,0,1,3,7,55,1035.2667794115841,1041.375400934834,stimuli/345_zb.png,a,6.0967238317243755,awful,0.333,3.694915254,2.191317013,0.285285176
037,63,0,1,3,8,56,1042.0149094308726,1056.343429310713,stimuli/319_ya.png,a,14.31685219425708,ambig,0.333,4.216666667,2.108028774,0.272145344
037,63,0,1,3,9,57,1057.0114171993919,1064.7354103717953,stimuli/302_za.png,a,7.712327850051224,awful,0.333,3.137931034,2.188071937,0.287307921
037,63,0,1,3,10,58,1065.3470235485584,1083.5115774944425,stimuli/248_zb.png,a,18.152951244730502,awful,0.333,3.288135593,1.991800844,0.259310383
037,63,0,1,3,11,59,1084.4320371598005,1113.967397434637,stimuli/296_yb.png,l,29.523325524758548,ambig,0.333,4.229508197,2.052587332,0.262806878
037,63,0,1,3,12,60,1114.542646029964,1134.4554099463858,stimuli/347_zb.png,l,19.900903640314937,awful,0.333,3.796610169,2.147810923,0.279621165
037,63,0,1,3,13,61,1135.0314804981463,1150.5513964989223,stimuli/341_zb.png,a,15.508193964604288,awful,0.333,3.603448276,2.15975677,0.283589957
037,63,0,1,3,14,62,1151.1923559233546,1181.9593732175417,stimuli/219_ya.png,l,30.755320858210325,ambig,0.333,5.271186441,1.998538332,0.260187529
037,63,0,1,3,15,63,1182.5603690966964,1195.1752941240557,stimuli/263_ya.png,l,12.602590560913086,ambig,0.333,4.983050847,2.071910042,0.269739712
037,63,0,1,3,16,64,1195.7770560332574,1205.9113342552446,stimuli/186_xa.png,l,10.1224573305808,harmless,0.333,6.65,0.879618561,0.113558268
037,63,0,1,3,17,65,1206.4891487569548,1210.1193447662517,stimuli/316_za.png,a,3.618506662081927,awful,0.333,2.344827586,1.802062407,0.236622386
037,63,0,1,3,18,66,1210.9599978574552,1232.1433079275303,stimuli/365_zb.png,a,21.1715533756651,awful,0.333,2.966101695,2.165291266,0.281896912
037,63,0,1,3,19,67,1232.7128311847337,1245.3112973915413,stimuli/119_xc.png,l,12.586648859549314,harmless,0.333,6.694915254,0.914523379,0.119060803
037,63,0,1,3,20,68,1245.9254134595394,1255.0232885028236,stimuli/115_xb.png,l,9.085960416588932,harmless,0.333,6.440677966,1.021681954,0.133011661
037,63,0,1,3,21,69,1255.6751121673733,1267.6473094020039,stimuli/139_xa.png,l,11.960182177368551,harmless,0.333,6.724137931,0.790138861,0.103750315
037,63,0,1,3,22,70,1268.2668869313784,1283.111273681745,stimuli/258_ya.png,l,14.832629268057644,ambig,0.333,5.627118644,1.78014243,0.231754804
037,63,0,1,3,23,71,1283.6837807158008,1306.4553406294435,stimuli/350_ya.png,a,22.760046221781522,ambig,0.333,4.915254237,2.02814792,0.264042369
037,63,0,1,3,24,72,1307.1133980867453,1320.0712329423986,stimuli/124_xa.png,l,12.946180167142302,harmless,0.333,6.344262295,1.181598436,0.151288177
037,63,0,1,4,1,73,1329.554055746179,1346.9352741795592,stimuli/355_zb.png,a,17.36942904954776,awful,0.333,3.183333333,2.070713188,0.267327923
037,63,0,1,4,2,74,1347.573574356269,1370.647211334668,stimuli/309_ya.png,l,23.061872406862676,ambig,0.333,4.706896552,1.946734744,0.255618795
037,63,0,1,4,3,75,1371.26924213022,1379.4152337238193,stimuli/195_xc.png,l,8.134440486785024,harmless,0.333,6.637640449,1.001766915,0.05309354
037,63,0,1,4,4,76,1380.0083676502109,1395.6472239373252,stimuli/235_ya.png,l,15.627228380180895,ambig,0.333,5.694915254,1.567495667,0.204070554
037,63,0,1,4,5,77,1396.3140247743577,1420.3991919853725,stimuli/211_zb.png,l,24.07303124293685,awful,0.333,3.983333333,2.127237938,0.274625237
037,63,0,1,4,6,78,1421.0062739653513,1434.9192194445059,stimuli/323_yb.png,l,13.901087959762663,ambig,0.333,4.603448276,1.955107169,0.256718148
037,63,0,1,4,7,79,1435.521309033502,1445.0391845181584,stimuli/153_xb.png,l,9.506249940954149,harmless,0.333,6.633333333,0.973664521,0.125699549
037,63,0,1,4,8,80,1445.6981864180416,1459.2791989487596,stimuli/351_zb.png,a,13.569407860282809,awful,0.333,3.06779661,2.033040926,0.264679384
037,63,0,1,4,9,81,1459.9448009184562,1471.7511397898197,stimuli/202_yb.png,a,11.794234804343432,ambig,0.333,5.431034483,1.892849601,0.248543329
037,63,0,1,4,10,82,1472.427951796446,1485.8472098377533,stimuli/106_xc.png,l,13.40728355012834,harmless,0.333,6.661016949,0.863237081,0.112383896
037,63,0,1,4,11,83,1486.4624972036108,1496.663106562104,stimuli/275_yb.png,a,10.188768380787224,ambig,0.333,4.836065574,2.138382004,0.27379176
037,63,0,1,4,12,84,1497.2491973419674,1507.1111488328315,stimuli/180_xc.png,l,9.850300740916282,harmless,0.333,6.672131148,0.723908638,0.092687003
037,63,0,1,4,13,85,1507.714817349799,1520.3112454037182,stimuli/157_xc.png,l,12.584107371978462,harmless,0.333,6.603448276,0.877389573,0.115206895
037,63,0,1,4,14,86,1520.9243240812793,1541.5511519205756,stimuli/285_yb.png,a,20.615084141492844,ambig,0.333,4.120689655,2.119893958,0.278355714
037,63,0,1,4,15,87,1542.1167674385943,1549.3671183553524,stimuli/122_xa.png,l,7.238359883893281,harmless,0.333,6.457627119,1.039264227,0.135300678
037,63,0,1,4,16,88,1549.992072275374,1562.2312450571917,stimuli/217_yb.png,l,12.227442868985236,ambig,0.333,5.169491525,2.001314588,0.260548967
037,63,0,1,4,17,89,1562.8115549664944,1574.2470969613642,stimuli/128_xc.png,l,11.42378923855722,harmless,0.333,6.627118644,0.98082135,0.127692063
037,63,0,1,4,18,90,1574.869287264999,1578.7750667175278,stimuli/320_za.png,a,3.8942346470430493,awful,0.333,1.423728814,1.117314975,0.14546202
037,63,0,1,4,19,91,1579.3752678153105,1590.6310648331419,stimuli/370_za.png,a,11.244061591103673,awful,0.333,2.393442623,1.882185684,0.240989182
037,63,0,1,4,20,92,1591.1945015955716,1601.5431143129244,stimuli/145_xa.png,l,10.336645708885044,harmless,0.333,6.661016949,0.822321556,0.107057148
037,63,0,1,4,21,93,1602.3447455437854,1614.743145505432,stimuli/334_za.png,a,12.38670746376738,awful,0.333,3.333333333,2.214487481,0.285889104
037,63,0,1,4,22,94,1615.3445245963521,1630.4310718434863,stimuli/332_zb.png,a,15.075375020038337,awful,0.333,2.694915254,2.002190501,0.260663001
037,63,0,1,4,23,95,1631.0009227809496,1641.839067073539,stimuli/254_ya.png,l,10.826388779561967,ambig,0.333,5.983606557,1.627798137,0.208418195
037,63,0,1,4,24,96,1642.4575339574367,1654.8310373425484,stimuli/344_za.png,a,12.361855392344296,awful,0.333,2.711864407,2.043077863,0.265986082
037,63,0,1,5,1,97,1663.6890287129208,1675.7350720581599,stimuli/349_za.png,a,12.034602121450007,awful,0.333,3.288135593,2.101320172,0.273568585
037,63,0,1,5,2,98,1676.3284162981436,1687.3349880110472,stimuli/152_xa.png,l,10.994698046240956,harmless,0.333,6.576271186,0.968528743,0.126091702
037,63,0,1,5,3,99,1687.9075706638396,1696.3350423621014,stimuli/158_xa.png,l,8.41488201962784,harmless,0.333,6.786885246,0.661179605,0.084655374
037,63,0,1,5,4,100,1696.9479564120993,1709.8310188320465,stimuli/194_xb.png,l,12.871413245331496,harmless,0.333,6.586206897,1.026567825,0.134794959
037,63,0,1,5,5,101,1710.398635874968,1722.8470574193634,stimuli/250_yb.png,l,12.436463988386095,ambig,0.333,5.950819672,1.585625318,0.203018519
037,63,0,1,5,6,102,1723.4518405208364,1732.4630505573004,stimuli/266_zb.png,a,8.999257994350046,awful,0.333,3.491525424,1.888010094,0.245797978
037,63,0,1,5,7,103,1733.074622774031,1738.911019178573,stimuli/363_zb.png,a,5.82464640494436,awful,0.333,2.433333333,2.019956927,0.260775318
037,63,0,1,5,8,104,1739.523678804282,1750.1509828031994,stimuli/125_xc.png,l,10.615207809023559,harmless,0.333,6.683333333,0.999858747,0.129081209
037,63,0,1,5,9,105,1750.7445818614215,1761.1830682484433,stimuli/329_zb.png,a,10.426767895463854,awful,0.333,2.406779661,1.992387617,0.259386774
037,63,0,1,5,10,106,1761.8220608066767,1772.4550027097575,stimuli/220_yb.png,a,10.620890217833221,ambig,0.333,4.75,2.096203186,0.270618668
037,63,0,1,5,11,107,1773.0222932542674,1783.6635008016601,stimuli/372_zb.png,a,10.629344514105469,awful,0.333,2.796610169,2.082601664,0.271131643
037,63,0,1,5,12,108,1784.2718627806753,1797.0469996030442,stimuli/203_yb.png,l,12.763388004619628,ambig,0.333,6,1.542501327,0.200816568
037,63,0,1,5,13,109,1797.6405072892085,1824.4310434865765,stimuli/243_ya.png,l,26.778770444449037,ambig,0.333,5.830508475,1.652088985,0.215083666
037,63,0,1,5,14,110,1825.1331774229184,1837.6149459010921,stimuli/151_xa.png,l,12.470159869641066,harmless,0.333,6.610169492,0.947172729,0.123311386
037,63,0,1,5,15,111,1838.205674216617,1843.2789728813805,stimuli/113_xb.png,l,5.061682967003435,harmless,0.333,6.733333333,0.660422737,0.085260209
037,63,0,1,5,16,112,1843.8521596933715,1858.1269869524986,stimuli/223_yb.png,l,14.262974860146642,ambig,0.333,5.542372881,1.77455224,0.231027024
037,63,0,1,5,17,113,1858.7311135125346,1878.8469239058904,stimuli/269_za.png,a,20.104155704844743,awful,0.333,3.457627119,2.119873401,0.27598401
037,63,0,1,5,18,114,1879.4231626298279,1891.702876729425,stimuli/238_xb.png,l,12.26789281424135,harmless,0.333,6.4,1.076718178,0.139003719
037,63,0,1,5,19,115,1892.441716317553,1907.518949108664,stimuli/257_yb.png,l,15.065440256614238,ambig,0.333,5.620689655,1.843219782,0.242026615
037,63,0,1,5,20,116,1908.0850762329064,1922.1268884912133,stimuli/114_xc.png,l,14.0302146775648,harmless,0.333,6.644067797,0.97843492,0.127381377
037,63,0,1,5,21,117,1922.6929439352825,1933.2548825079575,stimuli/357_za.png,a,10.550308302976191,awful,0.333,2.793103448,2.066937905,0.271402243
037,63,0,1,5,22,118,1933.8556117527187,1958.9829102377407,stimuli/339_ya.png,a,25.11560992570594,ambig,0.333,4.949152542,1.960152429,0.25519011
037,63,0,1,5,23,119,1959.6174783306196,1974.0308798830956,stimuli/368_za.png,a,14.401759861037135,awful,0.333,3.590163934,2.02794682,0.259651984
037,63,0,1,5,24,120,1974.9488307503052,1984.3988528843038,stimuli/226_yb.png,l,9.437840479891747,ambig,0.333,5.683333333,1.712285287,0.22105508
037,63,0,1,6,1,121,1993.5350841884501,1998.7108658938669,stimuli/322_za.png,a,5.16415458638221,awful,0.333,2.406779661,1.975004531,0.257123689
037,63,0,1,6,2,122,1999.2871814179234,2006.1108518727124,stimuli/179_xb.png,l,6.811839716974646,harmless,0.333,6.704918033,0.882123617,0.112944356
037,63,0,1,6,3,123,2006.7137488457374,2011.5908137802035,stimuli/293_zb.png,a,4.865150701254606,awful,0.333,3.677966102,2.169066842,0.28238845
037,63,0,1,6,4,124,2012.2355517623946,2028.014876741916,stimuli/280_xb.png,l,15.76749030360952,harmless,0.333,6.333333333,1.068289726,0.137915611
037,63,0,1,6,5,125,2028.643788419664,2039.7028515231796,stimuli/215_yb.png,l,11.047321374993771,ambig,0.333,5.866666667,1.466769385,0.189359113
037,63,0,1,6,6,126,2040.3103734287433,2050.502794730477,stimuli/366_za.png,a,10.180239647161216,awful,0.333,3.689655172,2.036568291,0.267414518
037,63,0,1,6,7,127,2051.1055743373,2068.686781427823,stimuli/222_ya.png,l,17.569003380369395,ambig,0.333,5.931034483,1.543089507,0.202617579
037,63,0,1,6,8,128,2069.3313461178914,2077.318807245232,stimuli/201_yb.png,l,7.975736727938056,ambig,0.333,5.898305085,1.626238682,0.211718243
037,63,0,1,6,9,129,2077.950329727493,2089.878818335943,stimuli/142_xa.png,l,11.916772873606533,harmless,0.333,6.4,1.076718178,0.139003719
037,63,0,1,6,10,130,2090.590247823391,2110.6707987668924,stimuli/237_ya.png,a,20.068531553726643,ambig,0.333,4.305084746,2.019339575,0.26289562
037,63,0,1,6,11,131,2111.327254058793,2120.494797688909,stimuli/324_za.png,a,9.155305655673146,awful,0.333,2.491525424,1.994586478,0.259673041
037,63,0,1,6,12,132,2121.0632099071518,2125.9987908927724,stimuli/321_zb.png,a,4.923618309665471,awful,0.333,2.918032787,2.177881861,0.278849198
037,63,0,1,6,13,133,2126.6849366538227,2134.3028013473377,stimuli/240_xa.png,l,7.605990238953382,harmless,0.333,6.482758621,1.096107616,0.143925981
037,63,0,1,6,14,134,2135.1504109385423,2142.3747908677906,stimuli/147_ya.png,a,7.212656711228192,ambig,0.333,5.883333333,1.766847875,0.22809908
037,63,0,1,6,15,135,2142.979557427112,2160.686770400498,stimuli/246_ya.png,l,17.695619330741465,ambig,0.333,5.542372881,1.715266481,0.223308675
037,63,0,1,6,16,136,2161.3114769849926,2170.7587811886333,stimuli/132_xc.png,l,9.43567708414048,harmless,0.333,6.627118644,0.692280217,0.090127208
037,63,0,1,6,17,137,2171.417714559473,2183.390799128916,stimuli/305_zb.png,a,11.961422398220748,awful,0.333,2.75,2.12830003,0.274762352
037,63,0,1,6,18,138,2183.9677251144312,2193.158718724735,stimuli/340_za.png,a,9.179356250911951,awful,0.333,2.508474576,1.832398855,0.238558011
037,63,0,1,6,19,139,2193.750539174769,2212.2467428939417,stimuli/146_xa.png,l,18.48428239673376,harmless,0.333,6.442622951,1.162247681,0.148810567
037,63,0,1,6,20,140,2212.843265864998,2241.5267397747375,stimuli/326_zb.png,a,28.6717357262969,awful,0.333,3.389830508,2.220724867,0.289113752
037,63,0,1,6,21,141,2242.1084379912354,2255.3026524735615,stimuli/325_yb.png,a,13.18234948022291,ambig,0.333,5.131147541,1.811770863,0.231973488
037,63,0,1,6,22,142,2255.9771860809997,2266.0547111062333,stimuli/101_xa.png,l,10.065692318137735,harmless,0.333,6.508522727,1.13475832,0.060482822
037,63,0,1,6,23,143,2266.653649533633,2276.358739677351,stimuli/141_xc.png,l,9.693076267838478,harmless,0.333,6.508474576,1.040107444,0.135410455
037,63,0,1,6,24,144,2276.9553563832305,2286.8866858021356,stimuli/281_ya.png,l,9.919713327195495,ambig,0.333,5.881355932,1.543448286,0.200939852
037,63,0,1,7,1,145,2296.243657899089,2308.862705311738,stimuli/284_ya.png,l,12.60717492736876,ambig,0.333,5.948275862,1.431750417,0.18799804
037,63,0,1,7,2,146,2309.4803699315526,2319.7826750329696,stimuli/335_yb.png,l,10.290873723570257,ambig,0.333,5.016949153,2.046793332,0.266469795
037,63,0,1,7,3,147,2320.459985648282,2326.6146489414386,stimuli/156_xc.png,l,6.143074376974255,harmless,0.333,6.590163934,0.955284411,0.122311635
037,63,0,1,7,4,148,2327.180840262212,2332.206652923953,stimuli/112_xc.png,l,5.013819265644997,harmless,0.333,6.706896552,0.749470472,0.098410294
037,63,0,1,7,5,149,2332.8485717568547,2338.238596979063,stimuli/229_za.png,a,5.37795778317377,awful,0.333,3.406779661,2.043649913,0.266060557
037,63,0,1,7,6,150,2338.828823534772,2346.158601358533,stimuli/126_xa.png,l,7.318027430679649,harmless,0.333,6.6,0.977717855,0.126222832
037,63,0,1,7,7,151,2346.7441155477427,2352.022656380199,stimuli/294_za.png,a,5.266430070158094,awful,0.333,1.557377049,1.38473331,0.177296933
037,63,0,1,7,8,152,2352.5981464032084,2373.422712857835,stimuli/300_za.png,l,20.81290664570406,awful,0.333,3.75,2.12032137,0.273732312
037,63,0,1,7,9,153,2373.9856364391744,2389.4627051544376,stimuli/291_za.png,a,15.465143060777336,awful,0.333,2.593220339,1.830005126,0.238246374
037,63,0,1,7,10,154,2390.053974220529,2400.1746533368714,stimuli/183_xb.png,l,10.109000009484589,harmless,0.333,6.448275862,1.095003225,0.143780967
037,63,0,1,7,11,155,2400.7409269711934,2404.4866092386656,stimuli/308_zb.png,a,3.733980711083859,awful,0.333,1.644067797,1.471132708,0.191525165
037,63,0,1,7,12,156,2405.0868398747407,2409.7826545527205,stimuli/312_yb.png,a,4.684597158338875,ambig,0.333,4.677966102,2.112692986,0.275049199
037,63,0,1,7,13,157,2410.371414426714,2457.38268275233,stimuli/188_xa.png,l,46.99986097263172,harmless,0.333,6.655172414,0.806807095,0.105938962
037,63,0,1,7,14,158,2457.947653544601,2470.4546128022484,stimuli/224_yb.png,l,12.494968618731946,ambig,0.333,5.881355932,1.609077116,0.209483997
037,63,0,1,7,15,159,2471.0270576085895,2480.886575525161,stimuli/172_xb.png,l,9.847523339092731,harmless,0.333,6.482758621,1.127664553,0.14806961
037,63,0,1,7,16,160,2481.450237961486,2489.158658466302,stimuli/360_za.png,a,7.696439317893237,awful,0.333,3.2,2.207844259,0.285031468
037,63,0,1,7,17,161,2489.903478998225,2501.4705824665725,stimuli/182_xb.png,l,11.55537040438503,harmless,0.333,6.542372881,0.988241802,0.128658124
037,63,0,1,7,18,162,2502.083390966058,2513.9186152848415,stimuli/353_zb.png,a,11.823872891720384,awful,0.333,1.949152542,1.623361018,0.211343603
037,63,0,1,7,19,163,2514.5523338518105,2529.4786031385884,stimuli/342_yb.png,l,14.914596481248736,ambig,0.333,4.916666667,2.085394461,0.269223267
037,63,0,1,7,20,164,2530.0405897605233,2543.054524423089,stimuli/260_ya.png,l,13.002071629744023,ambig,0.333,4.966101695,2.016877936,0.262575142
037,63,0,1,7,21,165,2543.6242497232743,2573.726553958375,stimuli/306_zb.png,a,30.090414026752114,awful,0.333,2.352112676,1.917055413,0.101746737
037,63,0,1,7,22,166,2574.5495993797667,2583.0145167666487,stimuli/216_xa.png,l,8.452824347652495,harmless,0.333,6.603448276,0.877389573,0.115206895
037,63,0,1,7,23,167,2583.594730971381,2592.0224976604804,stimuli/289_yb.png,a,8.41593713266775,ambig,0.333,5.305084746,1.714584873,0.223219937
037,63,0,1,7,24,168,2592.626222103834,2599.262493580114,stimuli/247_ya.png,l,6.6248546708375216,ambig,0.333,4.65,2.081598147,0.268733165
037,63,0,1,8,1,169,2608.07617531484,2633.8865227499045,stimuli/343_zb.png,a,25.798565140459687,awful,0.333,3.103448276,2.141401862,0.28117984
037,63,0,1,8,2,170,2634.535147203598,2645.2224292098545,stimuli/129_xa.png,l,10.675388253293931,harmless,0.333,6.770491803,0.642740036,0.082294429
037,63,0,1,8,3,171,2645.7880955343135,2657.3344890084118,stimuli/352_zb.png,a,11.534768323879689,awful,0.333,2.93442623,2.135952968,0.273480754
037,63,0,1,8,4,172,2657.944492143579,2672.52647589799,stimuli/259_xc.png,l,14.570336155127734,harmless,0.333,6.568965517,0.993170874,0.130409725
037,63,0,1,8,5,173,2673.125918448437,2688.3745112372562,stimuli/189_yb.png,l,15.236264229752123,ambig,0.333,5.983333333,1.455459234,0.187898979
037,63,0,1,8,6,174,2688.9934877576306,2702.8144887248054,stimuli/346_zb.png,a,13.808851608075202,awful,0.333,1.288135593,0.983499162,0.128040685
037,63,0,1,8,7,175,2703.3757613040507,2716.574423882179,stimuli/209_ya.png,l,13.18714770488441,ambig,0.333,5.603448276,1.825161903,0.239655499
037,63,0,1,8,8,176,2717.244511757046,2724.7744625578634,stimuli/303_zb.png,a,7.517737638670951,awful,0.333,3.620689655,2.158846233,0.283470398
037,63,0,1,8,9,177,2725.347878194414,2729.166411323007,stimuli/199_za.png,a,3.8066271664574742,awful,0.333,3.033898305,2.189048775,0.284989876
037,63,0,1,8,10,178,2729.73977221502,2740.3584253881127,stimuli/333_za.png,a,10.606759420130402,awful,0.333,3.266666667,2.185209657,0.282109354
037,63,0,1,8,11,179,2740.9240283030085,2760.926407526247,stimuli/212_ya.png,l,19.990441359113902,ambig,0.333,5.677966102,1.490668422,0.194068498
037,63,0,1,8,12,180,2761.5672113816254,2777.2864319290966,stimuli/191_ya.png,a,15.707637538667768,ambig,0.333,5.517241379,2.062542966,0.270825159
037,63,0,1,8,13,181,2777.8818781250156,2786.502393007744,stimuli/154_xc.png,l,8.608783394098282,harmless,0.333,6.5,0.965506805,0.124646393
037,63,0,1,8,14,182,2787.113352006767,2800.1983486828394,stimuli/262_ya.png,l,13.072905212640762,ambig,0.333,5.491525424,1.7750462,0.231091332
037,63,0,1,8,15,183,2801.077107548248,2806.7664588210173,stimuli/290_zb.png,a,5.677341728936881,awful,0.333,2.586206897,2.026443456,0.266085062
037,63,0,1,8,16,184,2807.329032666981,2813.4703961773776,stimuli/190_xc.png,l,6.129594606347382,harmless,0.333,6.517241379,1.046990328,0.137476565
037,63,0,1,8,17,185,2814.0402971329167,2817.8543754704297,stimuli/295_za.png,a,3.8021904919296503,awful,0.333,2.3,1.825432384,0.235662307
037,63,0,1,8,18,186,2818.505850187037,2832.918436084874,stimuli/253_ya.png,l,14.400933966040611,ambig,0.333,5.491803279,1.849531029,0.236808182
037,63,0,1,8,19,187,2833.5400726408698,2852.4543505008332,stimuli/214_xb.png,l,18.90302607603371,harmless,0.333,6.465517241,0.940614156,0.12350869
037,63,0,1,8,20,188,2853.0489704078063,2860.3823235649616,stimuli/116_xa.png,l,7.321472007315606,harmless,0.333,6.63559322,0.958030802,0.050918763
037,63,0,1,8,21,189,2860.936913760379,2865.1503676157445,stimuli/143_xb.png,l,4.2014419487677515,harmless,0.333,6.655172414,0.738697862,0.096995781
037,63,0,1,8,22,190,2865.7620922513306,2874.5183484936133,stimuli/241_yb.png,l,8.744250243529677,ambig,0.333,5.508474576,1.442852555,0.187843403
037,63,0,1,8,23,191,2875.114647760056,2890.3583584344015,stimuli/210_yb.png,l,15.232035112101585,ambig,0.333,5.557377049,1.76564049,0.226067099
037,63,0,1,8,24,192,2890.9555544876494,2897.814402866643,stimuli/107_xa.png,l,6.847198416478932,harmless,0.333,6.813559322,0.540580029,0.070377525
037,63,0,1,9,1,193,2907.869620458223,2916.774308170192,stimuli/178_xa.png,l,8.892353639006615,harmless,0.333,6.483333333,1.112207557,0.143585378
037,63,0,1,9,2,194,2917.6594851487316,2935.318308636546,stimuli/165_xb.png,l,17.646896651946008,harmless,0.333,6.557377049,1.008705278,0.129151477
037,63,0,1,9,3,195,2936.0127806938253,2942.3742942279205,stimuli/197_xa.png,l,6.349777319468558,harmless,0.333,6.779661017,0.55918033,0.072799078
037,63,0,1,9,4,196,2942.9475223938935,2953.5022736722603,stimuli/267_ya.png,l,10.542806325480342,ambig,0.333,5.103448276,1.898195405,0.249245267
037,63,0,1,9,5,197,2954.1173345767893,2972.6382919060998,stimuli/318_za.png,a,18.50782059878111,awful,0.333,3.06557377,2.197489875,0.281359747
037,63,0,1,9,6,198,2973.2121663731523,2980.134251834359,stimuli/299_za.png,a,6.90977462567389,awful,0.333,1.288135593,0.929420425,0.121000233
037,63,0,1,9,7,199,2980.7077596308663,2991.3502511158586,stimuli/330_ya.png,a,10.63058000896126,ambig,0.333,4.796610169,2.049219036,0.266785595
037,63,0,1,9,8,200,2991.930974957533,3006.3502385132015,stimuli/163_xa.png,a,14.407366258092225,harmless,0.333,6.627118644,0.963082427,0.125382652
037,63,0,1,9,9,201,3006.9318209388293,3015.894280333072,stimuli/200_ya.png,l,8.950761776883155,ambig,0.333,5.862068966,1.444266048,0.189641423
037,63,0,1,9,10,202,3016.4578785724007,3031.430258945562,stimuli/298_za.png,a,14.96042714919895,awful,0.333,2.881355932,2.026418156,0.263817173
037,63,0,1,9,11,203,3032.0901273065247,3043.942204292398,stimuli/175_xb.png,l,11.840408512856811,harmless,0.333,6.6,1.028409995,0.13276716
037,63,0,1,9,12,204,3044.508640585467,3057.390265861526,stimuli/204_xb.png,l,12.869756335392594,harmless,0.333,6.508474576,0.858484658,0.111765183
037,63,0,1,9,13,205,3058.0333831678145,3065.6462507443503,stimuli/356_za.png,a,7.600864334497601,awful,0.333,3.033333333,2.178217796,0.281206708
037,63,0,1,9,14,206,3066.259783526417,3074.7742124656215,stimuli/348_za.png,a,8.502737229224294,awful,0.333,3.084745763,2.119597681,0.275948114
037,63,0,1,9,15,207,3075.388373038266,3096.726201860234,stimuli/277_yb.png,l,21.32632064446807,ambig,0.333,5.491525424,2.02886822,0.264136144
037,63,0,1,9,16,208,3097.3313378472812,3113.2302301162854,stimuli/288_yb.png,l,15.886602701153606,ambig,0.333,5.189655172,1.914459262,0.251380817
037,63,0,1,9,17,209,3113.79589013895,3136.6542351827957,stimuli/261_yb.png,a,22.846361100208014,ambig,0.333,5.706896552,1.901141123,0.249632059
037,63,0,1,9,18,210,3137.386438467074,3150.3022153042257,stimuli/369_za.png,a,12.90391419827938,awful,0.333,2.948275862,2.055565093,0.26990892
037,63,0,1,9,19,211,3150.9659429616295,3161.1581248049624,stimuli/272_xb.png,l,10.180539363995194,harmless,0.333,6.355932203,1.029943284,0.134087194
037,63,0,1,9,20,212,3161.7658070060425,3172.3181617320515,stimuli/196_xb.png,l,10.540868603624403,harmless,0.333,6.594366197,0.982313556,0.05213579
037,63,0,1,9,21,213,3172.89439139748,3181.8941011331044,stimuli/311_za.png,a,8.987832523882389,awful,0.333,3.116666667,1.975199339,0.254997138
037,63,0,1,9,22,214,3182.4688420612365,3197.7342079598457,stimuli/338_zb.png,a,15.253657646942884,awful,0.333,3.310344828,2.137443107,0.28066003
037,63,0,1,9,23,215,3198.325735782739,3206.870145455003,stimuli/270_yb.png,a,8.532578147016466,ambig,0.333,5.534482759,1.912246013,0.251090203
037,63,0,1,9,24,216,3207.4754149559885,3222.52619941812,stimuli/315_yb.png,a,15.039113625884056,ambig,0.333,5.050847458,1.915667965,0.249398726
037,63,0,1,10,1,217,3232.460479137022,3242.718099661637,stimuli/249_ya.png,l,10.245890217833221,ambig,0.333,5.327868852,1.859402337,0.238072074
037,63,0,1,10,2,218,3243.2857080404647,3250.4701039437205,stimuli/177_xb.png,l,7.172446224372834,harmless,0.333,6.482758621,1.063614811,0.139659467
037,63,0,1,10,3,219,3251.0647817463614,3256.5500664808787,stimuli/135_xa.png,l,5.473471720237285,harmless,0.333,6.508474576,1.179901828,0.153610134
037,63,0,1,10,4,220,3257.1082839975134,3268.646096750628,stimuli/327_zb.png,a,11.52585401572287,awful,0.333,2.502808989,1.906990248,0.101070281
037,63,0,1,10,5,221,3269.2091853530146,3285.8300826600753,stimuli/198_yb.png,l,16.608989375643432,ambig,0.333,5.101694915,1.83542643,0.238952168
037,63,0,1,10,6,222,3286.3922402113676,3300.0620606648736,stimuli/268_zb.png,a,13.657793580554426,awful,0.333,2.655737705,2.048456703,0.262278005
037,63,0,1,10,7,223,3300.737556831911,3312.6221032631584,stimuli/166_xa.png,l,11.872765711974353,harmless,0.333,6.593220339,1.052397002,0.13701042
037,63,0,1,10,8,224,3313.203402513638,3323.3741142405197,stimuli/171_xa.png,a,10.158836484886706,harmless,0.333,6.465517241,1.046556882,0.137419651
037,63,0,1,10,9,225,3323.986217361875,3332.678061285522,stimuli/255_xb.png,l,8.68019947502762,harmless,0.333,6.770491803,0.642740036,0.082294429
037,63,0,1,10,10,226,3333.2793033178896,3344.5421115811914,stimuli/213_ya.png,l,11.250829833559692,ambig,0.333,5.98245614,1.597891781,0.211645937
037,63,0,1,10,11,227,3345.1157032670453,3359.014045333024,stimuli/304_ya.png,a,13.88663027016446,ambig,0.333,4.034482759,2.017167697,0.264867095
037,63,0,1,10,12,228,3359.6279203672893,3368.4381496487185,stimuli/354_zb.png,a,8.798115368466824,awful,0.333,2,1.701925887,0.221571878
037,63,0,1,10,13,229,3369.036975042429,3376.326018564403,stimuli/102_xc.png,l,7.277017042506486,harmless,0.333,6.66011236,0.937292468,0.049676401
037,63,0,1,10,14,230,3376.929330650717,3410.3183015473187,stimuli/336_ya.png,l,33.376868404913694,ambig,0.333,5.033898305,1.884291705,0.245313885
037,63,0,1,10,15,231,3410.914801674895,3423.6381186135113,stimuli/314_zb.png,a,12.71105415187776,awful,0.333,1.833333333,1.451669602,0.18740974
037,63,0,1,10,16,232,3424.243326674681,3436.021997082047,stimuli/307_za.png,l,11.767327644862235,awful,0.333,2.93220339,2.172432347,0.282826601
037,63,0,1,10,17,233,3436.6328792814165,3450.9660233058967,stimuli/208_xb.png,l,14.321027748752385,harmless,0.333,6.216666667,1.165778516,0.150501359
037,63,0,1,10,18,234,3451.577260754071,3460.9660300016403,stimuli/361_za.png,a,9.377491469494998,awful,0.333,2.416666667,1.907093508,0.246204713
037,63,0,1,10,19,235,3461.523314496968,3472.4059799201787,stimuli/287_ya.png,l,10.87072007637471,ambig,0.333,5.950819672,1.407435369,0.180203633
037,63,0,1,10,20,236,3472.9655077615753,3482.1339564500377,stimuli/205_yb.png,l,9.156459230929613,ambig,0.333,5.847457627,1.52918233,0.199082582
037,63,0,1,10,21,237,3482.692721018102,3496.1180076594464,stimuli/273_ya.png,l,13.413379891309887,ambig,0.333,5.551724138,1.836973233,0.241206403
037,63,0,1,10,22,238,3496.7278552250937,3511.2379526467994,stimuli/373_zb.png,a,14.498424222227186,awful,0.333,2.327586207,1.858011869,0.243968911
037,63,0,1,10,23,239,3511.8133741407655,3520.0539517709985,stimuli/110_xa.png,l,8.22876697871834,harmless,0.333,6.428571429,1.059281795,0.141552484
037,63,0,1,10,24,240,3520.7495474708267,3529.2939539924264,stimuli/301_za.png,a,8.532510799355805,awful,0.333,3.610169492,2.212947396,0.288101212
