id,age,condition,counterbalance,block,trialinblock,trial,tstart,tend,trialstim,response,RT,trialtype,ethicfreq,norm_mean,norm_sd,norm_se
056,70,0,2,0,0,practice,4.332308890298009e-06,7.3917711408576,stimuli/prac_217_1.png,l,7.377149217179976,harmless,NA,NA,NA,NA
056,70,0,2,1,1,1,6.496299817576073,18.90372987840965,stimuli/309_ya.png,a,12.395892344575259,ambig,0.333,4.706896552,1.946734744,0.255618795
056,70,0,2,1,2,2,19.462073031638283,23.991741051038844,stimuli/156_xc.png,l,4.517850278687547,harmless,0.333,6.590163934,0.955284411,0.122311635
056,70,0,2,1,3,3,24.596415450738277,30.07969944830984,stimuli/334_za.png,a,5.471595438328222,awful,0.333,3.333333333,2.214487481,0.285889104
056,70,0,2,1,4,4,30.63590244279476,38.41574493593362,stimuli/231_xb.png,l,7.767914081719937,harmless,0.333,6.62295082,1.05141071,0.134619347
056,70,0,2,1,5,5,38.963850064435974,53.55971334318747,stimuli/239_ya.png,a,14.58422001179133,ambig,0.333,5.157894737,1.925296579,0.255011762
056,70,0,2,1,6,6,54.11439018473902,58.88771767864819,stimuli/364_za.png,a,4.761374270208762,awful,0.333,1.677966102,1.279017376,0.166513879
056,70,0,2,1,7,7,59.44268793539959,67.7757307417196,stimuli/262_ya.png,a,8.321132905664854,ambig,0.333,5.491525424,1.7750462,0.231091332
056,70,0,2,1,8,8,68.42026431787235,78.19173128365946,stimuli/347_zb.png,a,9.759764228074346,awful,0.333,3.796610169,2.147810923,0.279621165
056,70,0,2,1,9,9,78.80034689948661,86.63972708053188,stimuli/300_za.png,a,7.8276384525961475,awful,0.333,3.75,2.12032137,0.273732312
056,70,0,2,1,10,10,87.20222452052985,93.00769417392439,stimuli/358_za.png,a,5.793483346627909,awful,0.333,3.949152542,2.112554662,0.275031191
056,70,0,2,1,11,11,93.56016350907157,99.26370465652144,stimuli/173_yb.png,l,5.692179086472606,ambig,0.333,5.796610169,1.242628763,0.161776485
056,70,0,2,1,12,12,99.81191888033936,104.69562957058952,stimuli/169_xc.png,l,4.8717972449812805,harmless,0.333,6.603448276,0.916508538,0.120343467
056,70,0,2,1,13,13,105.24843721938669,110.8396239716676,stimuli/270_yb.png,l,5.5792890608427115,ambig,0.333,5.534482759,1.912246013,0.251090203
056,70,0,2,1,14,14,111.37862850246893,117.43970770332089,stimuli/266_zb.png,a,6.049213410937227,awful,0.333,3.491525424,1.888010094,0.245797978
056,70,0,2,1,15,15,117.99061780246848,123.9196613397653,stimuli/170_xc.png,l,5.917120245881961,harmless,0.333,6.583333333,1.062323432,0.137145365
056,70,0,2,1,16,16,124.48727129367762,128.51965606224257,stimuli/297_za.png,a,4.020342929521576,awful,0.333,1.898305085,1.446695584,0.188343723
056,70,0,2,1,17,17,129.0798400513013,132.94367885173415,stimuli/103_xb.png,l,3.852197108848486,harmless,0.333,6.779661017,0.589207434,0.076708274
056,70,0,2,1,18,18,133.50236977091117,138.07962304219836,stimuli/137_xa.png,l,4.56531186295615,harmless,0.333,6.355932203,1.094858074,0.14253838
056,70,0,2,1,19,19,138.6437832996744,143.191627702181,stimuli/194_xb.png,l,4.535993578741909,harmless,0.333,6.586206897,1.026567825,0.134794959
056,70,0,2,1,20,20,143.82062287520966,156.51963558225543,stimuli/252_zb.png,a,12.687629378386191,awful,0.333,2.711864407,1.983125776,0.258180985
056,70,0,2,1,21,21,157.07208128664934,162.1916454252496,stimuli/232_yb.png,l,5.107446681140573,ambig,0.333,5.483333333,1.845669845,0.238274952
056,70,0,2,1,22,22,162.74386112362845,174.46364171993628,stimuli/222_ya.png,l,11.707888024873682,ambig,0.333,5.931034483,1.543089507,0.202617579
056,70,0,2,1,23,23,175.02533374504128,179.30358667603286,stimuli/129_xa.png,l,4.266361541100196,harmless,0.333,6.770491803,0.642740036,0.082294429
056,70,0,2,1,24,24,179.8529174530413,184.7037888765335,stimuli/233_yb.png,l,4.838989485884667,ambig,0.333,5.318309859,1.922973646,0.102060844
056,70,0,2,2,1,25,196.1136930774519,202.28758353472222,stimuli/250_yb.png,l,6.162242858001264,ambig,0.333,5.950819672,1.585625318,0.203018519
056,70,0,2,2,2,26,202.84594441101945,211.8076192644221,stimuli/356_za.png,a,8.949807881959714,awful,0.333,3.033333333,2.178217796,0.281206708
056,70,0,2,2,3,27,212.36159112176392,217.54357590041764,stimuli/208_xb.png,l,5.170103628741344,harmless,0.333,6.216666667,1.165778516,0.150501359
056,70,0,2,2,4,28,218.09594362332427,222.40760807920014,stimuli/122_xa.png,l,4.299828598261229,harmless,0.333,6.457627119,1.039264227,0.135300678
056,70,0,2,2,5,29,223.04679086466786,228.61561268246442,stimuli/363_zb.png,a,5.557345935347257,awful,0.333,2.433333333,2.019956927,0.260775318
056,70,0,2,2,6,30,229.21266576975177,233.4635720092192,stimuli/299_za.png,a,4.239220830990234,awful,0.333,1.288135593,0.929420425,0.121000233
056,70,0,2,2,7,31,234.02937027187727,238.79961867838574,stimuli/316_za.png,a,4.75849958883191,awful,0.333,2.344827586,1.802062407,0.236622386
056,70,0,2,2,8,32,239.36020360258408,243.65554629580583,stimuli/112_xc.png,l,4.283524558661156,harmless,0.333,6.706896552,0.749470472,0.098410294
056,70,0,2,2,9,33,244.22008267614,251.25558197824284,stimuli/303_zb.png,a,7.023537807632238,awful,0.333,3.620689655,2.158846233,0.283470398
056,70,0,2,2,10,34,251.81320321188832,256.92770958117035,stimuli/146_xa.png,l,5.102822930028196,harmless,0.333,6.442622951,1.162247681,0.148810567
056,70,0,2,2,11,35,257.4856214731117,263.5195654776762,stimuli/111_xa.png,l,6.022143199224956,harmless,0.333,6.590163934,0.863655973,0.110579816
056,70,0,2,2,12,36,264.08047138630354,269.13556491683994,stimuli/224_yb.png,l,5.043343137469492,ambig,0.333,5.881355932,1.609077116,0.209483997
056,70,0,2,2,13,37,269.6887825592421,276.127581266177,stimuli/201_yb.png,l,6.426973483146867,ambig,0.333,5.898305085,1.626238682,0.211718243
056,70,0,2,2,14,38,276.69019095225667,281.46353420001105,stimuli/214_xb.png,l,4.761362848672434,harmless,0.333,6.465517241,0.940614156,0.12350869
056,70,0,2,2,15,39,282.0162106981152,289.03955512739776,stimuli/311_za.png,a,7.011563710082555,awful,0.333,3.116666667,1.975199339,0.254997138
056,70,0,2,2,16,40,289.5981991789158,296.7835497648048,stimuli/248_zb.png,a,7.173361916051363,awful,0.333,3.288135593,1.991800844,0.259310383
056,70,0,2,2,17,41,297.3445899748913,302.2875429685955,stimuli/120_xa.png,l,4.931076569948345,harmless,0.333,6.440677966,1.054893138,0.137335389
056,70,0,2,2,18,42,302.845509998966,312.10355981574685,stimuli/271_ya.png,l,9.246146217657952,ambig,0.333,5.711864407,1.771915459,0.230683744
056,70,0,2,2,19,43,312.6580783312238,323.26356247813965,stimuli/202_yb.png,l,10.593695156945614,ambig,0.333,5.431034483,1.892849601,0.248543329
056,70,0,2,2,20,44,323.81284796287946,328.0795273376425,stimuli/306_zb.png,a,4.254806889468455,awful,0.333,2.352112676,1.917055413,0.101746737
056,70,0,2,2,21,45,328.62728233711096,338.20752411124704,stimuli/319_ya.png,l,9.568322421167977,ambig,0.333,4.216666667,2.108028774,0.272145344
056,70,0,2,2,22,46,338.766360359572,343.05560080407304,stimuli/164_xb.png,l,4.277528648352018,harmless,0.333,6.830508475,0.460604639,0.059965616
056,70,0,2,2,23,47,343.6108963775623,348.7594849913294,stimuli/212_ya.png,l,5.136678713111905,ambig,0.333,5.677966102,1.490668422,0.194068498
056,70,0,2,2,24,48,349.31348678095674,355.3115364559635,stimuli/241_yb.png,l,5.986276045034174,ambig,0.333,5.508474576,1.442852555,0.187843403
056,70,0,2,3,1,49,367.82000493095256,380.8074948091089,stimuli/172_xb.png,l,12.975715066655539,harmless,0.333,6.482758621,1.127664553,0.14806961
056,70,0,2,3,2,50,381.3992687856662,384.94350831645716,stimuli/320_za.png,a,3.5324103685561568,awful,0.333,1.423728814,1.117314975,0.14546202
056,70,0,2,3,3,51,385.50465959109715,392.60748606573907,stimuli/220_yb.png,l,7.090934690902941,ambig,0.333,4.75,2.096203186,0.270618668
056,70,0,2,3,4,52,393.16113496942853,397.9515041763516,stimuli/123_xc.png,l,4.778538469297928,harmless,0.333,6.491525424,1.023396666,0.133234897
056,70,0,2,3,5,53,398.5046426557237,405.72748619176855,stimuli/368_za.png,a,7.2111333152715815,awful,0.333,3.590163934,2.02794682,0.259651984
056,70,0,2,3,6,54,406.2860932217591,411.6074951241899,stimuli/246_ya.png,l,5.3094833371724235,ambig,0.333,5.542372881,1.715266481,0.223308675
056,70,0,2,3,7,55,412.22034852213983,422.6394994375878,stimuli/211_zb.png,a,10.407462750052218,awful,0.333,3.983333333,2.127237938,0.274625237
056,70,0,2,3,8,56,423.19289470450894,431.543444355877,stimuli/336_ya.png,l,8.338685042996076,ambig,0.333,5.033898305,1.884291705,0.245313885
056,70,0,2,3,9,57,432.0898650053714,437.10342590813525,stimuli/226_yb.png,l,5.001748675887939,ambig,0.333,5.683333333,1.712285287,0.22105508
056,70,0,2,3,10,58,437.65066457561625,441.98348210206314,stimuli/225_ya.png,l,4.32093046886439,ambig,0.333,5.85,1.792876677,0.231459384
056,70,0,2,3,11,59,442.5504229117505,448.1194428340532,stimuli/360_za.png,a,5.55716791699524,awful,0.333,3.2,2.207844259,0.285031468
056,70,0,2,3,12,60,448.7439107482205,455.2555012398225,stimuli/359_za.png,a,6.499792049347889,awful,0.333,2.01754386,1.641985167,0.217486248
056,70,0,2,3,13,61,455.809725946252,461.3674503675429,stimuli/118_xb.png,l,5.54620876039553,harmless,0.333,6.474576271,0.953323265,0.124112118
056,70,0,2,3,14,62,461.9169839751994,466.77545268650283,stimuli/132_xc.png,l,4.846624582918594,harmless,0.333,6.627118644,0.692280217,0.090127208
056,70,0,2,3,15,63,467.33966178087576,472.5994437320187,stimuli/280_xb.png,l,5.247950819670223,harmless,0.333,6.333333333,1.068289726,0.137915611
056,70,0,2,3,16,64,473.21142357971985,480.0314253598917,stimuli/366_za.png,a,6.808378993198858,awful,0.333,3.689655172,2.036568291,0.267414518
056,70,0,2,3,17,65,480.58919467961823,486.32749115422484,stimuli/221_xb.png,l,5.726435804695939,harmless,0.333,6.440677966,1.133672495,0.147591588
056,70,0,2,3,18,66,486.8867594515177,491.6954397368536,stimuli/131_xb.png,l,4.796746360079851,harmless,0.333,6.525423729,1.119666394,0.145768149
056,70,0,2,3,19,67,492.24537191657873,497.43940838040726,stimuli/279_ya.png,a,5.182230538484873,ambig,0.333,5.31147541,1.970964092,0.252356093
056,70,0,2,3,20,68,497.99559680260427,511.9194203060615,stimuli/312_yb.png,l,13.911969922774006,ambig,0.333,4.677966102,2.112692986,0.275049199
056,70,0,2,3,21,69,512.4805420422636,517.6794129647751,stimuli/181_xa.png,l,5.187155975581845,harmless,0.333,6.666666667,0.950765377,0.122743282
056,70,0,2,3,22,70,518.2286708803003,521.8554786330787,stimuli/294_za.png,a,3.61483838139975,awful,0.333,1.557377049,1.38473331,0.177296933
056,70,0,2,3,23,71,522.4161454772402,527.4474294464453,stimuli/277_yb.png,l,5.019394942384679,ambig,0.333,5.491525424,2.02886822,0.264136144
056,70,0,2,3,24,72,527.9957358302199,534.0634430640639,stimuli/367_zb.png,a,6.055827265488915,awful,0.333,3.413793103,2.086165649,0.27392697
056,70,0,2,4,1,73,546.6067960476794,554.8553986823536,stimuli/318_za.png,a,8.235884956025984,awful,0.333,3.06557377,2.197489875,0.281359747
056,70,0,2,4,2,74,555.4174124795682,561.2953352101467,stimuli/285_yb.png,a,5.86595847918943,ambig,0.333,4.120689655,2.119893958,0.278355714
056,70,0,2,4,3,75,561.8545790889912,567.6553564620699,stimuli/258_ya.png,l,5.7888442355178995,ambig,0.333,5.627118644,1.78014243,0.231754804
056,70,0,2,4,4,76,568.2141190612019,572.6713899295137,stimuli/124_xa.png,l,4.445651625952451,harmless,0.333,6.344262295,1.181598436,0.151288177
056,70,0,2,4,5,77,573.2307456606068,584.1593941704486,stimuli/276_ya.png,l,10.916930805993616,ambig,0.333,5.186440678,1.804922162,0.234980851
056,70,0,2,4,6,78,584.7800488684006,590.3113694652857,stimuli/362_zb.png,a,5.519771459090407,awful,0.333,1.474576271,1.222715071,0.159183944
056,70,0,2,4,7,79,590.8699256891559,596.2553763906762,stimuli/203_yb.png,l,5.373527410105453,ambig,0.333,6,1.542501327,0.200816568
056,70,0,2,4,8,80,596.8086917068722,602.2153663712379,stimuli/333_za.png,l,5.394730499116122,awful,0.333,3.266666667,2.185209657,0.282109354
056,70,0,2,4,9,81,602.8396602055,610.943364168852,stimuli/256_zb.png,l,8.092071330233011,awful,0.333,3.051724138,2.012438634,0.264246138
056,70,0,2,4,10,82,611.495098981366,616.2953501762822,stimuli/168_xa.png,l,4.788344838874764,harmless,0.333,6.474576271,1.164946827,0.151663159
056,70,0,2,4,11,83,616.8545397043927,623.4713540107768,stimuli/235_ya.png,l,6.604814215010265,ambig,0.333,5.694915254,1.567495667,0.204070554
056,70,0,2,4,12,84,624.0259414492903,628.9113567046734,stimuli/149_xa.png,l,4.873538831627229,harmless,0.333,6.721311475,0.933294301,0.11949609
056,70,0,2,4,13,85,629.4633640585671,635.3113493791461,stimuli/323_yb.png,l,5.836084084527101,ambig,0.333,4.603448276,1.955107169,0.256718148
056,70,0,2,4,14,86,635.953907424162,643.1913295608101,stimuli/269_za.png,l,7.225429528349196,awful,0.333,3.457627119,2.119873401,0.27598401
056,70,0,2,4,15,87,643.7448197446065,650.7993280200899,stimuli/141_xc.png,l,7.042615310201654,harmless,0.333,6.508474576,1.040107444,0.135410455
056,70,0,2,4,16,88,651.3536354341632,656.6393162992317,stimuli/261_yb.png,l,5.273755604415783,ambig,0.333,5.706896552,1.901141123,0.249632059
056,70,0,2,4,17,89,657.1997799188975,662.8713726790738,stimuli/133_xa.png,l,5.659712791806669,harmless,0.333,6.568965517,1.186356193,0.1557762
056,70,0,2,4,18,90,663.4339658236277,667.9033269740321,stimuli/196_xb.png,l,4.457434708223445,harmless,0.333,6.594366197,0.982313556,0.05213579
056,70,0,2,4,19,91,668.4651930790278,675.3752737229224,stimuli/344_za.png,a,6.8982554201065795,awful,0.333,2.711864407,2.043077863,0.265986082
056,70,0,2,4,20,92,675.9340150543721,682.6953467892163,stimuli/204_xb.png,l,6.749418683422846,harmless,0.333,6.508474576,0.858484658,0.111765183
056,70,0,2,4,21,93,683.2472332324105,689.6153255687968,stimuli/365_zb.png,a,6.354693698158371,awful,0.333,2.966101695,2.165291266,0.281896912
056,70,0,2,4,22,94,690.2551593815733,697.5113147994707,stimuli/341_zb.png,a,7.2442604833922815,awful,0.333,3.603448276,2.15975677,0.283589957
056,70,0,2,4,23,95,698.0585180208145,702.7353205748223,stimuli/257_yb.png,l,4.664815065698349,ambig,0.333,5.620689655,1.843219782,0.242026615
056,70,0,2,4,24,96,703.279801139317,708.3992825702735,stimuli/216_xa.png,l,5.1076258810353465,harmless,0.333,6.603448276,0.877389573,0.115206895
056,70,0,2,5,1,97,719.0628637167101,725.9513230072189,stimuli/296_yb.png,a,6.876779002021067,ambig,0.333,4.229508197,2.052587332,0.262806878
056,70,0,2,5,2,98,726.5678647722234,735.1920349388674,stimuli/355_zb.png,a,8.61244852434902,awful,0.333,3.183333333,2.070713188,0.267327923
056,70,0,2,5,3,99,735.7489783636847,740.8073821691796,stimuli/236_yb.png,l,5.046479332537274,ambig,0.333,5.93442623,1.49297078,0.19115532
056,70,0,2,5,4,100,741.3586207358312,745.8792610190285,stimuli/114_xc.png,l,4.50869021024846,harmless,0.333,6.644067797,0.97843492,0.127381377
056,70,0,2,5,5,101,746.4390275314072,752.047293018215,stimuli/188_xa.png,l,5.596427659955225,harmless,0.333,6.655172414,0.806807095,0.105938962
056,70,0,2,5,6,102,752.6109660882939,757.3033279192605,stimuli/166_xa.png,l,4.680438539551687,harmless,0.333,6.593220339,1.052397002,0.13701042
056,70,0,2,5,7,103,757.8610310728691,763.5432576729072,stimuli/327_zb.png,a,5.670272194794961,awful,0.333,2.502808989,1.906990248,0.101070281
056,70,0,2,5,8,104,764.0946935563697,769.2312332418514,stimuli/160_xb.png,l,5.12457346485462,harmless,0.333,6.666666667,0.680644427,0.087870818
056,70,0,2,5,9,105,769.7826273776445,775.1512218675925,stimuli/265_yb.png,l,5.356734607717954,ambig,0.333,5.627118644,1.856008928,0.241631781
056,70,0,2,5,10,106,775.7082326400559,780.9992540558305,stimuli/354_zb.png,a,5.278994936714298,awful,0.333,2,1.701925887,0.221571878
056,70,0,2,5,11,107,781.5510467636923,784.3512054048333,stimuli/346_zb.png,a,2.788283398927888,awful,0.333,1.288135593,0.983499162,0.128040685
056,70,0,2,5,12,108,784.911507547673,790.2392393417394,stimuli/295_za.png,a,5.315863641080796,awful,0.333,2.3,1.825432384,0.235662307
056,70,0,2,5,13,109,790.8012732250936,796.6792172233545,stimuli/282_xc.png,l,5.866228263636003,harmless,0.333,6.55,0.998728005,0.128935231
056,70,0,2,5,14,110,797.2387320682028,803.6072131305118,stimuli/213_ya.png,l,6.356604244720074,ambig,0.333,5.98245614,1.597891781,0.211645937
056,70,0,2,5,15,111,804.1606962250662,812.4072366824985,stimuli/287_ya.png,l,8.234678999826428,ambig,0.333,5.950819672,1.407435369,0.180203633
056,70,0,2,5,16,112,812.9449809063517,817.5192397670908,stimuli/117_xc.png,l,4.56245411693817,harmless,0.333,6.627118644,0.868972939,0.113130641
056,70,0,2,5,17,113,818.075034343361,823.8232848797779,stimuli/314_zb.png,a,5.736188611233956,awful,0.333,1.833333333,1.451669602,0.18740974
056,70,0,2,5,18,114,824.376413119171,830.5752092109615,stimuli/273_ya.png,l,6.187100837167236,ambig,0.333,5.551724138,1.836973233,0.241206403
056,70,0,2,5,19,115,831.1270877772331,837.6871985109465,stimuli/234_xb.png,l,6.548290236081812,harmless,0.333,6.637931034,0.788030542,0.103473479
056,70,0,2,5,20,116,838.2364828141435,845.7591758222698,stimuli/176_xb.png,l,7.510779956704937,harmless,0.333,6.796610169,0.517942249,0.067430337
056,70,0,2,5,21,117,846.3135919378255,851.1112744696438,stimuli/305_zb.png,a,4.786011695643538,awful,0.333,2.75,2.12830003,0.274762352
056,70,0,2,5,22,118,851.6742264078493,859.663242045106,stimuli/249_ya.png,l,7.977139607348363,ambig,0.333,5.327868852,1.859402337,0.238072074
056,70,0,2,5,23,119,860.2198885100952,868.6311743225087,stimuli/275_yb.png,l,8.39938260713825,ambig,0.333,4.836065574,2.138382004,0.27379176
056,70,0,2,5,24,120,869.1895674941625,873.9512343918905,stimuli/357_za.png,a,4.749939741581329,awful,0.333,2.793103448,2.066937905,0.271402243
056,70,0,2,6,1,121,883.5878839603974,887.9272078214708,stimuli/209_ya.png,l,4.327382058909279,ambig,0.333,5.603448276,1.825161903,0.239655499
056,70,0,2,6,2,122,888.485267405631,895.903232451019,stimuli/247_ya.png,a,7.4060169416770805,ambig,0.333,4.65,2.081598147,0.268733165
056,70,0,2,6,3,123,896.455574967782,900.5271635531826,stimuli/154_xc.png,l,4.0598259831167525,harmless,0.333,6.5,0.965506805,0.124646393
056,70,0,2,6,4,124,901.0807423523074,904.9512249395921,stimuli/283_yb.png,l,3.8588428649381967,ambig,0.333,5.949152542,1.478859402,0.192531095
056,70,0,2,6,5,125,905.503715148574,910.3831593059585,stimuli/251_ya.png,l,4.867607905907789,ambig,0.333,5.655172414,1.792300532,0.235340589
056,70,0,2,6,6,126,910.942018003494,921.5671448218782,stimuli/155_xb.png,l,10.613297262301785,harmless,0.333,6.655737705,0.892286312,0.114245555
056,70,0,2,6,7,127,922.1301006985304,931.8071328647056,stimuli/286_ya.png,a,9.665200247007306,ambig,0.333,5.06779661,1.779814082,0.231712057
056,70,0,2,6,8,128,932.3632153423532,936.8151787430397,stimuli/348_za.png,a,4.440078312327387,awful,0.333,3.084745763,2.119597681,0.275948114
056,70,0,2,6,9,129,937.3638238342974,942.7111537952587,stimuli/163_xa.png,l,5.335555149460561,harmless,0.333,6.627118644,0.963082427,0.125382652
056,70,0,2,6,10,130,943.2741848964797,948.9831583607156,stimuli/325_yb.png,l,5.697171871201135,ambig,0.333,5.131147541,1.811770863,0.231973488
056,70,0,2,6,11,131,949.5391853060864,959.8951877542277,stimuli/332_zb.png,a,10.344133507460356,awful,0.333,2.694915254,2.002190501,0.260663001
056,70,0,2,6,12,132,960.4443015221332,965.5751643125259,stimuli/324_za.png,a,5.119126969628269,awful,0.333,2.491525424,1.994586478,0.259673041
056,70,0,2,6,13,133,966.1327201677486,971.895162548084,stimuli/361_za.png,a,5.750680565746734,awful,0.333,2.416666667,1.907093508,0.246204713
056,70,0,2,6,14,134,972.5366457875789,980.1591342321481,stimuli/310_zb.png,a,7.610453694753232,awful,0.333,3.224137931,2.102989547,0.276136056
056,70,0,2,6,15,135,980.712516108295,987.2711735505727,stimuli/315_yb.png,a,6.546756993921008,ambig,0.333,5.050847458,1.915667965,0.249398726
056,70,0,2,6,16,136,987.8226271571039,996.0871238377586,stimuli/228_ya.png,l,8.252647432280355,ambig,0.333,5.442622951,1.793735303,0.229664272
056,70,0,2,6,17,137,996.6496484531381,1002.3351104974136,stimuli/145_xa.png,l,5.673717952755396,harmless,0.333,6.661016949,0.822321556,0.107057148
056,70,0,2,6,18,138,1002.8856444737175,1008.4711086447642,stimuli/206_xa.png,l,5.573666122640134,harmless,0.333,6.325842697,1.136094431,0.060212884
056,70,0,2,6,19,139,1009.0267488334357,1013.079112617881,stimuli/321_zb.png,a,4.040450733024045,awful,0.333,2.918032787,2.177881861,0.278849198
056,70,0,2,6,20,140,1013.6293614497408,1019.3271520528797,stimuli/272_xb.png,l,5.685567201129743,harmless,0.333,6.355932203,1.029943284,0.134087194
056,70,0,2,6,21,141,1019.8803885998932,1026.343102024999,stimuli/370_za.png,a,6.451727093139198,awful,0.333,2.393442623,1.882185684,0.240989182
056,70,0,2,6,22,142,1026.894062536434,1031.4071303441015,stimuli/259_xc.png,l,4.501192959301989,harmless,0.333,6.568965517,0.993170874,0.130409725
056,70,0,2,6,23,143,1032.0337864661997,1038.007084894285,stimuli/302_za.png,a,5.961548428880633,awful,0.333,3.137931034,2.188071937,0.287307921
056,70,0,2,6,24,144,1038.567544181642,1044.647153045371,stimuli/119_xc.png,l,6.06771117230528,harmless,0.333,6.694915254,0.914523379,0.119060803
056,70,0,2,7,1,145,1056.4196290444088,1063.3670963000623,stimuli/217_yb.png,l,6.936359619139694,ambig,0.333,5.169491525,2.001314588,0.260548967
056,70,0,2,7,2,146,1063.9172124058387,1083.5911312200042,stimuli/198_yb.png,a,19.662199534941465,ambig,0.333,5.101694915,1.83542643,0.238952168
056,70,0,2,7,3,147,1084.149852859162,1088.5750252849102,stimuli/326_zb.png,a,4.413359017344192,awful,0.333,3.389830508,2.220724867,0.289113752
056,70,0,2,7,4,148,1089.133035244493,1094.895071175837,stimuli/238_xb.png,l,5.749595126399072,harmless,0.333,6.4,1.076718178,0.139003719
056,70,0,2,7,5,149,1095.4459324381023,1102.1670276920922,stimuli/335_yb.png,a,6.709227888699388,ambig,0.333,5.016949153,2.046793332,0.266469795
056,70,0,2,7,6,150,1102.7260608633806,1109.9190678139712,stimuli/125_xc.png,l,7.181130133001716,harmless,0.333,6.683333333,0.999858747,0.129081209
056,70,0,2,7,7,151,1110.4772479149833,1114.7830113774253,stimuli/373_zb.png,a,4.293845684864209,awful,0.333,2.327586207,1.858011869,0.243968911
056,70,0,2,7,8,152,1115.3359438753832,1120.3590791724855,stimuli/110_xa.png,l,5.011168682627613,harmless,0.333,6.428571429,1.059281795,0.141552484
056,70,0,2,7,9,153,1120.9592294640897,1126.655057926866,stimuli/371_zb.png,l,5.683779534505447,awful,0.333,3.131147541,2.085468851,0.267016925
056,70,0,2,7,10,154,1127.210260946551,1133.9270085354365,stimuli/301_za.png,a,6.704876285119099,awful,0.333,3.610169492,2.212947396,0.288101212
056,70,0,2,7,11,155,1134.4755567405955,1140.2950331303146,stimuli/254_ya.png,l,5.807407769156271,ambig,0.333,5.983606557,1.627798137,0.208418195
056,70,0,2,7,12,156,1140.8448676362605,1146.791220701809,stimuli/189_yb.png,l,5.934433318732772,ambig,0.333,5.983333333,1.455459234,0.187898979
056,70,0,2,7,13,157,1147.3457955372578,1152.5990368891798,stimuli/175_xb.png,l,5.241350749711273,harmless,0.333,6.6,1.028409995,0.13276716
056,70,0,2,7,14,158,1153.1581346511957,1160.1910727732757,stimuli/369_za.png,a,7.021140467506484,awful,0.333,2.948275862,2.055565093,0.26990892
056,70,0,2,7,15,159,1160.751244946965,1166.3670514016267,stimuli/317_za.png,a,5.604072603135137,awful,0.333,3.65,2.03215674,0.262350307
056,70,0,2,7,16,160,1166.923896364955,1172.4390102021862,stimuli/142_xa.png,l,5.503135407372611,harmless,0.333,6.4,1.076718178,0.139003719
056,70,0,2,7,17,161,1173.0007542149397,1176.9270124738978,stimuli/292_zb.png,a,3.9144645428459626,awful,0.333,2.396551724,1.955107169,0.256718148
056,70,0,2,7,18,162,1177.4860432821006,1182.4550326419558,stimuli/121_xc.png,l,4.957046376148355,harmless,0.333,6.508474576,1.006408455,0.131023221
056,70,0,2,7,19,163,1183.017176014473,1189.1349985663983,stimuli/289_yb.png,l,6.106091063469648,ambig,0.333,5.305084746,1.714584873,0.223219937
056,70,0,2,7,20,164,1189.6884024979372,1194.6630207036942,stimuli/151_xa.png,l,4.962900108075701,harmless,0.333,6.610169492,0.947172729,0.123311386
056,70,0,2,7,21,165,1195.2189649414067,1198.894982166661,stimuli/331_za.png,a,3.6641006292047678,awful,0.333,1.983606557,1.638004917,0.209725039
056,70,0,2,7,22,166,1199.4534202367504,1204.6789872173395,stimuli/223_yb.png,l,5.213682679910562,ambig,0.333,5.542372881,1.77455224,0.231027024
056,70,0,2,7,23,167,1205.238166899304,1210.854978448755,stimuli/147_ya.png,l,5.604968602609006,ambig,0.333,5.883333333,1.766847875,0.22809908
056,70,0,2,7,24,168,1211.4103224652936,1216.4230243900965,stimuli/136_xc.png,l,5.000820381057565,harmless,0.333,6.559322034,1.038420326,0.135190811
056,70,0,2,8,1,169,1226.0350837946607,1234.1029859822447,stimuli/350_ya.png,a,8.055980471544899,ambig,0.333,4.915254237,2.02814792,0.264042369
056,70,0,2,8,2,170,1234.649549991649,1240.5269571779208,stimuli/218_yb.png,l,5.865877740769065,ambig,0.333,5.850282486,1.552723069,0.0825263
056,70,0,2,8,3,171,1241.0744057652773,1246.1830257134134,stimuli/291_za.png,a,5.0966931121074595,awful,0.333,2.593220339,1.830005126,0.238246374
056,70,0,2,8,4,172,1246.7302576855145,1251.7909895142511,stimuli/330_ya.png,a,5.048830986532266,ambig,0.333,4.796610169,2.049219036,0.266785595
056,70,0,2,8,5,173,1252.340004032987,1260.751003125566,stimuli/328_za.png,a,8.399136453430401,awful,0.333,2.706896552,1.955725922,0.256799395
056,70,0,2,8,6,174,1261.3087685068167,1266.0070368450833,stimuli/174_xc.png,l,4.686314720704104,harmless,0.333,6.533333333,1.111826512,0.143536185
056,70,0,2,8,7,175,1266.5583703285956,1274.3909696644114,stimuli/337_zb.png,a,7.820746936660726,awful,0.333,3.033333333,2.20143764,0.284204377
056,70,0,2,8,8,176,1275.034855757869,1279.7270013674424,stimuli/349_za.png,a,4.680151819731691,awful,0.333,3.288135593,2.101320172,0.273568585
056,70,0,2,8,9,177,1280.2785955769505,1285.7509625594394,stimuli/207_yb.png,l,5.46053978947748,ambig,0.333,5.655737705,1.662179753,0.212820309
056,70,0,2,8,10,178,1286.3098626107967,1291.4069700488035,stimuli/219_ya.png,l,5.085223137342837,ambig,0.333,5.271186441,1.998538332,0.260187529
056,70,0,2,8,11,179,1291.9645113317383,1296.7829609651526,stimuli/313_zb.png,a,4.806541701982496,awful,0.333,2.101694915,1.688652955,0.219843889
056,70,0,2,8,12,180,1297.3395235409553,1302.3749759753991,stimuli/240_xa.png,l,5.02352284148219,harmless,0.333,6.482758621,1.096107616,0.143925981
056,70,0,2,8,13,181,1302.932702759761,1308.9269545785355,stimuli/244_xb.png,l,5.982384847331559,harmless,0.333,6.610169492,0.743174671,0.096753101
056,70,0,2,8,14,182,1309.4805113222828,1314.5748874388373,stimuli/108_xb.png,l,5.08256546506891,harmless,0.333,6.568965517,1.077880782,0.141532681
056,70,0,2,8,15,183,1315.1218854664621,1319.7349121566076,stimuli/278_xb.png,l,4.601155780241243,harmless,0.333,6.360655738,1.140654591,0.146045855
056,70,0,2,8,16,184,1320.29346641124,1325.4069066396187,stimuli/101_xa.png,l,5.101774512193515,harmless,0.333,6.508522727,1.13475832,0.060482822
056,70,0,2,8,17,185,1325.9849767473352,1333.086900920971,stimuli/352_zb.png,a,7.090063503710553,awful,0.333,2.93442623,2.135952968,0.273480754
056,70,0,2,8,18,186,1333.6381666629895,1345.6790069096314,stimuli/342_yb.png,l,12.029138690471882,ambig,0.333,4.916666667,2.085394461,0.269223267
056,70,0,2,8,19,187,1346.232975616207,1350.7908859327727,stimuli/205_yb.png,l,4.546098483537207,ambig,0.333,5.847457627,1.52918233,0.199082582
056,70,0,2,8,20,188,1351.3425309484155,1355.9188811310014,stimuli/104_xc.png,l,4.564445008087205,harmless,0.333,6.745762712,0.756425814,0.098478253
056,70,0,2,8,21,189,1356.4818960845441,1360.5989006184973,stimuli/185_xa.png,l,4.10513047328277,harmless,0.333,6.5,0.965506805,0.124646393
056,70,0,2,8,22,190,1361.1535573738947,1366.134915464907,stimuli/372_zb.png,a,4.969517507226556,awful,0.333,2.796610169,2.082601664,0.271131643
056,70,0,2,8,23,191,1366.6867365296785,1372.0229214387655,stimuli/288_yb.png,l,5.3242316853720695,ambig,0.333,5.189655172,1.914459262,0.251380817
056,70,0,2,8,24,192,1372.6631597313099,1382.798889275742,stimuli/340_za.png,a,10.12419222202152,awful,0.333,2.508474576,1.832398855,0.238558011
056,70,0,2,9,1,193,1393.3972066084243,1401.1029213915026,stimuli/329_zb.png,l,7.6939671469444875,awful,0.333,2.406779661,1.992387617,0.259386774
056,70,0,2,9,2,194,1401.653145804914,1408.9269037724152,stimuli/267_ya.png,l,7.2617787499621045,ambig,0.333,5.103448276,1.898195405,0.249245267
056,70,0,2,9,3,195,1409.4812458449305,1420.1109534852294,stimuli/263_ya.png,a,10.617980090304627,ambig,0.333,4.983050847,2.071910042,0.269739712
056,70,0,2,9,4,196,1420.6694210937567,1426.0628601720964,stimuli/167_xb.png,l,5.3815083038498415,harmless,0.333,6.590163934,0.955284411,0.122311635
056,70,0,2,9,5,197,1426.720142146878,1431.422907811706,stimuli/322_za.png,a,4.690847493417095,awful,0.333,2.406779661,1.975004531,0.257123689
056,70,0,2,9,6,198,1431.9874690043216,1436.654910234647,stimuli/148_xc.png,l,4.654638087115018,harmless,0.333,6.491525424,1.135218061,0.147792803
056,70,0,2,9,7,199,1437.216530185935,1441.054856829127,stimuli/195_xc.png,l,3.8266317824163707,harmless,0.333,6.637640449,1.001766915,0.05309354
056,70,0,2,9,8,200,1441.608209560698,1455.2628799431695,stimuli/245_yb.png,l,13.642814438717323,ambig,0.333,4.949152542,2.096168334,0.272897873
056,70,0,2,9,9,201,1455.8101690229232,1465.9828747916617,stimuli/343_zb.png,a,10.161002637192723,awful,0.333,3.103448276,2.141401862,0.28117984
056,70,0,2,9,10,202,1466.5318995503912,1484.4548743158957,stimuli/339_ya.png,l,17.911213738610968,ambig,0.333,4.949152542,1.960152429,0.25519011
056,70,0,2,9,11,203,1485.0143875853537,1496.4388333653624,stimuli/210_yb.png,l,11.412705233102315,ambig,0.333,5.557377049,1.76564049,0.226067099
056,70,0,2,9,12,204,1496.9998483693198,1501.8148341278575,stimuli/242_xb.png,l,4.803132177839871,harmless,0.333,6.576271186,0.913564256,0.118935936
056,70,0,2,9,13,205,1502.4428891906718,1506.9908324485004,stimuli/192_za.png,a,4.53603493256378,awful,0.333,2.68852459,2.093967396,0.268105052
056,70,0,2,9,14,206,1507.545546705398,1511.9268301232223,stimuli/138_xc.png,l,4.3694924586307025,harmless,0.333,6.661016949,0.70978796,0.092406522
056,70,0,2,9,15,207,1512.4816822262073,1518.1508099047496,stimuli/243_ya.png,l,5.657367833176977,ambig,0.333,5.830508475,1.652088985,0.215083666
056,70,0,2,9,16,208,1518.700805099841,1522.8067894310661,stimuli/116_xa.png,l,4.094162652065279,harmless,0.333,6.63559322,0.958030802,0.050918763
056,70,0,2,9,17,209,1523.3594182738161,1526.4948122615315,stimuli/179_xb.png,l,3.123538831641781,harmless,0.333,6.704918033,0.882123617,0.112944356
056,70,0,2,9,18,210,1527.110343417895,1545.9267808924924,stimuli/345_zb.png,l,18.804806416854262,awful,0.333,3.694915254,2.191317013,0.285285176
056,70,0,2,9,19,211,1546.4878254348878,1551.7188239445677,stimuli/281_ya.png,l,5.219297741205082,ambig,0.333,5.881355932,1.543448286,0.200939852
056,70,0,2,9,20,212,1552.3579693146748,1558.6068389768916,stimuli/268_zb.png,a,6.2370487707376014,awful,0.333,2.655737705,2.048456703,0.262278005
056,70,0,2,9,21,213,1559.1591996105708,1563.7268355583074,stimuli/304_ya.png,a,4.555770157821826,ambig,0.333,4.034482759,2.017167697,0.264867095
056,70,0,2,9,22,214,1564.363785237394,1579.6387853949418,stimuli/338_zb.png,l,15.26344314283051,awful,0.333,3.310344828,2.137443107,0.28066003
056,70,0,2,9,23,215,1580.1905202074558,1583.8707697009668,stimuli/107_xa.png,l,3.6684226943471003,harmless,0.333,6.813559322,0.540580029,0.070377525
056,70,0,2,9,24,216,1584.4252712810703,1592.1427687525866,stimuli/293_zb.png,a,7.705527312427876,awful,0.333,3.677966102,2.169066842,0.28238845
056,70,0,2,10,1,217,1604.5294620379864,1610.5267701011035,stimuli/307_za.png,a,5.985639196165721,awful,0.333,2.93220339,2.172432347,0.282826601
056,70,0,2,10,2,218,1611.0756404722342,1615.190763210383,stimuli/353_zb.png,a,4.103076566796517,awful,0.333,1.949152542,1.623361018,0.211343603
056,70,0,2,10,3,219,1615.748272985642,1620.9107749942486,stimuli/284_ya.png,l,5.150725621715537,ambig,0.333,5.948275862,1.431750417,0.18799804
056,70,0,2,10,4,220,1621.5297633301088,1632.1427644202777,stimuli/199_za.png,a,10.601489761582343,awful,0.333,3.033898305,2.189048775,0.284989876
056,70,0,2,10,5,221,1632.7027975663514,1639.7507648487808,stimuli/237_ya.png,l,7.0360565940791275,ambig,0.333,4.305084746,2.019339575,0.26289562
056,70,0,2,10,6,222,1640.3117381050688,1649.2308027682739,stimuli/200_ya.png,l,8.907203205599217,ambig,0.333,5.862068966,1.444266048,0.189641423
056,70,0,2,10,7,223,1649.7805923757696,1652.6707034560823,stimuli/229_za.png,a,2.878240958089009,awful,0.333,3.406779661,2.043649913,0.266060557
056,70,0,2,10,8,224,1653.2335817450803,1658.3827256815857,stimuli/308_zb.png,a,5.137297445035074,awful,0.333,1.644067797,1.471132708,0.191525165
056,70,0,2,10,9,225,1658.93599294858,1667.598708815538,stimuli/230_yb.png,l,8.650996981567005,ambig,0.333,4.98245614,1.875511626,0.248417583
056,70,0,2,10,10,226,1668.152649165204,1673.358753068067,stimuli/215_yb.png,l,5.1941719468304655,ambig,0.333,5.866666667,1.466769385,0.189359113
056,70,0,2,10,11,227,1674.001759309729,1677.6227357798052,stimuli/298_za.png,a,3.609259160075453,awful,0.333,2.881355932,2.026418156,0.263817173
056,70,0,2,10,12,228,1678.169180847748,1682.758717779463,stimuli/157_xc.png,l,4.577621123375138,harmless,0.333,6.603448276,0.877389573,0.115206895
056,70,0,2,10,13,229,1683.3097350047174,1688.1987728548847,stimuli/191_ya.png,l,4.8771031372161815,ambig,0.333,5.517241379,2.062542966,0.270825159
056,70,0,2,10,14,230,1688.7480142288696,1693.1587360539124,stimuli/290_zb.png,a,4.39894228738558,awful,0.333,2.586206897,2.026443456,0.266085062
056,70,0,2,10,15,231,1693.71665936739,1698.7987211035215,stimuli/197_xa.png,l,5.070298739999998,harmless,0.333,6.779661017,0.55918033,0.072799078
056,70,0,2,10,16,232,1699.3570504721429,1708.6147151076148,stimuli/260_ya.png,l,9.245788999411161,ambig,0.333,4.966101695,2.016877936,0.262575142
056,70,0,2,10,17,233,1709.1696097459499,1713.2467094173335,stimuli/255_xb.png,l,4.065187801490538,harmless,0.333,6.770491803,0.642740036,0.082294429
056,70,0,2,10,18,234,1713.797616365715,1717.574738171228,stimuli/162_xa.png,l,3.7653466001647757,harmless,0.333,6.644067797,0.905209289,0.117848212
056,70,0,2,10,19,235,1718.1285623363656,1727.9587974151073,stimuli/253_ya.png,l,9.818319270401844,ambig,0.333,5.491803279,1.849531029,0.236808182
056,70,0,2,10,20,236,1728.5161445319973,1733.038667398694,stimuli/351_zb.png,a,4.5105873660504585,awful,0.333,3.06779661,2.033040926,0.264679384
056,70,0,2,10,21,237,1733.5931835511,1737.5586724084133,stimuli/106_xc.png,l,3.953399362915661,harmless,0.333,6.661016949,0.863237081,0.112383896
056,70,0,2,10,22,238,1738.1104922916566,1743.2147826915752,stimuli/182_xb.png,l,5.092678640634404,harmless,0.333,6.542372881,0.988241802,0.128658124
056,70,0,2,10,23,239,1743.7647471666714,1748.878730114724,stimuli/274_xb.png,l,5.102265638051904,harmless,0.333,6.491525424,1.179901828,0.153610134
056,70,0,2,10,24,240,1749.437954695124,1753.9747005195677,stimuli/126_xa.png,l,4.524805597655359,harmless,0.333,6.6,0.977717855,0.126222832
