id,age,condition,counterbalance,block,trialinblock,trial,tstart,tend,trialstim,response,RT,trialtype,ethicfreq,norm_mean,norm_sd,norm_se
150,22,1,2,0,0,practice,3.5446137189865112e-06,8.663916573976167,stimuli/prac_217_1.png,l,8.643746558809653,harmless,NA,NA,NA,NA
150,22,1,2,1,1,1,5.309440164128318,10.623813244630583,stimuli/112_xc.png,l,5.302694770391099,harmless,0.333,6.706896552,0.749470472,0.098410294
150,22,1,2,1,2,2,11.183738823630847,17.1037893461762,stimuli/259_xc.png,a,5.908027597586624,harmless,0.333,6.568965517,0.993170874,0.130409725
150,22,1,2,1,3,3,17.669508000137284,23.983812551479787,stimuli/181_xa.png,l,6.302239091019146,harmless,0.333,6.666666667,0.950765377,0.122743282
150,22,1,2,1,4,4,24.54241559689399,34.5997559732059,stimuli/225_ya.png,a,10.045333599089645,ambig,0.333,5.85,1.792876677,0.231459384
150,22,1,2,1,5,5,35.15218155016191,40.19975376769435,stimuli/346_zb.png,a,5.035429563489743,awful,0.333,1.288135593,0.983499162,0.128040685
150,22,1,2,1,6,6,40.74926291790325,45.815712155541405,stimuli/182_xb.png,l,5.054419617285021,harmless,0.333,6.542372881,0.988241802,0.128658124
150,22,1,2,1,7,7,46.37459798203781,54.83978006080724,stimuli/355_zb.png,a,8.452982710907236,awful,0.333,3.183333333,2.070713188,0.267327923
150,22,1,2,1,8,8,55.38986028719228,59.999768024892546,stimuli/360_za.png,a,4.597912381985225,awful,0.333,3.2,2.207844259,0.285031468
150,22,1,2,1,9,9,60.562102757394314,71.00777766306419,stimuli/350_ya.png,a,10.433569666929543,ambig,0.333,4.915254237,2.02814792,0.264042369
150,22,1,2,1,10,10,71.55968297005165,78.97571351041552,stimuli/254_ya.png,l,7.404078901512548,ambig,0.333,5.983606557,1.627798137,0.208418195
150,22,1,2,1,11,11,79.52949943009298,84.55970305611845,stimuli/290_zb.png,a,5.018446546862833,awful,0.333,2.586206897,2.026443456,0.266085062
150,22,1,2,1,12,12,85.10792118043173,90.4397301999852,stimuli/352_zb.png,a,5.319731350056827,awful,0.333,2.93442623,2.135952968,0.273480754
150,22,1,2,1,13,13,90.99768694466911,100.5677382942522,stimuli/171_xa.png,l,9.55800715694204,harmless,0.333,6.465517241,1.046556882,0.137419651
150,22,1,2,1,14,14,101.1233292084653,112.24765366478823,stimuli/218_yb.png,a,11.112344854394905,ambig,0.333,5.850282486,1.552723069,0.0825263
150,22,1,2,1,15,15,112.81101515272167,123.67168320948258,stimuli/228_ya.png,l,10.848727445467375,ambig,0.333,5.442622951,1.793735303,0.229664272
150,22,1,2,1,16,16,124.23224091064185,130.70364220545162,stimuli/362_zb.png,a,6.459335440769792,awful,0.333,1.474576271,1.222715071,0.159183944
150,22,1,2,1,17,17,131.26258710876573,137.54363494284917,stimuli/260_ya.png,a,6.269228921155445,ambig,0.333,4.966101695,2.016877936,0.262575142
150,22,1,2,1,18,18,138.10664551449008,144.23163596377708,stimuli/138_xc.png,l,6.112939561251551,harmless,0.333,6.661016949,0.70978796,0.092406522
150,22,1,2,1,19,19,144.79464495996945,159.49560428911354,stimuli/279_ya.png,a,14.689095911686309,ambig,0.333,5.31147541,1.970964092,0.252356093
150,22,1,2,1,20,20,160.04451046173926,166.0077276446391,stimuli/220_yb.png,a,5.951210799510591,ambig,0.333,4.75,2.096203186,0.270618668
150,22,1,2,1,21,21,166.5603233629372,172.2715573364403,stimuli/371_zb.png,a,5.699350863695145,awful,0.333,3.131147541,2.085468851,0.267016925
150,22,1,2,1,22,22,172.82665161124896,180.9516215805197,stimuli/272_xb.png,l,8.113010059576482,harmless,0.333,6.355932203,1.029943284,0.134087194
150,22,1,2,1,23,23,181.5586621222319,186.79157138883602,stimuli/163_xa.png,l,5.2205815052147955,harmless,0.333,6.627118644,0.963082427,0.125382652
150,22,1,2,1,24,24,187.34371930465568,194.34358460945077,stimuli/351_zb.png,a,6.988070416497067,awful,0.333,3.06779661,2.033040926,0.264679384
150,22,1,2,2,1,25,203.12510820908938,213.8476530346088,stimuli/252_zb.png,a,10.710705432691611,awful,0.333,2.711864407,1.983125776,0.258180985
150,22,1,2,2,2,26,214.38886976544745,220.10352428804617,stimuli/139_xa.png,l,5.702453579404391,harmless,0.333,6.724137931,0.790138861,0.103750315
150,22,1,2,2,3,27,220.65583564981353,228.65548000717536,stimuli/118_xb.png,l,7.987606860115193,harmless,0.333,6.474576271,0.953323265,0.124112118
150,22,1,2,2,4,28,229.21612435439602,234.56748505157884,stimuli/317_za.png,a,5.339348406065255,awful,0.333,3.65,2.03215674,0.262350307
150,22,1,2,2,5,29,235.11029449407943,240.69546793971676,stimuli/119_xc.png,l,5.573345474200323,harmless,0.333,6.694915254,0.914523379,0.119060803
150,22,1,2,2,6,30,241.24512832670007,247.4715096022701,stimuli/333_za.png,a,6.2144902888685465,awful,0.333,3.266666667,2.185209657,0.282109354
150,22,1,2,2,7,31,248.02634669595864,253.5434785861289,stimuli/266_zb.png,a,5.505243660416454,awful,0.333,3.491525424,1.888010094,0.245797978
150,22,1,2,2,8,32,254.10452229285147,263.87153189396486,stimuli/313_zb.png,a,9.754946503904648,awful,0.333,2.101694915,1.688652955,0.219843889
150,22,1,2,2,9,33,264.4321214966476,282.6874547569314,stimuli/238_xb.png,a,18.243231566273607,harmless,0.333,6.4,1.076718178,0.139003719
150,22,1,2,2,10,34,283.24473999487236,293.5193866563495,stimuli/151_xa.png,l,10.262757643940859,harmless,0.333,6.610169492,0.947172729,0.123311386
150,22,1,2,2,11,35,294.0725439983653,300.151399372844,stimuli/275_yb.png,a,6.066621348261833,ambig,0.333,4.836065574,2.138382004,0.27379176
150,22,1,2,2,12,36,300.7121599044185,304.4873563742731,stimuli/161_xc.png,l,3.7632219878723845,harmless,0.333,6.796610169,0.609682252,0.079373868
150,22,1,2,2,13,37,305.0408559682546,309.4073363984935,stimuli/158_xa.png,l,4.354472471401095,harmless,0.333,6.786885246,0.661179605,0.084655374
150,22,1,2,2,14,38,309.96200256305747,316.5193795671221,stimuli/246_ya.png,a,6.545285549946129,ambig,0.333,5.542372881,1.715266481,0.223308675
150,22,1,2,2,15,39,317.07167753810063,320.99134603037965,stimuli/191_ya.png,a,3.9075065398355946,ambig,0.333,5.517241379,2.062542966,0.270825159
150,22,1,2,2,16,40,321.540421556565,326.7113529148046,stimuli/265_yb.png,a,5.1589080394478515,ambig,0.333,5.627118644,1.856008928,0.241631781
150,22,1,2,2,17,41,327.258820369374,330.9033652531216,stimuli/247_ya.png,a,3.6325069926679134,ambig,0.333,4.65,2.081598147,0.268733165
150,22,1,2,2,18,42,331.46318055537995,338.5433517679339,stimuli/258_ya.png,a,7.068176250671968,ambig,0.333,5.627118644,1.78014243,0.231754804
150,22,1,2,2,19,43,339.1037881645607,351.2474220835138,stimuli/269_za.png,a,12.131583424750715,awful,0.333,3.457627119,2.119873401,0.27598401
150,22,1,2,2,20,44,351.8068006108515,355.18337057798635,stimuli/331_za.png,a,3.3647447526454926,awful,0.333,1.983606557,1.638004917,0.209725039
150,22,1,2,2,21,45,355.7444119214779,360.4313302608207,stimuli/284_ya.png,a,4.6748855682089925,ambig,0.333,5.948275862,1.431750417,0.18799804
150,22,1,2,2,22,46,361.04938942112494,367.37536046712194,stimuli/166_xa.png,l,6.314165130024776,harmless,0.333,6.593220339,1.052397002,0.13701042
150,22,1,2,2,23,47,367.93258032680023,375.56728931027465,stimuli/325_yb.png,a,7.6226517939940095,ambig,0.333,5.131147541,1.811770863,0.231973488
150,22,1,2,2,24,48,376.1094339414267,381.7353873432148,stimuli/338_zb.png,a,5.613956470624544,awful,0.333,3.310344828,2.137443107,0.28066003
150,22,1,2,3,1,49,391.8113916692091,396.6312927666586,stimuli/201_yb.png,l,4.808111329097301,ambig,0.333,5.898305085,1.626238682,0.211718243
150,22,1,2,3,2,50,397.1789717163192,402.51139789191075,stimuli/263_ya.png,a,5.320578118087724,ambig,0.333,4.983050847,2.071910042,0.269739712
150,22,1,2,3,3,51,403.0711474218406,415.03125834453385,stimuli/142_xa.png,l,11.94808051455766,harmless,0.333,6.4,1.076718178,0.139003719
150,22,1,2,3,4,52,415.58657120366115,419.887204586179,stimuli/126_xa.png,l,4.288777054171078,harmless,0.333,6.6,0.977717855,0.126222832
150,22,1,2,3,5,53,420.4457331948215,427.8712573836092,stimuli/212_ya.png,a,7.413504414609633,ambig,0.333,5.677966102,1.490668422,0.194068498
150,22,1,2,3,6,54,428.43027199758217,434.8793410647195,stimuli/367_zb.png,a,6.437031176057644,awful,0.333,3.413793103,2.086165649,0.27392697
150,22,1,2,3,7,55,435.43051775731146,449.0311909969896,stimuli/368_za.png,l,13.588743656175211,awful,0.333,3.590163934,2.02794682,0.259651984
150,22,1,2,3,8,56,449.58674331428483,454.1192292756168,stimuli/262_ya.png,a,4.52054771326948,ambig,0.333,5.491525424,1.7750462,0.231091332
150,22,1,2,3,9,57,454.68187947850674,465.199226802215,stimuli/359_za.png,a,10.50528816494625,awful,0.333,2.01754386,1.641985167,0.217486248
150,22,1,2,3,10,58,465.7583272745833,470.72721819754224,stimuli/203_yb.png,a,4.956950705498457,ambig,0.333,6,1.542501327,0.200816568
150,22,1,2,3,11,59,471.2904954026453,477.4552118771244,stimuli/214_xb.png,a,6.152609660406597,harmless,0.333,6.465517241,0.940614156,0.12350869
150,22,1,2,3,12,60,478.0084664990427,481.48713345767464,stimuli/305_zb.png,a,3.4665932275820524,awful,0.333,2.75,2.12830003,0.274762352
150,22,1,2,3,13,61,482.0407744422555,488.63122108671814,stimuli/193_xc.png,l,6.578419781057164,harmless,0.333,6.482758621,1.012923151,0.133003326
150,22,1,2,3,14,62,489.19505282642785,501.09516097651795,stimuli/199_za.png,a,11.888123428099789,awful,0.333,3.033898305,2.189048775,0.284989876
150,22,1,2,3,15,63,501.64899061305914,506.14308804890607,stimuli/115_xb.png,l,4.482245046063326,harmless,0.333,6.440677966,1.021681954,0.133011661
150,22,1,2,3,16,64,506.70192149397917,517.9111515808618,stimuli/128_xc.png,l,11.197372577153146,harmless,0.333,6.627118644,0.98082135,0.127692063
150,22,1,2,3,17,65,518.46222035971,522.1831338767661,stimuli/334_za.png,a,3.7089134351117536,awful,0.333,3.333333333,2.214487481,0.285889104
150,22,1,2,3,18,66,522.7436313194921,526.1430923811859,stimuli/311_za.png,a,3.387620093417354,awful,0.333,3.116666667,1.975199339,0.254997138
150,22,1,2,3,19,67,526.6970937344013,531.6551058538025,stimuli/159_xa.png,l,4.945875766919926,harmless,0.333,6.389830508,1.174689235,0.152931512
150,22,1,2,3,20,68,532.2131425492698,537.6712165024364,stimuli/314_zb.png,a,5.446104985079728,awful,0.333,1.833333333,1.451669602,0.18740974
150,22,1,2,3,21,69,538.2316977975424,544.1510634224396,stimuli/277_yb.png,a,5.907542379689403,ambig,0.333,5.491525424,2.02886822,0.264136144
150,22,1,2,3,22,70,544.7087728321785,550.1830511691514,stimuli/210_yb.png,a,5.462281405809335,ambig,0.333,5.557377049,1.76564049,0.226067099
150,22,1,2,3,23,71,550.7297884339932,553.439062631689,stimuli/261_yb.png,a,2.6969204423949122,ambig,0.333,5.706896552,1.901141123,0.249632059
150,22,1,2,3,24,72,553.9926398132229,557.4790777395247,stimuli/153_xb.png,l,3.4744780167238787,harmless,0.333,6.633333333,0.973664521,0.125699549
150,22,1,2,4,1,73,568.7100642519072,574.2070733883884,stimuli/248_zb.png,a,5.485309952637181,awful,0.333,3.288135593,1.991800844,0.259310383
150,22,1,2,4,2,74,574.7566652462119,577.8310110883322,stimuli/312_yb.png,a,3.0622965295333415,ambig,0.333,4.677966102,2.112692986,0.275049199
150,22,1,2,4,3,75,578.3802106758812,582.6311293207109,stimuli/124_xa.png,l,4.238875239971094,harmless,0.333,6.344262295,1.181598436,0.151288177
150,22,1,2,4,4,76,583.1924896792043,586.8870486234082,stimuli/148_xc.png,l,3.6825360192451626,harmless,0.333,6.491525424,1.135218061,0.147792803
150,22,1,2,4,5,77,587.4427309096791,593.4630470416741,stimuli/307_za.png,a,6.008363311528228,awful,0.333,2.93220339,2.172432347,0.282826601
150,22,1,2,4,6,78,594.0229686821112,605.7030120524578,stimuli/288_yb.png,a,11.667950340779498,ambig,0.333,5.189655172,1.914459262,0.251380817
150,22,1,2,4,7,79,606.2577652569162,620.2789588769665,stimuli/144_xa.png,l,14.009167150477879,harmless,0.333,6.542372881,1.00553698,0.130909764
150,22,1,2,4,8,80,620.8361054812558,623.7909605342429,stimuli/200_ya.png,l,2.942836460308172,ambig,0.333,5.862068966,1.444266048,0.189641423
150,22,1,2,4,9,81,624.3516450537136,632.7589243445545,stimuli/188_xa.png,l,8.395158298313618,harmless,0.333,6.655172414,0.806807095,0.105938962
150,22,1,2,4,10,82,633.3195013441145,637.0709485298721,stimuli/345_zb.png,a,3.7395349313737825,awful,0.333,3.694915254,2.191317013,0.285285176
150,22,1,2,4,11,83,637.6315089878626,644.3269280908862,stimuli/324_za.png,a,6.68340838723816,awful,0.333,2.491525424,1.994586478,0.259673041
150,22,1,2,4,12,84,644.8812815421261,648.1269317142433,stimuli/299_za.png,a,3.233685142477043,awful,0.333,1.288135593,0.929420425,0.121000233
150,22,1,2,4,13,85,648.6776038905373,653.6149135153973,stimuli/205_yb.png,l,4.92551985650789,ambig,0.333,5.847457627,1.52918233,0.199082582
150,22,1,2,4,14,86,654.163809841848,659.9509386521531,stimuli/170_xc.png,l,5.775208285194822,harmless,0.333,6.583333333,1.062323432,0.137145365
150,22,1,2,4,15,87,660.5080261796247,660.5748716259841,stimuli/245_yb.png,l,0.05487450899090618,ambig,0.333,4.949152542,2.096168334,0.272897873
150,22,1,2,4,16,88,661.1330418350408,667.4389058811357,stimuli/253_ya.png,l,6.293773379642516,ambig,0.333,5.491803279,1.849531029,0.236808182
150,22,1,2,4,17,89,667.9901286535896,671.9269069806905,stimuli/147_ya.png,a,3.924788485164754,ambig,0.333,5.883333333,1.766847875,0.22809908
150,22,1,2,4,18,90,672.4751869387692,679.9189355456037,stimuli/250_yb.png,a,7.431744192610495,ambig,0.333,5.950819672,1.585625318,0.203018519
150,22,1,2,4,19,91,680.4759222485591,693.3669109033654,stimuli/157_xc.png,l,12.8789673052961,harmless,0.333,6.603448276,0.877389573,0.115206895
150,22,1,2,4,20,92,693.9298588535748,702.87091079948,stimuli/300_za.png,a,8.929051470127888,awful,0.333,3.75,2.12032137,0.273732312
150,22,1,2,4,21,93,703.4306118864333,707.4388578319922,stimuli/357_za.png,a,3.9962627990171313,awful,0.333,2.793103448,2.066937905,0.271402243
150,22,1,2,4,22,94,707.9916953714564,712.3668707311153,stimuli/143_xb.png,a,4.363293037633412,harmless,0.333,6.655172414,0.738697862,0.096995781
150,22,1,2,4,23,95,712.9139400077984,727.230810069479,stimuli/197_xa.png,l,14.30489597353153,harmless,0.333,6.779661017,0.55918033,0.072799078
150,22,1,2,4,24,96,727.7924933814211,732.9107837290503,stimuli/321_zb.png,a,5.1062079520197585,awful,0.333,2.918032787,2.177881861,0.278849198
150,22,1,2,5,1,97,741.567952546291,746.9987924692687,stimuli/237_ya.png,a,5.419321514200419,ambig,0.25,4.305084746,2.019339575,0.26289562
150,22,1,2,5,2,98,747.5606266240356,752.0947714631911,stimuli/239_ya.png,a,4.522327107726596,ambig,0.25,5.157894737,1.925296579,0.255011762
150,22,1,2,5,3,99,752.6534060161794,756.958777755266,stimuli/303_zb.png,a,4.293337786453776,awful,0.25,3.620689655,2.158846233,0.283470398
150,22,1,2,5,4,100,757.5132883508923,764.0788218975067,stimuli/281_ya.png,l,6.5537083321250975,ambig,0.25,5.881355932,1.543448286,0.200939852
150,22,1,2,5,5,101,764.6428706460865,768.2947237291373,stimuli/185_xa.png,l,3.6399494933430105,harmless,0.25,6.5,0.965506805,0.124646393
150,22,1,2,5,6,102,768.8789385545533,773.5907873209799,stimuli/172_xb.png,l,4.70007593347691,harmless,0.25,6.482758621,1.127664553,0.14806961
150,22,1,2,5,7,103,774.1420396318426,777.1107647457393,stimuli/122_xa.png,l,2.95640956168063,harmless,0.25,6.457627119,1.039264227,0.135300678
150,22,1,2,5,8,104,777.6737193912268,786.6627893878613,stimuli/268_zb.png,a,8.977069914690219,awful,0.25,2.655737705,2.048456703,0.262278005
150,22,1,2,5,9,105,787.2186158216791,792.6467756252969,stimuli/152_xa.png,l,5.416158934007399,harmless,0.25,6.576271186,0.968528743,0.126091702
150,22,1,2,5,10,106,793.2238480605884,800.2547866025707,stimuli/136_xc.png,l,7.0191278997808695,harmless,0.25,6.559322034,1.038420326,0.135190811
150,22,1,2,5,11,107,800.8167889293982,806.582686704467,stimuli/339_ya.png,a,5.7537464563502,ambig,0.25,4.949152542,1.960152429,0.25519011
150,22,1,2,5,12,108,807.1435165528674,813.102696424583,stimuli/310_zb.png,a,5.947336934157647,awful,0.25,3.224137931,2.102989547,0.276136056
150,22,1,2,5,13,109,813.6497070181649,820.7827031671768,stimuli/167_xb.png,l,7.120971648604609,harmless,0.25,6.590163934,0.955284411,0.122311635
150,22,1,2,5,14,110,821.3382795089856,829.1347156788688,stimuli/165_xb.png,l,7.7844140325905755,harmless,0.25,6.557377049,1.008705278,0.129151477
150,22,1,2,5,15,111,829.6969948791666,835.446693390375,stimuli/344_za.png,a,5.737829973688349,awful,0.25,2.711864407,2.043077863,0.265986082
150,22,1,2,5,16,112,835.9943258662242,842.3346888185479,stimuli/208_xb.png,a,6.328377048834227,harmless,0.25,6.216666667,1.165778516,0.150501359
150,22,1,2,5,17,113,842.8846847619861,846.3026014289353,stimuli/164_xb.png,l,3.4058275759452954,harmless,0.25,6.830508475,0.460604639,0.059965616
150,22,1,2,5,18,114,846.8553668947425,849.3026526289759,stimuli/289_yb.png,a,2.435123387956992,ambig,0.25,5.305084746,1.714584873,0.223219937
150,22,1,2,5,19,115,849.8562991273357,856.2147057224065,stimuli/370_za.png,a,6.34652781765908,awful,0.25,2.393442623,1.882185684,0.240989182
150,22,1,2,5,20,116,856.7764429912204,865.9186622167472,stimuli/207_yb.png,l,9.130312091205269,ambig,0.25,5.655737705,1.662179753,0.212820309
150,22,1,2,5,21,117,866.4796913510654,874.4147308497922,stimuli/335_yb.png,a,7.923016179935075,ambig,0.25,5.016949153,2.046793332,0.266469795
150,22,1,2,5,22,118,874.9629221926443,878.182908597053,stimuli/318_za.png,a,3.2079567840555683,awful,0.25,3.06557377,2.197489875,0.281359747
150,22,1,2,5,23,119,878.7410173661774,882.6305739984382,stimuli/160_xb.png,l,3.877561670378782,harmless,0.25,6.666666667,0.680644427,0.087870818
150,22,1,2,5,24,120,883.1867954593617,892.9986113003688,stimuli/243_ya.png,a,9.799858294427395,ambig,0.25,5.830508475,1.652088985,0.215083666
150,22,1,2,6,1,121,905.3918220321648,921.9425398946041,stimuli/222_ya.png,a,16.53904309705831,ambig,0.166,5.931034483,1.543089507,0.202617579
150,22,1,2,6,2,122,922.4996254527941,927.5985283564078,stimuli/306_zb.png,a,5.0869020340032876,awful,0.166,2.352112676,1.917055413,0.101746737
150,22,1,2,6,3,123,928.1698218950769,931.2145820549922,stimuli/184_xb.png,l,3.032741961069405,harmless,0.166,6.508474576,1.194425,0.15550089
150,22,1,2,6,4,124,931.7621168571059,934.502649793285,stimuli/340_za.png,a,2.728541518910788,awful,0.166,2.508474576,1.832398855,0.238558011
150,22,1,2,6,5,125,935.056404992938,939.3425267401617,stimuli/105_xa.png,a,4.274242575862445,harmless,0.166,6.557377049,1.088187946,0.139328189
150,22,1,2,6,6,126,939.9012294284767,944.7745919168228,stimuli/110_xa.png,l,4.861266701947898,harmless,0.166,6.428571429,1.059281795,0.141552484
150,22,1,2,6,7,127,945.3239246242447,953.982495137956,stimuli/244_xb.png,l,8.646763416123576,harmless,0.166,6.610169492,0.743174671,0.096753101
150,22,1,2,6,8,128,954.5431721742498,960.9665542368311,stimuli/249_ya.png,a,6.411487531266175,ambig,0.166,5.327868852,1.859402337,0.238072074
150,22,1,2,6,9,129,961.5390001677442,965.9585564139998,stimuli/187_xc.png,a,4.407552619697526,harmless,0.166,6.224137931,1.185335891,0.155642228
150,22,1,2,6,10,130,966.5114939903142,973.8624651741702,stimuli/241_yb.png,a,7.338829711428843,ambig,0.166,5.508474576,1.442852555,0.187843403
150,22,1,2,6,11,131,974.4193203327013,981.6224592034705,stimuli/217_yb.png,a,7.1910801058402285,ambig,0.166,5.169491525,2.001314588,0.260548967
150,22,1,2,6,12,132,982.1841559060849,985.1504525679629,stimuli/302_za.png,a,2.954353293753229,awful,0.166,3.137931034,2.188071937,0.287307921
150,22,1,2,6,13,133,985.7154658444924,989.7984510839451,stimuli/117_xc.png,l,4.07098633912392,harmless,0.166,6.627118644,0.868972939,0.113130641
150,22,1,2,6,14,134,990.3549907722045,992.6464278596686,stimuli/232_yb.png,a,2.279422039515339,ambig,0.166,5.483333333,1.845669845,0.238274952
150,22,1,2,6,15,135,993.1990097933449,1001.4384470509831,stimuli/315_yb.png,a,8.22736195125617,ambig,0.166,5.050847458,1.915667965,0.249398726
150,22,1,2,6,16,136,1001.9960390946362,1006.0224629844306,stimuli/342_yb.png,a,4.014308411045931,ambig,0.166,4.916666667,2.085394461,0.269223267
150,22,1,2,6,17,137,1006.574038642575,1016.902403876069,stimuli/133_xa.png,l,10.316426591598429,harmless,0.166,6.568965517,1.186356193,0.1557762
150,22,1,2,6,18,138,1017.4654766751919,1020.7183980250265,stimuli/308_zb.png,a,3.2408740064129233,awful,0.166,1.644067797,1.471132708,0.191525165
150,22,1,2,6,19,139,1021.2772913346998,1031.6864213061053,stimuli/131_xb.png,l,10.397118468070403,harmless,0.166,6.525423729,1.119666394,0.145768149
150,22,1,2,6,20,140,1032.276492221863,1039.9983856268227,stimuli/264_xa.png,l,7.710192645667121,harmless,0.166,6.533333333,0.947193297,0.122282129
150,22,1,2,6,21,141,1040.559183967649,1060.4464161230717,stimuli/221_xb.png,l,19.87512770446483,harmless,0.166,6.440677966,1.133672495,0.147591588
150,22,1,2,6,22,142,1060.9946716626873,1068.3583486998687,stimuli/251_ya.png,a,7.351841188850813,ambig,0.166,5.655172414,1.792300532,0.235340589
150,22,1,2,6,23,143,1068.9174168768805,1073.2143583506113,stimuli/104_xc.png,l,4.285022130119614,harmless,0.166,6.745762712,0.756425814,0.098478253
150,22,1,2,6,24,144,1073.7900448432192,1078.5583383811172,stimuli/177_xb.png,l,4.756316298968159,harmless,0.166,6.482758621,1.063614811,0.139659467
150,22,1,2,7,1,145,1091.7311078167986,1098.0223215938313,stimuli/234_xb.png,l,6.27931215649005,harmless,0.083,6.637931034,0.788030542,0.103473479
150,22,1,2,7,2,146,1098.5737306552473,1102.1743046458578,stimuli/178_xa.png,l,3.5885479148710147,harmless,0.083,6.483333333,1.112207557,0.143585378
150,22,1,2,7,3,147,1102.72987271694,1110.4863564003026,stimuli/180_xc.png,l,7.744413890759461,harmless,0.083,6.672131148,0.723908638,0.092687003
150,22,1,2,7,4,148,1111.0577866033418,1115.1982784220017,stimuli/101_xa.png,l,4.128416512161493,harmless,0.083,6.508522727,1.13475832,0.060482822
150,22,1,2,7,5,149,1115.7598467309726,1119.518287433195,stimuli/137_xa.png,a,3.7464449525577947,harmless,0.083,6.355932203,1.094858074,0.14253838
150,22,1,2,7,6,150,1120.0734963171417,1124.3662701166468,stimuli/287_ya.png,a,4.280764659168199,ambig,0.083,5.950819672,1.407435369,0.180203633
150,22,1,2,7,7,151,1124.9163704290986,1132.830255692359,stimuli/223_yb.png,a,7.902107704081573,ambig,0.083,5.542372881,1.77455224,0.231027024
150,22,1,2,7,8,152,1133.3857993450947,1137.846272211871,stimuli/236_yb.png,a,4.4483562065288424,ambig,0.083,5.93442623,1.49297078,0.19115532
150,22,1,2,7,9,153,1138.4006169985514,1141.9422374211717,stimuli/116_xa.png,l,3.529653817648068,harmless,0.083,6.63559322,0.958030802,0.050918763
150,22,1,2,7,10,154,1142.5071479039034,1150.9422216672683,stimuli/174_xc.png,l,8.422868881723844,harmless,0.083,6.533333333,1.111826512,0.143536185
150,22,1,2,7,11,155,1151.4950942590367,1154.3662606643047,stimuli/102_xc.png,l,2.8590907050529495,harmless,0.083,6.66011236,0.937292468,0.049676401
150,22,1,2,7,12,156,1154.9156792300055,1158.0062101575313,stimuli/323_yb.png,a,3.078467042534612,ambig,0.083,4.603448276,1.955107169,0.256718148
150,22,1,2,7,13,157,1158.5562088579172,1166.654199615121,stimuli/194_xb.png,l,8.085945776896551,harmless,0.083,6.586206897,1.026567825,0.134794959
150,22,1,2,7,14,158,1167.2130712631624,1171.5822526866104,stimuli/285_yb.png,a,4.357244750717655,ambig,0.083,4.120689655,2.119893958,0.278355714
150,22,1,2,7,15,159,1172.1456500146305,1178.4462050218135,stimuli/206_xa.png,a,6.288564377580769,harmless,0.083,6.325842697,1.136094431,0.060212884
150,22,1,2,7,16,160,1178.9978421198903,1187.9822064491455,stimuli/276_ya.png,a,8.97229059820529,ambig,0.083,5.186440678,1.804922162,0.234980851
150,22,1,2,7,17,161,1188.5521380696446,1190.7261741127586,stimuli/278_xb.png,a,2.1620115428231657,harmless,0.083,6.360655738,1.140654591,0.146045855
150,22,1,2,7,18,162,1191.2764083327493,1196.0861828719499,stimuli/316_za.png,a,4.797787848045118,awful,0.083,2.344827586,1.802062407,0.236622386
150,22,1,2,7,19,163,1196.6439549031202,1199.6141589072067,stimuli/179_xb.png,l,2.958257485181093,harmless,0.083,6.704918033,0.882123617,0.112944356
150,22,1,2,7,20,164,1200.157206232543,1205.0541915806243,stimuli/233_yb.png,a,4.884986447752453,ambig,0.083,5.318309859,1.922973646,0.102060844
150,22,1,2,7,21,165,1205.6389089530567,1214.5260906963376,stimuli/176_xb.png,l,8.87507295992691,harmless,0.083,6.796610169,0.517942249,0.067430337
150,22,1,2,7,22,166,1215.0805036182282,1218.8621158330934,stimuli/270_yb.png,a,3.7696357637178153,ambig,0.083,5.534482759,1.912246013,0.251090203
150,22,1,2,7,23,167,1219.4102402221179,1225.4061398955528,stimuli/356_za.png,a,5.9839594559744,awful,0.083,3.033333333,2.178217796,0.281206708
150,22,1,2,7,24,168,1225.9558235192671,1230.974087715731,stimuli/156_xc.png,l,5.00606679788325,harmless,0.083,6.590163934,0.955284411,0.122311635
150,22,1,2,8,1,169,1281.2885399591178,1294.1020772992633,stimuli/121_xc.png,l,12.801522685913369,harmless,0.0412,6.508474576,1.006408455,0.131023221
150,22,1,2,8,2,170,1294.7070324284723,1299.6780020684237,stimuli/231_xb.png,l,4.959142850129865,harmless,0.0412,6.62295082,1.05141071,0.134619347
150,22,1,2,8,3,171,1300.2241682570893,1307.0860363614047,stimuli/189_yb.png,a,6.84984675468877,ambig,0.0412,5.983333333,1.455459234,0.187898979
150,22,1,2,8,4,172,1307.6461505923653,1312.9019919135608,stimuli/127_xb.png,l,5.2438239101320505,harmless,0.0412,6.423728814,1.162686987,0.151368953
150,22,1,2,8,5,173,1313.5041605849983,1319.7260122422595,stimuli/204_xb.png,a,6.209490812732838,harmless,0.0412,6.508474576,0.858484658,0.111765183
150,22,1,2,8,6,174,1320.2878684523748,1326.2859945349628,stimuli/267_ya.png,a,5.985864093294367,ambig,0.0412,5.103448276,1.898195405,0.249245267
150,22,1,2,8,7,175,1326.8342898529954,1330.1019296071026,stimuli/192_za.png,a,3.255619586096145,awful,0.0412,2.68852459,2.093967396,0.268105052
150,22,1,2,8,8,176,1330.6625085759442,1334.6300037100445,stimuli/109_xb.png,l,3.9555257721804082,harmless,0.0412,6.644067797,0.97843492,0.127381377
150,22,1,2,8,9,177,1335.1817821986042,1340.7579562721075,stimuli/123_xc.png,l,5.564159813104197,harmless,0.0412,6.491525424,1.023396666,0.133234897
150,22,1,2,8,10,178,1341.3217143625952,1346.661986336694,stimuli/282_xc.png,l,5.328766168328002,harmless,0.0412,6.55,0.998728005,0.128935231
150,22,1,2,8,11,179,1347.224827948492,1353.829968578997,stimuli/175_xb.png,l,6.59320435160771,harmless,0.0412,6.6,1.028409995,0.13276716
150,22,1,2,8,12,180,1354.3805040908046,1361.4139896323904,stimuli/140_xb.png,l,7.021514210384339,harmless,0.0412,6.724137931,0.790138861,0.103750315
150,22,1,2,8,13,181,1361.9736907193437,1367.03805730131,stimuli/145_xa.png,l,5.052374377031811,harmless,0.0412,6.661016949,0.822321556,0.107057148
150,22,1,2,8,14,182,1367.600260883337,1370.8299299820792,stimuli/215_yb.png,a,3.217621755436994,ambig,0.0412,5.866666667,1.466769385,0.189359113
150,22,1,2,8,15,183,1371.381647424656,1376.1019217302091,stimuli/173_yb.png,a,4.708224205300212,ambig,0.0412,5.796610169,1.242628763,0.161776485
150,22,1,2,8,16,184,1376.6636688450817,1381.5499053588137,stimuli/309_ya.png,a,4.874268333311193,ambig,0.0412,4.706896552,1.946734744,0.255618795
150,22,1,2,8,17,185,1382.1000592343044,1386.9419392800191,stimuli/129_xa.png,l,4.829823643784039,harmless,0.0412,6.770491803,0.642740036,0.082294429
150,22,1,2,8,18,186,1387.491112086107,1393.3018791161012,stimuli/224_yb.png,l,5.798779551172629,ambig,0.0412,5.881355932,1.609077116,0.209483997
150,22,1,2,8,19,187,1393.8492705584504,1398.557927206275,stimuli/108_xb.png,l,4.696651839651167,harmless,0.0412,6.568965517,1.077880782,0.141532681
150,22,1,2,8,20,188,1399.114660666557,1403.3178479803028,stimuli/283_yb.png,a,4.191230554832146,ambig,0.0412,5.949152542,1.478859402,0.192531095
150,22,1,2,8,21,189,1403.8644745744532,1408.069906020537,stimuli/149_xa.png,l,4.19355266855564,harmless,0.0412,6.721311475,0.933294301,0.11949609
150,22,1,2,8,22,190,1408.6797026938293,1413.557877581683,stimuli/141_xc.png,l,4.866309501230717,harmless,0.0412,6.508474576,1.040107444,0.135410455
150,22,1,2,8,23,191,1414.1146216758061,1431.0778680033982,stimuli/195_xc.png,l,16.951255304156803,harmless,0.0412,6.637640449,1.001766915,0.05309354
150,22,1,2,8,24,192,1431.6318142182427,1450.2698204772314,stimuli/330_ya.png,a,18.625977032468654,ambig,0.0412,4.796610169,2.049219036,0.266785595
150,22,1,2,9,1,193,1459.5136050027795,1466.0538390887668,stimuli/111_xa.png,l,6.528405720833689,harmless,0.0412,6.590163934,0.863655973,0.110579816
150,22,1,2,9,2,194,1466.604867301532,1469.8458181078313,stimuli/132_xc.png,l,3.228837296832353,harmless,0.0412,6.627118644,0.692280217,0.090127208
150,22,1,2,9,3,195,1470.4024109652964,1475.0617908317363,stimuli/240_xa.png,l,4.647318738512695,harmless,0.0412,6.482758621,1.096107616,0.143925981
150,22,1,2,9,4,196,1475.622065357864,1478.8137992473785,stimuli/209_ya.png,a,3.17971332767047,ambig,0.0412,5.603448276,1.825161903,0.239655499
150,22,1,2,9,5,197,1479.3746704496443,1486.2458274026867,stimuli/255_xb.png,l,6.859165929607116,harmless,0.0412,6.770491803,0.642740036,0.082294429
150,22,1,2,9,6,198,1486.7976283404278,1491.9737797284033,stimuli/213_ya.png,a,5.164131219848059,ambig,0.0412,5.98245614,1.597891781,0.211645937
150,22,1,2,9,7,199,1492.5298227772582,1496.7737809887622,stimuli/150_xc.png,l,4.231978609459475,harmless,0.0412,6.482758621,1.030097582,0.135258439
150,22,1,2,9,8,200,1497.3285786977503,1507.5177478647092,stimuli/226_yb.png,l,10.177088346681558,ambig,0.0412,5.683333333,1.712285287,0.22105508
150,22,1,2,9,9,201,1508.0786753868451,1512.5897046393948,stimuli/196_xb.png,l,4.4990157798165455,harmless,0.0412,6.594366197,0.982313556,0.05213579
150,22,1,2,9,10,202,1513.1646542468807,1517.9737257715315,stimuli/227_xa.png,l,4.7960884041385725,harmless,0.0412,6.180327869,1.05685377,0.135316259
150,22,1,2,9,11,203,1518.5309456310933,1520.797714198823,stimuli/155_xb.png,a,2.2545408429577947,harmless,0.0412,6.655737705,0.892286312,0.114245555
150,22,1,2,9,12,204,1521.3592714801198,1524.4457103516906,stimuli/273_ya.png,a,3.074613263248466,ambig,0.0412,5.551724138,1.836973233,0.241206403
150,22,1,2,9,13,205,1524.9998416739982,1526.9897060572403,stimuli/198_yb.png,a,1.9778717843582854,ambig,0.0412,5.101694915,1.83542643,0.238952168
150,22,1,2,9,14,206,1527.5483752686996,1529.453682180727,stimuli/271_ya.png,a,1.893245784100145,ambig,0.0412,5.711864407,1.771915459,0.230683744
150,22,1,2,9,15,207,1530.0168014537776,1531.7176906783134,stimuli/230_yb.png,a,1.6888631489127874,ambig,0.0412,4.98245614,1.875511626,0.248417583
150,22,1,2,9,16,208,1532.2666626231512,1535.813665733789,stimuli/168_xa.png,l,3.535208616172895,harmless,0.0412,6.474576271,1.164946827,0.151663159
150,22,1,2,9,17,209,1536.4199717533775,1540.3336845122976,stimuli/134_xc.png,l,3.9013649113476276,harmless,0.0412,6.516666667,0.965360505,0.124627505
150,22,1,2,9,18,210,1540.8920673979446,1543.6057286419673,stimuli/358_za.png,a,2.7016312298364937,awful,0.0412,3.949152542,2.112554662,0.275031191
150,22,1,2,9,19,211,1544.1552161306608,1554.157706810278,stimuli/274_xb.png,l,9.990387016325258,harmless,0.0412,6.491525424,1.179901828,0.153610134
150,22,1,2,9,20,212,1554.714291003067,1557.845645603491,stimuli/183_xb.png,l,3.1194726722314954,harmless,0.0412,6.448275862,1.095003225,0.143780967
150,22,1,2,9,21,213,1558.4415796989342,1571.78166656557,stimuli/242_xb.png,l,13.327997775631957,harmless,0.0412,6.576271186,0.913564256,0.118935936
150,22,1,2,9,22,214,1572.3301020925865,1576.397678910289,stimuli/146_xa.png,l,4.055534988059662,harmless,0.0412,6.442622951,1.162247681,0.148810567
150,22,1,2,9,23,215,1576.9557368733222,1583.2616422731662,stimuli/296_yb.png,a,6.293722967500798,ambig,0.0412,4.229508197,2.052587332,0.262806878
150,22,1,2,9,24,216,1583.8331989006838,1587.621620312333,stimuli/114_xc.png,l,3.776467803516425,harmless,0.0412,6.644067797,0.97843492,0.127381377
150,22,1,2,10,1,217,1595.9044605378294,1601.3336396139348,stimuli/304_ya.png,a,5.417297147912905,ambig,0.0412,4.034482759,2.017167697,0.264867095
150,22,1,2,10,2,218,1601.8798424302367,1606.3415815106127,stimuli/106_xc.png,l,4.449760266114026,harmless,0.0412,6.661016949,0.863237081,0.112383896
150,22,1,2,10,3,219,1606.8966749977553,1612.0056020598859,stimuli/280_xb.png,l,5.097307435004041,harmless,0.0412,6.333333333,1.068289726,0.137915611
150,22,1,2,10,4,220,1612.5532069666078,1622.0456187432865,stimuli/125_xc.png,l,9.480420359410346,harmless,0.0412,6.683333333,0.999858747,0.129081209
150,22,1,2,10,5,221,1622.5988950267201,1628.8935671621002,stimuli/202_yb.png,l,6.282889850088395,ambig,0.0412,5.431034483,1.892849601,0.248543329
150,22,1,2,10,6,222,1629.4413099146914,1645.909619521466,stimuli/113_xb.png,l,16.456345758633688,harmless,0.0412,6.733333333,0.660422737,0.085260209
150,22,1,2,10,7,223,1646.459314172971,1649.9976558309281,stimuli/319_ya.png,a,3.526314794551581,ambig,0.0412,4.216666667,2.108028774,0.272145344
150,22,1,2,10,8,224,1650.5614663029555,1655.9415883636102,stimuli/162_xa.png,l,5.367982951225713,harmless,0.0412,6.644067797,0.905209289,0.117848212
150,22,1,2,10,9,225,1656.4976373201935,1660.5255089863203,stimuli/216_xa.png,l,4.015817627427168,harmless,0.0412,6.603448276,0.877389573,0.115206895
150,22,1,2,10,10,226,1661.0843889052048,1665.285510104848,stimuli/169_xc.png,l,4.1892573883524165,harmless,0.0412,6.603448276,0.916508538,0.120343467
150,22,1,2,10,11,227,1665.8486644300865,1670.389542847639,stimuli/257_yb.png,l,4.528709769714624,ambig,0.0412,5.620689655,1.843219782,0.242026615
150,22,1,2,10,12,228,1670.9434130502632,1674.1735193176428,stimuli/135_xa.png,l,3.218184166937135,harmless,0.0412,6.508474576,1.179901828,0.153610134
150,22,1,2,10,13,229,1674.737128140754,1677.5495284486096,stimuli/130_xc.png,l,2.8003683243878186,harmless,0.0412,6.644067797,0.960651931,0.125066229
150,22,1,2,10,14,230,1678.0989726142725,1684.6454987778561,stimuli/348_za.png,a,6.5345867339055985,awful,0.0412,3.084745763,2.119597681,0.275948114
150,22,1,2,10,15,231,1685.1917677602032,1688.901497637271,stimuli/107_xa.png,l,3.697732552071102,harmless,0.0412,6.813559322,0.540580029,0.070377525
150,22,1,2,10,16,232,1689.4579573748633,1693.8295432257,stimuli/103_xb.png,l,4.359484156826511,harmless,0.0412,6.779661017,0.589207434,0.076708274
150,22,1,2,10,17,233,1694.3800476237666,1699.0294387778267,stimuli/190_xc.png,l,4.637389102950692,harmless,0.0412,6.517241379,1.046990328,0.137476565
150,22,1,2,10,18,234,1699.584165594657,1705.789488733164,stimuli/235_ya.png,l,6.193428213358857,ambig,0.0412,5.694915254,1.567495667,0.204070554
150,22,1,2,10,19,235,1706.351051528356,1709.62945075077,stimuli/219_ya.png,a,3.266234513022937,ambig,0.0412,5.271186441,1.998538332,0.260187529
150,22,1,2,10,20,236,1710.1769091468304,1714.7814594027586,stimuli/154_xc.png,l,4.592712044483051,harmless,0.0412,6.5,0.965506805,0.124646393
150,22,1,2,10,21,237,1715.3340094349114,1719.0934532618849,stimuli/336_ya.png,a,3.747390575823374,ambig,0.0412,5.033898305,1.884291705,0.245313885
150,22,1,2,10,22,238,1719.647082037176,1724.357433402678,stimuli/286_ya.png,a,4.6984135111561045,ambig,0.0412,5.06779661,1.779814082,0.231712057
150,22,1,2,10,23,239,1724.9194152494892,1729.7094415819738,stimuli/186_xa.png,l,4.777925819973461,harmless,0.0412,6.65,0.879618561,0.113558268
150,22,1,2,10,24,240,1730.3036596921738,1736.7334240227938,stimuli/120_xa.png,l,6.417536212131381,harmless,0.0412,6.440677966,1.054893138,0.137335389
