id,age,condition,counterbalance,block,trialinblock,trial,tstart,tend,trialstim,response,RT,trialtype,ethicfreq,norm_mean,norm_sd,norm_se
79,70,1,2,0,0,practice,4.726112820208073e-06,16.024999389541335,stimuli/prac_217_1.png,a,16.00589036429301,harmless,NA,NA,NA,NA
79,70,1,2,1,1,1,5.32865365233738,23.912951318197884,stimuli/234_xb.png,a,18.57389342994429,harmless,0.333,6.637931034,0.788030542,0.103473479
79,70,1,2,1,2,2,24.51435096899513,31.80092451465316,stimuli/139_xa.png,a,7.276229174458422,harmless,0.333,6.724137931,0.790138861,0.103750315
79,70,1,2,1,3,3,32.40795892337337,64.19295196409803,stimuli/317_za.png,l,31.77460022631567,awful,0.333,3.65,2.03215674,0.262350307
79,70,1,2,1,4,4,64.80558135244064,76.20095649489667,stimuli/300_za.png,l,11.38506267266348,awful,0.333,3.75,2.12032137,0.273732312
79,70,1,2,1,5,5,76.79141037119552,90.24897028901614,stimuli/284_ya.png,a,13.447092272690497,ambig,0.333,5.948275862,1.431750417,0.18799804
79,70,1,2,1,6,6,90.87372344592586,98.17700158560183,stimuli/322_za.png,l,7.292600968386978,awful,0.333,2.406779661,1.975004531,0.257123689
79,70,1,2,1,7,7,98.73762239748612,107.20896772108972,stimuli/169_xc.png,a,8.460655943024904,harmless,0.333,6.603448276,0.916508538,0.120343467
79,70,1,2,1,8,8,107.82769857533276,119.08899191906676,stimuli/215_yb.png,l,11.250817034044303,ambig,0.333,5.866666667,1.466769385,0.189359113
79,70,1,2,1,9,9,119.68530465185177,126.1209296976449,stimuli/164_xb.png,a,6.425123529857956,harmless,0.333,6.830508475,0.460604639,0.059965616
79,70,1,2,1,10,10,126.67262831702828,143.03295114496723,stimuli/267_ya.png,a,16.349636991973966,ambig,0.333,5.103448276,1.898195405,0.249245267
79,70,1,2,1,11,11,143.65282730397303,154.8889660827117,stimuli/173_yb.png,a,11.225936586037278,ambig,0.333,5.796610169,1.242628763,0.161776485
79,70,1,2,1,12,12,155.50538584718015,163.160990948556,stimuli/250_yb.png,a,7.64502796693705,ambig,0.333,5.950819672,1.585625318,0.203018519
79,70,1,2,1,13,13,163.77845125482418,169.24897068284918,stimuli/148_xc.png,a,5.460325899883173,harmless,0.333,6.491525424,1.135218061,0.147792803
79,70,1,2,1,14,14,169.86402498243842,186.9049952304922,stimuli/336_ya.png,l,17.03072197525762,ambig,0.333,5.033898305,1.884291705,0.245313885
79,70,1,2,1,15,15,187.53586324397475,197.20899371500127,stimuli/371_zb.png,l,9.662549398140982,awful,0.333,3.131147541,2.085468851,0.267016925
79,70,1,2,1,16,16,197.82585458725225,204.17695747478865,stimuli/109_xb.png,a,6.340702590183355,harmless,0.333,6.644067797,0.97843492,0.127381377
79,70,1,2,1,17,17,204.83611782616936,212.0409639464924,stimuli/324_za.png,l,7.1942473243689165,awful,0.333,2.491525424,1.994586478,0.259673041
79,70,1,2,1,18,18,212.64839062606916,219.41698154667392,stimuli/155_xb.png,a,6.758210709318519,harmless,0.333,6.655737705,0.892286312,0.114245555
79,70,1,2,1,19,19,219.97583044448402,226.46495241159573,stimuli/306_zb.png,l,6.478507417370565,awful,0.333,2.352112676,1.917055413,0.101746737
79,70,1,2,1,20,20,227.08433586894535,233.28099550143816,stimuli/315_yb.png,l,6.186224676668644,ambig,0.333,5.050847458,1.915667965,0.249398726
79,70,1,2,1,21,21,233.88830717792735,269.08105906820856,stimuli/276_ya.png,a,35.182247223565355,ambig,0.333,5.186440678,1.804922162,0.234980851
79,70,1,2,1,22,22,269.6849612179212,276.24101971508935,stimuli/142_xa.png,a,6.545550285838544,harmless,0.333,6.4,1.076718178,0.139003719
79,70,1,2,1,23,23,276.82387747918256,283.76102316519246,stimuli/318_za.png,l,6.926667013205588,awful,0.333,3.06557377,2.197489875,0.281359747
79,70,1,2,1,24,24,284.4047518335283,291.28900593996514,stimuli/361_za.png,l,6.8737356550991535,awful,0.333,2.416666667,1.907093508,0.246204713
79,70,1,2,2,1,25,301.8886218611151,308.96897830767557,stimuli/144_xa.png,a,7.069653281359933,harmless,0.333,6.542372881,1.00553698,0.130909764
79,70,1,2,2,2,26,309.5369664072059,317.6729729324579,stimuli/345_zb.png,a,8.125404184684157,awful,0.333,3.694915254,2.191317013,0.285285176
79,70,1,2,2,3,27,318.28914811846334,325.20897914271336,stimuli/281_ya.png,a,6.909267674433067,ambig,0.333,5.881355932,1.543448286,0.200939852
79,70,1,2,2,4,28,325.8366711800918,339.00098185858224,stimuli/220_yb.png,l,13.153783168643713,ambig,0.333,4.75,2.096203186,0.270618668
79,70,1,2,2,5,29,339.577804716886,348.5450158364838,stimuli/239_ya.png,l,8.956771437544376,ambig,0.333,5.157894737,1.925296579,0.255011762
79,70,1,2,2,6,30,349.15554090449587,356.38502446969505,stimuli/211_zb.png,l,7.218901704647578,awful,0.333,3.983333333,2.127237938,0.274625237
79,70,1,2,2,7,31,356.9929505463224,369.0970287452219,stimuli/287_ya.png,l,12.093619218445383,ambig,0.333,5.950819672,1.407435369,0.180203633
79,70,1,2,2,8,32,369.71417318680324,375.7849950098898,stimuli/360_za.png,l,6.060411285725422,awful,0.333,3.2,2.207844259,0.285031468
79,70,1,2,2,9,33,376.4001737649087,381.57705010741483,stimuli/299_za.png,l,5.166613497422077,awful,0.333,1.288135593,0.929420425,0.121000233
79,70,1,2,2,10,34,382.202707535238,388.83301589323673,stimuli/121_xc.png,a,6.61982574663125,harmless,0.333,6.508474576,1.006408455,0.131023221
79,70,1,2,2,11,35,389.45013670402113,404.75304659747053,stimuli/235_ya.png,a,15.292622629902326,ambig,0.333,5.694915254,1.567495667,0.204070554
79,70,1,2,2,12,36,405.3831556693185,413.87303382111713,stimuli/363_zb.png,l,8.479439257527702,awful,0.333,2.433333333,2.019956927,0.260775318
79,70,1,2,2,13,37,414.48446316004265,421.0730179097736,stimuli/369_za.png,l,6.578315141610801,awful,0.333,2.948275862,2.055565093,0.26990892
79,70,1,2,2,14,38,421.66312086908147,428.0010255755624,stimuli/111_xa.png,a,6.327477233717218,harmless,0.333,6.590163934,0.863655973,0.110579816
79,70,1,2,2,15,39,428.61655839835294,435.3689846880734,stimuli/174_xc.png,a,6.742234337027185,harmless,0.333,6.533333333,1.111826512,0.143536185
79,70,1,2,2,16,40,436.0063724319916,441.44901227299124,stimuli/311_za.png,l,5.431910682003945,awful,0.333,3.116666667,1.975199339,0.254997138
79,70,1,2,2,17,41,442.0622572429711,471.3850524327718,stimuli/241_yb.png,a,29.31225586461369,ambig,0.333,5.508474576,1.442852555,0.187843403
79,70,1,2,2,18,42,471.9504718671087,478.4410589422332,stimuli/196_xb.png,a,6.479944168357179,harmless,0.333,6.594366197,0.982313556,0.05213579
79,70,1,2,2,19,43,479.04705911083147,489.40907665900886,stimuli/176_xb.png,a,10.35152154613752,harmless,0.333,6.796610169,0.517942249,0.067430337
79,70,1,2,2,20,44,490.0183181820903,496.13701162079815,stimuli/297_za.png,l,6.108424686011858,awful,0.333,1.898305085,1.446695584,0.188343723
79,70,1,2,2,21,45,496.74841969192494,506.26504827372264,stimuli/243_ya.png,l,9.506083348882385,ambig,0.333,5.830508475,1.652088985,0.215083666
79,70,1,2,2,22,46,506.88290518312715,527.3930431789486,stimuli/141_xc.png,l,20.499557710718364,harmless,0.333,6.508474576,1.040107444,0.135410455
79,70,1,2,2,23,47,528.0142387227388,533.9290415121941,stimuli/225_ya.png,a,5.904313088860363,ambig,0.333,5.85,1.792876677,0.231459384
79,70,1,2,2,24,48,534.5287330518477,541.4010288050631,stimuli/206_xa.png,a,6.862047086586244,harmless,0.333,6.325842697,1.136094431,0.060212884
79,70,1,2,3,1,49,551.1194248112151,561.689053280279,stimuli/230_yb.png,l,10.559136011637747,ambig,0.333,4.98245614,1.875511626,0.248417583
79,70,1,2,3,2,50,562.3000119728968,570.2650656029582,stimuli/151_xa.png,a,7.954645849531516,harmless,0.333,6.610169492,0.947172729,0.123311386
79,70,1,2,3,3,51,570.8712311869022,576.9450805060333,stimuli/292_zb.png,l,6.063298178603873,awful,0.333,2.396551724,1.955107169,0.256718148
79,70,1,2,3,4,52,577.5690227336017,583.0010377848521,stimuli/237_ya.png,l,5.421519836876541,ambig,0.333,4.305084746,2.019339575,0.26289562
79,70,1,2,3,5,53,583.6144434440648,589.4250494868029,stimuli/266_zb.png,l,5.800263640703633,awful,0.333,3.491525424,1.888010094,0.245797978
79,70,1,2,3,6,54,590.0380758721149,596.5210625026375,stimuli/341_zb.png,l,6.472465422353707,awful,0.333,3.603448276,2.15975677,0.283589957
79,70,1,2,3,7,55,597.1394956089789,602.913059625891,stimuli/102_xc.png,a,5.762999879429117,harmless,0.333,6.66011236,0.937292468,0.049676401
79,70,1,2,3,8,56,603.536503244075,613.4650453592185,stimuli/273_ya.png,a,9.918067774618976,ambig,0.333,5.551724138,1.836973233,0.241206403
79,70,1,2,3,9,57,614.0212078318,620.6170995429857,stimuli/101_xa.png,a,6.58526495215483,harmless,0.333,6.508522727,1.13475832,0.060482822
79,70,1,2,3,10,58,621.2532687267521,625.7610605806112,stimuli/291_za.png,l,4.49708238709718,awful,0.333,2.593220339,1.830005126,0.238246374
79,70,1,2,3,11,59,626.3705013898434,633.5051499332767,stimuli/272_xb.png,a,7.124139544437639,harmless,0.333,6.355932203,1.029943284,0.134087194
79,70,1,2,3,12,60,634.0701282599475,644.8730515441857,stimuli/343_zb.png,l,10.792287072865292,awful,0.333,3.103448276,2.141401862,0.28117984
79,70,1,2,3,13,61,645.4820059533231,656.9370606152806,stimuli/307_za.png,l,11.444194352137856,awful,0.333,2.93220339,2.172432347,0.282826601
79,70,1,2,3,14,62,657.5436826670775,664.9370641598944,stimuli/289_yb.png,a,7.3829079400748014,ambig,0.333,5.305084746,1.714584873,0.223219937
79,70,1,2,3,15,63,665.5438358732499,672.5530502996407,stimuli/214_xb.png,a,6.998718424350955,harmless,0.333,6.465517241,0.940614156,0.12350869
79,70,1,2,3,16,64,673.1600142099196,677.7450928728795,stimuli/190_xc.png,a,4.5745472146663815,harmless,0.333,6.517241379,1.046990328,0.137476565
79,70,1,2,3,17,65,678.3663695490686,682.2890965245897,stimuli/367_zb.png,l,3.9123455827357247,awful,0.333,3.413793103,2.086165649,0.27392697
79,70,1,2,3,18,66,682.9147767955437,701.369116232614,stimuli/210_yb.png,a,18.44391117664054,ambig,0.333,5.557377049,1.76564049,0.226067099
79,70,1,2,3,19,67,701.992666189326,713.6330865492346,stimuli/165_xb.png,a,11.629992099362426,harmless,0.333,6.557377049,1.008705278,0.129151477
79,70,1,2,3,20,68,714.2359753325582,719.6570875386242,stimuli/119_xc.png,a,5.410513410111889,harmless,0.333,6.694915254,0.914523379,0.119060803
79,70,1,2,3,21,69,720.2452645897865,726.7370950374752,stimuli/260_ya.png,l,6.4814419655594975,ambig,0.333,4.966101695,2.016877936,0.262575142
79,70,1,2,3,22,70,727.3524722909788,734.4650524484459,stimuli/365_zb.png,l,7.102050678571686,awful,0.333,2.966101695,2.165291266,0.281896912
79,70,1,2,3,23,71,735.0243554508779,740.3691091433866,stimuli/261_yb.png,l,5.334402625798248,ambig,0.333,5.706896552,1.901141123,0.249632059
79,70,1,2,3,24,72,740.9784125003498,747.7450786944246,stimuli/222_ya.png,l,6.756120961275883,ambig,0.333,5.931034483,1.543089507,0.202617579
79,70,1,2,4,1,73,759.8865128145553,767.873056664248,stimuli/268_zb.png,l,7.976053755264729,awful,0.333,2.655737705,2.048456703,0.262278005
79,70,1,2,4,2,74,768.4789619158255,772.8571129810298,stimuli/356_za.png,l,4.367546755471267,awful,0.333,3.033333333,2.178217796,0.281206708
79,70,1,2,4,3,75,773.4610371862072,778.5850928412983,stimuli/319_ya.png,l,5.113529720809311,ambig,0.333,4.216666667,2.108028774,0.272145344
79,70,1,2,4,4,76,779.175593191525,788.0571392112179,stimuli/232_yb.png,l,8.871046473039314,ambig,0.333,5.483333333,1.845669845,0.238274952
79,70,1,2,4,5,77,788.673015861772,796.7611157190986,stimuli/209_ya.png,a,8.077566833700985,ambig,0.333,5.603448276,1.825161903,0.239655499
79,70,1,2,4,6,78,797.364515714813,803.8570771410596,stimuli/158_xa.png,a,6.482083147275262,harmless,0.333,6.786885246,0.661179605,0.084655374
79,70,1,2,4,7,79,804.4602888782974,820.4011150574079,stimuli/255_xb.png,a,15.930200995411724,harmless,0.333,6.770491803,0.642740036,0.082294429
79,70,1,2,4,8,80,821.0057383396197,828.7451125651132,stimuli/252_zb.png,l,7.729021583450958,awful,0.333,2.711864407,1.983125776,0.258180985
79,70,1,2,4,9,81,829.3498268257827,837.4970827809302,stimuli/257_yb.png,a,8.13694663613569,ambig,0.333,5.620689655,1.843219782,0.242026615
79,70,1,2,4,10,82,838.1298058101675,846.5451048457762,stimuli/136_xc.png,a,8.40475183352828,harmless,0.333,6.559322034,1.038420326,0.135190811
79,70,1,2,4,11,83,847.1230092057958,852.6411182554439,stimuli/180_xc.png,a,5.507794610806741,harmless,0.333,6.672131148,0.723908638,0.092687003
79,70,1,2,4,12,84,853.2740626262967,864.2011282119201,stimuli/218_yb.png,a,10.9165337436134,ambig,0.333,5.850282486,1.552723069,0.0825263
79,70,1,2,4,13,85,864.8130230769748,868.8731362211984,stimuli/113_xb.png,a,4.049670705222525,harmless,0.333,6.733333333,0.660422737,0.085260209
79,70,1,2,4,14,86,869.4851634185761,875.225156770437,stimuli/256_zb.png,l,5.7294595405692235,awful,0.333,3.051724138,2.012438634,0.264246138
79,70,1,2,4,15,87,875.7959411782213,896.2651687907055,stimuli/140_xb.png,l,20.4586398442043,harmless,0.333,6.724137931,0.790138861,0.103750315
79,70,1,2,4,16,88,896.8721775994636,903.3851690111915,stimuli/285_yb.png,l,6.502481625066139,ambig,0.333,4.120689655,2.119893958,0.278355714
79,70,1,2,4,17,89,904.0025158897042,910.5770977628417,stimuli/347_zb.png,l,6.564276492688805,awful,0.333,3.796610169,2.147810923,0.279621165
79,70,1,2,4,18,90,911.1958077431191,916.6091505445074,stimuli/279_ya.png,l,5.402879882371053,ambig,0.333,5.31147541,1.970964092,0.252356093
79,70,1,2,4,19,91,917.1727933386574,923.8570948641282,stimuli/217_yb.png,l,6.673964637331665,ambig,0.333,5.169491525,2.001314588,0.260548967
79,70,1,2,4,20,92,924.4796755652642,937.1051151960855,stimuli/264_xa.png,a,12.61502909346018,harmless,0.333,6.533333333,0.947193297,0.122282129
79,70,1,2,4,21,93,937.6764190869872,951.753120640642,stimuli/280_xb.png,l,14.066146474564448,harmless,0.333,6.333333333,1.068289726,0.137915611
79,70,1,2,4,22,94,952.3516144938767,959.1291153976927,stimuli/359_za.png,l,6.767238846397959,awful,0.333,2.01754386,1.641985167,0.217486248
79,70,1,2,4,23,95,959.7412800474558,965.2651164091658,stimuli/362_zb.png,l,5.513364778016694,awful,0.333,1.474576271,1.222715071,0.159183944
79,70,1,2,4,24,96,965.898474712274,972.0411671712063,stimuli/310_zb.png,l,6.1317943398607895,awful,0.333,3.224137931,2.102989547,0.276136056
79,70,1,2,5,1,97,982.0594802332344,997.5371779026464,stimuli/271_ya.png,a,15.467181581188925,ambig,0.25,5.711864407,1.771915459,0.230683744
79,70,1,2,5,2,98,998.1107105694246,1007.833134047105,stimuli/309_ya.png,l,9.711887303274125,ambig,0.25,4.706896552,1.946734744,0.255618795
79,70,1,2,5,3,99,1008.4007483866299,1016.6891178711085,stimuli/177_xb.png,l,8.277986122528091,harmless,0.25,6.482758621,1.063614811,0.139659467
79,70,1,2,5,4,100,1017.294608796481,1024.5211113395635,stimuli/181_xa.png,a,7.216058922582306,harmless,0.25,6.666666667,0.950765377,0.122743282
79,70,1,2,5,5,101,1025.1404282369185,1031.041146297357,stimuli/240_xa.png,a,5.890219695400447,harmless,0.25,6.482758621,1.096107616,0.143925981
79,70,1,2,5,6,102,1031.6534629717935,1038.0971149975667,stimuli/274_xb.png,a,6.433153660735115,harmless,0.25,6.491525424,1.179901828,0.153610134
79,70,1,2,5,7,103,1038.7107459368417,1043.1051415837137,stimuli/247_ya.png,l,4.383824420161545,ambig,0.25,4.65,2.081598147,0.268733165
79,70,1,2,5,8,104,1043.7129404480802,1056.7531320621492,stimuli/286_ya.png,l,13.029734996613115,ambig,0.25,5.06779661,1.779814082,0.231712057
79,70,1,2,5,9,105,1057.414852413931,1077.5371716012014,stimuli/244_xb.png,a,20.111706606694497,harmless,0.25,6.610169492,0.743174671,0.096753101
79,70,1,2,5,10,106,1078.1252986339387,1084.8091669285204,stimuli/295_za.png,l,6.673432944924571,awful,0.25,2.3,1.825432384,0.235662307
79,70,1,2,5,11,107,1085.3774602588965,1092.4651434269035,stimuli/312_yb.png,l,7.077027264400385,ambig,0.25,4.677966102,2.112692986,0.275049199
79,70,1,2,5,12,108,1093.0777873876505,1097.513147374848,stimuli/114_xc.png,a,4.424771037418395,harmless,0.25,6.644067797,0.97843492,0.127381377
79,70,1,2,5,13,109,1098.1349250234198,1110.489183407044,stimuli/208_xb.png,l,12.344149532378651,harmless,0.25,6.216666667,1.165778516,0.150501359
79,70,1,2,5,14,110,1111.05367533362,1115.2171262458432,stimuli/313_zb.png,l,4.152872596285306,awful,0.25,2.101694915,1.688652955,0.219843889
79,70,1,2,5,15,111,1115.81526957592,1121.4651706023142,stimuli/353_zb.png,l,5.639455830445513,awful,0.25,1.949152542,1.623361018,0.211343603
79,70,1,2,5,16,112,1122.0812489021337,1141.3371449771803,stimuli/277_yb.png,a,19.245433549862355,ambig,0.25,5.491525424,2.02886822,0.264136144
79,70,1,2,5,17,113,1141.9671650396194,1158.2811837599147,stimuli/219_ya.png,l,16.303796835127287,ambig,0.25,5.271186441,1.998538332,0.260187529
79,70,1,2,5,18,114,1158.8506247582845,1163.217163661262,stimuli/344_za.png,l,4.356177202542312,awful,0.25,2.711864407,2.043077863,0.265986082
79,70,1,2,5,19,115,1163.8238920514705,1172.8091913469834,stimuli/242_xb.png,a,8.97478281345684,harmless,0.25,6.576271186,0.913564256,0.118935936
79,70,1,2,5,20,116,1173.4338740054518,1180.7372013758868,stimuli/278_xb.png,a,7.29310902999714,harmless,0.25,6.360655738,1.140654591,0.146045855
79,70,1,2,5,21,117,1181.3522328324616,1189.3131959754974,stimuli/194_xb.png,a,7.950588839477859,harmless,0.25,6.586206897,1.026567825,0.134794959
79,70,1,2,5,22,118,1189.9343127501197,1197.3611896834336,stimuli/364_za.png,l,7.416657805093564,awful,0.25,1.677966102,1.279017376,0.166513879
79,70,1,2,5,23,119,1197.9788697558688,1203.881195102702,stimuli/326_zb.png,l,5.891828950960189,awful,0.25,3.389830508,2.220724867,0.289113752
79,70,1,2,5,24,120,1204.4922648599604,1211.9372059445595,stimuli/233_yb.png,l,7.434401365579106,ambig,0.25,5.318309859,1.922973646,0.102060844
79,70,1,2,6,1,121,1221.3340138995554,1229.889191362774,stimuli/226_yb.png,l,8.544831122620963,ambig,0.166,5.683333333,1.712285287,0.22105508
79,70,1,2,6,2,122,1230.4935684910743,1242.3531646726187,stimuli/221_xb.png,a,11.84918485651724,harmless,0.166,6.440677966,1.133672495,0.147591588
79,70,1,2,6,3,123,1242.971066480386,1250.777183463797,stimuli/275_yb.png,l,7.795765522867441,ambig,0.166,4.836065574,2.138382004,0.27379176
79,70,1,2,6,4,124,1251.396900508902,1266.1852203687886,stimuli/227_xa.png,a,14.77787545172032,harmless,0.166,6.180327869,1.05685377,0.135316259
79,70,1,2,6,5,125,1266.802318336442,1273.5612021289999,stimuli/126_xa.png,a,6.748316504294053,harmless,0.166,6.6,0.977717855,0.126222832
79,70,1,2,6,6,126,1274.1658856695285,1279.3932523112744,stimuli/320_za.png,l,5.216927747358568,awful,0.166,1.423728814,1.117314975,0.14546202
79,70,1,2,6,7,127,1279.9711743942462,1285.3132046401734,stimuli/301_za.png,l,5.33217188087292,awful,0.166,3.610169492,2.212947396,0.288101212
79,70,1,2,6,8,128,1285.9234307787847,1291.025198675692,stimuli/332_zb.png,l,5.09122896566987,awful,0.166,2.694915254,2.002190501,0.260663001
79,70,1,2,6,9,129,1291.6595514406217,1297.913165570586,stimuli/262_ya.png,l,6.2430838632863015,ambig,0.166,5.491525424,1.7750462,0.231091332
79,70,1,2,6,10,130,1298.5221648782026,1303.529203698039,stimuli/372_zb.png,l,4.996556208585389,awful,0.166,2.796610169,2.082601664,0.271131643
79,70,1,2,6,11,131,1304.1117487481097,1320.8012206869898,stimuli/223_yb.png,l,16.678987358347513,ambig,0.166,5.542372881,1.77455224,0.231027024
79,70,1,2,6,12,132,1321.433682202245,1329.2011845319066,stimuli/224_yb.png,l,7.757014992181212,ambig,0.166,5.881355932,1.609077116,0.209483997
79,70,1,2,6,13,133,1329.763855707366,1336.2891709615942,stimuli/282_xc.png,a,6.5147255167830735,harmless,0.166,6.55,0.998728005,0.128935231
79,70,1,2,6,14,134,1336.9036805718206,1343.401199340471,stimuli/103_xb.png,l,6.4869522681692615,harmless,0.166,6.779661017,0.589207434,0.076708274
79,70,1,2,6,15,135,1344.0353732992662,1354.6892206649063,stimuli/246_ya.png,l,10.643419105093926,ambig,0.166,5.542372881,1.715266481,0.223308675
79,70,1,2,6,16,136,1355.2560236811405,1369.3932542804396,stimuli/236_yb.png,l,14.126571938744746,ambig,0.166,5.93442623,1.49297078,0.19115532
79,70,1,2,6,17,137,1370.036633607233,1394.7612752268324,stimuli/203_yb.png,l,24.714144829893485,ambig,0.166,6,1.542501327,0.200816568
79,70,1,2,6,18,138,1395.376156234066,1405.21719438117,stimuli/149_xa.png,a,9.830607129726559,harmless,0.166,6.721311475,0.933294301,0.11949609
79,70,1,2,6,19,139,1405.8423736797413,1412.8332289640093,stimuli/129_xa.png,a,6.980457349913195,harmless,0.166,6.770491803,0.642740036,0.082294429
79,70,1,2,6,20,140,1413.4874741144013,1421.5851822444238,stimuli/133_xa.png,a,8.086997875594534,harmless,0.166,6.568965517,1.186356193,0.1557762
79,70,1,2,6,21,141,1422.1566216185456,1432.6492165216478,stimuli/110_xa.png,a,10.482104414957576,harmless,0.166,6.428571429,1.059281795,0.141552484
79,70,1,2,6,22,142,1433.2612634113757,1446.6972043218557,stimuli/171_xa.png,l,13.425511074485257,harmless,0.166,6.465517241,1.046556882,0.137419651
79,70,1,2,6,23,143,1447.314323557308,1454.0012161971536,stimuli/145_xa.png,a,6.67642657016404,harmless,0.166,6.661016949,0.822321556,0.107057148
79,70,1,2,6,24,144,1454.6070147164864,1460.2092327796854,stimuli/122_xa.png,l,5.591622418141924,harmless,0.166,6.457627119,1.039264227,0.135300678
79,70,1,2,7,1,145,1504.282389323227,1512.3292129139882,stimuli/198_yb.png,l,8.036152720917016,ambig,0.083,5.101694915,1.83542643,0.238952168
79,70,1,2,7,2,146,1512.8929474742617,1517.7212155512534,stimuli/183_xb.png,a,4.8176409241277725,harmless,0.083,6.448275862,1.095003225,0.143780967
79,70,1,2,7,3,147,1518.3252193132648,1525.0172650371678,stimuli/338_zb.png,l,6.681459137238562,awful,0.083,3.310344828,2.137443107,0.28066003
79,70,1,2,7,4,148,1525.583725407254,1530.84122679953,stimuli/197_xa.png,a,5.247025870252401,harmless,0.083,6.779661017,0.55918033,0.072799078
79,70,1,2,7,5,149,1531.467605753569,1542.0732652451843,stimuli/123_xc.png,a,10.595194209483452,harmless,0.083,6.491525424,1.023396666,0.133234897
79,70,1,2,7,6,150,1542.6836485284148,1550.4092160805594,stimuli/106_xc.png,a,7.715782836312428,harmless,0.083,6.661016949,0.863237081,0.112383896
79,70,1,2,7,7,151,1551.0324860125547,1558.7132767927833,stimuli/168_xa.png,a,7.670339282834902,harmless,0.083,6.474576271,1.164946827,0.151663159
79,70,1,2,7,8,152,1559.3303397081327,1565.585249986034,stimuli/138_xc.png,a,6.244506435934454,harmless,0.083,6.661016949,0.70978796,0.092406522
79,70,1,2,7,9,153,1566.2038260585396,1574.4092546774773,stimuli/327_zb.png,l,8.195009022951126,awful,0.083,2.502808989,1.906990248,0.101070281
79,70,1,2,7,10,154,1575.0229005829897,1587.1612961794017,stimuli/150_xc.png,a,12.127971668262035,harmless,0.083,6.482758621,1.030097582,0.135258439
79,70,1,2,7,11,155,1587.7732430322794,1596.1212467438309,stimuli/147_ya.png,l,8.337482897215523,ambig,0.083,5.883333333,1.766847875,0.22809908
79,70,1,2,7,12,156,1596.7215964004863,1609.2732973829843,stimuli/191_ya.png,l,12.541087614255957,ambig,0.083,5.517241379,2.062542966,0.270825159
79,70,1,2,7,13,157,1609.884410857223,1618.5132690733299,stimuli/254_ya.png,l,8.618875789572485,ambig,0.083,5.983606557,1.627798137,0.208418195
79,70,1,2,7,14,158,1619.142654649564,1632.3052509154659,stimuli/120_xa.png,a,13.152054577600211,harmless,0.083,6.440677966,1.054893138,0.137335389
79,70,1,2,7,15,159,1632.9220944584813,1639.9772817677585,stimuli/205_yb.png,l,7.044982359628193,ambig,0.083,5.847457627,1.52918233,0.199082582
79,70,1,2,7,16,160,1640.54165908508,1649.8812451212434,stimuli/160_xb.png,a,9.328967547859065,harmless,0.083,6.666666667,0.680644427,0.087870818
79,70,1,2,7,17,161,1650.4424767886521,1657.0412616942776,stimuli/193_xc.png,l,6.588407451286912,harmless,0.083,6.482758621,1.012923151,0.133003326
79,70,1,2,7,18,162,1657.6544790950138,1662.6092533384217,stimuli/128_xc.png,a,4.9441707213409245,harmless,0.083,6.627118644,0.98082135,0.127692063
79,70,1,2,7,19,163,1663.2296899405774,1671.0172666126164,stimuli/249_ya.png,l,7.777230331557803,ambig,0.083,5.327868852,1.859402337,0.238072074
79,70,1,2,7,20,164,1671.660614825436,1674.913326653652,stimuli/202_yb.png,l,3.2422323676291853,ambig,0.083,5.431034483,1.892849601,0.248543329
79,70,1,2,7,21,165,1675.5182693451643,1683.3052662754199,stimuli/170_xc.png,a,7.77661120519042,harmless,0.083,6.583333333,1.062323432,0.137145365
79,70,1,2,7,22,166,1683.9280364165315,1692.3453015325358,stimuli/342_yb.png,l,8.40668404311873,ambig,0.083,4.916666667,2.085394461,0.269223267
79,70,1,2,7,23,167,1692.9657660978846,1703.0652717420598,stimuli/132_xc.png,a,10.089314479148015,harmless,0.083,6.627118644,0.692280217,0.090127208
79,70,1,2,7,24,168,1703.6787742874585,1716.2572603583103,stimuli/115_xb.png,a,12.567992431810126,harmless,0.083,6.440677966,1.021681954,0.133011661
79,70,1,2,8,1,169,1725.9883673576405,1730.5212826626375,stimuli/112_xc.png,a,4.522369284415618,harmless,0.0412,6.706896552,0.749470472,0.098410294
79,70,1,2,8,2,170,1731.1485237461748,1737.241260355222,stimuli/323_yb.png,l,6.0822055547032505,ambig,0.0412,4.603448276,1.955107169,0.256718148
79,70,1,2,8,3,171,1737.8669843430398,1745.1452823916916,stimuli/157_xc.png,l,7.267892631236464,harmless,0.0412,6.603448276,0.877389573,0.115206895
79,70,1,2,8,4,172,1745.765786341508,1756.0972693852382,stimuli/143_xb.png,a,10.32108904782217,harmless,0.0412,6.655172414,0.738697862,0.096995781
79,70,1,2,8,5,173,1756.7223297422752,1763.7852876377292,stimuli/350_ya.png,l,7.052587136509828,ambig,0.0412,4.915254237,2.02814792,0.264042369
79,70,1,2,8,6,174,1764.4183375593275,1771.673275012523,stimuli/172_xb.png,a,7.244745500502177,harmless,0.0412,6.482758621,1.127664553,0.14806961
79,70,1,2,8,7,175,1772.2258861736627,1779.8893087289762,stimuli/152_xa.png,a,7.652786737773567,harmless,0.0412,6.576271186,0.968528743,0.126091702
79,70,1,2,8,8,176,1780.5035355576547,1787.6652807217324,stimuli/162_xa.png,a,7.151351562119089,harmless,0.0412,6.644067797,0.905209289,0.117848212
79,70,1,2,8,9,177,1788.2860079824459,1796.0973182221642,stimuli/231_xb.png,l,7.801317573175766,harmless,0.0412,6.62295082,1.05141071,0.134619347
79,70,1,2,8,10,178,1796.7036078678211,1804.8893083351431,stimuli/131_xb.png,a,8.175464797648601,harmless,0.0412,6.525423729,1.119666394,0.145768149
79,70,1,2,8,11,179,1805.501940086484,1811.4892716286704,stimuli/270_yb.png,l,5.977115170913748,ambig,0.0412,5.534482759,1.912246013,0.251090203
79,70,1,2,8,12,180,1812.1009388506645,1819.0973024683772,stimuli/228_ya.png,l,6.98619923426304,ambig,0.0412,5.442622951,1.793735303,0.229664272
79,70,1,2,8,13,181,1819.708465961041,1830.8492860748665,stimuli/134_xc.png,l,11.129864493268542,harmless,0.0412,6.516666667,0.965360505,0.124627505
79,70,1,2,8,14,182,1831.499780627666,1837.1133331914898,stimuli/330_ya.png,l,5.602932106354274,ambig,0.0412,4.796610169,2.049219036,0.266785595
79,70,1,2,8,15,183,1837.7116521770367,1844.0012839386472,stimuli/370_za.png,l,6.27945635037031,awful,0.0412,2.393442623,1.882185684,0.240989182
79,70,1,2,8,16,184,1844.620808786829,1850.441283434513,stimuli/116_xa.png,a,5.810086165671237,harmless,0.0412,6.63559322,0.958030802,0.050918763
79,70,1,2,8,17,185,1851.0521921087056,1859.201321984292,stimuli/175_xb.png,a,8.138751239632256,harmless,0.0412,6.6,1.028409995,0.13276716
79,70,1,2,8,18,186,1859.7698642254109,1866.8573410180397,stimuli/265_yb.png,l,7.077393147512339,ambig,0.0412,5.627118644,1.856008928,0.241631781
79,70,1,2,8,19,187,1867.457450428512,1873.473325188621,stimuli/186_xa.png,a,6.00517671497073,harmless,0.0412,6.65,0.879618561,0.113558268
79,70,1,2,8,20,188,1874.0925794643117,1879.2013160765637,stimuli/195_xc.png,a,5.098353250185028,harmless,0.0412,6.637640449,1.001766915,0.05309354
79,70,1,2,8,21,189,1879.8357645460637,1885.4253019421594,stimuli/325_yb.png,l,5.5793899479322135,ambig,0.0412,5.131147541,1.811770863,0.231973488
79,70,1,2,8,22,190,1886.041815442033,1891.2333160828566,stimuli/161_xc.png,a,5.180897118756548,harmless,0.0412,6.796610169,0.609682252,0.079373868
79,70,1,2,8,23,191,1891.8571629995713,1899.6813598880544,stimuli/296_yb.png,l,7.81365323101636,ambig,0.0412,4.229508197,2.052587332,0.262806878
79,70,1,2,8,24,192,1900.296157399891,1906.8093382517109,stimuli/105_xa.png,a,6.502705723629333,harmless,0.0412,6.557377049,1.088187946,0.139328189
79,70,1,2,9,1,193,1916.0702850107336,1921.969310713932,stimuli/212_ya.png,l,5.888453294988722,ambig,0.0412,5.677966102,1.490668422,0.194068498
79,70,1,2,9,2,194,1922.5319204493426,1932.0172957571922,stimuli/263_ya.png,l,9.474799748859368,ambig,0.0412,4.983050847,2.071910042,0.269739712
79,70,1,2,9,3,195,1932.5824765207944,1939.8173093055375,stimuli/339_ya.png,l,7.224488807260059,ambig,0.0412,4.949152542,1.960152429,0.25519011
79,70,1,2,9,4,196,1940.429285696824,1951.489312982536,stimuli/159_xa.png,l,11.04932924057357,harmless,0.0412,6.389830508,1.174689235,0.152931512
79,70,1,2,9,5,197,1952.0985194531968,1959.2253174597863,stimuli/146_xa.png,l,7.116277192137204,harmless,0.0412,6.442622951,1.162247681,0.148810567
79,70,1,2,9,6,198,1959.8269463289762,1968.713353592786,stimuli/124_xa.png,a,8.875977034098469,harmless,0.0412,6.344262295,1.181598436,0.151288177
79,70,1,2,9,7,199,1969.330263695796,1992.273398207617,stimuli/130_xc.png,l,22.93266135279555,harmless,0.0412,6.644067797,0.960651931,0.125066229
79,70,1,2,9,8,200,1992.898548755329,1996.8093134392984,stimuli/187_xc.png,l,3.900357691105455,harmless,0.0412,6.224137931,1.185335891,0.155642228
79,70,1,2,9,9,201,1997.401861002203,2001.0973453975748,stimuli/199_za.png,l,3.685040774871595,awful,0.0412,3.033898305,2.189048775,0.284989876
79,70,1,2,9,10,202,2001.736967037432,2007.673327788012,stimuli/184_xb.png,a,5.925757622346282,harmless,0.0412,6.508474576,1.194425,0.15550089
79,70,1,2,9,11,203,2008.2992148281774,2014.0573507066583,stimuli/258_ya.png,l,5.747681230306625,ambig,0.0412,5.627118644,1.78014243,0.231754804
79,70,1,2,9,12,204,2014.6801826816518,2019.3373387494357,stimuli/251_ya.png,l,4.646914490382187,ambig,0.0412,5.655172414,1.792300532,0.235340589
79,70,1,2,9,13,205,2019.9074512555962,2029.7453500544652,stimuli/163_xa.png,a,9.826613135053776,harmless,0.0412,6.627118644,0.963082427,0.125382652
79,70,1,2,9,14,206,2030.3534860510845,2038.0253156480612,stimuli/118_xb.png,a,7.6610964994179085,harmless,0.0412,6.474576271,0.953323265,0.124112118
79,70,1,2,9,15,207,2038.6249422030523,2054.3773621912114,stimuli/238_xb.png,a,15.741764084552415,harmless,0.0412,6.4,1.076718178,0.139003719
79,70,1,2,9,16,208,2054.9425961240195,2062.265332236886,stimuli/107_xa.png,a,7.312066030688584,harmless,0.0412,6.813559322,0.540580029,0.070377525
79,70,1,2,9,17,209,2062.8701370820636,2066.3293554863194,stimuli/179_xb.png,a,3.4485648636473343,harmless,0.0412,6.704918033,0.882123617,0.112944356
79,70,1,2,9,18,210,2066.937865243177,2084.3133881724207,stimuli/204_xb.png,l,17.365091518033296,harmless,0.0412,6.508474576,0.858484658,0.111765183
79,70,1,2,9,19,211,2084.9158634172054,2091.07336646365,stimuli/104_xc.png,a,6.14695229975041,harmless,0.0412,6.745762712,0.756425814,0.098478253
79,70,1,2,9,20,212,2091.6506808419945,2107.6573616556125,stimuli/288_yb.png,l,15.996078079217114,ambig,0.0412,5.189655172,1.914459262,0.251380817
79,70,1,2,9,21,213,2108.2748621341307,2114.9453278415604,stimuli/189_yb.png,l,6.659969705389813,ambig,0.0412,5.983333333,1.455459234,0.187898979
79,70,1,2,9,22,214,2115.5027218712494,2123.745353599079,stimuli/156_xc.png,l,8.232509879628196,harmless,0.0412,6.590163934,0.955284411,0.122311635
79,70,1,2,9,23,215,2124.3679138200823,2139.72137545282,stimuli/127_xb.png,l,15.343039279920049,harmless,0.0412,6.423728814,1.162686987,0.151368953
79,70,1,2,9,24,216,2140.3271491597407,2149.1773603794863,stimuli/201_yb.png,l,8.840320559334941,ambig,0.0412,5.898305085,1.626238682,0.211718243
79,70,1,2,10,1,217,2158.962884324952,2164.825366217876,stimuli/207_yb.png,l,5.852264340152033,ambig,0.0412,5.655737705,1.662179753,0.212820309
79,70,1,2,10,2,218,2165.411897779559,2170.4013994144043,stimuli/216_xa.png,a,4.9789902727352455,harmless,0.0412,6.603448276,0.877389573,0.115206895
79,70,1,2,10,3,219,2171.015312347561,2174.0733696144307,stimuli/346_zb.png,l,3.0476380647160113,awful,0.0412,1.288135593,0.983499162,0.128040685
79,70,1,2,10,4,220,2174.6763887609122,2181.7693447422935,stimuli/253_ya.png,l,7.082391844014637,ambig,0.0412,5.491803279,1.849531029,0.236808182
79,70,1,2,10,5,221,2182.4049574212404,2190.881384148961,stimuli/178_xa.png,a,8.465739710256457,harmless,0.0412,6.483333333,1.112207557,0.143585378
79,70,1,2,10,6,222,2191.5007045909297,2200.3373891618103,stimuli/182_xb.png,a,8.826295695034787,harmless,0.0412,6.542372881,0.988241802,0.128658124
79,70,1,2,10,7,223,2200.9070392923895,2208.665370124858,stimuli/283_yb.png,l,7.74794550111983,ambig,0.0412,5.949152542,1.478859402,0.192531095
79,70,1,2,10,8,224,2209.293697830173,2215.345355883357,stimuli/200_ya.png,l,6.041395601932891,ambig,0.0412,5.862068966,1.444266048,0.189641423
79,70,1,2,10,9,225,2215.89818326605,2225.01738240337,stimuli/245_yb.png,l,9.108647602959536,ambig,0.0412,4.949152542,2.096168334,0.272897873
79,70,1,2,10,10,226,2225.6290307207964,2233.1773591979872,stimuli/108_xb.png,a,7.537852955167182,harmless,0.0412,6.568965517,1.077880782,0.141532681
79,70,1,2,10,11,227,2233.790539971087,2246.6574002525304,stimuli/154_xc.png,l,12.856183110154234,harmless,0.0412,6.5,0.965506805,0.124646393
79,70,1,2,10,12,228,2247.2635729257017,2256.041392057319,stimuli/188_xa.png,a,8.76736566494219,harmless,0.0412,6.655172414,0.806807095,0.105938962
79,70,1,2,10,13,229,2256.676964170183,2262.7453705344815,stimuli/153_xb.png,a,6.057728405226953,harmless,0.0412,6.633333333,0.973664521,0.125699549
79,70,1,2,10,14,230,2263.3549117745133,2269.8173833485926,stimuli/335_yb.png,l,6.4518901073606685,ambig,0.0412,5.016949153,2.046793332,0.266469795
79,70,1,2,10,15,231,2270.430805549375,2279.8734300304204,stimuli/304_ya.png,l,9.432263961993158,ambig,0.0412,4.034482759,2.017167697,0.264867095
79,70,1,2,10,16,232,2280.502207114245,2294.9773731401656,stimuli/167_xb.png,a,14.46472279925365,harmless,0.0412,6.590163934,0.955284411,0.122311635
79,70,1,2,10,17,233,2295.6246109784115,2302.2973735970445,stimuli/185_xa.png,a,6.661931847338565,harmless,0.0412,6.5,0.965506805,0.124646393
79,70,1,2,10,18,234,2302.923646212672,2310.657417187933,stimuli/213_ya.png,l,7.723198173218407,ambig,0.0412,5.98245614,1.597891781,0.211645937
79,70,1,2,10,19,235,2311.2925218052696,2320.489411837887,stimuli/137_xa.png,l,9.186548418249004,harmless,0.0412,6.355932203,1.094858074,0.14253838
79,70,1,2,10,20,236,2321.0974174714647,2330.089402700658,stimuli/259_xc.png,a,8.981508131721057,harmless,0.0412,6.568965517,0.993170874,0.130409725
79,70,1,2,10,21,237,2330.723302936298,2335.9214036521735,stimuli/135_xa.png,a,5.18737234454602,harmless,0.0412,6.508474576,1.179901828,0.153610134
79,70,1,2,10,22,238,2336.489398447098,2342.4334159622667,stimuli/125_xc.png,a,5.933379728463478,harmless,0.0412,6.683333333,0.999858747,0.129081209
79,70,1,2,10,23,239,2343.0416271835566,2349.6334138354287,stimuli/166_xa.png,a,6.581232754397206,harmless,0.0412,6.593220339,1.052397002,0.13701042
79,70,1,2,10,24,240,2350.2433489217656,2360.313418498612,stimuli/117_xc.png,l,10.059518042486161,harmless,0.0412,6.627118644,0.868972939,0.113130641
