id,age,condition,counterbalance,block,trialinblock,trial,tstart,tend,trialstim,response,RT,trialtype,ethicfreq,norm_mean,norm_sd,norm_se
163,23,1,2,0,0,practice,8.664559572935104e-06,12.512011137907393,stimuli/prac_217_1.png,l,12.491581923910417,harmless,NA,NA,NA,NA
163,23,1,2,1,1,1,4.50816601421684,11.919710444053635,stimuli/342_yb.png,l,7.399828282883391,ambig,0.333,4.916666667,2.085394461,0.269223267
163,23,1,2,1,2,2,12.535679345950484,24.31989397655707,stimuli/219_ya.png,l,11.772445314447396,ambig,0.333,5.271186441,1.998538332,0.260187529
163,23,1,2,1,3,3,24.878495191107504,32.23176451132167,stimuli/303_zb.png,a,7.341768213431351,awful,0.333,3.620689655,2.158846233,0.283470398
163,23,1,2,1,4,4,32.8193953668233,44.68778681871481,stimuli/279_ya.png,a,11.856871440541,ambig,0.333,5.31147541,1.970964092,0.252356093
163,23,1,2,1,5,5,45.27774451964069,56.04779091477394,stimuli/280_xb.png,l,10.758825707132928,harmless,0.333,6.333333333,1.068289726,0.137915611
163,23,1,2,1,6,6,56.63217450550292,67.27179034764413,stimuli/340_za.png,a,10.628734256024472,awful,0.333,2.508474576,1.832398855,0.238558011
163,23,1,2,1,7,7,67.9281517569907,74.99978850444313,stimuli/241_yb.png,l,7.059694532654248,ambig,0.333,5.508474576,1.442852555,0.187843403
163,23,1,2,1,8,8,75.6608536230633,82.67178286449052,stimuli/177_xb.png,l,6.998968122061342,harmless,0.333,6.482758621,1.063614811,0.139659467
163,23,1,2,1,9,9,83.31077800446656,89.07977676775772,stimuli/260_ya.png,a,5.757409041048959,ambig,0.333,4.966101695,2.016877936,0.262575142
163,23,1,2,1,10,10,89.65331815718673,95.8878183264751,stimuli/351_zb.png,a,6.2228281332645565,awful,0.333,3.06779661,2.033040926,0.264679384
163,23,1,2,1,11,11,96.48154828953557,102.67991855251603,stimuli/322_za.png,a,6.1866340298438445,awful,0.333,2.406779661,1.975004531,0.257123689
163,23,1,2,1,12,12,103.25585098424926,110.34382015396841,stimuli/132_xc.png,l,7.076228604302742,harmless,0.333,6.627118644,0.692280217,0.090127208
163,23,1,2,1,13,13,110.95281324582174,115.01580269867554,stimuli/111_xa.png,a,4.0514103644527495,harmless,0.333,6.590163934,0.863655973,0.110579816
163,23,1,2,1,14,14,115.6376796924742,121.32783116586506,stimuli/369_za.png,a,5.678317566285841,awful,0.333,2.948275862,2.055565093,0.26990892
163,23,1,2,1,15,15,121.93594755546656,126.19186982582323,stimuli/199_za.png,a,4.24423802504316,awful,0.333,3.033898305,2.189048775,0.284989876
163,23,1,2,1,16,16,126.81602758506779,134.0319228376029,stimuli/300_za.png,a,7.204067647107877,awful,0.333,3.75,2.12032137,0.273732312
163,23,1,2,1,17,17,134.6445511331549,139.47186360310297,stimuli/327_zb.png,a,4.815625861519948,awful,0.333,2.502808989,1.906990248,0.101070281
163,23,1,2,1,18,18,140.09516592754517,146.84014359652065,stimuli/140_xb.png,l,6.73310083267279,harmless,0.333,6.724137931,0.790138861,0.103750315
163,23,1,2,1,19,19,147.42216607718728,152.99986215378158,stimuli/164_xb.png,l,5.56585547409486,harmless,0.333,6.830508475,0.460604639,0.059965616
163,23,1,2,1,20,20,153.6558903688565,160.55989381903782,stimuli/281_ya.png,a,6.892131339991465,ambig,0.333,5.881355932,1.543448286,0.200939852
163,23,1,2,1,21,21,161.1444826037623,168.13589044765104,stimuli/114_xc.png,l,6.979549912153743,harmless,0.333,6.644067797,0.97843492,0.127381377
163,23,1,2,1,22,22,168.81499176856596,179.79992004914675,stimuli/124_xa.png,l,10.972928957897238,harmless,0.333,6.344262295,1.181598436,0.151288177
163,23,1,2,1,23,23,180.36910234496463,190.0238481957931,stimuli/233_yb.png,a,9.642784731346183,ambig,0.333,5.318309859,1.922973646,0.102060844
163,23,1,2,1,24,24,190.62104518990964,201.27991934027523,stimuli/289_yb.png,a,10.64731357281562,ambig,0.333,5.305084746,1.714584873,0.223219937
163,23,1,2,2,1,25,209.57681228488218,214.93597079231404,stimuli/245_yb.png,a,5.347382495878264,ambig,0.333,4.949152542,2.096168334,0.272897873
163,23,1,2,2,2,26,215.55018865247257,222.34391704015434,stimuli/312_yb.png,a,6.782067379215732,ambig,0.333,4.677966102,2.112692986,0.275049199
163,23,1,2,2,3,27,222.9477208100725,229.72793080902193,stimuli/110_xa.png,l,6.768529692082666,harmless,0.333,6.428571429,1.059281795,0.141552484
163,23,1,2,2,4,28,230.33622403570917,238.687946326565,stimuli/223_yb.png,l,8.339980543940328,ambig,0.333,5.542372881,1.77455224,0.231027024
163,23,1,2,2,5,29,239.3027006057091,246.03997384861577,stimuli/330_ya.png,a,6.725576788303442,ambig,0.333,4.796610169,2.049219036,0.266785595
163,23,1,2,2,6,30,246.67924153036438,261.11197608569637,stimuli/193_xc.png,l,14.420695848064497,harmless,0.333,6.482758621,1.012923151,0.133003326
163,23,1,2,2,7,31,261.75953778170515,268.584228809108,stimuli/255_xb.png,l,6.812718092580326,harmless,0.333,6.770491803,0.642740036,0.082294429
163,23,1,2,2,8,32,269.193636621465,276.5840121934889,stimuli/354_zb.png,a,7.379009554744698,awful,0.333,2,1.701925887,0.221571878
163,23,1,2,2,9,33,277.1733972415095,284.5279508952517,stimuli/362_zb.png,a,7.342813875991851,awful,0.333,1.474576271,1.222715071,0.159183944
163,23,1,2,2,10,34,285.16563688928727,298.8879928004462,stimuli/206_xa.png,l,13.710477893357165,harmless,0.333,6.325842697,1.136094431,0.060212884
163,23,1,2,2,11,35,299.5106882074615,308.2081230849726,stimuli/373_zb.png,a,8.685720699839294,awful,0.333,2.327586207,1.858011869,0.243968911
163,23,1,2,2,12,36,308.8298185155727,317.0000397785334,stimuli/286_ya.png,a,8.158443282125518,ambig,0.333,5.06779661,1.779814082,0.231712057
163,23,1,2,2,13,37,317.65570053481497,324.320008585928,stimuli/250_yb.png,l,6.652415460906923,ambig,0.333,5.950819672,1.585625318,0.203018519
163,23,1,2,2,14,38,324.93246713350527,330.48002646653913,stimuli/248_zb.png,a,5.5357549644540995,awful,0.333,3.288135593,1.991800844,0.259310383
163,23,1,2,2,15,39,331.11142824508715,338.07215820031706,stimuli/357_za.png,a,6.948998448322527,awful,0.333,2.793103448,2.066937905,0.271402243
163,23,1,2,2,16,40,338.680692067137,345.9120536734117,stimuli/161_xc.png,l,7.219567083870061,harmless,0.333,6.796610169,0.609682252,0.079373868
163,23,1,2,2,17,41,346.51803699007723,354.71205761190504,stimuli/285_yb.png,a,8.181996093015186,ambig,0.333,4.120689655,2.119893958,0.278355714
163,23,1,2,2,18,42,355.3224224713631,365.3840456705075,stimuli/268_zb.png,a,10.049935409217142,awful,0.333,2.655737705,2.048456703,0.262278005
163,23,1,2,2,19,43,366.00185462343507,372.7200597858755,stimuli/294_za.png,a,6.706530763301998,awful,0.333,1.557377049,1.38473331,0.177296933
163,23,1,2,2,20,44,373.32449016568717,381.0160846927902,stimuli/181_xa.png,l,7.679911857121624,harmless,0.333,6.666666667,0.950765377,0.122743282
163,23,1,2,2,21,45,381.60874693782534,391.93608067557216,stimuli/118_xb.png,a,10.316094932844862,harmless,0.333,6.474576271,0.953323265,0.124112118
163,23,1,2,2,22,46,392.5068903452484,397.2161032035947,stimuli/103_xb.png,l,4.697572329896502,harmless,0.333,6.779661017,0.589207434,0.076708274
163,23,1,2,2,23,47,397.82936559198424,404.12016691220924,stimuli/189_yb.png,l,6.279108410235494,ambig,0.333,5.983333333,1.455459234,0.187898979
163,23,1,2,2,24,48,404.7255886036437,411.7601013761014,stimuli/301_za.png,a,7.022813560906798,awful,0.333,3.610169492,2.212947396,0.288101212
163,23,1,2,3,1,49,420.41814057168085,423.9601320961956,stimuli/337_zb.png,a,3.5301493466831744,awful,0.333,3.033333333,2.20143764,0.284204377
163,23,1,2,3,2,50,424.5802600175375,429.9921246445738,stimuli/331_za.png,a,5.4000949170440435,awful,0.333,1.983606557,1.638004917,0.209725039
163,23,1,2,3,3,51,430.5718793569831,436.720100745908,stimuli/257_yb.png,l,6.136514694313519,ambig,0.333,5.620689655,1.843219782,0.242026615
163,23,1,2,3,4,52,437.29093640949577,441.26413397083525,stimuli/197_xa.png,l,3.9613671988481656,harmless,0.333,6.779661017,0.55918033,0.072799078
163,23,1,2,3,5,53,441.92207352328114,451.4321536317002,stimuli/365_zb.png,a,9.498307641479187,awful,0.333,2.966101695,2.165291266,0.281896912
163,23,1,2,3,6,54,452.00322284630965,458.15212874056306,stimuli/319_ya.png,a,6.136790780816227,ambig,0.333,4.216666667,2.108028774,0.272145344
163,23,1,2,3,7,55,458.77929509349633,465.32817893242463,stimuli/350_ya.png,a,6.53703732881695,ambig,0.333,4.915254237,2.02814792,0.264042369
163,23,1,2,3,8,56,465.92183209536597,472.08012177736964,stimuli/265_yb.png,l,6.146519578061998,ambig,0.333,5.627118644,1.856008928,0.241631781
163,23,1,2,3,9,57,472.68434735690244,481.920193299884,stimuli/307_za.png,a,9.224160122219473,awful,0.333,2.93220339,2.172432347,0.282826601
163,23,1,2,3,10,58,482.5377505848883,488.24817412742414,stimuli/311_za.png,a,5.698732207994908,awful,0.333,3.116666667,1.975199339,0.254997138
163,23,1,2,3,11,59,488.8710436145775,497.81619339447934,stimuli/272_xb.png,l,8.93345135601703,harmless,0.333,6.355932203,1.029943284,0.134087194
163,23,1,2,3,12,60,498.45509204198606,504.3362126140855,stimuli/129_xa.png,l,5.869417816051282,harmless,0.333,6.770491803,0.642740036,0.082294429
163,23,1,2,3,13,61,504.9674714264693,512.2162501083221,stimuli/295_za.png,a,7.2371113719418645,awful,0.333,2.3,1.825432384,0.235662307
163,23,1,2,3,14,62,512.8434964120388,525.328291966347,stimuli/122_xa.png,l,12.47305774583947,harmless,0.333,6.457627119,1.039264227,0.135300678
163,23,1,2,3,15,63,525.9329302971018,533.4402148827212,stimuli/309_ya.png,a,7.495370727730915,ambig,0.333,4.706896552,1.946734744,0.255618795
163,23,1,2,3,16,64,534.0596917757066,541.2402211842127,stimuli/146_xa.png,a,7.168779784580693,harmless,0.333,6.442622951,1.162247681,0.148810567
163,23,1,2,3,17,65,541.8587658425095,547.7602396162692,stimuli/127_xb.png,l,5.889999448671006,harmless,0.333,6.423728814,1.162686987,0.151368953
163,23,1,2,3,18,66,548.3657979725394,560.4163509330247,stimuli/284_ya.png,a,12.038784038159065,ambig,0.333,5.948275862,1.431750417,0.18799804
163,23,1,2,3,19,67,561.0371676919749,569.7442762282444,stimuli/262_ya.png,l,8.695296684629284,ambig,0.333,5.491525424,1.7750462,0.231091332
163,23,1,2,3,20,68,570.3664234008174,574.1283467110479,stimuli/179_xb.png,l,3.7499019321985543,harmless,0.333,6.704918033,0.882123617,0.112944356
163,23,1,2,3,21,69,574.7516419462627,578.776251053554,stimuli/318_za.png,a,4.012798831099644,awful,0.333,3.06557377,2.197489875,0.281359747
163,23,1,2,3,22,70,579.3831784203649,583.6322367333341,stimuli/298_za.png,a,4.237155876588076,awful,0.333,2.881355932,2.026418156,0.263817173
163,23,1,2,3,23,71,584.2443404252408,598.4402975904522,stimuli/304_ya.png,a,14.184326089220122,ambig,0.333,4.034482759,2.017167697,0.264867095
163,23,1,2,3,24,72,599.0571010531858,603.1042964719236,stimuli/126_xa.png,l,4.0355336227221414,harmless,0.333,6.6,0.977717855,0.126222832
163,23,1,2,4,1,73,612.1777579104528,617.6722901389003,stimuli/166_xa.png,l,5.483177238842472,harmless,0.333,6.593220339,1.052397002,0.13701042
163,23,1,2,4,2,74,618.3163950438611,627.4802997959778,stimuli/237_ya.png,l,9.152752593508922,ambig,0.333,4.305084746,2.019339575,0.26289562
163,23,1,2,4,3,75,628.0489507928723,641.6163426622516,stimuli/226_yb.png,a,13.55561073787976,ambig,0.333,5.683333333,1.712285287,0.22105508
163,23,1,2,4,4,76,642.2347727111774,647.5843382984167,stimuli/224_yb.png,a,5.337895520380698,ambig,0.333,5.881355932,1.609077116,0.209483997
163,23,1,2,4,5,77,648.1674568541348,654.1523945869412,stimuli/341_zb.png,a,5.973272392060608,awful,0.333,3.603448276,2.15975677,0.283589957
163,23,1,2,4,6,78,654.7583968082909,661.2643537372351,stimuli/138_xc.png,l,6.494338849792257,harmless,0.333,6.661016949,0.70978796,0.092406522
163,23,1,2,4,7,79,661.9358932046453,668.9043850874295,stimuli/287_ya.png,a,6.956794640515,ambig,0.333,5.950819672,1.407435369,0.180203633
163,23,1,2,4,8,80,669.5183989350917,673.1203126354376,stimuli/346_zb.png,a,3.5903204336063936,awful,0.333,1.288135593,0.983499162,0.128040685
163,23,1,2,4,9,81,673.7376044677803,679.8243566516321,stimuli/269_za.png,a,6.07508999388665,awful,0.333,3.457627119,2.119873401,0.27598401
163,23,1,2,4,10,82,680.4590309011983,684.6563649539603,stimuli/315_yb.png,a,4.185797106008977,ambig,0.333,5.050847458,1.915667965,0.249398726
163,23,1,2,4,11,83,685.2701716383453,691.1203272077255,stimuli/252_zb.png,a,5.838431939366274,awful,0.333,2.711864407,1.983125776,0.258180985
163,23,1,2,4,12,84,691.7582491157809,700.0244129716884,stimuli/367_zb.png,a,8.25453593058046,awful,0.333,3.413793103,2.086165649,0.27392697
163,23,1,2,4,13,85,700.6379030034877,709.0085445006844,stimuli/209_ya.png,a,8.358871393254958,ambig,0.333,5.603448276,1.825161903,0.239655499
163,23,1,2,4,14,86,709.6239513836335,716.176442462951,stimuli/368_za.png,a,6.5408328279154375,awful,0.333,3.590163934,2.02794682,0.259651984
163,23,1,2,4,15,87,716.8058580735233,722.0004690712085,stimuli/130_xc.png,a,5.1829232077579945,harmless,0.333,6.644067797,0.960651931,0.125066229
163,23,1,2,4,16,88,722.6305589469848,729.4325435397914,stimuli/205_yb.png,a,6.790048679453321,ambig,0.333,5.847457627,1.52918233,0.199082582
163,23,1,2,4,17,89,730.0679022945696,734.6805238947272,stimuli/101_xa.png,l,4.6006057360209525,harmless,0.333,6.508522727,1.13475832,0.060482822
163,23,1,2,4,18,90,735.3200700259767,739.6084137436701,stimuli/105_xa.png,l,4.276479090680368,harmless,0.333,6.557377049,1.088187946,0.139328189
163,23,1,2,4,19,91,740.2435377659276,746.6564567202004,stimuli/207_yb.png,a,6.401068505598232,ambig,0.333,5.655737705,1.662179753,0.212820309
163,23,1,2,4,20,92,747.2848502988927,753.2084617929067,stimuli/333_za.png,a,5.911812639213167,awful,0.333,3.266666667,2.185209657,0.282109354
163,23,1,2,4,21,93,753.7758942286018,757.376477909158,stimuli/190_xc.png,l,3.5872653658734635,harmless,0.333,6.517241379,1.046990328,0.137476565
163,23,1,2,4,22,94,758.0033098863205,762.7843965877546,stimuli/121_xc.png,l,4.769224831252359,harmless,0.333,6.508474576,1.006408455,0.131023221
163,23,1,2,4,23,95,763.4070888438728,768.4004415019881,stimuli/297_za.png,a,4.981762935873121,awful,0.333,1.898305085,1.446695584,0.188343723
163,23,1,2,4,24,96,769.0019964081002,775.7604593826691,stimuli/214_xb.png,l,6.746323442552239,harmless,0.333,6.465517241,0.940614156,0.12350869
163,23,1,2,5,1,97,785.214032752323,791.8084566729376,stimuli/371_zb.png,a,6.582651059841737,awful,0.25,3.131147541,2.085468851,0.267016925
163,23,1,2,5,2,98,792.438820272102,795.9285838066135,stimuli/113_xb.png,l,3.477458587032743,harmless,0.25,6.733333333,0.660422737,0.085260209
163,23,1,2,5,3,99,796.5116283191601,801.7204697801499,stimuli/215_yb.png,l,5.196857892326079,ambig,0.25,5.866666667,1.466769385,0.189359113
163,23,1,2,5,4,100,802.2896788575454,811.0485250446945,stimuli/198_yb.png,a,8.747028033947572,ambig,0.25,5.101694915,1.83542643,0.238952168
163,23,1,2,5,5,101,811.6802761652507,819.6726359361783,stimuli/242_xb.png,l,7.980344694573432,harmless,0.25,6.576271186,0.913564256,0.118935936
163,23,1,2,5,6,102,820.2783207171597,826.0008963947184,stimuli/187_xc.png,l,5.71090324758552,harmless,0.25,6.224137931,1.185335891,0.155642228
163,23,1,2,5,7,103,826.6350168960635,831.4164935054723,stimuli/162_xa.png,l,4.769821508787572,harmless,0.25,6.644067797,0.905209289,0.117848212
163,23,1,2,5,8,104,832.0418777028099,841.1925358203007,stimuli/344_za.png,a,9.138870684313588,awful,0.25,2.711864407,2.043077863,0.265986082
163,23,1,2,5,9,105,841.8398489992833,847.4805810024263,stimuli/211_zb.png,a,5.628840200719424,awful,0.25,3.983333333,2.127237938,0.274625237
163,23,1,2,5,10,106,848.0821296070935,854.5605495735072,stimuli/352_zb.png,a,6.46680228121113,awful,0.25,2.93442623,2.135952968,0.273480754
163,23,1,2,5,11,107,855.1746122580953,862.0805483132135,stimuli/160_xb.png,l,6.894180129747838,harmless,0.25,6.666666667,0.680644427,0.087870818
163,23,1,2,5,12,108,862.7145258481614,870.3526706733974,stimuli/275_yb.png,a,7.62610533030238,ambig,0.25,4.836065574,2.138382004,0.27379176
163,23,1,2,5,13,109,870.996211983962,876.3685348121217,stimuli/274_xb.png,l,5.360603136592545,harmless,0.25,6.491525424,1.179901828,0.153610134
163,23,1,2,5,14,110,876.9809937536484,884.7925897773821,stimuli/334_za.png,a,7.799739667447284,awful,0.25,3.333333333,2.214487481,0.285889104
163,23,1,2,5,15,111,885.4050278449431,900.088584357989,stimuli/323_yb.png,a,14.671789953717962,ambig,0.25,4.603448276,1.955107169,0.256718148
163,23,1,2,5,16,112,900.7110895371297,909.9366352114594,stimuli/208_xb.png,a,9.213821650482714,harmless,0.25,6.216666667,1.165778516,0.150501359
163,23,1,2,5,17,113,910.5473021512153,915.5846175355837,stimuli/296_yb.png,a,5.025701243663207,ambig,0.25,4.229508197,2.052587332,0.262806878
163,23,1,2,5,18,114,916.1473100280855,920.6006112497998,stimuli/147_ya.png,a,4.44125503138639,ambig,0.25,5.883333333,1.766847875,0.22809908
163,23,1,2,5,19,115,921.2031531353714,927.1686852615094,stimuli/263_ya.png,a,5.953609997406602,ambig,0.25,4.983050847,2.071910042,0.269739712
163,23,1,2,5,20,116,927.8061877230648,935.0565874772146,stimuli/170_xc.png,l,7.238198782200925,harmless,0.25,6.583333333,1.062323432,0.137145365
163,23,1,2,5,21,117,935.6891641000984,943.224811938242,stimuli/271_ya.png,a,7.523980922065675,ambig,0.25,5.711864407,1.771915459,0.230683744
163,23,1,2,5,22,118,943.8450651027961,953.0566453727661,stimuli/149_xa.png,l,9.199891298427247,harmless,0.25,6.721311475,0.933294301,0.11949609
163,23,1,2,5,23,119,953.6650709317764,960.0806408671197,stimuli/172_xb.png,l,6.40375375142321,harmless,0.25,6.482758621,1.127664553,0.14806961
163,23,1,2,5,24,120,960.7288504407043,967.19263231277,stimuli/310_zb.png,a,6.451823903364129,awful,0.25,3.224137931,2.102989547,0.276136056
163,23,1,2,6,1,121,975.9011082841316,982.0966767228674,stimuli/115_xb.png,l,6.18357069150079,harmless,0.166,6.440677966,1.021681954,0.133011661
163,23,1,2,6,2,122,982.7024320024066,994.0886973919114,stimuli/202_yb.png,l,11.374437783961184,ambig,0.166,5.431034483,1.892849601,0.248543329
163,23,1,2,6,3,123,994.7031633754959,1002.2087359101279,stimuli/176_xb.png,l,7.493115168530494,harmless,0.166,6.796610169,0.517942249,0.067430337
163,23,1,2,6,4,124,1002.8124195568962,1010.5687203138368,stimuli/249_ya.png,l,7.744336486677639,ambig,0.166,5.327868852,1.859402337,0.238072074
163,23,1,2,6,5,125,1011.2166148101678,1017.8887253550347,stimuli/267_ya.png,a,6.660291210049763,ambig,0.166,5.103448276,1.898195405,0.249245267
163,23,1,2,6,6,126,1018.4945401054574,1024.0407036462566,stimuli/135_xa.png,l,5.534448969294317,harmless,0.166,6.508474576,1.179901828,0.153610134
163,23,1,2,6,7,127,1024.6248918891652,1029.0247150519863,stimuli/317_za.png,a,4.388174757477827,awful,0.166,3.65,2.03215674,0.262350307
163,23,1,2,6,8,128,1029.6084495837567,1037.432777484646,stimuli/314_zb.png,a,7.812714941799641,awful,0.166,1.833333333,1.451669602,0.18740974
163,23,1,2,6,9,129,1038.0575516136596,1042.9207104203524,stimuli/156_xc.png,l,4.8513315950986,harmless,0.166,6.590163934,0.955284411,0.122311635
163,23,1,2,6,10,130,1043.594338849769,1053.3207198727177,stimuli/210_yb.png,a,9.714567202026956,ambig,0.166,5.557377049,1.76564049,0.226067099
163,23,1,2,6,11,131,1053.9244444795186,1059.528736225213,stimuli/353_zb.png,a,5.592592140426859,awful,0.166,1.949152542,1.623361018,0.211343603
163,23,1,2,6,12,132,1060.1441990343155,1067.0567383205052,stimuli/188_xa.png,l,6.900783754652366,harmless,0.166,6.655172414,0.806807095,0.105938962
163,23,1,2,6,13,133,1067.6815392310964,1077.1687628492946,stimuli/254_ya.png,a,9.47541137272492,ambig,0.166,5.983606557,1.627798137,0.208418195
163,23,1,2,6,14,134,1077.7906508707674,1084.424731199746,stimuli/238_xb.png,a,6.622322434326634,harmless,0.166,6.4,1.076718178,0.139003719
163,23,1,2,6,15,135,1085.06298236351,1091.3687912061578,stimuli/169_xc.png,l,6.2940080186817795,harmless,0.166,6.603448276,0.916508538,0.120343467
163,23,1,2,6,16,136,1092.0315868865,1097.9607906076126,stimuli/196_xb.png,l,5.917276472435333,harmless,0.166,6.594366197,0.982313556,0.05213579
163,23,1,2,6,17,137,1098.607744598412,1105.0487849834608,stimuli/244_xb.png,a,6.429423093562946,harmless,0.166,6.610169492,0.743174671,0.096753101
163,23,1,2,6,18,138,1105.6562145046191,1110.456876166747,stimuli/184_xb.png,l,4.788965207524598,harmless,0.166,6.508474576,1.194425,0.15550089
163,23,1,2,6,19,139,1111.1000330831157,1117.8808023441816,stimuli/228_ya.png,a,6.768997975625098,ambig,0.166,5.442622951,1.793735303,0.229664272
163,23,1,2,6,20,140,1118.489988027024,1125.9368660055334,stimuli/203_yb.png,a,7.435170102282427,ambig,0.166,6,1.542501327,0.200816568
163,23,1,2,6,21,141,1126.5560900490964,1137.8968145691324,stimuli/167_xb.png,l,11.328878797590733,harmless,0.166,6.590163934,0.955284411,0.122311635
163,23,1,2,6,22,142,1138.504686380038,1147.5848644773941,stimuli/329_zb.png,a,9.068334344192408,awful,0.166,2.406779661,1.992387617,0.259386774
163,23,1,2,6,23,143,1148.2059269966558,1161.1608650445705,stimuli/107_xa.png,l,12.943015131633729,harmless,0.166,6.813559322,0.540580029,0.070377525
163,23,1,2,6,24,144,1161.726954069687,1169.3208636266645,stimuli/270_yb.png,a,7.582038628403097,ambig,0.166,5.534482759,1.912246013,0.251090203
163,23,1,2,7,1,145,1178.689156617038,1184.0648531346815,stimuli/191_ya.png,a,5.363982339971699,ambig,0.083,5.517241379,2.062542966,0.270825159
163,23,1,2,7,2,146,1184.6305372854695,1189.9048616416985,stimuli/264_xa.png,l,5.262371901422739,harmless,0.083,6.533333333,0.947193297,0.122282129
163,23,1,2,7,3,147,1190.5127456617774,1196.3768516695127,stimuli/109_xb.png,l,5.8523835592204705,harmless,0.083,6.644067797,0.97843492,0.127381377
163,23,1,2,7,4,148,1197.0160634251079,1203.0168660843046,stimuli/136_xc.png,a,5.988947090692818,harmless,0.083,6.559322034,1.038420326,0.135190811
163,23,1,2,7,5,149,1203.6444317975547,1211.040884027956,stimuli/246_ya.png,a,7.384748686570674,ambig,0.083,5.542372881,1.715266481,0.223308675
163,23,1,2,7,6,150,1211.6511204934213,1217.0009586225497,stimuli/273_ya.png,a,5.338086536037736,ambig,0.083,5.551724138,1.836973233,0.241206403
163,23,1,2,7,7,151,1217.6068777422188,1226.9209349129815,stimuli/204_xb.png,l,9.302153552882373,harmless,0.083,6.508474576,0.858484658,0.111765183
163,23,1,2,7,8,152,1227.5761600750266,1234.8889344875934,stimuli/336_ya.png,a,7.3009688624879345,ambig,0.083,5.033898305,1.884291705,0.245313885
163,23,1,2,7,9,153,1235.5150150055997,1240.1369396548253,stimuli/313_zb.png,a,4.610174237634055,awful,0.083,2.101694915,1.688652955,0.219843889
163,23,1,2,7,10,154,1240.780822824221,1246.0809527935926,stimuli/201_yb.png,a,5.28820705297403,ambig,0.083,5.898305085,1.626238682,0.211718243
163,23,1,2,7,11,155,1246.692237284733,1250.9689247201895,stimuli/212_ya.png,a,4.264999645529315,ambig,0.083,5.677966102,1.490668422,0.194068498
163,23,1,2,7,12,156,1251.5853067671414,1256.576917048078,stimuli/106_xc.png,l,4.979892558651045,harmless,0.083,6.661016949,0.863237081,0.112383896
163,23,1,2,7,13,157,1257.186233094195,1265.1929584176978,stimuli/221_xb.png,a,7.994894961128011,harmless,0.083,6.440677966,1.133672495,0.147591588
163,23,1,2,7,14,158,1265.808900144184,1272.7129792127525,stimuli/261_yb.png,a,6.892468866426498,ambig,0.083,5.706896552,1.901141123,0.249632059
163,23,1,2,7,15,159,1273.2749505722895,1278.832945263246,stimuli/141_xc.png,a,5.546079651569016,harmless,0.083,6.508474576,1.040107444,0.135410455
163,23,1,2,7,16,160,1279.469436326879,1286.3849810559768,stimuli/195_xc.png,l,6.903631658991799,harmless,0.083,6.637640449,1.001766915,0.05309354
163,23,1,2,7,17,161,1287.0095795294037,1292.5689542586915,stimuli/152_xa.png,l,5.547785794711672,harmless,0.083,6.576271186,0.968528743,0.126091702
163,23,1,2,7,18,162,1293.1747292304644,1298.9210317991674,stimuli/356_za.png,a,5.734248501365073,awful,0.083,3.033333333,2.178217796,0.281206708
163,23,1,2,7,19,163,1299.5589269257616,1303.8809965105029,stimuli/112_xc.png,l,4.310438114916906,harmless,0.083,6.706896552,0.749470472,0.098410294
163,23,1,2,7,20,164,1304.5009389301995,1316.1610556662781,stimuli/159_xa.png,l,11.648362779873423,harmless,0.083,6.389830508,1.174689235,0.152931512
163,23,1,2,7,21,165,1316.794310886762,1320.993010405451,stimuli/243_ya.png,a,4.186789993196726,ambig,0.083,5.830508475,1.652088985,0.215083666
163,23,1,2,7,22,166,1321.60929241532,1325.3210014729993,stimuli/157_xc.png,a,3.7003201972693205,harmless,0.083,6.603448276,0.877389573,0.115206895
163,23,1,2,7,23,167,1325.9359002938727,1332.809015541221,stimuli/227_xa.png,a,6.861253771116026,harmless,0.083,6.180327869,1.05685377,0.135316259
163,23,1,2,7,24,168,1333.452555276337,1337.6410226619337,stimuli/116_xa.png,l,4.176594881573692,harmless,0.083,6.63559322,0.958030802,0.050918763
163,23,1,2,8,1,169,1347.298311186023,1354.7850491914432,stimuli/142_xa.png,a,7.474821784417145,harmless,0.0412,6.4,1.076718178,0.139003719
163,23,1,2,8,2,170,1355.3921167675871,1361.1210065929918,stimuli/239_ya.png,a,5.717063007527031,ambig,0.0412,5.157894737,1.925296579,0.255011762
163,23,1,2,8,3,171,1361.7661288036034,1369.3530239537358,stimuli/143_xb.png,l,7.574901341460645,harmless,0.0412,6.655172414,0.738697862,0.096995781
163,23,1,2,8,4,172,1369.9638303151587,1376.3210727592232,stimuli/144_xa.png,l,6.34555819875095,harmless,0.0412,6.542372881,1.00553698,0.130909764
163,23,1,2,8,5,173,1376.9409714619396,1384.2410348712,stimuli/216_xa.png,l,7.28813970531337,harmless,0.0412,6.603448276,0.877389573,0.115206895
163,23,1,2,8,6,174,1384.852361503872,1392.5530771230115,stimuli/119_xc.png,l,7.688965995213948,harmless,0.0412,6.694915254,0.914523379,0.119060803
163,23,1,2,8,7,175,1393.1628661787836,1398.6330850787926,stimuli/163_xa.png,l,5.458445645286702,harmless,0.0412,6.627118644,0.963082427,0.125382652
163,23,1,2,8,8,176,1399.4450076012872,1405.8730711365351,stimuli/259_xc.png,l,6.415798366302624,harmless,0.0412,6.568965517,0.993170874,0.130409725
163,23,1,2,8,9,177,1406.4749777476536,1418.5131678653415,stimuli/174_xc.png,l,12.026456641498953,harmless,0.0412,6.533333333,1.111826512,0.143536185
163,23,1,2,8,10,178,1419.1320815577637,1423.2891424385598,stimuli/225_ya.png,a,4.14507534285076,ambig,0.0412,5.85,1.792876677,0.231459384
163,23,1,2,8,11,179,1423.906301150797,1430.5771588698262,stimuli/222_ya.png,a,6.658746544038877,ambig,0.0412,5.931034483,1.543089507,0.202617579
163,23,1,2,8,12,180,1431.1928938268684,1436.2091096704826,stimuli/153_xb.png,l,5.004606035305187,harmless,0.0412,6.633333333,0.973664521,0.125699549
163,23,1,2,8,13,181,1436.8312544800574,1442.3211668885779,stimuli/171_xa.png,l,5.478142698528245,harmless,0.0412,6.465517241,1.046556882,0.137419651
163,23,1,2,8,14,182,1442.9548356478335,1451.5692216805182,stimuli/128_xc.png,l,8.602569060982205,harmless,0.0412,6.627118644,0.98082135,0.127692063
163,23,1,2,8,15,183,1452.1982544721104,1458.2011169488542,stimuli/282_xc.png,l,5.991090009687468,harmless,0.0412,6.55,0.998728005,0.128935231
163,23,1,2,8,16,184,1458.8495608611265,1465.7211491654161,stimuli/236_yb.png,a,6.859828834305517,ambig,0.0412,5.93442623,1.49297078,0.19115532
163,23,1,2,8,17,185,1466.3486105094198,1471.8571459517116,stimuli/220_yb.png,a,5.496770458412357,ambig,0.0412,4.75,2.096203186,0.270618668
163,23,1,2,8,18,186,1472.4278347104555,1481.5451844383497,stimuli/151_xa.png,l,9.105853741173632,harmless,0.0412,6.610169492,0.947172729,0.123311386
163,23,1,2,8,19,187,1482.1522165683564,1489.1691929296358,stimuli/102_xc.png,l,7.005129851168022,harmless,0.0412,6.66011236,0.937292468,0.049676401
163,23,1,2,8,20,188,1489.8028774427949,1496.7291773334146,stimuli/175_xb.png,l,6.915174907306209,harmless,0.0412,6.6,1.028409995,0.13276716
163,23,1,2,8,21,189,1497.3422309830785,1505.7772191283293,stimuli/276_ya.png,a,8.423572109313682,ambig,0.0412,5.186440678,1.804922162,0.234980851
163,23,1,2,8,22,190,1506.399369451683,1513.4971765141236,stimuli/360_za.png,a,7.085951887653209,awful,0.0412,3.2,2.207844259,0.285031468
163,23,1,2,8,23,191,1514.1640000630869,1519.5132304868894,stimuli/235_ya.png,a,5.337329562869854,ambig,0.0412,5.694915254,1.567495667,0.204070554
163,23,1,2,8,24,192,1520.2224256220507,1523.7132367884042,stimuli/247_ya.png,a,3.47916748712305,ambig,0.0412,4.65,2.081598147,0.268733165
163,23,1,2,9,1,193,1536.8002485171892,1542.0972592219478,stimuli/277_yb.png,a,5.2850992099847645,ambig,0.0412,5.491525424,2.02886822,0.264136144
163,23,1,2,9,2,194,1542.730016620364,1546.0573562657228,stimuli/117_xc.png,l,3.3156294061336666,harmless,0.0412,6.627118644,0.868972939,0.113130641
163,23,1,2,9,3,195,1546.6893169125542,1553.233219774207,stimuli/231_xb.png,a,6.532155994675122,harmless,0.0412,6.62295082,1.05141071,0.134619347
163,23,1,2,9,4,196,1553.8680645592976,1563.7772388206795,stimuli/180_xc.png,l,9.897540822159499,harmless,0.0412,6.672131148,0.723908638,0.092687003
163,23,1,2,9,5,197,1564.3845623971429,1569.9052405221155,stimuli/217_yb.png,a,5.508906051865779,ambig,0.0412,5.169491525,2.001314588,0.260548967
163,23,1,2,9,6,198,1570.561732688453,1575.7292368041817,stimuli/230_yb.png,a,5.155480374582112,ambig,0.0412,4.98245614,1.875511626,0.248417583
163,23,1,2,9,7,199,1576.3019369372632,1580.7532799539622,stimuli/125_xc.png,l,4.439349207910709,harmless,0.0412,6.683333333,0.999858747,0.129081209
163,23,1,2,9,8,200,1581.351337502827,1593.4172579615843,stimuli/148_xc.png,l,12.054053074680269,harmless,0.0412,6.491525424,1.135218061,0.147792803
163,23,1,2,9,9,201,1594.0363268295769,1603.0733098075725,stimuli/137_xa.png,a,9.024695753585547,harmless,0.0412,6.355932203,1.094858074,0.14253838
163,23,1,2,9,10,202,1603.6905717076734,1609.6332847588928,stimuli/154_xc.png,l,5.931000842829235,harmless,0.0412,6.5,0.965506805,0.124646393
163,23,1,2,9,11,203,1610.2390085307416,1615.521343725617,stimuli/139_xa.png,l,5.270516254007816,harmless,0.0412,6.724137931,0.790138861,0.103750315
163,23,1,2,9,12,204,1616.1370152733289,1624.6253530834801,stimuli/253_ya.png,a,8.476731940172613,ambig,0.0412,5.491803279,1.849531029,0.236808182
163,23,1,2,9,13,205,1625.2165151670342,1629.2332733373623,stimuli/158_xa.png,l,4.005004607955925,harmless,0.0412,6.786885246,0.661179605,0.084655374
163,23,1,2,9,14,206,1629.8585921562044,1635.3053141713608,stimuli/200_ya.png,a,5.435000354424119,ambig,0.0412,5.862068966,1.444266048,0.189641423
163,23,1,2,9,15,207,1635.9227395177586,1645.7773152269656,stimuli/155_xb.png,l,9.8430749962572,harmless,0.0412,6.655737705,0.892286312,0.114245555
163,23,1,2,9,16,208,1646.336368971155,1651.5372964798007,stimuli/325_yb.png,a,5.188943152199499,ambig,0.0412,5.131147541,1.811770863,0.231973488
163,23,1,2,9,17,209,1652.1403586366214,1657.2813427016372,stimuli/120_xa.png,l,5.1292887919116765,harmless,0.0412,6.440677966,1.054893138,0.137335389
163,23,1,2,9,18,210,1657.9093802430434,1671.121430765721,stimuli/194_xb.png,l,13.200398966553621,harmless,0.0412,6.586206897,1.026567825,0.134794959
163,23,1,2,9,19,211,1671.7561896922998,1678.6413231668994,stimuli/131_xb.png,l,6.873335013748147,harmless,0.0412,6.525423729,1.119666394,0.145768149
163,23,1,2,9,20,212,1679.255773396464,1684.985425314866,stimuli/234_xb.png,l,5.717788866721094,harmless,0.0412,6.637931034,0.788030542,0.103473479
163,23,1,2,9,21,213,1685.6450891274726,1691.7853938072221,stimuli/292_zb.png,a,6.128721652901731,awful,0.0412,2.396551724,1.955107169,0.256718148
163,23,1,2,9,22,214,1692.398028404219,1702.27337676147,stimuli/134_xc.png,l,9.863601884106174,harmless,0.0412,6.516666667,0.965360505,0.124627505
163,23,1,2,9,23,215,1702.898100478109,1708.0174088048516,stimuli/218_yb.png,l,5.107638653717004,ambig,0.0412,5.850282486,1.552723069,0.0825263
163,23,1,2,9,24,216,1708.6287003852194,1717.8574129795888,stimuli/258_ya.png,a,9.216802281094715,ambig,0.0412,5.627118644,1.78014243,0.231754804
163,23,1,2,10,1,217,1728.7237264972646,1736.5614609343465,stimuli/335_yb.png,a,7.826381416758522,ambig,0.0412,5.016949153,2.046793332,0.266469795
163,23,1,2,10,2,218,1737.1920978629496,1742.4094479846535,stimuli/168_xa.png,l,5.2056225531268865,harmless,0.0412,6.474576271,1.164946827,0.151663159
163,23,1,2,10,3,219,1743.0355261396617,1746.697410065215,stimuli/123_xc.png,l,3.650071286247112,harmless,0.0412,6.491525424,1.023396666,0.133234897
163,23,1,2,10,4,220,1747.3049616788048,1754.6654076705454,stimuli/133_xa.png,l,7.348538829362951,harmless,0.0412,6.568965517,1.186356193,0.1557762
163,23,1,2,10,5,221,1755.305064472719,1758.3694843761623,stimuli/178_xa.png,l,3.0524229439906776,harmless,0.0412,6.483333333,1.112207557,0.143585378
163,23,1,2,10,6,222,1758.9440513418522,1764.5614258820424,stimuli/232_yb.png,l,5.605474466923624,ambig,0.0412,5.483333333,1.845669845,0.238274952
163,23,1,2,10,7,223,1765.1670468598604,1772.1294234874658,stimuli/339_ya.png,a,6.9505750159733,ambig,0.0412,4.949152542,1.960152429,0.25519011
163,23,1,2,10,8,224,1772.738145219162,1781.4735583247384,stimuli/173_yb.png,l,8.723618583288044,ambig,0.0412,5.796610169,1.242628763,0.161776485
163,23,1,2,10,9,225,1782.0489496112568,1786.3294333335944,stimuli/108_xb.png,l,4.268607673700899,harmless,0.0412,6.568965517,1.077880782,0.141532681
163,23,1,2,10,10,226,1786.9454085370526,1794.049469488673,stimuli/150_xc.png,l,7.091888336581178,harmless,0.0412,6.482758621,1.030097582,0.135258439
163,23,1,2,10,11,227,1794.657141619362,1799.097500649863,stimuli/104_xc.png,l,4.428423117264174,harmless,0.0412,6.745762712,0.756425814,0.098478253
163,23,1,2,10,12,228,1799.7075027766405,1804.785481241066,stimuli/278_xb.png,l,5.066275708260946,harmless,0.0412,6.360655738,1.140654591,0.146045855
163,23,1,2,10,13,229,1805.3843772892142,1813.113484911737,stimuli/213_ya.png,a,7.71655573323369,ambig,0.0412,5.98245614,1.597891781,0.211645937
163,23,1,2,10,14,230,1813.7017069308786,1818.7935464305338,stimuli/183_xb.png,l,5.080027648014948,harmless,0.0412,6.448275862,1.095003225,0.143780967
163,23,1,2,10,15,231,1819.440021897899,1823.993471993599,stimuli/185_xa.png,l,4.5415330870309845,harmless,0.0412,6.5,0.965506805,0.124646393
163,23,1,2,10,16,232,1824.6327369184,1833.1775176640367,stimuli/240_xa.png,a,8.532866493915208,harmless,0.0412,6.482758621,1.096107616,0.143925981
163,23,1,2,10,17,233,1833.7559825290227,1840.4654742305866,stimuli/186_xa.png,l,6.697739320807159,harmless,0.0412,6.65,0.879618561,0.113558268
163,23,1,2,10,18,234,1841.1095157263335,1848.8095046986127,stimuli/165_xb.png,l,7.688290154677816,harmless,0.0412,6.557377049,1.008705278,0.129151477
163,23,1,2,10,19,235,1849.4262518412434,1857.0255803328473,stimuli/145_xa.png,l,7.58767260320019,harmless,0.0412,6.661016949,0.822321556,0.107057148
163,23,1,2,10,20,236,1857.6669212228153,1864.2255342528224,stimuli/288_yb.png,a,6.546771246008575,ambig,0.0412,5.189655172,1.914459262,0.251380817
163,23,1,2,10,21,237,1864.7846187171526,1868.3935168921016,stimuli/283_yb.png,a,3.597237560315989,ambig,0.0412,5.949152542,1.478859402,0.192531095
163,23,1,2,10,22,238,1869.0066351327114,1874.3135215394432,stimuli/182_xb.png,a,5.295023355050944,harmless,0.0412,6.542372881,0.988241802,0.128658124
163,23,1,2,10,23,239,1874.9390231030993,1882.0335513930768,stimuli/251_ya.png,a,7.08270974305924,ambig,0.0412,5.655172414,1.792300532,0.235340589
163,23,1,2,10,24,240,1882.6393763833912,1890.0095878002467,stimuli/293_zb.png,a,7.358434617519379,awful,0.0412,3.677966102,2.169066842,0.28238845
