id,age,condition,counterbalance,block,trialinblock,trial,tstart,tend,trialstim,response,RT,trialtype,ethicfreq,norm_mean,norm_sd,norm_se
174,20,1,1,0,0,practice,3.5446137189865112e-06,11.00893006240949,stimuli/prac_217_1.png,l,10.995050931815058,harmless,NA,NA,NA,NA
174,20,1,1,1,1,1,4.217894468456507,21.033283131197095,stimuli/255_xb.png,l,16.804919056594372,harmless,0.333,6.770491803,0.642740036,0.082294429
174,20,1,1,1,2,2,21.65434939833358,50.33730224985629,stimuli/330_ya.png,a,28.672529719304293,ambig,0.333,4.796610169,2.049219036,0.266785595
174,20,1,1,1,3,3,50.9682946158573,64.76126478100196,stimuli/327_zb.png,a,13.782417851500213,awful,0.333,2.502808989,1.906990248,0.101070281
174,20,1,1,1,4,4,65.39550558803603,73.49727182928473,stimuli/188_xa.png,l,8.091270247474313,harmless,0.333,6.655172414,0.806807095,0.105938962
174,20,1,1,1,5,5,74.06893366994336,85.72930142749101,stimuli/264_xa.png,l,11.649757942184806,harmless,0.333,6.533333333,0.947193297,0.122282129
174,20,1,1,1,6,6,86.34445803659037,93.51325015863404,stimuli/312_yb.png,l,7.157944817561656,ambig,0.333,4.677966102,2.112692986,0.275049199
174,20,1,1,1,7,7,94.14285382349044,101.97723885672167,stimuli/263_ya.png,a,7.823728744406253,ambig,0.333,4.983050847,2.071910042,0.269739712
174,20,1,1,1,8,8,102.53880406310782,111.09724213322625,stimuli/203_yb.png,l,8.548041719011962,ambig,0.333,6,1.542501327,0.200816568
174,20,1,1,1,9,9,111.68622728716582,118.63325225375593,stimuli/162_xa.png,l,6.936621920671314,harmless,0.333,6.644067797,0.905209289,0.117848212
174,20,1,1,1,10,10,119.18750137835741,124.57725208997726,stimuli/297_za.png,a,5.379141290206462,awful,0.333,1.898305085,1.446695584,0.188343723
174,20,1,1,1,11,11,125.19605886284262,143.68927210988477,stimuli/260_ya.png,l,18.48274127813056,ambig,0.333,4.966101695,2.016877936,0.262575142
174,20,1,1,1,12,12,144.31088661029935,149.66520024696365,stimuli/136_xc.png,l,5.343803464435041,harmless,0.333,6.559322034,1.038420326,0.135190811
174,20,1,1,1,13,13,150.28529725922272,163.47320390539244,stimuli/358_za.png,a,13.177523292135447,awful,0.333,3.949152542,2.112554662,0.275031191
174,20,1,1,1,14,14,164.08784300042316,169.85717886593193,stimuli/250_yb.png,l,5.757697718217969,ambig,0.333,5.950819672,1.585625318,0.203018519
174,20,1,1,1,15,15,170.4536466980353,178.79324349435046,stimuli/342_yb.png,l,8.329166968353093,ambig,0.333,4.916666667,2.085394461,0.269223267
174,20,1,1,1,16,16,179.40769708855078,183.84925586776808,stimuli/298_za.png,a,4.43130381917581,awful,0.333,2.881355932,2.026418156,0.263817173
174,20,1,1,1,17,17,184.40766676235944,191.20917983958498,stimuli/291_za.png,a,6.79111396940425,awful,0.333,2.593220339,1.830005126,0.238246374
174,20,1,1,1,18,18,191.76663408242166,198.80919976811856,stimuli/131_xb.png,l,7.0318589843809605,harmless,0.333,6.525423729,1.119666394,0.145768149
174,20,1,1,1,19,19,199.3820273927413,203.56918336823583,stimuli/126_xa.png,l,4.176873839925975,harmless,0.333,6.6,0.977717855,0.126222832
174,20,1,1,1,20,20,204.18224589852616,211.95319692604244,stimuli/290_zb.png,a,7.760509384330362,awful,0.333,2.586206897,2.026443456,0.266085062
174,20,1,1,1,21,21,212.55488400440663,218.1451987819746,stimuli/242_xb.png,l,5.579881011042744,harmless,0.333,6.576271186,0.913564256,0.118935936
174,20,1,1,1,22,22,218.78887692466378,229.0731505784206,stimuli/241_yb.png,l,10.273876121267676,ambig,0.333,5.508474576,1.442852555,0.187843403
174,20,1,1,1,23,23,229.69037094013765,235.01713111624122,stimuli/363_zb.png,a,5.316549326758832,awful,0.333,2.433333333,2.019956927,0.260775318
174,20,1,1,1,24,24,235.62819093978032,244.9691524123773,stimuli/199_za.png,a,9.330465478822589,awful,0.333,3.033898305,2.189048775,0.284989876
174,20,1,1,2,1,25,257.23094967287034,264.2091219443828,stimuli/311_za.png,l,6.967804277781397,awful,0.333,3.116666667,1.975199339,0.254997138
174,20,1,1,2,2,26,264.80880158999935,269.49712728802115,stimuli/323_yb.png,a,4.677911624312401,ambig,0.333,4.603448276,1.955107169,0.256718148
174,20,1,1,2,3,27,270.11389039456844,279.6811525821686,stimuli/220_yb.png,a,9.556765012443066,ambig,0.333,4.75,2.096203186,0.270618668
174,20,1,1,2,4,28,280.26235061418265,284.3691383912228,stimuli/225_ya.png,l,4.096347709186375,ambig,0.333,5.85,1.792876677,0.231459384
174,20,1,1,2,5,29,284.9764759768732,289.1051269285381,stimuli/337_zb.png,a,4.118184890132397,awful,0.333,3.033333333,2.20143764,0.284204377
174,20,1,1,2,6,30,289.7159973126836,301.2650894187391,stimuli/339_ya.png,a,11.53906124457717,ambig,0.333,4.949152542,1.960152429,0.25519011
174,20,1,1,2,7,31,301.8730382537469,307.0250789267011,stimuli/125_xc.png,l,5.141684888396412,harmless,0.333,6.683333333,0.999858747,0.129081209
174,20,1,1,2,8,32,307.58162614284083,320.33712029317394,stimuli/326_zb.png,a,12.744831953663379,awful,0.333,3.389830508,2.220724867,0.289113752
174,20,1,1,2,9,33,320.9424398127012,329.5051144831814,stimuli/141_xc.png,l,8.552199944388121,harmless,0.333,6.508474576,1.040107444,0.135410455
174,20,1,1,2,10,34,330.1282452903688,334.18506977381185,stimuli/215_yb.png,l,4.046305646654218,ambig,0.333,5.866666667,1.466769385,0.189359113
174,20,1,1,2,11,35,334.80071908421814,347.3210876137018,stimuli/355_zb.png,l,12.5103754773736,awful,0.333,3.183333333,2.070713188,0.267327923
174,20,1,1,2,12,36,347.9312155977823,354.60910280328244,stimuli/108_xb.png,l,6.667363642714918,harmless,0.333,6.568965517,1.077880782,0.141532681
174,20,1,1,2,13,37,355.20858907094225,365.92909552529454,stimuli/174_xc.png,l,10.709921057801694,harmless,0.333,6.533333333,1.111826512,0.143536185
174,20,1,1,2,14,38,366.545163099654,372.84110640781,stimuli/369_za.png,a,6.285353185143322,awful,0.333,2.948275862,2.055565093,0.26990892
174,20,1,1,2,15,39,373.4120132457465,376.9930836716667,stimuli/156_xc.png,l,3.5705106290988624,harmless,0.333,6.590163934,0.955284411,0.122311635
174,20,1,1,2,16,40,377.616886774078,396.0091088684276,stimuli/348_za.png,a,18.38123339926824,awful,0.333,3.084745763,2.119597681,0.275948114
174,20,1,1,2,17,41,396.63670549495146,403.26505436655134,stimuli/222_ya.png,l,6.617907228879631,ambig,0.333,5.931034483,1.543089507,0.202617579
174,20,1,1,2,18,42,403.84465574705973,423.58511640504,stimuli/209_ya.png,l,19.729818153195083,ambig,0.333,5.603448276,1.825161903,0.239655499
174,20,1,1,2,19,43,424.18850923050195,428.7210495681502,stimuli/221_xb.png,l,4.5220860918052495,harmless,0.333,6.440677966,1.133672495,0.147591588
174,20,1,1,2,20,44,429.33425151975825,435.0810369490646,stimuli/354_zb.png,a,5.736277620308101,awful,0.333,2,1.701925887,0.221571878
174,20,1,1,2,21,45,435.64421968115494,444.8010573978536,stimuli/301_za.png,l,9.146391347516328,awful,0.333,3.610169492,2.212947396,0.288101212
174,20,1,1,2,22,46,445.41710843052715,448.38500683708116,stimuli/150_xc.png,l,2.957432738970965,harmless,0.333,6.482758621,1.030097582,0.135258439
174,20,1,1,2,23,47,448.9975715461187,454.5290339277126,stimuli/325_yb.png,l,5.520867532584816,ambig,0.333,5.131147541,1.811770863,0.231973488
174,20,1,1,2,24,48,455.17221739981323,465.8730583395809,stimuli/145_xa.png,l,10.69029138283804,harmless,0.333,6.661016949,0.822321556,0.107057148
174,20,1,1,3,1,49,602.4862725003622,609.9049192932434,stimuli/230_yb.png,a,7.407980263698846,ambig,0.333,4.98245614,1.875511626,0.248417583
174,20,1,1,3,2,50,610.5640149284154,616.0169278914109,stimuli/160_xb.png,l,5.442232255358249,harmless,0.333,6.666666667,0.680644427,0.087870818
174,20,1,1,3,3,51,616.6397727667354,622.496939423494,stimuli/175_xb.png,l,5.846882945857942,harmless,0.333,6.6,1.028409995,0.13276716
174,20,1,1,3,4,52,623.1139494711533,627.0969510814175,stimuli/196_xb.png,l,3.9725402747280896,harmless,0.333,6.594366197,0.982313556,0.05213579
174,20,1,1,3,5,53,627.7134132892825,631.4649185687304,stimuli/155_xb.png,l,3.74120817752555,harmless,0.333,6.655737705,0.892286312,0.114245555
174,20,1,1,3,6,54,632.0925723025575,637.0569241265766,stimuli/328_za.png,a,4.953875522594899,awful,0.333,2.706896552,1.955725922,0.256799395
174,20,1,1,3,7,55,637.667495187372,643.2569391713478,stimuli/347_zb.png,a,5.579075202345848,awful,0.333,3.796610169,2.147810923,0.279621165
174,20,1,1,3,8,56,643.8175008585677,653.1769392187707,stimuli/289_yb.png,l,9.348818304948509,ambig,0.333,5.305084746,1.714584873,0.223219937
174,20,1,1,3,9,57,653.8000345798209,657.0888870861381,stimuli/195_xc.png,l,3.278414014261216,harmless,0.333,6.637640449,1.001766915,0.05309354
174,20,1,1,3,10,58,657.686452566646,661.7209487436339,stimuli/214_xb.png,l,4.0238662753254175,harmless,0.333,6.465517241,0.940614156,0.12350869
174,20,1,1,3,11,59,662.3322291206568,667.2808964247815,stimuli/286_ya.png,l,4.938353267032653,ambig,0.333,5.06779661,1.779814082,0.231712057
174,20,1,1,3,12,60,667.892075189855,673.2249293443747,stimuli/305_zb.png,a,5.322379821911454,awful,0.333,2.75,2.12830003,0.274762352
174,20,1,1,3,13,61,673.8297640392557,681.4729234869592,stimuli/261_yb.png,a,7.632411786355078,ambig,0.333,5.706896552,1.901141123,0.249632059
174,20,1,1,3,14,62,682.0766207547858,687.2329047238454,stimuli/232_yb.png,l,5.1457403199747205,ambig,0.333,5.483333333,1.845669845,0.238274952
174,20,1,1,3,15,63,687.8457065280527,694.6409062552266,stimuli/268_zb.png,a,6.784613148774952,awful,0.333,2.655737705,2.048456703,0.262278005
174,20,1,1,3,16,64,695.2485463148914,706.7929039993323,stimuli/332_zb.png,a,11.53392509976402,awful,0.333,2.694915254,2.002190501,0.260663001
174,20,1,1,3,17,65,707.4357373425737,717.6489017214626,stimuli/310_zb.png,a,10.202455708291382,awful,0.333,3.224137931,2.102989547,0.276136056
174,20,1,1,3,18,66,718.269702536054,722.1208874611184,stimuli/128_xc.png,l,3.8405932267196476,harmless,0.333,6.627118644,0.98082135,0.127692063
174,20,1,1,3,19,67,722.6891764053144,727.3288885196671,stimuli/270_yb.png,l,4.629155468195677,ambig,0.333,5.534482759,1.912246013,0.251090203
174,20,1,1,3,20,68,727.941755308304,744.3368950132281,stimuli/262_ya.png,l,16.384755956940353,ambig,0.333,5.491525424,1.7750462,0.231091332
174,20,1,1,3,21,69,744.9436280457303,753.2088895752095,stimuli/322_za.png,a,8.254600514192134,awful,0.333,2.406779661,1.975004531,0.257123689
174,20,1,1,3,22,70,753.8031979501247,758.2568521313369,stimuli/200_ya.png,l,4.443262950517237,ambig,0.333,5.862068966,1.444266048,0.189641423
174,20,1,1,3,23,71,758.8703191415407,762.9688751446083,stimuli/238_xb.png,l,4.088328612502664,harmless,0.333,6.4,1.076718178,0.139003719
174,20,1,1,3,24,72,763.5781571478583,772.1128675765358,stimuli/293_zb.png,l,8.524256970267743,awful,0.333,3.677966102,2.169066842,0.28238845
174,20,1,1,4,1,73,781.8329289848916,786.8888417151757,stimuli/111_xa.png,l,5.045243050437421,harmless,0.333,6.590163934,0.863655973,0.110579816
174,20,1,1,4,2,74,787.4921825523488,791.8568626078777,stimuli/364_za.png,a,4.354193120263517,awful,0.333,1.677966102,1.279017376,0.166513879
174,20,1,1,4,3,75,792.4687794400379,802.9768796693534,stimuli/367_zb.png,a,10.497718844562769,awful,0.333,3.413793103,2.086165649,0.27392697
174,20,1,1,4,4,76,803.5358104403131,815.0968364719301,stimuli/208_xb.png,a,11.550417003687471,harmless,0.333,6.216666667,1.165778516,0.150501359
174,20,1,1,4,5,77,815.7237552893348,821.664851299487,stimuli/308_zb.png,a,5.9310442744754255,awful,0.333,1.644067797,1.471132708,0.191525165
174,20,1,1,4,6,78,822.2921249722131,830.7368167955428,stimuli/246_ya.png,l,8.434274992439896,ambig,0.333,5.542372881,1.715266481,0.223308675
174,20,1,1,4,7,79,831.3602705565281,836.2248021317646,stimuli/224_yb.png,l,4.853989501483738,ambig,0.333,5.881355932,1.609077116,0.209483997
174,20,1,1,4,8,80,836.8014169791713,842.5048155542463,stimuli/251_ya.png,l,5.692996316589415,ambig,0.333,5.655172414,1.792300532,0.235340589
174,20,1,1,4,9,81,843.1120164752938,847.0328030330129,stimuli/299_za.png,a,3.9104567668400705,awful,0.333,1.288135593,0.929420425,0.121000233
174,20,1,1,4,10,82,847.6347130280919,851.4248593184166,stimuli/139_xa.png,l,3.7797751454636455,harmless,0.333,6.724137931,0.790138861,0.103750315
174,20,1,1,4,11,83,852.0386039894074,855.2727828049101,stimuli/109_xb.png,l,3.2237970368005335,harmless,0.333,6.644067797,0.97843492,0.127381377
174,20,1,1,4,12,84,855.8868134086952,864.6887605041265,stimuli/351_zb.png,a,8.791821316815913,awful,0.333,3.06779661,2.033040926,0.264679384
174,20,1,1,4,13,85,865.3030510456301,870.1607675114647,stimuli/282_xc.png,l,4.847298059612513,harmless,0.333,6.55,0.998728005,0.128935231
174,20,1,1,4,14,86,870.7860680157319,878.0168069810607,stimuli/248_zb.png,a,7.220200042240322,awful,0.333,3.288135593,1.991800844,0.259310383
174,20,1,1,4,15,87,878.6223844694905,885.1128203151748,stimuli/173_yb.png,l,6.4800064121373,ambig,0.333,5.796610169,1.242628763,0.161776485
174,20,1,1,4,16,88,885.7357049686834,893.4088108846918,stimuli/271_ya.png,l,7.662658365443349,ambig,0.333,5.711864407,1.771915459,0.230683744
174,20,1,1,4,17,89,894.0191779332235,899.3047493090853,stimuli/186_xa.png,l,5.2753069633618,harmless,0.333,6.65,0.879618561,0.113558268
174,20,1,1,4,18,90,899.9184518391266,903.3767947559245,stimuli/129_xa.png,l,3.4480340001173317,harmless,0.333,6.770491803,0.642740036,0.082294429
174,20,1,1,4,19,91,903.990430331789,908.112751392182,stimuli/257_yb.png,l,4.1120101739652455,ambig,0.333,5.620689655,1.843219782,0.242026615
174,20,1,1,4,20,92,908.7286027451046,917.4967901557684,stimuli/167_xb.png,l,8.757730013690889,harmless,0.333,6.590163934,0.955284411,0.122311635
174,20,1,1,4,21,93,918.0565649392083,931.1767812864855,stimuli/315_yb.png,l,13.109722716733813,ambig,0.333,5.050847458,1.915667965,0.249398726
174,20,1,1,4,22,94,931.7919327751733,936.7447212832049,stimuli/295_za.png,a,4.942327172495425,awful,0.333,2.3,1.825432384,0.235662307
174,20,1,1,4,23,95,937.369132483378,948.344774688594,stimuli/237_ya.png,a,10.965230100322515,ambig,0.333,4.305084746,2.019339575,0.26289562
174,20,1,1,4,24,96,948.9480174584314,956.57673142571,stimuli/333_za.png,a,7.618224668782204,awful,0.333,3.266666667,2.185209657,0.282109354
174,20,1,1,5,1,97,967.1217113868333,975.4887237977237,stimuli/110_xa.png,l,8.356525475624949,harmless,0.25,6.428571429,1.059281795,0.141552484
174,20,1,1,5,2,98,976.0958298020996,983.0647494508885,stimuli/302_za.png,a,6.959131790325046,awful,0.25,3.137931034,2.188071937,0.287307921
174,20,1,1,5,3,99,983.6369906393811,986.4567324812524,stimuli/318_za.png,a,2.809310439042747,awful,0.25,3.06557377,2.197489875,0.281359747
174,20,1,1,5,4,100,987.0277858297341,991.4166956800036,stimuli/134_xc.png,l,4.378257105592638,harmless,0.25,6.516666667,0.965360505,0.124627505
174,20,1,1,5,5,101,991.9834194807336,995.1287312963977,stimuli/201_yb.png,l,3.134844572748989,ambig,0.25,5.898305085,1.626238682,0.211718243
174,20,1,1,5,6,102,995.6879810830578,1000.7208309834823,stimuli/317_za.png,a,5.022188097704202,awful,0.25,3.65,2.03215674,0.262350307
174,20,1,1,5,7,103,1001.2955600963905,1004.9286934086122,stimuli/124_xa.png,l,3.6225443710573018,harmless,0.25,6.344262295,1.181598436,0.151288177
174,20,1,1,5,8,104,1005.5306802033447,1010.4567297240719,stimuli/259_xc.png,l,4.915583852678537,harmless,0.25,6.568965517,0.993170874,0.130409725
174,20,1,1,5,9,105,1011.0285069616511,1019.9207420530729,stimuli/272_xb.png,l,8.881620943546295,harmless,0.25,6.355932203,1.029943284,0.134087194
174,20,1,1,5,10,106,1020.5347915613092,1026.44070531521,stimuli/106_xc.png,l,5.8954981048591435,harmless,0.25,6.661016949,0.863237081,0.112383896
174,20,1,1,5,11,107,1027.0559213948436,1034.6646795826964,stimuli/341_zb.png,a,7.598379560280591,awful,0.25,3.603448276,2.15975677,0.283589957
174,20,1,1,5,12,108,1035.239239342045,1044.0886972523294,stimuli/189_yb.png,l,8.838897326029837,ambig,0.25,5.983333333,1.455459234,0.187898979
174,20,1,1,5,13,109,1044.7142013749108,1051.7207108605653,stimuli/171_xa.png,l,6.996480986941606,harmless,0.25,6.465517241,1.046556882,0.137419651
174,20,1,1,5,14,110,1052.3303776509129,1059.9847207474522,stimuli/350_ya.png,l,7.643817170057446,ambig,0.25,4.915254237,2.02814792,0.264042369
174,20,1,1,5,15,111,1060.624378905166,1066.6806850871071,stimuli/360_za.png,a,6.04610872361809,awful,0.25,3.2,2.207844259,0.285031468
174,20,1,1,5,16,112,1067.2963682683185,1072.7366970665753,stimuli/249_ya.png,l,5.429826109204441,ambig,0.25,5.327868852,1.859402337,0.238072074
174,20,1,1,5,17,113,1073.3514921246096,1084.464690531604,stimuli/223_yb.png,a,11.10278551466763,ambig,0.25,5.542372881,1.77455224,0.231027024
174,20,1,1,5,18,114,1085.0707934107631,1090.0167179717682,stimuli/283_yb.png,l,4.935503792017698,ambig,0.25,5.949152542,1.478859402,0.192531095
174,20,1,1,5,19,115,1090.6442405548878,1095.272672528401,stimuli/304_ya.png,a,4.617793407291174,ambig,0.25,4.034482759,2.017167697,0.264867095
174,20,1,1,5,20,116,1095.8944741054438,1102.1126241795719,stimuli/343_zb.png,a,6.207420923281461,awful,0.25,3.103448276,2.141401862,0.28117984
174,20,1,1,5,21,117,1102.7417749217711,1105.9926457153633,stimuli/194_xb.png,l,3.2406311933882535,harmless,0.25,6.586206897,1.026567825,0.134794959
174,20,1,1,5,22,118,1106.5552494935691,1115.648633906152,stimuli/233_yb.png,l,9.082787200342864,ambig,0.25,5.318309859,1.922973646,0.102060844
174,20,1,1,5,23,119,1116.2730061155744,1120.9606441585347,stimuli/216_xa.png,l,4.677106603048742,harmless,0.25,6.603448276,0.877389573,0.115206895
174,20,1,1,5,24,120,1121.5252010188997,1123.9526549940929,stimuli/197_xa.png,l,2.417297476436943,harmless,0.25,6.779661017,0.55918033,0.072799078
174,20,1,1,6,1,121,1132.4711011615582,1140.1046578581445,stimuli/280_xb.png,a,7.623084333259612,harmless,0.166,6.333333333,1.068289726,0.137915611
174,20,1,1,6,2,122,1140.7051102295518,1144.6326016201638,stimuli/178_xa.png,l,3.917006424162537,harmless,0.166,6.483333333,1.112207557,0.143585378
174,20,1,1,6,3,123,1145.2520550880581,1147.9605972911231,stimuli/133_xa.png,l,2.6981545169837773,harmless,0.166,6.568965517,1.186356193,0.1557762
174,20,1,1,6,4,124,1148.6046728244983,1152.8086617747322,stimuli/154_xc.png,l,4.193464205600321,harmless,0.166,6.5,0.965506805,0.124646393
174,20,1,1,6,5,125,1153.4210425573401,1156.1525991470553,stimuli/135_xa.png,l,2.721175598911941,harmless,0.166,6.508474576,1.179901828,0.153610134
174,20,1,1,6,6,126,1156.753137376625,1161.1125922780484,stimuli/172_xb.png,l,4.3490975415334105,harmless,0.166,6.482758621,1.127664553,0.14806961
174,20,1,1,6,7,127,1161.7830936913379,1166.1126186656766,stimuli/243_ya.png,l,4.319002986885607,ambig,0.166,5.830508475,1.652088985,0.215083666
174,20,1,1,6,8,128,1166.7144565870985,1173.4486283133738,stimuli/278_xb.png,l,6.723560729529709,harmless,0.166,6.360655738,1.140654591,0.146045855
174,20,1,1,6,9,129,1174.0517163020559,1178.1606020960025,stimuli/331_za.png,a,4.098502834327519,awful,0.166,1.983606557,1.638004917,0.209725039
174,20,1,1,6,10,130,1178.8018955015577,1182.6326020141132,stimuli/345_zb.png,a,3.820325915236026,awful,0.166,3.694915254,2.191317013,0.285285176
174,20,1,1,6,11,131,1183.247073724866,1187.208616639953,stimuli/152_xa.png,l,3.951011869125068,harmless,0.166,6.576271186,0.968528743,0.126091702
174,20,1,1,6,12,132,1187.8233159938827,1193.384583846666,stimuli/366_za.png,a,5.550827391445637,awful,0.166,3.689655172,2.036568291,0.267414518
174,20,1,1,6,13,133,1193.9575615269132,1198.6807713396847,stimuli/149_xa.png,l,4.712718151509762,harmless,0.166,6.721311475,0.933294301,0.11949609
174,20,1,1,6,14,134,1199.2807814218104,1208.8965989043936,stimuli/265_yb.png,a,9.605883113108575,ambig,0.166,5.627118644,1.856008928,0.241631781
174,20,1,1,6,15,135,1209.497080420144,1225.1606119419448,stimuli/320_za.png,l,15.65293942950666,awful,0.166,1.423728814,1.117314975,0.14546202
174,20,1,1,6,16,136,1225.7731356909499,1235.4086112049408,stimuli/267_ya.png,a,9.62504529254511,ambig,0.166,5.103448276,1.898195405,0.249245267
174,20,1,1,6,17,137,1236.0203768005595,1240.9445587038063,stimuli/227_xa.png,l,4.91378791583702,harmless,0.166,6.180327869,1.05685377,0.135316259
174,20,1,1,6,18,138,1241.5561856655404,1248.3125309171155,stimuli/287_ya.png,l,6.745927239302546,ambig,0.166,5.950819672,1.407435369,0.180203633
174,20,1,1,6,19,139,1248.954857380595,1275.3205756139942,stimuli/212_ya.png,a,26.355107236653566,ambig,0.166,5.677966102,1.490668422,0.194068498
174,20,1,1,6,20,140,1275.9135004081763,1281.2245583413169,stimuli/309_ya.png,a,5.300489865709096,ambig,0.166,4.706896552,1.946734744,0.255618795
174,20,1,1,6,21,141,1281.8538138465956,1284.8965299814008,stimuli/117_xc.png,l,3.032265433575958,harmless,0.166,6.627118644,0.868972939,0.113130641
174,20,1,1,6,22,142,1285.5159609997645,1290.7045698729344,stimuli/228_ya.png,l,5.178027808666229,ambig,0.166,5.442622951,1.793735303,0.229664272
174,20,1,1,6,23,143,1291.2918449477293,1295.5445471247658,stimuli/130_xc.png,l,4.242452336940914,harmless,0.166,6.644067797,0.960651931,0.125066229
174,20,1,1,6,24,144,1296.1670367508195,1313.7525355801918,stimuli/279_ya.png,l,17.575018589384854,ambig,0.166,5.31147541,1.970964092,0.252356093
174,20,1,1,7,1,145,1509.0020160973072,1514.1444268440828,stimuli/143_xb.png,l,5.131672537885606,harmless,0.083,6.655172414,0.738697862,0.096995781
174,20,1,1,7,2,146,1514.7416662205942,1519.1284201582894,stimuli/277_yb.png,l,4.37631623307243,ambig,0.083,5.491525424,2.02886822,0.264136144
174,20,1,1,7,3,147,1519.7187747140415,1533.1124130780809,stimuli/275_yb.png,a,13.382961988914758,ambig,0.083,4.836065574,2.138382004,0.27379176
174,20,1,1,7,4,148,1533.6762153296731,1537.2084102644585,stimuli/104_xc.png,l,3.521606781054288,harmless,0.083,6.745762712,0.756425814,0.098478253
174,20,1,1,7,5,149,1537.7794057182036,1542.6243741787039,stimuli/281_ya.png,l,4.834365734364837,ambig,0.083,5.881355932,1.543448286,0.200939852
174,20,1,1,7,6,150,1543.2016408410855,1549.7764081568457,stimuli/146_xa.png,l,6.56414607912302,harmless,0.083,6.442622951,1.162247681,0.148810567
174,20,1,1,7,7,151,1550.3747636927292,1557.4723787978292,stimuli/352_zb.png,a,7.08729043463245,awful,0.083,2.93442623,2.135952968,0.273480754
174,20,1,1,7,8,152,1558.0461288099177,1569.1364022335038,stimuli/276_ya.png,l,11.080396161880344,ambig,0.083,5.186440678,1.804922162,0.234980851
174,20,1,1,7,9,153,1569.6876352862455,1574.0323859499767,stimuli/140_xb.png,l,4.334138091653585,harmless,0.083,6.724137931,0.790138861,0.103750315
174,20,1,1,7,10,154,1574.6660596188158,1577.1923641939647,stimuli/213_ya.png,l,2.5158684458583593,ambig,0.083,5.98245614,1.597891781,0.211645937
174,20,1,1,7,11,155,1577.7580301244743,1582.8083415781148,stimuli/204_xb.png,l,5.040121084079146,harmless,0.083,6.508474576,0.858484658,0.111765183
174,20,1,1,7,12,156,1583.4095587981865,1587.6883981656283,stimuli/206_xa.png,l,4.2679022662341595,harmless,0.083,6.325842697,1.136094431,0.060212884
174,20,1,1,7,13,157,1588.3104167520069,1593.8563907803036,stimuli/240_xa.png,l,5.535486305132508,harmless,0.083,6.482758621,1.096107616,0.143925981
174,20,1,1,7,14,158,1594.4082185402513,1597.0323540484533,stimuli/179_xb.png,l,2.613892363384366,harmless,0.083,6.704918033,0.882123617,0.112944356
174,20,1,1,7,15,159,1597.675038518384,1606.4403878753074,stimuli/254_ya.png,a,8.755132206249982,ambig,0.083,5.983606557,1.627798137,0.208418195
174,20,1,1,7,16,160,1607.0350109334104,1610.136337642558,stimuli/217_yb.png,l,3.090689324773848,ambig,0.083,5.169491525,2.001314588,0.260548967
174,20,1,1,7,17,161,1610.7950709396973,1614.4323534183204,stimuli/123_xc.png,l,3.6264040605165064,harmless,0.083,6.491525424,1.023396666,0.133234897
174,20,1,1,7,18,162,1615.0331370146014,1617.7923526149243,stimuli/180_xc.png,l,2.748624295927584,harmless,0.083,6.672131148,0.723908638,0.092687003
174,20,1,1,7,19,163,1618.411588679999,1621.1123323398642,stimuli/166_xa.png,l,2.69048161059618,harmless,0.083,6.593220339,1.052397002,0.13701042
174,20,1,1,7,20,164,1621.7401656676084,1625.7203319808468,stimuli/120_xa.png,l,3.9698058026842773,harmless,0.083,6.440677966,1.054893138,0.137335389
174,20,1,1,7,21,165,1626.3783669890836,1631.544370681513,stimuli/107_xa.png,l,5.155476585030556,harmless,0.083,6.813559322,0.540580029,0.070377525
174,20,1,1,7,22,166,1632.1666417233646,1636.5443529584445,stimuli/316_za.png,a,4.367045493796468,awful,0.083,2.344827586,1.802062407,0.236622386
174,20,1,1,7,23,167,1637.0996280522086,1640.1683474699967,stimuli/112_xc.png,l,3.058063128963113,harmless,0.083,6.706896552,0.749470472,0.098410294
174,20,1,1,7,24,168,1640.75696043903,1647.232360035181,stimuli/285_yb.png,a,6.464905965607613,ambig,0.083,4.120689655,2.119893958,0.278355714
174,20,1,1,8,1,169,1655.5710159335285,1659.704339866992,stimuli/185_xa.png,l,4.122863385826349,harmless,0.0412,6.5,0.965506805,0.124646393
174,20,1,1,8,2,170,1660.2918457351625,1662.4883240438066,stimuli/118_xb.png,l,2.1861154343932867,harmless,0.0412,6.474576271,0.953323265,0.124112118
174,20,1,1,8,3,171,1663.0393830169924,1666.6643050354905,stimuli/158_xa.png,l,3.6142960558645427,harmless,0.0412,6.786885246,0.661179605,0.084655374
174,20,1,1,8,4,172,1667.2810866525397,1682.9123369874433,stimuli/336_ya.png,a,15.62067793495953,ambig,0.0412,5.033898305,1.884291705,0.245313885
174,20,1,1,8,5,173,1683.5378454425372,1686.0722912065685,stimuli/121_xc.png,l,2.5240777703002095,harmless,0.0412,6.508474576,1.006408455,0.131023221
174,20,1,1,8,6,174,1686.687256406527,1691.0163217629306,stimuli/153_xb.png,l,4.318659159820527,harmless,0.0412,6.633333333,0.973664521,0.125699549
174,20,1,1,8,7,175,1691.6253485535271,1696.7206147620454,stimuli/247_ya.png,l,5.085021488368511,ambig,0.0412,4.65,2.081598147,0.268733165
174,20,1,1,8,8,176,1697.3895277944393,1704.3443048307672,stimuli/210_yb.png,l,6.944181005470455,ambig,0.0412,5.557377049,1.76564049,0.226067099
174,20,1,1,8,9,177,1704.9347653309815,1709.0643059806898,stimuli/231_xb.png,l,4.118882391601801,harmless,0.0412,6.62295082,1.05141071,0.134619347
174,20,1,1,8,10,178,1709.6708653266542,1714.0643567866646,stimuli/101_xa.png,l,4.382925755344331,harmless,0.0412,6.508522727,1.13475832,0.060482822
174,20,1,1,8,11,179,1714.689962521661,1719.608313142322,stimuli/284_ya.png,l,4.907479291781783,ambig,0.0412,5.948275862,1.431750417,0.18799804
174,20,1,1,8,12,180,1720.1973798219115,1727.0883262492716,stimuli/335_yb.png,a,6.880432316567749,ambig,0.0412,5.016949153,2.046793332,0.266469795
174,20,1,1,8,13,181,1727.720012965612,1732.5682948520407,stimuli/176_xb.png,l,4.83787608332932,harmless,0.0412,6.796610169,0.517942249,0.067430337
174,20,1,1,8,14,182,1733.175864412915,1737.8962999749929,stimuli/274_xb.png,l,4.7101479126140475,harmless,0.0412,6.491525424,1.179901828,0.153610134
174,20,1,1,8,15,183,1738.459246005863,1744.5762666873634,stimuli/296_yb.png,a,6.106621180195361,ambig,0.0412,4.229508197,2.052587332,0.262806878
174,20,1,1,8,16,184,1745.1558341970667,1749.088270323351,stimuli/253_ya.png,a,3.921959036961198,ambig,0.0412,5.491803279,1.849531029,0.236808182
174,20,1,1,8,17,185,1749.707715914119,1753.8003149982542,stimuli/159_xa.png,l,4.082190129905939,harmless,0.0412,6.389830508,1.174689235,0.152931512
174,20,1,1,8,18,186,1754.3836071090773,1757.4802431133576,stimuli/151_xa.png,l,3.086144343018532,harmless,0.0412,6.610169492,0.947172729,0.123311386
174,20,1,1,8,19,187,1758.1098979781382,1762.464248242788,stimuli/181_xa.png,l,4.3439369783736765,harmless,0.0412,6.666666667,0.950765377,0.122743282
174,20,1,1,8,20,188,1763.07732101297,1766.56823892612,stimuli/338_zb.png,a,3.480454608798027,awful,0.0412,3.310344828,2.137443107,0.28066003
174,20,1,1,8,21,189,1767.1846550540067,1774.504251172766,stimuli/142_xa.png,l,7.309020174201578,harmless,0.0412,6.4,1.076718178,0.139003719
174,20,1,1,8,22,190,1775.1105245873332,1779.2562684519216,stimuli/191_ya.png,l,4.135161618702114,ambig,0.0412,5.517241379,2.062542966,0.270825159
174,20,1,1,8,23,191,1779.8562927125022,1783.0882671726868,stimuli/138_xc.png,l,3.221590318251401,harmless,0.0412,6.661016949,0.70978796,0.092406522
174,20,1,1,8,24,192,1783.6491439365782,1793.4162596925162,stimuli/161_xc.png,l,9.756536266766489,harmless,0.0412,6.796610169,0.609682252,0.079373868
174,20,1,1,9,1,193,1801.859032698907,1804.560210376978,stimuli/115_xb.png,l,2.690767936874181,harmless,0.0412,6.440677966,1.021681954,0.133011661
174,20,1,1,9,2,194,1805.1277907923795,1808.400265215896,stimuli/127_xb.png,l,3.261840189807117,harmless,0.0412,6.423728814,1.162686987,0.151368953
174,20,1,1,9,3,195,1809.018606856931,1811.3602469256148,stimuli/148_xc.png,l,2.3308238782919943,harmless,0.0412,6.491525424,1.135218061,0.147792803
174,20,1,1,9,4,196,1811.9797685290687,1814.6402611355297,stimuli/164_xb.png,l,2.649953289888799,harmless,0.0412,6.830508475,0.460604639,0.059965616
174,20,1,1,9,5,197,1815.1955291400664,1823.3362546199933,stimuli/207_yb.png,l,8.130038864910603,ambig,0.0412,5.655737705,1.662179753,0.212820309
174,20,1,1,9,6,198,1823.9061094955541,1827.4402468786575,stimuli/114_xc.png,l,3.5237020417116582,harmless,0.0412,6.644067797,0.97843492,0.127381377
174,20,1,1,9,7,199,1828.0363945141435,1831.5602473984472,stimuli/184_xb.png,l,3.5132714263163507,harmless,0.0412,6.508474576,1.194425,0.15550089
174,20,1,1,9,8,200,1832.1223513861187,1835.7682086783461,stimuli/190_xc.png,l,3.6350785167887807,harmless,0.0412,6.517241379,1.046990328,0.137476565
174,20,1,1,9,9,201,1836.3772461032495,1842.168239556253,stimuli/198_yb.png,a,5.780659723561257,ambig,0.0412,5.101694915,1.83542643,0.238952168
174,20,1,1,9,10,202,1842.7650842987932,1848.1362163382582,stimuli/244_xb.png,l,5.360579725820571,harmless,0.0412,6.610169492,0.743174671,0.096753101
174,20,1,1,9,11,203,1848.7498818463646,1851.0081821489148,stimuli/113_xb.png,l,2.247859053313732,harmless,0.0412,6.733333333,0.660422737,0.085260209
174,20,1,1,9,12,204,1851.6475847004913,1866.8562178821303,stimuli/122_xa.png,l,15.198065113741904,harmless,0.0412,6.457627119,1.039264227,0.135300678
174,20,1,1,9,13,205,1867.4301258260384,1875.224180642981,stimuli/226_yb.png,l,7.783451303374022,ambig,0.0412,5.683333333,1.712285287,0.22105508
174,20,1,1,9,14,206,1875.785420532804,1881.0962267988361,stimuli/319_ya.png,a,5.300079478416592,ambig,0.0412,4.216666667,2.108028774,0.272145344
174,20,1,1,9,15,207,1881.6751633672975,1884.2161709987558,stimuli/103_xb.png,l,2.5305805606767535,harmless,0.0412,6.779661017,0.589207434,0.076708274
174,20,1,1,9,16,208,1884.7804765850306,1889.1041647633538,stimuli/168_xa.png,l,4.31300392607227,harmless,0.0412,6.474576271,1.164946827,0.151663159
174,20,1,1,9,17,209,1889.7229542066343,1894.4081890019588,stimuli/236_yb.png,l,4.674678149167448,ambig,0.0412,5.93442623,1.49297078,0.19115532
174,20,1,1,9,18,210,1894.9807755928487,1900.5442068418488,stimuli/169_xc.png,l,5.55277023371309,harmless,0.0412,6.603448276,0.916508538,0.120343467
174,20,1,1,9,19,211,1901.1423804205842,1905.472179905977,stimuli/163_xa.png,l,4.319623688235879,harmless,0.0412,6.627118644,0.963082427,0.125382652
174,20,1,1,9,20,212,1906.0677773384377,1925.6962022227235,stimuli/245_yb.png,a,19.618012385908514,ambig,0.0412,4.949152542,2.096168334,0.272897873
174,20,1,1,9,21,213,1926.252094866708,1930.224142440129,stimuli/147_ya.png,l,3.9614535123109818,ambig,0.0412,5.883333333,1.766847875,0.22809908
174,20,1,1,9,22,214,1930.7922742399387,1934.9041465674527,stimuli/177_xb.png,l,4.1016492689959705,harmless,0.0412,6.482758621,1.063614811,0.139659467
174,20,1,1,9,23,215,1935.4810737343505,1942.0241403919645,stimuli/372_zb.png,a,6.532625014428049,awful,0.0412,2.796610169,2.082601664,0.271131643
174,20,1,1,9,24,216,1942.5813051583245,1949.3601405872032,stimuli/205_yb.png,a,6.768129121512175,ambig,0.0412,5.847457627,1.52918233,0.199082582
174,20,1,1,10,1,217,1957.7659535170533,1962.9441947899759,stimuli/193_xc.png,l,5.167732676491141,harmless,0.0412,6.482758621,1.012923151,0.133003326
174,20,1,1,10,2,218,1963.5474887597375,1969.1201895661652,stimuli/218_yb.png,l,5.56200316362083,ambig,0.0412,5.850282486,1.552723069,0.0825263
174,20,1,1,10,3,219,1969.7354308515787,1972.6881370460615,stimuli/183_xb.png,l,2.942259037401527,harmless,0.0412,6.448275862,1.095003225,0.143780967
174,20,1,1,10,4,220,1973.2918595201336,1979.1601523240097,stimuli/235_ya.png,l,5.857749154791236,ambig,0.0412,5.694915254,1.567495667,0.204070554
174,20,1,1,10,5,221,1979.7282994836569,1983.8161050686613,stimuli/119_xc.png,l,4.077098095789552,harmless,0.0412,6.694915254,0.914523379,0.119060803
174,20,1,1,10,6,222,1984.4221149999648,1987.2641284349374,stimuli/132_xc.png,l,2.8313764445483685,harmless,0.0412,6.627118644,0.692280217,0.090127208
174,20,1,1,10,7,223,1987.836614201311,1990.128142496571,stimuli/102_xc.png,l,2.28093541553244,harmless,0.0412,6.66011236,0.937292468,0.049676401
174,20,1,1,10,8,224,1990.704210685566,1996.384158886969,stimuli/288_yb.png,a,5.669517979957163,ambig,0.0412,5.189655172,1.914459262,0.251380817
174,20,1,1,10,9,225,1996.947833926417,2000.7041311287321,stimuli/187_xc.png,l,3.7457630056887865,harmless,0.0412,6.224137931,1.185335891,0.155642228
174,20,1,1,10,10,226,2001.3071663416922,2012.0881348401308,stimuli/202_yb.png,l,10.770316541660577,ambig,0.0412,5.431034483,1.892849601,0.248543329
174,20,1,1,10,11,227,2012.6476555927657,2015.48812751472,stimuli/105_xa.png,l,2.8295170976780355,harmless,0.0412,6.557377049,1.088187946,0.139328189
174,20,1,1,10,12,228,2016.0758941089734,2020.0641291439533,stimuli/116_xa.png,l,3.9780647517181933,harmless,0.0412,6.63559322,0.958030802,0.050918763
174,20,1,1,10,13,229,2020.6426549311727,2025.664279829245,stimuli/157_xc.png,l,5.01110881799832,harmless,0.0412,6.603448276,0.877389573,0.115206895
174,20,1,1,10,14,230,2026.248629416339,2032.592120561283,stimuli/239_ya.png,a,6.332966006360948,ambig,0.0412,5.157894737,1.925296579,0.255011762
174,20,1,1,10,15,231,2033.1565218521282,2037.0401155701838,stimuli/165_xb.png,l,3.872969724237919,harmless,0.0412,6.557377049,1.008705278,0.129151477
174,20,1,1,10,16,232,2037.6031364314258,2042.808068248909,stimuli/234_xb.png,l,5.194337361957878,harmless,0.0412,6.637931034,0.788030542,0.103473479
174,20,1,1,10,17,233,2043.3679540967569,2050.88811940141,stimuli/258_ya.png,a,7.509466086514294,ambig,0.0412,5.627118644,1.78014243,0.231754804
174,20,1,1,10,18,234,2051.488542234525,2057.7200791314244,stimuli/344_za.png,a,6.22105311229825,awful,0.0412,2.711864407,2.043077863,0.265986082
174,20,1,1,10,19,235,2058.302334640175,2062.504112145398,stimuli/144_xa.png,l,4.1913945456035435,harmless,0.0412,6.542372881,1.00553698,0.130909764
174,20,1,1,10,20,236,2063.0716791702434,2066.592104019597,stimuli/137_xa.png,l,3.510016289539635,harmless,0.0412,6.355932203,1.094858074,0.14253838
174,20,1,1,10,21,237,2067.1870669666678,2071.1920778681524,stimuli/182_xb.png,l,3.994117123540491,harmless,0.0412,6.542372881,0.988241802,0.128658124
174,20,1,1,10,22,238,2071.747891742736,2078.776100956835,stimuli/170_xc.png,l,7.017531263176352,harmless,0.0412,6.583333333,1.062323432,0.137145365
174,20,1,1,10,23,239,2079.3452969281934,2082.9841563664377,stimuli/273_ya.png,l,3.6282862504012883,ambig,0.0412,5.551724138,1.836973233,0.241206403
174,20,1,1,10,24,240,2083.5612832130864,2088.032088596374,stimuli/219_ya.png,l,4.460155395790935,ambig,0.0412,5.271186441,1.998538332,0.260187529
