id,age,condition,counterbalance,block,trialinblock,trial,tstart,tend,trialstim,response,RT,trialtype,ethicfreq,norm_mean,norm_sd,norm_se
,,,,,,,,,,,,,,,,
172,22,1,2,0,0,practice,3.15E-06,432.3770626,stimuli/prac_217_1.png,l,432.3575357,harmless,NA,NA,NA,NA
,,,,,,,,,,,,,,,,
172,22,1,2,1,1,1,4.190423321,9.32113645,stimuli/293_zb.png,l,5.120395154,awful,0.333,3.677966102,2.169066842,0.28238845
,,,,,,,,,,,,,,,,
172,22,1,2,1,2,2,9.945434617,14.75313304,stimuli/365_zb.png,l,4.797167381,awful,0.333,2.966101695,2.165291266,0.281896912
,,,,,,,,,,,,,,,,
172,22,1,2,1,3,3,15.3543802,18.79310525,stimuli/294_za.png,a,3.428159353,awful,0.333,1.557377049,1.38473331,0.177296933
,,,,,,,,,,,,,,,,
172,22,1,2,1,4,4,19.4225116,30.28919476,stimuli/262_ya.png,l,10.85629074,ambig,0.333,5.491525424,1.7750462,0.231091332
,,,,,,,,,,,,,,,,
172,22,1,2,1,5,5,30.88239682,34.48111273,stimuli/371_zb.png,a,3.588222274,awful,0.333,3.131147541,2.085468851,0.267016925
,,,,,,,,,,,,,,,,
172,22,1,2,1,6,6,35.09397085,39.12111156,stimuli/332_zb.png,l,4.016584852,awful,0.333,2.694915254,2.002190501,0.260663001
,,,,,,,,,,,,,,,,
172,22,1,2,1,7,7,39.74922137,50.52909025,stimuli/147_ya.png,l,10.7694166,ambig,0.333,5.883333333,1.766847875,0.22809908
,,,,,,,,,,,,,,,,
172,22,1,2,1,8,8,51.13832775,55.02507971,stimuli/309_ya.png,l,3.87628,ambig,0.333,4.706896552,1.946734744,0.255618795
,,,,,,,,,,,,,,,,
172,22,1,2,1,9,9,55.64892693,64.46507768,stimuli/330_ya.png,l,8.805655154,ambig,0.333,4.796610169,2.049219036,0.266785595
,,,,,,,,,,,,,,,,
172,22,1,2,1,10,10,65.09212607,67.84909754,stimuli/233_yb.png,l,2.746126132,ambig,0.333,5.318309859,1.922973646,0.102060844
,,,,,,,,,,,,,,,,
172,22,1,2,1,11,11,68.41161389,72.98506379,stimuli/215_yb.png,l,4.562871594,ambig,0.333,5.866666667,1.466769385,0.189359113
,,,,,,,,,,,,,,,,
172,22,1,2,1,12,12,73.60558733,78.62504372,stimuli/316_za.png,a,5.009030493,awful,0.333,2.344827586,1.802062407,0.236622386
,,,,,,,,,,,,,,,,
172,22,1,2,1,13,13,79.24643727,82.44909305,stimuli/347_zb.png,l,3.192165302,awful,0.333,3.796610169,2.147810923,0.279621165
,,,,,,,,,,,,,,,,
172,22,1,2,1,14,14,83.05876969,85.8730804,stimuli/264_xa.png,l,2.803877335,harmless,0.333,6.533333333,0.947193297,0.122282129
,,,,,,,,,,,,,,,,
172,22,1,2,1,15,15,86.49018812,90.68106082,stimuli/369_za.png,l,4.180540939,awful,0.333,2.948275862,2.055565093,0.26990892
,,,,,,,,,,,,,,,,
172,22,1,2,1,16,16,91.29135776,94.31305434,stimuli/137_xa.png,l,3.011410898,harmless,0.333,6.355932203,1.094858074,0.14253838
,,,,,,,,,,,,,,,,
172,22,1,2,1,17,17,94.9549393,102.4650698,stimuli/319_ya.png,a,7.499610486,ambig,0.333,4.216666667,2.108028774,0.272145344
,,,,,,,,,,,,,,,,
172,22,1,2,1,18,18,103.0858127,118.4330564,stimuli/197_xa.png,l,15.33696079,harmless,0.333,6.779661017,0.55918033,0.072799078
,,,,,,,,,,,,,,,,
172,22,1,2,1,19,19,119.0555019,121.3210569,stimuli/115_xb.png,l,2.254983726,harmless,0.333,6.440677966,1.021681954,0.133011661
,,,,,,,,,,,,,,,,
172,22,1,2,1,20,20,121.9343148,125.6810407,stimuli/145_xa.png,l,3.736470605,harmless,0.333,6.661016949,0.822321556,0.107057148
,,,,,,,,,,,,,,,,
172,22,1,2,1,21,21,126.2913688,129.0090313,stimuli/227_xa.png,l,2.707525687,harmless,0.333,6.180327869,1.05685377,0.135316259
,,,,,,,,,,,,,,,,
172,22,1,2,1,22,22,129.5710254,133.6890433,stimuli/210_yb.png,l,4.107400995,ambig,0.333,5.557377049,1.76564049,0.226067099
,,,,,,,,,,,,,,,,
172,22,1,2,1,23,23,134.3013079,136.4810336,stimuli/150_xc.png,l,2.169084355,harmless,0.333,6.482758621,1.030097582,0.135258439
,,,,,,,,,,,,,,,,
172,22,1,2,1,24,24,137.090555,139.8490369,stimuli/149_xa.png,l,2.748280469,harmless,0.333,6.721311475,0.933294301,0.11949609
,,,,,,,,,,,,,,,,
172,22,1,2,2,1,25,149.2761214,154.3450327,stimuli/228_ya.png,l,5.058508568,ambig,0.333,5.442622951,1.793735303,0.229664272
,,,,,,,,,,,,,,,,
172,22,1,2,2,2,26,154.9739156,157.7209948,stimuli/356_za.png,a,2.736775442,awful,0.333,3.033333333,2.178217796,0.281206708
,,,,,,,,,,,,,,,,
172,22,1,2,2,3,27,158.3416873,162.6570453,stimuli/325_yb.png,l,4.305011611,ambig,0.333,5.131147541,1.811770863,0.231973488
,,,,,,,,,,,,,,,,
172,22,1,2,2,4,28,163.2138741,166.7530058,stimuli/334_za.png,l,3.528441977,awful,0.333,3.333333333,2.214487481,0.285889104
,,,,,,,,,,,,,,,,
172,22,1,2,2,5,29,167.3320917,170.7530303,stimuli/133_xa.png,l,3.410536717,harmless,0.333,6.568965517,1.186356193,0.1557762
,,,,,,,,,,,,,,,,
172,22,1,2,2,6,30,171.3786301,174.1690044,stimuli/368_za.png,l,2.780003183,awful,0.333,3.590163934,2.02794682,0.259651984
,,,,,,,,,,,,,,,,
172,22,1,2,2,7,31,174.7685497,178.7770249,stimuli/247_ya.png,l,3.998099694,ambig,0.333,4.65,2.081598147,0.268733165
,,,,,,,,,,,,,,,,
172,22,1,2,2,8,32,179.3895542,185.2890419,stimuli/360_za.png,l,5.889126466,awful,0.333,3.2,2.207844259,0.285031468
,,,,,,,,,,,,,,,,
172,22,1,2,2,9,33,185.90175,190.5770016,stimuli/354_zb.png,a,4.664706364,awful,0.333,2,1.701925887,0.221571878
,,,,,,,,,,,,,,,,
172,22,1,2,2,10,34,191.1883206,198.1130385,stimuli/304_ya.png,a,6.914191607,ambig,0.333,4.034482759,2.017167697,0.264867095
,,,,,,,,,,,,,,,,
172,22,1,2,2,11,35,198.7134976,202.5850061,stimuli/172_xb.png,l,3.860912525,harmless,0.333,6.482758621,1.127664553,0.14806961
,,,,,,,,,,,,,,,,
172,22,1,2,2,12,36,203.2642356,206.6010152,stimuli/321_zb.png,l,3.326195795,awful,0.333,2.918032787,2.177881861,0.278849198
,,,,,,,,,,,,,,,,
172,22,1,2,2,13,37,207.2491095,213.0569836,stimuli/141_xc.png,l,5.797258754,harmless,0.333,6.508474576,1.040107444,0.135410455
,,,,,,,,,,,,,,,,
172,22,1,2,2,14,38,213.6838626,216.5609874,stimuli/317_za.png,a,2.866531131,awful,0.333,3.65,2.03215674,0.262350307
,,,,,,,,,,,,,,,,
172,22,1,2,2,15,39,217.1889094,222.9449742,stimuli/350_ya.png,l,5.745622009,ambig,0.333,4.915254237,2.02814792,0.264042369
,,,,,,,,,,,,,,,,
172,22,1,2,2,16,40,223.5603277,226.5050026,stimuli/167_xb.png,l,2.934146993,harmless,0.333,6.590163934,0.955284411,0.122311635
,,,,,,,,,,,,,,,,
172,22,1,2,2,17,41,227.115224,229.2809886,stimuli/132_xc.png,l,2.155262333,harmless,0.333,6.627118644,0.692280217,0.090127208
,,,,,,,,,,,,,,,,
172,22,1,2,2,18,42,229.8906077,232.352984,stimuli/192_za.png,l,2.452136693,awful,0.333,2.68852459,2.093967396,0.268105052
,,,,,,,,,,,,,,,,
172,22,1,2,2,19,43,232.9203746,237.2330343,stimuli/138_xc.png,l,4.302016412,harmless,0.333,6.661016949,0.70978796,0.092406522
,,,,,,,,,,,,,,,,
172,22,1,2,2,20,44,237.8587121,241.936952,stimuli/179_xb.png,l,4.067817117,harmless,0.333,6.704918033,0.882123617,0.112944356
,,,,,,,,,,,,,,,,
172,22,1,2,2,21,45,242.5043276,244.6169486,stimuli/152_xa.png,l,2.102038783,harmless,0.333,6.576271186,0.968528743,0.126091702
,,,,,,,,,,,,,,,,
172,22,1,2,2,22,46,245.2213646,248.2889817,stimuli/223_yb.png,l,3.057022194,ambig,0.333,5.542372881,1.77455224,0.231027024
,,,,,,,,,,,,,,,,
172,22,1,2,2,23,47,248.9259136,252.6169947,stimuli/250_yb.png,l,3.680664213,ambig,0.333,5.950819672,1.585625318,0.203018519
,,,,,,,,,,,,,,,,
172,22,1,2,2,24,48,253.1698961,259.1529772,stimuli/209_ya.png,l,5.972435512,ambig,0.333,5.603448276,1.825161903,0.239655499
,,,,,,,,,,,,,,,,
172,22,1,2,3,1,49,269.9477146,276.2969626,stimuli/131_xb.png,l,6.338818163,harmless,0.333,6.525423729,1.119666394,0.145768149
,,,,,,,,,,,,,,,,
172,22,1,2,3,2,50,276.9173546,282.2809386,stimuli/258_ya.png,l,5.353180936,ambig,0.333,5.627118644,1.78014243,0.231754804
,,,,,,,,,,,,,,,,
172,22,1,2,3,3,51,282.9130636,285.512967,stimuli/208_xb.png,l,2.589394753,harmless,0.333,6.216666667,1.165778516,0.150501359
,,,,,,,,,,,,,,,,
172,22,1,2,3,4,52,286.140772,287.9529622,stimuli/183_xb.png,l,1.801867933,harmless,0.333,6.448275862,1.095003225,0.143780967
,,,,,,,,,,,,,,,,
172,22,1,2,3,5,53,288.5717918,293.7849593,stimuli/361_za.png,a,5.202688865,awful,0.333,2.416666667,1.907093508,0.246204713
,,,,,,,,,,,,,,,,
172,22,1,2,3,6,54,294.3582781,300.904926,stimuli/286_ya.png,l,6.535992791,ambig,0.333,5.06779661,1.779814082,0.231712057
,,,,,,,,,,,,,,,,
172,22,1,2,3,7,55,301.5375812,305.4169304,stimuli/307_za.png,l,3.868847732,awful,0.333,2.93220339,2.172432347,0.282826601
,,,,,,,,,,,,,,,,
172,22,1,2,3,8,56,306.066777,308.6569614,stimuli/165_xb.png,l,2.579567116,harmless,0.333,6.557377049,1.008705278,0.129151477
,,,,,,,,,,,,,,,,
172,22,1,2,3,9,57,309.2720038,311.5689041,stimuli/276_ya.png,l,2.286498489,ambig,0.333,5.186440678,1.804922162,0.234980851
,,,,,,,,,,,,,,,,
172,22,1,2,3,10,58,312.1456875,318.3929224,stimuli/351_zb.png,l,6.236664771,awful,0.333,3.06779661,2.033040926,0.264679384
,,,,,,,,,,,,,,,,
172,22,1,2,3,11,59,319.0250281,321.4729203,stimuli/113_xb.png,l,2.437570301,harmless,0.333,6.733333333,0.660422737,0.085260209
,,,,,,,,,,,,,,,,
172,22,1,2,3,12,60,322.0899725,328.7129277,stimuli/207_yb.png,l,6.612666715,ambig,0.333,5.655737705,1.662179753,0.212820309
,,,,,,,,,,,,,,,,
172,22,1,2,3,13,61,329.3485292,332.2889214,stimuli/101_xa.png,l,2.929769395,harmless,0.333,6.508522727,1.13475832,0.060482822
,,,,,,,,,,,,,,,,
172,22,1,2,3,14,62,332.9443181,338.4648965,stimuli/362_zb.png,a,5.509900893,awful,0.333,1.474576271,1.222715071,0.159183944
,,,,,,,,,,,,,,,,
172,22,1,2,3,15,63,339.0782056,347.6249106,stimuli/324_za.png,l,8.536322046,awful,0.333,2.491525424,1.994586478,0.259673041
,,,,,,,,,,,,,,,,
172,22,1,2,3,16,64,348.228251,353.0329393,stimuli/263_ya.png,l,4.794211568,ambig,0.333,4.983050847,2.071910042,0.269739712
,,,,,,,,,,,,,,,,
172,22,1,2,3,17,65,353.6245794,356.6169277,stimuli/200_ya.png,l,2.982148934,ambig,0.333,5.862068966,1.444266048,0.189641423
,,,,,,,,,,,,,,,,
172,22,1,2,3,18,66,357.2234209,360.7689251,stimuli/301_za.png,l,3.535209825,awful,0.333,3.610169492,2.212947396,0.288101212
,,,,,,,,,,,,,,,,
172,22,1,2,3,19,67,361.3934729,364.0329491,stimuli/129_xa.png,l,2.629090484,harmless,0.333,6.770491803,0.642740036,0.082294429
,,,,,,,,,,,,,,,,
172,22,1,2,3,20,68,364.5992378,368.7369145,stimuli/372_zb.png,a,4.12721814,awful,0.333,2.796610169,2.082601664,0.271131643
,,,,,,,,,,,,,,,,
172,22,1,2,3,21,69,369.3437247,372.4248798,stimuli/224_yb.png,l,3.070693768,ambig,0.333,5.881355932,1.609077116,0.209483997
,,,,,,,,,,,,,,,,
172,22,1,2,3,22,70,373.045646,376.0088899,stimuli/151_xa.png,l,2.952504939,harmless,0.333,6.610169492,0.947172729,0.123311386
,,,,,,,,,,,,,,,,
172,22,1,2,3,23,71,376.6252592,382.0728879,stimuli/331_za.png,l,5.437315483,awful,0.333,1.983606557,1.638004917,0.209725039
,,,,,,,,,,,,,,,,
172,22,1,2,3,24,72,382.6896297,385.272914,stimuli/323_yb.png,l,2.572936326,ambig,0.333,4.603448276,1.955107169,0.256718148
,,,,,,,,,,,,,,,,
172,22,1,2,4,1,73,394.139286,398.1928502,stimuli/239_ya.png,l,4.043048935,ambig,0.333,5.157894737,1.925296579,0.255011762
,,,,,,,,,,,,,,,,
172,22,1,2,4,2,74,398.7966132,400.9448895,stimuli/110_xa.png,l,2.137749974,harmless,0.333,6.428571429,1.059281795,0.141552484
,,,,,,,,,,,,,,,,
172,22,1,2,4,3,75,401.5647558,404.208873,stimuli/295_za.png,a,2.633665004,awful,0.333,2.3,1.825432384,0.235662307
,,,,,,,,,,,,,,,,
172,22,1,2,4,4,76,404.8391506,407.6968891,stimuli/118_xb.png,l,2.847271278,harmless,0.333,6.474576271,0.953323265,0.124112118
,,,,,,,,,,,,,,,,
172,22,1,2,4,5,77,408.3123671,414.0649113,stimuli/308_zb.png,a,5.741967119,awful,0.333,1.644067797,1.471132708,0.191525165
,,,,,,,,,,,,,,,,
172,22,1,2,4,6,78,414.6343373,418.0568442,stimuli/278_xb.png,l,3.412403941,harmless,0.333,6.360655738,1.140654591,0.146045855
,,,,,,,,,,,,,,,,
172,22,1,2,4,7,79,418.6663814,421.2488846,stimuli/230_yb.png,l,2.571924143,ambig,0.333,4.98245614,1.875511626,0.248417583
,,,,,,,,,,,,,,,,
172,22,1,2,4,8,80,421.8668159,423.8248547,stimuli/205_yb.png,l,1.947573988,ambig,0.333,5.847457627,1.52918233,0.199082582
,,,,,,,,,,,,,,,,
172,22,1,2,4,9,81,424.4383411,428.4408833,stimuli/252_zb.png,a,3.992056522,awful,0.333,2.711864407,1.983125776,0.258180985
,,,,,,,,,,,,,,,,
172,22,1,2,4,10,82,429.0202169,431.5448228,stimuli/162_xa.png,l,2.514185543,harmless,0.333,6.644067797,0.905209289,0.117848212
,,,,,,,,,,,,,,,,
172,22,1,2,4,11,83,432.1640601,434.8888783,stimuli/249_ya.png,l,2.714378212,ambig,0.333,5.327868852,1.859402337,0.238072074
,,,,,,,,,,,,,,,,
172,22,1,2,4,12,84,435.5059652,438.7928725,stimuli/363_zb.png,l,3.276475111,awful,0.333,2.433333333,2.019956927,0.260775318
,,,,,,,,,,,,,,,,
172,22,1,2,4,13,85,439.4354361,443.1048768,stimuli/272_xb.png,l,3.658924312,harmless,0.333,6.355932203,1.029943284,0.134087194
,,,,,,,,,,,,,,,,
172,22,1,2,4,14,86,443.7296063,447.1608423,stimuli/373_zb.png,l,3.420631776,awful,0.333,2.327586207,1.858011869,0.243968911
,,,,,,,,,,,,,,,,
172,22,1,2,4,15,87,447.7540393,451.3288251,stimuli/156_xc.png,l,3.564386325,harmless,0.333,6.590163934,0.955284411,0.122311635
,,,,,,,,,,,,,,,,
172,22,1,2,4,16,88,451.9489761,455.024832,stimuli/355_zb.png,l,3.065281536,awful,0.333,3.183333333,2.070713188,0.267327923
,,,,,,,,,,,,,,,,
172,22,1,2,4,17,89,455.6225396,458.5768401,stimuli/254_ya.png,l,2.943968329,ambig,0.333,5.983606557,1.627798137,0.208418195
,,,,,,,,,,,,,,,,
172,22,1,2,4,18,90,459.1501853,462.6808115,stimuli/339_ya.png,l,3.520871865,ambig,0.333,4.949152542,1.960152429,0.25519011
,,,,,,,,,,,,,,,,
172,22,1,2,4,19,91,463.2584003,466.1688169,stimuli/198_yb.png,l,2.899904453,ambig,0.333,5.101694915,1.83542643,0.238952168
,,,,,,,,,,,,,,,,
172,22,1,2,4,20,92,466.7960969,469.4808292,stimuli/169_xc.png,l,2.67419687,harmless,0.333,6.603448276,0.916508538,0.120343467
,,,,,,,,,,,,,,,,
172,22,1,2,4,21,93,470.1338635,473.3608302,stimuli/326_zb.png,a,3.21591618,awful,0.333,3.389830508,2.220724867,0.289113752
,,,,,,,,,,,,,,,,
172,22,1,2,4,22,94,473.9665314,477.6808139,stimuli/273_ya.png,l,3.70368175,ambig,0.333,5.551724138,1.836973233,0.241206403
,,,,,,,,,,,,,,,,
172,22,1,2,4,23,95,478.2912857,481.1048237,stimuli/181_xa.png,l,2.803238122,harmless,0.333,6.666666667,0.950765377,0.122743282
,,,,,,,,,,,,,,,,
172,22,1,2,4,24,96,481.722532,484.8328498,stimuli/358_za.png,l,3.099748569,awful,0.333,3.949152542,2.112554662,0.275031191
,,,,,,,,,,,,,,,,
172,22,1,2,5,1,97,493.6839406,498.4488567,stimuli/107_xa.png,l,4.754324822,harmless,0.25,6.813559322,0.540580029,0.070377525
,,,,,,,,,,,,,,,,
172,22,1,2,5,2,98,499.038053,501.440829,stimuli/127_xb.png,l,2.392253208,harmless,0.25,6.423728814,1.162686987,0.151368953
,,,,,,,,,,,,,,,,
172,22,1,2,5,3,99,502.0627723,507.1528059,stimuli/275_yb.png,l,5.079549393,ambig,0.25,4.836065574,2.138382004,0.27379176
,,,,,,,,,,,,,,,,
172,22,1,2,5,4,100,507.7707265,509.8568016,stimuli/126_xa.png,l,2.075603451,harmless,0.25,6.6,0.977717855,0.126222832
,,,,,,,,,,,,,,,,
172,22,1,2,5,5,101,510.4392115,512.4248089,stimuli/125_xc.png,l,1.975011264,harmless,0.25,6.683333333,0.999858747,0.129081209
,,,,,,,,,,,,,,,,
172,22,1,2,5,6,102,513.0503729,516.3048245,stimuli/211_zb.png,l,3.244176595,awful,0.25,3.983333333,2.127237938,0.274625237
,,,,,,,,,,,,,,,,
172,22,1,2,5,7,103,516.9202009,519.6968005,stimuli/303_zb.png,l,2.766213455,awful,0.25,3.620689655,2.158846233,0.283470398
,,,,,,,,,,,,,,,,
172,22,1,2,5,8,104,520.3105641,520.4888191,stimuli/255_xb.png,l,0.167802387,harmless,0.25,6.770491803,0.642740036,0.082294429
,,,,,,,,,,,,,,,,
172,22,1,2,5,9,105,521.1141023,527.5528159,stimuli/367_zb.png,l,6.428188104,awful,0.25,3.413793103,2.086165649,0.27392697
,,,,,,,,,,,,,,,,
172,22,1,2,5,10,106,528.1720634,531.5288197,stimuli/280_xb.png,l,3.346813235,harmless,0.25,6.333333333,1.068289726,0.137915611
,,,,,,,,,,,,,,,,
172,22,1,2,5,11,107,532.1560295,534.9608434,stimuli/157_xc.png,l,2.794704663,harmless,0.25,6.603448276,0.877389573,0.115206895
,,,,,,,,,,,,,,,,
172,22,1,2,5,12,108,535.5748343,539.8248035,stimuli/338_zb.png,a,4.239931329,awful,0.25,3.310344828,2.137443107,0.28066003
,,,,,,,,,,,,,,,,
172,22,1,2,5,13,109,540.4360189,549.3688087,stimuli/344_za.png,a,8.922384391,awful,0.25,2.711864407,2.043077863,0.265986082
,,,,,,,,,,,,,,,,
172,22,1,2,5,14,110,549.9416029,555.7928126,stimuli/266_zb.png,a,5.840618039,awful,0.25,3.491525424,1.888010094,0.245797978
,,,,,,,,,,,,,,,,
172,22,1,2,5,15,111,556.4014302,559.08079,stimuli/225_ya.png,l,2.668840171,ambig,0.25,5.85,1.792876677,0.231459384
,,,,,,,,,,,,,,,,
172,22,1,2,5,16,112,559.6690343,562.8407642,stimuli/168_xa.png,l,3.161174354,harmless,0.25,6.474576271,1.164946827,0.151663159
,,,,,,,,,,,,,,,,
172,22,1,2,5,17,113,563.446138,567.4247676,stimuli/260_ya.png,l,3.968090603,ambig,0.25,4.966101695,2.016877936,0.262575142
,,,,,,,,,,,,,,,,
172,22,1,2,5,18,114,568.0357533,570.8167923,stimuli/130_xc.png,l,2.770986868,harmless,0.25,6.644067797,0.960651931,0.125066229
,,,,,,,,,,,,,,,,
172,22,1,2,5,19,115,571.4295032,573.5687505,stimuli/106_xc.png,l,2.128680096,harmless,0.25,6.661016949,0.863237081,0.112383896
,,,,,,,,,,,,,,,,
172,22,1,2,5,20,116,574.1909779,577.3127995,stimuli/342_yb.png,l,3.111734482,ambig,0.25,4.916666667,2.085394461,0.269223267
,,,,,,,,,,,,,,,,
172,22,1,2,5,21,117,577.9233017,580.4568053,stimuli/220_yb.png,l,2.523086854,ambig,0.25,4.75,2.096203186,0.270618668
,,,,,,,,,,,,,,,,
172,22,1,2,5,22,118,581.0724826,583.480772,stimuli/243_ya.png,l,2.397782805,ambig,0.25,5.830508475,1.652088985,0.215083666
,,,,,,,,,,,,,,,,
172,22,1,2,5,23,119,584.0990877,587.3047804,stimuli/289_yb.png,l,3.195263688,ambig,0.25,5.305084746,1.714584873,0.223219937
,,,,,,,,,,,,,,,,
172,22,1,2,5,24,120,587.9299939,590.6647883,stimuli/277_yb.png,l,2.724216089,ambig,0.25,5.491525424,2.02886822,0.264136144
,,,,,,,,,,,,,,,,
172,22,1,2,6,1,121,599.7084008,607.6087984,stimuli/161_xc.png,l,7.8901162,harmless,0.166,6.796610169,0.609682252,0.079373868
,,,,,,,,,,,,,,,,
172,22,1,2,6,2,122,608.168646,611.6007493,stimuli/279_ya.png,l,3.421497055,ambig,0.166,5.31147541,1.970964092,0.252356093
,,,,,,,,,,,,,,,,
172,22,1,2,6,3,123,612.1984499,613.0490515,stimuli/271_ya.png,l,0.840233645,ambig,0.166,5.711864407,1.771915459,0.230683744
,,,,,,,,,,,,,,,,
172,22,1,2,6,4,124,613.6559153,615.8007707,stimuli/153_xb.png,l,2.134466874,harmless,0.166,6.633333333,0.973664521,0.125699549
,,,,,,,,,,,,,,,,
172,22,1,2,6,5,125,616.4084631,618.3687713,stimuli/176_xb.png,l,1.950110749,harmless,0.166,6.796610169,0.517942249,0.067430337
,,,,,,,,,,,,,,,,
172,22,1,2,6,6,126,618.9881472,621.1367402,stimuli/124_xa.png,l,2.138075685,harmless,0.166,6.344262295,1.181598436,0.151288177
,,,,,,,,,,,,,,,,
172,22,1,2,6,7,127,621.7513379,624.3447648,stimuli/245_yb.png,l,2.5827872,ambig,0.166,4.949152542,2.096168334,0.272897873
,,,,,,,,,,,,,,,,
172,22,1,2,6,8,128,624.9515451,628.176758,stimuli/177_xb.png,l,3.214818926,harmless,0.166,6.482758621,1.063614811,0.139659467
,,,,,,,,,,,,,,,,
172,22,1,2,6,9,129,628.7887816,634.3447629,stimuli/292_zb.png,a,5.545566398,awful,0.166,2.396551724,1.955107169,0.256718148
,,,,,,,,,,,,,,,,
172,22,1,2,6,10,130,634.9671005,638.2247746,stimuli/352_zb.png,a,3.247179276,awful,0.166,2.93442623,2.135952968,0.273480754
,,,,,,,,,,,,,,,,
172,22,1,2,6,11,131,638.8324859,642.0807427,stimuli/102_xc.png,l,3.237833706,harmless,0.166,6.66011236,0.937292468,0.049676401
,,,,,,,,,,,,,,,,
172,22,1,2,6,12,132,642.7156452,646.1287427,stimuli/191_ya.png,l,3.402695639,ambig,0.166,5.517241379,2.062542966,0.270825159
,,,,,,,,,,,,,,,,
172,22,1,2,6,13,133,646.7342962,649.1607076,stimuli/116_xa.png,l,2.415783926,harmless,0.166,6.63559322,0.958030802,0.050918763
,,,,,,,,,,,,,,,,
172,22,1,2,6,14,134,649.7631442,652.3367115,stimuli/320_za.png,l,2.562954695,awful,0.166,1.423728814,1.117314975,0.14546202
,,,,,,,,,,,,,,,,
172,22,1,2,6,15,135,652.9275343,660.0407276,stimuli/312_yb.png,a,7.102732345,ambig,0.166,4.677966102,2.112692986,0.275049199
,,,,,,,,,,,,,,,,
172,22,1,2,6,16,136,660.6502786,662.6327249,stimuli/143_xb.png,l,1.972036546,harmless,0.166,6.655172414,0.738697862,0.096995781
,,,,,,,,,,,,,,,,
172,22,1,2,6,17,137,663.23344,666.3927376,stimuli/203_yb.png,l,3.14871622,ambig,0.166,6,1.542501327,0.200816568
,,,,,,,,,,,,,,,,
172,22,1,2,6,18,138,667.0114995,672.0886988,stimuli/359_za.png,l,5.066899456,awful,0.166,2.01754386,1.641985167,0.217486248
,,,,,,,,,,,,,,,,
172,22,1,2,6,19,139,672.689779,675.5927389,stimuli/244_xb.png,l,2.892604519,harmless,0.166,6.610169492,0.743174671,0.096753101
,,,,,,,,,,,,,,,,
172,22,1,2,6,20,140,676.2000785,679.2247234,stimuli/251_ya.png,l,3.014125678,ambig,0.166,5.655172414,1.792300532,0.235340589
,,,,,,,,,,,,,,,,
172,22,1,2,6,21,141,679.8470905,684.6727156,stimuli/246_ya.png,l,4.815098005,ambig,0.166,5.542372881,1.715266481,0.223308675
,,,,,,,,,,,,,,,,
172,22,1,2,6,22,142,685.3042054,687.680728,stimuli/171_xa.png,l,2.366138073,harmless,0.166,6.465517241,1.046556882,0.137419651
,,,,,,,,,,,,,,,,
172,22,1,2,6,23,143,688.2888332,690.9286922,stimuli/175_xb.png,l,2.629426434,harmless,0.166,6.6,1.028409995,0.13276716
,,,,,,,,,,,,,,,,
172,22,1,2,6,24,144,691.4892571,694.616717,stimuli/187_xc.png,l,3.116890319,harmless,0.166,6.224137931,1.185335891,0.155642228
,,,,,,,,,,,,,,,,
172,22,1,2,7,1,145,703.5085146,705.8247071,stimuli/238_xb.png,l,2.306106502,harmless,0.083,6.4,1.076718178,0.139003719
,,,,,,,,,,,,,,,,
172,22,1,2,7,2,146,706.3916081,708.7047014,stimuli/257_yb.png,l,2.30267768,ambig,0.083,5.620689655,1.843219782,0.242026615
,,,,,,,,,,,,,,,,
172,22,1,2,7,3,147,709.3270386,711.6247093,stimuli/109_xb.png,l,2.287051843,harmless,0.083,6.644067797,0.97843492,0.127381377
,,,,,,,,,,,,,,,,
172,22,1,2,7,4,148,712.2512426,713.984705,stimuli/190_xc.png,l,1.722880164,harmless,0.083,6.517241379,1.046990328,0.137476565
,,,,,,,,,,,,,,,,
172,22,1,2,7,5,149,714.6161286,716.5527123,stimuli/121_xc.png,l,1.925964056,harmless,0.083,6.508474576,1.006408455,0.131023221
,,,,,,,,,,,,,,,,
172,22,1,2,7,6,150,717.1715636,719.2887025,stimuli/222_ya.png,l,2.1068567,ambig,0.083,5.931034483,1.543089507,0.202617579
,,,,,,,,,,,,,,,,
172,22,1,2,7,7,151,719.9119112,723.0246878,stimuli/202_yb.png,l,3.102119127,ambig,0.083,5.431034483,1.892849601,0.248543329
,,,,,,,,,,,,,,,,
172,22,1,2,7,8,152,723.6393384,726.1607088,stimuli/221_xb.png,l,2.510839033,harmless,0.083,6.440677966,1.133672495,0.147591588
,,,,,,,,,,,,,,,,
172,22,1,2,7,9,153,726.8033957,728.5207017,stimuli/283_yb.png,l,1.706854967,ambig,0.083,5.949152542,1.478859402,0.192531095
,,,,,,,,,,,,,,,,
172,22,1,2,7,10,154,729.1450846,732.2407005,stimuli/158_xa.png,l,3.08505851,harmless,0.083,6.786885246,0.661179605,0.084655374
,,,,,,,,,,,,,,,,
172,22,1,2,7,11,155,732.8608239,735.152661,stimuli/212_ya.png,l,2.281506492,ambig,0.083,5.677966102,1.490668422,0.194068498
,,,,,,,,,,,,,,,,
172,22,1,2,7,12,156,735.7157358,737.5766727,stimuli/335_yb.png,l,1.850486636,ambig,0.083,5.016949153,2.046793332,0.266469795
,,,,,,,,,,,,,,,,
172,22,1,2,7,13,157,738.1848374,739.8166856,stimuli/195_xc.png,l,1.621176938,harmless,0.083,6.637640449,1.001766915,0.05309354
,,,,,,,,,,,,,,,,
172,22,1,2,7,14,158,740.3874577,742.5126885,stimuli/194_xb.png,l,2.114670209,harmless,0.083,6.586206897,1.026567825,0.134794959
,,,,,,,,,,,,,,,,
172,22,1,2,7,15,159,743.0785904,745.4167827,stimuli/248_zb.png,l,2.327626243,awful,0.083,3.288135593,1.991800844,0.259310383
,,,,,,,,,,,,,,,,
172,22,1,2,7,16,160,746.0298271,748.672692,stimuli/146_xa.png,l,2.632377522,harmless,0.083,6.442622951,1.162247681,0.148810567
,,,,,,,,,,,,,,,,
172,22,1,2,7,17,161,749.2730979,753.5286629,stimuli/219_ya.png,l,4.245085197,ambig,0.083,5.271186441,1.998538332,0.260187529
,,,,,,,,,,,,,,,,
172,22,1,2,7,18,162,754.1325563,756.4086766,stimuli/163_xa.png,l,2.26565577,harmless,0.083,6.627118644,0.963082427,0.125382652
,,,,,,,,,,,,,,,,
172,22,1,2,7,19,163,757.0310043,758.6246432,stimuli/186_xa.png,l,1.583170018,harmless,0.083,6.65,0.879618561,0.113558268
,,,,,,,,,,,,,,,,
172,22,1,2,7,20,164,759.2526529,761.4006646,stimuli/269_za.png,l,2.137607008,awful,0.083,3.457627119,2.119873401,0.27598401
,,,,,,,,,,,,,,,,
172,22,1,2,7,21,165,762.0078679,763.7686392,stimuli/180_xc.png,l,1.750474584,harmless,0.083,6.672131148,0.723908638,0.092687003
,,,,,,,,,,,,,,,,
172,22,1,2,7,22,166,764.4300628,766.6406837,stimuli/240_xa.png,l,2.199841753,harmless,0.083,6.482758621,1.096107616,0.143925981
,,,,,,,,,,,,,,,,
172,22,1,2,7,23,167,767.2479548,769.1606352,stimuli/213_ya.png,l,1.902050913,ambig,0.083,5.98245614,1.597891781,0.211645937
,,,,,,,,,,,,,,,,
172,22,1,2,7,24,168,769.7745878,772.1046527,stimuli/170_xc.png,l,2.31974775,harmless,0.083,6.583333333,1.062323432,0.137145365
,,,,,,,,,,,,,,,,
172,22,1,2,8,1,169,780.6076397,784.6006469,stimuli/142_xa.png,l,3.982929536,harmless,0.0412,6.4,1.076718178,0.139003719
,,,,,,,,,,,,,,,,
172,22,1,2,8,2,170,785.1661608,787.480674,stimuli/135_xa.png,l,2.303918688,harmless,0.0412,6.508474576,1.179901828,0.153610134
,,,,,,,,,,,,,,,,
172,22,1,2,8,3,171,788.0490716,790.7846876,stimuli/364_za.png,a,2.725144778,awful,0.0412,1.677966102,1.279017376,0.166513879
,,,,,,,,,,,,,,,,
172,22,1,2,8,4,172,791.3887578,794.0886555,stimuli/184_xb.png,l,2.68951787,harmless,0.0412,6.508474576,1.194425,0.15550089
,,,,,,,,,,,,,,,,
172,22,1,2,8,5,173,794.6967067,798.1206362,stimuli/226_yb.png,l,3.413945848,ambig,0.0412,5.683333333,1.712285287,0.22105508
,,,,,,,,,,,,,,,,
172,22,1,2,8,6,174,798.7401964,803.2726391,stimuli/267_ya.png,l,4.522133353,ambig,0.0412,5.103448276,1.898195405,0.249245267
,,,,,,,,,,,,,,,,
172,22,1,2,8,7,175,803.8930377,806.4806224,stimuli/134_xc.png,l,2.577145358,harmless,0.0412,6.516666667,0.965360505,0.124627505
,,,,,,,,,,,,,,,,
172,22,1,2,8,8,176,807.0529951,809.9766646,stimuli/189_yb.png,l,2.913215658,ambig,0.0412,5.983333333,1.455459234,0.187898979
,,,,,,,,,,,,,,,,
172,22,1,2,8,9,177,810.5946648,812.7526301,stimuli/164_xb.png,l,2.147403925,harmless,0.0412,6.830508475,0.460604639,0.059965616
,,,,,,,,,,,,,,,,
172,22,1,2,8,10,178,813.3652822,816.5286365,stimuli/144_xa.png,l,3.15287799,harmless,0.0412,6.542372881,1.00553698,0.130909764
,,,,,,,,,,,,,,,,
172,22,1,2,8,11,179,817.1594812,820.032649,stimuli/117_xc.png,l,2.862710038,harmless,0.0412,6.627118644,0.868972939,0.113130641
,,,,,,,,,,,,,,,,
172,22,1,2,8,12,180,820.591147,825.608616,stimuli/296_yb.png,l,5.007015971,ambig,0.0412,4.229508197,2.052587332,0.262806878
,,,,,,,,,,,,,,,,
172,22,1,2,8,13,181,826.169557,828.7366183,stimuli/315_yb.png,l,2.556513739,ambig,0.0412,5.050847458,1.915667965,0.249398726
,,,,,,,,,,,,,,,,
172,22,1,2,8,14,182,829.2977845,831.5046395,stimuli/148_xc.png,l,2.196753607,harmless,0.0412,6.491525424,1.135218061,0.147792803
,,,,,,,,,,,,,,,,
172,22,1,2,8,15,183,832.094284,834.8646383,stimuli/234_xb.png,l,2.760298283,harmless,0.0412,6.637931034,0.788030542,0.103473479
,,,,,,,,,,,,,,,,
172,22,1,2,8,16,184,835.4714572,838.7686687,stimuli/232_yb.png,l,3.287526427,ambig,0.0412,5.483333333,1.845669845,0.238274952
,,,,,,,,,,,,,,,,
172,22,1,2,8,17,185,839.3310744,842.800632,stimuli/193_xc.png,l,3.45921371,harmless,0.0412,6.482758621,1.012923151,0.133003326
,,,,,,,,,,,,,,,,
172,22,1,2,8,18,186,843.4115426,846.6167206,stimuli/120_xa.png,l,3.194675676,harmless,0.0412,6.440677966,1.054893138,0.137335389
,,,,,,,,,,,,,,,,
172,22,1,2,8,19,187,847.1786871,851.5127835,stimuli/173_yb.png,l,4.323656277,ambig,0.0412,5.796610169,1.242628763,0.161776485
,,,,,,,,,,,,,,,,
172,22,1,2,8,20,188,852.2016633,854.5767334,stimuli/282_xc.png,l,2.365024277,harmless,0.0412,6.55,0.998728005,0.128935231
,,,,,,,,,,,,,,,,
172,22,1,2,8,21,189,855.1495228,857.3126467,stimuli/103_xb.png,l,2.153192672,harmless,0.0412,6.779661017,0.589207434,0.076708274
,,,,,,,,,,,,,,,,
172,22,1,2,8,22,190,857.9032781,861.8486395,stimuli/196_xb.png,l,3.936015791,harmless,0.0412,6.594366197,0.982313556,0.05213579
,,,,,,,,,,,,,,,,
172,22,1,2,8,23,191,862.4223635,866.1205897,stimuli/140_xb.png,l,3.688795556,harmless,0.0412,6.724137931,0.790138861,0.103750315
,,,,,,,,,,,,,,,,
172,22,1,2,8,24,192,866.6903442,871.0886208,stimuli/288_yb.png,l,4.387815353,ambig,0.0412,5.189655172,1.914459262,0.251380817
,,,,,,,,,,,,,,,,
172,22,1,2,9,1,193,880.5006814,883.8165934,stimuli/281_ya.png,l,3.30517033,ambig,0.0412,5.881355932,1.543448286,0.200939852
,,,,,,,,,,,,,,,,
172,22,1,2,9,2,194,884.4150817,888.8966536,stimuli/265_yb.png,l,4.470867611,ambig,0.0412,5.627118644,1.856008928,0.241631781
,,,,,,,,,,,,,,,,
172,22,1,2,9,3,195,889.5214788,892.3846138,stimuli/105_xa.png,l,2.852552358,harmless,0.0412,6.557377049,1.088187946,0.139328189
,,,,,,,,,,,,,,,,
172,22,1,2,9,4,196,892.952256,894.592566,stimuli/201_yb.png,l,1.629892748,ambig,0.0412,5.898305085,1.626238682,0.211718243
,,,,,,,,,,,,,,,,
172,22,1,2,9,5,197,895.2138477,901.5525733,stimuli/285_yb.png,a,6.328003942,ambig,0.0412,4.120689655,2.119893958,0.278355714
,,,,,,,,,,,,,,,,
172,22,1,2,9,6,198,902.1520497,904.7125705,stimuli/159_xa.png,l,2.550104291,harmless,0.0412,6.389830508,1.174689235,0.152931512
,,,,,,,,,,,,,,,,
172,22,1,2,9,7,199,905.275112,907.8565731,stimuli/231_xb.png,l,2.57110573,harmless,0.0412,6.62295082,1.05141071,0.134619347
,,,,,,,,,,,,,,,,
172,22,1,2,9,8,200,908.4713308,912.7125756,stimuli/188_xa.png,l,4.230805132,harmless,0.0412,6.655172414,0.806807095,0.105938962
,,,,,,,,,,,,,,,,
172,22,1,2,9,9,201,913.3313237,915.68856,stimuli/204_xb.png,l,2.346765974,harmless,0.0412,6.508474576,0.858484658,0.111765183
,,,,,,,,,,,,,,,,
172,22,1,2,9,10,202,916.2470442,919.4005728,stimuli/206_xa.png,l,3.142921565,harmless,0.0412,6.325842697,1.136094431,0.060212884
,,,,,,,,,,,,,,,,
172,22,1,2,9,11,203,919.9630809,922.4245549,stimuli/160_xb.png,l,2.450919315,harmless,0.0412,6.666666667,0.680644427,0.087870818
,,,,,,,,,,,,,,,,
172,22,1,2,9,12,204,923.0321433,925.0485797,stimuli/112_xc.png,l,2.005910446,harmless,0.0412,6.706896552,0.749470472,0.098410294
,,,,,,,,,,,,,,,,
172,22,1,2,9,13,205,925.6938644,928.0005443,stimuli/114_xc.png,l,2.296005536,harmless,0.0412,6.644067797,0.97843492,0.127381377
,,,,,,,,,,,,,,,,
172,22,1,2,9,14,206,928.6124824,931.1685436,stimuli/111_xa.png,l,2.54548566,harmless,0.0412,6.590163934,0.863655973,0.110579816
,,,,,,,,,,,,,,,,
172,22,1,2,9,15,207,931.7759072,935.1125454,stimuli/104_xc.png,l,3.32618398,harmless,0.0412,6.745762712,0.756425814,0.098478253
,,,,,,,,,,,,,,,,
172,22,1,2,9,16,208,935.7107674,938.5925688,stimuli/139_xa.png,l,2.872215903,harmless,0.0412,6.724137931,0.790138861,0.103750315
,,,,,,,,,,,,,,,,
172,22,1,2,9,17,209,939.1978387,944.2565501,stimuli/241_yb.png,l,5.048108673,ambig,0.0412,5.508474576,1.442852555,0.187843403
,,,,,,,,,,,,,,,,
172,22,1,2,9,18,210,944.8275333,947.944526,stimuli/235_ya.png,l,3.106617242,ambig,0.0412,5.694915254,1.567495667,0.204070554
,,,,,,,,,,,,,,,,
172,22,1,2,9,19,211,948.5993941,952.424549,stimuli/336_ya.png,l,3.814660048,ambig,0.0412,5.033898305,1.884291705,0.245313885
,,,,,,,,,,,,,,,,
172,22,1,2,9,20,212,953.0452466,955.656536,stimuli/270_yb.png,l,2.600724519,ambig,0.0412,5.534482759,1.912246013,0.251090203
,,,,,,,,,,,,,,,,
172,22,1,2,9,21,213,956.2620359,959.5845414,stimuli/119_xc.png,l,3.311873588,harmless,0.0412,6.694915254,0.914523379,0.119060803
,,,,,,,,,,,,,,,,
172,22,1,2,9,22,214,960.176916,977.8245684,stimuli/328_za.png,a,17.63717535,awful,0.0412,2.706896552,1.955725922,0.256799395
,,,,,,,,,,,,,,,,
172,22,1,2,9,23,215,978.4433468,981.624553,stimuli/214_xb.png,l,3.170653044,harmless,0.0412,6.465517241,0.940614156,0.12350869
,,,,,,,,,,,,,,,,
172,22,1,2,9,24,216,982.2396139,984.3125419,stimuli/216_xa.png,l,2.062655766,harmless,0.0412,6.603448276,0.877389573,0.115206895
,,,,,,,,,,,,,,,,
172,22,1,2,10,1,217,993.5378892,996.504521,stimuli/122_xa.png,l,2.956090906,harmless,0.0412,6.457627119,1.039264227,0.135300678
,,,,,,,,,,,,,,,,
172,22,1,2,10,2,218,997.1119633,1001.128546,stimuli/253_ya.png,l,4.006218827,ambig,0.0412,5.491803279,1.849531029,0.236808182
,,,,,,,,,,,,,,,,
172,22,1,2,10,3,219,1001.739004,1005.224524,stimuli/182_xb.png,l,3.475143596,harmless,0.0412,6.542372881,0.988241802,0.128658124
,,,,,,,,,,,,,,,,
172,22,1,2,10,4,220,1005.84002,1007.480507,stimuli/259_xc.png,l,1.630084945,harmless,0.0412,6.568965517,0.993170874,0.130409725
,,,,,,,,,,,,,,,,
172,22,1,2,10,5,221,1008.099553,1009.856533,stimuli/185_xa.png,l,1.746477048,harmless,0.0412,6.5,0.965506805,0.124646393
,,,,,,,,,,,,,,,,
172,22,1,2,10,6,222,1010.418858,1012.072489,stimuli/261_yb.png,l,1.643041294,ambig,0.0412,5.706896552,1.901141123,0.249632059
,,,,,,,,,,,,,,,,
172,22,1,2,10,7,223,1012.691568,1014.680571,stimuli/166_xa.png,l,1.978150609,harmless,0.0412,6.593220339,1.052397002,0.13701042
,,,,,,,,,,,,,,,,
172,22,1,2,10,8,224,1015.24946,1021.144505,stimuli/302_za.png,l,5.885163981,awful,0.0412,3.137931034,2.188071937,0.287307921
,,,,,,,,,,,,,,,,
172,22,1,2,10,9,225,1021.77222,1024.440502,stimuli/284_ya.png,l,2.657727415,ambig,0.0412,5.948275862,1.431750417,0.18799804
,,,,,,,,,,,,,,,,
172,22,1,2,10,10,226,1025.070879,1027.560532,stimuli/108_xb.png,l,2.479252591,harmless,0.0412,6.568965517,1.077880782,0.141532681
,,,,,,,,,,,,,,,,
172,22,1,2,10,11,227,1028.18666,1031.472493,stimuli/218_yb.png,l,3.275568083,ambig,0.0412,5.850282486,1.552723069,0.0825263
,,,,,,,,,,,,,,,,
172,22,1,2,10,12,228,1032.041064,1034.376504,stimuli/136_xc.png,l,2.325236387,harmless,0.0412,6.559322034,1.038420326,0.135190811
,,,,,,,,,,,,,,,,
172,22,1,2,10,13,229,1034.943272,1038.064497,stimuli/155_xb.png,l,3.110628956,harmless,0.0412,6.655737705,0.892286312,0.114245555
,,,,,,,,,,,,,,,,
172,22,1,2,10,14,230,1038.69192,1040.720485,stimuli/128_xc.png,l,2.018470586,harmless,0.0412,6.627118644,0.98082135,0.127692063
,,,,,,,,,,,,,,,,
172,22,1,2,10,15,231,1041.333092,1044.744493,stimuli/242_xb.png,l,3.400867012,harmless,0.0412,6.576271186,0.913564256,0.118935936
,,,,,,,,,,,,,,,,
172,22,1,2,10,16,232,1045.323055,1049.168504,stimuli/174_xc.png,l,3.835028971,harmless,0.0412,6.533333333,1.111826512,0.143536185
,,,,,,,,,,,,,,,,
172,22,1,2,10,17,233,1049.754492,1059.888628,stimuli/274_xb.png,l,10.12373969,harmless,0.0412,6.491525424,1.179901828,0.153610134
,,,,,,,,,,,,,,,,
172,22,1,2,10,18,234,1060.460426,1064.568476,stimuli/178_xa.png,l,4.097965234,harmless,0.0412,6.483333333,1.112207557,0.143585378
,,,,,,,,,,,,,,,,
172,22,1,2,10,19,235,1065.164953,1067.496521,stimuli/237_ya.png,a,2.32095922,ambig,0.0412,4.305084746,2.019339575,0.26289562
,,,,,,,,,,,,,,,,
172,22,1,2,10,20,236,1068.107726,1070.824478,stimuli/287_ya.png,l,2.70636266,ambig,0.0412,5.950819672,1.407435369,0.180203633
,,,,,,,,,,,,,,,,
172,22,1,2,10,21,237,1071.454703,1074.728465,stimuli/236_yb.png,l,3.263273002,ambig,0.0412,5.93442623,1.49297078,0.19115532
,,,,,,,,,,,,,,,,
172,22,1,2,10,22,238,1075.350103,1079.064477,stimuli/217_yb.png,l,3.703899154,ambig,0.0412,5.169491525,2.001314588,0.260548967
,,,,,,,,,,,,,,,,
172,22,1,2,10,23,239,1079.676382,1082.904483,stimuli/123_xc.png,l,3.217623896,harmless,0.0412,6.491525424,1.023396666,0.133234897
,,,,,,,,,,,,,,,,
172,22,1,2,10,24,240,1083.571118,1085.408485,stimuli/154_xc.png,l,1.82687833,harmless,0.0412,6.5,0.965506805,0.124646393
