id,age,condition,counterbalance,block,trialinblock,trial,tstart,tend,trialstim,response,RT,trialtype,ethicfreq,norm_mean,norm_sd,norm_se
006,74,0,1,0,0,practice,5.119945853948593e-06,90.79182131681591,stimuli/prac_217_1.png,l,90.77480165916495,harmless,NA,NA,NA,NA
006,74,0,1,1,1,1,5.330014918930829,22.0317404367961,stimuli/288_yb.png,a,16.690426078392193,ambig,0.333,5.189655172,1.914459262,0.251380817
006,74,0,1,1,2,2,22.861908167833462,31.87170508503914,stimuli/295_za.png,l,8.998140653362498,awful,0.333,2.3,1.825432384,0.235662307
006,74,0,1,1,3,3,32.50401683454402,40.40771126700565,stimuli/264_xa.png,a,7.891737664118409,harmless,0.333,6.533333333,0.947193297,0.122282129
006,74,0,1,1,4,4,41.029135539894924,76.2157550973352,stimuli/360_za.png,l,35.174537546234205,awful,0.333,3.2,2.207844259,0.285031468
006,74,0,1,1,5,5,76.85431875684299,85.54372004815377,stimuli/149_xa.png,a,8.677386627532542,harmless,0.333,6.721311475,0.933294301,0.11949609
006,74,0,1,1,6,6,86.18197965878062,98.70374634116888,stimuli/310_zb.png,l,12.509961544768885,awful,0.333,3.224137931,2.102989547,0.276136056
006,74,0,1,1,7,7,99.31502159847878,105.70369592891075,stimuli/180_xc.png,a,6.3766450942493975,harmless,0.333,6.672131148,0.723908638,0.092687003
006,74,0,1,1,8,8,106.33827583724633,118.23968990147114,stimuli/110_xa.png,a,11.889352926751599,harmless,0.333,6.428571429,1.059281795,0.141552484
006,74,0,1,1,9,9,118.8594678984955,127.24764519534074,stimuli/344_za.png,l,8.376663998933509,awful,0.333,2.711864407,2.043077863,0.265986082
006,74,0,1,1,10,10,127.79687436018139,137.15968640428036,stimuli/328_za.png,l,9.350789897376671,awful,0.333,2.706896552,1.955725922,0.256799395
006,74,0,1,1,11,11,137.72472375654615,146.53568756044842,stimuli/353_zb.png,l,8.799067687941715,awful,0.333,1.949152542,1.623361018,0.211343603
006,74,0,1,1,12,12,147.1959399213083,155.45564979850315,stimuli/164_xb.png,a,8.247383287642151,harmless,0.333,6.830508475,0.460604639,0.059965616
006,74,0,1,1,13,13,156.0294155641459,164.8157017705962,stimuli/306_zb.png,l,8.7742420041468,awful,0.333,2.352112676,1.917055413,0.101746737
006,74,0,1,1,14,14,165.4444496082142,183.09571716189384,stimuli/224_yb.png,l,17.639572692802176,ambig,0.333,5.881355932,1.609077116,0.209483997
006,74,0,1,1,15,15,183.71220181928948,198.67962170322426,stimuli/249_ya.png,l,14.955629712436348,ambig,0.333,5.327868852,1.859402337,0.238072074
006,74,0,1,1,16,16,199.27210539020598,206.4796377720777,stimuli/312_yb.png,l,7.195859970524907,ambig,0.333,4.677966102,2.112692986,0.275049199
006,74,0,1,1,17,17,207.15734144556336,224.05563743179664,stimuli/210_yb.png,a,16.886328977998346,ambig,0.333,5.557377049,1.76564049,0.226067099
006,74,0,1,1,18,18,224.6629565069452,235.71958918729797,stimuli/217_yb.png,l,11.04456760454923,ambig,0.333,5.169491525,2.001314588,0.260548967
006,74,0,1,1,19,19,236.31713852030225,244.03164630755782,stimuli/311_za.png,l,7.702264298917726,awful,0.333,3.116666667,1.975199339,0.254997138
006,74,0,1,1,20,20,244.66377058648504,254.7195761904586,stimuli/166_xa.png,a,10.043908700346947,harmless,0.333,6.593220339,1.052397002,0.13701042
006,74,0,1,1,21,21,255.34430640586652,278.9036420509219,stimuli/235_ya.png,l,23.54735760902986,ambig,0.333,5.694915254,1.567495667,0.204070554
006,74,0,1,1,22,22,279.51633475976996,285.8875345403794,stimuli/143_xb.png,a,6.359178421553224,harmless,0.333,6.655172414,0.738697862,0.096995781
006,74,0,1,1,23,23,286.4756985253189,296.43954307585955,stimuli/134_xc.png,a,9.952232791343704,harmless,0.333,6.516666667,0.965360505,0.124627505
006,74,0,1,1,24,24,297.0548087800853,306.5515489173122,stimuli/287_ya.png,l,9.485282371751964,ambig,0.333,5.950819672,1.407435369,0.180203633
006,74,0,1,2,1,25,317.6148041167762,324.66357051278464,stimuli/294_za.png,l,7.0357245821505785,awful,0.333,1.557377049,1.38473331,0.177296933
006,74,0,1,2,2,26,325.27802253118716,346.46356531395577,stimuli/289_yb.png,a,21.174087774008512,ambig,0.333,5.305084746,1.714584873,0.223219937
006,74,0,1,2,3,27,347.06388535303995,353.34351201867685,stimuli/148_xc.png,a,6.26795031549409,harmless,0.333,6.491525424,1.135218061,0.147792803
006,74,0,1,2,4,28,353.9313959791325,366.35154056781903,stimuli/189_yb.png,a,12.407646676059812,ambig,0.333,5.983333333,1.455459234,0.187898979
006,74,0,1,2,5,29,366.936211533146,392.1275462140329,stimuli/191_ya.png,a,25.179570503300056,ambig,0.333,5.517241379,2.062542966,0.270825159
006,74,0,1,2,6,30,392.7502213413827,400.5034819918219,stimuli/355_zb.png,l,7.741660312516615,awful,0.333,3.183333333,2.070713188,0.267327923
006,74,0,1,2,7,31,401.0603962719906,408.43154642824084,stimuli/240_xa.png,a,7.358259185217321,harmless,0.333,6.482758621,1.096107616,0.143925981
006,74,0,1,2,8,32,409.0342003982514,414.8075227723457,stimuli/297_za.png,l,5.761523537803441,awful,0.333,1.898305085,1.446695584,0.188343723
006,74,0,1,2,9,33,415.422327676788,437.04751829826273,stimuli/171_xa.png,a,21.613123182440177,harmless,0.333,6.465517241,1.046556882,0.137419651
006,74,0,1,2,10,34,437.63934898842126,444.3034823068883,stimuli/247_ya.png,l,6.652362051419914,ambig,0.333,4.65,2.081598147,0.268733165
006,74,0,1,2,11,35,444.90350578026846,453.5034595427569,stimuli/253_ya.png,l,8.588074581930414,ambig,0.333,5.491803279,1.849531029,0.236808182
006,74,0,1,2,12,36,454.108264305396,467.5755254693795,stimuli/168_xa.png,a,13.455589540069923,harmless,0.333,6.474576271,1.164946827,0.151663159
006,74,0,1,2,13,37,468.1835266854614,478.9754500084091,stimuli/331_za.png,l,10.780203256057575,awful,0.333,1.983606557,1.638004917,0.209725039
006,74,0,1,2,14,38,479.6140089419205,494.3514322601259,stimuli/157_xc.png,a,14.725362574448809,harmless,0.333,6.603448276,0.877389573,0.115206895
006,74,0,1,2,15,39,494.95492590987124,511.51143334712833,stimuli/242_xb.png,a,16.5446507059969,harmless,0.333,6.576271186,0.913564256,0.118935936
006,74,0,1,2,16,40,512.144040087238,528.1674002704676,stimuli/338_zb.png,a,16.011711796279997,awful,0.333,3.310344828,2.137443107,0.28066003
006,74,0,1,2,17,41,528.7850837947335,545.4634065940045,stimuli/277_yb.png,l,16.666328615508974,ambig,0.333,5.491525424,2.02886822,0.264136144
006,74,0,1,2,18,42,546.0576074491255,553.1274312110618,stimuli/124_xa.png,l,7.058027288876474,harmless,0.333,6.344262295,1.181598436,0.151288177
006,74,0,1,2,19,43,553.766108692158,592.6234766039997,stimuli/351_zb.png,l,38.84519689134322,awful,0.333,3.06779661,2.033040926,0.264679384
006,74,0,1,2,20,44,593.2307799253613,605.9833470128942,stimuli/144_xa.png,a,12.74062567926012,harmless,0.333,6.542372881,1.00553698,0.130909764
006,74,0,1,2,21,45,606.5886488093529,637.7273963950574,stimuli/363_zb.png,l,31.126988134346902,awful,0.333,2.433333333,2.019956927,0.260775318
006,74,0,1,2,22,46,638.3355787803885,651.0393483582884,stimuli/230_yb.png,l,12.692012489540502,ambig,0.333,4.98245614,1.875511626,0.248417583
006,74,0,1,2,23,47,651.6473003437277,663.1513380522374,stimuli/305_zb.png,l,11.492338121403009,awful,0.333,2.75,2.12830003,0.274762352
006,74,0,1,2,24,48,663.7018621824682,671.5354059606325,stimuli/260_ya.png,l,7.821690591517836,ambig,0.333,4.966101695,2.016877936,0.262575142
006,74,0,1,3,1,49,681.2655600646976,689.0393322107848,stimuli/123_xc.png,a,7.762057986808941,harmless,0.333,6.491525424,1.023396666,0.133234897
006,74,0,1,3,2,50,689.6659670651425,711.3193397251889,stimuli/307_za.png,l,21.641989725176245,awful,0.333,2.93220339,2.172432347,0.282826601
006,74,0,1,3,3,51,711.9339874852449,727.0553152658977,stimuli/198_yb.png,a,15.10925719095394,ambig,0.333,5.101694915,1.83542643,0.238952168
006,74,0,1,3,4,52,727.6693415369373,753.3993400719482,stimuli/276_ya.png,l,25.71824065875262,ambig,0.333,5.186440678,1.804922162,0.234980851
006,74,0,1,3,5,53,754.0131950199138,762.3673200046178,stimuli/314_zb.png,l,8.342092597857118,awful,0.333,1.833333333,1.451669602,0.18740974
006,74,0,1,3,6,54,762.9627063360531,768.1593437583651,stimuli/112_xc.png,a,5.183636174770072,harmless,0.333,6.706896552,0.749470472,0.098410294
006,74,0,1,3,7,55,768.7218258383218,792.0233046510257,stimuli/167_xb.png,a,23.28954016137868,harmless,0.333,6.590163934,0.955284411,0.122311635
006,74,0,1,3,8,56,792.6495358133689,799.0472280336544,stimuli/299_za.png,l,6.384828425012529,awful,0.333,1.288135593,0.929420425,0.121000233
006,74,0,1,3,9,57,799.6627528886311,825.0793209625408,stimuli/291_za.png,a,25.404456524178386,awful,0.333,2.593220339,1.830005126,0.238246374
006,74,0,1,3,10,58,825.720680534374,837.6872556186281,stimuli/282_xc.png,a,11.954534032847732,harmless,0.333,6.55,0.998728005,0.128935231
006,74,0,1,3,11,59,838.2935652667657,858.183252962539,stimuli/174_xc.png,a,19.877621044637635,harmless,0.333,6.533333333,1.111826512,0.143536185
006,74,0,1,3,12,60,858.747187940171,867.0952571500093,stimuli/185_xa.png,a,8.336428699782118,harmless,0.333,6.5,0.965506805,0.124646393
006,74,0,1,3,13,61,867.690510755172,874.1432697246782,stimuli/298_za.png,l,6.440981401130557,awful,0.333,2.881355932,2.026418156,0.263817173
006,74,0,1,3,14,62,874.7441466620658,890.2711833966896,stimuli/236_yb.png,a,15.515296187717468,ambig,0.333,5.93442623,1.49297078,0.19115532
006,74,0,1,3,15,63,890.8896904529538,901.159202367533,stimuli/284_ya.png,a,10.257828081492335,ambig,0.333,5.948275862,1.431750417,0.18799804
006,74,0,1,3,16,64,901.7146137317177,910.0551829335745,stimuli/356_za.png,l,8.328713258029893,awful,0.333,3.033333333,2.178217796,0.281206708
006,74,0,1,3,17,65,910.6566935691517,921.0072199834976,stimuli/215_yb.png,a,10.3387870490551,ambig,0.333,5.866666667,1.466769385,0.189359113
006,74,0,1,3,18,66,921.6331380384509,934.5672133511398,stimuli/296_yb.png,l,12.921898778527975,ambig,0.333,4.229508197,2.052587332,0.262806878
006,74,0,1,3,19,67,935.1924941632897,945.4231898053549,stimuli/202_yb.png,l,10.219104362651706,ambig,0.333,5.431034483,1.892849601,0.248543329
006,74,0,1,3,20,68,946.0365402370226,969.2072192744818,stimuli/184_xb.png,a,23.158801038283855,harmless,0.333,6.508474576,1.194425,0.15550089
006,74,0,1,3,21,69,969.8141114206519,978.8471543057822,stimuli/278_xb.png,a,9.021266892086715,harmless,0.333,6.360655738,1.140654591,0.146045855
006,74,0,1,3,22,70,979.4293605834246,988.8711600024253,stimuli/266_zb.png,l,9.430104558356106,awful,0.333,3.491525424,1.888010094,0.245797978
006,74,0,1,3,23,71,989.5220171685796,998.9031729802955,stimuli/369_za.png,l,9.369174231076613,awful,0.333,2.948275862,2.055565093,0.26990892
006,74,0,1,3,24,72,999.4976002969779,1013.3591461263131,stimuli/254_ya.png,a,13.849772987188771,ambig,0.333,5.983606557,1.627798137,0.208418195
006,74,0,1,4,1,73,1022.9378794706427,1040.1671489966102,stimuli/183_xb.png,a,17.216996893286705,harmless,0.333,6.448275862,1.095003225,0.143780967
006,74,0,1,4,2,74,1040.7803233789746,1053.69514041394,stimuli/330_ya.png,l,12.902867749566212,ambig,0.333,4.796610169,2.049219036,0.266785595
006,74,0,1,4,3,75,1054.293012700742,1068.8311153245158,stimuli/221_xb.png,a,14.526595233473927,harmless,0.333,6.440677966,1.133672495,0.147591588
006,74,0,1,4,4,76,1069.417032418307,1091.9511418382172,stimuli/200_ya.png,a,22.522377143846825,ambig,0.333,5.862068966,1.444266048,0.189641423
006,74,0,1,4,5,77,1092.5638526638504,1099.4470525360666,stimuli/192_za.png,l,6.8710178239271045,awful,0.333,2.68852459,2.093967396,0.268105052
006,74,0,1,4,6,78,1100.0280579773244,1112.0310326956678,stimuli/286_ya.png,a,11.99090255307965,ambig,0.333,5.06779661,1.779814082,0.231712057
006,74,0,1,4,7,79,1112.6513341136742,1137.359128797194,stimuli/233_yb.png,a,24.69601672119461,ambig,0.333,5.318309859,1.922973646,0.102060844
006,74,0,1,4,8,80,1137.973257468082,1149.287066415185,stimuli/326_zb.png,l,11.301728117279708,awful,0.333,3.389830508,2.220724867,0.289113752
006,74,0,1,4,9,81,1149.8952519511804,1157.263082379941,stimuli/361_za.png,l,7.355790165020153,awful,0.333,2.416666667,1.907093508,0.246204713
006,74,0,1,4,10,82,1157.8997599116992,1173.70314336312,stimuli/226_yb.png,a,15.791221489431337,ambig,0.333,5.683333333,1.712285287,0.22105508
006,74,0,1,4,11,83,1174.3152902014554,1183.0790287288837,stimuli/340_za.png,l,8.751831777393818,awful,0.333,2.508474576,1.832398855,0.238558011
006,74,0,1,4,12,84,1183.6684636543505,1191.3830246108118,stimuli/308_zb.png,l,7.702933049527928,awful,0.333,1.644067797,1.471132708,0.191525165
006,74,0,1,4,13,85,1191.9486094089225,1199.918998103356,stimuli/136_xc.png,a,7.958354338537902,harmless,0.333,6.559322034,1.038420326,0.135190811
006,74,0,1,4,14,86,1200.5395196813624,1209.3989899428561,stimuli/177_xb.png,a,8.84779745619744,harmless,0.333,6.482758621,1.063614811,0.139659467
006,74,0,1,4,15,87,1209.9896859631408,1217.0790117934812,stimuli/349_za.png,l,7.077678625006229,awful,0.333,3.288135593,2.101320172,0.273568585
006,74,0,1,4,16,88,1217.6801218874753,1229.030993704917,stimuli/203_yb.png,a,11.338758692145348,ambig,0.333,6,1.542501327,0.200816568
006,74,0,1,4,17,89,1229.6571189225651,1242.7750241821632,stimuli/140_xb.png,a,13.106287198606879,harmless,0.333,6.724137931,0.790138861,0.103750315
006,74,0,1,4,18,90,1243.3869559806772,1254.775040723849,stimuli/302_za.png,l,11.37638712534681,awful,0.333,3.137931034,2.188071937,0.287307921
006,74,0,1,4,19,91,1255.3596360706724,1281.039106930839,stimuli/275_yb.png,l,25.667876430088654,ambig,0.333,4.836065574,2.138382004,0.27379176
006,74,0,1,4,20,92,1281.6554592559114,1307.5910091279075,stimuli/336_ya.png,a,25.923717558849603,ambig,0.333,5.033898305,1.884291705,0.245313885
006,74,0,1,4,21,93,1308.183172618039,1319.2229884713888,stimuli/362_zb.png,l,11.026657067239285,awful,0.333,1.474576271,1.222715071,0.159183944
006,74,0,1,4,22,94,1319.8208658781368,1335.238929779036,stimuli/216_xa.png,a,15.406439144629985,harmless,0.333,6.603448276,0.877389573,0.115206895
006,74,0,1,4,23,95,1335.8562627804931,1342.2869407783728,stimuli/102_xc.png,a,6.419136737007648,harmless,0.333,6.66011236,0.937292468,0.049676401
006,74,0,1,4,24,96,1342.9014349384233,1352.470942048123,stimuli/120_xa.png,a,9.55754561536014,harmless,0.333,6.440677966,1.054893138,0.137335389
006,74,0,1,5,1,97,1362.0384740203153,1371.2949598750565,stimuli/329_zb.png,l,9.244499547872692,awful,0.333,2.406779661,1.992387617,0.259386774
006,74,0,1,5,2,98,1371.8696078555658,1378.9669433303643,stimuli/346_zb.png,l,7.085340897319838,awful,0.333,1.288135593,0.983499162,0.128040685
006,74,0,1,5,3,99,1379.533865235513,1386.5349597332533,stimuli/205_yb.png,a,6.989315354032442,ambig,0.333,5.847457627,1.52918233,0.199082582
006,74,0,1,5,4,100,1387.1318568575662,1398.6308935105335,stimuli/160_xb.png,a,11.487002690788358,harmless,0.333,6.666666667,0.680644427,0.087870818
006,74,0,1,5,5,101,1399.2726807990111,1411.2629516231827,stimuli/204_xb.png,a,11.978318782057613,harmless,0.333,6.508474576,0.858484658,0.111765183
006,74,0,1,5,6,102,1411.8690923112445,1428.4709136912134,stimuli/300_za.png,l,16.589779540896416,awful,0.333,3.75,2.12032137,0.273732312
006,74,0,1,5,7,103,1429.071970222285,1437.8949049729854,stimuli/368_za.png,l,8.811151668429375,awful,0.333,3.590163934,2.02794682,0.259651984
006,74,0,1,5,8,104,1438.5067190115806,1455.8549307934009,stimuli/223_yb.png,a,17.33639246574603,ambig,0.333,5.542372881,1.77455224,0.231027024
006,74,0,1,5,9,105,1456.4737828585785,1462.8308939831331,stimuli/241_yb.png,l,6.345468645216897,ambig,0.333,5.508474576,1.442852555,0.187843403
006,74,0,1,5,10,106,1463.455244924873,1484.4389196177945,stimuli/141_xc.png,a,20.971702170558274,harmless,0.333,6.508474576,1.040107444,0.135410455
006,74,0,1,5,11,107,1485.0601079768967,1496.4948158061597,stimuli/373_zb.png,l,11.423444229876623,awful,0.333,2.327586207,1.858011869,0.243968911
006,74,0,1,5,12,108,1497.0545003986917,1508.1988618641626,stimuli/115_xb.png,a,11.132453928003088,harmless,0.333,6.440677966,1.021681954,0.133011661
006,74,0,1,5,13,109,1508.8093431279995,1515.6068838753272,stimuli/161_xc.png,a,6.785407142015174,harmless,0.333,6.796610169,0.609682252,0.079373868
006,74,0,1,5,14,110,1516.2145991595462,1531.2388836990576,stimuli/188_xa.png,l,15.012551081832498,harmless,0.333,6.655172414,0.806807095,0.105938962
006,74,0,1,5,15,111,1531.850036864169,1539.550801397767,stimuli/121_xc.png,a,7.688897562213242,harmless,0.333,6.508474576,1.006408455,0.131023221
006,74,0,1,5,16,112,1540.1665558647364,1546.3188198485877,stimuli/201_yb.png,a,6.140404101694003,ambig,0.333,5.898305085,1.626238682,0.211718243
006,74,0,1,5,17,113,1546.9382457472384,1552.3588251420297,stimuli/229_za.png,l,5.408062971429899,awful,0.333,3.406779661,2.043649913,0.266060557
006,74,0,1,5,18,114,1552.9680976928212,1563.110823909985,stimuli/285_yb.png,l,10.130651295185089,ambig,0.333,4.120689655,2.119893958,0.278355714
006,74,0,1,5,19,115,1563.6965373854619,1575.3268023177516,stimuli/337_zb.png,a,11.618320373119786,awful,0.333,3.033333333,2.20143764,0.284204377
006,74,0,1,5,20,116,1575.900740587851,1582.4068526828196,stimuli/132_xc.png,a,6.494151388062164,harmless,0.333,6.627118644,0.692280217,0.090127208
006,74,0,1,5,21,117,1583.0342551430222,1598.7587642534636,stimuli/243_ya.png,a,15.712430643849075,ambig,0.333,5.830508475,1.652088985,0.215083666
006,74,0,1,5,22,118,1599.3851257786155,1612.5348214933183,stimuli/319_ya.png,l,13.137730281567201,ambig,0.333,4.216666667,2.108028774,0.272145344
006,74,0,1,5,23,119,1613.1210552393459,1620.9748218241148,stimuli/327_zb.png,l,7.841356893535703,awful,0.333,2.502808989,1.906990248,0.101070281
006,74,0,1,5,24,120,1621.574134011753,1629.9027681066655,stimuli/271_ya.png,l,8.317407123278826,ambig,0.333,5.711864407,1.771915459,0.230683744
006,74,0,1,6,1,121,1639.5963331370149,1658.5427606394514,stimuli/128_xc.png,a,18.93480471544899,harmless,0.333,6.627118644,0.98082135,0.127692063
006,74,0,1,6,2,122,1659.1166020235978,1667.4067660367582,stimuli/333_za.png,l,8.277262014802545,awful,0.333,3.266666667,2.185209657,0.282109354
006,74,0,1,6,3,123,1668.0258815847337,1685.9188204787206,stimuli/165_xb.png,a,17.88133973767981,harmless,0.333,6.557377049,1.008705278,0.129151477
006,74,0,1,6,4,124,1686.5176974665374,1694.5107748368755,stimuli/248_zb.png,l,7.9813380050472915,awful,0.333,3.288135593,1.991800844,0.259310383
006,74,0,1,6,5,125,1695.0896164886653,1704.3267054317985,stimuli/182_xb.png,a,9.224437824450433,harmless,0.333,6.542372881,0.988241802,0.128658124
006,74,0,1,6,6,126,1704.9560507338028,1710.9027007590048,stimuli/130_xc.png,a,5.934961859835312,harmless,0.333,6.644067797,0.960651931,0.125066229
006,74,0,1,6,7,127,1711.4752105500083,1720.4067108982708,stimuli/152_xa.png,a,8.919585327617824,harmless,0.333,6.576271186,0.968528743,0.126091702
006,74,0,1,6,8,128,1720.9686242647003,1737.1266919621266,stimuli/239_ya.png,l,16.146090055117384,ambig,0.333,5.157894737,1.925296579,0.255011762
006,74,0,1,6,9,129,1737.7486463517416,1757.8387303354684,stimuli/325_yb.png,l,20.078326501417905,ambig,0.333,5.131147541,1.811770863,0.231973488
006,74,0,1,6,10,130,1758.4559361245483,1773.9027133621275,stimuli/345_zb.png,l,15.434429380344227,awful,0.333,3.694915254,2.191317013,0.285285176
006,74,0,1,6,11,131,1774.5132099860348,1781.1027087147813,stimuli/372_zb.png,l,6.577565985033289,awful,0.333,2.796610169,2.082601664,0.271131643
006,74,0,1,6,12,132,1781.6983376552816,1794.9427052647807,stimuli/335_yb.png,a,13.232681019464508,ambig,0.333,5.016949153,2.046793332,0.266469795
006,74,0,1,6,13,133,1795.5139433271252,1804.3026721659116,stimuli/163_xa.png,a,8.776737411972135,harmless,0.333,6.627118644,0.963082427,0.125382652
006,74,0,1,6,14,134,1804.9049897915684,1811.5106507753953,stimuli/317_za.png,l,6.593653803225607,awful,0.333,3.65,2.03215674,0.262350307
006,74,0,1,6,15,135,1812.120492039714,1819.078642759705,stimuli/343_zb.png,l,6.9464861853048205,awful,0.333,3.103448276,2.141401862,0.28117984
006,74,0,1,6,16,136,1819.6704651794862,1859.5827068558428,stimuli/257_yb.png,a,39.900173449655995,ambig,0.333,5.620689655,1.843219782,0.242026615
006,74,0,1,6,17,137,1860.1625937747303,1869.6706609209068,stimuli/250_yb.png,a,9.496134402463213,ambig,0.333,5.950819672,1.585625318,0.203018519
006,74,0,1,6,18,138,1870.247109171003,1881.3826484878082,stimuli/218_yb.png,a,11.123520714696497,ambig,0.333,5.850282486,1.552723069,0.0825263
006,74,0,1,6,19,139,1882.0277373867575,1889.206690733321,stimuli/273_ya.png,l,7.166731913806871,ambig,0.333,5.551724138,1.836973233,0.241206403
006,74,0,1,6,20,140,1889.8173311110586,1908.182590513723,stimuli/232_yb.png,l,18.353391249664128,ambig,0.333,5.483333333,1.845669845,0.238274952
006,74,0,1,6,21,141,1908.7585232197307,1921.5985823911615,stimuli/348_za.png,l,12.828096889425069,awful,0.333,3.084745763,2.119597681,0.275948114
006,74,0,1,6,22,142,1922.165475545451,1932.6706806130242,stimuli/227_xa.png,a,10.493191191693768,harmless,0.333,6.180327869,1.05685377,0.135316259
006,74,0,1,6,23,143,1933.2703535633627,1939.558576704003,stimuli/105_xa.png,a,6.276377042988315,harmless,0.333,6.557377049,1.088187946,0.139328189
006,74,0,1,6,24,144,1940.1558940617833,1952.1745942600537,stimuli/357_za.png,l,12.007046691374853,awful,0.333,2.793103448,2.066937905,0.271402243
006,74,0,1,7,1,145,1963.6657665974926,1983.7266256385483,stimuli/263_ya.png,l,20.04903421108611,ambig,0.333,4.983050847,2.071910042,0.269739712
006,74,0,1,7,2,146,1984.362480032025,1993.4545938975643,stimuli/283_yb.png,l,9.079994044965133,ambig,0.333,5.949152542,1.478859402,0.192531095
006,74,0,1,7,3,147,1994.0845378455706,2014.710626435699,stimuli/309_ya.png,l,20.613911268068478,ambig,0.333,4.706896552,1.946734744,0.255618795
006,74,0,1,7,4,148,2015.3782090565655,2021.9025223469362,stimuli/290_zb.png,l,6.512221432756633,awful,0.333,2.586206897,2.026443456,0.266085062
006,74,0,1,7,5,149,2022.458116455702,2036.3105664134491,stimuli/347_zb.png,l,13.840166297508404,awful,0.333,3.796610169,2.147810923,0.279621165
006,74,0,1,7,6,150,2036.9400783122983,2050.5265416705515,stimuli/172_xb.png,a,13.574575118953362,harmless,0.333,6.482758621,1.127664553,0.14806961
006,74,0,1,7,7,151,2051.095477703726,2065.7025577141903,stimuli/315_yb.png,l,14.595195709727705,ambig,0.333,5.050847458,1.915667965,0.249398726
006,74,0,1,7,8,152,2066.298969620373,2089.8625548628625,stimuli/267_ya.png,a,23.55190731701441,ambig,0.333,5.103448276,1.898195405,0.249245267
006,74,0,1,7,9,153,2090.516406833427,2099.3584990375675,stimuli/262_ya.png,a,8.829921971308067,ambig,0.333,5.491525424,1.7750462,0.231091332
006,74,0,1,7,10,154,2099.9444594543893,2104.9584811569657,stimuli/199_za.png,l,5.001132307108492,awful,0.333,3.033898305,2.189048775,0.284989876
006,74,0,1,7,11,155,2105.5674000340514,2128.5504737179726,stimuli/118_xb.png,a,22.971369370818138,harmless,0.333,6.474576271,0.953323265,0.124112118
006,74,0,1,7,12,156,2129.1488993582316,2137.9344506480265,stimuli/211_zb.png,l,8.773353094002232,awful,0.333,3.983333333,2.127237938,0.274625237
006,74,0,1,7,13,157,2138.548117731698,2146.7744798872154,stimuli/268_zb.png,l,8.214629485504702,awful,0.333,2.655737705,2.048456703,0.262278005
006,74,0,1,7,14,158,2147.419527432183,2160.134491686709,stimuli/127_xb.png,a,12.702959830872715,harmless,0.333,6.423728814,1.162686987,0.151368953
006,74,0,1,7,15,159,2160.694444882218,2167.5904809804633,stimuli/301_za.png,l,6.884115563938394,awful,0.333,3.610169492,2.212947396,0.288101212
006,74,0,1,7,16,160,2168.1848988446873,2177.886452645529,stimuli/341_zb.png,l,9.689712823135778,awful,0.333,3.603448276,2.15975677,0.283589957
006,74,0,1,7,17,161,2178.518945564283,2187.0624446647707,stimuli/206_xa.png,a,8.531567932106555,harmless,0.333,6.325842697,1.136094431,0.060212884
006,74,0,1,7,18,162,2187.7061795212794,2194.9584681598935,stimuli/108_xb.png,a,7.2403180855326355,harmless,0.333,6.568965517,1.077880782,0.141532681
006,74,0,1,7,19,163,2195.58856019401,2200.0704712446313,stimuli/113_xb.png,a,4.470181925222278,harmless,0.333,6.733333333,0.660422737,0.085260209
006,74,0,1,7,20,164,2200.670596329961,2206.9264102836605,stimuli/323_yb.png,a,6.24391468684189,ambig,0.333,4.603448276,1.955107169,0.256718148
006,74,0,1,7,21,165,2207.5631488612853,2223.4784282713663,stimuli/371_zb.png,a,15.903238358674571,awful,0.333,3.131147541,2.085468851,0.267016925
006,74,0,1,7,22,166,2224.0822318776045,2239.3824090296403,stimuli/279_ya.png,l,15.288061270024627,ambig,0.333,5.31147541,1.970964092,0.252356093
006,74,0,1,7,23,167,2240.0012000487186,2245.7823827993125,stimuli/122_xa.png,a,5.769383520819247,harmless,0.333,6.457627119,1.039264227,0.135300678
006,74,0,1,7,24,168,2246.393228370929,2255.014414367033,stimuli/169_xc.png,a,8.609609683044255,harmless,0.333,6.603448276,0.916508538,0.120343467
006,74,0,1,8,1,169,2264.4962868206203,2276.4944069941994,stimuli/292_zb.png,l,11.986300069605932,awful,0.333,2.396551724,1.955107169,0.256718148
006,74,0,1,8,2,170,2277.1148005721625,2295.414445638424,stimuli/176_xb.png,a,18.287945873104036,harmless,0.333,6.796610169,0.517942249,0.067430337
006,74,0,1,8,3,171,2296.0355465637986,2303.6383706752677,stimuli/154_xc.png,a,7.590821263380349,harmless,0.333,6.5,0.965506805,0.124646393
006,74,0,1,8,4,172,2304.2392484003212,2348.7903668440413,stimuli/366_za.png,l,44.53900059242733,awful,0.333,3.689655172,2.036568291,0.267414518
006,74,0,1,8,5,173,2349.375377698336,2363.2143754549325,stimuli/237_ya.png,l,13.826255265623331,ambig,0.333,4.305084746,2.019339575,0.26289562
006,74,0,1,8,6,174,2363.819294826826,2370.334348799428,stimuli/313_zb.png,l,6.503357536392286,awful,0.333,2.101694915,1.688652955,0.219843889
006,74,0,1,8,7,175,2370.959343679482,2380.7023414927535,stimuli/339_ya.png,l,9.731054829666391,ambig,0.333,4.949152542,1.960152429,0.25519011
006,74,0,1,8,8,176,2381.2952777086757,2388.158310700441,stimuli/190_xc.png,a,6.851325527764857,harmless,0.333,6.517241379,1.046990328,0.137476565
006,74,0,1,8,9,177,2388.7320051798597,2403.438294978114,stimuli/281_ya.png,a,14.693397645838559,ambig,0.333,5.881355932,1.543448286,0.200939852
006,74,0,1,8,10,178,2404.0567579234485,2416.766311522806,stimuli/219_ya.png,l,12.697924510808662,ambig,0.333,5.271186441,1.998538332,0.260187529
006,74,0,1,8,11,179,2417.334515790222,2427.5023244787008,stimuli/107_xa.png,a,10.155954320216551,harmless,0.333,6.813559322,0.540580029,0.070377525
006,74,0,1,8,12,180,2428.102810720913,2437.7343040585984,stimuli/170_xc.png,a,9.619851646246389,harmless,0.333,6.583333333,1.062323432,0.137145365
006,74,0,1,8,13,181,2438.3061328900512,2450.246325023705,stimuli/354_zb.png,l,11.928232214646414,awful,0.333,2,1.701925887,0.221571878
006,74,0,1,8,14,182,2450.920411616331,2457.966279306216,stimuli/265_yb.png,l,7.033662798581645,ambig,0.333,5.627118644,1.856008928,0.241631781
006,74,0,1,8,15,183,2458.5929897790775,2476.1583662326448,stimuli/173_yb.png,a,17.553736731410027,ambig,0.333,5.796610169,1.242628763,0.161776485
006,74,0,1,8,16,184,2476.746758254245,2481.534267745912,stimuli/364_za.png,l,4.776085203047842,awful,0.333,1.677966102,1.279017376,0.166513879
006,74,0,1,8,17,185,2482.130084944656,2489.118301074719,stimuli/318_za.png,l,6.976474007591605,awful,0.333,3.06557377,2.197489875,0.281359747
006,74,0,1,8,18,186,2489.760527107632,2494.862273656763,stimuli/133_xa.png,a,5.0899465314578265,harmless,0.333,6.568965517,1.186356193,0.1557762
006,74,0,1,8,19,187,2495.488923083525,2506.902228537947,stimuli/280_xb.png,a,11.401262040017173,harmless,0.333,6.333333333,1.068289726,0.137915611
006,74,0,1,8,20,188,2507.526337658288,2513.7902864993084,stimuli/321_zb.png,l,6.251985771115869,awful,0.333,2.918032787,2.177881861,0.278849198
006,74,0,1,8,21,189,2514.3679694565944,2523.566251973156,stimuli/269_za.png,a,9.18671959429048,awful,0.333,3.457627119,2.119873401,0.27598401
006,74,0,1,8,22,190,2524.1599140472244,2532.5982633759268,stimuli/220_yb.png,l,8.426577667938545,ambig,0.333,4.75,2.096203186,0.270618668
006,74,0,1,8,23,191,2533.233766064979,2539.0702128817793,stimuli/116_xa.png,a,5.82444711914286,harmless,0.333,6.63559322,0.958030802,0.050918763
006,74,0,1,8,24,192,2539.691270090174,2548.4302498875186,stimuli/261_yb.png,l,8.727311718044803,ambig,0.333,5.706896552,1.901141123,0.249632059
006,74,0,1,9,1,193,2558.0439122449607,2569.494258120423,stimuli/258_ya.png,a,11.438578153261915,ambig,0.333,5.627118644,1.78014243,0.231754804
006,74,0,1,9,2,194,2570.1212824883405,2580.702220975887,stimuli/352_zb.png,l,10.569044340634719,awful,0.333,2.93442623,2.135952968,0.273480754
006,74,0,1,9,3,195,2581.307496778434,2596.3822739403695,stimuli/244_xb.png,a,15.062967298086733,harmless,0.333,6.610169492,0.743174671,0.096753101
006,74,0,1,9,4,196,2596.945362149272,2607.8542305354495,stimuli/370_za.png,l,10.896881685592234,awful,0.333,2.393442623,1.882185684,0.240989182
006,74,0,1,9,5,197,2608.4748013440985,2617.654158776626,stimuli/342_yb.png,a,9.167466436279938,ambig,0.333,4.916666667,2.085394461,0.269223267
006,74,0,1,9,6,198,2618.2252219717484,2627.286188138649,stimuli/213_ya.png,a,9.048992463387549,ambig,0.333,5.98245614,1.597891781,0.211645937
006,74,0,1,9,7,199,2627.9008252648637,2642.054218798876,stimuli/209_ya.png,a,14.141033073654398,ambig,0.333,5.603448276,1.825161903,0.239655499
006,74,0,1,9,8,200,2642.6502813636325,2647.4781896006316,stimuli/195_xc.png,a,4.8159999118652195,harmless,0.333,6.637640449,1.001766915,0.05309354
006,74,0,1,9,9,201,2648.0694255835842,2662.5262261999305,stimuli/251_ya.png,l,14.444192426744848,ambig,0.333,5.655172414,1.792300532,0.235340589
006,74,0,1,9,10,202,2663.137912632432,2668.110250076512,stimuli/103_xb.png,a,4.960052601993084,harmless,0.333,6.779661017,0.589207434,0.076708274
006,74,0,1,9,11,203,2668.747967755189,2676.3261501088273,stimuli/367_zb.png,l,7.566111369989812,awful,0.333,3.413793103,2.086165649,0.27392697
006,74,0,1,9,12,204,2676.9250771151856,2681.7181414095685,stimuli/179_xb.png,a,4.781317052198574,harmless,0.333,6.704918033,0.882123617,0.112944356
006,74,0,1,9,13,205,2682.323674393585,2694.9661324017216,stimuli/228_ya.png,l,12.630529990652576,ambig,0.333,5.442622951,1.793735303,0.229664272
006,74,0,1,9,14,206,2695.5940232307184,2708.014123708708,stimuli/358_za.png,l,12.408448152709752,awful,0.333,3.949152542,2.112554662,0.275031191
006,74,0,1,9,15,207,2708.5940779752564,2716.3261103304103,stimuli/125_xc.png,a,7.720261876005679,harmless,0.333,6.683333333,0.999858747,0.129081209
006,74,0,1,9,16,208,2716.968900350854,2723.7021110930946,stimuli/214_xb.png,l,6.721115340245888,harmless,0.333,6.465517241,0.940614156,0.12350869
006,74,0,1,9,17,209,2724.301858086372,2731.998116235016,stimuli/256_zb.png,l,7.684594007907435,awful,0.333,3.051724138,2.012438634,0.264246138
006,74,0,1,9,18,210,2732.600093971705,2743.5500995642506,stimuli/316_za.png,l,10.93774595670402,awful,0.333,2.344827586,1.802062407,0.236622386
006,74,0,1,9,19,211,2744.1699697212316,2753.118133690208,stimuli/274_xb.png,a,8.935987434582785,harmless,0.333,6.491525424,1.179901828,0.153610134
006,74,0,1,9,20,212,2753.718892080011,2759.206111779902,stimuli/197_xa.png,a,5.475029380992055,harmless,0.333,6.779661017,0.55918033,0.072799078
006,74,0,1,9,21,213,2759.791533809388,2775.958138904767,stimuli/222_ya.png,l,16.154852339299396,ambig,0.333,5.931034483,1.543089507,0.202617579
006,74,0,1,9,22,214,2776.573583415011,2786.598081025295,stimuli/252_zb.png,l,10.01284016482532,awful,0.333,2.711864407,1.983125776,0.258180985
006,74,0,1,9,23,215,2787.2072732315864,2794.1261134024244,stimuli/322_za.png,l,6.906771156471223,awful,0.333,2.406779661,1.975004531,0.257123689
006,74,0,1,9,24,216,2794.7346077137627,2805.7420899986755,stimuli/270_yb.png,a,10.995439264224842,ambig,0.333,5.534482759,1.912246013,0.251090203
006,74,0,1,10,1,217,2815.4959709562827,2824.2540778806433,stimuli/225_ya.png,a,8.746599928010255,ambig,0.333,5.85,1.792876677,0.231459384
006,74,0,1,10,2,218,2824.8767872729804,2833.214062741259,stimuli/245_yb.png,l,8.324985112529248,ambig,0.333,4.949152542,2.096168334,0.272897873
006,74,0,1,10,3,219,2833.850934438873,2841.782069297973,stimuli/194_xb.png,a,7.919024097034708,harmless,0.333,6.586206897,1.026567825,0.134794959
006,74,0,1,10,4,220,2842.361376082059,2851.1260633841157,stimuli/246_ya.png,a,8.753177942708135,ambig,0.333,5.542372881,1.715266481,0.223308675
006,74,0,1,10,5,221,2851.750049624592,2861.3580386317335,stimuli/334_za.png,l,9.595965678803623,awful,0.333,3.333333333,2.214487481,0.285889104
006,74,0,1,10,6,222,2861.984870015178,2872.2140733751003,stimuli/303_zb.png,l,10.21699846861884,awful,0.333,3.620689655,2.158846233,0.283470398
006,74,0,1,10,7,223,2872.8281933816615,2880.054034085013,stimuli/137_xa.png,l,7.21378035354428,harmless,0.333,6.355932203,1.094858074,0.14253838
006,74,0,1,10,8,224,2880.6197283724323,2887.9900652368087,stimuli/153_xb.png,a,7.357726705726236,harmless,0.333,6.633333333,0.973664521,0.125699549
006,74,0,1,10,9,225,2888.6045022890903,2898.9100274748635,stimuli/324_za.png,l,10.293039876269177,awful,0.333,2.491525424,1.994586478,0.259673041
006,74,0,1,10,10,226,2899.4959918302484,2906.6219973186962,stimuli/293_zb.png,l,7.114284633891657,awful,0.333,3.677966102,2.169066842,0.28238845
006,74,0,1,10,11,227,2907.2297901904676,2915.2460190055426,stimuli/332_zb.png,l,8.00415783142671,awful,0.333,2.694915254,2.002190501,0.260663001
006,74,0,1,10,12,228,2915.886943771504,2923.678010479547,stimuli/350_ya.png,l,7.779194222763181,ambig,0.333,4.915254237,2.02814792,0.264042369
006,74,0,1,10,13,229,2924.2849620962515,2931.4139647523407,stimuli/114_xc.png,a,7.117074638372287,harmless,0.333,6.644067797,0.97843492,0.127381377
006,74,0,1,10,14,230,2932.0192291333806,2947.1180167179555,stimuli/207_yb.png,l,15.087026163935661,ambig,0.333,5.655737705,1.662179753,0.212820309
006,74,0,1,10,15,231,2947.740206627408,2960.262029629899,stimuli/109_xb.png,a,12.50985363102518,harmless,0.333,6.644067797,0.97843492,0.127381377
006,74,0,1,10,16,232,2960.8701572706923,2967.5259902863763,stimuli/320_za.png,l,6.643549749162048,awful,0.333,1.423728814,1.117314975,0.14546202
006,74,0,1,10,17,233,2968.1493881209753,2986.069991146447,stimuli/234_xb.png,a,17.908597420202568,harmless,0.333,6.637931034,0.788030542,0.103473479
006,74,0,1,10,18,234,2986.626693143742,2996.8139842085075,stimuli/365_zb.png,l,10.175480413250625,awful,0.333,2.966101695,2.165291266,0.281896912
006,74,0,1,10,19,235,2997.390585270943,3011.805931240786,stimuli/272_xb.png,a,14.402568820631132,harmless,0.333,6.355932203,1.029943284,0.134087194
006,74,0,1,10,20,236,3012.4401393586304,3019.7819456304424,stimuli/212_ya.png,l,7.329689602134749,ambig,0.333,5.677966102,1.490668422,0.194068498
006,74,0,1,10,21,237,3020.350151079474,3031.7179177051876,stimuli/304_ya.png,l,11.355895322049037,ambig,0.333,4.034482759,2.017167697,0.264867095
006,74,0,1,10,22,238,3032.3282430062536,3047.6779620365705,stimuli/147_ya.png,a,15.338108846452087,ambig,0.333,5.883333333,1.766847875,0.22809908
006,74,0,1,10,23,239,3048.2691743888427,3060.1259964301717,stimuli/359_za.png,l,11.845070860581473,awful,0.333,2.01754386,1.641985167,0.217486248
006,74,0,1,10,24,240,3060.751524577616,3069.6299860894214,stimuli/162_xa.png,a,8.867045887745917,harmless,0.333,6.644067797,0.905209289,0.117848212
