id,age,condition,counterbalance,block,trialinblock,trial,tstart,tend,trialstim,response,RT,trialtype,ethicfreq,norm_mean,norm_sd,norm_se
133,21,1,2,0,0,practice,4.332512617111206e-06,4.7678010480012745,stimuli/prac_217_1.png,l,4.750526178162545,harmless,NA,NA,NA,NA
133,21,1,2,1,1,1,4.892119694501162,12.103777218610048,stimuli/165_xb.png,l,7.199971328023821,harmless,0.333,6.557377049,1.008705278,0.129151477
133,21,1,2,1,2,2,12.65563648659736,17.255746212089434,stimuli/297_za.png,a,4.58823684649542,awful,0.333,1.898305085,1.446695584,0.188343723
133,21,1,2,1,3,3,17.811907458817586,23.2157665186096,stimuli/218_yb.png,l,5.391904654446989,ambig,0.333,5.850282486,1.552723069,0.0825263
133,21,1,2,1,4,4,23.765017344849184,32.83173878258094,stimuli/336_ya.png,l,9.05484934616834,ambig,0.333,5.033898305,1.884291705,0.245313885
133,21,1,2,1,5,5,33.37960287719034,38.215761398663744,stimuli/120_xa.png,l,4.824183636112139,harmless,0.333,6.440677966,1.054893138,0.137335389
133,21,1,2,1,6,6,38.77080254768953,43.791717735351995,stimuli/280_xb.png,l,5.008998591685668,harmless,0.333,6.333333333,1.068289726,0.137915611
133,21,1,2,1,7,7,44.3484729018528,50.407716386718675,stimuli/226_yb.png,l,6.047328858170658,ambig,0.333,5.683333333,1.712285287,0.22105508
133,21,1,2,1,8,8,50.95628822268918,55.91974207828753,stimuli/337_zb.png,a,4.951643597800285,awful,0.333,3.033333333,2.20143764,0.284204377
133,21,1,2,1,9,9,56.473227141890675,59.655746763339266,stimuli/306_zb.png,a,3.170739296125248,awful,0.333,2.352112676,1.917055413,0.101746737
133,21,1,2,1,10,10,60.21165004116483,73.16775394394062,stimuli/227_xa.png,l,12.944561066571623,harmless,0.333,6.180327869,1.05685377,0.135316259
133,21,1,2,1,11,11,73.72419679071754,79.25573439663276,stimuli/257_yb.png,a,5.519587927032262,ambig,0.333,5.620689655,1.843219782,0.242026615
133,21,1,2,1,12,12,79.81814873521216,86.35171110299416,stimuli/289_yb.png,l,6.521629624068737,ambig,0.333,5.305084746,1.714584873,0.223219937
133,21,1,2,1,13,13,86.91107352939434,91.62367707164958,stimuli/281_ya.png,l,4.700623143231496,ambig,0.333,5.881355932,1.543448286,0.200939852
133,21,1,2,1,14,14,92.17709203064442,96.59169796435162,stimuli/211_zb.png,a,4.402637743856758,awful,0.333,3.983333333,2.127237938,0.274625237
133,21,1,2,1,15,15,97.14431577944197,102.37571246735752,stimuli/192_za.png,a,5.219508055131882,awful,0.333,2.68852459,2.093967396,0.268105052
133,21,1,2,1,16,16,102.9254489056766,107.37580423336476,stimuli/174_xc.png,l,4.438593513099477,harmless,0.333,6.533333333,1.111826512,0.143536185
133,21,1,2,1,17,17,107.92879817122594,111.23174366611056,stimuli/115_xb.png,l,3.290947766508907,harmless,0.333,6.440677966,1.021681954,0.133011661
133,21,1,2,1,18,18,111.78968273336068,118.3997941762209,stimuli/309_ya.png,l,6.598300397396088,ambig,0.333,4.706896552,1.946734744,0.255618795
133,21,1,2,1,19,19,118.96127903833985,123.31974184187129,stimuli/266_zb.png,l,4.3463847306557,awful,0.333,3.491525424,1.888010094,0.245797978
133,21,1,2,1,20,20,123.86870200978592,130.81565805361606,stimuli/201_yb.png,l,6.9349441369995475,ambig,0.333,5.898305085,1.626238682,0.211718243
133,21,1,2,1,21,21,131.3711757559795,137.03165654744953,stimuli/332_zb.png,l,5.648703616810963,awful,0.333,2.694915254,2.002190501,0.260663001
133,21,1,2,1,22,22,137.5895751346834,142.8796989757102,stimuli/116_xa.png,l,5.278420315589756,harmless,0.333,6.63559322,0.958030802,0.050918763
133,21,1,2,1,23,23,143.4353671274148,147.17571514542215,stimuli/181_xa.png,l,3.7282801852561533,harmless,0.333,6.666666667,0.950765377,0.122743282
133,21,1,2,1,24,24,147.7341882677283,155.06366401165724,stimuli/340_za.png,l,7.3175213385839015,awful,0.333,2.508474576,1.832398855,0.238558011
133,21,1,2,2,1,25,163.76917675184086,169.19169859448448,stimuli/246_ya.png,l,5.410800200421363,ambig,0.333,5.542372881,1.715266481,0.223308675
133,21,1,2,2,2,26,169.7464026112575,172.51966000068933,stimuli/144_xa.png,l,2.761382147204131,harmless,0.333,6.542372881,1.00553698,0.130909764
133,21,1,2,2,3,27,173.07379845483229,178.2077040988952,stimuli/284_ya.png,l,5.122389195486903,ambig,0.333,5.948275862,1.431750417,0.18799804
133,21,1,2,2,4,28,178.7612218519207,185.0156597075984,stimuli/343_zb.png,a,6.242524804314598,awful,0.333,3.103448276,2.141401862,0.28117984
133,21,1,2,2,5,29,185.57454400509596,188.99163038027473,stimuli/178_xa.png,l,3.405115034431219,harmless,0.333,6.483333333,1.112207557,0.143585378
133,21,1,2,2,6,30,189.54452703823335,195.10364803718403,stimuli/222_ya.png,l,5.547147295204923,ambig,0.333,5.931034483,1.543089507,0.202617579
133,21,1,2,2,7,31,195.65378541056998,200.27970858546905,stimuli/242_xb.png,l,4.61394907720387,harmless,0.333,6.576271186,0.913564256,0.118935936
133,21,1,2,2,8,32,200.84070232184604,204.49562791641802,stimuli/138_xc.png,l,3.6430101802106947,harmless,0.333,6.661016949,0.70978796,0.092406522
133,21,1,2,2,9,33,205.05865271622315,207.59966074116528,stimuli/298_za.png,a,2.529098518192768,awful,0.333,2.881355932,2.026418156,0.263817173
133,21,1,2,2,10,34,208.15582120022736,215.18367201462388,stimuli/341_zb.png,a,7.015973996836692,awful,0.333,3.603448276,2.15975677,0.283589957
133,21,1,2,2,11,35,215.73517563962378,220.23965878761373,stimuli/123_xc.png,l,4.49260160443373,harmless,0.333,6.491525424,1.023396666,0.133234897
133,21,1,2,2,12,36,220.79762975638732,224.35963095049374,stimuli/130_xc.png,l,3.5505804501008242,harmless,0.333,6.644067797,0.960651931,0.125066229
133,21,1,2,2,13,37,224.9227116764523,229.9916599188,stimuli/347_zb.png,a,5.057189972372726,awful,0.333,3.796610169,2.147810923,0.279621165
133,21,1,2,2,14,38,230.53541462519206,234.5356174558401,stimuli/283_yb.png,a,3.9886934712994844,ambig,0.333,5.949152542,1.478859402,0.192531095
133,21,1,2,2,15,39,235.082773021888,239.31962565728463,stimuli/236_yb.png,a,4.224847030127421,ambig,0.333,5.93442623,1.49297078,0.19115532
133,21,1,2,2,16,40,239.87978286482394,246.98366208956577,stimuli/349_za.png,a,7.091933877905831,awful,0.333,3.288135593,2.101320172,0.273568585
133,21,1,2,2,17,41,247.53689509211108,253.29567155451514,stimuli/268_zb.png,a,5.746843718690798,awful,0.333,2.655737705,2.048456703,0.262278005
133,21,1,2,2,18,42,253.84944648901,259.51960013620555,stimuli/228_ya.png,l,5.65814292198047,ambig,0.333,5.442622951,1.793735303,0.229664272
133,21,1,2,2,19,43,260.0839742519893,268.71166697656736,stimuli/367_zb.png,a,8.615782036213204,awful,0.333,3.413793103,2.086165649,0.27392697
133,21,1,2,2,20,44,269.2726095127873,277.1356117844116,stimuli/214_xb.png,l,7.851154204690829,harmless,0.333,6.465517241,0.940614156,0.12350869
133,21,1,2,2,21,45,277.6927099907771,282.7356494362466,stimuli/265_yb.png,l,5.031013790983707,ambig,0.333,5.627118644,1.856008928,0.241631781
133,21,1,2,2,22,46,283.2889013432432,287.0635903624352,stimuli/133_xa.png,l,3.762903573922813,harmless,0.333,6.568965517,1.186356193,0.1557762
133,21,1,2,2,23,47,287.6169935062062,292.7595944805071,stimuli/362_zb.png,l,5.130569769069552,awful,0.333,1.474576271,1.222715071,0.159183944
133,21,1,2,2,24,48,293.32159055466764,298.5595979462378,stimuli/342_yb.png,l,5.226100641768426,ambig,0.333,4.916666667,2.085394461,0.269223267
133,21,1,2,3,1,49,307.6145138524007,312.3195906050969,stimuli/311_za.png,l,4.693075873656198,awful,0.333,3.116666667,1.975199339,0.254997138
133,21,1,2,3,2,50,312.8730882718228,317.6715876401868,stimuli/302_za.png,l,4.786789935315028,awful,0.333,3.137931034,2.188071937,0.287307921
133,21,1,2,3,3,51,318.2341488832608,325.815566287376,stimuli/357_za.png,a,7.569428734248504,awful,0.333,2.793103448,2.066937905,0.271402243
133,21,1,2,3,4,52,326.3715034360066,329.78357063862495,stimuli/318_za.png,a,3.400142336031422,awful,0.333,3.06557377,2.197489875,0.281359747
133,21,1,2,3,5,53,330.3407035032287,334.26359871192835,stimuli/158_xa.png,l,3.9111058248672634,harmless,0.333,6.786885246,0.661179605,0.084655374
133,21,1,2,3,6,54,334.8268074376974,340.6475539805833,stimuli/217_yb.png,l,5.80883624847047,ambig,0.333,5.169491525,2.001314588,0.260548967
133,21,1,2,3,7,55,341.18858563620597,345.5755569769535,stimuli/361_za.png,a,4.375094916904345,awful,0.333,2.416666667,1.907093508,0.246204713
133,21,1,2,3,8,56,346.12571837496944,351.22365485853516,stimuli/167_xb.png,l,5.086015161359683,harmless,0.333,6.590163934,0.955284411,0.122311635
133,21,1,2,3,9,57,351.78141118143685,354.3995834684465,stimuli/195_xc.png,l,2.6060942141339183,harmless,0.333,6.637640449,1.001766915,0.05309354
133,21,1,2,3,10,58,354.95405629789457,360.28756423620507,stimuli/200_ya.png,l,5.321596068330109,ambig,0.333,5.862068966,1.444266048,0.189641423
133,21,1,2,3,11,59,360.8438916860614,367.3435470708646,stimuli/244_xb.png,l,6.487650961149484,harmless,0.333,6.610169492,0.743174671,0.096753101
133,21,1,2,3,12,60,367.8926336634904,372.19157374533825,stimuli/118_xb.png,l,4.2869837074540555,harmless,0.333,6.474576271,0.953323265,0.124112118
133,21,1,2,3,13,61,372.75107086705975,377.46360627375543,stimuli/250_yb.png,l,4.700861025834456,ambig,0.333,5.950819672,1.585625318,0.203018519
133,21,1,2,3,14,62,378.01683061150834,381.1755745424889,stimuli/333_za.png,a,3.146788344020024,awful,0.333,3.266666667,2.185209657,0.282109354
133,21,1,2,3,15,63,381.73489640280604,387.1755398840178,stimuli/270_yb.png,l,5.428711131447926,ambig,0.333,5.534482759,1.912246013,0.251090203
133,21,1,2,3,16,64,387.7352796148043,391.66353309713304,stimuli/127_xb.png,l,3.916340430965647,harmless,0.333,6.423728814,1.162686987,0.151368953
133,21,1,2,3,17,65,392.2190204737708,396.38358072098345,stimuli/345_zb.png,a,4.152647589799017,awful,0.333,3.694915254,2.191317013,0.285285176
133,21,1,2,3,18,66,396.9379420920741,401.88754635560326,stimuli/124_xa.png,l,4.937755408929661,harmless,0.333,6.344262295,1.181598436,0.151288177
133,21,1,2,3,19,67,402.4379401227925,407.2075532558374,stimuli/338_zb.png,a,4.75767842005007,awful,0.333,3.310344828,2.137443107,0.28066003
133,21,1,2,3,20,68,407.7663111288566,410.359580144519,stimuli/230_yb.png,a,2.5813327273353934,ambig,0.333,4.98245614,1.875511626,0.248417583
133,21,1,2,3,21,69,410.9063950337004,414.8635579883121,stimuli/233_yb.png,l,3.9454803029075265,ambig,0.333,5.318309859,1.922973646,0.102060844
133,21,1,2,3,22,70,415.42220322135836,421.0635750023648,stimuli/194_xb.png,l,5.629740723175928,harmless,0.333,6.586206897,1.026567825,0.134794959
133,21,1,2,3,23,71,421.62563172890805,425.7115031366702,stimuli/319_ya.png,a,4.0739516611211,ambig,0.333,4.216666667,2.108028774,0.272145344
133,21,1,2,3,24,72,426.2662898611743,429.9595193346031,stimuli/213_ya.png,l,3.681347929639742,ambig,0.333,5.98245614,1.597891781,0.211645937
133,21,1,2,4,1,73,438.4871720445808,449.14351548440754,stimuli/304_ya.png,a,10.644582806853577,ambig,0.333,4.034482759,2.017167697,0.264867095
133,21,1,2,4,2,74,449.69855781504884,453.68757384619676,stimuli/269_za.png,a,3.9771478781476617,awful,0.333,3.457627119,2.119873401,0.27598401
133,21,1,2,4,3,75,454.24480005237274,461.1514727473259,stimuli/141_xc.png,l,6.894708837382495,harmless,0.333,6.508474576,1.040107444,0.135410455
133,21,1,2,4,4,76,461.71361099998467,464.8635103330016,stimuli/260_ya.png,a,3.137916570995003,ambig,0.333,4.966101695,2.016877936,0.262575142
133,21,1,2,4,5,77,465.42011229344644,469.17572105303407,stimuli/162_xa.png,l,3.743797714356333,harmless,0.333,6.644067797,0.905209289,0.117848212
133,21,1,2,4,6,78,469.73503109812737,473.919480958255,stimuli/364_za.png,a,4.172426138073206,awful,0.333,1.677966102,1.279017376,0.166513879
133,21,1,2,4,7,79,474.46638052444905,479.61549925478175,stimuli/326_zb.png,l,5.137131242081523,awful,0.333,3.389830508,2.220724867,0.289113752
133,21,1,2,4,8,80,480.16924110613763,488.0794769253116,stimuli/163_xa.png,l,7.8983141030184925,harmless,0.333,6.627118644,0.963082427,0.125382652
133,21,1,2,4,9,81,488.63288046303205,494.67947519244626,stimuli/191_ya.png,l,6.034674588823691,ambig,0.333,5.517241379,2.062542966,0.270825159
133,21,1,2,4,10,82,495.2351638241671,502.34349784022197,stimuli/105_xa.png,l,7.0965036721900105,harmless,0.333,6.557377049,1.088187946,0.139328189
133,21,1,2,4,11,83,502.90487636392936,506.6794811000582,stimuli/169_xc.png,l,3.7626420601736754,harmless,0.333,6.603448276,0.916508538,0.120343467
133,21,1,2,4,12,84,507.2350492149126,512.2394421724603,stimuli/219_ya.png,a,4.992419253801927,ambig,0.333,5.271186441,1.998538332,0.260187529
133,21,1,2,4,13,85,512.7952836162876,516.2874488395173,stimuli/299_za.png,a,3.4803317287005484,awful,0.333,1.288135593,0.929420425,0.121000233
133,21,1,2,4,14,86,516.841686148895,521.4634333753493,stimuli/106_xc.png,l,4.609809756511822,harmless,0.333,6.661016949,0.863237081,0.112383896
133,21,1,2,4,15,87,522.0152705879882,533.815480035264,stimuli/249_ya.png,a,11.788325146771967,ambig,0.333,5.327868852,1.859402337,0.238072074
133,21,1,2,4,16,88,534.3742599633988,539.6634614171926,stimuli/229_za.png,l,5.277660192921758,awful,0.333,3.406779661,2.043649913,0.266060557
133,21,1,2,4,17,89,540.2220495427027,544.631466162391,stimuli/316_za.png,a,4.3976725281681865,awful,0.333,2.344827586,1.802062407,0.236622386
133,21,1,2,4,18,90,545.1839803960174,552.423425719142,stimuli/273_ya.png,l,7.227475557941943,ambig,0.333,5.551724138,1.836973233,0.241206403
133,21,1,2,4,19,91,552.9805128977168,557.023421229329,stimuli/356_za.png,a,4.030926750972867,awful,0.333,3.033333333,2.178217796,0.281206708
133,21,1,2,4,20,92,557.5734881041571,561.6074037519284,stimuli/156_xc.png,l,4.0221636791247874,harmless,0.333,6.590163934,0.955284411,0.122311635
133,21,1,2,4,21,93,562.1690496969968,568.9594641963486,stimuli/355_zb.png,a,6.778819281607866,awful,0.333,3.183333333,2.070713188,0.267327923
133,21,1,2,4,22,94,569.5092478960287,574.8234424181283,stimuli/288_yb.png,l,5.302232239861041,ambig,0.333,5.189655172,1.914459262,0.251380817
133,21,1,2,4,23,95,575.3848847448826,580.0714318347163,stimuli/166_xa.png,l,4.6746013490483165,harmless,0.333,6.593220339,1.052397002,0.13701042
133,21,1,2,4,24,96,580.6195507477969,585.7034269322176,stimuli/207_yb.png,l,5.071962345391512,ambig,0.333,5.655737705,1.662179753,0.212820309
133,21,1,2,5,1,97,594.6153952796012,604.1194357448258,stimuli/193_xc.png,l,9.492358601419255,harmless,0.25,6.482758621,1.012923151,0.133003326
133,21,1,2,5,2,98,604.6723769074306,609.0473867536057,stimuli/287_ya.png,l,4.363123970106244,ambig,0.25,5.950819672,1.407435369,0.180203633
133,21,1,2,5,3,99,609.594322553603,612.5753978630528,stimuli/117_xc.png,l,2.9691630457527936,harmless,0.25,6.627118644,0.868972939,0.113130641
133,21,1,2,5,4,100,613.1249677045271,615.879428403452,stimuli/184_xb.png,l,2.7425354381557554,harmless,0.25,6.508474576,1.194425,0.15550089
133,21,1,2,5,5,101,616.4377396551427,620.3914320394397,stimuli/145_xa.png,l,3.941781301982701,harmless,0.25,6.661016949,0.822321556,0.107057148
133,21,1,2,5,6,102,620.9381575258449,625.1513825566508,stimuli/371_zb.png,a,4.201710551511496,awful,0.25,3.131147541,2.085468851,0.267016925
133,21,1,2,5,7,103,625.7045730238315,628.8073605075479,stimuli/354_zb.png,a,3.0908807339146733,awful,0.25,2,1.701925887,0.221571878
133,21,1,2,5,8,104,629.3611043281853,634.9353738226928,stimuli/223_yb.png,l,5.562156763160601,ambig,0.25,5.542372881,1.77455224,0.231027024
133,21,1,2,5,9,105,635.4861047221348,651.5914069120772,stimuli/339_ya.png,a,16.093268227996305,ambig,0.25,4.949152542,1.960152429,0.25519011
133,21,1,2,5,10,106,652.1426998295356,658.9113748215605,stimuli/350_ya.png,l,6.756797780515626,ambig,0.25,4.915254237,2.02814792,0.264042369
133,21,1,2,5,11,107,659.4708108971827,666.303509876132,stimuli/276_ya.png,l,6.82075599511154,ambig,0.25,5.186440678,1.804922162,0.234980851
133,21,1,2,5,12,108,666.8642499756534,672.655395058915,stimuli/224_yb.png,l,5.779527810169384,ambig,0.25,5.881355932,1.609077116,0.209483997
133,21,1,2,5,13,109,673.2301584363449,681.7994071831927,stimuli/365_zb.png,l,8.556235683849081,awful,0.25,2.966101695,2.165291266,0.281896912
133,21,1,2,5,14,110,682.3627836871892,686.5595266602468,stimuli/103_xb.png,l,4.184761786367744,harmless,0.25,6.779661017,0.589207434,0.076708274
133,21,1,2,5,15,111,687.1122114290483,692.0633831995074,stimuli/358_za.png,a,4.9395529218018055,awful,0.25,3.949152542,2.112554662,0.275031191
133,21,1,2,5,16,112,692.6279483304825,702.2313915679697,stimuli/154_xc.png,l,9.591507342876866,harmless,0.25,6.5,0.965506805,0.124646393
133,21,1,2,5,17,113,702.7823465655092,706.3673487552442,stimuli/172_xb.png,l,3.5731131630018353,harmless,0.25,6.482758621,1.127664553,0.14806961
133,21,1,2,5,18,114,706.9221429629251,711.207352394471,stimuli/142_xa.png,l,4.273377906298265,harmless,0.25,6.4,1.076718178,0.139003719
133,21,1,2,5,19,115,711.7655856646597,719.5833838768303,stimuli/324_za.png,a,7.805900520877913,awful,0.25,2.491525424,1.994586478,0.259673041
133,21,1,2,5,20,116,720.140603781445,724.879314975813,stimuli/239_ya.png,a,4.726812715176493,ambig,0.25,5.157894737,1.925296579,0.255011762
133,21,1,2,5,21,117,725.4383170334622,730.5993429075461,stimuli/286_ya.png,l,5.14938024408184,ambig,0.25,5.06779661,1.779814082,0.231712057
133,21,1,2,5,22,118,731.156034271,735.8873632173054,stimuli/101_xa.png,l,4.71951514412649,harmless,0.25,6.508522727,1.13475832,0.060482822
133,21,1,2,5,23,119,736.4378574150614,742.3833255090285,stimuli/188_xa.png,l,5.933544408529997,harmless,0.25,6.655172414,0.806807095,0.105938962
133,21,1,2,5,24,120,742.9375911753159,748.311307631433,stimuli/369_za.png,a,5.361791983246803,awful,0.25,2.948275862,2.055565093,0.26990892
133,21,1,2,6,1,121,757.174604105996,761.7113455981016,stimuli/368_za.png,a,4.524997006636113,awful,0.166,3.590163934,2.02794682,0.259651984
133,21,1,2,6,2,122,762.2632013214752,766.1513029998168,stimuli/136_xc.png,l,3.876296540722251,harmless,0.166,6.559322034,1.038420326,0.135190811
133,21,1,2,6,3,123,766.7166625182144,772.7593239082489,stimuli/256_zb.png,a,6.03061364335008,awful,0.166,3.051724138,2.012438634,0.264246138
133,21,1,2,6,4,124,773.3098161369562,776.9993659080938,stimuli/146_xa.png,l,3.6776981595903635,harmless,0.166,6.442622951,1.162247681,0.148810567
133,21,1,2,6,5,125,777.5594994849525,783.3033342207782,stimuli/251_ya.png,l,5.731986669125035,ambig,0.166,5.655172414,1.792300532,0.235340589
133,21,1,2,6,6,126,783.8454331990797,792.4472951448988,stimuli/303_zb.png,a,8.589957165298983,awful,0.166,3.620689655,2.158846233,0.283470398
133,21,1,2,6,7,127,793.0021653648,795.9593558886554,stimuli/126_xa.png,l,2.945399564690888,harmless,0.166,6.6,0.977717855,0.126222832
133,21,1,2,6,8,128,796.5176285433117,800.5912907274906,stimuli/128_xc.png,l,4.0615880496334285,harmless,0.166,6.627118644,0.98082135,0.127692063
133,21,1,2,6,9,129,801.1422417866997,804.9354352627415,stimuli/114_xc.png,l,3.7812776677310467,harmless,0.166,6.644067797,0.97843492,0.127381377
133,21,1,2,6,10,130,805.4858333622105,808.8792830742896,stimuli/143_xb.png,l,3.3815539898350835,harmless,0.166,6.655172414,0.738697862,0.096995781
133,21,1,2,6,11,131,809.4381535872817,811.7833032172639,stimuli/112_xc.png,l,2.333254695404321,harmless,0.166,6.706896552,0.749470472,0.098410294
133,21,1,2,6,12,132,812.3460346017964,817.7912860801443,stimuli/232_yb.png,a,5.433268322376534,ambig,0.166,5.483333333,1.845669845,0.238274952
133,21,1,2,6,13,133,818.3466029213741,824.8712864269037,stimuli/335_yb.png,l,6.512712165014818,ambig,0.166,5.016949153,2.046793332,0.266469795
133,21,1,2,6,14,134,825.4246383707505,832.871274611447,stimuli/262_ya.png,l,7.434642057167366,ambig,0.166,5.491525424,1.7750462,0.231091332
133,21,1,2,6,15,135,833.4237502480391,837.3672703800257,stimuli/320_za.png,a,3.931732323486358,awful,0.166,1.423728814,1.117314975,0.14546202
133,21,1,2,6,16,136,837.9245340013877,840.4153065853752,stimuli/312_yb.png,a,2.478830387815833,ambig,0.166,4.677966102,2.112692986,0.275049199
133,21,1,2,6,17,137,840.9710598078091,843.0232735369354,stimuli/202_yb.png,a,2.04026444372721,ambig,0.166,5.431034483,1.892849601,0.248543329
133,21,1,2,6,18,138,843.5812724689022,847.92728934763,stimuli/175_xb.png,l,4.333945107413456,harmless,0.166,6.6,1.028409995,0.13276716
133,21,1,2,6,19,139,848.4862862851005,851.6873091815505,stimuli/137_xa.png,l,3.1890814881771803,harmless,0.166,6.355932203,1.094858074,0.14253838
133,21,1,2,6,20,140,852.2366694970988,858.2232807050459,stimuli/325_yb.png,a,5.974784408695996,ambig,0.166,5.131147541,1.811770863,0.231973488
133,21,1,2,6,21,141,858.7839128908236,862.3192928575445,stimuli/125_xc.png,l,3.5234149277675897,harmless,0.166,6.683333333,0.999858747,0.129081209
133,21,1,2,6,22,142,862.877115740208,876.3192660759669,stimuli/275_yb.png,l,13.430284152040258,ambig,0.166,4.836065574,2.138382004,0.27379176
133,21,1,2,6,23,143,876.8769901033957,881.9112913261633,stimuli/110_xa.png,l,5.0224279498215765,harmless,0.166,6.428571429,1.059281795,0.141552484
133,21,1,2,6,24,144,882.4716604228597,886.6232209978625,stimuli/104_xc.png,l,4.139284397708252,harmless,0.166,6.745762712,0.756425814,0.098478253
133,21,1,2,7,1,145,895.4236730542034,901.2153163529001,stimuli/277_yb.png,l,5.780301323859021,ambig,0.083,5.491525424,2.02886822,0.264136144
133,21,1,2,7,2,146,901.763690084219,906.4552795833442,stimuli/317_za.png,a,4.678373605478555,awful,0.083,3.65,2.03215674,0.262350307
133,21,1,2,7,3,147,907.0135802011937,910.7432144286577,stimuli/152_xa.png,l,3.7174651762470603,harmless,0.083,6.576271186,0.968528743,0.126091702
133,21,1,2,7,4,148,911.2931422761176,915.9912097528577,stimuli/206_xa.png,l,4.686176874674857,harmless,0.083,6.325842697,1.136094431,0.060212884
133,21,1,2,7,5,149,916.5420072120614,921.247211964801,stimuli/274_xb.png,l,4.69327161507681,harmless,0.083,6.491525424,1.179901828,0.153610134
133,21,1,2,7,6,150,921.8079567903187,925.5352346375585,stimuli/129_xa.png,l,3.7156920817214996,harmless,0.083,6.770491803,0.642740036,0.082294429
133,21,1,2,7,7,151,926.0894825810101,930.2791824073065,stimuli/185_xa.png,l,4.177899020956829,harmless,0.083,6.5,0.965506805,0.124646393
133,21,1,2,7,8,152,930.8393726979848,935.087243566988,stimuli/177_xb.png,l,4.236003109952435,harmless,0.083,6.482758621,1.063614811,0.139659467
133,21,1,2,7,9,153,935.6367019501049,941.1992242021952,stimuli/238_xb.png,l,5.5506470100954175,harmless,0.083,6.4,1.076718178,0.139003719
133,21,1,2,7,10,154,941.7472052692901,946.9112424892373,stimuli/271_ya.png,l,5.152108808513731,ambig,0.083,5.711864407,1.771915459,0.230683744
133,21,1,2,7,11,155,947.4639658550732,950.7272026226856,stimuli/102_xc.png,l,3.2513438023161143,harmless,0.083,6.66011236,0.937292468,0.049676401
133,21,1,2,7,12,156,951.2780016572215,957.2952465948183,stimuli/245_yb.png,l,6.005350396968424,ambig,0.083,4.949152542,2.096168334,0.272897873
133,21,1,2,7,13,157,957.8542230522726,961.6472282698378,stimuli/225_ya.png,l,3.781051600119099,ambig,0.083,5.85,1.792876677,0.231459384
133,21,1,2,7,14,158,962.1995325835887,965.9352284935303,stimuli/139_xa.png,l,3.72406209516339,harmless,0.083,6.724137931,0.790138861,0.103750315
133,21,1,2,7,15,159,966.4968500202522,970.3511924080085,stimuli/168_xa.png,l,3.8424636009149253,harmless,0.083,6.474576271,1.164946827,0.151663159
133,21,1,2,7,16,160,970.9021241685841,976.0632189656608,stimuli/203_yb.png,a,5.149149056524038,ambig,0.083,6,1.542501327,0.200816568
133,21,1,2,7,17,161,976.6215290359687,981.9832257083617,stimuli/278_xb.png,l,5.349736753385514,harmless,0.083,6.360655738,1.140654591,0.146045855
133,21,1,2,7,18,162,982.5433813405689,987.1912251915783,stimuli/234_xb.png,l,4.635918196523562,harmless,0.083,6.637931034,0.788030542,0.103473479
133,21,1,2,7,19,163,987.7472190540284,996.0391908199526,stimuli/263_ya.png,a,8.280010271584615,ambig,0.083,4.983050847,2.071910042,0.269739712
133,21,1,2,7,20,164,996.5908330786042,999.8391761688981,stimuli/107_xa.png,l,3.236391835846007,harmless,0.083,6.813559322,0.540580029,0.070377525
133,21,1,2,7,21,165,1000.3895309453364,1003.1751751827542,stimuli/252_zb.png,a,2.7738127121701837,awful,0.083,2.711864407,1.983125776,0.258180985
133,21,1,2,7,22,166,1003.7337345574051,1011.2951741272118,stimuli/215_yb.png,a,7.54938473389484,ambig,0.083,5.866666667,1.466769385,0.189359113
133,21,1,2,7,23,167,1011.8639565603808,1016.7751829021145,stimuli/204_xb.png,l,4.898882422829047,harmless,0.083,6.508474576,0.858484658,0.111765183
133,21,1,2,7,24,168,1017.3257731983904,1023.5351680775639,stimuli/237_ya.png,l,6.197470800252631,ambig,0.083,4.305084746,2.019339575,0.26289562
133,21,1,2,8,1,169,1032.3191215344705,1036.7671992513351,stimuli/159_xa.png,l,4.436346622183919,harmless,0.0412,6.389830508,1.174689235,0.152931512
133,21,1,2,8,2,170,1037.3272670558654,1041.087129351683,stimuli/173_yb.png,l,3.7479378229472786,ambig,0.0412,5.796610169,1.242628763,0.161776485
133,21,1,2,8,3,171,1041.6393454438075,1046.6871209233068,stimuli/189_yb.png,l,5.035891966428608,ambig,0.0412,5.983333333,1.455459234,0.187898979
133,21,1,2,8,4,172,1047.2480244687758,1050.18316355953,stimuli/243_ya.png,l,2.9231606607791036,ambig,0.0412,5.830508475,1.652088985,0.215083666
133,21,1,2,8,5,173,1050.7332843914628,1053.8631692624185,stimuli/148_xc.png,l,3.1180127796251327,harmless,0.0412,6.491525424,1.135218061,0.147792803
133,21,1,2,8,6,174,1054.4213466064539,1057.999152049655,stimuli/121_xc.png,l,3.56633743760176,harmless,0.0412,6.508474576,1.006408455,0.131023221
133,21,1,2,8,7,175,1058.5605041857343,1062.0391297738533,stimuli/209_ya.png,l,3.4666444011963904,ambig,0.0412,5.603448276,1.825161903,0.239655499
133,21,1,2,8,8,176,1062.593126049498,1069.2391404863447,stimuli/330_ya.png,a,6.633993077790365,ambig,0.0412,4.796610169,2.049219036,0.266785595
133,21,1,2,8,9,177,1069.797682925593,1073.183141110232,stimuli/373_zb.png,a,3.373435250017792,awful,0.0412,2.327586207,1.858011869,0.243968911
133,21,1,2,8,10,178,1073.7321780782659,1076.1192069202662,stimuli/150_xc.png,l,2.3750216613989323,harmless,0.0412,6.482758621,1.030097582,0.135258439
133,21,1,2,8,11,179,1076.6711729203817,1080.4071334947366,stimuli/160_xb.png,l,3.7239951414521784,harmless,0.0412,6.666666667,0.680644427,0.087870818
133,21,1,2,8,12,180,1080.9687691999134,1088.8471082258038,stimuli/221_xb.png,l,7.866383045213297,harmless,0.0412,6.440677966,1.133672495,0.147591588
133,21,1,2,8,13,181,1089.3967950395308,1094.751140971668,stimuli/135_xa.png,l,5.342375379288569,harmless,0.0412,6.508474576,1.179901828,0.153610134
133,21,1,2,8,14,182,1095.3038359805942,1103.4551531588659,stimuli/253_ya.png,l,8.139376951614395,ambig,0.0412,5.491803279,1.849531029,0.236808182
133,21,1,2,8,15,183,1104.0055485013872,1113.7431309332605,stimuli/261_yb.png,a,9.725678045069799,ambig,0.0412,5.706896552,1.901141123,0.249632059
133,21,1,2,8,16,184,1114.3026434150524,1118.8871087927837,stimuli/264_xa.png,l,4.572516486281529,harmless,0.0412,6.533333333,0.947193297,0.122282129
133,21,1,2,8,17,185,1119.4432271104306,1123.4631092401687,stimuli/231_xb.png,l,4.007907244376838,harmless,0.0412,6.62295082,1.05141071,0.134619347
133,21,1,2,8,18,186,1124.0213468428701,1129.2071066345088,stimuli/235_ya.png,l,5.173868007957935,ambig,0.0412,5.694915254,1.567495667,0.204070554
133,21,1,2,8,19,187,1129.7543815358076,1133.439078337513,stimuli/216_xa.png,l,3.6727534241508693,harmless,0.0412,6.603448276,0.877389573,0.115206895
133,21,1,2,8,20,188,1133.9888226527255,1138.4550889618695,stimuli/157_xc.png,l,4.454332383815199,harmless,0.0412,6.603448276,0.877389573,0.115206895
133,21,1,2,8,21,189,1139.0057662981562,1145.775109646609,stimuli/272_xb.png,l,6.757445263210684,harmless,0.0412,6.355932203,1.029943284,0.134087194
133,21,1,2,8,22,190,1146.3341640855651,1151.2791548380628,stimuli/140_xb.png,l,4.933158045634627,harmless,0.0412,6.724137931,0.790138861,0.103750315
133,21,1,2,8,23,191,1151.8334654029459,1158.3510707095265,stimuli/132_xc.png,l,6.505722187459469,harmless,0.0412,6.627118644,0.692280217,0.090127208
133,21,1,2,8,24,192,1158.911204680102,1164.2710790275596,stimuli/240_xa.png,l,5.347856926731765,harmless,0.0412,6.482758621,1.096107616,0.143925981
133,21,1,2,9,1,193,1172.800567846978,1179.1511234061327,stimuli/119_xc.png,l,6.338932772167027,harmless,0.0412,6.694915254,0.914523379,0.119060803
133,21,1,2,9,2,194,1179.7129087727517,1183.463069068035,stimuli/323_yb.png,a,3.7385772867128253,ambig,0.0412,4.603448276,1.955107169,0.256718148
133,21,1,2,9,3,195,1184.0109233167022,1190.7831122020725,stimuli/210_yb.png,l,6.760609027696773,ambig,0.0412,5.557377049,1.76564049,0.226067099
133,21,1,2,9,4,196,1191.3384353446309,1196.8630881300196,stimuli/153_xb.png,l,5.512674749363214,harmless,0.0412,6.633333333,0.973664521,0.125699549
133,21,1,2,9,5,197,1197.4171761719044,1201.039064789191,stimuli/190_xc.png,l,3.6098570181056857,harmless,0.0412,6.517241379,1.046990328,0.137476565
133,21,1,2,9,6,198,1201.590668451041,1206.2070727637038,stimuli/109_xb.png,l,4.604681094875559,harmless,0.0412,6.644067797,0.97843492,0.127381377
133,21,1,2,9,7,199,1206.7547111848835,1210.5110142950434,stimuli/279_ya.png,l,3.7443624895531684,ambig,0.0412,5.31147541,1.970964092,0.252356093
133,21,1,2,9,8,200,1211.0672204403672,1214.559012297541,stimuli/196_xb.png,l,3.4796933045145124,harmless,0.0412,6.594366197,0.982313556,0.05213579
133,21,1,2,9,9,201,1215.1156410393305,1219.535025505349,stimuli/296_yb.png,a,4.4075990207493305,ambig,0.0412,4.229508197,2.052587332,0.262806878
133,21,1,2,9,10,202,1220.0848611928523,1224.519034967292,stimuli/282_xc.png,l,4.4220511969178915,harmless,0.0412,6.55,0.998728005,0.128935231
133,21,1,2,9,11,203,1225.0677899415605,1228.2310694018379,stimuli/122_xa.png,l,3.1512805505190045,harmless,0.0412,6.457627119,1.039264227,0.135300678
133,21,1,2,9,12,204,1228.7867887536995,1234.039028949337,stimuli/212_ya.png,l,5.240405125776306,ambig,0.0412,5.677966102,1.490668422,0.194068498
133,21,1,2,9,13,205,1234.599082181463,1238.5590461681131,stimuli/180_xc.png,l,3.948030455270782,harmless,0.0412,6.672131148,0.723908638,0.092687003
133,21,1,2,9,14,206,1239.1154208795633,1243.9510268350132,stimuli/327_zb.png,a,4.823625162709504,awful,0.0412,2.502808989,1.906990248,0.101070281
133,21,1,2,9,15,207,1244.5049352832139,1250.2550175969955,stimuli/134_xc.png,l,5.738165323855355,harmless,0.0412,6.516666667,0.965360505,0.124627505
133,21,1,2,9,16,208,1250.818978568539,1253.5590449867304,stimuli/179_xb.png,l,2.7281710898969322,harmless,0.0412,6.704918033,0.882123617,0.112944356
133,21,1,2,9,17,209,1254.1154937408864,1259.6790372356772,stimuli/205_yb.png,a,5.551594209391624,ambig,0.0412,5.847457627,1.52918233,0.199082582
133,21,1,2,9,18,210,1260.239024301758,1262.6950348631945,stimuli/197_xa.png,l,2.444091996178031,harmless,0.0412,6.779661017,0.55918033,0.072799078
133,21,1,2,9,19,211,1263.2561920455191,1269.7270163334906,stimuli/258_ya.png,l,6.4590226949658245,ambig,0.0412,5.627118644,1.78014243,0.231754804
133,21,1,2,9,20,212,1270.2877418608405,1276.199010737706,stimuli/108_xb.png,l,5.899380637798458,harmless,0.0412,6.568965517,1.077880782,0.141532681
133,21,1,2,9,21,213,1276.7550317754503,1283.7670283222105,stimuli/315_yb.png,a,7.000025206012651,ambig,0.0412,5.050847458,1.915667965,0.249398726
133,21,1,2,9,22,214,1284.316496157553,1286.5749933833722,stimuli/113_xb.png,l,2.2466318297665566,harmless,0.0412,6.733333333,0.660422737,0.085260209
133,21,1,2,9,23,215,1287.1299660031218,1290.9349650107324,stimuli/255_xb.png,l,3.7930390883702785,harmless,0.0412,6.770491803,0.642740036,0.082294429
133,21,1,2,9,24,216,1291.490069175139,1298.374981095316,stimuli/170_xc.png,l,6.873055188683793,harmless,0.0412,6.583333333,1.062323432,0.137145365
133,21,1,2,10,1,217,1308.8875038202386,1312.4549853804056,stimuli/111_xa.png,l,3.555778034729883,harmless,0.0412,6.590163934,0.863655973,0.110579816
133,21,1,2,10,2,218,1313.0041456222534,1316.894963262137,stimuli/161_xc.png,l,3.878862447105348,harmless,0.0412,6.796610169,0.609682252,0.079373868
133,21,1,2,10,3,219,1317.4596579684876,1321.230959125096,stimuli/285_yb.png,a,3.759410948259756,ambig,0.0412,4.120689655,2.119893958,0.278355714
133,21,1,2,10,4,220,1321.7885724818334,1325.1349867510144,stimuli/131_xb.png,l,3.3344575008377433,harmless,0.0412,6.525423729,1.119666394,0.145768149
133,21,1,2,10,5,221,1325.6931573997717,1332.606991789071,stimuli/267_ya.png,a,6.902072180993855,ambig,0.0412,5.103448276,1.898195405,0.249245267
133,21,1,2,10,6,222,1333.1621467596851,1337.8869996974245,stimuli/149_xa.png,l,4.71306906780228,harmless,0.0412,6.721311475,0.933294301,0.11949609
133,21,1,2,10,7,223,1338.4424843171146,1343.391001172131,stimuli/151_xa.png,l,4.936618769774213,harmless,0.0412,6.610169492,0.947172729,0.123311386
133,21,1,2,10,8,224,1343.941027480876,1346.7269958534744,stimuli/247_ya.png,a,2.774217979516834,ambig,0.0412,4.65,2.081598147,0.268733165
133,21,1,2,10,9,225,1347.2857805080712,1351.014953542035,stimuli/155_xb.png,l,3.717280856333673,harmless,0.0412,6.655737705,0.892286312,0.114245555
133,21,1,2,10,10,226,1351.567361437017,1356.254930163268,stimuli/147_ya.png,l,4.67553358245641,ambig,0.0412,5.883333333,1.766847875,0.22809908
133,21,1,2,10,11,227,1356.8019455200993,1367.463002114091,stimuli/208_xb.png,l,10.649247517809272,harmless,0.0412,6.216666667,1.165778516,0.150501359
133,21,1,2,10,12,228,1368.0210164061282,1372.1909294133075,stimuli/164_xb.png,l,4.1581251989118755,harmless,0.0412,6.830508475,0.460604639,0.059965616
133,21,1,2,10,13,229,1372.7395615077112,1377.254939221777,stimuli/220_yb.png,l,4.503535161027685,ambig,0.0412,4.75,2.096203186,0.270618668
133,21,1,2,10,14,230,1377.8020156247076,1382.0469531291164,stimuli/187_xc.png,l,4.232942139264196,harmless,0.0412,6.224137931,1.185335891,0.155642228
133,21,1,2,10,15,231,1382.6007453927305,1389.1429400756024,stimuli/176_xb.png,l,6.530203650007024,harmless,0.0412,6.796610169,0.517942249,0.067430337
133,21,1,2,10,16,232,1389.6934980764054,1393.7109084292315,stimuli/186_xa.png,l,4.005495332181454,harmless,0.0412,6.65,0.879618561,0.113558268
133,21,1,2,10,17,233,1394.2692779700737,1400.4789579939097,stimuli/241_yb.png,a,6.197839046129957,ambig,0.0412,5.508474576,1.442852555,0.187843403
133,21,1,2,10,18,234,1401.0350861577317,1407.4469300499186,stimuli/183_xb.png,l,6.399971406906843,harmless,0.0412,6.448275862,1.095003225,0.143780967
133,21,1,2,10,19,235,1408.0046276894864,1413.062925550621,stimuli/352_zb.png,a,5.046458458760753,awful,0.0412,2.93442623,2.135952968,0.273480754
133,21,1,2,10,20,236,1413.614388609305,1417.502939665923,stimuli/171_xa.png,l,3.8765879867132753,harmless,0.0412,6.465517241,1.046556882,0.137419651
133,21,1,2,10,21,237,1418.0535764361266,1424.1750483643264,stimuli/182_xb.png,l,6.109925941331312,harmless,0.0412,6.542372881,0.988241802,0.128658124
133,21,1,2,10,22,238,1424.72671622294,1429.5749335188884,stimuli/254_ya.png,a,4.836278250673786,ambig,0.0412,5.983606557,1.627798137,0.208418195
133,21,1,2,10,23,239,1430.1320525989868,1435.4149663024582,stimuli/259_xc.png,l,5.270917156711221,harmless,0.0412,6.568965517,0.993170874,0.130409725
133,21,1,2,10,24,240,1435.9757260943297,1439.9749462793116,stimuli/198_yb.png,l,3.9872712935321033,ambig,0.0412,5.101694915,1.83542643,0.238952168
