id,age,condition,counterbalance,block,trialinblock,trial,tstart,tend,trialstim,response,RT,trialtype,ethicfreq,norm_mean,norm_sd,norm_se
033,75,0,2,0,0,practice,4.7262292355299e-06,15.663805244723335,stimuli/prac_217_1.png,l,15.649179382482544,harmless,NA,NA,NA,NA
033,75,0,2,1,1,1,5.6641904262360185,15.151370741426945,stimuli/320_za.png,a,9.475341306766495,awful,0.333,1.423728814,1.117314975,0.14546202
033,75,0,2,1,2,2,15.717397040920332,23.687362350989133,stimuli/102_xc.png,l,7.958377969218418,harmless,0.333,6.66011236,0.937292468,0.049676401
033,75,0,2,1,3,3,24.315166927641258,41.78340286039747,stimuli/147_ya.png,l,17.456422524293885,ambig,0.333,5.883333333,1.766847875,0.22809908
033,75,0,2,1,4,4,42.40739540243521,52.87943470524624,stimuli/304_ya.png,a,10.460410607978702,ambig,0.333,4.034482759,2.017167697,0.264867095
033,75,0,2,1,5,5,53.49592054402456,65.30338108865544,stimuli/180_xc.png,l,11.795421068556607,harmless,0.333,6.672131148,0.723908638,0.092687003
033,75,0,2,1,6,6,65.96529075293802,80.03936765692197,stimuli/201_yb.png,l,14.061943298904225,ambig,0.333,5.898305085,1.626238682,0.211718243
033,75,0,2,1,7,7,80.66152251395397,100.39934243494645,stimuli/367_zb.png,a,19.726149084977806,awful,0.333,3.413793103,2.086165649,0.27392697
033,75,0,2,1,8,8,101.0214976859279,113.74332234240137,stimuli/349_za.png,a,12.710320023354143,awful,0.333,3.288135593,2.101320172,0.273568585
033,75,0,2,1,9,9,114.32620918587781,120.9433381750714,stimuli/171_xa.png,l,6.605080454843119,harmless,0.333,6.465517241,1.046556882,0.137419651
033,75,0,2,1,10,10,121.5316805720795,128.87135771289468,stimuli/163_xa.png,l,7.32738836039789,harmless,0.333,6.627118644,0.963082427,0.125382652
033,75,0,2,1,11,11,129.46134874899872,138.67133636656217,stimuli/354_zb.png,a,9.198567661223933,awful,0.333,2,1.701925887,0.221571878
033,75,0,2,1,12,12,139.3309735399671,149.57530846027657,stimuli/311_za.png,a,10.232463616644964,awful,0.333,3.116666667,1.975199339,0.254997138
033,75,0,2,1,13,13,150.15251328842714,162.9113318924792,stimuli/130_xc.png,l,12.74702016171068,harmless,0.333,6.644067797,0.960651931,0.125066229
033,75,0,2,1,14,14,163.54842768842354,178.223332692869,stimuli/340_za.png,a,14.662318870425224,awful,0.333,2.508474576,1.832398855,0.238558011
033,75,0,2,1,15,15,178.8606305315625,185.9432625565678,stimuli/373_zb.png,a,7.0708387026097625,awful,0.333,2.327586207,1.858011869,0.243968911
033,75,0,2,1,16,16,186.54138257261366,193.66332396515645,stimuli/205_yb.png,l,7.110220931936055,ambig,0.333,5.847457627,1.52918233,0.199082582
033,75,0,2,1,17,17,194.22729753958993,201.59930391679518,stimuli/337_zb.png,a,7.3603170302230865,awful,0.333,3.033333333,2.20143764,0.284204377
033,75,0,2,1,18,18,202.2212953278795,207.4152829546947,stimuli/184_xb.png,l,5.182060790946707,harmless,0.333,6.508474576,1.194425,0.15550089
033,75,0,2,1,19,19,208.04612644668669,224.13529631402344,stimuli/275_yb.png,l,16.077132360544056,ambig,0.333,4.836065574,2.138382004,0.27379176
033,75,0,2,1,20,20,224.73171649081632,230.78325359267183,stimuli/270_yb.png,a,6.039670130237937,ambig,0.333,5.534482759,1.912246013,0.251090203
033,75,0,2,1,21,21,231.36365172360092,246.02326211566105,stimuli/225_ya.png,a,14.647880085045472,ambig,0.333,5.85,1.792876677,0.231459384
033,75,0,2,1,22,22,246.6394667485729,256.6152641288936,stimuli/219_ya.png,l,9.964019418228418,ambig,0.333,5.271186441,1.998538332,0.260187529
033,75,0,2,1,23,23,257.2438658499159,264.75124967307784,stimuli/221_xb.png,l,7.495514488779008,harmless,0.333,6.440677966,1.133672495,0.147591588
033,75,0,2,1,24,24,265.32904251338914,272.8152496353723,stimuli/125_xc.png,l,7.474951005540788,harmless,0.333,6.683333333,0.999858747,0.129081209
033,75,0,2,2,1,25,282.81144547765143,288.8312417489942,stimuli/179_xb.png,l,6.008296364219859,harmless,0.333,6.704918033,0.882123617,0.112944356
033,75,0,2,2,2,26,289.40871518012136,304.95921055949293,stimuli/250_yb.png,l,15.538640617160127,ambig,0.333,5.950819672,1.585625318,0.203018519
033,75,0,2,2,3,27,305.5301567823626,317.447194714332,stimuli/258_ya.png,l,11.904935440747067,ambig,0.333,5.627118644,1.78014243,0.231754804
033,75,0,2,2,4,28,318.0697107282467,332.9912006945815,stimuli/366_za.png,l,14.909897899487987,awful,0.333,3.689655172,2.036568291,0.267414518
033,75,0,2,2,5,29,333.5661121578887,347.7112014507875,stimuli/293_zb.png,a,14.132999798515812,awful,0.333,3.677966102,2.169066842,0.28238845
033,75,0,2,2,6,30,348.31091969343834,354.4792888246011,stimuli/209_ya.png,l,6.1565876244567335,ambig,0.333,5.603448276,1.825161903,0.239655499
033,75,0,2,2,7,31,355.0961543309968,360.6314035409596,stimuli/297_za.png,a,5.523458250798285,awful,0.333,1.898305085,1.446695584,0.188343723
033,75,0,2,2,8,32,361.23520202725194,368.22314679739065,stimuli/177_xb.png,l,6.976441318402067,harmless,0.333,6.482758621,1.063614811,0.139659467
033,75,0,2,2,9,33,368.8313394228462,374.12716221413575,stimuli/302_za.png,a,5.284096029121429,awful,0.333,3.137931034,2.188071937,0.287307921
033,75,0,2,2,10,34,374.7568615837954,380.3031739254948,stimuli/322_za.png,a,5.534190552076325,awful,0.333,2.406779661,1.975004531,0.257123689
033,75,0,2,2,11,35,380.87355104088783,393.43118093931116,stimuli/285_yb.png,a,12.545338361058384,ambig,0.333,4.120689655,2.119893958,0.278355714
033,75,0,2,2,12,36,394.0448503859807,407.51915351487696,stimuli/187_xc.png,a,13.462932797148824,harmless,0.333,6.224137931,1.185335891,0.155642228
033,75,0,2,2,13,37,408.09682308137417,416.35913391713984,stimuli/324_za.png,a,8.250501365866512,awful,0.333,2.491525424,1.994586478,0.259673041
033,75,0,2,2,14,38,416.9431144706905,426.89517672662623,stimuli/144_xa.png,l,9.940132663119584,harmless,0.333,6.542372881,1.00553698,0.130909764
033,75,0,2,2,15,39,427.4780040993355,432.35117862327024,stimuli/129_xa.png,l,4.861394986277446,harmless,0.333,6.770491803,0.642740036,0.082294429
033,75,0,2,2,16,40,432.9511556227226,447.1751747888047,stimuli/336_ya.png,a,14.212423160672188,ambig,0.333,5.033898305,1.884291705,0.245313885
033,75,0,2,2,17,41,447.7921832613647,452.62313080742024,stimuli/178_xa.png,l,4.819033707026392,harmless,0.333,6.483333333,1.112207557,0.143585378
033,75,0,2,2,18,42,453.216333263088,465.27114046760835,stimuli/253_ya.png,l,12.043259248370305,ambig,0.333,5.491803279,1.849531029,0.236808182
033,75,0,2,2,19,43,465.87768878624775,470.8391127598006,stimuli/292_zb.png,a,4.9497637713793665,awful,0.333,2.396551724,1.955107169,0.256718148
033,75,0,2,2,20,44,471.42528742877766,475.0951905900147,stimuli/298_za.png,a,3.658086995827034,awful,0.333,2.881355932,2.026418156,0.263817173
033,75,0,2,2,21,45,475.6970111820847,489.6711032097228,stimuli/265_yb.png,l,13.962088391650468,ambig,0.333,5.627118644,1.856008928,0.241631781
033,75,0,2,2,22,46,490.2524414509535,498.1511100153439,stimuli/272_xb.png,l,7.887042626738548,harmless,0.333,6.355932203,1.029943284,0.134087194
033,75,0,2,2,23,47,498.7487227576785,509.69524596468545,stimuli/175_xb.png,l,10.934666081564501,harmless,0.333,6.6,1.028409995,0.13276716
033,75,0,2,2,24,48,510.30817064875737,516.327093370026,stimuli/217_yb.png,a,6.007175872800872,ambig,0.333,5.169491525,2.001314588,0.260548967
033,75,0,2,3,1,49,528.129267714452,534.6313334363513,stimuli/231_xb.png,l,6.49036810407415,harmless,0.333,6.62295082,1.05141071,0.134619347
033,75,0,2,3,2,50,535.2354599963874,549.5190578103065,stimuli/234_xb.png,a,14.271941156126559,harmless,0.333,6.637931034,0.788030542,0.103473479
033,75,0,2,3,3,51,550.1188398560043,556.5030668783002,stimuli/136_xc.png,l,6.372594783082604,harmless,0.333,6.559322034,1.038420326,0.135190811
033,75,0,2,3,4,52,557.0775352651253,562.2550715541001,stimuli/351_zb.png,a,5.1657476930413395,awful,0.333,3.06779661,2.033040926,0.264679384
033,75,0,2,3,5,53,562.8692092834972,571.3270740713924,stimuli/347_zb.png,a,8.446388511685655,awful,0.333,3.796610169,2.147810923,0.279621165
033,75,0,2,3,6,54,571.9339579467196,577.439056676114,stimuli/101_xa.png,l,5.4934424655511975,harmless,0.333,6.508522727,1.13475832,0.060482822
033,75,0,2,3,7,55,578.0408973544836,590.4390424976591,stimuli/281_ya.png,l,12.386764965485781,ambig,0.333,5.881355932,1.543448286,0.200939852
033,75,0,2,3,8,56,591.0189699826296,596.375033870805,stimuli/360_za.png,a,5.344248510431498,awful,0.333,3.2,2.207844259,0.285031468
033,75,0,2,3,9,57,596.961056121625,615.9831433945801,stimuli/212_ya.png,l,19.01030773529783,ambig,0.333,5.677966102,1.490668422,0.194068498
033,75,0,2,3,10,58,616.5562526192516,623.5430190023035,stimuli/289_yb.png,a,6.9748639655299485,ambig,0.333,5.305084746,1.714584873,0.223219937
033,75,0,2,3,11,59,624.1549523761496,628.1270495741628,stimuli/290_zb.png,a,3.960466140182689,awful,0.333,2.586206897,2.026443456,0.266085062
033,75,0,2,3,12,60,628.695134506328,635.2950130442623,stimuli/338_zb.png,a,6.588242754107341,awful,0.333,3.310344828,2.137443107,0.28066003
033,75,0,2,3,13,61,635.8663503560238,643.679230220383,stimuli/134_xc.png,l,7.8009077361784875,harmless,0.333,6.516666667,0.965360505,0.124627505
033,75,0,2,3,14,62,644.2920272983611,651.7350082551129,stimuli/255_xb.png,l,7.43191821873188,harmless,0.333,6.770491803,0.642740036,0.082294429
033,75,0,2,3,15,63,652.3694865510333,657.2550270494539,stimuli/329_zb.png,a,4.873743237694725,awful,0.333,2.406779661,1.992387617,0.259386774
033,75,0,2,3,16,64,657.8779959860258,664.1829666364938,stimuli/169_xc.png,l,6.293168663512915,harmless,0.333,6.603448276,0.916508538,0.120343467
033,75,0,2,3,17,65,664.840962260263,669.5749736912549,stimuli/358_za.png,a,4.722223622724414,awful,0.333,3.949152542,2.112554662,0.275031191
033,75,0,2,3,18,66,670.1970375699457,678.4310048900079,stimuli/185_xa.png,l,8.221879794960842,harmless,0.333,6.5,0.965506805,0.124646393
033,75,0,2,3,19,67,679.0555342442822,691.8310361613985,stimuli/220_yb.png,l,12.763859438011423,ambig,0.333,4.75,2.096203186,0.270618668
033,75,0,2,3,20,68,692.3991652042605,699.4469497422688,stimuli/315_yb.png,a,7.035741911269724,ambig,0.333,5.050847458,1.915667965,0.249398726
033,75,0,2,3,21,69,700.0308129296172,716.6149793784134,stimuli/203_yb.png,l,16.572518455795944,ambig,0.333,6,1.542501327,0.200816568
033,75,0,2,3,22,70,717.18656756985,728.8069898986723,stimuli/300_za.png,a,11.608508095843717,awful,0.333,3.75,2.12032137,0.273732312
033,75,0,2,3,23,71,729.3696346371435,739.2550235048402,stimuli/224_yb.png,l,9.873530954821035,ambig,0.333,5.881355932,1.609077116,0.209483997
033,75,0,2,3,24,72,739.8201313556638,754.2790433799382,stimuli/223_yb.png,l,14.446877668378875,ambig,0.333,5.542372881,1.77455224,0.231027024
033,75,0,2,4,1,73,769.1339954410214,780.910932138795,stimuli/218_yb.png,l,11.765453726286069,ambig,0.333,5.850282486,1.552723069,0.0825263
033,75,0,2,4,2,74,781.5118866637349,786.7669164701365,stimuli/327_zb.png,a,5.243364877765998,awful,0.333,2.502808989,1.906990248,0.101070281
033,75,0,2,4,3,75,787.3824645618442,792.8549567873124,stimuli/108_xb.png,l,5.461028158431873,harmless,0.333,6.568965517,1.077880782,0.141532681
033,75,0,2,4,4,76,793.4646873809397,798.7909052313771,stimuli/305_zb.png,a,5.3145568603649735,awful,0.333,2.75,2.12830003,0.274762352
033,75,0,2,4,5,77,799.3769530819263,810.8949601114728,stimuli/264_xa.png,l,11.50612745503895,harmless,0.333,6.533333333,0.947193297,0.122282129
033,75,0,2,4,6,78,811.4919742078055,823.0229564912152,stimuli/133_xa.png,l,11.519295299425721,harmless,0.333,6.568965517,1.186356193,0.1557762
033,75,0,2,4,7,79,823.614107797388,830.878952243831,stimuli/328_za.png,a,7.252702176803723,awful,0.333,2.706896552,1.955725922,0.256799395
033,75,0,2,4,8,80,831.5052034924738,838.2229034006596,stimuli/245_yb.png,a,6.705221294192597,ambig,0.333,4.949152542,2.096168334,0.272897873
033,75,0,2,4,9,81,838.8449349841103,853.4789036433212,stimuli/196_xb.png,l,14.62263141060248,harmless,0.333,6.594366197,0.982313556,0.05213579
033,75,0,2,4,10,82,854.0539730389137,861.3988761212677,stimuli/237_ya.png,l,7.332958523184061,ambig,0.333,4.305084746,2.019339575,0.26289562
033,75,0,2,4,11,83,862.0040759115946,867.1749002782162,stimuli/135_xa.png,l,5.1594201643019915,harmless,0.333,6.508474576,1.179901828,0.153610134
033,75,0,2,4,12,84,867.7731924047694,872.7828766822349,stimuli/365_zb.png,a,4.997259226161987,awful,0.333,2.966101695,2.165291266,0.281896912
033,75,0,2,4,13,85,873.3488112154882,877.6468887748197,stimuli/321_zb.png,a,4.286155843175948,awful,0.333,2.918032787,2.177881861,0.278849198
033,75,0,2,4,14,86,878.2730750388,887.2070247146767,stimuli/312_yb.png,a,8.921827098354697,ambig,0.333,4.677966102,2.112692986,0.275049199
033,75,0,2,4,15,87,887.7999416321982,892.8948474714998,stimuli/287_ya.png,a,5.083094006404281,ambig,0.333,5.950819672,1.407435369,0.180203633
033,75,0,2,4,16,88,893.4742030922789,899.0548556477297,stimuli/145_xa.png,l,5.568908070214093,harmless,0.333,6.661016949,0.822321556,0.107057148
033,75,0,2,4,17,89,899.6356035138015,904.1189001144376,stimuli/314_zb.png,a,4.471477284561843,awful,0.333,1.833333333,1.451669602,0.18740974
033,75,0,2,4,18,90,904.6901889832225,912.0308511327021,stimuli/274_xb.png,l,7.328690021298826,harmless,0.333,6.491525424,1.179901828,0.153610134
033,75,0,2,4,19,91,912.6494212041143,922.062852689065,stimuli/191_ya.png,a,9.401733473408967,ambig,0.333,5.517241379,2.062542966,0.270825159
033,75,0,2,4,20,92,922.6372663313523,931.7348904951941,stimuli/286_ya.png,a,9.085637463256717,ambig,0.333,5.06779661,1.779814082,0.231712057
033,75,0,2,4,21,93,932.3028005596716,939.1668354952708,stimuli/291_za.png,a,6.850588248111308,awful,0.333,2.593220339,1.830005126,0.238246374
033,75,0,2,4,22,94,939.7222185025457,944.1748305675574,stimuli/345_zb.png,a,4.440620638197288,awful,0.333,3.694915254,2.191317013,0.285285176
033,75,0,2,4,23,95,944.7860609265044,956.2788657553028,stimuli/127_xb.png,l,11.481230091070756,harmless,0.333,6.423728814,1.162686987,0.151368953
033,75,0,2,4,24,96,956.8530761729926,961.4468363146298,stimuli/261_yb.png,a,4.581931767053902,ambig,0.333,5.706896552,1.901141123,0.249632059
033,75,0,2,5,1,97,972.8057268348057,981.7668101317249,stimuli/222_ya.png,l,8.949443180579692,ambig,0.333,5.931034483,1.543089507,0.202617579
033,75,0,2,5,2,98,982.3892391056288,992.046840883093,stimuli/236_yb.png,l,9.64600734738633,ambig,0.333,5.93442623,1.49297078,0.19115532
033,75,0,2,5,3,99,992.605508565437,998.526858322788,stimuli/356_za.png,a,5.909401259850711,awful,0.333,3.033333333,2.178217796,0.281206708
033,75,0,2,5,4,100,999.1406589201652,1003.8788025823887,stimuli/114_xc.png,l,4.725978155620396,harmless,0.333,6.644067797,0.97843492,0.127381377
033,75,0,2,5,5,101,1004.4445527959615,1035.1827811351977,stimuli/371_zb.png,l,30.726695349207148,awful,0.333,3.131147541,2.085468851,0.267016925
033,75,0,2,5,6,102,1035.7736634446774,1040.1990182208829,stimuli/132_xc.png,l,4.413676063297316,harmless,0.333,6.627118644,0.692280217,0.090127208
033,75,0,2,5,7,103,1040.7767043288331,1046.4707986880094,stimuli/121_xc.png,l,5.68226559064351,harmless,0.333,6.508474576,1.006408455,0.131023221
033,75,0,2,5,8,104,1047.0660326010548,1051.3108361980412,stimuli/372_zb.png,a,4.232922447146848,awful,0.333,2.796610169,2.082601664,0.271131643
033,75,0,2,5,9,105,1051.932193910936,1058.9827483671252,stimuli/207_yb.png,a,7.0385236449074,ambig,0.333,5.655737705,1.662179753,0.212820309
033,75,0,2,5,10,106,1059.5576503784396,1068.9028074913658,stimuli/188_xa.png,l,9.333262966247275,harmless,0.333,6.655172414,0.806807095,0.105938962
033,75,0,2,5,11,107,1069.5687883410137,1075.646813944215,stimuli/303_zb.png,a,6.066309474874288,awful,0.333,3.620689655,2.158846233,0.283470398
033,75,0,2,5,12,108,1076.2134802432265,1090.1907498196233,stimuli/172_xb.png,l,13.965300992829725,harmless,0.333,6.482758621,1.127664553,0.14806961
033,75,0,2,5,13,109,1090.7616436609533,1103.7347707659937,stimuli/342_yb.png,l,12.961017130641267,ambig,0.333,4.916666667,2.085394461,0.269223267
033,75,0,2,5,14,110,1104.3436967323069,1112.2147937193513,stimuli/154_xc.png,l,7.859360772417858,harmless,0.333,6.5,0.965506805,0.124646393
033,75,0,2,5,15,111,1112.827441135887,1120.2867158921435,stimuli/170_xc.png,l,7.447853618301451,harmless,0.333,6.583333333,1.062323432,0.137145365
033,75,0,2,5,16,112,1120.8891083486378,1125.3988304352388,stimuli/295_za.png,a,4.497622746042907,awful,0.333,2.3,1.825432384,0.235662307
033,75,0,2,5,17,113,1126.011533777928,1138.6387649150565,stimuli/226_yb.png,l,12.61549374111928,ambig,0.333,5.683333333,1.712285287,0.22105508
033,75,0,2,5,18,114,1139.1989745041355,1149.046780230943,stimuli/173_yb.png,l,9.835782398702577,ambig,0.333,5.796610169,1.242628763,0.161776485
033,75,0,2,5,19,115,1149.6717865325045,1154.1427195218857,stimuli/229_za.png,a,4.459432294592261,awful,0.333,3.406779661,2.043649913,0.266060557
033,75,0,2,5,20,116,1154.7036805690732,1160.4707498513162,stimuli/307_za.png,a,5.755541018443182,awful,0.333,2.93220339,2.172432347,0.282826601
033,75,0,2,5,21,117,1161.0691321685445,1170.4707569405437,stimuli/233_yb.png,a,9.390136286616325,ambig,0.333,5.318309859,1.922973646,0.102060844
033,75,0,2,5,22,118,1171.207540258998,1178.3667717711069,stimuli/197_xa.png,l,7.147485845256597,harmless,0.333,6.779661017,0.55918033,0.072799078
033,75,0,2,5,23,119,1178.9889219019096,1184.3347028668504,stimuli/252_zb.png,a,5.334096737904474,awful,0.333,2.711864407,1.983125776,0.258180985
033,75,0,2,5,24,120,1184.9567600502633,1189.1026902040467,stimuli/230_yb.png,a,4.134063970064744,ambig,0.333,4.98245614,1.875511626,0.248417583
033,75,0,2,6,1,121,1201.8760732302908,1210.0626825476065,stimuli/216_xa.png,l,8.174864438129589,harmless,0.333,6.603448276,0.877389573,0.115206895
033,75,0,2,6,2,122,1210.7276642101351,1223.3026745289098,stimuli/189_yb.png,l,12.563350116368383,ambig,0.333,5.983333333,1.455459234,0.187898979
033,75,0,2,6,3,123,1223.911787572084,1230.7986974727828,stimuli/200_ya.png,l,6.874531717039645,ambig,0.333,5.862068966,1.444266048,0.189641423
033,75,0,2,6,4,124,1231.431740988046,1242.398698496865,stimuli/168_xa.png,a,10.955248863436282,harmless,0.333,6.474576271,1.164946827,0.151663159
033,75,0,2,6,5,125,1242.9954601381905,1246.2947022998706,stimuli/192_za.png,a,3.2871703903656453,awful,0.333,2.68852459,2.093967396,0.268105052
033,75,0,2,6,6,126,1246.884215994738,1252.6066775000654,stimuli/110_xa.png,l,5.7106796046718955,harmless,0.333,6.428571429,1.059281795,0.141552484
033,75,0,2,6,7,127,1253.2367317248136,1294.0226678021718,stimuli/155_xb.png,l,40.774417659500614,harmless,0.333,6.655737705,0.892286312,0.114245555
033,75,0,2,6,8,128,1294.6595150812063,1299.4947197078727,stimuli/343_zb.png,a,4.822974923066795,awful,0.333,3.103448276,2.141401862,0.28117984
033,75,0,2,6,9,129,1300.0875547053292,1311.3666225033812,stimuli/318_za.png,a,11.266954279039055,awful,0.333,3.06557377,2.197489875,0.281359747
033,75,0,2,6,10,130,1312.0061916518025,1331.5746314390562,stimuli/335_yb.png,a,19.556533431168646,ambig,0.333,5.016949153,2.046793332,0.266469795
033,75,0,2,6,11,131,1332.1378228354733,1337.2546135112643,stimuli/256_zb.png,a,5.104805944254622,awful,0.333,3.051724138,2.012438634,0.264246138
033,75,0,2,6,12,132,1337.8786029026378,1349.0706228753552,stimuli/131_xb.png,l,11.180388915119693,harmless,0.333,6.525423729,1.119666394,0.145768149
033,75,0,2,6,13,133,1349.6389244226739,1356.2228088777047,stimuli/284_ya.png,l,6.571938320528716,ambig,0.333,5.948275862,1.431750417,0.18799804
033,75,0,2,6,14,134,1356.8377630498726,1362.9746024520136,stimuli/271_ya.png,a,6.125693956622854,ambig,0.333,5.711864407,1.771915459,0.230683744
033,75,0,2,6,15,135,1363.6158564731013,1370.4305838688742,stimuli/138_xc.png,l,6.80184981552884,harmless,0.333,6.661016949,0.70978796,0.092406522
033,75,0,2,6,16,136,1371.0559028838761,1377.7105815371033,stimuli/119_xc.png,l,6.642962918616831,harmless,0.333,6.694915254,0.914523379,0.119060803
033,75,0,2,6,17,137,1378.283282343531,1392.62255382305,stimuli/309_ya.png,a,14.327397024957463,ambig,0.333,4.706896552,1.946734744,0.255618795
033,75,0,2,6,18,138,1393.2225804470945,1396.5665694130585,stimuli/346_zb.png,a,3.3323728744871914,awful,0.333,1.288135593,0.983499162,0.128040685
033,75,0,2,6,19,139,1397.1788115622476,1401.5105995754711,stimuli/215_yb.png,l,4.3201313556637615,ambig,0.333,5.866666667,1.466769385,0.189359113
033,75,0,2,6,20,140,1402.1097294122446,1408.8545771199279,stimuli/277_yb.png,a,6.732944502495229,ambig,0.333,5.491525424,2.02886822,0.264136144
033,75,0,2,6,21,141,1409.4798500549514,1413.4385683070868,stimuli/294_za.png,a,3.946932806633413,awful,0.333,1.557377049,1.38473331,0.177296933
033,75,0,2,6,22,142,1414.0131579984445,1418.302547710482,stimuli/353_zb.png,a,4.277534949826077,awful,0.333,1.949152542,1.623361018,0.211343603
033,75,0,2,6,23,143,1418.9367160496768,1426.4065632061101,stimuli/359_za.png,a,7.458702892065048,awful,0.333,2.01754386,1.641985167,0.217486248
033,75,0,2,6,24,144,1427.0314931015018,1435.5185690475628,stimuli/181_xa.png,l,8.475205823779106,harmless,0.333,6.666666667,0.950765377,0.122743282
033,75,0,2,7,1,145,1445.9956034980714,1453.814525352791,stimuli/156_xc.png,l,7.807062366278842,harmless,0.333,6.590163934,0.955284411,0.122311635
033,75,0,2,7,2,146,1454.453587227501,1464.182560581481,stimuli/248_zb.png,l,9.717573089990765,awful,0.333,3.288135593,1.991800844,0.259310383
033,75,0,2,7,3,147,1464.8218638838734,1470.1985538767185,stimuli/120_xa.png,l,5.365366135025397,harmless,0.333,6.440677966,1.054893138,0.137335389
033,75,0,2,7,4,148,1470.7536923056468,1489.782837691484,stimuli/198_yb.png,a,19.017279989784583,ambig,0.333,5.101694915,1.83542643,0.238952168
033,75,0,2,7,5,149,1490.3948651945684,1507.9665396383498,stimuli/167_xb.png,a,17.55988230323419,harmless,0.333,6.590163934,0.955284411,0.122311635
033,75,0,2,7,6,150,1508.5899465314578,1512.4545127653982,stimuli/316_za.png,a,3.8532144129276276,awful,0.333,2.344827586,1.802062407,0.236622386
033,75,0,2,7,7,151,1513.0953441900201,1516.7424822691828,stimuli/364_za.png,a,3.63554246770218,awful,0.333,1.677966102,1.279017376,0.166513879
033,75,0,2,7,8,152,1517.384730357444,1524.638521912042,stimuli/254_ya.png,l,7.241880472516641,ambig,0.333,5.983606557,1.627798137,0.208418195
033,75,0,2,7,9,153,1525.2137831107248,1528.2544729080983,stimuli/331_za.png,a,3.0282962538767606,awful,0.333,1.983606557,1.638004917,0.209725039
033,75,0,2,7,10,154,1528.8543372675776,1532.4464968193788,stimuli/306_zb.png,a,3.580354413948953,awful,0.333,2.352112676,1.917055413,0.101746737
033,75,0,2,7,11,155,1533.0559745640494,1539.4865320450626,stimuli/214_xb.png,l,6.418882312718779,harmless,0.333,6.465517241,0.940614156,0.12350869
033,75,0,2,7,12,156,1540.0686091410462,1544.4384761471301,stimuli/276_ya.png,a,4.3582387052010745,ambig,0.333,5.186440678,1.804922162,0.234980851
033,75,0,2,7,13,157,1545.081520985812,1548.974472088972,stimuli/106_xc.png,l,3.8811278487555683,harmless,0.333,6.661016949,0.863237081,0.112383896
033,75,0,2,7,14,158,1549.5770043607336,1553.5824851205107,stimuli/116_xa.png,l,3.9937969266902655,harmless,0.333,6.63559322,0.958030802,0.050918763
033,75,0,2,7,15,159,1554.1810844468419,1562.4144814782776,stimuli/344_za.png,a,8.221628127619624,awful,0.333,2.711864407,2.043077863,0.265986082
033,75,0,2,7,16,160,1563.0219553348143,1568.4625787299592,stimuli/213_ya.png,a,5.42897697747685,ambig,0.333,5.98245614,1.597891781,0.211645937
033,75,0,2,7,17,161,1569.1469576978125,1574.1504511111416,stimuli/232_yb.png,a,4.991143192863092,ambig,0.333,5.483333333,1.845669845,0.238274952
033,75,0,2,7,18,162,1574.7465270666871,1581.08645941969,stimuli/352_zb.png,a,6.328220950672403,awful,0.333,2.93442623,2.135952968,0.273480754
033,75,0,2,7,19,163,1581.6519678118639,1592.1184743670747,stimuli/260_ya.png,a,10.45483099296689,ambig,0.333,4.966101695,2.016877936,0.262575142
033,75,0,2,7,20,164,1592.687665612204,1608.0146624899935,stimuli/235_ya.png,a,15.315077130915597,ambig,0.333,5.694915254,1.567495667,0.204070554
033,75,0,2,7,21,165,1608.631870248355,1614.966461656848,stimuli/109_xb.png,l,6.322522000176832,harmless,0.333,6.644067797,0.97843492,0.127381377
033,75,0,2,7,22,166,1615.5864365766756,1623.42243362125,stimuli/126_xa.png,l,7.8247326572891325,harmless,0.333,6.6,0.977717855,0.126222832
033,75,0,2,7,23,167,1624.0283202787396,1628.2704122464638,stimuli/333_za.png,a,4.230297857662663,awful,0.333,3.266666667,2.185209657,0.282109354
033,75,0,2,7,24,168,1628.9171545105055,1634.166412110906,stimuli/243_ya.png,l,5.237244118237868,ambig,0.333,5.830508475,1.652088985,0.215083666
033,75,0,2,8,1,169,1644.8648371999152,1658.22240951797,stimuli/370_za.png,a,13.345858158776537,awful,0.333,2.393442623,1.882185684,0.240989182
033,75,0,2,8,2,170,1658.8337753599044,1663.670386804035,stimuli/326_zb.png,a,4.82495557423681,awful,0.333,3.389830508,2.220724867,0.289113752
033,75,0,2,8,3,171,1664.2402759443503,1672.374401354231,stimuli/257_yb.png,l,8.122228506254032,ambig,0.333,5.620689655,1.843219782,0.242026615
033,75,0,2,8,4,172,1672.9516179978382,1678.0463899294846,stimuli/330_ya.png,a,5.082851003156975,ambig,0.333,4.796610169,2.049219036,0.266785595
033,75,0,2,8,5,173,1678.643533207709,1689.0944139258936,stimuli/228_ya.png,a,10.438997205346823,ambig,0.333,5.442622951,1.793735303,0.229664272
033,75,0,2,8,6,174,1689.667972134659,1693.9023986791726,stimuli/195_xc.png,l,4.222366588423029,harmless,0.333,6.637640449,1.001766915,0.05309354
033,75,0,2,8,7,175,1694.4697483009659,1700.6623775532935,stimuli/244_xb.png,l,6.18090445920825,harmless,0.333,6.610169492,0.743174671,0.096753101
033,75,0,2,8,8,176,1701.2310922450852,1707.6143775817472,stimuli/137_xa.png,a,6.371315571479499,harmless,0.333,6.355932203,1.094858074,0.14253838
033,75,0,2,8,9,177,1708.1786567806266,1719.4383871380705,stimuli/319_ya.png,a,11.247777527431026,ambig,0.333,4.216666667,2.108028774,0.272145344
033,75,0,2,8,10,178,1720.0271273194812,1725.9424004280008,stimuli/368_za.png,a,5.903419527923688,awful,0.333,3.590163934,2.02794682,0.259651984
033,75,0,2,8,11,179,1726.5446869398002,1730.1983766460326,stimuli/202_yb.png,a,3.6423548206221312,ambig,0.333,5.431034483,1.892849601,0.248543329
033,75,0,2,8,12,180,1730.8251970019192,1735.6863568623085,stimuli/355_zb.png,a,4.848519375547767,awful,0.333,3.183333333,2.070713188,0.267327923
033,75,0,2,8,13,181,1736.3004536319058,1741.2223740718327,stimuli/317_za.png,a,4.910211794544011,awful,0.333,3.65,2.03215674,0.262350307
033,75,0,2,8,14,182,1741.7860105142463,1745.8304339710157,stimuli/334_za.png,a,4.032612411538139,awful,0.333,3.333333333,2.214487481,0.285889104
033,75,0,2,8,15,183,1746.4278356118593,1751.1024176627398,stimuli/313_zb.png,a,4.6627631285227835,awful,0.333,2.101694915,1.688652955,0.219843889
033,75,0,2,8,16,184,1751.6667776000686,1757.5263608952519,stimuli/161_xc.png,l,5.847611167002469,harmless,0.333,6.796610169,0.609682252,0.079373868
033,75,0,2,8,17,185,1758.1057988298126,1765.0943875382654,stimuli/183_xb.png,l,6.976837921421975,harmless,0.333,6.448275862,1.095003225,0.143780967
033,75,0,2,8,18,186,1765.6724249566905,1771.8222975081299,stimuli/263_ya.png,a,6.137824410805479,ambig,0.333,4.983050847,2.071910042,0.269739712
033,75,0,2,8,19,187,1772.3923217374831,1793.2143439473584,stimuli/249_ya.png,a,20.810143816750497,ambig,0.333,5.327868852,1.859402337,0.238072074
033,75,0,2,8,20,188,1793.8086755592376,1798.958305501612,stimuli/148_xc.png,l,5.137783057056367,harmless,0.333,6.491525424,1.135218061,0.147792803
033,75,0,2,8,21,189,1799.5968534075655,1810.1743583462667,stimuli/204_xb.png,l,10.56527208443731,harmless,0.333,6.508474576,0.858484658,0.111765183
033,75,0,2,8,22,190,1810.763909456553,1821.1664058095776,stimuli/239_ya.png,l,10.390764864627272,ambig,0.333,5.157894737,1.925296579,0.255011762
033,75,0,2,8,23,191,1821.7343588031363,1826.718312338693,stimuli/310_zb.png,a,4.971976681146771,awful,0.333,3.224137931,2.102989547,0.276136056
033,75,0,2,8,24,192,1827.3105951643083,1843.4703705776483,stimuli/280_xb.png,l,16.14800611580722,harmless,0.333,6.333333333,1.068289726,0.137915611
033,75,0,2,9,1,193,1857.5069620143622,1881.4623042193707,stimuli/211_zb.png,l,23.943660340970382,awful,0.333,3.983333333,2.127237938,0.274625237
033,75,0,2,9,2,194,1882.0494509001728,1886.1582961280365,stimuli/361_za.png,a,4.097468200838193,awful,0.333,2.416666667,1.907093508,0.246204713
033,75,0,2,9,3,195,1886.7633257769048,1891.7502780552022,stimuli/268_zb.png,a,4.97495376248844,awful,0.333,2.655737705,2.048456703,0.262278005
033,75,0,2,9,4,196,1892.3169711357914,1905.7022528774105,stimuli/165_xb.png,l,13.373202093178406,harmless,0.333,6.557377049,1.008705278,0.129151477
033,75,0,2,9,5,197,1906.2691097981296,1911.8702545505948,stimuli/124_xa.png,l,5.5891852274071425,harmless,0.333,6.344262295,1.181598436,0.151288177
033,75,0,2,9,6,198,1912.440599370515,1917.1662758402526,stimuli/348_za.png,a,4.713757510529831,awful,0.333,3.084745763,2.119597681,0.275948114
033,75,0,2,9,7,199,1917.760169101879,1924.6542796874419,stimuli/160_xb.png,l,6.882352709537372,harmless,0.333,6.666666667,0.680644427,0.087870818
033,75,0,2,9,8,200,1925.2399762275163,1931.2142541504,stimuli/332_zb.png,a,5.962462545139715,awful,0.333,2.694915254,2.002190501,0.260663001
033,75,0,2,9,9,201,1931.8005501241423,1944.3182739783078,stimuli/115_xb.png,l,12.505276747746393,harmless,0.333,6.440677966,1.021681954,0.133011661
033,75,0,2,9,10,202,1944.8900772095658,1956.8222455205396,stimuli/283_yb.png,l,11.92022060113959,ambig,0.333,5.949152542,1.478859402,0.192531095
033,75,0,2,9,11,203,1957.4207136961631,1963.3502755346708,stimuli/325_yb.png,a,5.917998128337786,ambig,0.333,5.131147541,1.811770863,0.231973488
033,75,0,2,9,12,204,1963.914681551978,1977.302214910742,stimuli/362_zb.png,a,13.376067716162652,awful,0.333,1.474576271,1.222715071,0.159183944
033,75,0,2,9,13,205,1977.9066683629062,1982.3502184271347,stimuli/288_yb.png,a,4.431410551303998,ambig,0.333,5.189655172,1.914459262,0.251380817
033,75,0,2,9,14,206,1982.9286036114208,1988.9502690755762,stimuli/182_xb.png,l,6.009881200268865,harmless,0.333,6.542372881,0.988241802,0.128658124
033,75,0,2,9,15,207,1989.5536264546681,1996.4382146336138,stimuli/166_xa.png,l,6.873092210385948,harmless,0.333,6.593220339,1.052397002,0.13701042
033,75,0,2,9,16,208,1997.032116559567,2003.8381836772896,stimuli/273_ya.png,a,6.794384859967977,ambig,0.333,5.551724138,1.836973233,0.241206403
033,75,0,2,9,17,209,2004.4093071306124,2019.3181987537537,stimuli/210_yb.png,l,14.896928947186098,ambig,0.333,5.557377049,1.76564049,0.226067099
033,75,0,2,9,18,210,2019.9287292482331,2032.854192726314,stimuli/323_yb.png,a,12.912995103746653,ambig,0.333,4.603448276,1.955107169,0.256718148
033,75,0,2,9,19,211,2033.4212394803762,2038.478205748368,stimuli/301_za.png,a,5.045036281226203,awful,0.333,3.610169492,2.212947396,0.288101212
033,75,0,2,9,20,212,2039.0862951860763,2043.838236452546,stimuli/143_xb.png,l,4.740375980967656,harmless,0.333,6.655172414,0.738697862,0.096995781
033,75,0,2,9,21,213,2044.4037700507324,2048.510304978583,stimuli/279_ya.png,a,4.094829039415345,ambig,0.333,5.31147541,1.970964092,0.252356093
033,75,0,2,9,22,214,2049.0836355444044,2056.710167605197,stimuli/247_ya.png,l,7.614881310611963,ambig,0.333,4.65,2.081598147,0.268733165
033,75,0,2,9,23,215,2057.2719403686933,2063.5661692656577,stimuli/157_xc.png,a,6.282223291695118,harmless,0.333,6.603448276,0.877389573,0.115206895
033,75,0,2,9,24,216,2064.1698905581143,2069.9821883183904,stimuli/357_za.png,a,5.800777767086402,awful,0.333,2.793103448,2.066937905,0.271402243
033,75,0,2,10,1,217,2080.666417231085,2084.782161851879,stimuli/103_xb.png,l,4.104343569139019,harmless,0.333,6.779661017,0.589207434,0.076708274
033,75,0,2,10,2,218,2085.3508572450373,2088.5661960472353,stimuli/199_za.png,a,3.2034308707807213,awful,0.333,3.033898305,2.189048775,0.284989876
033,75,0,2,10,3,219,2089.1756426778156,2094.7901332932524,stimuli/240_xa.png,l,5.6024326286278665,harmless,0.333,6.482758621,1.096107616,0.143925981
033,75,0,2,10,4,220,2095.3937829060014,2105.9421846002806,stimuli/262_ya.png,l,10.536587498383597,ambig,0.333,5.491525424,1.7750462,0.231091332
033,75,0,2,10,5,221,2106.5336115986574,2121.4221717137843,stimuli/241_yb.png,a,14.876768762012944,ambig,0.333,5.508474576,1.442852555,0.187843403
033,75,0,2,10,6,222,2121.979471962899,2127.2942253523506,stimuli/296_yb.png,a,5.3028190701734275,ambig,0.333,4.229508197,2.052587332,0.262806878
033,75,0,2,10,7,223,2127.8920291101094,2142.1741885987576,stimuli/251_ya.png,l,14.270411458797753,ambig,0.333,5.655172414,1.792300532,0.235340589
033,75,0,2,10,8,224,2142.7372137922794,2152.5661204287317,stimuli/242_xb.png,l,9.817180268000811,harmless,0.333,6.576271186,0.913564256,0.118935936
033,75,0,2,10,9,225,2153.202580163488,2158.710147912847,stimuli/341_zb.png,a,5.495807904051617,awful,0.333,3.603448276,2.15975677,0.283589957
033,75,0,2,10,10,226,2159.2839294322766,2164.4702543930616,stimuli/266_zb.png,a,5.174700598465279,awful,0.333,3.491525424,1.888010094,0.245797978
033,75,0,2,10,11,227,2165.0346864042804,2171.7820795380976,stimuli/139_xa.png,l,6.735772316111252,harmless,0.333,6.724137931,0.790138861,0.103750315
033,75,0,2,10,12,228,2172.3802334247157,2179.7421274138615,stimuli/363_zb.png,a,7.350305860629305,awful,0.333,2.433333333,2.019956927,0.260775318
033,75,0,2,10,13,229,2180.3018722648267,2187.686092985561,stimuli/339_ya.png,a,7.372217478696257,ambig,0.333,4.949152542,1.960152429,0.25519011
033,75,0,2,10,14,230,2188.319345239084,2193.126119310269,stimuli/369_za.png,a,4.7953615977894515,awful,0.333,2.948275862,2.055565093,0.26990892
033,75,0,2,10,15,231,2193.710891494062,2205.6061143004335,stimuli/246_ya.png,l,11.8836145917885,ambig,0.333,5.542372881,1.715266481,0.223308675
033,75,0,2,10,16,232,2206.342840511352,2220.1740861986764,stimuli/159_xa.png,l,13.82015104778111,harmless,0.333,6.389830508,1.174689235,0.152931512
033,75,0,2,10,17,233,2220.827155597508,2225.65410166909,stimuli/308_zb.png,a,4.814556072698906,awful,0.333,1.644067797,1.471132708,0.191525165
033,75,0,2,10,18,234,2226.217123317998,2232.4944904895965,stimuli/158_xa.png,l,6.265965332277119,harmless,0.333,6.786885246,0.661179605,0.084655374
033,75,0,2,10,19,235,2233.1166032049805,2243.2780835772865,stimuli/269_za.png,l,10.150537363253534,awful,0.333,3.457627119,2.119873401,0.27598401
033,75,0,2,10,20,236,2243.833062892547,2250.6221840018407,stimuli/149_xa.png,l,6.777298642322421,harmless,0.333,6.721311475,0.933294301,0.11949609
033,75,0,2,10,21,237,2251.1868775265757,2261.5260615723673,stimuli/267_ya.png,a,10.3275561388582,ambig,0.333,5.103448276,1.898195405,0.249245267
033,75,0,2,10,22,238,2262.0937873169314,2265.3900701203384,stimuli/299_za.png,a,3.2845020841341466,awful,0.333,1.288135593,0.929420425,0.121000233
033,75,0,2,10,23,239,2265.9479040307924,2270.3340419935994,stimuli/350_ya.png,a,4.373985059093684,ambig,0.333,4.915254237,2.02814792,0.264042369
033,75,0,2,10,24,240,2270.963186040288,2278.51805153396,stimuli/118_xb.png,a,7.542895334539935,harmless,0.333,6.474576271,0.953323265,0.124112118
