id,age,condition,counterbalance,block,trialinblock,trial,tstart,tend,trialstim,response,RT,trialtype,ethicfreq,norm_mean,norm_sd,norm_se
,,,,,,,,,,,,,,,,
176,20,1,1,0,0,practice,4.33E-06,6.408193584,stimuli/prac_217_1.png,l,6.394048585,harmless,NA,NA,NA,NA
,,,,,,,,,,,,,,,,
176,20,1,1,1,1,1,4.344686222,12.68806448,stimuli/259_xc.png,l,8.332041386,harmless,0.333,6.568965517,0.993170874,0.130409725
,,,,,,,,,,,,,,,,
176,20,1,1,1,2,2,13.31611029,18.12008342,stimuli/128_xc.png,l,4.792409002,harmless,0.333,6.627118644,0.98082135,0.127692063
,,,,,,,,,,,,,,,,
176,20,1,1,1,3,3,18.66258222,29.04008452,stimuli/292_zb.png,a,10.36562744,awful,0.333,2.396551724,1.955107169,0.256718148
,,,,,,,,,,,,,,,,
176,20,1,1,1,4,4,29.66315014,42.28807393,stimuli/219_ya.png,l,12.61315329,ambig,0.333,5.271186441,1.998538332,0.260187529
,,,,,,,,,,,,,,,,
176,20,1,1,1,5,5,42.87118816,49.70408734,stimuli/265_yb.png,l,6.821185793,ambig,0.333,5.627118644,1.856008928,0.241631781
,,,,,,,,,,,,,,,,
176,20,1,1,1,6,6,50.31308358,56.58409096,stimuli/102_xc.png,l,6.259544477,harmless,0.333,6.66011236,0.937292468,0.049676401
,,,,,,,,,,,,,,,,
176,20,1,1,1,7,7,57.18193465,63.04808866,stimuli/230_yb.png,l,5.854329949,ambig,0.333,4.98245614,1.875511626,0.248417583
,,,,,,,,,,,,,,,,
176,20,1,1,1,8,8,63.66718274,72.4081219,stimuli/132_xc.png,l,8.729184423,harmless,0.333,6.627118644,0.692280217,0.090127208
,,,,,,,,,,,,,,,,
176,20,1,1,1,9,9,73.01739463,79.84008491,stimuli/239_ya.png,l,6.811006042,ambig,0.333,5.157894737,1.925296579,0.255011762
,,,,,,,,,,,,,,,,
176,20,1,1,1,10,10,80.44990784,90.25612195,stimuli/165_xb.png,l,9.794424708,harmless,0.333,6.557377049,1.008705278,0.129151477
,,,,,,,,,,,,,,,,
176,20,1,1,1,11,11,90.85986349,98.21613786,stimuli/208_xb.png,l,7.344638173,harmless,0.333,6.216666667,1.165778516,0.150501359
,,,,,,,,,,,,,,,,
176,20,1,1,1,12,12,98.789862,104.2882047,stimuli/118_xb.png,l,5.486419383,harmless,0.333,6.474576271,0.953323265,0.124112118
,,,,,,,,,,,,,,,,
176,20,1,1,1,13,13,104.9729526,115.2801805,stimuli/364_za.png,a,10.29560152,awful,0.333,1.677966102,1.279017376,0.166513879
,,,,,,,,,,,,,,,,
176,20,1,1,1,14,14,115.8864347,122.5921739,stimuli/228_ya.png,l,6.694037557,ambig,0.333,5.442622951,1.793735303,0.229664272
,,,,,,,,,,,,,,,,
176,20,1,1,1,15,15,123.190196,126.4082633,stimuli/158_xa.png,l,3.205917938,harmless,0.333,6.786885246,0.661179605,0.084655374
,,,,,,,,,,,,,,,,
176,20,1,1,1,16,16,127.0204895,135.0001804,stimuli/356_za.png,l,7.968046837,awful,0.333,3.033333333,2.178217796,0.281206708
,,,,,,,,,,,,,,,,
176,20,1,1,1,17,17,135.5867833,154.0162119,stimuli/361_za.png,l,18.41814648,awful,0.333,2.416666667,1.907093508,0.246204713
,,,,,,,,,,,,,,,,
176,20,1,1,1,18,18,154.5880857,164.7762865,stimuli/277_yb.png,l,10.17666696,ambig,0.333,5.491525424,2.02886822,0.264136144
,,,,,,,,,,,,,,,,
176,20,1,1,1,19,19,165.3866104,170.5602156,stimuli/299_za.png,l,5.161880775,awful,0.333,1.288135593,0.929420425,0.121000233
,,,,,,,,,,,,,,,,
176,20,1,1,1,20,20,171.1973959,187.3202504,stimuli/368_za.png,a,16.11104109,awful,0.333,3.590163934,2.02794682,0.259651984
,,,,,,,,,,,,,,,,
176,20,1,1,1,21,21,187.9028562,194.776279,stimuli/191_ya.png,l,6.86174411,ambig,0.333,5.517241379,2.062542966,0.270825159
,,,,,,,,,,,,,,,,
176,20,1,1,1,22,22,195.4068726,200.7442298,stimuli/360_za.png,l,5.325587029,awful,0.333,3.2,2.207844259,0.285031468
,,,,,,,,,,,,,,,,
176,20,1,1,1,23,23,201.3567576,209.3442817,stimuli/351_zb.png,a,7.975783164,awful,0.333,3.06779661,2.033040926,0.264679384
,,,,,,,,,,,,,,,,
176,20,1,1,1,24,24,209.9601853,216.4402775,stimuli/243_ya.png,l,6.468563563,ambig,0.333,5.830508475,1.652088985,0.215083666
,,,,,,,,,,,,,,,,
176,20,1,1,2,1,25,225.505699,232.0402291,stimuli/152_xa.png,l,6.52301009,harmless,0.333,6.576271186,0.968528743,0.126091702
,,,,,,,,,,,,,,,,
176,20,1,1,2,2,26,232.6774779,239.1922794,stimuli/159_xa.png,l,6.50291604,harmless,0.333,6.389830508,1.174689235,0.152931512
,,,,,,,,,,,,,,,,
176,20,1,1,2,3,27,239.8048593,245.0643923,stimuli/283_yb.png,l,5.247836995,ambig,0.333,5.949152542,1.478859402,0.192531095
,,,,,,,,,,,,,,,,
176,20,1,1,2,4,28,245.6693615,257.9042988,stimuli/320_za.png,l,12.22325231,awful,0.333,1.423728814,1.117314975,0.14546202
,,,,,,,,,,,,,,,,
176,20,1,1,2,5,29,258.4689783,265.7762952,stimuli/267_ya.png,l,7.295461706,ambig,0.333,5.103448276,1.898195405,0.249245267
,,,,,,,,,,,,,,,,
176,20,1,1,2,6,30,266.3982056,272.3443144,stimuli/284_ya.png,l,5.934387923,ambig,0.333,5.948275862,1.431750417,0.18799804
,,,,,,,,,,,,,,,,
176,20,1,1,2,7,31,272.9490918,275.5203512,stimuli/125_xc.png,l,2.559600404,harmless,0.333,6.683333333,0.999858747,0.129081209
,,,,,,,,,,,,,,,,
176,20,1,1,2,8,32,276.1376494,285.0803364,stimuli/307_za.png,l,8.930868117,awful,0.333,2.93220339,2.172432347,0.282826601
,,,,,,,,,,,,,,,,
176,20,1,1,2,9,33,285.6372378,291.0243118,stimuli/201_yb.png,l,5.375420037,ambig,0.333,5.898305085,1.626238682,0.211718243
,,,,,,,,,,,,,,,,
176,20,1,1,2,10,34,291.6423673,295.2002922,stimuli/186_xa.png,l,3.546189141,harmless,0.333,6.65,0.879618561,0.113558268
,,,,,,,,,,,,,,,,
176,20,1,1,2,11,35,295.8266284,300.6803833,stimuli/145_xa.png,l,4.841975771,harmless,0.333,6.661016949,0.822321556,0.107057148
,,,,,,,,,,,,,,,,
176,20,1,1,2,12,36,301.2959493,311.0563724,stimuli/363_zb.png,l,9.748619568,awful,0.333,2.433333333,2.019956927,0.260775318
,,,,,,,,,,,,,,,,
176,20,1,1,2,13,37,311.6726895,320.6804341,stimuli/209_ya.png,l,8.996291541,ambig,0.333,5.603448276,1.825161903,0.239655499
,,,,,,,,,,,,,,,,
176,20,1,1,2,14,38,321.3001434,332.808411,stimuli/319_ya.png,a,11.4965184,ambig,0.333,4.216666667,2.108028774,0.272145344
,,,,,,,,,,,,,,,,
176,20,1,1,2,15,39,333.3862366,345.5524635,stimuli/373_zb.png,a,12.15436185,awful,0.333,2.327586207,1.858011869,0.243968911
,,,,,,,,,,,,,,,,
176,20,1,1,2,16,40,346.1857317,357.6484159,stimuli/256_zb.png,l,11.45100667,awful,0.333,3.051724138,2.012438634,0.264246138
,,,,,,,,,,,,,,,,
176,20,1,1,2,17,41,358.3091597,366.1684245,stimuli/286_ya.png,l,7.847578238,ambig,0.333,5.06779661,1.779814082,0.231712057
,,,,,,,,,,,,,,,,
176,20,1,1,2,18,42,366.7802265,377.8884571,stimuli/304_ya.png,l,11.09639079,ambig,0.333,4.034482759,2.017167697,0.264867095
,,,,,,,,,,,,,,,,
176,20,1,1,2,19,43,378.4955704,383.5283896,stimuli/154_xc.png,l,5.02108103,harmless,0.333,6.5,0.965506805,0.124646393
,,,,,,,,,,,,,,,,
176,20,1,1,2,20,44,384.149373,393.1604405,stimuli/321_zb.png,a,8.999066584,awful,0.333,2.918032787,2.177881861,0.278849198
,,,,,,,,,,,,,,,,
176,20,1,1,2,21,45,393.77883,399.4644455,stimuli/113_xb.png,l,5.673876553,harmless,0.333,6.733333333,0.660422737,0.085260209
,,,,,,,,,,,,,,,,
176,20,1,1,2,22,46,400.0331887,405.6804751,stimuli/140_xb.png,l,5.635313462,harmless,0.333,6.724137931,0.790138861,0.103750315
,,,,,,,,,,,,,,,,
176,20,1,1,2,23,47,406.2925173,414.2964215,stimuli/338_zb.png,l,7.992053752,awful,0.333,3.310344828,2.137443107,0.28066003
,,,,,,,,,,,,,,,,
176,20,1,1,2,24,48,414.8919636,425.6084716,stimuli/268_zb.png,a,10.70446898,awful,0.333,2.655737705,2.048456703,0.262278005
,,,,,,,,,,,,,,,,
176,20,1,1,3,1,49,434.96444,441.9204942,stimuli/276_ya.png,l,6.94459997,ambig,0.333,5.186440678,1.804922162,0.234980851
,,,,,,,,,,,,,,,,
176,20,1,1,3,2,50,442.530965,448.8565056,stimuli/244_xb.png,l,6.313819681,harmless,0.333,6.610169492,0.743174671,0.096753101
,,,,,,,,,,,,,,,,
176,20,1,1,3,3,51,449.4296035,455.6405217,stimuli/270_yb.png,l,6.199105575,ambig,0.333,5.534482759,1.912246013,0.251090203
,,,,,,,,,,,,,,,,
176,20,1,1,3,4,52,456.2485971,465.9124857,stimuli/324_za.png,l,9.652225233,awful,0.333,2.491525424,1.994586478,0.259673041
,,,,,,,,,,,,,,,,
176,20,1,1,3,5,53,466.5304711,471.7685163,stimuli/337_zb.png,l,5.226183705,awful,0.333,3.033333333,2.20143764,0.284204377
,,,,,,,,,,,,,,,,
176,20,1,1,3,6,54,472.325509,478.8085579,stimuli/250_yb.png,l,6.471408316,ambig,0.333,5.950819672,1.585625318,0.203018519
,,,,,,,,,,,,,,,,
176,20,1,1,3,7,55,479.4293042,482.5685041,stimuli/195_xc.png,l,3.127466857,harmless,0.333,6.637640449,1.001766915,0.05309354
,,,,,,,,,,,,,,,,
176,20,1,1,3,8,56,483.13725,488.3445555,stimuli/342_yb.png,l,5.195412476,ambig,0.333,4.916666667,2.085394461,0.269223267
,,,,,,,,,,,,,,,,
176,20,1,1,3,9,57,488.9464798,507.1925555,stimuli/302_za.png,a,18.23457264,awful,0.333,3.137931034,2.188071937,0.287307921
,,,,,,,,,,,,,,,,
176,20,1,1,3,10,58,507.8253405,514.7605472,stimuli/281_ya.png,l,6.923341709,ambig,0.333,5.881355932,1.543448286,0.200939852
,,,,,,,,,,,,,,,,
176,20,1,1,3,11,59,515.3713276,519.8325049,stimuli/255_xb.png,l,4.449777476,harmless,0.333,6.770491803,0.642740036,0.082294429
,,,,,,,,,,,,,,,,
176,20,1,1,3,12,60,520.4527443,526.3525801,stimuli/362_zb.png,l,5.887847077,awful,0.333,1.474576271,1.222715071,0.159183944
,,,,,,,,,,,,,,,,
176,20,1,1,3,13,61,526.9720129,533.9845557,stimuli/274_xb.png,l,7.000935385,harmless,0.333,6.491525424,1.179901828,0.153610134
,,,,,,,,,,,,,,,,
176,20,1,1,3,14,62,534.5903437,542.9126153,stimuli/223_yb.png,l,8.310425118,ambig,0.333,5.542372881,1.77455224,0.231027024
,,,,,,,,,,,,,,,,
176,20,1,1,3,15,63,543.5386115,548.6085819,stimuli/183_xb.png,l,5.058311343,harmless,0.333,6.448275862,1.095003225,0.143780967
,,,,,,,,,,,,,,,,
176,20,1,1,3,16,64,549.2185754,552.8965712,stimuli/194_xb.png,l,3.666212693,harmless,0.333,6.586206897,1.026567825,0.134794959
,,,,,,,,,,,,,,,,
176,20,1,1,3,17,65,553.5157936,558.9925949,stimuli/318_za.png,l,5.465158366,awful,0.333,3.06557377,2.197489875,0.281359747
,,,,,,,,,,,,,,,,
176,20,1,1,3,18,66,559.621009,574.3606027,stimuli/266_zb.png,a,14.72786622,awful,0.333,3.491525424,1.888010094,0.245797978
,,,,,,,,,,,,,,,,
176,20,1,1,3,19,67,574.9806669,591.80059,stimuli/354_zb.png,a,16.80819201,awful,0.333,2,1.701925887,0.221571878
,,,,,,,,,,,,,,,,
176,20,1,1,3,20,68,592.4072554,598.3366328,stimuli/124_xa.png,l,5.917760116,harmless,0.333,6.344262295,1.181598436,0.151288177
,,,,,,,,,,,,,,,,
176,20,1,1,3,21,69,598.9267193,606.5846932,stimuli/206_xa.png,l,7.645208069,harmless,0.333,6.325842697,1.136094431,0.060212884
,,,,,,,,,,,,,,,,
176,20,1,1,3,22,70,607.1743949,611.2166766,stimuli/236_yb.png,l,4.029800399,ambig,0.333,5.93442623,1.49297078,0.19115532
,,,,,,,,,,,,,,,,
176,20,1,1,3,23,71,611.844075,616.5766642,stimuli/289_yb.png,l,4.72082503,ambig,0.333,5.305084746,1.714584873,0.223219937
,,,,,,,,,,,,,,,,
176,20,1,1,3,24,72,617.1893224,636.5687018,stimuli/327_zb.png,a,19.36779005,awful,0.333,2.502808989,1.906990248,0.101070281
,,,,,,,,,,,,,,,,
176,20,1,1,4,1,73,645.1167125,659.008663,stimuli/334_za.png,l,13.88034824,awful,0.333,3.333333333,2.214487481,0.285889104
,,,,,,,,,,,,,,,,
176,20,1,1,4,2,74,659.6539975,672.0647421,stimuli/365_zb.png,l,12.39897324,awful,0.333,2.966101695,2.165291266,0.281896912
,,,,,,,,,,,,,,,,
176,20,1,1,4,3,75,672.6405658,681.7768123,stimuli/216_xa.png,l,9.124744984,harmless,0.333,6.603448276,0.877389573,0.115206895
,,,,,,,,,,,,,,,,
176,20,1,1,4,4,76,682.3852634,688.2487385,stimuli/330_ya.png,l,5.851754587,ambig,0.333,4.796610169,2.049219036,0.266785595
,,,,,,,,,,,,,,,,
176,20,1,1,4,5,77,688.8146125,693.3047884,stimuli/153_xb.png,l,4.478369948,harmless,0.333,6.633333333,0.973664521,0.125699549
,,,,,,,,,,,,,,,,
176,20,1,1,4,6,78,693.8607749,699.592715,stimuli/350_ya.png,l,5.720263404,ambig,0.333,4.915254237,2.02814792,0.264042369
,,,,,,,,,,,,,,,,
176,20,1,1,4,7,79,700.2137504,706.6727647,stimuli/222_ya.png,l,6.447433696,ambig,0.333,5.931034483,1.543089507,0.202617579
,,,,,,,,,,,,,,,,
176,20,1,1,4,8,80,707.2894685,713.9127657,stimuli/271_ya.png,l,6.61170827,ambig,0.333,5.711864407,1.771915459,0.230683744
,,,,,,,,,,,,,,,,
176,20,1,1,4,9,81,714.4724886,729.1927564,stimuli/251_ya.png,l,14.70842044,ambig,0.333,5.655172414,1.792300532,0.235340589
,,,,,,,,,,,,,,,,
176,20,1,1,4,10,82,729.8191799,735.6887986,stimuli/358_za.png,l,5.85779186,awful,0.333,3.949152542,2.112554662,0.275031191
,,,,,,,,,,,,,,,,
176,20,1,1,4,11,83,736.3008921,740.7928032,stimuli/122_xa.png,l,4.480235205,harmless,0.333,6.457627119,1.039264227,0.135300678
,,,,,,,,,,,,,,,,
176,20,1,1,4,12,84,741.3867939,747.8007704,stimuli/176_xb.png,l,6.40229455,harmless,0.333,6.796610169,0.517942249,0.067430337
,,,,,,,,,,,,,,,,
176,20,1,1,4,13,85,748.4155195,754.4087603,stimuli/306_zb.png,l,5.981858247,awful,0.333,2.352112676,1.917055413,0.101746737
,,,,,,,,,,,,,,,,
176,20,1,1,4,14,86,755.0533898,759.8167861,stimuli/163_xa.png,l,4.751752617,harmless,0.333,6.627118644,0.963082427,0.125382652
,,,,,,,,,,,,,,,,
176,20,1,1,4,15,87,760.4192386,767.9288977,stimuli/288_yb.png,l,7.498334817,ambig,0.333,5.189655172,1.914459262,0.251380817
,,,,,,,,,,,,,,,,
176,20,1,1,4,16,88,768.533564,789.1767969,stimuli/308_zb.png,a,20.63142462,awful,0.333,1.644067797,1.471132708,0.191525165
,,,,,,,,,,,,,,,,
176,20,1,1,4,17,89,789.7661859,799.8488149,stimuli/300_za.png,l,10.07083291,awful,0.333,3.75,2.12032137,0.273732312
,,,,,,,,,,,,,,,,
176,20,1,1,4,18,90,800.4673107,809.5048191,stimuli/339_ya.png,l,9.026028924,ambig,0.333,4.949152542,1.960152429,0.25519011
,,,,,,,,,,,,,,,,
176,20,1,1,4,19,91,810.1567442,822.6969134,stimuli/252_zb.png,a,12.52846368,awful,0.333,2.711864407,1.983125776,0.258180985
,,,,,,,,,,,,,,,,
176,20,1,1,4,20,92,823.3012733,829.264852,stimuli/317_za.png,l,5.951755768,awful,0.333,3.65,2.03215674,0.262350307
,,,,,,,,,,,,,,,,
176,20,1,1,4,21,93,829.8870046,834.072851,stimuli/112_xc.png,l,4.17412507,harmless,0.333,6.706896552,0.749470472,0.098410294
,,,,,,,,,,,,,,,,
176,20,1,1,4,22,94,834.6985877,846.6649276,stimuli/249_ya.png,l,11.95416099,ambig,0.333,5.327868852,1.859402337,0.238072074
,,,,,,,,,,,,,,,,
176,20,1,1,4,23,95,847.2680189,853.0489004,stimuli/135_xa.png,l,5.769181902,harmless,0.333,6.508474576,1.179901828,0.153610134
,,,,,,,,,,,,,,,,
176,20,1,1,4,24,96,853.6600655,866.8168944,stimuli/110_xa.png,l,13.14505486,harmless,0.333,6.428571429,1.059281795,0.141552484
,,,,,,,,,,,,,,,,
176,20,1,1,5,1,97,875.4673592,882.3769312,stimuli/331_za.png,l,6.898117413,awful,0.25,1.983606557,1.638004917,0.209725039
,,,,,,,,,,,,,,,,
176,20,1,1,5,2,98,882.974526,892.7049443,stimuli/348_za.png,a,9.718875095,awful,0.25,3.084745763,2.119597681,0.275948114
,,,,,,,,,,,,,,,,
176,20,1,1,5,3,99,893.3689511,901.2329157,stimuli/133_xa.png,l,7.852060605,harmless,0.25,6.568965517,1.186356193,0.1557762
,,,,,,,,,,,,,,,,
176,20,1,1,5,4,100,901.8115669,908.7531185,stimuli/231_xb.png,l,6.929634195,harmless,0.25,6.62295082,1.05141071,0.134619347
,,,,,,,,,,,,,,,,
176,20,1,1,5,5,101,909.366154,914.7689334,stimuli/139_xa.png,l,5.391104582,harmless,0.25,6.724137931,0.790138861,0.103750315
,,,,,,,,,,,,,,,,
176,20,1,1,5,6,102,915.3887458,923.5929647,stimuli/189_yb.png,l,8.192367648,ambig,0.25,5.983333333,1.455459234,0.187898979
,,,,,,,,,,,,,,,,
176,20,1,1,5,7,103,924.2521583,930.8729416,stimuli/173_yb.png,l,6.608875726,ambig,0.25,5.796610169,1.242628763,0.161776485
,,,,,,,,,,,,,,,,
176,20,1,1,5,8,104,931.4467543,937.9930309,stimuli/174_xc.png,l,6.534472994,harmless,0.25,6.533333333,1.111826512,0.143536185
,,,,,,,,,,,,,,,,
176,20,1,1,5,9,105,938.5966653,945.8329866,stimuli/309_ya.png,l,7.22415067,ambig,0.25,4.706896552,1.946734744,0.255618795
,,,,,,,,,,,,,,,,
176,20,1,1,5,10,106,946.4168972,958.8649709,stimuli/248_zb.png,a,12.43635007,awful,0.25,3.288135593,1.991800844,0.259310383
,,,,,,,,,,,,,,,,
176,20,1,1,5,11,107,959.4904209,964.2729975,stimuli/241_yb.png,l,4.76985538,ambig,0.25,5.508474576,1.442852555,0.187843403
,,,,,,,,,,,,,,,,
176,20,1,1,5,12,108,964.8790391,971.056975,stimuli/177_xb.png,l,6.166186305,harmless,0.25,6.482758621,1.063614811,0.139659467
,,,,,,,,,,,,,,,,
176,20,1,1,5,13,109,971.6693032,979.6490327,stimuli/357_za.png,l,7.967738061,awful,0.25,2.793103448,2.066937905,0.271402243
,,,,,,,,,,,,,,,,
176,20,1,1,5,14,110,980.2571633,986.3850134,stimuli/254_ya.png,l,6.116182366,ambig,0.25,5.983606557,1.627798137,0.208418195
,,,,,,,,,,,,,,,,
176,20,1,1,5,15,111,987.0115299,991.9530019,stimuli/264_xa.png,l,4.93000323,harmless,0.25,6.533333333,0.947193297,0.122282129
,,,,,,,,,,,,,,,,
176,20,1,1,5,16,112,992.5673111,998.9850193,stimuli/238_xb.png,l,6.406259797,harmless,0.25,6.4,1.076718178,0.139003719
,,,,,,,,,,,,,,,,
176,20,1,1,5,17,113,999.5918588,1007.408997,stimuli/347_zb.png,l,7.805374036,awful,0.25,3.796610169,2.147810923,0.279621165
,,,,,,,,,,,,,,,,
176,20,1,1,5,18,114,1008.0402,1018.13707,stimuli/329_zb.png,l,10.08525123,awful,0.25,2.406779661,1.992387617,0.259386774
,,,,,,,,,,,,,,,,
176,20,1,1,5,19,115,1018.755018,1027.417026,stimuli/285_yb.png,l,8.650388726,ambig,0.25,4.120689655,2.119893958,0.278355714
,,,,,,,,,,,,,,,,
176,20,1,1,5,20,116,1028.028973,1035.905128,stimuli/282_xc.png,l,7.864324986,harmless,0.25,6.55,0.998728005,0.128935231
,,,,,,,,,,,,,,,,
176,20,1,1,5,21,117,1036.552395,1042.10506,stimuli/260_ya.png,l,5.541677235,ambig,0.25,4.966101695,2.016877936,0.262575142
,,,,,,,,,,,,,,,,
176,20,1,1,5,22,118,1042.727061,1048.793128,stimuli/126_xa.png,l,6.054394145,harmless,0.25,6.6,0.977717855,0.126222832
,,,,,,,,,,,,,,,,
176,20,1,1,5,23,119,1049.43822,1055.353094,stimuli/240_xa.png,l,5.9030594,harmless,0.25,6.482758621,1.096107616,0.143925981
,,,,,,,,,,,,,,,,
176,20,1,1,5,24,120,1055.977555,1063.129058,stimuli/235_ya.png,l,7.140095153,ambig,0.25,5.694915254,1.567495667,0.204070554
,,,,,,,,,,,,,,,,
176,20,1,1,6,1,121,1071.715926,1080.313103,stimuli/204_xb.png,l,8.585003505,harmless,0.166,6.508474576,0.858484658,0.111765183
,,,,,,,,,,,,,,,,
176,20,1,1,6,2,122,1080.940358,1087.121072,stimuli/169_xc.png,l,6.169440265,harmless,0.166,6.603448276,0.916508538,0.120343467
,,,,,,,,,,,,,,,,
176,20,1,1,6,3,123,1087.732147,1091.3771,stimuli/114_xc.png,l,3.633076808,harmless,0.166,6.644067797,0.97843492,0.127381377
,,,,,,,,,,,,,,,,
176,20,1,1,6,4,124,1091.968874,1098.681171,stimuli/170_xc.png,l,6.700603767,harmless,0.166,6.583333333,1.062323432,0.137145365
,,,,,,,,,,,,,,,,
176,20,1,1,6,5,125,1099.296473,1102.257152,stimuli/136_xc.png,l,2.948915347,harmless,0.166,6.559322034,1.038420326,0.135190811
,,,,,,,,,,,,,,,,
176,20,1,1,6,6,126,1102.847924,1106.033168,stimuli/257_yb.png,l,3.173377549,ambig,0.166,5.620689655,1.843219782,0.242026615
,,,,,,,,,,,,,,,,
176,20,1,1,6,7,127,1106.654582,1110.345217,stimuli/242_xb.png,l,3.679116287,harmless,0.166,6.576271186,0.913564256,0.118935936
,,,,,,,,,,,,,,,,
176,20,1,1,6,8,128,1110.966743,1114.753153,stimuli/205_yb.png,l,3.775058093,ambig,0.166,5.847457627,1.52918233,0.199082582
,,,,,,,,,,,,,,,,
176,20,1,1,6,9,129,1115.365449,1118.801185,stimuli/147_ya.png,l,3.424004947,ambig,0.166,5.883333333,1.766847875,0.22809908
,,,,,,,,,,,,,,,,
176,20,1,1,6,10,130,1119.436423,1126.889139,stimuli/245_yb.png,l,7.441010453,ambig,0.166,4.949152542,2.096168334,0.272897873
,,,,,,,,,,,,,,,,
176,20,1,1,6,11,131,1127.534651,1133.145171,stimuli/207_yb.png,l,5.598661316,ambig,0.166,5.655737705,1.662179753,0.212820309
,,,,,,,,,,,,,,,,
176,20,1,1,6,12,132,1133.764307,1151.905182,stimuli/332_zb.png,a,18.12911392,awful,0.166,2.694915254,2.002190501,0.260663001
,,,,,,,,,,,,,,,,
176,20,1,1,6,13,133,1152.4645,1162.249239,stimuli/210_yb.png,l,9.772717068,ambig,0.166,5.557377049,1.76564049,0.226067099
,,,,,,,,,,,,,,,,
176,20,1,1,6,14,134,1162.852838,1167.921168,stimuli/185_xa.png,l,5.056603231,harmless,0.166,6.5,0.965506805,0.124646393
,,,,,,,,,,,,,,,,
176,20,1,1,6,15,135,1168.529998,1172.929211,stimuli/314_zb.png,l,4.387425268,awful,0.166,1.833333333,1.451669602,0.18740974
,,,,,,,,,,,,,,,,
176,20,1,1,6,16,136,1173.567484,1183.545205,stimuli/343_zb.png,l,9.965699511,awful,0.166,3.103448276,2.141401862,0.28117984
,,,,,,,,,,,,,,,,
176,20,1,1,6,17,137,1184.159279,1190.289205,stimuli/179_xb.png,l,6.118055895,harmless,0.166,6.704918033,0.882123617,0.112944356
,,,,,,,,,,,,,,,,
176,20,1,1,6,18,138,1190.906259,1199.089243,stimuli/370_za.png,a,8.171176341,awful,0.166,2.393442623,1.882185684,0.240989182
,,,,,,,,,,,,,,,,
176,20,1,1,6,19,139,1199.726295,1209.257266,stimuli/151_xa.png,l,9.518995219,harmless,0.166,6.610169492,0.947172729,0.123311386
,,,,,,,,,,,,,,,,
176,20,1,1,6,20,140,1209.82375,1214.689268,stimuli/232_yb.png,l,4.853745874,ambig,0.166,5.483333333,1.845669845,0.238274952
,,,,,,,,,,,,,,,,
176,20,1,1,6,21,141,1215.335104,1218.689251,stimuli/144_xa.png,l,3.3422235,harmless,0.166,6.542372881,1.00553698,0.130909764
,,,,,,,,,,,,,,,,
176,20,1,1,6,22,142,1219.251138,1222.113325,stimuli/103_xb.png,l,2.850214253,harmless,0.166,6.779661017,0.589207434,0.076708274
,,,,,,,,,,,,,,,,
176,20,1,1,6,23,143,1222.708644,1229.40123,stimuli/233_yb.png,a,6.681037471,ambig,0.166,5.318309859,1.922973646,0.102060844
,,,,,,,,,,,,,,,,
176,20,1,1,6,24,144,1230.019449,1235.793256,stimuli/130_xc.png,l,5.762090301,harmless,0.166,6.644067797,0.960651931,0.125066229
,,,,,,,,,,,,,,,,
176,20,1,1,7,1,145,1244.318902,1249.681333,stimuli/193_xc.png,l,5.350608099,harmless,0.083,6.482758621,1.012923151,0.133003326
,,,,,,,,,,,,,,,,
176,20,1,1,7,2,146,1250.273984,1254.88127,stimuli/111_xa.png,l,4.595548353,harmless,0.083,6.590163934,0.863655973,0.110579816
,,,,,,,,,,,,,,,,
176,20,1,1,7,3,147,1255.512056,1258.337291,stimuli/197_xa.png,l,2.813332493,harmless,0.083,6.779661017,0.55918033,0.072799078
,,,,,,,,,,,,,,,,
176,20,1,1,7,4,148,1258.938497,1263.169307,stimuli/227_xa.png,l,4.219095256,harmless,0.083,6.180327869,1.05685377,0.135316259
,,,,,,,,,,,,,,,,
176,20,1,1,7,5,149,1263.787502,1267.433298,stimuli/117_xc.png,l,3.634123652,harmless,0.083,6.627118644,0.868972939,0.113130641
,,,,,,,,,,,,,,,,
176,20,1,1,7,6,150,1268.01972,1283.497333,stimuli/353_zb.png,a,15.46590037,awful,0.083,1.949152542,1.623361018,0.211343603
,,,,,,,,,,,,,,,,
176,20,1,1,7,7,151,1284.069822,1291.969338,stimuli/220_yb.png,l,7.887697809,ambig,0.083,4.75,2.096203186,0.270618668
,,,,,,,,,,,,,,,,
176,20,1,1,7,8,152,1292.580681,1297.481286,stimuli/119_xc.png,l,4.888836814,harmless,0.083,6.694915254,0.914523379,0.119060803
,,,,,,,,,,,,,,,,
176,20,1,1,7,9,153,1298.105142,1302.265384,stimuli/150_xc.png,l,4.148428158,harmless,0.083,6.482758621,1.030097582,0.135258439
,,,,,,,,,,,,,,,,
176,20,1,1,7,10,154,1302.87664,1309.945339,stimuli/142_xa.png,l,7.056935244,harmless,0.083,6.4,1.076718178,0.139003719
,,,,,,,,,,,,,,,,
176,20,1,1,7,11,155,1310.581563,1317.465321,stimuli/246_ya.png,l,6.871979788,ambig,0.083,5.542372881,1.715266481,0.223308675
,,,,,,,,,,,,,,,,
176,20,1,1,7,12,156,1318.023641,1323.225372,stimuli/212_ya.png,l,5.189951793,ambig,0.083,5.677966102,1.490668422,0.194068498
,,,,,,,,,,,,,,,,
176,20,1,1,7,13,157,1323.831327,1329.209351,stimuli/261_yb.png,l,5.366346601,ambig,0.083,5.706896552,1.901141123,0.249632059
,,,,,,,,,,,,,,,,
176,20,1,1,7,14,158,1329.818888,1347.993395,stimuli/290_zb.png,a,18.16307137,awful,0.083,2.586206897,2.026443456,0.266085062
,,,,,,,,,,,,,,,,
176,20,1,1,7,15,159,1348.574237,1358.265386,stimuli/234_xb.png,l,9.679614503,harmless,0.083,6.637931034,0.788030542,0.103473479
,,,,,,,,,,,,,,,,
176,20,1,1,7,16,160,1358.886425,1362.401331,stimuli/161_xc.png,l,3.503511535,harmless,0.083,6.796610169,0.609682252,0.079373868
,,,,,,,,,,,,,,,,
176,20,1,1,7,17,161,1362.999888,1368.169351,stimuli/258_ya.png,l,5.157753263,ambig,0.083,5.627118644,1.78014243,0.231754804
,,,,,,,,,,,,,,,,
176,20,1,1,7,18,162,1368.799229,1374.185456,stimuli/224_yb.png,l,5.374472049,ambig,0.083,5.881355932,1.609077116,0.209483997
,,,,,,,,,,,,,,,,
176,20,1,1,7,19,163,1374.80133,1381.297435,stimuli/325_yb.png,a,6.484356415,ambig,0.083,5.131147541,1.811770863,0.231973488
,,,,,,,,,,,,,,,,
176,20,1,1,7,20,164,1381.875969,1389.385425,stimuli/279_ya.png,l,7.497553425,ambig,0.083,5.31147541,1.970964092,0.252356093
,,,,,,,,,,,,,,,,
176,20,1,1,7,21,165,1390.007073,1396.673418,stimuli/278_xb.png,l,6.654617457,harmless,0.083,6.360655738,1.140654591,0.146045855
,,,,,,,,,,,,,,,,
176,20,1,1,7,22,166,1397.254021,1403.47342,stimuli/280_xb.png,l,6.208045497,harmless,0.083,6.333333333,1.068289726,0.137915611
,,,,,,,,,,,,,,,,
176,20,1,1,7,23,167,1404.103232,1410.32944,stimuli/175_xb.png,l,6.214397454,harmless,0.083,6.6,1.028409995,0.13276716
,,,,,,,,,,,,,,,,
176,20,1,1,7,24,168,1410.9445,1414.121434,stimuli/121_xc.png,l,3.164807843,harmless,0.083,6.508474576,1.006408455,0.131023221
,,,,,,,,,,,,,,,,
176,20,1,1,8,1,169,1422.659012,1429.177455,stimuli/107_xa.png,l,6.506509889,harmless,0.0412,6.813559322,0.540580029,0.070377525
,,,,,,,,,,,,,,,,
176,20,1,1,8,2,170,1429.812602,1432.385495,stimuli/247_ya.png,l,2.561181303,ambig,0.0412,4.65,2.081598147,0.268733165
,,,,,,,,,,,,,,,,
176,20,1,1,8,3,171,1432.997064,1437.817442,stimuli/188_xa.png,l,4.808609485,harmless,0.0412,6.655172414,0.806807095,0.105938962
,,,,,,,,,,,,,,,,
176,20,1,1,8,4,172,1438.450083,1441.12146,stimuli/116_xa.png,l,2.659357006,harmless,0.0412,6.63559322,0.958030802,0.050918763
,,,,,,,,,,,,,,,,
176,20,1,1,8,5,173,1441.685421,1444.201466,stimuli/215_yb.png,l,2.504044804,ambig,0.0412,5.866666667,1.466769385,0.189359113
,,,,,,,,,,,,,,,,
176,20,1,1,8,6,174,1444.814849,1449.84153,stimuli/273_ya.png,l,5.014879128,ambig,0.0412,5.551724138,1.836973233,0.241206403
,,,,,,,,,,,,,,,,
176,20,1,1,8,7,175,1450.416801,1453.545428,stimuli/164_xb.png,l,3.116852694,harmless,0.0412,6.830508475,0.460604639,0.059965616
,,,,,,,,,,,,,,,,
176,20,1,1,8,8,176,1454.173604,1460.065475,stimuli/217_yb.png,l,5.880126897,ambig,0.0412,5.169491525,2.001314588,0.260548967
,,,,,,,,,,,,,,,,
176,20,1,1,8,9,177,1460.657248,1463.64946,stimuli/160_xb.png,l,2.980326578,harmless,0.0412,6.666666667,0.680644427,0.087870818
,,,,,,,,,,,,,,,,
176,20,1,1,8,10,178,1464.252658,1471.001506,stimuli/335_yb.png,l,6.737055446,ambig,0.0412,5.016949153,2.046793332,0.266469795
,,,,,,,,,,,,,,,,
176,20,1,1,8,11,179,1471.591071,1480.081492,stimuli/323_yb.png,l,8.478822084,ambig,0.0412,4.603448276,1.955107169,0.256718148
,,,,,,,,,,,,,,,,
176,20,1,1,8,12,180,1480.68827,1486.857525,stimuli/109_xb.png,l,6.157450789,harmless,0.0412,6.644067797,0.97843492,0.127381377
,,,,,,,,,,,,,,,,
176,20,1,1,8,13,181,1487.472664,1492.761568,stimuli/181_xa.png,l,5.277164384,harmless,0.0412,6.666666667,0.950765377,0.122743282
,,,,,,,,,,,,,,,,
176,20,1,1,8,14,182,1493.386295,1496.385488,stimuli/182_xb.png,l,2.987301994,harmless,0.0412,6.542372881,0.988241802,0.128658124
,,,,,,,,,,,,,,,,
176,20,1,1,8,15,183,1497.006634,1509.9935,stimuli/192_za.png,l,12.97503525,awful,0.0412,2.68852459,2.093967396,0.268105052
,,,,,,,,,,,,,,,,
176,20,1,1,8,16,184,1510.603327,1520.473532,stimuli/221_xb.png,l,9.858373965,harmless,0.0412,6.440677966,1.133672495,0.147591588
,,,,,,,,,,,,,,,,
176,20,1,1,8,17,185,1521.099197,1526.113531,stimuli/180_xc.png,l,5.002352445,harmless,0.0412,6.672131148,0.723908638,0.092687003
,,,,,,,,,,,,,,,,
176,20,1,1,8,18,186,1526.736483,1530.673533,stimuli/190_xc.png,l,3.924928517,harmless,0.0412,6.517241379,1.046990328,0.137476565
,,,,,,,,,,,,,,,,
176,20,1,1,8,19,187,1531.302226,1536.705513,stimuli/315_yb.png,l,5.391559475,ambig,0.0412,5.050847458,1.915667965,0.249398726
,,,,,,,,,,,,,,,,
176,20,1,1,8,20,188,1537.31964,1543.857588,stimuli/226_yb.png,l,6.525858782,ambig,0.0412,5.683333333,1.712285287,0.22105508
,,,,,,,,,,,,,,,,
176,20,1,1,8,21,189,1544.426615,1554.84956,stimuli/137_xa.png,l,10.4110021,harmless,0.0412,6.355932203,1.094858074,0.14253838
,,,,,,,,,,,,,,,,
176,20,1,1,8,22,190,1555.421519,1562.201565,stimuli/101_xa.png,l,6.768191772,harmless,0.0412,6.508522727,1.13475832,0.060482822
,,,,,,,,,,,,,,,,
176,20,1,1,8,23,191,1562.756649,1567.625575,stimuli/155_xb.png,l,4.857089632,harmless,0.0412,6.655737705,0.892286312,0.114245555
,,,,,,,,,,,,,,,,
176,20,1,1,8,24,192,1568.228809,1572.313942,stimuli/149_xa.png,l,4.073244823,harmless,0.0412,6.721311475,0.933294301,0.11949609
,,,,,,,,,,,,,,,,
176,20,1,1,9,1,193,1581.340139,1587.4256,stimuli/104_xc.png,l,6.073713894,harmless,0.0412,6.745762712,0.756425814,0.098478253
,,,,,,,,,,,,,,,,
176,20,1,1,9,2,194,1588.040422,1598.609588,stimuli/202_yb.png,l,10.55749648,ambig,0.0412,5.431034483,1.892849601,0.248543329
,,,,,,,,,,,,,,,,
176,20,1,1,9,3,195,1599.21784,1604.785669,stimuli/141_xc.png,l,5.556124314,harmless,0.0412,6.508474576,1.040107444,0.135410455
,,,,,,,,,,,,,,,,
176,20,1,1,9,4,196,1605.37277,1609.385721,stimuli/171_xa.png,l,4.001232346,harmless,0.0412,6.465517241,1.046556882,0.137419651
,,,,,,,,,,,,,,,,
176,20,1,1,9,5,197,1609.97108,1616.329692,stimuli/272_xb.png,l,6.347612503,harmless,0.0412,6.355932203,1.029943284,0.134087194
,,,,,,,,,,,,,,,,
176,20,1,1,9,6,198,1616.903361,1623.32965,stimuli/167_xb.png,l,6.415094563,harmless,0.0412,6.590163934,0.955284411,0.122311635
,,,,,,,,,,,,,,,,
176,20,1,1,9,7,199,1623.894489,1630.177651,stimuli/313_zb.png,a,6.271279135,awful,0.0412,2.101694915,1.688652955,0.219843889
,,,,,,,,,,,,,,,,
176,20,1,1,9,8,200,1630.783161,1642.681684,stimuli/296_yb.png,l,11.88672304,ambig,0.0412,4.229508197,2.052587332,0.262806878
,,,,,,,,,,,,,,,,
176,20,1,1,9,9,201,1643.254387,1648.849696,stimuli/108_xb.png,l,5.58341079,harmless,0.0412,6.568965517,1.077880782,0.141532681
,,,,,,,,,,,,,,,,
176,20,1,1,9,10,202,1649.451227,1657.137675,stimuli/198_yb.png,l,7.674826904,ambig,0.0412,5.101694915,1.83542643,0.238952168
,,,,,,,,,,,,,,,,
176,20,1,1,9,11,203,1657.755891,1662.001764,stimuli/148_xc.png,l,4.234227234,harmless,0.0412,6.491525424,1.135218061,0.147792803
,,,,,,,,,,,,,,,,
176,20,1,1,9,12,204,1662.616948,1665.16969,stimuli/196_xb.png,l,2.540933653,harmless,0.0412,6.594366197,0.982313556,0.05213579
,,,,,,,,,,,,,,,,
176,20,1,1,9,13,205,1665.786333,1670.689692,stimuli/213_ya.png,l,4.891951746,ambig,0.0412,5.98245614,1.597891781,0.211645937
,,,,,,,,,,,,,,,,
176,20,1,1,9,14,206,1671.257472,1685.465722,stimuli/312_yb.png,l,14.19634274,ambig,0.0412,4.677966102,2.112692986,0.275049199
,,,,,,,,,,,,,,,,
176,20,1,1,9,15,207,1686.078623,1694.001722,stimuli/214_xb.png,l,7.911456996,harmless,0.0412,6.465517241,0.940614156,0.12350869
,,,,,,,,,,,,,,,,
176,20,1,1,9,16,208,1694.618234,1699.329717,stimuli/237_ya.png,l,4.699767237,ambig,0.0412,4.305084746,2.019339575,0.26289562
,,,,,,,,,,,,,,,,
176,20,1,1,9,17,209,1699.936985,1707.089715,stimuli/262_ya.png,l,7.140818649,ambig,0.0412,5.491525424,1.7750462,0.231091332
,,,,,,,,,,,,,,,,
176,20,1,1,9,18,210,1707.711454,1715.545741,stimuli/168_xa.png,l,7.822780478,harmless,0.0412,6.474576271,1.164946827,0.151663159
,,,,,,,,,,,,,,,,
176,20,1,1,9,19,211,1716.18547,1731.929796,stimuli/156_xc.png,l,15.73235489,harmless,0.0412,6.590163934,0.955284411,0.122311635
,,,,,,,,,,,,,,,,
176,20,1,1,9,20,212,1732.544107,1744.201763,stimuli/253_ya.png,l,11.64587446,ambig,0.0412,5.491803279,1.849531029,0.236808182
,,,,,,,,,,,,,,,,
176,20,1,1,9,21,213,1744.780269,1749.897802,stimuli/134_xc.png,l,5.105544571,harmless,0.0412,6.516666667,0.965360505,0.124627505
,,,,,,,,,,,,,,,,
176,20,1,1,9,22,214,1750.513505,1758.649785,stimuli/187_xc.png,l,8.124538215,harmless,0.0412,6.224137931,1.185335891,0.155642228
,,,,,,,,,,,,,,,,
176,20,1,1,9,23,215,1759.29128,1761.873754,stimuli/184_xb.png,l,2.570613534,harmless,0.0412,6.508474576,1.194425,0.15550089
,,,,,,,,,,,,,,,,
176,20,1,1,9,24,216,1762.458961,1766.801781,stimuli/115_xb.png,l,4.33152584,harmless,0.0412,6.440677966,1.021681954,0.133011661
,,,,,,,,,,,,,,,,
176,20,1,1,10,1,217,1775.867371,1781.169827,stimuli/131_xb.png,l,5.291158145,harmless,0.0412,6.525423729,1.119666394,0.145768149
,,,,,,,,,,,,,,,,
176,20,1,1,10,2,218,1781.798343,1788.473797,stimuli/200_ya.png,l,6.66366805,ambig,0.0412,5.862068966,1.444266048,0.189641423
,,,,,,,,,,,,,,,,
176,20,1,1,10,3,219,1789.030741,1792.465806,stimuli/162_xa.png,l,3.423134152,harmless,0.0412,6.644067797,0.905209289,0.117848212
,,,,,,,,,,,,,,,,
176,20,1,1,10,4,220,1793.06184,1797.169868,stimuli/166_xa.png,l,4.096126913,harmless,0.0412,6.593220339,1.052397002,0.13701042
,,,,,,,,,,,,,,,,
176,20,1,1,10,5,221,1797.79161,1800.497811,stimuli/105_xa.png,l,2.694544437,harmless,0.0412,6.557377049,1.088187946,0.139328189
,,,,,,,,,,,,,,,,
176,20,1,1,10,6,222,1801.112377,1803.76181,stimuli/129_xa.png,l,2.637568234,harmless,0.0412,6.770491803,0.642740036,0.082294429
,,,,,,,,,,,,,,,,
176,20,1,1,10,7,223,1804.374078,1809.841863,stimuli/123_xc.png,l,5.456086111,harmless,0.0412,6.491525424,1.023396666,0.133234897
,,,,,,,,,,,,,,,,
176,20,1,1,10,8,224,1810.478781,1812.513863,stimuli/106_xc.png,l,2.023326349,harmless,0.0412,6.661016949,0.863237081,0.112383896
,,,,,,,,,,,,,,,,
176,20,1,1,10,9,225,1813.123464,1815.705904,stimuli/178_xa.png,l,2.57072775,harmless,0.0412,6.483333333,1.112207557,0.143585378
,,,,,,,,,,,,,,,,
176,20,1,1,10,10,226,1816.310357,1821.45782,stimuli/138_xc.png,l,5.135603334,harmless,0.0412,6.661016949,0.70978796,0.092406522
,,,,,,,,,,,,,,,,
176,20,1,1,10,11,227,1822.074971,1824.945823,stimuli/143_xb.png,l,2.858320796,harmless,0.0412,6.655172414,0.738697862,0.096995781
,,,,,,,,,,,,,,,,
176,20,1,1,10,12,228,1825.528527,1828.441895,stimuli/172_xb.png,l,2.90145802,harmless,0.0412,6.482758621,1.127664553,0.14806961
,,,,,,,,,,,,,,,,
176,20,1,1,10,13,229,1829.077476,1832.225864,stimuli/225_ya.png,l,3.136697439,ambig,0.0412,5.85,1.792876677,0.231459384
,,,,,,,,,,,,,,,,
176,20,1,1,10,14,230,1832.822886,1837.281862,stimuli/157_xc.png,l,4.44720881,harmless,0.0412,6.603448276,0.877389573,0.115206895
,,,,,,,,,,,,,,,,
176,20,1,1,10,15,231,1837.882371,1845.393865,stimuli/218_yb.png,l,7.499577403,ambig,0.0412,5.850282486,1.552723069,0.0825263
,,,,,,,,,,,,,,,,
176,20,1,1,10,16,232,1845.957331,1853.929882,stimuli/127_xb.png,l,7.960473561,harmless,0.0412,6.423728814,1.162686987,0.151368953
,,,,,,,,,,,,,,,,
176,20,1,1,10,17,233,1854.506309,1858.577878,stimuli/146_xa.png,l,4.059826865,harmless,0.0412,6.442622951,1.162247681,0.148810567
,,,,,,,,,,,,,,,,
176,20,1,1,10,18,234,1859.172646,1863.321821,stimuli/263_ya.png,l,4.137409907,ambig,0.0412,4.983050847,2.071910042,0.269739712
,,,,,,,,,,,,,,,,
176,20,1,1,10,19,235,1863.943625,1868.857892,stimuli/298_za.png,a,4.902679338,awful,0.0412,2.881355932,2.026418156,0.263817173
,,,,,,,,,,,,,,,,
176,20,1,1,10,20,236,1869.44465,1876.001901,stimuli/287_ya.png,l,6.545532205,ambig,0.0412,5.950819672,1.407435369,0.180203633
,,,,,,,,,,,,,,,,
176,20,1,1,10,21,237,1876.623317,1884.721931,stimuli/120_xa.png,l,8.086716738,harmless,0.0412,6.440677966,1.054893138,0.137335389
,,,,,,,,,,,,,,,,
176,20,1,1,10,22,238,1885.33502,1895.865938,stimuli/275_yb.png,l,10.5192847,ambig,0.0412,4.836065574,2.138382004,0.27379176
,,,,,,,,,,,,,,,,
176,20,1,1,10,23,239,1896.471968,1906.577938,stimuli/336_ya.png,l,10.09431089,ambig,0.0412,5.033898305,1.884291705,0.245313885
,,,,,,,,,,,,,,,,
176,20,1,1,10,24,240,1907.175964,1914.161908,stimuli/203_yb.png,l,6.974239679,ambig,0.0412,6,1.542501327,0.200816568
