id,age,condition,counterbalance,block,trialinblock,trial,tstart,tend,trialstim,response,RT,trialtype,ethicfreq,norm_mean,norm_sd,norm_se
166,28,0,2,0,0,practice,4.332308890298009e-06,26.903915023838636,stimuli/prac_217_1.png,a,26.888334879186004,harmless,NA,NA,NA,NA
166,28,0,2,1,1,1,4.8200628971681,22.71977755590342,stimuli/342_yb.png,a,17.888245476206066,ambig,0.333,4.916666667,2.085394461,0.269223267
166,28,0,2,1,2,2,23.295969185506692,29.07178232932347,stimuli/337_zb.png,a,5.763786669529509,awful,0.333,3.033333333,2.20143764,0.284204377
166,28,0,2,1,3,3,29.712226744857617,33.02373432737659,stimuli/128_xc.png,a,3.2995098589453846,harmless,0.333,6.627118644,0.98082135,0.127692063
166,28,0,2,1,4,4,33.701490903127706,49.823764653498074,stimuli/277_yb.png,l,16.110631275660126,ambig,0.333,5.491525424,2.02886822,0.264136144
166,28,0,2,1,5,5,50.38794831954874,54.98372786832624,stimuli/191_ya.png,a,4.58385271744919,ambig,0.333,5.517241379,2.062542966,0.270825159
166,28,0,2,1,6,6,55.603962088382104,59.47970768765663,stimuli/138_xc.png,a,3.863950312428642,harmless,0.333,6.661016949,0.70978796,0.092406522
166,28,0,2,1,7,7,60.10414069745457,69.60778042310267,stimuli/305_zb.png,l,9.492026001709746,awful,0.333,2.75,2.12830003,0.274762352
166,28,0,2,1,8,8,70.21610907951253,79.13574012479512,stimuli/254_ya.png,a,8.907961789082037,ambig,0.333,5.983606557,1.627798137,0.208418195
166,28,0,2,1,9,9,79.75121747571393,89.31177657915396,stimuli/225_ya.png,a,9.549000911734765,ambig,0.333,5.85,1.792876677,0.231459384
166,28,0,2,1,10,10,89.95017732903943,94.59971800641506,stimuli/255_xb.png,a,4.637739876692649,harmless,0.333,6.770491803,0.642740036,0.082294429
166,28,0,2,1,11,11,95.29215124464827,101.70392605150118,stimuli/204_xb.png,a,6.400103975291131,harmless,0.333,6.508474576,0.858484658,0.111765183
166,28,0,2,1,12,12,102.2818529655342,114.56766053644242,stimuli/267_ya.png,a,12.274057182454271,ambig,0.333,5.103448276,1.898195405,0.249245267
166,28,0,2,1,13,13,115.13606229063589,120.03177075023996,stimuli/203_yb.png,a,4.883994698844617,ambig,0.333,6,1.542501327,0.200816568
166,28,0,2,1,14,14,120.65967984276358,123.50373188554659,stimuli/132_xc.png,a,2.832397752732504,harmless,0.333,6.627118644,0.692280217,0.090127208
166,28,0,2,1,15,15,124.13573933709995,126.91166984697338,stimuli/240_xa.png,a,2.7631978701101616,harmless,0.333,6.482758621,1.096107616,0.143925981
166,28,0,2,1,16,16,127.52595581443165,132.4956674996356,stimuli/243_ya.png,a,4.958174367347965,ambig,0.333,5.830508475,1.652088985,0.215083666
166,28,0,2,1,17,17,133.111705293064,147.07974234607536,stimuli/211_zb.png,a,13.956312658381648,awful,0.333,3.983333333,2.127237938,0.274625237
166,28,0,2,1,18,18,147.71514711121563,154.08766455366276,stimuli/324_za.png,a,6.360598488012329,awful,0.333,2.491525424,1.994586478,0.259673041
166,28,0,2,1,19,19,154.7160474426346,202.99168394663138,stimuli/332_zb.png,l,48.2640089954366,awful,0.333,2.694915254,2.002190501,0.260663001
166,28,0,2,1,20,20,203.60816284734756,211.63158800581004,stimuli/318_za.png,a,8.011997723573586,awful,0.333,3.06557377,2.197489875,0.281359747
166,28,0,2,1,21,21,212.20384314697003,217.6956226012262,stimuli/153_xb.png,a,5.479651367728366,harmless,0.333,6.633333333,0.973664521,0.125699549
166,28,0,2,1,22,22,218.301846545859,221.7835809638491,stimuli/104_xc.png,a,3.4701088786532637,harmless,0.333,6.745762712,0.756425814,0.098478253
166,28,0,2,1,23,23,222.3503718888387,233.78370305604767,stimuli/229_za.png,a,11.421625677176053,awful,0.333,3.406779661,2.043649913,0.266060557
166,28,0,2,1,24,24,234.4475702669879,243.92758397283615,stimuli/354_zb.png,a,9.468621717067435,awful,0.333,2,1.701925887,0.221571878
166,28,0,2,2,1,25,267.9866230285552,324.51169505307917,stimuli/176_xb.png,a,56.51332360532251,harmless,0.333,6.796610169,0.517942249,0.067430337
166,28,0,2,2,2,26,325.0996937848977,330.855504683801,stimuli/189_yb.png,a,5.744385433208663,ambig,0.333,5.983333333,1.455459234,0.187898979
166,28,0,2,2,3,27,331.4684370033792,340.39950690508704,stimuli/248_zb.png,a,8.919330540957162,awful,0.333,3.288135593,1.991800844,0.259310383
166,28,0,2,2,4,28,341.02744947449537,350.50355583647615,stimuli/202_yb.png,a,9.464515481085982,ambig,0.333,5.431034483,1.892849601,0.248543329
166,28,0,2,2,5,29,351.14044224939425,366.83152065819013,stimuli/291_za.png,a,15.679466654080898,awful,0.333,2.593220339,1.830005126,0.238246374
166,28,0,2,2,6,30,367.477829043346,372.14343153877417,stimuli/137_xa.png,a,4.653817448561313,harmless,0.333,6.355932203,1.094858074,0.14253838
166,28,0,2,2,7,31,372.76829423429444,376.71144299180014,stimuli/212_ya.png,a,3.931549212022219,ambig,0.333,5.677966102,1.490668422,0.194068498
166,28,0,2,2,8,32,377.35570928666857,381.3915031714423,stimuli/347_zb.png,a,4.0240029302367475,awful,0.333,3.796610169,2.147810923,0.279621165
166,28,0,2,2,9,33,382.0034028273949,385.51140557645704,stimuli/168_xa.png,a,3.496749000129057,harmless,0.333,6.474576271,1.164946827,0.151663159
166,28,0,2,2,10,34,386.1318398701842,395.3674360443547,stimuli/367_zb.png,a,9.223855238058604,awful,0.333,3.413793103,2.086165649,0.27392697
166,28,0,2,2,11,35,395.9906067784759,399.5834001886542,stimuli/262_ya.png,a,3.581169840093935,ambig,0.333,5.491525424,1.7750462,0.231091332
166,28,0,2,2,12,36,400.21088156464975,405.0554566346109,stimuli/350_ya.png,a,4.832984582899371,ambig,0.333,4.915254237,2.02814792,0.264042369
166,28,0,2,2,13,37,405.6904514063208,415.2314158952213,stimuli/355_zb.png,a,9.529428352572722,awful,0.333,3.183333333,2.070713188,0.267327923
166,28,0,2,2,14,38,415.86569426144706,418.76739902285044,stimuli/312_yb.png,a,2.8898267669428606,ambig,0.333,4.677966102,2.112692986,0.275049199
166,28,0,2,2,15,39,419.4127834458486,425.7193904055166,stimuli/352_zb.png,a,6.294730934430845,awful,0.333,2.93442623,2.135952968,0.273480754
166,28,0,2,2,16,40,426.34248473355547,449.62338774310774,stimuli/292_zb.png,a,23.269426737795584,awful,0.333,2.396551724,1.955107169,0.256718148
166,28,0,2,2,17,41,450.2130229040922,459.4713825758663,stimuli/102_xc.png,a,9.24663448947831,harmless,0.333,6.66011236,0.937292468,0.049676401
166,28,0,2,2,18,42,460.1285284149635,467.09541307526524,stimuli/224_yb.png,a,6.955653360579163,ambig,0.333,5.881355932,1.609077116,0.209483997
166,28,0,2,2,19,43,467.6695003869536,471.47131522823474,stimuli/186_xa.png,a,3.789682422473561,harmless,0.333,6.65,0.879618561,0.113558268
166,28,0,2,2,20,44,472.0398146561638,474.6553522654867,stimuli/264_xa.png,a,2.6035780887759756,harmless,0.333,6.533333333,0.947193297,0.122282129
166,28,0,2,2,21,45,475.2725507224095,478.07935834646923,stimuli/135_xa.png,a,2.7951686939923093,harmless,0.333,6.508474576,1.179901828,0.153610134
166,28,0,2,2,22,46,478.6967470308882,484.10328959673643,stimuli/181_xa.png,a,5.395163573994068,harmless,0.333,6.666666667,0.950765377,0.122743282
166,28,0,2,2,23,47,484.7302664563467,487.8953709337802,stimuli/356_za.png,a,3.1535214734612964,awful,0.333,3.033333333,2.178217796,0.281206708
166,28,0,2,2,24,48,488.4567748364061,496.34333071424044,stimuli/284_ya.png,a,7.874596751149511,ambig,0.333,5.948275862,1.431750417,0.18799804
166,28,0,2,3,1,49,505.57646495854715,511.63930580744636,stimuli/177_xb.png,a,6.05128383875126,harmless,0.333,6.482758621,1.063614811,0.139659467
166,28,0,2,3,2,50,512.2833814809565,526.1915728821186,stimuli/331_za.png,l,13.89648472960107,awful,0.333,1.983606557,1.638004917,0.209725039
166,28,0,2,3,3,51,526.8565310458653,533.5193829224445,stimuli/183_xb.png,a,6.650899051426677,harmless,0.333,6.448275862,1.095003225,0.143780967
166,28,0,2,3,4,52,534.1120676311839,537.7753046889266,stimuli/233_yb.png,a,3.6513563063635956,ambig,0.333,5.318309859,1.922973646,0.102060844
166,28,0,2,3,5,53,538.3427824809332,564.4312985291763,stimuli/370_za.png,a,26.07693304424174,awful,0.333,2.393442623,1.882185684,0.240989182
166,28,0,2,3,6,54,565.0388489463658,571.511236616614,stimuli/281_ya.png,a,6.460755041713128,ambig,0.333,5.881355932,1.543448286,0.200939852
166,28,0,2,3,7,55,572.1762176234042,575.5512450449169,stimuli/286_ya.png,a,3.36358108202694,ambig,0.333,5.06779661,1.779814082,0.231712057
166,28,0,2,3,8,56,576.2163497192669,587.3192360179673,stimuli/328_za.png,a,11.090471492469078,awful,0.333,2.706896552,1.955725922,0.256799395
166,28,0,2,3,9,57,587.9419498909847,591.6952452969854,stimuli/238_xb.png,a,3.741646629758179,harmless,0.333,6.4,1.076718178,0.139003719
166,28,0,2,3,10,58,592.2629381287843,596.4232254786475,stimuli/207_yb.png,a,4.148286081675906,ambig,0.333,5.655737705,1.662179753,0.212820309
166,28,0,2,3,11,59,597.0430284376198,603.6713128651609,stimuli/182_xb.png,a,6.6168258788238745,harmless,0.333,6.542372881,0.988241802,0.128658124
166,28,0,2,3,12,60,604.2667698542355,622.7192387748801,stimuli/278_xb.png,a,18.440296329557896,harmless,0.333,6.360655738,1.140654591,0.146045855
166,28,0,2,3,13,61,623.3409077750985,633.3352072514826,stimuli/257_yb.png,a,9.982818872318603,ambig,0.333,5.620689655,1.843219782,0.242026615
166,28,0,2,3,14,62,633.9780494000588,641.7672135214962,stimuli/294_za.png,l,7.777525191369932,awful,0.333,1.557377049,1.38473331,0.177296933
166,28,0,2,3,15,63,642.3269723303674,653.1032190983533,stimuli/288_yb.png,a,10.764301032060757,ambig,0.333,5.189655172,1.914459262,0.251380817
166,28,0,2,3,16,64,653.7307020497683,660.4391663860297,stimuli/364_za.png,a,6.696610366401728,awful,0.333,1.677966102,1.279017376,0.166513879
166,28,0,2,3,17,65,661.0500751260552,668.1352100083895,stimuli/336_ya.png,a,7.0734376630571205,ambig,0.333,5.033898305,1.884291705,0.245313885
166,28,0,2,3,18,66,668.7809481048898,673.6951432909118,stimuli/338_zb.png,a,4.902191554749152,awful,0.333,3.310344828,2.137443107,0.28066003
166,28,0,2,3,19,67,674.2868288129685,680.415173301968,stimuli/162_xa.png,a,6.116625608236063,harmless,0.333,6.644067797,0.905209289,0.117848212
166,28,0,2,3,20,68,681.063213033136,687.4631259932066,stimuli/219_ya.png,a,6.388305931497598,ambig,0.333,5.271186441,1.998538332,0.260187529
166,28,0,2,3,21,69,688.0951295063132,692.3191265288333,stimuli/341_zb.png,a,4.212680652126437,awful,0.333,3.603448276,2.15975677,0.283589957
166,28,0,2,3,22,70,692.9157705690886,705.6871797295462,stimuli/346_zb.png,l,12.759516199876089,awful,0.333,1.288135593,0.983499162,0.128040685
166,28,0,2,3,23,71,706.3031218184624,710.1991248746926,stimuli/110_xa.png,a,3.883978551166365,harmless,0.333,6.428571429,1.059281795,0.141552484
166,28,0,2,3,24,72,710.8612335642974,714.7511170450307,stimuli/143_xb.png,a,3.878209892223822,harmless,0.333,6.655172414,0.738697862,0.096995781
166,28,0,2,4,1,73,801.8138960601646,811.4790732021211,stimuli/222_ya.png,l,9.653404698183294,ambig,0.333,5.931034483,1.543089507,0.202617579
166,28,0,2,4,2,74,812.0877311135991,820.126953819592,stimuli/313_zb.png,l,8.02744514218648,awful,0.333,2.101694915,1.688652955,0.219843889
166,28,0,2,4,3,75,820.7397096962668,827.7670867031557,stimuli/210_yb.png,l,7.015648279979359,ambig,0.333,5.557377049,1.76564049,0.226067099
166,28,0,2,4,4,76,828.3838259359181,831.3909569073585,stimuli/368_za.png,l,2.995445961423684,awful,0.333,3.590163934,2.02794682,0.259651984
166,28,0,2,4,5,77,832.0398906684131,836.4310500124993,stimuli/145_xa.png,l,4.379213214328047,harmless,0.333,6.661016949,0.822321556,0.107057148
166,28,0,2,4,6,78,837.075277710479,842.703029658529,stimuli/148_xc.png,l,5.615974778105738,harmless,0.333,6.491525424,1.135218061,0.147792803
166,28,0,2,4,7,79,843.3497921478702,846.6149598375778,stimuli/150_xc.png,l,3.2532436152687296,harmless,0.333,6.482758621,1.030097582,0.135258439
166,28,0,2,4,8,80,847.266319688526,850.7269652411342,stimuli/139_xa.png,l,3.448347324709175,harmless,0.333,6.724137931,0.790138861,0.103750315
166,28,0,2,4,9,81,851.3480273250025,858.4549958350544,stimuli/218_yb.png,l,7.095268140023109,ambig,0.333,5.850282486,1.552723069,0.0825263
166,28,0,2,4,10,82,859.0726318546222,862.0549536935578,stimuli/247_ya.png,l,2.9705919304687995,ambig,0.333,4.65,2.081598147,0.268733165
166,28,0,2,4,11,83,862.6184461602825,867.4789952206775,stimuli/156_xc.png,l,4.848649010556983,harmless,0.333,6.590163934,0.955284411,0.122311635
166,28,0,2,4,12,84,868.1347054919752,874.7029973632016,stimuli/271_ya.png,l,6.5564205721602775,ambig,0.333,5.711864407,1.771915459,0.230683744
166,28,0,2,4,13,85,875.3191989964689,891.2869127021113,stimuli/269_za.png,l,15.956653728848323,awful,0.333,3.457627119,2.119873401,0.27598401
166,28,0,2,4,14,86,891.9241346716008,899.0309558833542,stimuli/171_xa.png,l,7.0951960662787315,harmless,0.333,6.465517241,1.046556882,0.137419651
166,28,0,2,4,15,87,899.6422060876503,905.214932662202,stimuli/163_xa.png,l,5.5612156443239655,harmless,0.333,6.627118644,0.963082427,0.125382652
166,28,0,2,4,16,88,905.8024178191554,928.7429002408171,stimuli/369_za.png,l,22.928884845401626,awful,0.333,2.948275862,2.055565093,0.26990892
166,28,0,2,4,17,89,929.4082971487369,935.4549477858818,stimuli/362_zb.png,a,6.0350258855032735,awful,0.333,1.474576271,1.222715071,0.159183944
166,28,0,2,4,18,90,936.0843180461961,945.1835191300488,stimuli/344_za.png,l,9.087357747834176,awful,0.333,2.711864407,2.043077863,0.265986082
166,28,0,2,4,19,91,945.8718575538369,964.3109164200141,stimuli/118_xb.png,l,18.4274266314751,harmless,0.333,6.474576271,0.953323265,0.124112118
166,28,0,2,4,20,92,964.9239625610062,973.4228674728656,stimuli/275_yb.png,l,8.487087175803026,ambig,0.333,4.836065574,2.138382004,0.27379176
166,28,0,2,4,21,93,974.0494823881891,989.4068434640067,stimuli/319_ya.png,l,15.345664644264616,ambig,0.333,4.216666667,2.108028774,0.272145344
166,28,0,2,4,22,94,990.0504228918871,999.6788105070009,stimuli/200_ya.png,l,9.615933030465385,ambig,0.333,5.862068966,1.444266048,0.189641423
166,28,0,2,4,23,95,1000.3186948738876,1011.4548879213398,stimuli/333_za.png,l,11.124644308059942,awful,0.333,3.266666667,2.185209657,0.282109354
166,28,0,2,4,24,96,1012.0858304139401,1016.9987971950322,stimuli/365_zb.png,l,4.901347937149694,awful,0.333,2.966101695,2.165291266,0.281896912
166,28,0,2,5,1,97,1026.643970122852,1040.9027492403693,stimuli/134_xc.png,l,14.246851104660891,harmless,0.333,6.516666667,0.965360505,0.124627505
166,28,0,2,5,2,98,1041.5490639270574,1046.486804000684,stimuli/310_zb.png,l,4.925769525405485,awful,0.333,3.224137931,2.102989547,0.276136056
166,28,0,2,5,3,99,1047.1072863435838,1051.6228095775296,stimuli/287_ya.png,l,4.503898482304066,ambig,0.333,5.950819672,1.407435369,0.180203633
166,28,0,2,5,4,100,1052.2591820217203,1064.8708138625661,stimuli/216_xa.png,l,12.60002126765903,harmless,0.333,6.603448276,0.877389573,0.115206895
166,28,0,2,5,5,101,1065.5209303424635,1067.8707350934274,stimuli/179_xb.png,l,2.337943298043683,harmless,0.333,6.704918033,0.882123617,0.112944356
166,28,0,2,5,6,102,1068.5018800227554,1078.1828298999753,stimuli/236_yb.png,l,9.669295981002506,ambig,0.333,5.93442623,1.49297078,0.19115532
166,28,0,2,5,7,103,1078.7538881438377,1087.8307821973576,stimuli/276_ya.png,l,9.064785659284098,ambig,0.333,5.186440678,1.804922162,0.234980851
166,28,0,2,5,8,104,1088.4606711525703,1094.1107340694289,stimuli/108_xb.png,l,5.638176257809391,harmless,0.333,6.568965517,1.077880782,0.141532681
166,28,0,2,5,9,105,1094.7305023699591,1098.1907623475417,stimuli/116_xa.png,l,3.448492653784342,harmless,0.333,6.63559322,0.958030802,0.050918763
166,28,0,2,5,10,106,1098.795993800857,1103.9107045309793,stimuli/270_yb.png,l,5.10286621254636,ambig,0.333,5.534482759,1.912246013,0.251090203
166,28,0,2,5,11,107,1104.5454035245057,1115.9667255466047,stimuli/321_zb.png,a,11.409443239943357,awful,0.333,2.918032787,2.177881861,0.278849198
166,28,0,2,5,12,108,1116.5862965304113,1135.1426950471941,stimuli/187_xc.png,l,18.544699722144287,harmless,0.333,6.224137931,1.185335891,0.155642228
166,28,0,2,5,13,109,1135.768167809787,1147.2787029871251,stimuli/371_zb.png,l,11.498924210318364,awful,0.333,3.131147541,2.085468851,0.267016925
166,28,0,2,5,14,110,1147.907972029061,1154.4787151963392,stimuli/165_xb.png,l,6.559008926531533,harmless,0.333,6.557377049,1.008705278,0.129151477
166,28,0,2,5,15,111,1155.0533507413056,1158.7906516768853,stimuli/349_za.png,l,3.7256962700921576,awful,0.333,3.288135593,2.101320172,0.273568585
166,28,0,2,5,16,112,1159.4160740272491,1168.590837178228,stimuli/296_yb.png,l,9.163086805550847,ambig,0.333,4.229508197,2.052587332,0.262806878
166,28,0,2,5,17,113,1169.1667566604156,1183.0386839249695,stimuli/357_za.png,l,13.860167423816165,awful,0.333,2.793103448,2.066937905,0.271402243
166,28,0,2,5,18,114,1183.6538395039097,1187.7666771035583,stimuli/309_ya.png,l,4.101205758808646,ambig,0.333,4.706896552,1.946734744,0.255618795
166,28,0,2,5,19,115,1188.3922869244998,1195.0946730390715,stimuli/256_zb.png,l,6.691146544093499,awful,0.333,3.051724138,2.012438634,0.264246138
166,28,0,2,5,20,116,1195.739267013647,1200.3906024461612,stimuli/242_xb.png,l,4.639410570438486,harmless,0.333,6.576271186,0.913564256,0.118935936
166,28,0,2,5,21,117,1200.9991922223126,1212.806575255061,stimuli/260_ya.png,l,11.795746465737466,ambig,0.333,4.966101695,2.016877936,0.262575142
166,28,0,2,5,22,118,1213.4351401007734,1217.6946175068151,stimuli/258_ya.png,l,4.247870771330781,ambig,0.333,5.627118644,1.78014243,0.231754804
166,28,0,2,5,23,119,1218.3031718368584,1224.41460104406,stimuli/302_za.png,l,6.0997950032760855,awful,0.333,3.137931034,2.188071937,0.287307921
166,28,0,2,5,24,120,1224.9962533452199,1250.9106312756776,stimuli/298_za.png,l,25.902502692915732,awful,0.333,2.881355932,2.026418156,0.263817173
166,28,0,2,6,1,121,1260.030925163388,1269.6945706391707,stimuli/146_xa.png,l,9.65181277357624,harmless,0.333,6.442622951,1.162247681,0.148810567
166,28,0,2,6,2,122,1270.3142377213517,1273.3426202164846,stimuli/227_xa.png,l,3.0165096206765156,harmless,0.333,6.180327869,1.05685377,0.135316259
166,28,0,2,6,3,123,1273.9796039093053,1276.6866401608277,stimuli/112_xc.png,l,2.695490269048605,harmless,0.333,6.706896552,0.749470472,0.098410294
166,28,0,2,6,4,124,1277.3115552378295,1294.1666038482508,stimuli/372_zb.png,l,16.843404954182915,awful,0.333,2.796610169,2.082601664,0.271131643
166,28,0,2,6,5,125,1294.8177967086085,1314.8865865978005,stimuli/366_za.png,l,20.056837851705495,awful,0.333,3.689655172,2.036568291,0.267414518
166,28,0,2,6,6,126,1315.5066183811578,1317.886514130194,stimuli/184_xb.png,l,2.368278086622013,harmless,0.333,6.508474576,1.194425,0.15550089
166,28,0,2,6,7,127,1318.4587980220967,1321.7984427338233,stimuli/289_yb.png,l,3.3281609568803106,ambig,0.333,5.305084746,1.714584873,0.223219937
166,28,0,2,6,8,128,1322.4280150370323,1326.4705086321046,stimuli/323_yb.png,l,4.030774320475757,ambig,0.333,4.603448276,1.955107169,0.256718148
166,28,0,2,6,9,129,1327.0903186802752,1332.4784997626848,stimuli/115_xb.png,l,5.376566964609083,harmless,0.333,6.440677966,1.021681954,0.133011661
166,28,0,2,6,10,130,1333.0946490144997,1337.6385169343848,stimuli/126_xa.png,l,4.532223869813606,harmless,0.333,6.6,0.977717855,0.126222832
166,28,0,2,6,11,131,1338.2602119283983,1347.3905008339498,stimuli/167_xb.png,l,9.118681876978371,harmless,0.333,6.590163934,0.955284411,0.122311635
166,28,0,2,6,12,132,1348.0080939243198,1357.6945186515513,stimuli/217_yb.png,l,9.674705846467987,ambig,0.333,5.169491525,2.001314588,0.260548967
166,28,0,2,6,13,133,1358.3306736928644,1365.0384208360047,stimuli/301_za.png,l,6.6958293702628,awful,0.333,3.610169492,2.212947396,0.288101212
166,28,0,2,6,14,134,1365.6677733732504,1371.2705519551237,stimuli/213_ya.png,l,5.59105536880088,ambig,0.333,5.98245614,1.597891781,0.211645937
166,28,0,2,6,15,135,1371.8580926443392,1377.6224492086621,stimuli/215_yb.png,l,5.753077609289903,ambig,0.333,5.866666667,1.466769385,0.189359113
166,28,0,2,6,16,136,1378.2429508499918,1380.7104603465996,stimuli/158_xa.png,l,2.455832757317694,harmless,0.333,6.786885246,0.661179605,0.084655374
166,28,0,2,6,17,137,1381.3378369596612,1388.9504010334495,stimuli/303_zb.png,l,7.600691199331777,awful,0.333,3.620689655,2.158846233,0.283470398
166,28,0,2,6,18,138,1389.535305712925,1415.590424821712,stimuli/361_za.png,l,26.043493963312358,awful,0.333,2.416666667,1.907093508,0.246204713
166,28,0,2,6,19,139,1416.207783180027,1423.630403317744,stimuli/249_ya.png,l,7.410921343078371,ambig,0.333,5.327868852,1.859402337,0.238072074
166,28,0,2,6,20,140,1424.2307262712857,1429.1344274368603,stimuli/345_zb.png,l,4.891934235638473,awful,0.333,3.694915254,2.191317013,0.285285176
166,28,0,2,6,21,141,1429.74389509522,1434.4783674305072,stimuli/279_ya.png,l,4.72305632190546,ambig,0.333,5.31147541,1.970964092,0.252356093
166,28,0,2,6,22,142,1435.0587680898025,1439.4703475491842,stimuli/266_zb.png,l,4.400102793733822,awful,0.333,3.491525424,1.888010094,0.245797978
166,28,0,2,6,23,143,1440.046063806949,1457.9823966696276,stimuli/295_za.png,l,17.92449228357873,awful,0.333,2.3,1.825432384,0.235662307
166,28,0,2,6,24,144,1458.6075842879072,1463.2143560720142,stimuli/330_ya.png,l,4.595129309425829,ambig,0.333,4.796610169,2.049219036,0.266785595
166,28,0,2,7,1,145,1473.300219962839,1476.502335702302,stimuli/297_za.png,l,3.1902889449556824,awful,0.333,1.898305085,1.446695584,0.188343723
166,28,0,2,7,2,146,1477.1333703548298,1483.4623623262742,stimuli/304_ya.png,l,6.317288450663909,ambig,0.333,4.034482759,2.017167697,0.264867095
166,28,0,2,7,3,147,1484.0904356524698,1494.8623544493748,stimuli/316_za.png,l,10.760110513132531,awful,0.333,2.344827586,1.802062407,0.236622386
166,28,0,2,7,4,148,1495.484007695748,1506.6063176799216,stimuli/121_xc.png,l,11.11043198974221,harmless,0.333,6.508474576,1.006408455,0.131023221
166,28,0,2,7,5,149,1507.2146959608945,1510.942329164478,stimuli/190_xc.png,l,3.7158670613134746,harmless,0.333,6.517241379,1.046990328,0.137476565
166,28,0,2,7,6,150,1511.5380709040328,1518.3983407277847,stimuli/228_ya.png,l,6.848725810501492,ambig,0.333,5.442622951,1.793735303,0.229664272
166,28,0,2,7,7,151,1518.9803793916071,1521.7822856051207,stimuli/129_xa.png,l,2.790219628077466,harmless,0.333,6.770491803,0.642740036,0.082294429
166,28,0,2,7,8,152,1522.3909368212335,1525.5742976252805,stimuli/245_yb.png,l,3.171744323190069,ambig,0.333,4.949152542,2.096168334,0.272897873
166,28,0,2,7,9,153,1526.2433671449835,1529.9503222642816,stimuli/206_xa.png,l,3.6955603735987097,harmless,0.333,6.325842697,1.136094431,0.060212884
166,28,0,2,7,10,154,1530.5361871397472,1536.694372928614,stimuli/237_ya.png,l,6.146562612615526,ambig,0.333,4.305084746,2.019339575,0.26289562
166,28,0,2,7,11,155,1537.306850750174,1541.5103126544564,stimuli/105_xa.png,l,4.192180586163886,harmless,0.333,6.557377049,1.088187946,0.139328189
166,28,0,2,7,12,156,1542.1128328735067,1545.1663131900714,stimuli/232_yb.png,l,3.041771281947149,ambig,0.333,5.483333333,1.845669845,0.238274952
166,28,0,2,7,13,157,1545.7879112980445,1560.1823336543166,stimuli/311_za.png,a,14.382675118598854,awful,0.333,3.116666667,1.975199339,0.254997138
166,28,0,2,7,14,158,1560.7965668464312,1586.1102468821919,stimuli/359_za.png,l,25.301913499628427,awful,0.333,2.01754386,1.641985167,0.217486248
166,28,0,2,7,15,159,1586.6716610248259,1589.3422433060769,stimuli/241_yb.png,l,2.658606219221838,ambig,0.333,5.508474576,1.442852555,0.187843403
166,28,0,2,7,16,160,1589.9513049094821,1593.7982434478763,stimuli/107_xa.png,l,3.8351605807838496,harmless,0.333,6.813559322,0.540580029,0.070377525
166,28,0,2,7,17,161,1594.4066020365572,1597.3502805166354,stimuli/317_za.png,l,2.931896190129919,awful,0.333,3.65,2.03215674,0.262350307
166,28,0,2,7,18,162,1598.010457392782,1608.6463477697398,stimuli/373_zb.png,l,10.624215606920188,awful,0.333,2.327586207,1.858011869,0.243968911
166,28,0,2,7,19,163,1609.2715078188048,1615.5181836620905,stimuli/300_za.png,l,6.2353382052097,awful,0.333,3.75,2.12032137,0.273732312
166,28,0,2,7,20,164,1616.14848497379,1619.0062794768892,stimuli/199_za.png,l,2.8464730127016082,awful,0.333,3.033898305,2.189048775,0.284989876
166,28,0,2,7,21,165,1619.6665993190254,1623.022263707302,stimuli/173_yb.png,l,3.343622553977184,ambig,0.333,5.796610169,1.242628763,0.161776485
166,28,0,2,7,22,166,1623.6382313961803,1627.5262169341731,stimuli/246_ya.png,l,3.8763867801753804,ambig,0.333,5.542372881,1.715266481,0.223308675
166,28,0,2,7,23,167,1628.1370504496736,1632.166186765593,stimuli/101_xa.png,l,4.017440278228605,harmless,0.333,6.508522727,1.13475832,0.060482822
166,28,0,2,7,24,168,1632.7450758448394,1641.1902243542427,stimuli/133_xa.png,l,8.433190958108753,harmless,0.333,6.568965517,1.186356193,0.1557762
166,28,0,2,8,1,169,1651.0772260654776,1661.5902243542369,stimuli/125_xc.png,l,10.500847753020935,harmless,0.333,6.683333333,0.999858747,0.129081209
166,28,0,2,8,2,170,1662.1966759417264,1664.982179266779,stimuli/315_yb.png,l,2.7735760998912156,ambig,0.333,5.050847458,1.915667965,0.249398726
166,28,0,2,8,3,171,1665.6048892013205,1673.070208521618,stimuli/198_yb.png,l,7.454101017501671,ambig,0.333,5.101694915,1.83542643,0.238952168
166,28,0,2,8,4,172,1673.6297774968261,1686.7661103595165,stimuli/192_za.png,l,13.124469834379852,awful,0.333,2.68852459,2.093967396,0.268105052
166,28,0,2,8,5,173,1687.3681296067662,1699.7101413315395,stimuli/334_za.png,l,12.330290480953408,awful,0.333,3.333333333,2.214487481,0.285889104
166,28,0,2,8,6,174,1700.3116639392683,1704.2621094773058,stimuli/131_xb.png,l,3.9387380787811708,harmless,0.333,6.525423729,1.119666394,0.145768149
166,28,0,2,8,7,175,1704.8465931356477,1708.4781445138215,stimuli/188_xa.png,l,3.619446922384668,harmless,0.333,6.655172414,0.806807095,0.105938962
166,28,0,2,8,8,176,1709.0787167717062,1712.4380718886678,stimuli/155_xb.png,l,3.347608666983433,harmless,0.333,6.655737705,0.892286312,0.114245555
166,28,0,2,8,9,177,1713.0596172212972,1716.1581282873813,stimuli/201_yb.png,l,3.087042277387809,ambig,0.333,5.898305085,1.626238682,0.211718243
166,28,0,2,8,10,178,1716.7444287562394,1721.7982032755972,stimuli/175_xb.png,l,5.042549127334496,harmless,0.333,6.6,1.028409995,0.13276716
166,28,0,2,8,11,179,1722.42216288278,1725.7981780694681,stimuli/220_yb.png,l,3.364248256722931,ambig,0.333,4.75,2.096203186,0.270618668
166,28,0,2,8,12,180,1726.4466782063246,1730.1421034908271,stimuli/308_zb.png,l,3.6837060098769143,awful,0.333,1.644067797,1.471132708,0.191525165
166,28,0,2,8,13,181,1730.730620917544,1740.630115416483,stimuli/285_yb.png,l,9.887831938132877,ambig,0.333,4.120689655,2.119893958,0.278355714
166,28,0,2,8,14,182,1741.2430233176274,1746.5821028606733,stimuli/290_zb.png,l,5.327639898925554,awful,0.333,2.586206897,2.026443456,0.266085062
166,28,0,2,8,15,183,1747.2053188870486,1751.0061038216809,stimuli/251_ya.png,l,3.789147579926066,ambig,0.333,5.655172414,1.792300532,0.235340589
166,28,0,2,8,16,184,1751.632423352683,1760.6781386061339,stimuli/196_xb.png,l,9.033894366642926,harmless,0.333,6.594366197,0.982313556,0.05213579
166,28,0,2,8,17,185,1761.3251633967448,1775.5020698564185,stimuli/329_zb.png,l,14.164952059130883,awful,0.333,2.406779661,1.992387617,0.259386774
166,28,0,2,8,18,186,1776.0713282251381,1784.9020753702498,stimuli/351_zb.png,l,8.818844732217258,awful,0.333,3.06779661,2.033040926,0.264679384
166,28,0,2,8,19,187,1785.5304342346499,1786.606065224798,stimuli/353_zb.png,l,1.0637340911198407,awful,0.333,1.949152542,1.623361018,0.211343603
166,28,0,2,8,20,188,1787.2349140332954,1811.8220340952103,stimuli/180_xc.png,l,24.57538857808686,harmless,0.333,6.672131148,0.723908638,0.092687003
166,28,0,2,8,21,189,1812.435481171211,1817.6780755908112,stimuli/325_yb.png,l,5.231224880029913,ambig,0.333,5.131147541,1.811770863,0.231973488
166,28,0,2,8,22,190,1818.2363110042352,1824.8299992319953,stimuli/320_za.png,a,6.58169011035352,awful,0.333,1.423728814,1.117314975,0.14546202
166,28,0,2,8,23,191,1825.4090860217984,1831.6140638384386,stimuli/226_yb.png,l,6.193000179191586,ambig,0.333,5.683333333,1.712285287,0.22105508
166,28,0,2,8,24,192,1832.224265625322,1839.4380313225556,stimuli/193_xc.png,l,7.202131099445978,harmless,0.333,6.482758621,1.012923151,0.133003326
166,28,0,2,9,1,193,1848.8320488053432,1855.261936972849,stimuli/326_zb.png,l,6.418161803652765,awful,0.333,3.389830508,2.220724867,0.289113752
166,28,0,2,9,2,194,1855.8781236399955,1860.429998838139,stimuli/205_yb.png,l,4.54023154193419,ambig,0.333,5.847457627,1.52918233,0.199082582
166,28,0,2,9,3,195,1861.0702356969996,1868.638005722576,stimuli/221_xb.png,l,7.556441839813488,harmless,0.333,6.440677966,1.133672495,0.147591588
166,28,0,2,9,4,196,1869.2548698044266,1877.5339686065272,stimuli/140_xb.png,l,8.267809607059462,harmless,0.333,6.724137931,0.790138861,0.103750315
166,28,0,2,9,5,197,1878.152390742238,1891.7819461100735,stimuli/259_xc.png,l,13.618012929946417,harmless,0.333,6.568965517,0.993170874,0.130409725
166,28,0,2,9,6,198,1892.4367462038063,1904.1099597686552,stimuli/314_zb.png,a,11.661396222625626,awful,0.333,1.833333333,1.451669602,0.18740974
166,28,0,2,9,7,199,1904.7526837635087,1908.3019450072898,stimuli/136_xc.png,l,3.537277304829331,harmless,0.333,6.559322034,1.038420326,0.135190811
166,28,0,2,9,8,200,1908.8766333275998,1912.7338890497049,stimuli/339_ya.png,l,3.8455226628866512,ambig,0.333,4.949152542,1.960152429,0.25519011
166,28,0,2,9,9,201,1913.3274370683648,1917.5339059850667,stimuli/239_ya.png,l,4.194844558922341,ambig,0.333,5.157894737,1.925296579,0.255011762
166,28,0,2,9,10,202,1918.1253126642841,1922.2219234245422,stimuli/273_ya.png,l,4.084969467105111,ambig,0.333,5.551724138,1.836973233,0.241206403
166,28,0,2,9,11,203,1922.8134328975284,1930.4139374139486,stimuli/340_za.png,l,7.588721438776702,awful,0.333,2.508474576,1.832398855,0.238558011
166,28,0,2,9,12,204,1931.0464927049761,1944.0059116249322,stimuli/327_zb.png,l,12.947698463802226,awful,0.333,2.502808989,1.906990248,0.101070281
166,28,0,2,9,13,205,1944.6162823716586,1952.373900628765,stimuli/307_za.png,l,7.745887560973642,awful,0.333,2.93220339,2.172432347,0.282826601
166,28,0,2,9,14,206,1952.965423098649,1961.589857683808,stimuli/335_yb.png,l,8.612752332061063,ambig,0.333,5.016949153,2.046793332,0.266469795
166,28,0,2,9,15,207,1962.237642990629,1967.3659508519631,stimuli/214_xb.png,l,5.116446408414049,harmless,0.333,6.465517241,0.940614156,0.12350869
166,28,0,2,9,16,208,1967.9801931025577,1977.4859107584634,stimuli/358_za.png,l,9.49409684271086,awful,0.333,3.949152542,2.112554662,0.275031191
166,28,0,2,9,17,209,1978.1180162776436,1981.7498657970573,stimuli/169_xc.png,l,3.6199620726692956,harmless,0.333,6.603448276,0.916508538,0.120343467
166,28,0,2,9,18,210,1982.3741522961936,1985.5499043939344,stimuli/209_ya.png,l,3.1644589642237406,ambig,0.333,5.603448276,1.825161903,0.239655499
166,28,0,2,9,19,211,1986.1838692589372,1991.5738462780428,stimuli/253_ya.png,l,5.377921006351244,ambig,0.333,5.491803279,1.849531029,0.236808182
166,28,0,2,9,20,212,1992.1349725193868,2006.4297924629645,stimuli/306_zb.png,l,14.28277417080244,awful,0.333,2.352112676,1.917055413,0.101746737
166,28,0,2,9,21,213,2006.9970737259428,2021.0698536665877,stimuli/322_za.png,l,14.060870438523125,awful,0.333,2.406779661,1.975004531,0.257123689
166,28,0,2,9,22,214,2021.6779917016684,2032.7258364791633,stimuli/261_yb.png,l,11.03609163215151,ambig,0.333,5.706896552,1.901141123,0.249632059
166,28,0,2,9,23,215,2033.345885591727,2036.0138302879059,stimuli/166_xa.png,l,2.656119083199883,harmless,0.333,6.593220339,1.052397002,0.13701042
166,28,0,2,9,24,216,2036.6261214265833,2041.0298420875333,stimuli/157_xc.png,l,4.392201066133566,harmless,0.333,6.603448276,0.877389573,0.115206895
166,28,0,2,10,1,217,2050.8506513224274,2056.5338858989417,stimuli/235_ya.png,l,5.671360520529561,ambig,0.333,5.694915254,1.567495667,0.204070554
166,28,0,2,10,2,218,2057.1649071606807,2074.4058371880965,stimuli/263_ya.png,l,17.229146162077086,ambig,0.333,4.983050847,2.071910042,0.269739712
166,28,0,2,10,3,219,2075.021874587692,2078.5897509516217,stimuli/159_xa.png,l,3.5562177415704355,harmless,0.333,6.389830508,1.174689235,0.152931512
166,28,0,2,10,4,220,2079.190236169612,2081.837778867397,stimuli/154_xc.png,l,2.6359805676329415,harmless,0.333,6.5,0.965506805,0.124646393
166,28,0,2,10,5,221,2082.462770350481,2084.1817704548594,stimuli/195_xc.png,l,1.7073824419640005,harmless,0.333,6.637640449,1.001766915,0.05309354
166,28,0,2,10,6,222,2084.8062979876413,2087.885762278631,stimuli/283_yb.png,l,3.067726111796219,ambig,0.333,5.949152542,1.478859402,0.192531095
166,28,0,2,10,7,223,2088.51242130468,2094.821768249327,stimuli/363_zb.png,l,6.297503608628176,awful,0.333,2.433333333,2.019956927,0.260775318
166,28,0,2,10,8,224,2095.476366300194,2105.3817027133773,stimuli/265_yb.png,l,9.893787279957905,ambig,0.333,5.627118644,1.856008928,0.241631781
166,28,0,2,10,9,225,2106.002567086689,2115.2857583401783,stimuli/360_za.png,l,9.271435745060444,awful,0.333,3.2,2.207844259,0.285031468
166,28,0,2,10,10,226,2115.889689314761,2123.6217544647225,stimuli/119_xc.png,l,7.720259229274234,harmless,0.333,6.694915254,0.914523379,0.119060803
166,28,0,2,10,11,227,2124.2797049307264,2129.6937384430785,stimuli/293_zb.png,l,5.402456416049972,awful,0.333,3.677966102,2.169066842,0.28238845
166,28,0,2,10,12,228,2130.333323093335,2146.7177496440418,stimuli/348_za.png,l,16.372567067010095,awful,0.333,3.084745763,2.119597681,0.275948114
166,28,0,2,10,13,229,2147.326004651317,2165.861708542303,stimuli/230_yb.png,l,18.52413979161065,ambig,0.333,4.98245614,1.875511626,0.248417583
166,28,0,2,10,14,230,2166.51278797508,2172.0856870540883,stimuli/343_zb.png,l,5.560975792264799,awful,0.333,3.103448276,2.141401862,0.28117984
166,28,0,2,10,15,231,2172.7084603978146,2185.661661674647,stimuli/250_yb.png,l,12.940951098134974,ambig,0.333,5.950819672,1.585625318,0.203018519
166,28,0,2,10,16,232,2186.225803199195,2189.245673505793,stimuli/172_xb.png,l,3.0080935304868035,harmless,0.333,6.482758621,1.127664553,0.14806961
166,28,0,2,10,17,233,2189.808191991935,2201.9176716625807,stimuli/252_zb.png,l,12.097537479334278,awful,0.333,2.711864407,1.983125776,0.258180985
166,28,0,2,10,18,234,2202.4768105582043,2219.941582039057,stimuli/268_zb.png,l,17.45275564037729,awful,0.333,2.655737705,2.048456703,0.262278005
166,28,0,2,10,19,235,2220.6031964522263,2224.3496688741725,stimuli/234_xb.png,l,3.7344573691661935,harmless,0.333,6.637931034,0.788030542,0.103473479
166,28,0,2,10,20,236,2225.00742753729,2228.5015980291937,stimuli/147_ya.png,l,3.482330306636868,ambig,0.333,5.883333333,1.766847875,0.22809908
166,28,0,2,10,21,237,2229.1024833944684,2238.029666432325,stimuli/299_za.png,a,8.91532709877356,awful,0.333,1.288135593,0.929420425,0.121000233
166,28,0,2,10,22,238,2238.6490916931944,2243.373620604427,stimuli/144_xa.png,l,4.712893919611815,harmless,0.333,6.542372881,1.00553698,0.130909764
166,28,0,2,10,23,239,2243.983478563954,2248.8135935866158,stimuli/223_yb.png,l,4.81838393266662,ambig,0.333,5.542372881,1.77455224,0.231027024
166,28,0,2,10,24,240,2249.423112838762,2252.3656149015296,stimuli/197_xa.png,l,2.930687477462925,harmless,0.333,6.779661017,0.55918033,0.072799078
