id,age,condition,counterbalance,block,trialinblock,trial,tstart,tend,trialstim,response,RT,trialtype,ethicfreq,norm_mean,norm_sd,norm_se
167,28,1,2,0,0,practice,3.5446137189865112e-06,7.727791601791978,stimuli/prac_217_1.png,l,7.713211807888001,harmless,NA,NA,NA,NA
167,28,1,2,1,1,1,4.493334940169007,12.119782029651105,stimuli/108_xb.png,l,7.614719924051315,harmless,0.333,6.568965517,1.077880782,0.141532681
167,28,1,2,1,2,2,12.752016689628363,21.50375138549134,stimuli/272_xb.png,l,8.739572724327445,harmless,0.333,6.355932203,1.029943284,0.134087194
167,28,1,2,1,3,3,22.121705180965364,30.087757998611778,stimuli/238_xb.png,l,7.95438394183293,harmless,0.333,6.4,1.076718178,0.139003719
167,28,1,2,1,4,4,30.724262345582247,39.383963054046035,stimuli/333_za.png,l,8.647907770704478,awful,0.333,3.266666667,2.185209657,0.282109354
167,28,1,2,1,5,5,40.00586082553491,49.65581659693271,stimuli/291_za.png,l,9.638356212060899,awful,0.333,2.593220339,1.830005126,0.238246374
167,28,1,2,1,6,6,50.31543302210048,57.79974888358265,stimuli/183_xb.png,l,7.472710000816733,harmless,0.333,6.448275862,1.095003225,0.143780967
167,28,1,2,1,7,7,58.42522908048704,65.34379861550406,stimuli/104_xc.png,l,6.906930984929204,harmless,0.333,6.745762712,0.756425814,0.098478253
167,28,1,2,1,8,8,65.97625816147774,73.71978392032906,stimuli/329_zb.png,l,7.731957313604653,awful,0.333,2.406779661,1.992387617,0.259386774
167,28,1,2,1,9,9,74.37496799975634,82.43982502212748,stimuli/342_yb.png,l,8.053116859868169,ambig,0.333,4.916666667,2.085394461,0.269223267
167,28,1,2,1,10,10,83.0711191771552,88.20780981332064,stimuli/346_zb.png,a,5.125105649232864,awful,0.333,1.288135593,0.983499162,0.128040685
167,28,1,2,1,11,11,88.79605657514185,102.64777858927846,stimuli/365_zb.png,a,13.840150417760015,awful,0.333,2.966101695,2.165291266,0.281896912
167,28,1,2,1,12,12,103.27137226285413,120.14378735143691,stimuli/245_yb.png,l,16.860657203476876,ambig,0.333,4.949152542,2.096168334,0.272897873
167,28,1,2,1,13,13,120.75026289233938,129.15978656662628,stimuli/191_ya.png,l,8.397827228996903,ambig,0.333,5.517241379,2.062542966,0.270825159
167,28,1,2,1,14,14,129.7774666394107,139.47177461581305,stimuli/212_ya.png,l,9.682665882166475,ambig,0.333,5.677966102,1.490668422,0.194068498
167,28,1,2,1,15,15,140.0880368417129,146.31979447510093,stimuli/270_yb.png,l,6.219829212408513,ambig,0.333,5.534482759,1.912246013,0.251090203
167,28,1,2,1,16,16,146.93915627105162,159.4397935140878,stimuli/306_zb.png,l,12.488845093175769,awful,0.333,2.352112676,1.917055413,0.101746737
167,28,1,2,1,17,17,160.08369744429365,165.15238540852442,stimuli/209_ya.png,l,5.0570072727277875,ambig,0.333,5.603448276,1.825161903,0.239655499
167,28,1,2,1,18,18,165.77425639843568,173.51196189783514,stimuli/222_ya.png,l,7.725921620149165,ambig,0.333,5.931034483,1.543089507,0.202617579
167,28,1,2,1,19,19,174.14221078483388,181.03183459071442,stimuli/172_xb.png,l,6.8778757667168975,harmless,0.333,6.482758621,1.127664553,0.14806961
167,28,1,2,1,20,20,181.65126806683838,191.81589657906443,stimuli/292_zb.png,a,10.152977359481156,awful,0.333,2.396551724,1.955107169,0.256718148
167,28,1,2,1,21,21,192.3785055265762,199.88781644543633,stimuli/343_zb.png,l,7.497327753342688,awful,0.333,3.103448276,2.141401862,0.28117984
167,28,1,2,1,22,22,200.5036415020004,207.7837768434547,stimuli/121_xc.png,l,7.268483006861061,harmless,0.333,6.508474576,1.006408455,0.131023221
167,28,1,2,1,23,23,208.3980225767009,216.39195931423455,stimuli/276_ya.png,l,7.9821965750306845,ambig,0.333,5.186440678,1.804922162,0.234980851
167,28,1,2,1,24,24,216.98712437879294,222.15983776701614,stimuli/138_xc.png,l,5.161042936611921,harmless,0.333,6.661016949,0.70978796,0.092406522
167,28,1,2,2,1,25,230.98546037869528,236.72783689387143,stimuli/323_yb.png,l,5.73062453744933,ambig,0.333,4.603448276,1.955107169,0.256718148
167,28,1,2,2,2,26,237.3631325266324,242.62390087358654,stimuli/127_xb.png,l,5.249244405888021,harmless,0.333,6.423728814,1.162686987,0.151368953
167,28,1,2,2,3,27,243.245198817458,249.42391796642914,stimuli/220_yb.png,l,6.167069571092725,ambig,0.333,4.75,2.096203186,0.270618668
167,28,1,2,2,4,28,250.04434039024636,258.7758656544611,stimuli/371_zb.png,l,8.719510591123253,awful,0.333,3.131147541,2.085468851,0.267016925
167,28,1,2,2,5,29,259.3835345492698,267.3598509998992,stimuli/269_za.png,l,7.964667660649866,awful,0.333,3.457627119,2.119873401,0.27598401
167,28,1,2,2,6,30,267.9152809185907,285.02383636171,stimuli/332_zb.png,a,17.0966364745982,awful,0.333,2.694915254,2.002190501,0.260663001
167,28,1,2,2,7,31,285.63336381688714,291.4398695267737,stimuli/175_xb.png,l,5.794842347502708,harmless,0.333,6.6,1.028409995,0.13276716
167,28,1,2,2,8,32,292.0859470940195,297.0238481769338,stimuli/348_za.png,l,4.926102631725371,awful,0.333,3.084745763,2.119597681,0.275948114
167,28,1,2,2,9,33,297.6049560820684,302.319837404415,stimuli/140_xb.png,l,4.703146279789507,harmless,0.333,6.724137931,0.790138861,0.103750315
167,28,1,2,2,10,34,302.93302290374413,306.84798835171387,stimuli/225_ya.png,l,3.9032847564667463,ambig,0.333,5.85,1.792876677,0.231459384
167,28,1,2,2,11,35,307.45998797984794,311.86380206560716,stimuli/356_za.png,l,4.392496126703918,awful,0.333,3.033333333,2.178217796,0.281206708
167,28,1,2,2,12,36,312.4794483156875,323.03185664629564,stimuli/345_zb.png,a,10.541144722141325,awful,0.333,3.694915254,2.191317013,0.285285176
167,28,1,2,2,13,37,323.6834256113507,331.91979675972834,stimuli/136_xc.png,l,8.224341508932412,harmless,0.333,6.559322034,1.038420326,0.135190811
167,28,1,2,2,14,38,332.5410529556684,337.6558035998605,stimuli/205_yb.png,l,5.103014814201742,ambig,0.333,5.847457627,1.52918233,0.199082582
167,28,1,2,2,15,39,338.28511395165697,343.9438142902218,stimuli/239_ya.png,l,5.64695033011958,ambig,0.333,5.157894737,1.925296579,0.255011762
167,28,1,2,2,16,40,344.5578922452405,350.3598025571555,stimuli/159_xa.png,l,5.790025214198977,harmless,0.333,6.389830508,1.174689235,0.152931512
167,28,1,2,2,17,41,350.9801714178175,357.5598429655656,stimuli/221_xb.png,l,6.567975496407598,harmless,0.333,6.440677966,1.133672495,0.147591588
167,28,1,2,2,18,42,358.1781244412996,363.0479850433767,stimuli/226_yb.png,l,4.8581771538592875,ambig,0.333,5.683333333,1.712285287,0.22105508
167,28,1,2,2,19,43,363.6683369684033,371.8878436209634,stimuli/373_zb.png,l,8.207853136118501,awful,0.333,2.327586207,1.858011869,0.243968911
167,28,1,2,2,20,44,372.48838783754036,378.8718609469943,stimuli/312_yb.png,l,6.371789266820997,ambig,0.333,4.677966102,2.112692986,0.275049199
167,28,1,2,2,21,45,379.5049002347514,384.2958710733801,stimuli/131_xb.png,l,4.7791227623820305,harmless,0.333,6.525423729,1.119666394,0.145768149
167,28,1,2,2,22,46,384.90815269574523,394.5758614796214,stimuli/296_yb.png,a,9.656284092459828,ambig,0.333,4.229508197,2.052587332,0.262806878
167,28,1,2,2,23,47,395.22081894800067,403.20782477920875,stimuli/308_zb.png,a,7.974695773329586,awful,0.333,1.644067797,1.471132708,0.191525165
167,28,1,2,2,24,48,403.8318646806292,406.5678786104545,stimuli/179_xb.png,l,2.723931121174246,harmless,0.333,6.704918033,0.882123617,0.112944356
167,28,1,2,3,1,49,415.1591288438067,423.51984118530527,stimuli/286_ya.png,l,8.348580696154386,ambig,0.333,5.06779661,1.779814082,0.231712057
167,28,1,2,3,2,50,424.1725137080066,429.4718679576181,stimuli/317_za.png,a,5.287651109043509,awful,0.333,3.65,2.03215674,0.262350307
167,28,1,2,3,3,51,430.1086787167005,436.23187027312815,stimuli/250_yb.png,l,6.111168218776584,ambig,0.333,5.950819672,1.585625318,0.203018519
167,28,1,2,3,4,52,436.8348413705826,446.3999063433148,stimuli/302_za.png,l,9.553128281142563,awful,0.333,3.137931034,2.188071937,0.287307921
167,28,1,2,3,5,53,447.0328388987109,462.29584665503353,stimuli/369_za.png,a,15.251214424613863,awful,0.333,2.948275862,2.055565093,0.26990892
167,28,1,2,3,6,54,462.9129398968071,467.9598721889779,stimuli/223_yb.png,l,5.035313040949404,ambig,0.333,5.542372881,1.77455224,0.231027024
167,28,1,2,3,7,55,468.58373564714566,473.7998729450628,stimuli/244_xb.png,l,5.204393984749913,harmless,0.333,6.610169492,0.743174671,0.096753101
167,28,1,2,3,8,56,474.3977638198994,480.2158608180471,stimuli/364_za.png,l,5.806121315807104,awful,0.333,1.677966102,1.279017376,0.166513879
167,28,1,2,3,9,57,480.84900762559846,488.03187121869996,stimuli/253_ya.png,l,7.171201412100345,ambig,0.333,5.491803279,1.849531029,0.236808182
167,28,1,2,3,10,58,488.6786553459242,494.56792035792023,stimuli/282_xc.png,l,5.877706018742174,harmless,0.333,6.55,0.998728005,0.128935231
167,28,1,2,3,11,59,495.1723750741221,499.7998682190664,stimuli/180_xc.png,l,4.615623013582081,harmless,0.333,6.672131148,0.723908638,0.092687003
167,28,1,2,3,12,60,500.421363085974,506.2558889859356,stimuli/133_xa.png,l,5.822728629689664,harmless,0.333,6.568965517,1.186356193,0.1557762
167,28,1,2,3,13,61,506.86012117844075,510.01586412638426,stimuli/112_xc.png,l,3.144105973187834,harmless,0.333,6.706896552,0.749470472,0.098410294
167,28,1,2,3,14,62,510.6413884339854,516.8478867392987,stimuli/118_xb.png,l,6.194575004745275,harmless,0.333,6.474576271,0.953323265,0.124112118
167,28,1,2,3,15,63,517.4800922544673,523.9198534735478,stimuli/257_yb.png,l,6.428195530548692,ambig,0.333,5.620689655,1.843219782,0.242026615
167,28,1,2,3,16,64,524.5708135524765,535.3758336738683,stimuli/280_xb.png,l,10.793270900845528,harmless,0.333,6.333333333,1.068289726,0.137915611
167,28,1,2,3,17,65,535.9888702994213,547.7759790821001,stimuli/310_zb.png,l,11.775387131143361,awful,0.333,3.224137931,2.102989547,0.276136056
167,28,1,2,3,18,66,548.3844273989089,551.1598354037851,stimuli/351_zb.png,l,2.7635626858100295,awful,0.333,3.06779661,2.033040926,0.264679384
167,28,1,2,3,19,67,551.7735037584789,561.3519941614941,stimuli/267_ya.png,l,9.566871545277536,ambig,0.333,5.103448276,1.898195405,0.249245267
167,28,1,2,3,20,68,561.9504025503993,573.6798715428449,stimuli/362_zb.png,a,11.717807205859572,awful,0.333,1.474576271,1.222715071,0.159183944
167,28,1,2,3,21,69,574.3044742508791,580.9119320441969,stimuli/319_ya.png,l,6.595815305132419,ambig,0.333,4.216666667,2.108028774,0.272145344
167,28,1,2,3,22,70,581.4777524140663,586.0558757525869,stimuli/155_xb.png,l,4.56619413010776,harmless,0.333,6.655737705,0.892286312,0.114245555
167,28,1,2,3,23,71,586.7030466366559,592.6718752831221,stimuli/304_ya.png,l,5.956576483789831,ambig,0.333,4.034482759,2.017167697,0.264867095
167,28,1,2,3,24,72,593.2939715534449,594.8558711837977,stimuli/352_zb.png,l,1.5502205146476626,awful,0.333,2.93442623,2.135952968,0.273480754
167,28,1,2,4,1,73,603.4675108366646,609.4479532204568,stimuli/236_yb.png,l,5.968741605989635,ambig,0.333,5.93442623,1.49297078,0.19115532
167,28,1,2,4,2,74,610.0149775780737,614.1838915315457,stimuli/146_xa.png,l,4.157134800218046,harmless,0.333,6.442622951,1.162247681,0.148810567
167,28,1,2,4,3,75,614.7621810729615,618.9839310739189,stimuli/145_xa.png,l,4.210061826277524,harmless,0.333,6.661016949,0.822321556,0.107057148
167,28,1,2,4,4,76,619.6042061988264,623.9598749456927,stimuli/237_ya.png,l,4.344019562937319,ambig,0.333,4.305084746,2.019339575,0.26289562
167,28,1,2,4,5,77,624.6013512075879,630.0558674815111,stimuli/214_xb.png,l,5.442572887055576,harmless,0.333,6.465517241,0.940614156,0.12350869
167,28,1,2,4,6,78,630.6446152161807,634.9678920796141,stimuli/201_yb.png,l,4.31148431962356,ambig,0.333,5.898305085,1.626238682,0.211718243
167,28,1,2,4,7,79,635.5659574284218,639.1438767546788,stimuli/337_zb.png,l,3.5662264255806804,awful,0.333,3.033333333,2.20143764,0.284204377
167,28,1,2,4,8,80,639.7856334345415,644.0238934694789,stimuli/132_xc.png,l,4.226517903152853,harmless,0.333,6.627118644,0.692280217,0.090127208
167,28,1,2,4,9,81,644.6700592581183,650.9838775107637,stimuli/295_za.png,l,6.301757499575615,awful,0.333,2.3,1.825432384,0.235662307
167,28,1,2,4,10,82,651.5853023673408,658.2478962703608,stimuli/224_yb.png,l,6.650674934498966,ambig,0.333,5.881355932,1.609077116,0.209483997
167,28,1,2,4,11,83,658.8763114092872,664.6159156411886,stimuli/192_za.png,l,5.727984192315489,awful,0.333,2.68852459,2.093967396,0.268105052
167,28,1,2,4,12,84,665.2444193959236,671.9358692304231,stimuli/206_xa.png,l,6.679634447675198,harmless,0.333,6.325842697,1.136094431,0.060212884
167,28,1,2,4,13,85,672.5079273367301,677.3038787553087,stimuli/168_xa.png,l,4.78419235162437,harmless,0.333,6.474576271,1.164946827,0.151663159
167,28,1,2,4,14,86,677.8859665496275,685.5439051901922,stimuli/360_za.png,l,7.646164607256651,awful,0.333,3.2,2.207844259,0.285031468
167,28,1,2,4,15,87,686.1096936585382,690.6558890645392,stimuli/298_za.png,l,4.534268166869879,awful,0.333,2.881355932,2.026418156,0.263817173
167,28,1,2,4,16,88,691.222130456008,697.0318704308011,stimuli/241_yb.png,l,5.798838310874999,ambig,0.333,5.508474576,1.442852555,0.187843403
167,28,1,2,4,17,89,697.6348828817718,704.0478968215175,stimuli/363_zb.png,a,6.400867328047752,awful,0.333,2.433333333,2.019956927,0.260775318
167,28,1,2,4,18,90,704.662405250594,712.7679379233159,stimuli/189_yb.png,l,8.093976436648518,ambig,0.333,5.983333333,1.455459234,0.187898979
167,28,1,2,4,19,91,713.4108340009116,719.5679164193571,stimuli/203_yb.png,l,6.145023240707815,ambig,0.333,6,1.542501327,0.200816568
167,28,1,2,4,20,92,720.199132592883,725.7279069987126,stimuli/174_xc.png,l,5.516998797189444,harmless,0.333,6.533333333,1.111826512,0.143536185
167,28,1,2,4,21,93,726.4591179732233,732.9439336257055,stimuli/349_za.png,l,6.473730850033462,awful,0.333,3.288135593,2.101320172,0.273568585
167,28,1,2,4,22,94,733.5810598558746,737.992056121584,stimuli/213_ya.png,l,4.399406946264207,ambig,0.333,5.98245614,1.597891781,0.211645937
167,28,1,2,4,23,95,738.6296238531359,746.3759246524423,stimuli/307_za.png,a,7.734605535399169,awful,0.333,2.93220339,2.172432347,0.282826601
167,28,1,2,4,24,96,747.0023772558197,752.2639482612722,stimuli/109_xb.png,l,5.249848172534257,harmless,0.333,6.644067797,0.97843492,0.127381377
167,28,1,2,5,1,97,760.975798543077,766.9758859765716,stimuli/321_zb.png,l,5.988381142262369,awful,0.25,2.918032787,2.177881861,0.278849198
167,28,1,2,5,2,98,767.5813020714559,771.8480222225189,stimuli/154_xc.png,l,4.255101293325424,harmless,0.25,6.5,0.965506805,0.124646393
167,28,1,2,5,3,99,772.4413129729219,779.8159796805121,stimuli/173_yb.png,l,7.362921425141394,ambig,0.25,5.796610169,1.242628763,0.161776485
167,28,1,2,5,4,100,780.4369747568853,784.1839017714374,stimuli/117_xc.png,l,3.7351837013848126,harmless,0.25,6.627118644,0.868972939,0.113130641
167,28,1,2,5,5,101,784.7972054248676,788.9119340134785,stimuli/171_xa.png,l,4.103118395898491,harmless,0.25,6.465517241,1.046556882,0.137419651
167,28,1,2,5,6,102,789.4825573381968,794.2719492474571,stimuli/316_za.png,l,4.777406774926931,awful,0.25,2.344827586,1.802062407,0.236622386
167,28,1,2,5,7,103,794.8950545517728,798.9439808875322,stimuli/149_xa.png,l,4.037162542808801,harmless,0.25,6.721311475,0.933294301,0.11949609
167,28,1,2,5,8,104,799.5270820483565,803.279909667559,stimuli/160_xb.png,l,3.741417500190437,harmless,0.25,6.666666667,0.680644427,0.087870818
167,28,1,2,5,9,105,803.8781845420599,809.6639239215292,stimuli/287_ya.png,l,5.774191414006054,ambig,0.25,5.950819672,1.407435369,0.180203633
167,28,1,2,5,10,106,810.2409192845225,814.1919200872071,stimuli/254_ya.png,l,3.9392244066111743,ambig,0.25,5.983606557,1.627798137,0.208418195
167,28,1,2,5,11,107,814.7608534176834,822.0479279356077,stimuli/303_zb.png,l,7.275411156006157,awful,0.25,3.620689655,2.158846233,0.283470398
167,28,1,2,5,12,108,822.6137829637155,822.9039007318206,stimuli/334_za.png,l,0.2783291623927653,awful,0.25,3.333333333,2.214487481,0.285889104
167,28,1,2,5,13,109,823.5092219095677,827.5599272488616,stimuli/196_xb.png,l,4.039009681902826,harmless,0.25,6.594366197,0.982313556,0.05213579
167,28,1,2,5,14,110,828.2122531863861,831.0399104077369,stimuli/243_ya.png,l,2.816201022360474,ambig,0.25,5.830508475,1.652088985,0.215083666
167,28,1,2,5,15,111,831.6575148617849,836.5279674148187,stimuli/315_yb.png,l,4.8584902617149055,ambig,0.25,5.050847458,1.915667965,0.249398726
167,28,1,2,5,16,112,837.1187044666149,843.9519995967858,stimuli/198_yb.png,l,6.821533700451255,ambig,0.25,5.101694915,1.83542643,0.238952168
167,28,1,2,5,17,113,844.566821526736,852.8320273393765,stimuli/344_za.png,a,8.25346053019166,awful,0.25,2.711864407,2.043077863,0.265986082
167,28,1,2,5,18,114,853.4447902413085,859.3919278061949,stimuli/170_xc.png,l,5.935494288802147,harmless,0.25,6.583333333,1.062323432,0.137145365
167,28,1,2,5,19,115,859.9570656409487,863.255944124423,stimuli/161_xc.png,l,3.2872592322528362,harmless,0.25,6.796610169,0.609682252,0.079373868
167,28,1,2,5,20,116,863.88628714066,867.8080082330853,stimuli/186_xa.png,l,3.9099923516623676,harmless,0.25,6.65,0.879618561,0.113558268
167,28,1,2,5,21,117,868.4111742838286,875.1679309131578,stimuli/235_ya.png,l,6.745076331309974,ambig,0.25,5.694915254,1.567495667,0.204070554
167,28,1,2,5,22,118,875.7332235290669,879.3279490615241,stimuli/139_xa.png,l,3.582767967134714,harmless,0.25,6.724137931,0.790138861,0.103750315
167,28,1,2,5,23,119,879.9306267430075,884.7999580157921,stimuli/325_yb.png,l,4.857633645646274,ambig,0.25,5.131147541,1.811770863,0.231973488
167,28,1,2,5,24,120,885.4109801179729,892.1839450947009,stimuli/331_za.png,l,6.761783288326114,awful,0.25,1.983606557,1.638004917,0.209725039
167,28,1,2,6,1,121,900.6443769391626,906.2239649919793,stimuli/314_zb.png,a,5.567377244122326,awful,0.166,1.833333333,1.451669602,0.18740974
167,28,1,2,6,2,122,906.8820678661577,910.8639166746289,stimuli/166_xa.png,l,3.9700775323435664,harmless,0.166,6.593220339,1.052397002,0.13701042
167,28,1,2,6,3,123,911.4520700951107,916.6799207739532,stimuli/143_xb.png,l,5.216076252050698,harmless,0.166,6.655172414,0.738697862,0.096995781
167,28,1,2,6,4,124,917.292273288127,922.4959618947469,stimuli/279_ya.png,l,5.192023274954408,ambig,0.166,5.31147541,1.970964092,0.252356093
167,28,1,2,6,5,125,923.1018545432016,928.2559772073291,stimuli/202_yb.png,l,5.142299006693065,ambig,0.166,5.431034483,1.892849601,0.248543329
167,28,1,2,6,6,126,928.8413477102295,935.8239542790689,stimuli/188_xa.png,l,6.970877828076482,harmless,0.166,6.655172414,0.806807095,0.105938962
167,28,1,2,6,7,127,936.4376848614775,940.6240828307346,stimuli/101_xa.png,l,4.17476808372885,harmless,0.166,6.508522727,1.13475832,0.060482822
167,28,1,2,6,8,128,941.1963311647996,946.0559580661356,stimuli/187_xc.png,l,4.847640191204846,harmless,0.166,6.224137931,1.185335891,0.155642228
167,28,1,2,6,9,129,946.6906326035969,951.5039597298019,stimuli/355_zb.png,l,4.801728354766965,awful,0.166,3.183333333,2.070713188,0.267327923
167,28,1,2,6,10,130,952.1206811806187,954.863984416239,stimuli/137_xa.png,l,2.731672956608236,harmless,0.166,6.355932203,1.094858074,0.14253838
167,28,1,2,6,11,131,955.4842402432114,961.0719616143033,stimuli/200_ya.png,l,5.576013898011297,ambig,0.166,5.862068966,1.444266048,0.189641423
167,28,1,2,6,12,132,961.6494996971451,968.9439422902651,stimuli/277_yb.png,l,7.2827059756964445,ambig,0.166,5.491525424,2.02886822,0.264136144
167,28,1,2,6,13,133,969.5703062782995,974.0079486044124,stimuli/110_xa.png,l,4.425966754555702,harmless,0.166,6.428571429,1.059281795,0.141552484
167,28,1,2,6,14,134,974.6393490983173,982.3039598874748,stimuli/228_ya.png,l,7.652895045466721,ambig,0.166,5.442622951,1.793735303,0.229664272
167,28,1,2,6,15,135,982.8619943112135,988.9039251501672,stimuli/215_yb.png,l,6.030280473642051,ambig,0.166,5.866666667,1.466769385,0.189359113
167,28,1,2,6,16,136,989.5228241765872,992.1920268191025,stimuli/157_xc.png,l,2.6574739017523825,harmless,0.166,6.603448276,0.877389573,0.115206895
167,28,1,2,6,17,137,992.758389909286,997.6480428599752,stimuli/289_yb.png,l,4.8776024375110865,ambig,0.166,5.305084746,1.714584873,0.223219937
167,28,1,2,6,18,138,998.2764351558872,1001.463967402,stimuli/103_xb.png,l,3.175633363891393,harmless,0.166,6.779661017,0.589207434,0.076708274
167,28,1,2,6,19,139,1002.0917642028071,1007.6559501108713,stimuli/258_ya.png,l,5.552474102936685,ambig,0.166,5.627118644,1.78014243,0.231754804
167,28,1,2,6,20,140,1008.275524977129,1012.7839942467399,stimuli/129_xa.png,l,4.496657820884138,harmless,0.166,6.770491803,0.642740036,0.082294429
167,28,1,2,6,21,141,1013.4040598454885,1017.2639411720447,stimuli/153_xb.png,l,3.848029311746359,harmless,0.166,6.633333333,0.973664521,0.125699549
167,28,1,2,6,22,142,1017.8762641479261,1024.015987793915,stimuli/293_zb.png,l,6.1280287760309875,awful,0.166,3.677966102,2.169066842,0.28238845
167,28,1,2,6,23,143,1024.6459542931989,1027.5440276763402,stimuli/150_xc.png,l,2.886005146894604,harmless,0.166,6.482758621,1.030097582,0.135258439
167,28,1,2,6,24,144,1028.111543554347,1033.2639431413263,stimuli/297_za.png,a,5.140427055303007,awful,0.166,1.898305085,1.446695584,0.188343723
167,28,1,2,7,1,145,1041.7291846359149,1047.7039962001145,stimuli/320_za.png,a,5.9630497405305505,awful,0.083,1.423728814,1.117314975,0.14546202
167,28,1,2,7,2,146,1048.259647066705,1052.6319656628184,stimuli/178_xa.png,l,4.360299984924495,harmless,0.083,6.483333333,1.112207557,0.143585378
167,28,1,2,7,3,147,1053.2918829866685,1059.7279511094093,stimuli/210_yb.png,l,6.424338594079018,ambig,0.083,5.557377049,1.76564049,0.226067099
167,28,1,2,7,4,148,1060.345875366591,1065.6640062355436,stimuli/262_ya.png,l,5.306444269604981,ambig,0.083,5.491525424,1.7750462,0.231091332
167,28,1,2,7,5,149,1066.276807734277,1072.8160387575626,stimuli/275_yb.png,l,6.527911488432437,ambig,0.083,4.836065574,2.138382004,0.27379176
167,28,1,2,7,6,150,1073.3694084663875,1078.1759929452091,stimuli/113_xb.png,l,4.79459028551355,harmless,0.083,6.733333333,0.660422737,0.085260209
167,28,1,2,7,7,151,1078.8087171562947,1093.5529120597057,stimuli/358_za.png,l,14.73247325187549,awful,0.083,3.949152542,2.112554662,0.275031191
167,28,1,2,7,8,152,1094.119057746604,1098.2399925640784,stimuli/115_xb.png,l,4.109453018289059,harmless,0.083,6.440677966,1.021681954,0.133011661
167,28,1,2,7,9,153,1098.8225580942817,1107.119937599171,stimuli/144_xa.png,l,8.28555427165702,harmless,0.083,6.542372881,1.00553698,0.130909764
167,28,1,2,7,10,154,1107.6807336723432,1111.0800051358528,stimuli/156_xc.png,l,3.3873808518983424,harmless,0.083,6.590163934,0.955284411,0.122311635
167,28,1,2,7,11,155,1111.7467170949094,1118.8799733915366,stimuli/249_ya.png,l,7.121565759181976,ambig,0.083,5.327868852,1.859402337,0.238072074
167,28,1,2,7,12,156,1119.491724502761,1122.7519513112493,stimuli/190_xc.png,l,3.2485488737002015,harmless,0.083,6.517241379,1.046990328,0.137476565
167,28,1,2,7,13,157,1123.3643869268708,1128.5520054255612,stimuli/177_xb.png,l,5.1760378438048065,harmless,0.083,6.482758621,1.063614811,0.139659467
167,28,1,2,7,14,158,1129.1368942544796,1132.9839826677926,stimuli/126_xa.png,l,3.835344312246889,harmless,0.083,6.6,0.977717855,0.126222832
167,28,1,2,7,15,159,1133.5558698447421,1141.655987919774,stimuli/336_ya.png,l,8.088317260146141,ambig,0.083,5.033898305,1.884291705,0.245313885
167,28,1,2,7,16,160,1142.3029658198357,1149.1840191376396,stimuli/232_yb.png,l,6.869068970903754,ambig,0.083,5.483333333,1.845669845,0.238274952
167,28,1,2,7,17,161,1149.8092543622479,1153.6559591689147,stimuli/259_xc.png,l,3.8348811487667263,harmless,0.083,6.568965517,0.993170874,0.130409725
167,28,1,2,7,18,162,1154.3065415495075,1158.8800135641359,stimuli/102_xc.png,l,4.561720430850983,harmless,0.083,6.66011236,0.937292468,0.049676401
167,28,1,2,7,19,163,1159.4480115096085,1165.464140300639,stimuli/271_ya.png,l,6.0042499946430326,ambig,0.083,5.711864407,1.771915459,0.230683744
167,28,1,2,7,20,164,1166.096194184851,1169.599960536696,stimuli/119_xc.png,l,3.492052576970309,harmless,0.083,6.694915254,0.914523379,0.119060803
167,28,1,2,7,21,165,1170.2317265192978,1174.2639947352,stimuli/164_xb.png,l,4.0205158442258835,harmless,0.083,6.830508475,0.460604639,0.059965616
167,28,1,2,7,22,166,1174.820398635231,1178.183963211719,stimuli/116_xa.png,l,3.3516507279127836,harmless,0.083,6.63559322,0.958030802,0.050918763
167,28,1,2,7,23,167,1178.8002258315682,1185.2400638503022,stimuli/234_xb.png,l,6.428077770397067,harmless,0.083,6.637931034,0.788030542,0.103473479
167,28,1,2,7,24,168,1185.8572953320108,1189.7199682402425,stimuli/233_yb.png,l,3.8510335707105696,ambig,0.083,5.318309859,1.922973646,0.102060844
167,28,1,2,8,1,169,1198.5390431582928,1203.455997923389,stimuli/260_ya.png,l,4.9052508366294205,ambig,0.0412,4.966101695,2.016877936,0.262575142
167,28,1,2,8,2,170,1204.0589788667858,1207.0719895772636,stimuli/184_xb.png,l,3.001095680054277,harmless,0.0412,6.508474576,1.194425,0.15550089
167,28,1,2,8,3,171,1207.6801247862168,1211.8003030251712,stimuli/134_xc.png,l,4.108482975047082,harmless,0.0412,6.516666667,0.965360505,0.124627505
167,28,1,2,8,4,172,1212.422133449465,1216.2400024104863,stimuli/114_xc.png,l,3.8061063499189913,harmless,0.0412,6.644067797,0.97843492,0.127381377
167,28,1,2,8,5,173,1216.8567549749278,1220.1360167651437,stimuli/247_ya.png,l,3.2674089879728854,ambig,0.0412,4.65,2.081598147,0.268733165
167,28,1,2,8,6,174,1220.6997198178433,1226.1440555606969,stimuli/147_ya.png,l,5.432389599271119,ambig,0.0412,5.883333333,1.766847875,0.22809908
167,28,1,2,8,7,175,1226.7530848006718,1230.479955195915,stimuli/231_xb.png,l,3.7151400791481137,harmless,0.0412,6.62295082,1.05141071,0.134619347
167,28,1,2,8,8,176,1231.1019211029634,1236.2480073347688,stimuli/197_xa.png,l,5.134402783121914,harmless,0.0412,6.779661017,0.55918033,0.072799078
167,28,1,2,8,9,177,1236.888817996718,1249.856081103906,stimuli/211_zb.png,a,12.955491831060499,awful,0.0412,3.983333333,2.127237938,0.274625237
167,28,1,2,8,10,178,1250.4580541946925,1255.4640067867003,stimuli/162_xa.png,l,4.994078915566206,harmless,0.0412,6.644067797,0.905209289,0.117848212
167,28,1,2,8,11,179,1256.0335167082958,1263.7120491741225,stimuli/142_xa.png,l,7.666574113070965,harmless,0.0412,6.4,1.076718178,0.139003719
167,28,1,2,8,12,180,1264.3389547006227,1269.8880125810392,stimuli/265_yb.png,l,5.537679662927985,ambig,0.0412,5.627118644,1.856008928,0.241631781
167,28,1,2,8,13,181,1270.4603188107722,1276.9920978690498,stimuli/281_ya.png,l,6.520045591518283,ambig,0.0412,5.881355932,1.543448286,0.200939852
167,28,1,2,8,14,182,1277.6328116445802,1281.5759867224842,stimuli/227_xa.png,l,3.931521955411881,harmless,0.0412,6.180327869,1.05685377,0.135316259
167,28,1,2,8,15,183,1282.1562246214598,1286.400032768026,stimuli/169_xc.png,l,4.2320112702436745,harmless,0.0412,6.603448276,0.916508538,0.120343467
167,28,1,2,8,16,184,1287.0236189584248,1292.2080748719163,stimuli/111_xa.png,l,5.172748834360391,harmless,0.0412,6.590163934,0.863655973,0.110579816
167,28,1,2,8,17,185,1292.8128954707645,1296.1119842682965,stimuli/152_xa.png,l,3.2874470967799425,harmless,0.0412,6.576271186,0.968528743,0.126091702
167,28,1,2,8,18,186,1296.7327331905253,1301.4640107252635,stimuli/158_xa.png,l,4.719748868141323,harmless,0.0412,6.786885246,0.661179605,0.084655374
167,28,1,2,8,19,187,1302.077918538358,1306.8000403298065,stimuli/335_yb.png,l,4.710385961458087,ambig,0.0412,5.016949153,2.046793332,0.266469795
167,28,1,2,8,20,188,1307.3763563078828,1313.7041064770892,stimuli/204_xb.png,l,6.315924148540944,harmless,0.0412,6.508474576,0.858484658,0.111765183
167,28,1,2,8,21,189,1314.3017460778356,1319.4241085881367,stimuli/242_xb.png,l,5.110689301975071,harmless,0.0412,6.576271186,0.913564256,0.118935936
167,28,1,2,8,22,190,1320.034326849971,1325.9600998321548,stimuli/217_yb.png,l,5.913703958503902,ambig,0.0412,5.169491525,2.001314588,0.260548967
167,28,1,2,8,23,191,1326.5790350926109,1333.0319775571115,stimuli/219_ya.png,l,6.44189862255007,ambig,0.0412,5.271186441,1.998538332,0.260187529
167,28,1,2,8,24,192,1333.6107735848054,1335.3280420093797,stimuli/185_xa.png,l,1.705672803800553,harmless,0.0412,6.5,0.965506805,0.124646393
167,28,1,2,9,1,193,1344.2936218176037,1355.584068841301,stimuli/273_ya.png,l,11.278782479465008,ambig,0.0412,5.551724138,1.836973233,0.241206403
167,28,1,2,9,2,194,1356.2126450631768,1365.1040730788372,stimuli/284_ya.png,l,8.879914708435535,ambig,0.0412,5.948275862,1.431750417,0.18799804
167,28,1,2,9,3,195,1365.6912379451096,1378.6960578355938,stimuli/288_yb.png,l,12.993175826501101,ambig,0.0412,5.189655172,1.914459262,0.251380817
167,28,1,2,9,4,196,1379.272753087338,1385.0640831142664,stimuli/165_xb.png,l,5.779630430508405,harmless,0.0412,6.557377049,1.008705278,0.129151477
167,28,1,2,9,5,197,1385.679553315509,1390.3680733279325,stimuli/193_xc.png,l,4.676832625642419,harmless,0.0412,6.482758621,1.012923151,0.133003326
167,28,1,2,9,6,198,1390.9750711089,1394.8239976023324,stimuli/264_xa.png,l,3.8372461958788335,harmless,0.0412,6.533333333,0.947193297,0.122282129
167,28,1,2,9,7,199,1395.439645034261,1398.9760376075283,stimuli/195_xc.png,l,3.5243960171937943,harmless,0.0412,6.637640449,1.001766915,0.05309354
167,28,1,2,9,8,200,1399.5572234941646,1404.1839982639067,stimuli/255_xb.png,l,4.614983801264316,harmless,0.0412,6.770491803,0.642740036,0.082294429
167,28,1,2,9,9,201,1404.8074407004751,1412.0960204987787,stimuli/294_za.png,a,7.276632866822183,awful,0.0412,1.557377049,1.38473331,0.177296933
167,28,1,2,9,10,202,1412.674255689606,1420.0000401721336,stimuli/330_ya.png,l,7.314167594071478,ambig,0.0412,4.796610169,2.049219036,0.266785595
167,28,1,2,9,11,203,1420.5990487826057,1425.1519970758818,stimuli/182_xb.png,l,4.541503122076392,harmless,0.0412,6.542372881,0.988241802,0.128658124
167,28,1,2,9,12,204,1425.7700103423558,1431.2560193487443,stimuli/274_xb.png,l,5.473965188488364,harmless,0.0412,6.491525424,1.179901828,0.153610134
167,28,1,2,9,13,205,1431.8713103500195,1435.9120576810092,stimuli/194_xb.png,l,4.029039857909083,harmless,0.0412,6.586206897,1.026567825,0.134794959
167,28,1,2,9,14,206,1436.5276641529053,1440.8480556993745,stimuli/107_xa.png,l,4.308467458002269,harmless,0.0412,6.813559322,0.540580029,0.070377525
167,28,1,2,9,15,207,1441.472918345593,1446.7280168817379,stimuli/207_yb.png,l,5.2431689337827265,ambig,0.0412,5.655737705,1.662179753,0.212820309
167,28,1,2,9,16,208,1447.3295724955387,1451.208026428707,stimuli/148_xc.png,l,3.866810263134539,harmless,0.0412,6.491525424,1.135218061,0.147792803
167,28,1,2,9,17,209,1451.7964126123115,1457.7840308742598,stimuli/246_ya.png,l,5.9759899522177875,ambig,0.0412,5.542372881,1.715266481,0.223308675
167,28,1,2,9,18,210,1458.3925969512202,1468.31204830762,stimuli/339_ya.png,l,9.90761470189318,ambig,0.0412,4.949152542,1.960152429,0.25519011
167,28,1,2,9,19,211,1468.9206900028512,1474.3520953799598,stimuli/278_xb.png,l,5.419613621197641,harmless,0.0412,6.360655738,1.140654591,0.146045855
167,28,1,2,9,20,212,1474.9747056197375,1481.5360377179459,stimuli/208_xb.png,l,6.549363111145794,harmless,0.0412,6.216666667,1.165778516,0.150501359
167,28,1,2,9,21,213,1482.1148880962282,1485.2880492876284,stimuli/122_xa.png,l,3.161525791976601,harmless,0.0412,6.457627119,1.039264227,0.135300678
167,28,1,2,9,22,214,1485.8647835301235,1492.2480502640828,stimuli/141_xc.png,l,6.371735310181975,harmless,0.0412,6.508474576,1.040107444,0.135410455
167,28,1,2,9,23,215,1492.8523009680212,1498.096018529497,stimuli/283_yb.png,l,5.231903749983758,ambig,0.0412,5.949152542,1.478859402,0.192531095
167,28,1,2,9,24,216,1498.715874208603,1502.6720596030354,stimuli/123_xc.png,l,3.9447985123842955,harmless,0.0412,6.491525424,1.023396666,0.133234897
167,28,1,2,10,1,217,1511.2206326588057,1514.7761137774214,stimuli/125_xc.png,l,3.5435219779610634,harmless,0.0412,6.683333333,0.999858747,0.129081209
167,28,1,2,10,2,218,1515.395988754928,1519.8720606272109,stimuli/176_xb.png,l,4.464314774610102,harmless,0.0412,6.796610169,0.517942249,0.067430337
167,28,1,2,10,3,219,1520.440052271355,1526.952293405775,stimuli/350_ya.png,l,6.500445045996457,ambig,0.0412,4.915254237,2.02814792,0.264042369
167,28,1,2,10,4,220,1527.5830440530553,1532.5040534655564,stimuli/251_ya.png,l,4.909494923893362,ambig,0.0412,5.655172414,1.792300532,0.235340589
167,28,1,2,10,5,221,1533.110170606058,1536.8480872069485,stimuli/128_xc.png,l,3.7260732506401837,harmless,0.0412,6.627118644,0.98082135,0.127692063
167,28,1,2,10,6,222,1537.4603002998047,1543.7920357990079,stimuli/309_ya.png,l,6.319603459909558,ambig,0.0412,4.706896552,1.946734744,0.255618795
167,28,1,2,10,7,223,1544.4086997481063,1552.2160518332385,stimuli/230_yb.png,l,7.796025461517274,ambig,0.0412,4.98245614,1.875511626,0.248417583
167,28,1,2,10,8,224,1552.7765450389124,1559.8321407670155,stimuli/181_xa.png,l,7.043637374881655,harmless,0.0412,6.666666667,0.950765377,0.122743282
167,28,1,2,10,9,225,1560.4552275603637,1566.1440721023828,stimuli/261_yb.png,l,5.677047272212803,ambig,0.0412,5.706896552,1.901141123,0.249632059
167,28,1,2,10,10,226,1566.7561375028454,1577.8721047379076,stimuli/167_xb.png,l,11.10424597747624,harmless,0.0412,6.590163934,0.955284411,0.122311635
167,28,1,2,10,11,227,1578.4614861709997,1582.9600639920682,stimuli/120_xa.png,l,4.486925486475229,harmless,0.0412,6.440677966,1.054893138,0.137335389
167,28,1,2,10,12,228,1583.5559450695291,1588.456064089667,stimuli/105_xa.png,l,4.888389097992331,harmless,0.0412,6.557377049,1.088187946,0.139328189
167,28,1,2,10,13,229,1589.0580186699517,1596.448087128345,stimuli/357_za.png,a,7.378081748262048,awful,0.0412,2.793103448,2.066937905,0.271402243
167,28,1,2,10,14,230,1597.056524417363,1604.6240513226949,stimuli/218_yb.png,l,7.555612663272768,ambig,0.0412,5.850282486,1.552723069,0.0825263
167,28,1,2,10,15,231,1605.2118227123283,1610.3361343676224,stimuli/151_xa.png,l,5.112936588469893,harmless,0.0412,6.610169492,0.947172729,0.123311386
167,28,1,2,10,16,232,1610.9198570181616,1615.7120649279095,stimuli/163_xa.png,l,4.780381495133042,harmless,0.0412,6.627118644,0.963082427,0.125382652
167,28,1,2,10,17,233,1616.3134838771075,1621.6881316802464,stimuli/216_xa.png,l,5.363289671484381,harmless,0.0412,6.603448276,0.877389573,0.115206895
167,28,1,2,10,18,234,1622.2590791401453,1626.8480939022265,stimuli/240_xa.png,l,4.578011092264205,harmless,0.0412,6.482758621,1.096107616,0.143925981
167,28,1,2,10,19,235,1627.4236131296493,1636.616195666138,stimuli/285_yb.png,l,9.181029451079667,ambig,0.0412,4.120689655,2.119893958,0.278355714
167,28,1,2,10,20,236,1637.464558171574,1639.504116086755,stimuli/106_xc.png,l,2.027958356309682,harmless,0.0412,6.661016949,0.863237081,0.112383896
167,28,1,2,10,21,237,1640.2783945407718,1643.0562152480707,stimuli/130_xc.png,l,2.7670789449475706,harmless,0.0412,6.644067797,0.960651931,0.125066229
167,28,1,2,10,22,238,1643.8718837900087,1648.6401277319528,stimuli/124_xa.png,l,4.755983114708215,harmless,0.0412,6.344262295,1.181598436,0.151288177
167,28,1,2,10,23,239,1649.32166406326,1652.2800731137395,stimuli/263_ya.png,l,2.9473423650488257,ambig,0.0412,4.983050847,2.071910042,0.269739712
167,28,1,2,10,24,240,1652.8528712573461,1656.2322487593628,stimuli/135_xa.png,l,3.367679481394589,harmless,0.0412,6.508474576,1.179901828,0.153610134
