id,age,condition,counterbalance,block,trialinblock,trial,tstart,tend,trialstim,response,RT,trialtype,ethicfreq,norm_mean,norm_sd,norm_se
044,71,0,2,0,0,practice,3.1511299312114716e-06,76.936080776155,stimuli/prac_217_1.png,l,76.91529555758461,harmless,NA,NA,NA,NA
044,71,0,2,1,1,1,6.016260322649032,17.85540183307603,stimuli/105_xa.png,l,11.82763924030587,harmless,0.333,6.557377049,1.088187946,0.139328189
044,71,0,2,1,2,2,18.40755451610312,33.39944522827864,stimuli/339_ya.png,l,14.979946941137314,ambig,0.333,4.949152542,1.960152429,0.25519011
044,71,0,2,1,3,3,33.95654264697805,49.85545421438292,stimuli/344_za.png,l,15.886966220568866,awful,0.333,2.711864407,2.043077863,0.265986082
044,71,0,2,1,4,4,50.410262206569314,65.03146316902712,stimuli/227_xa.png,l,14.609396218787879,harmless,0.333,6.180327869,1.05685377,0.135316259
044,71,0,2,1,5,5,65.58219288662076,74.27135432558134,stimuli/257_yb.png,l,8.677212547510862,ambig,0.333,5.620689655,1.843219782,0.242026615
044,71,0,2,1,6,6,74.83429011609405,92.62340807449073,stimuli/273_ya.png,l,17.777314002159983,ambig,0.333,5.551724138,1.836973233,0.241206403
044,71,0,2,1,7,7,93.18031014548615,123.2074165912345,stimuli/365_zb.png,l,30.01511501893401,awful,0.333,2.966101695,2.165291266,0.281896912
044,71,0,2,1,8,8,123.75956691103056,134.71933358116075,stimuli/318_za.png,a,10.947828018572181,awful,0.333,3.06557377,2.197489875,0.281359747
044,71,0,2,1,9,9,135.27761253714561,159.03957718238235,stimuli/192_za.png,l,23.749863729346544,awful,0.333,2.68852459,2.093967396,0.268105052
044,71,0,2,1,10,10,159.66562560060993,167.35136215528473,stimuli/158_xa.png,l,7.674030272755772,harmless,0.333,6.786885246,0.661179605,0.084655374
044,71,0,2,1,11,11,167.90620165504515,179.37531507667154,stimuli/321_zb.png,a,11.45707709621638,awful,0.333,2.918032787,2.177881861,0.278849198
044,71,0,2,1,12,12,179.93660340970382,187.39136075321585,stimuli/298_za.png,a,7.442860439885408,awful,0.333,2.881355932,2.026418156,0.263817173
044,71,0,2,1,13,13,187.95562419854105,196.90330413077027,stimuli/204_xb.png,l,8.935692443978041,harmless,0.333,6.508474576,0.858484658,0.111765183
044,71,0,2,1,14,14,197.45326072908938,211.73546511586756,stimuli/225_ya.png,l,14.270631224382669,ambig,0.333,5.85,1.792876677,0.231459384
044,71,0,2,1,15,15,212.3052817885764,228.36761223804206,stimuli/287_ya.png,l,16.05040755169466,ambig,0.333,5.950819672,1.407435369,0.180203633
044,71,0,2,1,16,16,228.92762254085392,241.45531699853018,stimuli/215_yb.png,l,12.51575265545398,ambig,0.333,5.866666667,1.466769385,0.189359113
044,71,0,2,1,17,17,242.00519325211644,248.9113665507175,stimuli/247_ya.png,a,6.89428269630298,ambig,0.333,4.65,2.081598147,0.268733165
044,71,0,2,1,18,18,249.46137828705832,260.4312884588726,stimuli/101_xa.png,l,10.95793961873278,harmless,0.333,6.508522727,1.13475832,0.060482822
044,71,0,2,1,19,19,261.0046450183727,268.7195651624352,stimuli/115_xb.png,l,7.70298740034923,harmless,0.333,6.440677966,1.021681954,0.133011661
044,71,0,2,1,20,20,269.27687801467255,277.1832888023928,stimuli/125_xc.png,l,7.8947328622452915,harmless,0.333,6.683333333,0.999858747,0.129081209
044,71,0,2,1,21,21,277.7458224762231,290.25525547983125,stimuli/211_zb.png,a,12.497492383234203,awful,0.333,3.983333333,2.127237938,0.274625237
044,71,0,2,1,22,22,290.79645727714524,300.9832528834231,stimuli/185_xa.png,l,10.17485734866932,harmless,0.333,6.5,0.965506805,0.124646393
044,71,0,2,1,23,23,301.54706695023924,314.9752310300246,stimuli/308_zb.png,a,13.416213219054043,awful,0.333,1.644067797,1.471132708,0.191525165
044,71,0,2,1,24,24,315.5339660597965,330.343245384749,stimuli/228_ya.png,l,14.797529325820506,ambig,0.333,5.442622951,1.793735303,0.229664272
044,71,0,2,2,1,25,340.5678049074486,361.7912667817436,stimuli/147_ya.png,l,21.211824908852577,ambig,0.333,5.883333333,1.766847875,0.22809908
044,71,0,2,2,2,26,362.346564324107,380.8712360141799,stimuli/367_zb.png,a,18.512456164695323,awful,0.333,3.413793103,2.086165649,0.27392697
044,71,0,2,2,3,27,381.42628976656124,399.7832914018072,stimuli/279_ya.png,l,18.344863303937018,ambig,0.333,5.31147541,1.970964092,0.252356093
044,71,0,2,2,4,28,400.3393963286653,407.3431945787743,stimuli/103_xb.png,l,6.9919214327819645,harmless,0.333,6.779661017,0.589207434,0.076708274
044,71,0,2,2,5,29,407.9025219529867,424.89517908962443,stimuli/363_zb.png,a,16.980716516263783,awful,0.333,2.433333333,2.019956927,0.260775318
044,71,0,2,2,6,30,425.4519964833744,434.63114005792886,stimuli/331_za.png,a,9.167223827447742,awful,0.333,1.983606557,1.638004917,0.209725039
044,71,0,2,2,7,31,435.1879854151048,453.1911432715133,stimuli/351_zb.png,a,17.991238109767437,awful,0.333,3.06779661,2.033040926,0.264679384
044,71,0,2,2,8,32,453.7477842224762,462.84718463150784,stimuli/138_xc.png,l,9.087474754545838,harmless,0.333,6.661016949,0.70978796,0.092406522
044,71,0,2,2,9,33,463.4060476613231,473.92714913841337,stimuli/314_zb.png,a,10.509095083922148,awful,0.333,1.833333333,1.451669602,0.18740974
044,71,0,2,2,10,34,474.50072743324563,483.831148407422,stimuli/139_xa.png,l,9.318686334881932,harmless,0.333,6.724137931,0.790138861,0.103750315
044,71,0,2,2,11,35,484.3917612945661,498.2951225331053,stimuli/310_zb.png,l,13.891349725890905,awful,0.333,3.224137931,2.102989547,0.276136056
044,71,0,2,2,12,36,498.8458002633415,508.7991133737378,stimuli/281_ya.png,l,9.941214951686561,ambig,0.333,5.881355932,1.543448286,0.200939852
044,71,0,2,2,13,37,509.36659729713574,518.0551187363453,stimuli/131_xb.png,l,8.676629261579365,harmless,0.333,6.525423729,1.119666394,0.145768149
044,71,0,2,2,14,38,518.6083304709755,530.7911183014512,stimuli/202_yb.png,l,12.170860206708312,ambig,0.333,5.431034483,1.892849601,0.248543329
044,71,0,2,2,15,39,531.344182738103,539.2631044350564,stimuli/184_xb.png,l,7.906933814752847,harmless,0.333,6.508474576,1.194425,0.15550089
044,71,0,2,2,16,40,539.8145993952639,551.2071412927471,stimuli/335_yb.png,l,11.38054456282407,ambig,0.333,5.016949153,2.046793332,0.266469795
044,71,0,2,2,17,41,551.7683981182054,562.9911628849804,stimuli/296_yb.png,l,11.2109643551521,ambig,0.333,4.229508197,2.052587332,0.262806878
044,71,0,2,2,18,42,563.5540010016412,584.0951547496952,stimuli/359_za.png,l,20.52933285664767,awful,0.333,2.01754386,1.641985167,0.217486248
044,71,0,2,2,19,43,584.648706373293,596.3910767901689,stimuli/218_yb.png,l,11.730410497635603,ambig,0.333,5.850282486,1.552723069,0.0825263
044,71,0,2,2,20,44,596.9641556888819,611.2310378942639,stimuli/120_xa.png,l,14.254922680556774,harmless,0.333,6.440677966,1.054893138,0.137335389
044,71,0,2,2,21,45,611.7912092800252,620.3670569150709,stimuli/322_za.png,a,8.56384990690276,awful,0.333,2.406779661,1.975004531,0.257123689
044,71,0,2,2,22,46,620.9167208857834,635.2790815825574,stimuli/323_yb.png,a,14.350517749786377,ambig,0.333,4.603448276,1.955107169,0.256718148
044,71,0,2,2,23,47,635.8429066771641,645.3670328906737,stimuli/157_xc.png,l,9.512137149926275,harmless,0.333,6.603448276,0.877389573,0.115206895
044,71,0,2,2,24,48,645.9340989431366,661.4150446774438,stimuli/193_xc.png,l,15.46905749477446,harmless,0.333,6.482758621,1.012923151,0.133003326
044,71,0,2,3,1,49,677.776260857936,688.4391515925527,stimuli/136_xc.png,l,10.65067402785644,harmless,0.333,6.559322034,1.038420326,0.135190811
044,71,0,2,3,2,50,689.0015844418667,701.5990313752554,stimuli/210_yb.png,l,12.585587051231414,ambig,0.333,5.557377049,1.76564049,0.226067099
044,71,0,2,3,3,51,702.1591728287749,713.999019717332,stimuli/302_za.png,a,11.828784544486552,awful,0.333,3.137931034,2.188071937,0.287307921
044,71,0,2,3,4,52,714.5518399691209,721.039006893523,stimuli/346_zb.png,a,6.475231423508376,awful,0.333,1.288135593,0.983499162,0.128040685
044,71,0,2,3,5,53,721.600932075642,736.1350135323592,stimuli/295_za.png,l,14.522383051458746,awful,0.333,2.3,1.825432384,0.235662307
044,71,0,2,3,6,54,736.695367269218,757.7990172756836,stimuli/275_yb.png,l,21.092624683864415,ambig,0.333,4.836065574,2.138382004,0.27379176
044,71,0,2,3,7,55,758.3483074861579,766.7830015309155,stimuli/161_xc.png,l,8.422743971459568,harmless,0.333,6.796610169,0.609682252,0.079373868
044,71,0,2,3,8,56,767.3446852853522,784.6389886192046,stimuli/226_yb.png,l,17.28228748869151,ambig,0.333,5.683333333,1.712285287,0.22105508
044,71,0,2,3,9,57,785.1886707069352,792.4309517205693,stimuli/311_za.png,l,7.230810645036399,awful,0.333,3.116666667,1.975199339,0.254997138
044,71,0,2,3,10,58,793.0481634172611,803.3911055410281,stimuli/149_xa.png,l,10.331290191970766,harmless,0.333,6.721311475,0.933294301,0.11949609
044,71,0,2,3,11,59,803.9420975600369,815.7989554414526,stimuli/315_yb.png,l,11.844896780792624,ambig,0.333,5.050847458,1.915667965,0.249398726
044,71,0,2,3,12,60,816.34916685801,830.278945311904,stimuli/221_xb.png,l,13.917791359126568,harmless,0.333,6.440677966,1.133672495,0.147591588
044,71,0,2,3,13,61,830.8165548406541,844.7589434529655,stimuli/366_za.png,a,13.930889099370688,awful,0.333,3.689655172,2.036568291,0.267414518
044,71,0,2,3,14,62,845.31955909729,857.7509369594045,stimuli/301_za.png,a,12.419563665986061,awful,0.333,3.610169492,2.212947396,0.288101212
044,71,0,2,3,15,63,858.3501309929416,866.2149130543694,stimuli/134_xc.png,l,7.853147852700204,harmless,0.333,6.516666667,0.965360505,0.124627505
044,71,0,2,3,16,64,866.7740813149139,873.4309040652588,stimuli/178_xa.png,l,6.644826203584671,harmless,0.333,6.483333333,1.112207557,0.143585378
044,71,0,2,3,17,65,874.0951752299443,892.5588653925806,stimuli/181_xa.png,l,18.451357665471733,harmless,0.333,6.666666667,0.950765377,0.122743282
044,71,0,2,3,18,66,893.1090067047626,909.3989013270475,stimuli/270_yb.png,l,16.277899257373065,ambig,0.333,5.534482759,1.912246013,0.251090203
044,71,0,2,3,19,67,909.9541130117141,922.3829659274779,stimuli/332_zb.png,a,12.41706983372569,awful,0.333,2.694915254,2.002190501,0.260663001
044,71,0,2,3,20,68,922.9367511016317,932.8149132905528,stimuli/306_zb.png,a,9.86629521753639,awful,0.333,2.352112676,1.917055413,0.101746737
044,71,0,2,3,21,69,933.3755710762925,944.5109111070633,stimuli/189_yb.png,l,11.123579791281372,ambig,0.333,5.983333333,1.455459234,0.187898979
044,71,0,2,3,22,70,945.0717264311388,955.2310107187368,stimuli/237_ya.png,l,10.147302706725895,ambig,0.333,4.305084746,2.019339575,0.26289562
044,71,0,2,3,23,71,955.7859723106958,991.9268679320812,stimuli/262_ya.png,l,36.12973402766511,ambig,0.333,5.491525424,1.7750462,0.231091332
044,71,0,2,3,24,72,992.4809673954733,1002.2468362352811,stimuli/187_xc.png,l,9.753980994224548,harmless,0.333,6.224137931,1.185335891,0.155642228
044,71,0,2,4,1,73,1018.4859097679146,1029.1349422461353,stimuli/212_ya.png,l,10.637171020265669,ambig,0.333,5.677966102,1.490668422,0.194068498
044,71,0,2,4,2,74,1029.7016502930783,1038.3348351987079,stimuli/372_zb.png,a,8.620476679410785,awful,0.333,2.796610169,2.082601664,0.271131643
044,71,0,2,4,3,75,1038.8826004383154,1047.9348433120176,stimuli/108_xb.png,l,9.040298708248883,harmless,0.333,6.568965517,1.077880782,0.141532681
044,71,0,2,4,4,76,1048.4929942684248,1057.614778910298,stimuli/261_yb.png,l,9.109803061001003,ambig,0.333,5.706896552,1.901141123,0.249632059
044,71,0,2,4,5,77,1058.180227437988,1074.766793590039,stimuli/121_xc.png,l,16.57463340833783,harmless,0.333,6.508474576,1.006408455,0.131023221
044,71,0,2,4,6,78,1075.323368374724,1086.9187913341448,stimuli/233_yb.png,a,11.583433895371854,ambig,0.333,5.318309859,1.922973646,0.102060844
044,71,0,2,4,7,79,1087.4679035264999,1106.726767028682,stimuli/176_xb.png,l,19.247085146140307,harmless,0.333,6.796610169,0.517942249,0.067430337
044,71,0,2,4,8,80,1107.2829243373126,1125.6467513223179,stimuli/355_zb.png,l,18.351976555306464,awful,0.333,3.183333333,2.070713188,0.267327923
044,71,0,2,4,9,81,1126.2077836557291,1144.7908174032345,stimuli/348_za.png,a,18.57124121300876,awful,0.333,3.084745763,2.119597681,0.275948114
044,71,0,2,4,10,82,1145.3530068560503,1168.7587886713445,stimuli/280_xb.png,l,23.393765970133245,harmless,0.333,6.333333333,1.068289726,0.137915611
044,71,0,2,4,11,83,1169.3130039256066,1179.7509113592096,stimuli/333_za.png,l,10.426099145319313,awful,0.333,3.266666667,2.185209657,0.282109354
044,71,0,2,4,12,84,1180.3126171687618,1202.5987454429269,stimuli/203_yb.png,l,22.27397497650236,ambig,0.333,6,1.542501327,0.200816568
044,71,0,2,4,13,85,1203.158351266291,1224.3827611273155,stimuli/267_ya.png,l,21.212395197246224,ambig,0.333,5.103448276,1.898195405,0.249245267
044,71,0,2,4,14,86,1224.9312305636704,1237.0306829600595,stimuli/194_xb.png,l,12.08748341910541,harmless,0.333,6.586206897,1.026567825,0.134794959
044,71,0,2,4,15,87,1237.5882403906435,1250.9267352060415,stimuli/146_xa.png,l,13.326637296006083,harmless,0.333,6.442622951,1.162247681,0.148810567
044,71,0,2,4,16,88,1251.4805822144262,1262.470684866421,stimuli/291_za.png,a,10.978179360739887,awful,0.333,2.593220339,1.830005126,0.238246374
044,71,0,2,4,17,89,1263.0288992319256,1282.5187250101008,stimuli/360_za.png,l,19.477767003700137,awful,0.333,3.2,2.207844259,0.285031468
044,71,0,2,4,18,90,1283.076725911349,1291.7346478858963,stimuli/102_xc.png,l,8.646073907613754,harmless,0.333,6.66011236,0.937292468,0.049676401
044,71,0,2,4,19,91,1292.3594592334703,1302.9826629022136,stimuli/135_xa.png,l,10.61187981069088,harmless,0.333,6.508474576,1.179901828,0.153610134
044,71,0,2,4,20,92,1303.536130242981,1339.9189567491412,stimuli/304_ya.png,a,36.37071338109672,ambig,0.333,4.034482759,2.017167697,0.264867095
044,71,0,2,4,21,93,1340.48213751195,1353.1346724615432,stimuli/249_ya.png,l,12.640600236598402,ambig,0.333,5.327868852,1.859402337,0.238072074
044,71,0,2,4,22,94,1353.7011394747533,1361.6706085391343,stimuli/292_zb.png,a,7.957604062277824,awful,0.333,2.396551724,1.955107169,0.256718148
044,71,0,2,4,23,95,1362.2184198582545,1373.2625904660672,stimuli/361_za.png,a,11.032500558998436,awful,0.333,2.416666667,1.907093508,0.246204713
044,71,0,2,4,24,96,1373.8145871860906,1398.526633436326,stimuli/220_yb.png,l,24.70026080450043,ambig,0.333,4.75,2.096203186,0.270618668
044,71,0,2,5,1,97,1435.5578027963638,1444.6865994711407,stimuli/269_za.png,l,9.116777285002172,awful,0.333,3.457627119,2.119873401,0.27598401
044,71,0,2,5,2,98,1445.2456483962014,1451.2305865464732,stimuli/128_xc.png,l,5.973202329594642,harmless,0.333,6.627118644,0.98082135,0.127692063
044,71,0,2,5,3,99,1451.8023893842474,1459.7586039579473,stimuli/116_xa.png,l,7.943236562889069,harmless,0.333,6.63559322,0.958030802,0.050918763
044,71,0,2,5,4,100,1460.3104533795267,1481.4466031575575,stimuli/276_ya.png,a,21.124244997277856,ambig,0.333,5.186440678,1.804922162,0.234980851
044,71,0,2,5,5,101,1481.9993863878772,1489.4625220159069,stimuli/119_xc.png,l,7.4512178506702185,harmless,0.333,6.694915254,0.914523379,0.119060803
044,71,0,2,5,6,102,1490.0157821937464,1497.6145079443231,stimuli/145_xa.png,l,7.586756773293018,harmless,0.333,6.661016949,0.822321556,0.107057148
044,71,0,2,5,7,103,1498.173786087893,1512.2625124845654,stimuli/349_za.png,a,14.076734182424843,awful,0.333,3.288135593,2.101320172,0.273568585
044,71,0,2,5,8,104,1512.816363824997,1532.7425594627857,stimuli/222_ya.png,l,19.914565367624164,ambig,0.333,5.931034483,1.543089507,0.202617579
044,71,0,2,5,9,105,1533.3014587261714,1539.2625172110274,stimuli/143_xb.png,l,5.949567636009306,harmless,0.333,6.655172414,0.738697862,0.096995781
044,71,0,2,5,10,106,1539.8967469898053,1548.5265093748458,stimuli/166_xa.png,l,8.618097850121558,harmless,0.333,6.593220339,1.052397002,0.13701042
044,71,0,2,5,11,107,1549.0878666308708,1580.7825265526772,stimuli/373_zb.png,a,31.6826810981147,awful,0.333,2.327586207,1.858011869,0.243968911
044,71,0,2,5,12,108,1581.3385597998276,1598.3425293727778,stimuli/258_ya.png,l,16.992133715189993,ambig,0.333,5.627118644,1.78014243,0.231754804
044,71,0,2,5,13,109,1598.9055462954566,1607.5984567538835,stimuli/326_zb.png,a,8.681014736182988,awful,0.333,3.389830508,2.220724867,0.289113752
044,71,0,2,5,14,110,1608.1543324622326,1623.102465711534,stimuli/209_ya.png,l,14.936169785447419,ambig,0.333,5.603448276,1.825161903,0.239655499
044,71,0,2,5,15,111,1623.6555797723122,1630.5744490879588,stimuli/243_ya.png,l,6.906953507103026,ambig,0.333,5.830508475,1.652088985,0.215083666
044,71,0,2,5,16,112,1631.1261019804515,1648.366472054273,stimuli/357_za.png,l,17.228346351534128,awful,0.333,2.793103448,2.066937905,0.271402243
044,71,0,2,5,17,113,1648.9241728447378,1657.1744729550555,stimuli/242_xb.png,l,8.238700166344643,harmless,0.333,6.576271186,0.913564256,0.118935936
044,71,0,2,5,18,114,1657.722061751876,1668.574445543345,stimuli/362_zb.png,a,10.84039906039834,awful,0.333,1.474576271,1.222715071,0.159183944
044,71,0,2,5,19,115,1669.1300687966868,1677.262475463096,stimuli/132_xc.png,l,8.120428236667067,harmless,0.333,6.627118644,0.692280217,0.090127208
044,71,0,2,5,20,116,1677.8177875783294,1686.7424381580204,stimuli/205_yb.png,l,8.912822993006557,ambig,0.333,5.847457627,1.52918233,0.199082582
044,71,0,2,5,21,117,1687.3031187867746,1698.6145067629404,stimuli/248_zb.png,a,11.299424512311816,awful,0.333,3.288135593,1.991800844,0.259310383
044,71,0,2,5,22,118,1699.1649485793896,1710.1184881511144,stimuli/229_za.png,a,10.941550508141518,awful,0.333,3.406779661,2.043649913,0.266060557
044,71,0,2,5,23,119,1710.6804342069663,1736.0304167200811,stimuli/207_yb.png,l,25.338032440282404,ambig,0.333,5.655737705,1.662179753,0.212820309
044,71,0,2,5,24,120,1736.5898665804416,1743.3663755618036,stimuli/201_yb.png,l,6.7645904161036015,ambig,0.333,5.898305085,1.626238682,0.211718243
044,71,0,2,6,1,121,1753.5100422832184,1762.1983857043087,stimuli/230_yb.png,l,8.67641855450347,ambig,0.333,4.98245614,1.875511626,0.248417583
044,71,0,2,6,2,122,1762.7519448110834,1772.174362284597,stimuli/358_za.png,a,9.410733246710151,awful,0.333,3.949152542,2.112554662,0.275031191
044,71,0,2,6,3,123,1772.7352236886509,1803.5183748812415,stimuli/155_xb.png,l,30.77141300868243,harmless,0.333,6.655737705,0.892286312,0.114245555
044,71,0,2,6,4,124,1804.0781027968042,1830.1183239175007,stimuli/251_ya.png,l,26.028339576907456,ambig,0.333,5.655172414,1.792300532,0.235340589
044,71,0,2,6,5,125,1830.6755383084528,1843.1103382976726,stimuli/214_xb.png,l,12.422745153307915,harmless,0.333,6.465517241,0.940614156,0.12350869
044,71,0,2,6,6,126,1843.660639904905,1854.590358887799,stimuli/167_xb.png,l,10.917699199169874,harmless,0.333,6.590163934,0.955284411,0.122311635
044,71,0,2,6,7,127,1855.1463373904116,1862.49433137523,stimuli/144_xa.png,l,7.335893462877721,harmless,0.333,6.542372881,1.00553698,0.130909764
044,71,0,2,6,8,128,1863.0535303559154,1881.6063687247224,stimuli/271_ya.png,a,18.54087569285184,ambig,0.333,5.711864407,1.771915459,0.230683744
044,71,0,2,6,9,129,1882.1530028386042,1893.0466345078312,stimuli/250_yb.png,l,10.881651270203292,ambig,0.333,5.950819672,1.585625318,0.203018519
044,71,0,2,6,10,130,1893.6051119621843,1898.3743871753104,stimuli/190_xc.png,l,4.757275121752173,harmless,0.333,6.517241379,1.046990328,0.137476565
044,71,0,2,6,11,131,1898.9348062905483,1936.4065013718791,stimuli/213_ya.png,l,37.45991908805445,ambig,0.333,5.98245614,1.597891781,0.211645937
044,71,0,2,6,12,132,1936.955660826061,1952.5422714822926,stimuli/341_zb.png,l,15.574638921767473,awful,0.333,3.603448276,2.15975677,0.283589957
044,71,0,2,6,13,133,1953.0970747484826,1962.3822562168352,stimuli/254_ya.png,l,9.27308961097151,ambig,0.333,5.983606557,1.627798137,0.208418195
044,71,0,2,6,14,134,1962.9421330061741,1970.606247419957,stimuli/290_zb.png,a,7.652102113235742,awful,0.333,2.586206897,2.026443456,0.266085062
044,71,0,2,6,15,135,1971.1490884041414,1991.8225464182906,stimuli/369_za.png,a,20.661489036865532,awful,0.333,2.948275862,2.055565093,0.26990892
044,71,0,2,6,16,136,1992.3689891234972,1999.3101938348264,stimuli/320_za.png,a,6.929480312392116,awful,0.333,1.423728814,1.117314975,0.14546202
044,71,0,2,6,17,137,1999.8717330479994,2007.4302735179663,stimuli/316_za.png,a,7.546820797026157,awful,0.333,2.344827586,1.802062407,0.236622386
044,71,0,2,6,18,138,2007.9821906811558,2020.8702691225335,stimuli/324_za.png,a,12.876206350047141,awful,0.333,2.491525424,1.994586478,0.259673041
044,71,0,2,6,19,139,2021.4207582003437,2064.9902940611355,stimuli/307_za.png,a,43.55752631695941,awful,0.333,2.93220339,2.172432347,0.282826601
044,71,0,2,6,20,140,2065.545295825228,2073.6062111863866,stimuli/200_ya.png,l,8.048984192777425,ambig,0.333,5.862068966,1.444266048,0.189641423
044,71,0,2,6,21,141,2074.1425840384327,2080.2621950451285,stimuli/123_xc.png,l,6.1076459675095975,harmless,0.333,6.491525424,1.023396666,0.133234897
044,71,0,2,6,22,142,2080.813832183834,2084.622490413487,stimuli/179_xb.png,l,3.7965132030658424,harmless,0.333,6.704918033,0.882123617,0.112944356
044,71,0,2,6,23,143,2085.1717187906615,2093.1745276995935,stimuli/219_ya.png,l,7.990849777590483,ambig,0.333,5.271186441,1.998538332,0.260187529
044,71,0,2,6,24,144,2093.798297325149,2100.1422484819777,stimuli/182_xb.png,l,6.33274033293128,harmless,0.333,6.542372881,0.988241802,0.128658124
044,71,0,2,7,1,145,2109.8020557966083,2122.0381908449344,stimuli/140_xb.png,l,12.22445475962013,harmless,0.333,6.724137931,0.790138861,0.103750315
044,71,0,2,7,2,146,2122.5912493737414,2130.190194496885,stimuli/313_zb.png,a,7.586973388679326,awful,0.333,2.101694915,1.688652955,0.219843889
044,71,0,2,7,3,147,2130.777968967799,2136.5021740291268,stimuli/153_xb.png,l,5.71250586817041,harmless,0.333,6.633333333,0.973664521,0.125699549
044,71,0,2,7,4,148,2137.0629850211553,2145.7581691518426,stimuli/168_xa.png,l,8.683048950042576,harmless,0.333,6.474576271,1.164946827,0.151663159
044,71,0,2,7,5,149,2146.311911397148,2153.3344669528306,stimuli/274_xb.png,l,7.010644473601133,harmless,0.333,6.491525424,1.179901828,0.153610134
044,71,0,2,7,6,150,2153.892259115819,2161.3341439994983,stimuli/236_yb.png,l,7.429621703457087,ambig,0.333,5.93442623,1.49297078,0.19115532
044,71,0,2,7,7,151,2161.889472655952,2170.630165289156,stimuli/256_zb.png,a,8.729083237238228,awful,0.333,3.051724138,2.012438634,0.264246138
044,71,0,2,7,8,152,2171.1866817846894,2187.782124435995,stimuli/191_ya.png,a,16.583478006068617,ambig,0.333,5.517241379,2.062542966,0.270825159
044,71,0,2,7,9,153,2188.3443280672655,2197.3741162093356,stimuli/368_za.png,l,9.017910930793732,awful,0.333,3.590163934,2.02794682,0.259651984
044,71,0,2,7,10,154,2197.92184088286,2204.606115087867,stimuli/133_xa.png,l,6.672362335026264,harmless,0.333,6.568965517,1.186356193,0.1557762
044,71,0,2,7,11,155,2205.241442515515,2212.934131632559,stimuli/151_xa.png,l,7.6805417272262275,harmless,0.333,6.610169492,0.947172729,0.123311386
044,71,0,2,7,12,156,2213.4863772634417,2226.9101196345873,stimuli/325_yb.png,l,13.411832470912486,ambig,0.333,5.131147541,1.811770863,0.231973488
044,71,0,2,7,13,157,2227.4679240062833,2248.126152786892,stimuli/293_zb.png,l,20.646415765862912,awful,0.333,3.677966102,2.169066842,0.28238845
044,71,0,2,7,14,158,2248.6882599256933,2256.470070466865,stimuli/284_ya.png,l,7.769872284028679,ambig,0.333,5.948275862,1.431750417,0.18799804
044,71,0,2,7,15,159,2257.0320236114785,2270.4941021571867,stimuli/285_yb.png,a,13.450180066283792,ambig,0.333,4.120689655,2.119893958,0.278355714
044,71,0,2,7,16,160,2271.047504119575,2276.0940771871246,stimuli/113_xb.png,l,5.0346300839446485,harmless,0.333,6.733333333,0.660422737,0.085260209
044,71,0,2,7,17,161,2276.645524098538,2286.7260620445013,stimuli/217_yb.png,l,10.068561879452318,ambig,0.333,5.169491525,2.001314588,0.260548967
044,71,0,2,7,18,162,2287.2869770117104,2296.150057659019,stimuli/268_zb.png,a,8.85113490652293,awful,0.333,2.655737705,2.048456703,0.262278005
044,71,0,2,7,19,163,2296.7012363607064,2312.086062029004,stimuli/288_yb.png,l,15.373087877873331,ambig,0.333,5.189655172,1.914459262,0.251380817
044,71,0,2,7,20,164,2312.641037405934,2319.630059344694,stimuli/356_za.png,a,6.977056506089866,awful,0.333,3.033333333,2.178217796,0.281206708
044,71,0,2,7,21,165,2320.2352059655823,2326.950031979941,stimuli/156_xc.png,l,6.703378095291555,harmless,0.333,6.590163934,0.955284411,0.122311635
044,71,0,2,7,22,166,2327.502269733697,2339.094083488919,stimuli/329_zb.png,l,11.580123226623982,awful,0.333,2.406779661,1.992387617,0.259386774
044,71,0,2,7,23,167,2339.6427896260284,2354.070075822994,stimuli/336_ya.png,l,14.415318007115275,ambig,0.333,5.033898305,1.884291705,0.245313885
044,71,0,2,7,24,168,2354.6229496379383,2367.838027319871,stimuli/300_za.png,a,13.20319574419409,awful,0.333,3.75,2.12032137,0.273732312
044,71,0,2,8,1,169,2377.164685884025,2392.9580660429783,stimuli/163_xa.png,l,15.781625827308744,harmless,0.333,6.627118644,0.963082427,0.125382652
044,71,0,2,8,2,170,2393.518506031949,2405.837967455387,stimuli/246_ya.png,l,12.307651165872812,ambig,0.333,5.542372881,1.715266481,0.223308675
044,71,0,2,8,3,171,2406.3967103622854,2410.8779672351666,stimuli/343_zb.png,l,4.469278443139046,awful,0.333,3.103448276,2.141401862,0.28117984
044,71,0,2,8,4,172,2411.427209002897,2421.781946811825,stimuli/245_yb.png,a,10.342487231828272,ambig,0.333,4.949152542,2.096168334,0.272897873
044,71,0,2,8,5,173,2422.3421335578896,2434.9260621233843,stimuli/370_za.png,a,12.571921384893358,awful,0.333,2.393442623,1.882185684,0.240989182
044,71,0,2,8,6,174,2435.481036318466,2444.901993411593,stimuli/347_zb.png,l,9.409027894027531,awful,0.333,3.796610169,2.147810923,0.279621165
044,71,0,2,8,7,175,2445.4622140284628,2461.318038064055,stimuli/183_xb.png,l,15.843675858341157,harmless,0.333,6.448275862,1.095003225,0.143780967
044,71,0,2,8,8,176,2461.8747703875415,2477.189945979975,stimuli/240_xa.png,l,15.303376756142825,harmless,0.333,6.482758621,1.096107616,0.143925981
044,71,0,2,8,9,177,2477.7522071124986,2493.3099252320826,stimuli/264_xa.png,l,15.545878323726356,harmless,0.333,6.533333333,0.947193297,0.122282129
044,71,0,2,8,10,178,2493.8750385968015,2509.4859361560084,stimuli/223_yb.png,a,15.599525652360171,ambig,0.333,5.542372881,1.77455224,0.231027024
044,71,0,2,8,11,179,2510.0453143361956,2521.5739162145182,stimuli/286_ya.png,l,11.5165954856202,ambig,0.333,5.06779661,1.779814082,0.231712057
044,71,0,2,8,12,180,2522.1216968139634,2546.053988792468,stimuli/208_xb.png,l,23.920363173354417,harmless,0.333,6.216666667,1.165778516,0.150501359
044,71,0,2,8,13,181,2546.6151459747925,2555.557882353198,stimuli/328_za.png,a,8.93080442212522,awful,0.333,2.706896552,1.955725922,0.256799395
044,71,0,2,8,14,182,2556.1858791271225,2565.021897832863,stimuli/282_xc.png,l,8.824429396074265,harmless,0.333,6.55,0.998728005,0.128935231
044,71,0,2,8,15,183,2565.586282189004,2577.6379079059698,stimuli/317_za.png,l,12.039893046952784,awful,0.333,3.65,2.03215674,0.262350307
044,71,0,2,8,16,184,2578.1970111820847,2597.1978551936336,stimuli/263_ya.png,l,18.988899452611804,ambig,0.333,4.983050847,2.071910042,0.269739712
044,71,0,2,8,17,185,2597.745385307353,2604.933855940588,stimuli/195_xc.png,l,7.176803342066705,harmless,0.333,6.637640449,1.001766915,0.05309354
044,71,0,2,8,18,186,2605.4957492207177,2625.3738704496063,stimuli/353_zb.png,a,19.86616918677464,awful,0.333,1.949152542,1.623361018,0.211343603
044,71,0,2,8,19,187,2625.921134717297,2649.853927273769,stimuli/350_ya.png,a,23.92079600971192,ambig,0.333,4.915254237,2.02814792,0.264042369
044,71,0,2,8,20,188,2650.4061244614422,2656.87786365347,stimuli/337_zb.png,a,6.459734768606722,awful,0.333,3.033333333,2.20143764,0.284204377
044,71,0,2,8,21,189,2657.4404225335456,2667.2618193160743,stimuli/266_zb.png,a,9.809401023667306,awful,0.333,3.491525424,1.888010094,0.245797978
044,71,0,2,8,22,190,2667.814810103271,2674.8697890243493,stimuli/114_xc.png,l,7.043000097386539,harmless,0.333,6.644067797,0.97843492,0.127381377
044,71,0,2,8,23,191,2675.4201363176107,2698.46198953595,stimuli/277_yb.png,l,23.02993425913155,ambig,0.333,5.491525424,2.02886822,0.264136144
044,71,0,2,8,24,192,2699.017520629335,2710.1018068073317,stimuli/289_yb.png,a,11.072269544936717,ambig,0.333,5.305084746,1.714584873,0.223219937
044,71,0,2,9,1,193,2721.301416584756,2731.2538218805566,stimuli/177_xb.png,l,9.940897511783987,harmless,0.333,6.482758621,1.063614811,0.139659467
044,71,0,2,9,2,194,2731.8164362930693,2752.7258454295807,stimuli/198_yb.png,l,20.89739486668259,ambig,0.333,5.101694915,1.83542643,0.238952168
044,71,0,2,9,3,195,2753.2791516873986,2769.6937603778206,stimuli/142_xa.png,l,16.402713362127542,harmless,0.333,6.4,1.076718178,0.139003719
044,71,0,2,9,4,196,2770.249357637018,2782.5177679648623,stimuli/338_zb.png,l,12.256900968495756,awful,0.333,3.310344828,2.137443107,0.28066003
044,71,0,2,9,5,197,2783.0778507352807,2796.9257490159944,stimuli/342_yb.png,l,13.836209721397609,ambig,0.333,4.916666667,2.085394461,0.269223267
044,71,0,2,9,6,198,2797.4857998848893,2806.565756120719,stimuli/294_za.png,a,9.068107774946839,awful,0.333,1.557377049,1.38473331,0.177296933
044,71,0,2,9,7,199,2807.1144760427997,2818.5337549583055,stimuli/334_za.png,a,11.407089384272695,awful,0.333,3.333333333,2.214487481,0.285889104
044,71,0,2,9,8,200,2819.0839584977366,2830.8377378433943,stimuli/364_za.png,l,11.74196475557983,awful,0.333,1.677966102,1.279017376,0.166513879
044,71,0,2,9,9,201,2831.39953502547,2842.85377721861,stimuli/252_zb.png,l,11.44225194817409,awful,0.333,2.711864407,1.983125776,0.258180985
044,71,0,2,9,10,202,2843.482125696726,2851.5977431051433,stimuli/196_xb.png,l,8.103999347891659,harmless,0.333,6.594366197,0.982313556,0.05213579
044,71,0,2,9,11,203,2852.1528181247413,2859.3897652835585,stimuli/299_za.png,a,7.225199522450566,awful,0.333,1.288135593,0.929420425,0.121000233
044,71,0,2,9,12,204,2859.950758231804,2870.5097673786804,stimuli/241_yb.png,a,10.547119332011789,ambig,0.333,5.508474576,1.442852555,0.187843403
044,71,0,2,9,13,205,2871.062066966202,2900.4777528252453,stimuli/352_zb.png,a,29.40393664734438,awful,0.333,2.93442623,2.135952968,0.273480754
044,71,0,2,9,14,206,2901.0337443244644,2911.3096853797324,stimuli/330_ya.png,l,10.264042182359844,ambig,0.333,4.796610169,2.049219036,0.266785595
044,71,0,2,9,15,207,2911.863943169359,2922.461717782542,stimuli/164_xb.png,l,10.585840688087046,harmless,0.333,6.830508475,0.460604639,0.059965616
044,71,0,2,9,16,208,2923.022561069578,2931.837702397257,stimuli/327_zb.png,a,8.803183377720416,awful,0.333,2.502808989,1.906990248,0.101070281
044,71,0,2,9,17,209,2932.3855424672365,2962.1096833320335,stimuli/283_yb.png,l,29.712648834567517,ambig,0.333,5.949152542,1.478859402,0.192531095
044,71,0,2,9,18,210,2962.669272219762,2973.077636089176,stimuli/152_xa.png,l,10.396415765862912,harmless,0.333,6.576271186,0.968528743,0.126091702
044,71,0,2,9,19,211,2973.6387188346125,2982.6456647012383,stimuli/231_xb.png,l,8.995043449103832,harmless,0.333,6.62295082,1.05141071,0.134619347
044,71,0,2,9,20,212,2983.2034139349125,2999.7897823764943,stimuli/235_ya.png,a,16.574532189872116,ambig,0.333,5.694915254,1.567495667,0.204070554
044,71,0,2,9,21,213,3000.3464252967387,3007.7176526468247,stimuli/124_xa.png,l,7.359544698614627,harmless,0.333,6.344262295,1.181598436,0.151288177
044,71,0,2,9,22,214,3008.2690491452813,3017.7579159089364,stimuli/319_ya.png,l,9.47692653676495,ambig,0.333,4.216666667,2.108028774,0.272145344
044,71,0,2,9,23,215,3018.3347493405454,3040.8056453084573,stimuli/174_xc.png,l,22.458915962837636,harmless,0.333,6.533333333,1.111826512,0.143536185
044,71,0,2,9,24,216,3041.3650585408323,3055.757663847413,stimuli/173_yb.png,a,14.380609547253698,ambig,0.333,5.796610169,1.242628763,0.161776485
044,71,0,2,10,1,217,3067.057175005786,3086.549570234958,stimuli/312_yb.png,a,19.480548737570643,ambig,0.333,4.677966102,2.112692986,0.275049199
044,71,0,2,10,2,218,3087.1004740325734,3094.8136269897223,stimuli/126_xa.png,l,7.701349394861609,harmless,0.333,6.6,0.977717855,0.126222832
044,71,0,2,10,3,219,3095.372906708624,3109.349611510057,stimuli/117_xc.png,l,13.964965042192489,harmless,0.333,6.627118644,0.868972939,0.113130641
044,71,0,2,10,4,220,3109.9061878705397,3115.6215731464326,stimuli/199_za.png,a,5.703484827652574,awful,0.333,3.033898305,2.189048775,0.284989876
044,71,0,2,10,5,221,3116.2335025817156,3130.4295571120456,stimuli/112_xc.png,l,14.184243878815323,harmless,0.333,6.706896552,0.749470472,0.098410294
044,71,0,2,10,6,222,3130.988594615832,3140.5336001766846,stimuli/188_xa.png,l,9.5330527308397,harmless,0.333,6.655172414,0.806807095,0.105938962
044,71,0,2,10,7,223,3141.081520197913,3150.565540687181,stimuli/169_xc.png,l,9.4721216163598,harmless,0.333,6.603448276,0.916508538,0.120343467
044,71,0,2,10,8,224,3151.1310656210408,3168.1975405109115,stimuli/354_zb.png,a,17.054365309420973,awful,0.333,2,1.701925887,0.221571878
044,71,0,2,10,9,225,3168.7574858292937,3176.1255868300796,stimuli/110_xa.png,l,7.356151321902871,harmless,0.333,6.428571429,1.059281795,0.141552484
044,71,0,2,10,10,226,3176.679309776984,3187.1335657546297,stimuli/224_yb.png,l,10.442269670777023,ambig,0.333,5.881355932,1.609077116,0.209483997
044,71,0,2,10,11,227,3187.6796165830456,3195.269854954444,stimuli/297_za.png,a,7.578556901309639,awful,0.333,1.898305085,1.446695584,0.188343723
044,71,0,2,10,12,228,3195.8224534709007,3210.4775704746135,stimuli/239_ya.png,l,14.643173626158386,ambig,0.333,5.157894737,1.925296579,0.255011762
044,71,0,2,10,13,229,3211.0276928818785,3236.581554462202,stimuli/253_ya.png,l,25.54176460299641,ambig,0.333,5.491803279,1.849531029,0.236808182
044,71,0,2,10,14,230,3237.1384344780818,3262.6695376718417,stimuli/265_yb.png,l,25.51911137299612,ambig,0.333,5.627118644,1.856008928,0.241631781
044,71,0,2,10,15,231,3263.220868004486,3287.9495239187963,stimuli/340_za.png,a,24.71662825345993,awful,0.333,2.508474576,1.832398855,0.238558011
044,71,0,2,10,16,232,3288.500593919307,3297.517450918909,stimuli/303_zb.png,a,9.00494946166873,awful,0.333,3.620689655,2.158846233,0.283470398
044,71,0,2,10,17,233,3298.0647561461665,3311.5174840018153,stimuli/305_zb.png,a,13.440807715058327,awful,0.333,2.75,2.12830003,0.274762352
044,71,0,2,10,18,234,3312.0665347543545,3328.101461404469,stimuli/371_zb.png,a,16.02300966018811,awful,0.333,3.131147541,2.085468851,0.267016925
044,71,0,2,10,19,235,3328.6619321135804,3339.109460021369,stimuli/260_ya.png,a,10.435832653194666,ambig,0.333,4.966101695,2.016877936,0.262575142
044,71,0,2,10,20,236,3339.6645220443606,3350.861478875391,stimuli/345_zb.png,l,11.1850685919635,awful,0.333,3.694915254,2.191317013,0.285285176
044,71,0,2,10,21,237,3351.4178437404335,3387.2374020502903,stimuli/309_ya.png,l,35.80754955345765,ambig,0.333,4.706896552,1.946734744,0.255618795
044,71,0,2,10,22,238,3387.794345081318,3394.6134130526334,stimuli/232_yb.png,a,6.807076150551438,ambig,0.333,5.483333333,1.845669845,0.238274952
044,71,0,2,10,23,239,3395.205283915624,3403.4934582188725,stimuli/171_xa.png,l,8.276551122777164,harmless,0.333,6.465517241,1.046556882,0.137419651
044,71,0,2,10,24,240,3404.0524413720705,3423.757406666409,stimuli/259_xc.png,l,19.69308887096122,harmless,0.333,6.568965517,0.993170874,0.130409725
