id,age,condition,counterbalance,block,trialinblock,trial,tstart,tend,trialstim,response,RT,trialtype,ethicfreq,norm_mean,norm_sd,norm_se
122,21,1,2,0,0,practice,6.199989002197981e-06,10.496646800020244,stimuli/prac_217_1.png,l,10.474886300042272,harmless,NA,NA,NA,NA
122,21,1,2,1,1,1,4.185800199978985,19.128237699973397,stimuli/281_ya.png,a,14.931275799986906,ambig,0.333,5.881355932,1.543448286,0.200939852
122,21,1,2,1,2,2,19.685143299982883,33.12020720000146,stimuli/275_yb.png,l,13.423799799988046,ambig,0.333,4.836065574,2.138382004,0.27379176
122,21,1,2,1,3,3,33.66762770002242,40.94422409997787,stimuli/129_xa.png,l,7.265502599999309,harmless,0.333,6.770491803,0.642740036,0.082294429
122,21,1,2,1,4,4,41.49518490000628,48.416288600012194,stimuli/322_za.png,a,6.909664400038309,awful,0.333,2.406779661,1.975004531,0.257123689
122,21,1,2,1,5,5,48.96369429997867,57.72825559997,stimuli/265_yb.png,a,8.75308449997101,ambig,0.333,5.627118644,1.856008928,0.241631781
122,21,1,2,1,6,6,58.275262899987865,64.99216789996717,stimuli/198_yb.png,l,6.7054083999828435,ambig,0.333,5.101694915,1.83542643,0.238952168
122,21,1,2,1,7,7,65.5406987000024,72.99218200001633,stimuli/360_za.png,a,7.440008100005798,awful,0.333,3.2,2.207844259,0.285031468
122,21,1,2,1,8,8,73.53858549997676,85.73621519998414,stimuli/270_yb.png,a,12.186207099992316,ambig,0.333,5.534482759,1.912246013,0.251090203
122,21,1,2,1,9,9,86.28867799998261,93.1041758999927,stimuli/301_za.png,l,6.804139700019732,awful,0.333,3.610169492,2.212947396,0.288101212
122,21,1,2,1,10,10,93.6475819000043,113.41619239997817,stimuli/335_yb.png,l,19.757200599997304,ambig,0.333,5.016949153,2.046793332,0.266469795
122,21,1,2,1,11,11,113.9582796000177,119.45619029999943,stimuli/158_xa.png,l,5.4864518999820575,harmless,0.333,6.786885246,0.661179605,0.084655374
122,21,1,2,1,12,12,120.006837599969,130.37612540001282,stimuli/289_yb.png,a,10.357930900005158,ambig,0.333,5.305084746,1.714584873,0.223219937
122,21,1,2,1,13,13,130.93343999999342,136.54417609999655,stimuli/302_za.png,a,5.599443399987649,awful,0.333,3.137931034,2.188071937,0.287307921
122,21,1,2,1,14,14,137.09017709997715,150.32812829996692,stimuli/118_xb.png,a,13.22659289999865,harmless,0.333,6.474576271,0.953323265,0.124112118
122,21,1,2,1,15,15,150.8839632999734,156.72816499997862,stimuli/133_xa.png,l,5.8328408999950625,harmless,0.333,6.568965517,1.186356193,0.1557762
122,21,1,2,1,16,16,157.27552630001446,163.63216159999138,stimuli/371_zb.png,a,6.345193899993319,awful,0.333,3.131147541,2.085468851,0.267016925
122,21,1,2,1,17,17,164.1814096000162,176.76816149998922,stimuli/173_yb.png,a,12.575425899995025,ambig,0.333,5.796610169,1.242628763,0.161776485
122,21,1,2,1,18,18,177.32384249998722,185.55210390000138,stimuli/373_zb.png,a,8.21689590002643,awful,0.333,2.327586207,1.858011869,0.243968911
122,21,1,2,1,19,19,186.10077560000354,191.42404999997234,stimuli/102_xc.png,l,5.311882699956186,harmless,0.333,6.66011236,0.937292468,0.049676401
122,21,1,2,1,20,20,191.97708179999609,196.39207990001887,stimuli/297_za.png,a,4.403478200023528,awful,0.333,1.898305085,1.446695584,0.188343723
122,21,1,2,1,21,21,196.94507489999523,202.75207839999348,stimuli/195_xc.png,l,5.795561800012365,harmless,0.333,6.637640449,1.001766915,0.05309354
122,21,1,2,1,22,22,203.30551069998182,211.704141299997,stimuli/139_xa.png,l,8.387255900015589,harmless,0.333,6.724137931,0.790138861,0.103750315
122,21,1,2,1,23,23,212.2579362000106,220.78409119998105,stimuli/303_zb.png,a,8.515146999969147,awful,0.333,3.620689655,2.158846233,0.283470398
122,21,1,2,1,24,24,221.3301955999923,239.8241277000052,stimuli/111_xa.png,l,18.48253229999682,harmless,0.333,6.590163934,0.863655973,0.110579816
122,21,1,2,2,1,25,248.98105519998353,257.7040405999869,stimuli/337_zb.png,a,8.71189899998717,awful,0.333,3.033333333,2.20143764,0.284204377
122,21,1,2,2,2,26,258.2550067999982,273.312075099966,stimuli/165_xb.png,l,15.045639899966773,harmless,0.333,6.557377049,1.008705278,0.129151477
122,21,1,2,2,3,27,273.8619902000064,279.4240192999714,stimuli/331_za.png,a,5.5506015999708325,awful,0.333,1.983606557,1.638004917,0.209725039
122,21,1,2,2,4,28,279.9719466000097,288.4400801999727,stimuli/362_zb.png,a,8.456810400006361,awful,0.333,1.474576271,1.222715071,0.159183944
122,21,1,2,2,5,29,288.98782239999855,294.75206530001014,stimuli/172_xb.png,a,5.752839200024027,harmless,0.333,6.482758621,1.127664553,0.14806961
122,21,1,2,2,6,30,295.29867789999116,318.48801640002057,stimuli/232_yb.png,l,23.1779605000047,ambig,0.333,5.483333333,1.845669845,0.238274952
122,21,1,2,2,7,31,319.0309728999855,326.0639945999719,stimuli/160_xb.png,l,7.021652499970514,harmless,0.333,6.666666667,0.680644427,0.087870818
122,21,1,2,2,8,32,326.60946150001837,336.57598929997766,stimuli/369_za.png,a,9.95512709999457,awful,0.333,2.948275862,2.055565093,0.26990892
122,21,1,2,2,9,33,337.1244177999906,347.1360265999683,stimuli/245_yb.png,a,10.000404299993534,ambig,0.333,4.949152542,2.096168334,0.272897873
122,21,1,2,2,10,34,347.6912054999848,353.54405059997225,stimuli/256_zb.png,a,5.841853799996898,awful,0.333,3.051724138,2.012438634,0.264246138
122,21,1,2,2,11,35,354.0955552000087,361.14397669996833,stimuli/144_xa.png,l,7.037617299996782,harmless,0.333,6.542372881,1.00553698,0.130909764
122,21,1,2,2,12,36,361.68761889997404,367.6961794999661,stimuli/342_yb.png,a,5.997153799980879,ambig,0.333,4.916666667,2.085394461,0.269223267
122,21,1,2,2,13,37,368.2538007000112,383.46397480001906,stimuli/222_ya.png,l,15.19866340002045,ambig,0.333,5.931034483,1.543089507,0.202617579
122,21,1,2,2,14,38,384.01388049998786,389.8639269999694,stimuli/119_xc.png,l,5.838546699960716,harmless,0.333,6.694915254,0.914523379,0.119060803
122,21,1,2,2,15,39,390.419077700004,396.7359461999731,stimuli/284_ya.png,a,6.305404499988072,ambig,0.333,5.948275862,1.431750417,0.18799804
122,21,1,2,2,16,40,397.2759030999732,401.47991960000945,stimuli/113_xb.png,l,4.1924936000141315,harmless,0.333,6.733333333,0.660422737,0.085260209
122,21,1,2,2,17,41,402.0270454999991,414.711997699982,stimuli/109_xb.png,l,12.673537899972871,harmless,0.333,6.644067797,0.97843492,0.127381377
122,21,1,2,2,18,42,415.261038800003,421.5760147999972,stimuli/352_zb.png,a,6.303597800026182,awful,0.333,2.93442623,2.135952968,0.273480754
122,21,1,2,2,19,43,422.1187649000203,429.03992110001855,stimuli/187_xc.png,a,6.910340000002179,harmless,0.333,6.224137931,1.185335891,0.155642228
122,21,1,2,2,20,44,429.58870879997266,440.51993529999163,stimuli/229_za.png,a,10.919833899999503,awful,0.333,3.406779661,2.043649913,0.266060557
122,21,1,2,2,21,45,441.0713533000089,447.09601370000746,stimuli/213_ya.png,a,6.013305100030266,ambig,0.333,5.98245614,1.597891781,0.211645937
122,21,1,2,2,22,46,447.64836569997715,457.5919099000166,stimuli/191_ya.png,a,9.93217760004336,ambig,0.333,5.517241379,2.062542966,0.270825159
122,21,1,2,2,23,47,458.1499205,468.5358816999942,stimuli/350_ya.png,a,10.374672900012229,ambig,0.333,4.915254237,2.02814792,0.264042369
122,21,1,2,2,24,48,469.08727319998434,478.0079079999705,stimuli/333_za.png,a,8.909219099965412,awful,0.333,3.266666667,2.185209657,0.282109354
122,21,1,2,3,1,49,487.1866380000138,500.33585089998087,stimuli/174_xc.png,a,13.138259499974083,harmless,0.333,6.533333333,1.111826512,0.143536185
122,21,1,2,3,2,50,500.88131560001057,507.63990070001455,stimuli/258_ya.png,a,6.7472155000432394,ambig,0.333,5.627118644,1.78014243,0.231754804
122,21,1,2,3,3,51,508.19333470001584,523.5759187000222,stimuli/212_ya.png,a,15.371106100035831,ambig,0.333,5.677966102,1.490668422,0.194068498
122,21,1,2,3,4,52,524.1298633000115,528.431955099979,stimuli/260_ya.png,a,4.290571799967438,ambig,0.333,4.966101695,2.016877936,0.262575142
122,21,1,2,3,5,53,528.9759654999943,546.5598451999831,stimuli/121_xc.png,l,17.572438700008206,harmless,0.333,6.508474576,1.006408455,0.131023221
122,21,1,2,3,6,54,547.1149641000084,552.5278231999837,stimuli/283_yb.png,a,5.401438699977007,ambig,0.333,5.949152542,1.478859402,0.192531095
122,21,1,2,3,7,55,553.0831474000006,557.8558759000152,stimuli/310_zb.png,a,4.761373400047887,awful,0.333,3.224137931,2.102989547,0.276136056
122,21,1,2,3,8,56,558.4118121999782,569.5118313999847,stimuli/211_zb.png,a,11.08853700000327,awful,0.333,3.983333333,2.127237938,0.274625237
122,21,1,2,3,9,57,570.0665859999717,579.8958577999729,stimuli/326_zb.png,a,9.817942199995741,awful,0.333,3.389830508,2.220724867,0.289113752
122,21,1,2,3,10,58,580.4414991000085,589.2077688999707,stimuli/259_xc.png,l,8.75483529997291,harmless,0.333,6.568965517,0.993170874,0.130409725
122,21,1,2,3,11,59,589.7532367999665,604.8157926999847,stimuli/227_xa.png,l,15.05115079996176,harmless,0.333,6.180327869,1.05685377,0.135316259
122,21,1,2,3,12,60,605.3606237000204,611.1997735999757,stimuli/364_za.png,a,5.827690300007816,awful,0.333,1.677966102,1.279017376,0.166513879
122,21,1,2,3,13,61,611.7486322000041,618.8557809999911,stimuli/220_yb.png,a,7.0957197999814525,ambig,0.333,4.75,2.096203186,0.270618668
122,21,1,2,3,14,62,619.4054892999702,628.7437473000027,stimuli/365_zb.png,a,9.32687290001195,awful,0.333,2.966101695,2.165291266,0.281896912
122,21,1,2,3,15,63,629.2979639999685,637.7517449000152,stimuli/228_ya.png,a,8.442336500040255,ambig,0.333,5.442622951,1.793735303,0.229664272
122,21,1,2,3,16,64,638.2963627999998,644.4717667999794,stimuli/140_xb.png,l,6.163899999985006,harmless,0.333,6.724137931,0.790138861,0.103750315
122,21,1,2,3,17,65,645.0104797999957,655.4237763999845,stimuli/311_za.png,a,10.401827699970454,awful,0.333,3.116666667,1.975199339,0.254997138
122,21,1,2,3,18,66,655.9776849999907,662.111783100001,stimuli/254_ya.png,a,6.122654600010719,ambig,0.333,5.983606557,1.627798137,0.208418195
122,21,1,2,3,19,67,662.6540978999692,670.4317189999856,stimuli/354_zb.png,a,7.766279999981634,awful,0.333,2,1.701925887,0.221571878
122,21,1,2,3,20,68,670.979450999992,676.3437305999687,stimuli/372_zb.png,a,5.35273889999371,awful,0.333,2.796610169,2.082601664,0.271131643
122,21,1,2,3,21,69,676.8865115999943,684.3037742999732,stimuli/117_xc.png,l,7.4061561999842525,harmless,0.333,6.627118644,0.868972939,0.113130641
122,21,1,2,3,22,70,684.8537356000161,690.5516840000055,stimuli/178_xa.png,l,5.686654300021473,harmless,0.333,6.483333333,1.112207557,0.143585378
122,21,1,2,3,23,71,691.1028971999767,696.3676937000128,stimuli/247_ya.png,a,5.253446799993981,ambig,0.333,4.65,2.081598147,0.268733165
122,21,1,2,3,24,72,696.9160253999871,709.5357395000174,stimuli/149_xa.png,l,12.608323200023733,harmless,0.333,6.721311475,0.933294301,0.11949609
122,21,1,2,4,1,73,719.1032843000139,726.391757800011,stimuli/125_xc.png,l,7.277473800000735,harmless,0.333,6.683333333,0.999858747,0.129081209
122,21,1,2,4,2,74,726.9382656000089,731.6317181999912,stimuli/316_za.png,a,4.682087499997579,awful,0.333,2.344827586,1.802062407,0.236622386
122,21,1,2,4,3,75,732.1875122999772,737.5596731000114,stimuli/312_yb.png,a,5.360756500042044,ambig,0.333,4.677966102,2.112692986,0.275049199
122,21,1,2,4,4,76,738.1089689999935,745.1116745999898,stimuli/295_za.png,a,6.991164400009438,awful,0.333,2.3,1.825432384,0.235662307
122,21,1,2,4,5,77,745.6557010000106,756.5917016000021,stimuli/296_yb.png,a,10.924639100034256,ambig,0.333,4.229508197,2.052587332,0.262806878
122,21,1,2,4,6,78,757.1388899000012,763.8396524999989,stimuli/291_za.png,a,6.6893733000033535,awful,0.333,2.593220339,1.830005126,0.238246374
122,21,1,2,4,7,79,764.3882487000083,780.0877566999989,stimuli/210_yb.png,l,15.68812770000659,ambig,0.333,5.557377049,1.76564049,0.226067099
122,21,1,2,4,8,80,780.6367287000176,785.8717316999682,stimuli/264_xa.png,l,5.223710699996445,harmless,0.333,6.533333333,0.947193297,0.122282129
122,21,1,2,4,9,81,786.4168409999693,794.2796568999765,stimuli/241_yb.png,a,7.851494400005322,ambig,0.333,5.508474576,1.442852555,0.187843403
122,21,1,2,4,10,82,794.8238102999749,833.0556775999721,stimuli/309_ya.png,l,38.220424700004514,ambig,0.333,4.706896552,1.946734744,0.255618795
122,21,1,2,4,11,83,833.6015587999718,839.2076414999901,stimuli/308_zb.png,a,5.594629900006112,awful,0.333,1.644067797,1.471132708,0.191525165
122,21,1,2,4,12,84,839.7571589999716,847.9676351000089,stimuli/341_zb.png,a,8.199030800024047,awful,0.333,3.603448276,2.15975677,0.283589957
122,21,1,2,4,13,85,848.5228838999756,854.7516250999761,stimuli/138_xc.png,l,6.217407599964645,harmless,0.333,6.661016949,0.70978796,0.092406522
122,21,1,2,4,14,86,855.3031782999751,872.2316231000004,stimuli/263_ya.png,a,16.917275400017388,ambig,0.333,4.983050847,2.071910042,0.269739712
122,21,1,2,4,15,87,872.7867850000039,891.1435771000106,stimuli/206_xa.png,l,18.345540500013158,harmless,0.333,6.325842697,1.136094431,0.060212884
122,21,1,2,4,16,88,891.6913764000055,896.8075294999871,stimuli/192_za.png,a,5.104654999973718,awful,0.333,2.68852459,2.093967396,0.268105052
122,21,1,2,4,17,89,897.3635956000071,912.0635821999749,stimuli/176_xb.png,l,14.68845809996128,harmless,0.333,6.796610169,0.517942249,0.067430337
122,21,1,2,4,18,90,912.6112628999981,920.8316063999664,stimuli/246_ya.png,a,8.208923899976071,ambig,0.333,5.542372881,1.715266481,0.223308675
122,21,1,2,4,19,91,921.3751477000187,925.599533599976,stimuli/294_za.png,a,4.21289159997832,awful,0.333,1.557377049,1.38473331,0.177296933
122,21,1,2,4,20,92,926.1411318000173,936.7355787999695,stimuli/145_xa.png,l,10.583048899949063,harmless,0.333,6.661016949,0.822321556,0.107057148
122,21,1,2,4,21,93,937.2812419999973,948.5835225000046,stimuli/266_zb.png,a,11.290924500033725,awful,0.333,3.491525424,1.888010094,0.245797978
122,21,1,2,4,22,94,949.1100855999975,953.12753659999,stimuli/209_ya.png,a,4.0059961000224575,ambig,0.333,5.603448276,1.825161903,0.239655499
122,21,1,2,4,23,95,953.6727081999998,958.8475292000221,stimuli/184_xb.png,l,5.163419300050009,harmless,0.333,6.508474576,1.194425,0.15550089
122,21,1,2,4,24,96,959.3916471999837,964.6715417999658,stimuli/194_xb.png,l,5.2684740999829955,harmless,0.333,6.586206897,1.026567825,0.134794959
122,21,1,2,5,1,97,974.5703557999805,988.8555319000152,stimuli/147_ya.png,a,14.274147200048901,ambig,0.25,5.883333333,1.766847875,0.22809908
122,21,1,2,5,2,98,989.3936696000164,996.279521599994,stimuli/325_yb.png,a,6.874350199999753,ambig,0.25,5.131147541,1.811770863,0.231973488
122,21,1,2,5,3,99,996.8313070000149,1003.5515190999722,stimuli/361_za.png,a,6.708848799986299,awful,0.25,2.416666667,1.907093508,0.246204713
122,21,1,2,5,4,100,1004.0968543000054,1016.7194739999832,stimuli/272_xb.png,a,12.611146999988705,harmless,0.25,6.355932203,1.029943284,0.134087194
122,21,1,2,5,5,101,1017.2573167000082,1031.7435508000199,stimuli/137_xa.png,l,14.474792300025001,harmless,0.25,6.355932203,1.094858074,0.14253838
122,21,1,2,5,6,102,1032.2887426000088,1040.1354611999705,stimuli/276_ya.png,a,7.83534549997421,ambig,0.25,5.186440678,1.804922162,0.234980851
122,21,1,2,5,7,103,1040.6775841999915,1048.6554200999672,stimuli/127_xb.png,a,7.9663727000006475,harmless,0.25,6.423728814,1.162686987,0.151368953
122,21,1,2,5,8,104,1049.2083364999853,1057.6234602999757,stimuli/122_xa.png,l,8.40366939996602,harmless,0.25,6.457627119,1.039264227,0.135300678
122,21,1,2,5,9,105,1058.1760148999747,1064.3914201000007,stimuli/293_zb.png,a,6.2039533000206575,awful,0.25,3.677966102,2.169066842,0.28238845
122,21,1,2,5,10,106,1064.9429715999868,1084.5354775000014,stimuli/218_yb.png,l,19.581050599983428,ambig,0.25,5.850282486,1.552723069,0.0825263
122,21,1,2,5,11,107,1085.082778299984,1096.5913839999703,stimuli/253_ya.png,a,11.497174499963876,ambig,0.25,5.491803279,1.849531029,0.236808182
122,21,1,2,5,12,108,1097.1449267999851,1108.5034892999684,stimuli/255_xb.png,a,11.347136199998204,harmless,0.25,6.770491803,0.642740036,0.082294429
122,21,1,2,5,13,109,1109.056257600023,1114.9994136000169,stimuli/235_ya.png,a,5.931796499993652,ambig,0.25,5.694915254,1.567495667,0.204070554
122,21,1,2,5,14,110,1115.5271941999672,1120.6793959999923,stimuli/261_yb.png,a,5.140763100003824,ambig,0.25,5.706896552,1.901141123,0.249632059
122,21,1,2,5,15,111,1121.2273759999662,1126.1833544999827,stimuli/148_xc.png,l,4.94451979995938,harmless,0.25,6.491525424,1.135218061,0.147792803
122,21,1,2,5,16,112,1126.7335346000036,1139.5434649999952,stimuli/101_xa.png,l,12.798546099977102,harmless,0.25,6.508522727,1.13475832,0.060482822
122,21,1,2,5,17,113,1140.0933556000236,1151.6794236999704,stimuli/340_za.png,a,11.57461929996498,awful,0.25,2.508474576,1.832398855,0.238558011
122,21,1,2,5,18,114,1152.2316189999692,1156.7514098999673,stimuli/336_ya.png,a,4.509025699982885,ambig,0.25,5.033898305,1.884291705,0.245313885
122,21,1,2,5,19,115,1157.2930532000028,1165.50338249997,stimuli/242_xb.png,l,8.198902199976146,harmless,0.25,6.576271186,0.913564256,0.118935936
122,21,1,2,5,20,116,1166.0583487999975,1173.503370099992,stimuli/105_xa.png,l,7.433574699971359,harmless,0.25,6.557377049,1.088187946,0.139328189
122,21,1,2,5,21,117,1174.0585472999956,1182.1514138000202,stimuli/307_za.png,a,8.081409400037955,awful,0.25,2.93220339,2.172432347,0.282826601
122,21,1,2,5,22,118,1182.6978667000076,1189.0473530999734,stimuli/328_za.png,a,6.338117599952966,awful,0.25,2.706896552,1.955725922,0.256799395
122,21,1,2,5,23,119,1189.603036799992,1205.7833590999944,stimuli/104_xc.png,l,16.16892560000997,harmless,0.25,6.745762712,0.756425814,0.098478253
122,21,1,2,5,24,120,1206.3355774999945,1211.503361399984,stimuli/306_zb.png,a,5.1564743999624625,awful,0.25,2.352112676,1.917055413,0.101746737
122,21,1,2,6,1,121,1220.681265000021,1226.943346999993,stimuli/262_ya.png,a,6.2508494000067,ambig,0.166,5.491525424,1.7750462,0.231091332
122,21,1,2,6,2,122,1227.484268500004,1231.5993164000101,stimuli/317_za.png,a,4.104196200030856,awful,0.166,3.65,2.03215674,0.262350307
122,21,1,2,6,3,123,1232.1396813999745,1239.2313358999672,stimuli/257_yb.png,a,7.0803003999753855,ambig,0.166,5.620689655,1.843219782,0.242026615
122,21,1,2,6,4,124,1239.780813499994,1252.2953292999882,stimuli/214_xb.png,a,12.503119900007732,harmless,0.166,6.465517241,0.940614156,0.12350869
122,21,1,2,6,5,125,1252.8427653000108,1267.0312690999708,stimuli/219_ya.png,l,14.177028099948075,ambig,0.166,5.271186441,1.998538332,0.260187529
122,21,1,2,6,6,126,1267.5746380999917,1274.6233862999943,stimuli/343_zb.png,a,7.037347999983467,awful,0.166,3.103448276,2.141401862,0.28117984
122,21,1,2,6,7,127,1275.1678837999934,1281.6392855999875,stimuli/183_xb.png,l,6.460015399963595,harmless,0.166,6.448275862,1.095003225,0.143780967
122,21,1,2,6,8,128,1282.1816388000152,1286.3592946999706,stimuli/150_xc.png,l,4.1662246999912895,harmless,0.166,6.482758621,1.030097582,0.135258439
122,21,1,2,6,9,129,1286.91733690002,1294.5433160999673,stimuli/205_yb.png,a,7.614585599978454,ambig,0.166,5.847457627,1.52918233,0.199082582
122,21,1,2,6,10,130,1295.0899345999933,1302.1032562999753,stimuli/204_xb.png,l,7.001914099964779,harmless,0.166,6.508474576,0.858484658,0.111765183
122,21,1,2,6,11,131,1302.649663600023,1307.511252299999,stimuli/143_xb.png,l,4.850225400005002,harmless,0.166,6.655172414,0.738697862,0.096995781
122,21,1,2,6,12,132,1308.0443760000053,1315.5032471999875,stimuli/225_ya.png,a,7.447352999995928,ambig,0.166,5.85,1.792876677,0.231459384
122,21,1,2,6,13,133,1316.044561000017,1324.4153051999747,stimuli/141_xc.png,l,8.359244899998885,harmless,0.166,6.508474576,1.040107444,0.135410455
122,21,1,2,6,14,134,1324.9583996000001,1332.5432522000046,stimuli/329_zb.png,a,7.573346299992409,awful,0.166,2.406779661,1.992387617,0.259386774
122,21,1,2,6,15,135,1333.0837024999782,1343.5673400000087,stimuli/123_xc.png,l,10.472264599986374,harmless,0.166,6.491525424,1.023396666,0.133234897
122,21,1,2,6,16,136,1344.1140552000143,1350.4392785999808,stimuli/348_za.png,a,6.313957999984268,awful,0.166,3.084745763,2.119597681,0.275948114
122,21,1,2,6,17,137,1350.989014199993,1358.1832484999904,stimuli/233_yb.png,a,7.182865599985234,ambig,0.166,5.318309859,1.922973646,0.102060844
122,21,1,2,6,18,138,1358.7379989000037,1366.3192018999835,stimuli/146_xa.png,l,7.569791099987924,harmless,0.166,6.442622951,1.162247681,0.148810567
122,21,1,2,6,19,139,1366.8613828999805,1375.2152669000207,stimuli/106_xc.png,l,8.342447400034871,harmless,0.166,6.661016949,0.863237081,0.112383896
122,21,1,2,6,20,140,1375.7698130999925,1380.863228400005,stimuli/239_ya.png,a,5.08177990000695,ambig,0.166,5.157894737,1.925296579,0.255011762
122,21,1,2,6,21,141,1381.4086420999956,1386.8392327000038,stimuli/251_ya.png,a,5.419149800029118,ambig,0.166,5.655172414,1.792300532,0.235340589
122,21,1,2,6,22,142,1387.3915520000155,1402.1911718000192,stimuli/159_xa.png,a,14.788201200019103,harmless,0.166,6.389830508,1.174689235,0.152931512
122,21,1,2,6,23,143,1402.7339135999791,1410.6232126000104,stimuli/177_xb.png,a,7.877902600041125,harmless,0.166,6.482758621,1.063614811,0.139659467
122,21,1,2,6,24,144,1411.1715324000106,1419.3191699999734,stimuli/182_xb.png,l,8.136159299989231,harmless,0.166,6.542372881,0.988241802,0.128658124
122,21,1,2,7,1,145,1429.6381432000198,1435.3271589999786,stimuli/126_xa.png,l,5.677772799972445,harmless,0.083,6.6,0.977717855,0.126222832
122,21,1,2,7,2,146,1435.8782795000006,1442.727193699975,stimuli/323_yb.png,a,6.837505899951793,ambig,0.083,4.603448276,1.955107169,0.256718148
122,21,1,2,7,3,147,1443.2687576999888,1447.5831914999872,stimuli/299_za.png,a,4.303115000016987,awful,0.083,1.288135593,0.929420425,0.121000233
122,21,1,2,7,4,148,1448.1284412000095,1457.8711658999673,stimuli/319_ya.png,a,9.731417799950577,ambig,0.083,4.216666667,2.108028774,0.272145344
122,21,1,2,7,5,149,1458.4238139999798,1467.4471581999678,stimuli/169_xc.png,l,9.01198009995278,harmless,0.083,6.603448276,0.916508538,0.120343467
122,21,1,2,7,6,150,1468.0023223999888,1480.8951536999666,stimuli/170_xc.png,l,12.881501099967863,harmless,0.083,6.583333333,1.062323432,0.137145365
122,21,1,2,7,7,151,1481.4542733000126,1491.7111410999787,stimuli/131_xb.png,l,10.245559800008778,harmless,0.083,6.525423729,1.119666394,0.145768149
122,21,1,2,7,8,152,1492.2669162999955,1504.4631235999987,stimuli/321_zb.png,a,12.184815099986736,awful,0.083,2.918032787,2.177881861,0.278849198
122,21,1,2,7,9,153,1505.0149607000058,1512.6631586999865,stimuli/215_yb.png,a,7.636797300016042,ambig,0.083,5.866666667,1.466769385,0.189359113
122,21,1,2,7,10,154,1513.217211399984,1517.3191185999895,stimuli/315_yb.png,a,4.090500999998767,ambig,0.083,5.050847458,1.915667965,0.249398726
122,21,1,2,7,11,155,1517.8740497999825,1530.8071704999893,stimuli/224_yb.png,a,12.921670600015204,ambig,0.083,5.881355932,1.609077116,0.209483997
122,21,1,2,7,12,156,1531.3559837000212,1536.8870741999708,stimuli/103_xb.png,a,5.52001839998411,harmless,0.083,6.779661017,0.589207434,0.076708274
122,21,1,2,7,13,157,1537.4339682999998,1546.5191055000178,stimuli/273_ya.png,a,9.073762600019109,ambig,0.083,5.551724138,1.836973233,0.241206403
122,21,1,2,7,14,158,1547.0605921999668,1556.4951163000078,stimuli/166_xa.png,l,9.423060100001749,harmless,0.083,6.593220339,1.052397002,0.13701042
122,21,1,2,7,15,159,1557.0426399999997,1564.671045999974,stimuli/171_xa.png,l,7.616878899978474,harmless,0.083,6.465517241,1.046556882,0.137419651
122,21,1,2,7,16,160,1565.2145469000097,1575.41511479998,stimuli/167_xb.png,l,10.189124899974559,harmless,0.083,6.590163934,0.955284411,0.122311635
122,21,1,2,7,17,161,1575.9626857999829,1587.095068799972,stimuli/161_xc.png,l,11.120925700000953,harmless,0.083,6.796610169,0.609682252,0.079373868
122,21,1,2,7,18,162,1587.650372700009,1593.6390350000001,stimuli/240_xa.png,a,5.9773150000255555,harmless,0.083,6.482758621,1.096107616,0.143925981
122,21,1,2,7,19,163,1594.180050099967,1604.4790695999982,stimuli/134_xc.png,l,10.287518299999647,harmless,0.083,6.516666667,0.965360505,0.124627505
122,21,1,2,7,20,164,1605.0265965000144,1609.007142700022,stimuli/304_ya.png,a,3.9690898000262678,ambig,0.083,4.034482759,2.017167697,0.264867095
122,21,1,2,7,21,165,1609.5581617999705,1614.1750608999864,stimuli/216_xa.png,l,4.6054576999740675,harmless,0.083,6.603448276,0.877389573,0.115206895
122,21,1,2,7,22,166,1614.7312680999748,1623.463065000018,stimuli/115_xb.png,l,8.720301599998493,harmless,0.083,6.440677966,1.021681954,0.133011661
122,21,1,2,7,23,167,1623.9988057999872,1631.3590737999766,stimuli/128_xc.png,l,7.348853099974804,harmless,0.083,6.627118644,0.98082135,0.127692063
122,21,1,2,7,24,168,1631.893582699995,1638.4070033999742,stimuli/267_ya.png,a,6.501952899969183,ambig,0.083,5.103448276,1.898195405,0.249245267
122,21,1,2,8,1,169,1647.7687730999896,1654.8870395999984,stimuli/190_xc.png,a,7.107068500015885,harmless,0.0412,6.517241379,1.046990328,0.137476565
122,21,1,2,8,2,170,1655.4311276000226,1661.9190500999684,stimuli/318_za.png,a,6.476379699946847,awful,0.0412,3.06557377,2.197489875,0.281359747
122,21,1,2,8,3,171,1662.4626205000095,1669.7350284999702,stimuli/168_xa.png,l,7.260991799994372,harmless,0.0412,6.474576271,1.164946827,0.151663159
122,21,1,2,8,4,172,1670.2899668000173,1678.5430055999896,stimuli/162_xa.png,l,8.241667499998584,harmless,0.0412,6.644067797,0.905209289,0.117848212
122,21,1,2,8,5,173,1679.0872941999696,1703.6149541999912,stimuli/203_yb.png,l,24.516425499983598,ambig,0.0412,6,1.542501327,0.200816568
122,21,1,2,8,6,174,1704.1635464999708,1713.4709427999915,stimuli/237_ya.png,a,9.295876000018325,ambig,0.0412,4.305084746,2.019339575,0.26289562
122,21,1,2,8,7,175,1714.0220821999828,1718.214963699982,stimuli/164_xb.png,l,4.181456899968907,harmless,0.0412,6.830508475,0.460604639,0.059965616
122,21,1,2,8,8,176,1718.7447606999776,1727.0229601999745,stimuli/280_xb.png,a,8.266698999970686,harmless,0.0412,6.333333333,1.068289726,0.137915611
122,21,1,2,8,9,177,1727.5712018000195,1734.127005300019,stimuli/231_xb.png,l,6.544422100007068,harmless,0.0412,6.62295082,1.05141071,0.134619347
122,21,1,2,8,10,178,1734.6800301999901,1744.542975199991,stimuli/151_xa.png,l,9.851477799995337,harmless,0.0412,6.610169492,0.947172729,0.123311386
122,21,1,2,8,11,179,1745.084858199989,1753.6789700000081,stimuli/197_xa.png,l,8.582668700022623,harmless,0.0412,6.779661017,0.55918033,0.072799078
122,21,1,2,8,12,180,1754.2247641999857,1758.0869598999852,stimuli/179_xb.png,l,3.85080640000524,harmless,0.0412,6.704918033,0.882123617,0.112944356
122,21,1,2,8,13,181,1758.6324638000224,1764.5269204999786,stimuli/217_yb.png,a,5.883049600000959,ambig,0.0412,5.169491525,2.001314588,0.260548967
122,21,1,2,8,14,182,1765.068878400023,1777.1669274999877,stimuli/188_xa.png,l,12.086679100000765,harmless,0.0412,6.655172414,0.806807095,0.105938962
122,21,1,2,8,15,183,1777.7091222999734,1784.414884799975,stimuli/271_ya.png,a,6.694300699979067,ambig,0.0412,5.711864407,1.771915459,0.230683744
122,21,1,2,8,16,184,1784.9586473999661,1796.2709297999972,stimuli/196_xb.png,a,11.300818599993363,harmless,0.0412,6.594366197,0.982313556,0.05213579
122,21,1,2,8,17,185,1796.8177992000128,1809.2949273000122,stimuli/234_xb.png,l,12.465665200026706,harmless,0.0412,6.637931034,0.788030542,0.103473479
122,21,1,2,8,18,186,1809.8472964999964,1815.2309536999674,stimuli/207_yb.png,a,5.37215179996565,ambig,0.0412,5.655737705,1.662179753,0.212820309
122,21,1,2,8,19,187,1815.78441079997,1827.6709020999842,stimuli/200_ya.png,a,11.875062800012529,ambig,0.0412,5.862068966,1.444266048,0.189641423
122,21,1,2,8,20,188,1828.2202939999988,1828.8629165000166,stimuli/157_xc.png,a,0.631235100037884,harmless,0.0412,6.603448276,0.877389573,0.115206895
122,21,1,2,8,21,189,1829.4086118999985,1839.5028885999927,stimuli/108_xb.png,l,10.082837799971458,harmless,0.0412,6.568965517,1.077880782,0.141532681
122,21,1,2,8,22,190,1840.0476807999657,1847.5028777999687,stimuli/226_yb.png,a,7.44378459994914,ambig,0.0412,5.683333333,1.712285287,0.22105508
122,21,1,2,8,23,191,1848.0461046000128,1853.6148764999816,stimuli/189_yb.png,a,5.5573255000053905,ambig,0.0412,5.983333333,1.455459234,0.187898979
122,21,1,2,8,24,192,1854.1584299000097,1859.974959300016,stimuli/180_xc.png,a,5.805162000004202,harmless,0.0412,6.672131148,0.723908638,0.092687003
122,21,1,2,9,1,193,1868.9785510000074,1878.558855900017,stimuli/163_xa.png,l,9.569128600007389,harmless,0.0412,6.627118644,0.963082427,0.125382652
122,21,1,2,9,2,194,1879.110838100023,1891.4629093999974,stimuli/110_xa.png,l,12.34058570000343,harmless,0.0412,6.428571429,1.059281795,0.141552484
122,21,1,2,9,3,195,1892.0150442000013,1899.7508238999872,stimuli/124_xa.png,l,7.724427299981471,harmless,0.0412,6.344262295,1.181598436,0.151288177
122,21,1,2,9,4,196,1900.295302100014,1916.0868527999846,stimuli/155_xb.png,l,15.78009919996839,harmless,0.0412,6.655737705,0.892286312,0.114245555
122,21,1,2,9,5,197,1916.638524400012,1935.2068353000213,stimuli/208_xb.png,l,18.55694030004088,harmless,0.0412,6.216666667,1.165778516,0.150501359
122,21,1,2,9,6,198,1935.7633117000223,1945.6148052000208,stimuli/249_ya.png,a,9.840044900018256,ambig,0.0412,5.327868852,1.859402337,0.238072074
122,21,1,2,9,7,199,1946.1667518999893,1957.1348194999737,stimuli/156_xc.png,a,10.956706299970392,harmless,0.0412,6.590163934,0.955284411,0.122311635
122,21,1,2,9,8,200,1957.6824577000225,1966.0947673000046,stimuli/277_yb.png,a,8.400809700018726,ambig,0.0412,5.491525424,2.02886822,0.264136144
122,21,1,2,9,9,201,1966.6358611999894,1974.9668422999675,stimuli/181_xa.png,l,8.319620999973267,harmless,0.0412,6.666666667,0.950765377,0.122743282
122,21,1,2,9,10,202,1975.5087904999964,1983.0467690000078,stimuli/116_xa.png,a,7.526586799998768,harmless,0.0412,6.63559322,0.958030802,0.050918763
122,21,1,2,9,11,203,1983.6021859999746,1990.398767900013,stimuli/288_yb.png,a,6.785153800039552,ambig,0.0412,5.189655172,1.914459262,0.251380817
122,21,1,2,9,12,204,1990.9454598000157,2010.574732900015,stimuli/120_xa.png,l,19.617850300041027,harmless,0.0412,6.440677966,1.054893138,0.137335389
122,21,1,2,9,13,205,2011.1311535999994,2017.9907599000144,stimuli/202_yb.png,a,6.848205200047232,ambig,0.0412,5.431034483,1.892849601,0.248543329
122,21,1,2,9,14,206,2018.5377011999954,2023.9587420999887,stimuli/238_xb.png,a,5.409787499986123,harmless,0.0412,6.4,1.076718178,0.139003719
122,21,1,2,9,15,207,2024.506380899984,2032.9106999000069,stimuli/244_xb.png,l,8.39291970001068,harmless,0.0412,6.610169492,0.743174671,0.096753101
122,21,1,2,9,16,208,2033.4591885000118,2046.6147294999682,stimuli/135_xa.png,l,13.1440939999884,harmless,0.0412,6.508474576,1.179901828,0.153610134
122,21,1,2,9,17,209,2047.1628499000217,2055.42270559998,stimuli/268_zb.png,a,8.248449500009883,awful,0.0412,2.655737705,2.048456703,0.262278005
122,21,1,2,9,18,210,2055.9738253999967,2061.9266843000078,stimuli/250_yb.png,a,5.941564600041602,ambig,0.0412,5.950819672,1.585625318,0.203018519
122,21,1,2,9,19,211,2062.4729929000023,2068.502723600017,stimuli/287_ya.png,a,6.018370200006757,ambig,0.0412,5.950819672,1.407435369,0.180203633
122,21,1,2,9,20,212,2069.049822299974,2078.7987084999913,stimuli/236_yb.png,a,9.737457100010943,ambig,0.0412,5.93442623,1.49297078,0.19115532
122,21,1,2,9,21,213,2079.3464169999934,2098.070678499993,stimuli/136_xc.png,l,18.712820300017484,harmless,0.0412,6.559322034,1.038420326,0.135190811
122,21,1,2,9,22,214,2098.625809799996,2108.8866391999763,stimuli/185_xa.png,l,10.249398999963887,harmless,0.0412,6.5,0.965506805,0.124646393
122,21,1,2,9,23,215,2109.438819599978,2119.4946576000075,stimuli/142_xa.png,l,10.044411100039724,harmless,0.0412,6.4,1.076718178,0.139003719
122,21,1,2,9,24,216,2120.0473397999885,2126.070702900004,stimuli/330_ya.png,a,6.011820000014268,ambig,0.0412,4.796610169,2.049219036,0.266785595
122,21,1,2,10,1,217,2135.025077999977,2148.974708099966,stimuli/130_xc.png,a,13.938421399972867,harmless,0.0412,6.644067797,0.960651931,0.125066229
122,21,1,2,10,2,218,2149.5190782999853,2157.2706652000197,stimuli/286_ya.png,a,7.74053350003669,ambig,0.0412,5.06779661,1.779814082,0.231712057
122,21,1,2,10,3,219,2157.8035549999913,2163.6065969999763,stimuli/274_xb.png,l,5.791689999983646,harmless,0.0412,6.491525424,1.179901828,0.153610134
122,21,1,2,10,4,220,2164.1466260000016,2169.006614700018,stimuli/114_xc.png,l,4.848560200014617,harmless,0.0412,6.644067797,0.97843492,0.127381377
122,21,1,2,10,5,221,2169.5565039999783,2172.8626881000237,stimuli/243_ya.png,a,3.2947609000257216,ambig,0.0412,5.830508475,1.652088985,0.215083666
122,21,1,2,10,6,222,2173.41662600002,2178.3026193999685,stimuli/279_ya.png,a,4.874562399985734,ambig,0.0412,5.31147541,1.970964092,0.252356093
122,21,1,2,10,7,223,2178.853878199996,2184.8945946000167,stimuli/351_zb.png,a,6.02938920003362,awful,0.0412,3.06779661,2.033040926,0.264679384
122,21,1,2,10,8,224,2185.445674800023,2189.742627999978,stimuli/112_xc.png,l,4.285969999968074,harmless,0.0412,6.706896552,0.749470472,0.098410294
122,21,1,2,10,9,225,2190.2913701999933,2196.46266010002,stimuli/154_xc.png,l,6.159856900048908,harmless,0.0412,6.5,0.965506805,0.124646393
122,21,1,2,10,10,226,2197.009328300017,2205.878617500013,stimuli/175_xb.png,l,8.85789179999847,harmless,0.0412,6.6,1.028409995,0.13276716
122,21,1,2,10,11,227,2206.4301058999845,2243.9826642000116,stimuli/132_xc.png,l,37.54116760002216,harmless,0.0412,6.627118644,0.692280217,0.090127208
122,21,1,2,10,12,228,2244.5269885999733,2251.8226604000083,stimuli/221_xb.png,l,7.28424539999105,harmless,0.0412,6.440677966,1.133672495,0.147591588
122,21,1,2,10,13,229,2252.370272399974,2260.214517400018,stimuli/285_yb.png,a,7.832810399995651,ambig,0.0412,4.120689655,2.119893958,0.278355714
122,21,1,2,10,14,230,2260.7601300000097,2266.590566799976,stimuli/193_xc.png,l,5.818960300006438,harmless,0.0412,6.482758621,1.012923151,0.133003326
122,21,1,2,10,15,231,2267.132925699989,2275.422542000015,stimuli/152_xa.png,l,8.27820540004177,harmless,0.0412,6.576271186,0.968528743,0.126091702
122,21,1,2,10,16,232,2275.9784480999806,2282.750551600009,stimuli/223_yb.png,a,6.760630200034939,ambig,0.0412,5.542372881,1.77455224,0.231027024
122,21,1,2,10,17,233,2283.291242200008,2295.0465215999866,stimuli/282_xc.png,l,11.743850199971348,harmless,0.0412,6.55,0.998728005,0.128935231
122,21,1,2,10,18,234,2295.600275499979,2301.8065118999803,stimuli/201_yb.png,l,6.194808700005524,ambig,0.0412,5.898305085,1.626238682,0.211718243
122,21,1,2,10,19,235,2302.350593800016,2309.3745248999912,stimuli/107_xa.png,l,7.012499800010119,harmless,0.0412,6.813559322,0.540580029,0.070377525
122,21,1,2,10,20,236,2309.9301994999987,2315.798511800007,stimuli/339_ya.png,a,5.856898199999705,ambig,0.0412,4.949152542,1.960152429,0.25519011
122,21,1,2,10,21,237,2316.3507840000093,2329.294540599978,stimuli/186_xa.png,l,12.932305499969516,harmless,0.0412,6.65,0.879618561,0.113558268
122,21,1,2,10,22,238,2329.8478281999705,2336.742501200002,stimuli/153_xb.png,l,6.883250700018834,harmless,0.0412,6.633333333,0.973664521,0.125699549
122,21,1,2,10,23,239,2337.285893399967,2340.998507799988,stimuli/230_yb.png,a,3.7011695000110194,ambig,0.0412,4.98245614,1.875511626,0.248417583
122,21,1,2,10,24,240,2341.5517729999847,2351.5745237999945,stimuli/278_xb.png,a,10.011361800017767,harmless,0.0412,6.360655738,1.140654591,0.146045855
