id,age,condition,counterbalance,block,trialinblock,trial,tstart,tend,trialstim,response,RT,trialtype,ethicfreq,norm_mean,norm_sd,norm_se
102,28,1,2,0,0,practice,7.483089575544e-06,9.72838544897968,stimuli/prac_217_1.png,l,9.713975813909201,harmless,NA,NA,NA,NA
102,28,1,2,1,1,1,4.331086837104522,15.896028262388427,stimuli/182_xb.png,l,11.553506901167566,harmless,0.333,6.542372881,0.988241802,0.128658124
102,28,1,2,1,2,2,16.456926860875683,33.14400103976368,stimuli/254_ya.png,a,16.676002386695473,ambig,0.333,5.983606557,1.627798137,0.208418195
102,28,1,2,1,3,3,33.70410840213299,42.23210670071421,stimuli/327_zb.png,a,8.516718949715141,awful,0.333,2.502808989,1.906990248,0.101070281
102,28,1,2,1,4,4,42.801436355512124,64.8879689964815,stimuli/218_yb.png,a,22.075009107706137,ambig,0.333,5.850282486,1.552723069,0.0825263
102,28,1,2,1,5,5,65.44214740465395,70.46398457701434,stimuli/356_za.png,a,5.010166340769501,awful,0.333,3.033333333,2.178217796,0.281206708
102,28,1,2,1,6,6,71.03025483791134,76.51998078034376,stimuli/331_za.png,a,5.478183898405405,awful,0.333,1.983606557,1.638004917,0.209725039
102,28,1,2,1,7,7,77.08854046667693,80.39993540931027,stimuli/306_zb.png,a,3.299902523169294,awful,0.333,2.352112676,1.917055413,0.101746737
102,28,1,2,1,8,8,80.95230842850287,94.37601912516402,stimuli/191_ya.png,a,13.412274597154465,ambig,0.333,5.517241379,2.062542966,0.270825159
102,28,1,2,1,9,9,94.93874359261827,106.52797900015139,stimuli/122_xa.png,l,11.577564969775267,harmless,0.333,6.457627119,1.039264227,0.135300678
102,28,1,2,1,10,10,107.07767977582989,113.43991114839446,stimuli/240_xa.png,l,6.350646793202031,harmless,0.333,6.482758621,1.096107616,0.143925981
102,28,1,2,1,11,11,113.99926350841997,138.68790952576092,stimuli/141_xc.png,a,24.67757186209201,harmless,0.333,6.508474576,1.040107444,0.135410455
102,28,1,2,1,12,12,139.2496257480816,145.9198925588862,stimuli/216_xa.png,l,6.658675536076771,harmless,0.333,6.603448276,0.877389573,0.115206895
102,28,1,2,1,13,13,146.4851797807496,156.83990917916526,stimuli/146_xa.png,l,10.34340121265268,harmless,0.333,6.442622951,1.162247681,0.148810567
102,28,1,2,1,14,14,157.39454050999484,165.68788313810364,stimuli/281_ya.png,l,8.282053039205493,ambig,0.333,5.881355932,1.543448286,0.200939852
102,28,1,2,1,15,15,166.25916784329456,173.79189189721365,stimuli/370_za.png,a,7.521489603444934,awful,0.333,2.393442623,1.882185684,0.240989182
102,28,1,2,1,16,16,174.34348510179552,180.07190127074136,stimuli/135_xa.png,l,5.717240401485469,harmless,0.333,6.508474576,1.179901828,0.153610134
102,28,1,2,1,17,17,180.6252309413103,187.91987956198864,stimuli/322_za.png,a,7.282364571234211,awful,0.333,2.406779661,1.975004531,0.257123689
102,28,1,2,1,18,18,188.48335076103103,204.70383546699304,stimuli/226_yb.png,a,16.20971341812401,ambig,0.333,5.683333333,1.712285287,0.22105508
102,28,1,2,1,19,19,205.28246263880283,222.18383105593966,stimuli/338_zb.png,a,16.890214705024846,awful,0.333,3.310344828,2.137443107,0.28066003
102,28,1,2,1,20,20,222.73624503510655,229.31982639280614,stimuli/123_xc.png,a,6.571832150832051,harmless,0.333,6.491525424,1.023396666,0.133234897
102,28,1,2,1,21,21,229.87333644472528,273.4078032661637,stimuli/336_ya.png,l,43.523079164966475,ambig,0.333,5.033898305,1.884291705,0.245313885
102,28,1,2,1,22,22,273.96990191272926,283.7438340491499,stimuli/198_yb.png,a,9.76197655434953,ambig,0.333,5.101694915,1.83542643,0.238952168
102,28,1,2,1,23,23,284.2966367540939,291.61575934448047,stimuli/333_za.png,a,7.307482478761813,awful,0.333,3.266666667,2.185209657,0.282109354
102,28,1,2,1,24,24,292.1778111234016,313.1117785484239,stimuli/212_ya.png,a,20.92286333750235,ambig,0.333,5.677966102,1.490668422,0.194068498
102,28,1,2,2,1,25,334.92294328819844,340.74370565544814,stimuli/355_zb.png,a,5.8092719170381315,awful,0.333,3.183333333,2.070713188,0.267327923
102,28,1,2,2,2,26,341.30195130885113,350.007761124667,stimuli/332_zb.png,a,8.694279193325201,awful,0.333,2.694915254,2.002190501,0.260663001
102,28,1,2,2,3,27,350.565076120547,364.6077241031744,stimuli/246_ya.png,l,14.030887748056557,ambig,0.333,5.542372881,1.715266481,0.223308675
102,28,1,2,2,4,28,365.18327061340096,390.40770047242404,stimuli/252_zb.png,a,25.213046928693075,awful,0.333,2.711864407,1.983125776,0.258180985
102,28,1,2,2,5,29,390.97047810908407,398.11167457312695,stimuli/276_ya.png,a,7.129835982923396,ambig,0.333,5.186440678,1.804922162,0.234980851
102,28,1,2,2,6,30,398.6727366176201,404.44784359599,stimuli/114_xc.png,l,5.763620466605062,harmless,0.333,6.644067797,0.97843492,0.127381377
102,28,1,2,2,7,31,405.036417342606,410.4317412118253,stimuli/354_zb.png,a,5.384588421322405,awful,0.333,2,1.701925887,0.221571878
102,28,1,2,2,8,32,410.98755329227424,416.77588600528543,stimuli/132_xc.png,l,5.7769147304061335,harmless,0.333,6.627118644,0.692280217,0.090127208
102,28,1,2,2,9,33,417.34374228309025,423.7356326049194,stimuli/117_xc.png,l,6.380449496151414,harmless,0.333,6.627118644,0.868972939,0.113130641
102,28,1,2,2,10,34,424.298278697097,435.77561149478424,stimuli/248_zb.png,a,11.465670630714158,awful,0.333,3.288135593,1.991800844,0.259310383
102,28,1,2,2,11,35,436.32798687706236,455.0956107858801,stimuli/164_xb.png,l,18.755853434238816,harmless,0.333,6.830508475,0.460604639,0.059965616
102,28,1,2,2,12,36,455.6588441020576,465.03958819486434,stimuli/257_yb.png,l,9.369655759102898,ambig,0.333,5.620689655,1.843219782,0.242026615
102,28,1,2,2,13,37,465.5960867484682,471.7516274691734,stimuli/359_za.png,a,6.144221593363909,awful,0.333,2.01754386,1.641985167,0.217486248
102,28,1,2,2,14,38,472.3147552347218,501.4635694635799,stimuli/158_xa.png,a,29.136845649889437,harmless,0.333,6.786885246,0.661179605,0.084655374
102,28,1,2,2,15,39,502.0177368440782,510.8875420676486,stimuli/112_xc.png,l,8.858021358231781,harmless,0.333,6.706896552,0.749470472,0.098410294
102,28,1,2,2,16,40,511.45392339307,516.271512938838,stimuli/232_yb.png,l,4.805657988297753,ambig,0.333,5.483333333,1.845669845,0.238274952
102,28,1,2,2,17,41,516.8296112939424,535.8315939135209,stimuli/235_ya.png,a,18.99083363363752,ambig,0.333,5.694915254,1.567495667,0.204070554
102,28,1,2,2,18,42,536.3921203277714,549.1355825865176,stimuli/224_yb.png,a,12.732382983493153,ambig,0.333,5.881355932,1.609077116,0.209483997
102,28,1,2,2,19,43,549.6870733911928,555.7114418102719,stimuli/186_xa.png,l,6.013131999352481,harmless,0.333,6.65,0.879618561,0.113558268
102,28,1,2,2,20,44,556.2664681684109,562.9995525912091,stimuli/351_zb.png,a,6.721685344789876,awful,0.333,3.06779661,2.033040926,0.264679384
102,28,1,2,2,21,45,563.572364630294,570.0634784852155,stimuli/310_zb.png,a,6.4797033553768415,awful,0.333,3.224137931,2.102989547,0.276136056
102,28,1,2,2,22,46,570.62436329911,580.3274898437085,stimuli/274_xb.png,l,9.691606555948965,harmless,0.333,6.491525424,1.179901828,0.153610134
102,28,1,2,2,23,47,580.8926002288354,597.3275359236577,stimuli/319_ya.png,a,16.423647681309376,ambig,0.333,4.216666667,2.108028774,0.272145344
102,28,1,2,2,24,48,597.8915506298654,602.9835852961696,stimuli/273_ya.png,a,5.080550123762805,ambig,0.333,5.551724138,1.836973233,0.241206403
102,28,1,2,3,1,49,613.6983960631187,633.7514900169917,stimuli/277_yb.png,l,20.041847688000416,ambig,0.333,5.491525424,2.02886822,0.264136144
102,28,1,2,3,2,50,634.3109743153618,642.9354203220573,stimuli/348_za.png,a,8.61288308884832,awful,0.333,3.084745763,2.119597681,0.275948114
102,28,1,2,3,3,51,643.5008737468452,655.1034038120415,stimuli/116_xa.png,l,11.59067058149958,harmless,0.333,6.63559322,0.958030802,0.050918763
102,28,1,2,3,4,52,655.6549052505579,662.6794430233422,stimuli/261_yb.png,a,7.012851975043304,ambig,0.333,5.706896552,1.901141123,0.249632059
102,28,1,2,3,5,53,663.2379340426705,668.6954756967607,stimuli/297_za.png,a,5.446378883556463,awful,0.333,1.898305085,1.446695584,0.188343723
102,28,1,2,3,6,54,669.2485462168406,675.1433578896394,stimuli/207_yb.png,a,5.883303105685627,ambig,0.333,5.655737705,1.662179753,0.212820309
102,28,1,2,3,7,55,675.706437212124,682.4393700043147,stimuli/110_xa.png,l,6.721749935502885,harmless,0.333,6.428571429,1.059281795,0.141552484
102,28,1,2,3,8,56,683.0032964890706,707.7034049935755,stimuli/283_yb.png,l,24.688452245201916,ambig,0.333,5.949152542,1.478859402,0.192531095
102,28,1,2,3,9,57,708.2638739063405,712.9513364171435,stimuli/294_za.png,a,4.675724331580568,awful,0.333,1.557377049,1.38473331,0.177296933
102,28,1,2,3,10,58,713.5143976227555,722.6713203482504,stimuli/318_za.png,l,9.145291278488003,awful,0.333,3.06557377,2.197489875,0.281359747
102,28,1,2,3,11,59,723.2344603230013,731.1193675624672,stimuli/258_ya.png,a,7.873253737081541,ambig,0.333,5.627118644,1.78014243,0.231754804
102,28,1,2,3,12,60,731.6704578260251,748.4793075403722,stimuli/192_za.png,l,16.79718321506516,awful,0.333,2.68852459,2.093967396,0.268105052
102,28,1,2,3,13,61,749.0450378387468,757.1672686599195,stimuli/185_xa.png,l,8.11100582301151,harmless,0.333,6.5,0.965506805,0.124646393
102,28,1,2,3,14,62,757.7607548448141,761.3913105808606,stimuli/320_za.png,a,3.6193653962982353,awful,0.333,1.423728814,1.117314975,0.14546202
102,28,1,2,3,15,63,761.9518921335402,768.6552998840343,stimuli/107_xa.png,l,6.69129620550666,harmless,0.333,6.813559322,0.540580029,0.070377525
102,28,1,2,3,16,64,769.2191424796183,779.8952823184954,stimuli/361_za.png,a,10.664267752086744,awful,0.333,2.416666667,1.907093508,0.246204713
102,28,1,2,3,17,65,780.4520156041835,791.391297583963,stimuli/139_xa.png,l,10.928313769050874,harmless,0.333,6.724137931,0.790138861,0.103750315
102,28,1,2,3,18,66,791.9553355270764,808.1832836103276,stimuli/210_yb.png,l,16.21669906048919,ambig,0.333,5.557377049,1.76564049,0.226067099
102,28,1,2,3,19,67,808.7355309927079,815.6712537883141,stimuli/161_xc.png,l,6.924385945225367,harmless,0.333,6.796610169,0.609682252,0.079373868
102,28,1,2,3,20,68,816.2335497516033,824.4632311500609,stimuli/196_xb.png,l,8.217752597905928,harmless,0.333,6.594366197,0.982313556,0.05213579
102,28,1,2,3,21,69,825.0189774582395,830.0313812367967,stimuli/231_xb.png,l,5.000612430158071,harmless,0.333,6.62295082,1.05141071,0.134619347
102,28,1,2,3,22,70,830.5947067129018,847.0071912298445,stimuli/263_ya.png,a,16.40072073772899,ambig,0.333,4.983050847,2.071910042,0.269739712
102,28,1,2,3,23,71,847.5813025661046,853.0311630462529,stimuli/317_za.png,a,5.438713069568621,awful,0.333,3.65,2.03215674,0.262350307
102,28,1,2,3,24,72,853.5936118216778,860.2392187675578,stimuli/245_yb.png,a,6.633656483783852,ambig,0.333,4.949152542,2.096168334,0.272897873
102,28,1,2,4,1,73,897.5492147700279,913.1591463786899,stimuli/280_xb.png,l,15.596800003142562,harmless,0.333,6.333333333,1.068289726,0.137915611
102,28,1,2,4,2,74,913.7178981239267,951.4633166145941,stimuli/165_xb.png,l,37.73393237273558,harmless,0.333,6.557377049,1.008705278,0.129151477
102,28,1,2,4,3,75,952.0365138348134,958.8711131853634,stimuli/279_ya.png,a,6.8235291337477975,ambig,0.333,5.31147541,1.970964092,0.252356093
102,28,1,2,4,4,76,959.4397961454524,962.583274551871,stimuli/346_zb.png,a,3.1320600299804937,awful,0.333,1.288135593,0.983499162,0.128040685
102,28,1,2,4,5,77,963.1454539367987,967.8470752028807,stimuli/309_ya.png,a,4.690622729220195,ambig,0.333,4.706896552,1.946734744,0.255618795
102,28,1,2,4,6,78,968.4043303342187,980.0790921067528,stimuli/264_xa.png,l,11.662767593574245,harmless,0.333,6.533333333,0.947193297,0.122282129
102,28,1,2,4,7,79,980.6388316171651,984.2871505849762,stimuli/363_zb.png,a,3.6370427696965635,awful,0.333,2.433333333,2.019956927,0.260775318
102,28,1,2,4,8,80,984.8405869877315,990.1272425085772,stimuli/253_ya.png,a,5.2755959378846455,ambig,0.333,5.491803279,1.849531029,0.236808182
102,28,1,2,4,9,81,990.6872868555947,1005.0390458692564,stimuli/157_xc.png,l,14.340821129037067,harmless,0.333,6.603448276,0.877389573,0.115206895
102,28,1,2,4,10,82,1005.591881657223,1009.4550620011869,stimuli/292_zb.png,a,3.851982127293013,awful,0.333,2.396551724,1.955107169,0.256718148
102,28,1,2,4,11,83,1010.0151394312561,1017.2310594648006,stimuli/177_xb.png,l,7.204128291312372,harmless,0.333,6.482758621,1.063614811,0.139659467
102,28,1,2,4,12,84,1017.7963380220754,1030.2790413006442,stimuli/147_ya.png,l,12.471193923731335,ambig,0.333,5.883333333,1.766847875,0.22809908
102,28,1,2,4,13,85,1030.843102086801,1046.7831386750622,stimuli/339_ya.png,a,15.92865050715045,ambig,0.333,4.949152542,1.960152429,0.25519011
102,28,1,2,4,14,86,1047.3401318989636,1051.9350528639625,stimuli/103_xb.png,l,4.58351243470679,harmless,0.333,6.779661017,0.589207434,0.076708274
102,28,1,2,4,15,87,1052.5002676182194,1057.8230265865568,stimuli/343_zb.png,a,5.311124370578909,awful,0.333,3.103448276,2.141401862,0.28117984
102,28,1,2,4,16,88,1058.3909817196545,1071.9669681556115,stimuli/101_xa.png,l,13.564438090397744,harmless,0.333,6.508522727,1.13475832,0.060482822
102,28,1,2,4,17,89,1072.5293889679888,1079.4549796874053,stimuli/269_za.png,a,6.914094361505704,awful,0.333,3.457627119,2.119873401,0.27598401
102,28,1,2,4,18,90,1080.0116200254997,1085.854982050485,stimuli/285_yb.png,a,5.8317187626089435,ambig,0.333,4.120689655,2.119893958,0.278355714
102,28,1,2,4,19,91,1086.4194843377627,1093.566976820206,stimuli/251_ya.png,a,7.13601936143823,ambig,0.333,5.655172414,1.792300532,0.235340589
102,28,1,2,4,20,92,1094.1283700889908,1100.6949959926424,stimuli/149_xa.png,l,6.555020844301907,harmless,0.333,6.721311475,0.933294301,0.11949609
102,28,1,2,4,21,93,1101.2474544763681,1106.3269967488013,stimuli/352_zb.png,a,5.068022677616682,awful,0.333,2.93442623,2.135952968,0.273480754
102,28,1,2,4,22,94,1106.890683381498,1111.5749498339137,stimuli/220_yb.png,a,4.672307719592936,ambig,0.333,4.75,2.096203186,0.270618668
102,28,1,2,4,23,95,1112.1396766132384,1115.6949566080584,stimuli/349_za.png,a,3.5438305045536254,awful,0.333,3.288135593,2.101320172,0.273568585
102,28,1,2,4,24,96,1116.256090332463,1122.1670339278644,stimuli/290_zb.png,a,5.899463385139825,awful,0.333,2.586206897,2.026443456,0.266085062
102,28,1,2,5,1,97,1131.893429668009,1134.9668878110824,stimuli/298_za.png,a,3.0621961233846378,awful,0.25,2.881355932,2.026418156,0.263817173
102,28,1,2,5,2,98,1135.5295004263462,1140.0309031080396,stimuli/152_xa.png,l,4.490034717513481,harmless,0.25,6.576271186,0.968528743,0.126091702
102,28,1,2,5,3,99,1140.5930194776447,1155.5748746093595,stimuli/228_ya.png,l,14.970406429143623,ambig,0.25,5.442622951,1.793735303,0.229664272
102,28,1,2,5,4,100,1156.1376376737317,1162.5668610295688,stimuli/109_xb.png,l,6.417795920948265,harmless,0.25,6.644067797,0.97843492,0.127381377
102,28,1,2,5,5,101,1163.120251746237,1171.8149023361038,stimuli/113_xb.png,l,8.683848975895671,harmless,0.25,6.733333333,0.660422737,0.085260209
102,28,1,2,5,6,102,1172.3718829569116,1176.7269227057986,stimuli/162_xa.png,l,4.343441778764827,harmless,0.25,6.644067797,0.905209289,0.117848212
102,28,1,2,5,7,103,1177.2789420515182,1182.6389021155483,stimuli/271_ya.png,a,5.348533810669323,ambig,0.25,5.711864407,1.771915459,0.230683744
102,28,1,2,5,8,104,1183.20139972787,1189.262886141165,stimuli/195_xc.png,a,6.049832910939585,harmless,0.25,6.637640449,1.001766915,0.05309354
102,28,1,2,5,9,105,1189.825918202172,1196.0788435900758,stimuli/108_xb.png,l,6.241321903944481,harmless,0.25,6.568965517,1.077880782,0.141532681
102,28,1,2,5,10,106,1196.6399560468271,1223.678830593155,stimuli/172_xb.png,l,27.02736794843804,harmless,0.25,6.482758621,1.127664553,0.14806961
102,28,1,2,5,11,107,1224.2296101124084,1228.1348271903407,stimuli/106_xc.png,l,3.8938463568338193,harmless,0.25,6.661016949,0.863237081,0.112383896
102,28,1,2,5,12,108,1228.717501127394,1234.7188583199168,stimuli/307_za.png,a,5.990364957193378,awful,0.25,2.93220339,2.172432347,0.282826601
102,28,1,2,5,13,109,1235.2788187777915,1241.6548233306385,stimuli/289_yb.png,a,6.364797671587439,ambig,0.25,5.305084746,1.714584873,0.223219937
102,28,1,2,5,14,110,1242.2193673655565,1257.0867701299721,stimuli/202_yb.png,l,14.85585756963701,ambig,0.25,5.431034483,1.892849601,0.248543329
102,28,1,2,5,15,111,1257.6385441097664,1268.9988389427017,stimuli/126_xa.png,l,11.348214007914066,harmless,0.25,6.6,0.977717855,0.126222832
102,28,1,2,5,16,112,1269.5604208635923,1274.422780039109,stimuli/360_za.png,a,4.850657623959705,awful,0.25,3.2,2.207844259,0.285031468
102,28,1,2,5,17,113,1274.9967826739594,1281.3347728396184,stimuli/321_zb.png,a,6.326771862863097,awful,0.25,2.918032787,2.177881861,0.278849198
102,28,1,2,5,18,114,1281.8873356924742,1297.7107974786195,stimuli/230_yb.png,a,15.81205522507662,ambig,0.25,4.98245614,1.875511626,0.248417583
102,28,1,2,5,19,115,1298.262185095693,1303.2868150283757,stimuli/350_ya.png,a,5.013186743948609,ambig,0.25,4.915254237,2.02814792,0.264042369
102,28,1,2,5,20,116,1303.8393089582387,1307.9267340536753,stimuli/312_yb.png,a,4.0753812919138,ambig,0.25,4.677966102,2.112692986,0.275049199
102,28,1,2,5,21,117,1308.4810680309602,1312.614806237747,stimuli/250_yb.png,a,4.122243030404206,ambig,0.25,5.950819672,1.585625318,0.203018519
102,28,1,2,5,22,118,1313.1800087827723,1321.7907213876024,stimuli/324_za.png,a,8.59969910181826,awful,0.25,2.491525424,1.994586478,0.259673041
102,28,1,2,5,23,119,1322.3571944790892,1326.9187389846484,stimuli/301_za.png,a,4.549738191039069,awful,0.25,3.610169492,2.212947396,0.288101212
102,28,1,2,5,24,120,1327.4814614828792,1332.0787569440145,stimuli/121_xc.png,l,4.586215398187051,harmless,0.25,6.508474576,1.006408455,0.131023221
102,28,1,2,6,1,121,1347.4372495387215,1350.8946793406212,stimuli/369_za.png,a,3.4463036590022966,awful,0.166,2.948275862,2.055565093,0.26990892
102,28,1,2,6,2,122,1351.4517584228888,1367.7109227215697,stimuli/111_xa.png,l,16.247052359831287,harmless,0.166,6.590163934,0.863655973,0.110579816
102,28,1,2,6,3,123,1368.2619125544443,1372.4546717000194,stimuli/262_ya.png,a,4.180798049666919,ambig,0.166,5.491525424,1.7750462,0.231091332
102,28,1,2,6,4,124,1373.0118665729533,1387.6547996998997,stimuli/213_ya.png,l,14.631972399278311,ambig,0.166,5.98245614,1.597891781,0.211645937
102,28,1,2,6,5,125,1388.2147495239624,1396.6306415944418,stimuli/193_xc.png,l,8.40437602030579,harmless,0.166,6.482758621,1.012923151,0.133003326
102,28,1,2,6,6,126,1397.1849649378855,1409.054715810751,stimuli/145_xa.png,l,11.858233641134575,harmless,0.166,6.661016949,0.822321556,0.107057148
102,28,1,2,6,7,127,1409.6126211814408,1417.6307920435502,stimuli/166_xa.png,a,8.006062074040528,harmless,0.166,6.593220339,1.052397002,0.13701042
102,28,1,2,6,8,128,1418.1888301402505,1423.4386654142581,stimuli/102_xc.png,l,5.238082128664246,harmless,0.166,6.66011236,0.937292468,0.049676401
102,28,1,2,6,9,129,1424.0026143481955,1427.7827365585545,stimuli/328_za.png,a,3.7686939877457917,awful,0.166,2.706896552,1.955725922,0.256799395
102,28,1,2,6,10,130,1428.3420908878034,1441.4147384962707,stimuli/267_ya.png,a,13.061354081117315,ambig,0.166,5.103448276,1.898195405,0.249245267
102,28,1,2,6,11,131,1441.9845687290363,1447.8148991853523,stimuli/286_ya.png,a,5.818616301694419,ambig,0.166,5.06779661,1.779814082,0.231712057
102,28,1,2,6,12,132,1448.3712189329672,1457.0385886143195,stimuli/221_xb.png,l,8.655941852601245,harmless,0.166,6.440677966,1.133672495,0.147591588
102,28,1,2,6,13,133,1457.5902653142111,1463.9746981664503,stimuli/217_yb.png,a,6.372426857909886,ambig,0.166,5.169491525,2.001314588,0.260548967
102,28,1,2,6,14,134,1464.5355601373012,1468.3425686226983,stimuli/239_ya.png,a,3.7951025278889574,ambig,0.166,5.157894737,1.925296579,0.255011762
102,28,1,2,6,15,135,1468.907961789082,1475.6145963179588,stimuli/160_xb.png,l,6.695438675262267,harmless,0.166,6.666666667,0.680644427,0.087870818
102,28,1,2,6,16,136,1476.184146132553,1479.5346538982121,stimuli/326_zb.png,a,3.33919612140744,awful,0.166,3.389830508,2.220724867,0.289113752
102,28,1,2,6,17,137,1480.0933505050198,1486.150584959425,stimuli/148_xc.png,l,6.045777481078403,harmless,0.166,6.491525424,1.135218061,0.147792803
102,28,1,2,6,18,138,1486.7227361253172,1493.7985636444937,stimuli/118_xb.png,a,7.064293352072127,harmless,0.166,6.474576271,0.953323265,0.124112118
102,28,1,2,6,19,139,1494.3543442172813,1501.014606557932,stimuli/237_ya.png,a,6.648758893512422,ambig,0.166,4.305084746,2.019339575,0.26289562
102,28,1,2,6,20,140,1501.5800268996682,1507.2705271428858,stimuli/136_xc.png,l,5.6788412269961555,harmless,0.166,6.559322034,1.038420326,0.135190811
102,28,1,2,6,21,141,1507.8223479903245,1519.3025566498109,stimuli/270_yb.png,l,11.468453938752646,ambig,0.166,5.534482759,1.912246013,0.251090203
102,28,1,2,6,22,142,1519.8567886210221,1536.1025534990476,stimuli/142_xa.png,l,16.234154698700877,harmless,0.166,6.4,1.076718178,0.139003719
102,28,1,2,6,23,143,1536.669078971987,1546.590513830888,stimuli/234_xb.png,l,9.910532420384698,harmless,0.166,6.637931034,0.788030542,0.103473479
102,28,1,2,6,24,144,1547.1594315230323,1562.982553026406,stimuli/344_za.png,a,15.81192407439812,awful,0.166,2.711864407,2.043077863,0.265986082
102,28,1,2,7,1,145,1573.0923737675184,1582.6785741995554,stimuli/266_zb.png,a,9.57500142767094,awful,0.083,3.491525424,1.888010094,0.245797978
102,28,1,2,7,2,146,1583.2301792195358,1588.3425355396757,stimuli/325_yb.png,a,5.100599236349808,ambig,0.083,5.131147541,1.811770863,0.231973488
102,28,1,2,7,3,147,1588.9013731432788,1597.8784710119653,stimuli/115_xb.png,l,8.965564095444279,harmless,0.083,6.440677966,1.021681954,0.133011661
102,28,1,2,7,4,148,1598.4315943073598,1605.0145329087682,stimuli/206_xa.png,l,6.571332754363539,harmless,0.083,6.325842697,1.136094431,0.060212884
102,28,1,2,7,5,149,1605.5734457369254,1611.9025251421263,stimuli/335_yb.png,a,6.317471588932676,ambig,0.083,5.016949153,2.046793332,0.266469795
102,28,1,2,7,6,150,1612.4635686758847,1615.9504490826512,stimuli/184_xb.png,l,3.4750173784559593,harmless,0.083,6.508474576,1.194425,0.15550089
102,28,1,2,7,7,151,1616.5104505005002,1623.1744543759269,stimuli/156_xc.png,l,6.652053413359681,harmless,0.083,6.590163934,0.955284411,0.122311635
102,28,1,2,7,8,152,1623.7285701626388,1639.0944552423898,stimuli/153_xb.png,l,15.354889299807837,harmless,0.083,6.633333333,0.973664521,0.125699549
102,28,1,2,7,9,153,1639.650845488417,1644.3104056020675,stimuli/260_ya.png,a,4.648071238829289,ambig,0.083,4.966101695,2.016877936,0.262575142
102,28,1,2,7,10,154,1644.8711667484022,1659.4944887192978,stimuli/188_xa.png,l,14.611978031287435,harmless,0.083,6.655172414,0.806807095,0.105938962
102,28,1,2,7,11,155,1660.0603753744217,1663.326417795528,stimuli/125_xc.png,l,3.25431999572902,harmless,0.083,6.683333333,0.999858747,0.129081209
102,28,1,2,7,12,156,1663.8850891962356,1679.374387028307,stimuli/197_xa.png,l,15.477557683625491,harmless,0.083,6.779661017,0.55918033,0.072799078
102,28,1,2,7,13,157,1679.9320769653423,1683.1023920222651,stimuli/199_za.png,a,3.1587990067200735,awful,0.083,3.033898305,2.189048775,0.284989876
102,28,1,2,7,14,158,1683.6684783571982,1701.0463926681841,stimuli/163_xa.png,l,17.36620842712,harmless,0.083,6.627118644,0.963082427,0.125382652
102,28,1,2,7,15,159,1701.6028427787533,1716.6703317953798,stimuli/189_yb.png,l,15.05632821531617,ambig,0.083,5.983333333,1.455459234,0.187898979
102,28,1,2,7,16,160,1717.228269855259,1726.366402593092,stimuli/179_xb.png,l,9.126536736963317,harmless,0.083,6.704918033,0.882123617,0.112944356
102,28,1,2,7,17,161,1726.930423994665,1731.886419213377,stimuli/278_xb.png,a,4.944153064221609,harmless,0.083,6.360655738,1.140654591,0.146045855
102,28,1,2,7,18,162,1732.445580164349,1745.4863085427205,stimuli/284_ya.png,a,13.029331663419725,ambig,0.083,5.948275862,1.431750417,0.18799804
102,28,1,2,7,19,163,1746.038482275966,1750.238279445388,stimuli/247_ya.png,a,4.188765549508389,ambig,0.083,4.65,2.081598147,0.268733165
102,28,1,2,7,20,164,1750.7899545698892,1757.2783481320948,stimuli/249_ya.png,a,6.4764950877579395,ambig,0.083,5.327868852,1.859402337,0.238072074
102,28,1,2,7,21,165,1757.837872602715,1765.902255357796,stimuli/315_yb.png,a,8.05338973205653,ambig,0.083,5.050847458,1.915667965,0.249398726
102,28,1,2,7,22,166,1766.4721411228238,1770.3263299679384,stimuli/178_xa.png,l,3.8428082778700627,harmless,0.083,6.483333333,1.112207557,0.143585378
102,28,1,2,7,23,167,1770.8970672275173,1780.3022856839234,stimuli/155_xb.png,l,9.393292412773008,harmless,0.083,6.655737705,0.892286312,0.114245555
102,28,1,2,7,24,168,1780.8543014850002,1791.0384251683427,stimuli/127_xb.png,l,10.172691522282548,harmless,0.083,6.423728814,1.162686987,0.151368953
102,28,1,2,8,1,169,1812.8857701555535,1819.71024294378,stimuli/238_xb.png,a,6.812799199717119,harmless,0.0412,6.4,1.076718178,0.139003719
102,28,1,2,8,2,170,1820.260786943225,1824.7263855001947,stimuli/304_ya.png,a,4.453696144075366,ambig,0.0412,4.034482759,2.017167697,0.264867095
102,28,1,2,8,3,171,1825.2926640318474,1845.4062680553761,stimuli/120_xa.png,l,20.101405832450837,harmless,0.0412,6.440677966,1.054893138,0.137335389
102,28,1,2,8,4,172,1845.9638284171524,1853.5742271269264,stimuli/143_xb.png,l,7.598510081472341,harmless,0.0412,6.655172414,0.738697862,0.096995781
102,28,1,2,8,5,173,1854.1365207271301,1858.8301878841303,stimuli/296_yb.png,a,4.682112903770758,ambig,0.0412,4.229508197,2.052587332,0.262806878
102,28,1,2,8,6,174,1859.3865328378743,1871.1502801228198,stimuli/223_yb.png,a,11.751741684449371,ambig,0.0412,5.542372881,1.77455224,0.231027024
102,28,1,2,8,7,175,1871.7123496247805,1876.4861545490276,stimuli/275_yb.png,a,4.762346375529887,ambig,0.0412,4.836065574,2.138382004,0.27379176
102,28,1,2,8,8,176,1877.041511737596,1884.2782185568358,stimuli/200_ya.png,a,7.225286473549204,ambig,0.0412,5.862068966,1.444266048,0.189641423
102,28,1,2,8,9,177,1884.8387851433654,1888.7822355867247,stimuli/194_xb.png,l,3.9324160665273666,harmless,0.0412,6.586206897,1.026567825,0.134794959
102,28,1,2,8,10,178,1889.3391082938178,1898.926170066552,stimuli/241_yb.png,a,9.575415753439302,ambig,0.0412,5.508474576,1.442852555,0.187843403
102,28,1,2,8,11,179,1899.4800294596644,1904.838196737779,stimuli/159_xa.png,l,5.346754021651577,harmless,0.0412,6.389830508,1.174689235,0.152931512
102,28,1,2,8,12,180,1905.401779789041,1929.182156423747,stimuli/168_xa.png,l,23.76842105263495,harmless,0.0412,6.474576271,1.164946827,0.151663159
102,28,1,2,8,13,181,1929.7469848152832,1948.7661261133617,stimuli/176_xb.png,l,19.007418872701237,harmless,0.0412,6.796610169,0.517942249,0.067430337
102,28,1,2,8,14,182,1949.3227522730012,1956.3421227892977,stimuli/133_xa.png,l,7.0076756601338275,harmless,0.0412,6.568965517,1.186356193,0.1557762
102,28,1,2,8,15,183,1956.8998016986588,1960.8540931406023,stimuli/150_xc.png,l,3.9427907517238054,harmless,0.0412,6.482758621,1.030097582,0.135258439
102,28,1,2,8,16,184,1961.4136719619273,1977.7020694625971,stimuli/167_xb.png,a,16.277064194902778,harmless,0.0412,6.590163934,0.955284411,0.122311635
102,28,1,2,8,17,185,1978.2600839285296,1989.5341982186364,stimuli/205_yb.png,a,11.26263998754439,ambig,0.0412,5.847457627,1.52918233,0.199082582
102,28,1,2,8,18,186,1990.087047791225,1997.9901002928382,stimuli/124_xa.png,l,7.891766457352787,harmless,0.0412,6.344262295,1.181598436,0.151288177
102,28,1,2,8,19,187,1998.5585701823293,2008.342084192409,stimuli/282_xc.png,l,9.772020409087418,harmless,0.0412,6.55,0.998728005,0.128935231
102,28,1,2,8,20,188,2008.900911949895,2021.4221258613106,stimuli/255_xb.png,a,12.509622636687709,harmless,0.0412,6.770491803,0.642740036,0.082294429
102,28,1,2,8,21,189,2021.9781833076559,2033.070192767831,stimuli/128_xc.png,l,11.079754949169,harmless,0.0412,6.627118644,0.98082135,0.127692063
102,28,1,2,8,22,190,2033.6342354370572,2047.7422035276832,stimuli/134_xc.png,l,14.096360668190755,harmless,0.0412,6.516666667,0.965360505,0.124627505
102,28,1,2,8,23,191,2048.3267773767293,2053.5900542128948,stimuli/295_za.png,a,5.251899025839521,awful,0.0412,2.3,1.825432384,0.235662307
102,28,1,2,8,24,192,2054.1473270672723,2060.662085452728,stimuli/209_ya.png,l,6.5035518980294,ambig,0.0412,5.603448276,1.825161903,0.239655499
102,28,1,2,9,1,193,2088.335466795863,2092.1342179109342,stimuli/151_xa.png,l,3.787501304614125,harmless,0.0412,6.610169492,0.947172729,0.123311386
102,28,1,2,9,2,194,2092.6957033396175,2099.453992316092,stimuli/154_xc.png,l,6.746741812443361,harmless,0.0412,6.5,0.965506805,0.124646393
102,28,1,2,9,3,195,2100.0088835851057,2105.142231490725,stimuli/288_yb.png,a,5.121714883222012,ambig,0.0412,5.189655172,1.914459262,0.251380817
102,28,1,2,9,4,196,2105.754710887675,2110.069963943417,stimuli/345_zb.png,a,4.304040266782977,awful,0.0412,3.694915254,2.191317013,0.285285176
102,28,1,2,9,5,197,2110.6334449886053,2120.733968606568,stimuli/104_xc.png,l,10.08899929697509,harmless,0.0412,6.745762712,0.756425814,0.098478253
102,28,1,2,9,6,198,2121.2904797632364,2129.18196304547,stimuli/144_xa.png,l,7.8795111586514395,harmless,0.0412,6.542372881,1.00553698,0.130909764
102,28,1,2,9,7,199,2129.743913606013,2143.693905039865,stimuli/204_xb.png,l,13.937935027264757,harmless,0.0412,6.508474576,0.858484658,0.111765183
102,28,1,2,9,8,200,2144.2566456549976,2150.901935948874,stimuli/225_ya.png,a,6.633629308431409,ambig,0.0412,5.85,1.792876677,0.231459384
102,28,1,2,9,9,201,2151.4630259564146,2164.8299212505517,stimuli/173_yb.png,a,13.355935354164103,ambig,0.0412,5.796610169,1.242628763,0.161776485
102,28,1,2,9,10,202,2165.3958921886806,2181.965900833573,stimuli/170_xc.png,a,16.557307118957397,harmless,0.0412,6.583333333,1.062323432,0.137145365
102,28,1,2,9,11,203,2182.524251249968,2185.8459298993985,stimuli/105_xa.png,l,3.309767178085167,harmless,0.0412,6.557377049,1.088187946,0.139328189
102,28,1,2,9,12,204,2186.3971450120443,2191.90993101793,stimuli/174_xc.png,l,5.501351875602268,harmless,0.0412,6.533333333,1.111826512,0.143536185
102,28,1,2,9,13,205,2192.4765529831056,2204.4299326720648,stimuli/180_xc.png,a,11.941824648034526,harmless,0.0412,6.672131148,0.723908638,0.092687003
102,28,1,2,9,14,206,2204.9924397366995,2210.0938554152963,stimuli/129_xa.png,l,5.089982729870826,harmless,0.0412,6.770491803,0.642740036,0.082294429
102,28,1,2,9,15,207,2210.6491023270355,2214.349929993914,stimuli/187_xc.png,l,3.689144232223043,harmless,0.0412,6.224137931,1.185335891,0.155642228
102,28,1,2,9,16,208,2214.9149923298683,2218.2618353606667,stimuli/236_yb.png,a,3.3354085066821426,ambig,0.0412,5.93442623,1.49297078,0.19115532
102,28,1,2,9,17,209,2218.8221242859145,2224.5739183518454,stimuli/203_yb.png,a,5.740339455660433,ambig,0.0412,6,1.542501327,0.200816568
102,28,1,2,9,18,210,2225.133757899079,2257.5738202842476,stimuli/219_ya.png,a,32.42865031026304,ambig,0.0412,5.271186441,1.998538332,0.260187529
102,28,1,2,9,19,211,2258.1322644359316,2262.3497736371646,stimuli/138_xc.png,a,4.205751723580761,harmless,0.0412,6.661016949,0.70978796,0.092406522
102,28,1,2,9,20,212,2262.9130774517544,2267.9738348565297,stimuli/342_yb.png,a,5.049146437755553,ambig,0.0412,4.916666667,2.085394461,0.269223267
102,28,1,2,9,21,213,2268.5221681997355,2272.157778552355,stimuli/169_xc.png,l,3.624030499428045,harmless,0.0412,6.603448276,0.916508538,0.120343467
102,28,1,2,9,22,214,2272.710830955504,2281.829788918374,stimuli/130_xc.png,l,9.10723120518378,harmless,0.0412,6.644067797,0.960651931,0.125066229
102,28,1,2,9,23,215,2282.380665717501,2289.573782868887,stimuli/243_ya.png,a,7.1817357964173425,ambig,0.0412,5.830508475,1.652088985,0.215083666
102,28,1,2,9,24,216,2290.132809518487,2298.1817759687256,stimuli/214_xb.png,a,8.037233391019981,harmless,0.0412,6.465517241,0.940614156,0.12350869
102,28,1,2,10,1,217,2308.5493309545272,2334.717771305586,stimuli/201_yb.png,l,26.158198391931364,ambig,0.0412,5.898305085,1.626238682,0.211718243
102,28,1,2,10,2,218,2335.2709729762864,2340.413714891125,stimuli/208_xb.png,l,5.131009643315338,harmless,0.0412,6.216666667,1.165778516,0.150501359
102,28,1,2,10,3,219,2340.9738155581,2356.245713284239,stimuli/233_yb.png,a,15.260385614383267,ambig,0.0412,5.318309859,1.922973646,0.102060844
102,28,1,2,10,4,220,2356.804983330483,2364.261683336197,stimuli/259_xc.png,l,7.444991364929592,harmless,0.0412,6.568965517,0.993170874,0.130409725
102,28,1,2,10,5,221,2364.8190802519966,2372.7337074868265,stimuli/140_xb.png,l,7.902965067856712,harmless,0.0412,6.724137931,0.790138861,0.103750315
102,28,1,2,10,6,222,2373.2885164420877,2380.685705564858,stimuli/181_xa.png,l,7.3854934789123945,harmless,0.0412,6.666666667,0.950765377,0.122743282
102,28,1,2,10,7,223,2381.2389844293066,2388.8936703077925,stimuli/137_xa.png,l,7.643046160694212,harmless,0.0412,6.355932203,1.094858074,0.14253838
102,28,1,2,10,8,224,2389.4439008060144,2394.9096505997295,stimuli/131_xb.png,l,5.454166395880748,harmless,0.0412,6.525423729,1.119666394,0.145768149
102,28,1,2,10,9,225,2395.458869702037,2399.5016464722285,stimuli/330_ya.png,a,4.031285532255424,ambig,0.0412,4.796610169,2.049219036,0.266785595
102,28,1,2,10,10,226,2400.0525429636473,2407.4936750339402,stimuli/242_xb.png,l,7.4295853001240175,harmless,0.0412,6.576271186,0.913564256,0.118935936
102,28,1,2,10,11,227,2408.05370638406,2415.03764653526,stimuli/222_ya.png,a,6.972239781200187,ambig,0.0412,5.931034483,1.543089507,0.202617579
102,28,1,2,10,12,228,2415.5994206528994,2420.909672261245,stimuli/190_xc.png,l,5.298647730553057,harmless,0.0412,6.517241379,1.046990328,0.137476565
102,28,1,2,10,13,229,2421.4755388302437,2434.5415958236845,stimuli/175_xb.png,l,13.054275097354548,harmless,0.0412,6.6,1.028409995,0.13276716
102,28,1,2,10,14,230,2435.0990494532452,2441.9256013532577,stimuli/265_yb.png,l,6.814957868336933,ambig,0.0412,5.627118644,1.856008928,0.241631781
102,28,1,2,10,15,231,2442.473843718064,2446.509630119748,stimuli/215_yb.png,a,4.0242191515280865,ambig,0.0412,5.866666667,1.466769385,0.189359113
102,28,1,2,10,16,232,2447.0671908753866,2453.9656286861573,stimuli/323_yb.png,a,6.886740591522539,ambig,0.0412,4.603448276,1.955107169,0.256718148
102,28,1,2,10,17,233,2454.5209098625055,2460.7735887029266,stimuli/171_xa.png,l,6.2411104087368585,harmless,0.0412,6.465517241,1.046556882,0.137419651
102,28,1,2,10,18,234,2461.33345660707,2466.4056126960204,stimuli/367_zb.png,a,5.060371829778887,awful,0.0412,3.413793103,2.086165649,0.27392697
102,28,1,2,10,19,235,2466.9726107839087,2476.3975794239377,stimuli/183_xb.png,a,9.412261600227794,harmless,0.0412,6.448275862,1.095003225,0.143780967
102,28,1,2,10,20,236,2476.9579439675726,2486.525604504044,stimuli/244_xb.png,a,9.555960166442674,harmless,0.0412,6.610169492,0.743174671,0.096753101
102,28,1,2,10,21,237,2487.082917924534,2495.7415796759888,stimuli/119_xc.png,l,8.64693578146398,harmless,0.0412,6.694915254,0.914523379,0.119060803
102,28,1,2,10,22,238,2496.300965119066,2501.3895540287485,stimuli/287_ya.png,a,5.076933438074775,ambig,0.0412,5.950819672,1.407435369,0.180203633
102,28,1,2,10,23,239,2501.942452832067,2509.5975262547436,stimuli/227_xa.png,l,7.643397077248665,harmless,0.0412,6.180327869,1.05685377,0.135316259
102,28,1,2,10,24,240,2510.146549221856,2516.573543804523,stimuli/272_xb.png,a,6.415231197315734,harmless,0.0412,6.355932203,1.029943284,0.134087194
