id,age,condition,counterbalance,block,trialinblock,trial,tstart,tend,trialstim,response,RT,trialtype,ethicfreq,norm_mean,norm_sd,norm_se
060,78,0,1,0,0,practice,3.938330337405205e-06,11.807956790318713,stimuli/prac_217_1.png,l,11.791131692705676,harmless,NA,NA,NA,NA
060,78,0,1,1,1,1,5.939129537437111,13.815827407175675,stimuli/224_yb.png,a,7.864784030709416,ambig,0.333,5.881355932,1.609077116,0.209483997
060,78,0,1,1,2,2,14.371837023412809,21.93582162563689,stimuli/247_ya.png,a,7.552023107884452,ambig,0.333,4.65,2.081598147,0.268733165
060,78,0,1,1,3,3,22.497423066059127,35.87172950338572,stimuli/210_yb.png,a,13.362199613591656,ambig,0.333,5.557377049,1.76564049,0.226067099
060,78,0,1,1,4,4,36.434684198582545,45.527757866540924,stimuli/302_za.png,a,9.080992050468922,awful,0.333,3.137931034,2.188071937,0.287307921
060,78,0,1,1,5,5,46.091057570651174,53.48780731786974,stimuli/254_ya.png,l,7.384757532738149,ambig,0.333,5.983606557,1.627798137,0.208418195
060,78,0,1,1,6,6,54.04268344538286,59.4397474816069,stimuli/346_zb.png,a,5.385232117027044,awful,0.333,1.288135593,0.983499162,0.128040685
060,78,0,1,1,7,7,59.995489282533526,65.1037335016299,stimuli/337_zb.png,a,5.096335893729702,awful,0.333,3.033333333,2.20143764,0.284204377
060,78,0,1,1,8,8,65.66823089122772,73.23972495365888,stimuli/208_xb.png,l,7.559396690921858,harmless,0.333,6.216666667,1.165778516,0.150501359
060,78,0,1,1,9,9,73.79258222714998,79.31172825885005,stimuli/294_za.png,a,5.507207774091512,awful,0.333,1.557377049,1.38473331,0.177296933
060,78,0,1,1,10,10,79.87118087592535,85.2397139261011,stimuli/180_xc.png,l,5.3567247616592795,harmless,0.333,6.672131148,0.723908638,0.092687003
060,78,0,1,1,11,11,85.79320607893169,93.28767175623216,stimuli/230_yb.png,a,7.482608158141375,ambig,0.333,4.98245614,1.875511626,0.248417583
060,78,0,1,1,12,12,93.83995362068526,100.88772161700763,stimuli/108_xb.png,l,7.035751363495365,harmless,0.333,6.568965517,1.077880782,0.141532681
060,78,0,1,1,13,13,101.45196300675161,109.91970387496985,stimuli/217_yb.png,l,8.455723053775728,ambig,0.333,5.169491525,2.001314588,0.260548967
060,78,0,1,1,14,14,110.48037859611213,118.84775137598626,stimuli/198_yb.png,a,8.355407740687951,ambig,0.333,5.101694915,1.83542643,0.238952168
060,78,0,1,1,15,15,119.40174213796854,127.83971140533686,stimuli/332_zb.png,l,8.42596484371461,awful,0.333,2.694915254,2.002190501,0.260663001
060,78,0,1,1,16,16,128.40094459988177,129.80771260592155,stimuli/112_xc.png,a,1.3948017852380872,harmless,0.333,6.706896552,0.749470472,0.098410294
060,78,0,1,1,17,17,130.37110368232243,142.759769347962,stimuli/290_zb.png,a,12.376742374384776,awful,0.333,2.586206897,2.026443456,0.266085062
060,78,0,1,1,18,18,143.3080288642086,150.4157244558446,stimuli/177_xb.png,l,7.095571832731366,harmless,0.333,6.482758621,1.063614811,0.139659467
060,78,0,1,1,19,19,150.9801249592565,161.55173560022376,stimuli/250_yb.png,l,10.55961488187313,ambig,0.333,5.950819672,1.585625318,0.203018519
060,78,0,1,1,20,20,162.10655461996794,169.16768620233051,stimuli/333_za.png,a,7.049111404689029,awful,0.333,3.266666667,2.185209657,0.282109354
060,78,0,1,1,21,21,169.73035890376195,179.1276442813687,stimuli/369_za.png,l,9.38528174161911,awful,0.333,2.948275862,2.055565093,0.26990892
060,78,0,1,1,22,22,179.68309542397037,187.61566742695868,stimuli/157_xc.png,l,7.920598299242556,harmless,0.333,6.603448276,0.877389573,0.115206895
060,78,0,1,1,23,23,188.16763539635576,197.6956457181368,stimuli/129_xa.png,l,9.516039768932387,harmless,0.333,6.770491803,0.642740036,0.082294429
060,78,0,1,1,24,24,198.24513167049736,205.70376957813278,stimuli/149_xa.png,l,7.446618911577389,harmless,0.333,6.721311475,0.933294301,0.11949609
060,78,0,1,2,1,25,224.48132382635958,229.53566038492136,stimuli/184_xb.png,l,5.042466436279938,harmless,0.333,6.508474576,1.194425,0.15550089
060,78,0,1,2,2,26,230.0912166845519,238.047641571844,stimuli/170_xc.png,l,7.944434642093256,harmless,0.333,6.583333333,1.062323432,0.137145365
060,78,0,1,2,3,27,238.6047378089279,247.49569841474295,stimuli/260_ya.png,a,8.878846693085507,ambig,0.333,4.966101695,2.016877936,0.262575142
060,78,0,1,2,4,28,248.05777286435477,255.37561676255427,stimuli/364_za.png,a,7.305801665410399,awful,0.333,1.677966102,1.279017376,0.166513879
060,78,0,1,2,5,29,255.93679481884465,271.5436503372621,stimuli/328_za.png,a,15.594906233251095,awful,0.333,2.706896552,1.955725922,0.256799395
060,78,0,1,2,6,30,272.10532424529083,281.24761447519995,stimuli/269_za.png,l,9.130401596892625,awful,0.333,3.457627119,2.119873401,0.27598401
060,78,0,1,2,7,31,281.80731127690524,284.4796436796896,stimuli/183_xb.png,a,2.6603153760079294,harmless,0.333,6.448275862,1.095003225,0.143780967
060,78,0,1,2,8,32,285.0427645777818,293.85564641142264,stimuli/211_zb.png,l,8.801053459057584,awful,0.333,3.983333333,2.127237938,0.274625237
060,78,0,1,2,9,33,294.41591507731937,302.9515762501396,stimuli/158_xa.png,l,8.523691801354289,harmless,0.333,6.786885246,0.661179605,0.084655374
060,78,0,1,2,10,34,303.50946963136084,309.6635689372197,stimuli/202_yb.png,a,6.142307559028268,ambig,0.333,5.431034483,1.892849601,0.248543329
060,78,0,1,2,11,35,310.2127642312553,322.3834389364347,stimuli/315_yb.png,a,12.158747475361452,ambig,0.333,5.050847458,1.915667965,0.249398726
060,78,0,1,2,12,36,322.9331911285408,332.6235565545503,stimuli/218_yb.png,l,9.678400386823341,ambig,0.333,5.850282486,1.552723069,0.0825263
060,78,0,1,2,13,37,333.18740646145307,342.1995786635671,stimuli/200_ya.png,l,9.00022212904878,ambig,0.333,5.862068966,1.444266048,0.189641423
060,78,0,1,2,14,38,342.7588060009293,349.9675612745341,stimuli/102_xc.png,l,7.196802049875259,harmless,0.333,6.66011236,0.937292468,0.049676401
060,78,0,1,2,15,39,350.52504741889425,357.8477206560783,stimuli/261_yb.png,l,7.310677478089929,ambig,0.333,5.706896552,1.901141123,0.249632059
060,78,0,1,2,16,40,358.40077091404237,367.9355471150484,stimuli/370_za.png,a,9.522712700534612,awful,0.333,2.393442623,1.882185684,0.240989182
060,78,0,1,2,17,41,368.4926539857406,375.1835467715282,stimuli/298_za.png,a,6.6789880050346255,awful,0.333,2.881355932,2.026418156,0.263817173
060,78,0,1,2,18,42,375.7451856273692,383.1995940236375,stimuli/359_za.png,a,7.442429178627208,awful,0.333,2.01754386,1.641985167,0.217486248
060,78,0,1,2,19,43,383.75889382860623,392.543551875744,stimuli/343_zb.png,a,8.772823764942586,awful,0.333,3.103448276,2.141401862,0.28117984
060,78,0,1,2,20,44,393.10266617918387,403.0315541473683,stimuli/274_xb.png,l,9.916952073574066,harmless,0.333,6.491525424,1.179901828,0.153610134
060,78,0,1,2,21,45,403.58755076676607,413.25557410134934,stimuli/241_yb.png,a,9.656020880211145,ambig,0.333,5.508474576,1.442852555,0.187843403
060,78,0,1,2,22,46,413.8064007051289,421.47147413366474,stimuli/223_yb.png,l,7.653104451019317,ambig,0.333,5.542372881,1.77455224,0.231027024
060,78,0,1,2,23,47,422.0259126983583,435.7194974210579,stimuli/188_xa.png,l,13.681646465091035,harmless,0.333,6.655172414,0.806807095,0.105938962
060,78,0,1,2,24,48,436.27468626224436,443.03153799986467,stimuli/104_xc.png,l,6.744827621616423,harmless,0.333,6.745762712,0.756425814,0.098478253
060,78,0,1,3,1,49,457.10469763656147,466.0395118042361,stimuli/251_ya.png,a,8.923003122443333,ambig,0.333,5.655172414,1.792300532,0.235340589
060,78,0,1,3,2,50,466.6036578833591,471.76747730653733,stimuli/122_xa.png,l,5.151829965645447,harmless,0.333,6.457627119,1.039264227,0.135300678
060,78,0,1,3,3,51,472.32204741588794,478.887525875587,stimuli/353_zb.png,a,6.553478368325159,awful,0.333,1.949152542,1.623361018,0.211343603
060,78,0,1,3,4,52,479.5166514115408,490.81545797968283,stimuli/340_za.png,l,11.286957319593057,awful,0.333,2.508474576,1.832398855,0.238558011
060,78,0,1,3,5,53,491.3686571114231,498.59147819830105,stimuli/226_yb.png,l,7.2108477770816535,ambig,0.333,5.683333333,1.712285287,0.22105508
060,78,0,1,3,6,54,499.1493455856107,506.5275621251203,stimuli/317_za.png,l,7.366270798956975,awful,0.333,3.65,2.03215674,0.262350307
060,78,0,1,3,7,55,507.089368365705,514.1674676178955,stimuli/314_zb.png,a,7.066504034446552,awful,0.333,1.833333333,1.451669602,0.18740974
060,78,0,1,3,8,56,514.7272605178878,523.6635039525572,stimuli/171_xa.png,l,8.924483983078972,harmless,0.333,6.465517241,1.046556882,0.137419651
060,78,0,1,3,9,57,524.2125515544321,532.4394548542332,stimuli/342_yb.png,a,8.214912660885602,ambig,0.333,4.916666667,2.085394461,0.269223267
060,78,0,1,3,10,58,532.9933101332281,540.039452333469,stimuli/205_yb.png,l,7.034308705711737,ambig,0.333,5.847457627,1.52918233,0.199082582
060,78,0,1,3,11,59,540.6023987578228,547.3834696565755,stimuli/160_xb.png,l,6.769178721122444,harmless,0.333,6.666666667,0.680644427,0.087870818
060,78,0,1,3,12,60,547.9475637478754,557.911416569259,stimuli/291_za.png,l,9.951842490117997,awful,0.333,2.593220339,1.830005126,0.238246374
060,78,0,1,3,13,61,558.4638091044035,567.6474385836627,stimuli/118_xb.png,l,9.17163962777704,harmless,0.333,6.474576271,0.953323265,0.124112118
060,78,0,1,3,14,62,568.1961218779907,573.943371651927,stimuli/305_zb.png,a,5.735259528737515,awful,0.333,2.75,2.12830003,0.274762352
060,78,0,1,3,15,63,574.492662650533,581.5833669414278,stimuli/213_ya.png,l,7.078757368726656,ambig,0.333,5.98245614,1.597891781,0.211645937
060,78,0,1,3,16,64,582.1326941738371,590.6634113988839,stimuli/231_xb.png,a,8.518702561268583,harmless,0.333,6.62295082,1.05141071,0.134619347
060,78,0,1,3,17,65,591.2114507551305,600.0554023056757,stimuli/240_xa.png,l,8.8319806039799,harmless,0.333,6.482758621,1.096107616,0.143925981
060,78,0,1,3,18,66,600.6176839182153,608.655404117424,stimuli/352_zb.png,a,8.025705535663292,awful,0.333,2.93442623,2.135952968,0.273480754
060,78,0,1,3,19,67,609.2118686255999,621.0954721895978,stimuli/173_yb.png,l,11.871655460447073,ambig,0.333,5.796610169,1.242628763,0.161776485
060,78,0,1,3,20,68,621.6493703979068,627.7513926390093,stimuli/316_za.png,a,6.090226555708796,awful,0.333,2.344827586,1.802062407,0.236622386
060,78,0,1,3,21,69,628.3059162746649,638.3913497256581,stimuli/215_yb.png,l,10.073448719689623,ambig,0.333,5.866666667,1.466769385,0.189359113
060,78,0,1,3,22,70,638.946805594489,643.9273799320217,stimuli/216_xa.png,a,4.968530923128128,harmless,0.333,6.603448276,0.877389573,0.115206895
060,78,0,1,3,23,71,644.4778150529601,653.4793274214026,stimuli/142_xa.png,l,8.989765126025304,harmless,0.333,6.4,1.076718178,0.139003719
060,78,0,1,3,24,72,654.0399663024582,659.863417385146,stimuli/284_ya.png,l,5.81149746500887,ambig,0.333,5.948275862,1.431750417,0.18799804
060,78,0,1,4,1,73,721.8045878324192,730.0713077732362,stimuli/159_xa.png,l,8.254967578686774,harmless,0.333,6.389830508,1.174689235,0.152931512
060,78,0,1,4,2,74,730.6333432318643,739.4153479391243,stimuli/189_yb.png,l,8.769978228257969,ambig,0.333,5.983333333,1.455459234,0.187898979
060,78,0,1,4,3,75,739.9776846901514,749.3113312621135,stimuli/176_xb.png,l,9.321763846790418,harmless,0.333,6.796610169,0.517942249,0.067430337
060,78,0,1,4,4,76,749.8688749081921,759.9033155525103,stimuli/344_za.png,a,10.022401562193409,awful,0.333,2.711864407,2.043077863,0.265986082
060,78,0,1,4,5,77,760.4625507667661,764.5592927157413,stimuli/360_za.png,a,4.084715863922611,awful,0.333,3.2,2.207844259,0.285031468
060,78,0,1,4,6,78,765.116182183614,771.9512942563742,stimuli/187_xc.png,a,6.823157667415217,harmless,0.333,6.224137931,1.185335891,0.155642228
060,78,0,1,4,7,79,772.5081533982884,778.2152706666384,stimuli/356_za.png,a,5.695262900087982,awful,0.333,3.033333333,2.178217796,0.281206708
060,78,0,1,4,8,80,778.8300129496492,787.8153272229247,stimuli/347_zb.png,a,8.973536704899743,awful,0.333,3.796610169,2.147810923,0.279621165
060,78,0,1,4,9,81,788.3668525093235,795.4232870852575,stimuli/174_xc.png,l,7.044479382922873,harmless,0.333,6.533333333,1.111826512,0.143536185
060,78,0,1,4,10,82,795.9773440132849,815.6313042915426,stimuli/249_ya.png,a,19.642157109919935,ambig,0.333,5.327868852,1.859402337,0.238072074
060,78,0,1,4,11,83,816.1802656410728,824.5192511884961,stimuli/246_ya.png,l,8.327106760581955,ambig,0.333,5.542372881,1.715266481,0.223308675
060,78,0,1,4,12,84,825.0695906048641,830.519267730182,stimuli/190_xc.png,l,5.437920824391767,harmless,0.333,6.517241379,1.046990328,0.137476565
060,78,0,1,4,13,85,831.0695602789056,837.8473197210114,stimuli/120_xa.png,l,6.766013381304219,harmless,0.333,6.440677966,1.054893138,0.137335389
060,78,0,1,4,14,86,838.3982235186268,845.6952948013786,stimuli/325_yb.png,a,7.285100729903206,ambig,0.333,5.131147541,1.811770863,0.231973488
060,78,0,1,4,15,87,846.2586279825773,850.0872927976307,stimuli/365_zb.png,a,3.816655271453783,awful,0.333,2.966101695,2.165291266,0.281896912
060,78,0,1,4,16,88,850.6468111870345,857.4792872490361,stimuli/270_yb.png,a,6.8204948753118515,ambig,0.333,5.534482759,1.912246013,0.251090203
060,78,0,1,4,17,89,858.0396181426477,866.4872500258498,stimuli/182_xb.png,l,8.435595164075494,harmless,0.333,6.542372881,0.988241802,0.128658124
060,78,0,1,4,18,90,867.0390131953172,874.6472775007132,stimuli/348_za.png,a,7.596300447825342,awful,0.333,3.084745763,2.119597681,0.275948114
060,78,0,1,4,19,91,875.1939092515968,889.8072202983312,stimuli/323_yb.png,l,14.601320801535621,ambig,0.333,4.603448276,1.955107169,0.256718148
060,78,0,1,4,20,92,890.367791831959,897.879283468239,stimuli/166_xa.png,l,7.499493120471016,harmless,0.333,6.593220339,1.052397002,0.13701042
060,78,0,1,4,21,93,898.4312900344376,905.719271353446,stimuli/349_za.png,a,7.276074175257236,awful,0.333,3.288135593,2.101320172,0.273568585
060,78,0,1,4,22,94,906.2728328234516,914.7032819967717,stimuli/279_ya.png,a,8.41854399885051,ambig,0.333,5.31147541,1.970964092,0.252356093
060,78,0,1,4,23,95,915.2573318355717,923.4712992662098,stimuli/330_ya.png,l,8.202042169868946,ambig,0.333,4.796610169,2.049219036,0.266785595
060,78,0,1,4,24,96,924.0228603926953,944.5191889610142,stimuli/306_zb.png,a,20.4843757385388,awful,0.333,2.352112676,1.917055413,0.101746737
060,78,0,1,5,1,97,970.008202628931,980.5912210168317,stimuli/206_xa.png,l,10.571223490172997,harmless,0.333,6.325842697,1.136094431,0.060212884
060,78,0,1,5,2,98,981.1470801837277,987.9992284558248,stimuli/236_yb.png,l,6.840167085174471,ambig,0.333,5.93442623,1.49297078,0.19115532
060,78,0,1,5,3,99,988.5537702082656,994.4311344651505,stimuli/148_xc.png,l,5.865540214814246,harmless,0.333,6.491525424,1.135218061,0.147792803
060,78,0,1,5,4,100,994.9917954017874,1003.3592213508673,stimuli/281_ya.png,a,8.355736996047199,ambig,0.333,5.881355932,1.543448286,0.200939852
060,78,0,1,5,5,101,1003.9133802850265,1010.895196025027,stimuli/282_xc.png,l,6.970067710150033,harmless,0.333,6.55,0.998728005,0.128935231
060,78,0,1,5,6,102,1011.4596359129064,1026.2311655003577,stimuli/227_xa.png,l,14.759719329653308,harmless,0.333,6.180327869,1.05685377,0.135316259
060,78,0,1,5,7,103,1026.7883082111366,1038.3271071542986,stimuli/138_xc.png,l,11.526820119470358,harmless,0.333,6.661016949,0.70978796,0.092406522
060,78,0,1,5,8,104,1038.976351915393,1046.4471769910306,stimuli/256_zb.png,a,7.459097919519991,awful,0.333,3.051724138,2.012438634,0.264246138
060,78,0,1,5,9,105,1047.0090789361857,1048.871159608243,stimuli/358_za.png,a,1.8502857745625079,awful,0.333,3.949152542,2.112554662,0.275031191
060,78,0,1,5,10,106,1049.4324952028692,1050.6071363305673,stimuli/228_ya.png,a,1.1624102424830198,ambig,0.333,5.442622951,1.793735303,0.229664272
060,78,0,1,5,11,107,1051.162710746983,1060.3351668172982,stimuli/336_ya.png,a,9.160486305132508,ambig,0.333,5.033898305,1.884291705,0.245313885
060,78,0,1,5,12,108,1060.8967036670074,1067.3830805367325,stimuli/164_xb.png,l,6.474553221138194,harmless,0.333,6.830508475,0.460604639,0.059965616
060,78,0,1,5,13,109,1067.9881708377507,1074.007166814059,stimuli/311_za.png,a,6.006680020596832,awful,0.333,3.116666667,1.975199339,0.254997138
060,78,0,1,5,14,110,1074.569381866604,1083.9031591955572,stimuli/163_xa.png,l,9.321948166703805,harmless,0.333,6.627118644,0.963082427,0.125382652
060,78,0,1,5,15,111,1084.4598281097133,1090.7511004053522,stimuli/308_zb.png,a,6.2793828749563545,awful,0.333,1.644067797,1.471132708,0.191525165
060,78,0,1,5,16,112,1091.3743229787797,1097.3830679336097,stimuli/326_zb.png,a,5.996856321813539,awful,0.333,3.389830508,2.220724867,0.289113752
060,78,0,1,5,17,113,1097.9897355875,1106.2070648868103,stimuli/354_zb.png,a,8.205658463062719,awful,0.333,2,1.701925887,0.221571878
060,78,0,1,5,18,114,1106.7559092640877,1114.7671295406763,stimuli/277_yb.png,a,7.999222548212856,ambig,0.333,5.491525424,2.02886822,0.264136144
060,78,0,1,5,19,115,1115.3188182730228,1127.0710466534365,stimuli/275_yb.png,l,11.740315328817815,ambig,0.333,4.836065574,2.138382004,0.27379176
060,78,0,1,5,20,116,1127.6312578178477,1134.575111930957,stimuli/280_xb.png,l,6.932304187677801,harmless,0.333,6.333333333,1.068289726,0.137915611
060,78,0,1,5,21,117,1135.198509765789,1139.9031269003171,stimuli/297_za.png,a,4.69261507387273,awful,0.333,1.898305085,1.446695584,0.188343723
060,78,0,1,5,22,118,1140.459081378067,1147.4310659361072,stimuli/296_yb.png,a,6.960008491296321,ambig,0.333,4.229508197,2.052587332,0.262806878
060,78,0,1,5,23,119,1147.9900144303683,1155.8311271397397,stimuli/310_zb.png,a,7.829173664096743,awful,0.333,3.224137931,2.102989547,0.276136056
060,78,0,1,5,24,120,1156.379516231129,1165.84714130871,stimuli/209_ya.png,l,9.455621835542843,ambig,0.333,5.603448276,1.825161903,0.239655499
060,78,0,1,6,1,121,1176.201297013322,1183.5910815952811,stimuli/255_xb.png,l,7.377897918224335,harmless,0.333,6.770491803,0.642740036,0.082294429
060,78,0,1,6,2,122,1184.1467788917944,1190.9830713206902,stimuli/169_xc.png,l,6.824293913086876,harmless,0.333,6.603448276,0.916508538,0.120343467
060,78,0,1,6,3,123,1191.5384366048966,1206.8711336145643,stimuli/307_za.png,a,15.320739453658462,awful,0.333,2.93220339,2.172432347,0.282826601
060,78,0,1,6,4,124,1207.427507144399,1213.5110284734983,stimuli/146_xa.png,l,6.071676807012409,harmless,0.333,6.442622951,1.162247681,0.148810567
060,78,0,1,6,5,125,1214.0675863230135,1221.0791504271328,stimuli/115_xb.png,l,6.9996341173537076,harmless,0.333,6.440677966,1.021681954,0.133011661
060,78,0,1,6,6,126,1221.6310774362646,1228.5430182146374,stimuli/233_yb.png,l,6.899945412995294,ambig,0.333,5.318309859,1.922973646,0.102060844
060,78,0,1,6,7,127,1229.1642778597306,1236.095114183845,stimuli/341_zb.png,a,6.918970140162855,awful,0.333,3.603448276,2.15975677,0.283589957
060,78,0,1,6,8,128,1236.647410226753,1246.2470776631963,stimuli/350_ya.png,a,9.58769609592855,ambig,0.333,4.915254237,2.02814792,0.264042369
060,78,0,1,6,9,129,1246.8039659496862,1257.4150966654997,stimuli/219_ya.png,a,10.599214907502756,ambig,0.333,5.271186441,1.998538332,0.260187529
060,78,0,1,6,10,130,1257.9745008395985,1270.7750163052697,stimuli/257_yb.png,l,12.78858193429187,ambig,0.333,5.620689655,1.843219782,0.242026615
060,78,0,1,6,11,131,1271.3343771563377,1279.2790051766206,stimuli/371_zb.png,l,7.932748839724809,awful,0.333,3.131147541,2.085468851,0.267016925
060,78,0,1,6,12,132,1279.8755143627059,1286.1430342046078,stimuli/327_zb.png,l,6.25562845193781,awful,0.333,2.502808989,1.906990248,0.101070281
060,78,0,1,6,13,133,1286.6930754797067,1288.0792079286184,stimuli/304_ya.png,a,1.3743115575052798,ambig,0.333,4.034482759,2.017167697,0.264867095
060,78,0,1,6,14,134,1288.629146803636,1298.015014194185,stimuli/150_xc.png,l,9.37391219753772,harmless,0.333,6.482758621,1.030097582,0.135258439
060,78,0,1,6,15,135,1298.5677604030352,1313.70297952299,stimuli/266_zb.png,l,15.123361207079142,awful,0.333,3.491525424,1.888010094,0.245797978
060,78,0,1,6,16,136,1314.2567182236817,1322.1909723423887,stimuli/276_ya.png,a,7.922345399623737,ambig,0.333,5.186440678,1.804922162,0.234980851
060,78,0,1,6,17,137,1322.7395378767978,1329.790988332592,stimuli/145_xa.png,l,7.039608690422028,harmless,0.333,6.661016949,0.822321556,0.107057148
060,78,0,1,6,18,138,1330.3484555725008,1335.895017218776,stimuli/283_yb.png,l,5.534889234695584,ambig,0.333,5.949152542,1.478859402,0.192531095
060,78,0,1,6,19,139,1336.442489830777,1348.3830041305628,stimuli/137_xa.png,a,11.928535082144663,harmless,0.333,6.355932203,1.094858074,0.14253838
060,78,0,1,6,20,140,1348.9442700142972,1355.7909713971894,stimuli/212_ya.png,a,6.8349269651807845,ambig,0.333,5.677966102,1.490668422,0.194068498
060,78,0,1,6,21,141,1356.34928264888,1362.294958693441,stimuli/345_zb.png,a,5.933864999096841,awful,0.333,3.694915254,2.191317013,0.285285176
060,78,0,1,6,22,142,1362.849081393797,1369.0069998234976,stimuli/116_xa.png,l,6.145892738364637,harmless,0.333,6.63559322,0.958030802,0.050918763
060,78,0,1,6,23,143,1369.5956769895274,1379.6469171314966,stimuli/303_zb.png,a,10.0385236449074,awful,0.333,3.620689655,2.158846233,0.283470398
060,78,0,1,6,24,144,1380.2093610086013,1390.9188630140852,stimuli/357_za.png,a,10.697461348026991,awful,0.333,2.793103448,2.066937905,0.271402243
060,78,0,1,7,1,145,1402.6623074486852,1410.286925812019,stimuli/117_xc.png,l,7.613031022483483,harmless,0.333,6.627118644,0.868972939,0.113130641
060,78,0,1,7,2,146,1410.8499021686148,1419.5429528360255,stimuli/168_xa.png,l,8.681055302266032,harmless,0.333,6.474576271,1.164946827,0.151663159
060,78,0,1,7,3,147,1420.0995201379992,1427.710947026033,stimuli/362_zb.png,a,7.599424433428794,awful,0.333,1.474576271,1.222715071,0.159183944
060,78,0,1,7,4,148,1428.271644196473,1435.678955315845,stimuli/271_ya.png,a,7.395283852703869,ambig,0.333,5.711864407,1.771915459,0.230683744
060,78,0,1,7,5,149,1436.2397989968304,1443.0549174812622,stimuli/135_xa.png,l,6.803108940832317,harmless,0.333,6.508474576,1.179901828,0.153610134
060,78,0,1,7,6,150,1443.6149360551499,1451.6229421549942,stimuli/367_zb.png,a,7.996030033100396,awful,0.333,3.413793103,2.086165649,0.27392697
060,78,0,1,7,7,151,1452.1772251506336,1459.4949178120587,stimuli/105_xa.png,l,7.305874920682982,harmless,0.333,6.557377049,1.088187946,0.139328189
060,78,0,1,7,8,152,1460.050930579193,1465.950903561199,stimuli/107_xa.png,l,5.888024878455326,harmless,0.333,6.813559322,0.540580029,0.070377525
060,78,0,1,7,9,153,1466.5057596026454,1472.5109465534333,stimuli/123_xc.png,l,5.9931711056269705,harmless,0.333,6.491525424,1.023396666,0.133234897
060,78,0,1,7,10,154,1473.0676052276976,1480.7748776713852,stimuli/267_ya.png,l,7.695410986198112,ambig,0.333,5.103448276,1.898195405,0.249245267
060,78,0,1,7,11,155,1481.3342798762023,1487.9989141668193,stimuli/285_yb.png,a,6.6527243899181485,ambig,0.333,4.120689655,2.119893958,0.278355714
060,78,0,1,7,12,156,1488.5616648497526,1497.526912279427,stimuli/338_zb.png,l,8.953523030504584,awful,0.333,3.310344828,2.137443107,0.28066003
060,78,0,1,7,13,157,1498.0832645415794,1503.4229070239235,stimuli/153_xb.png,l,5.327638452639803,harmless,0.333,6.633333333,0.973664521,0.125699549
060,78,0,1,7,14,158,1503.975440162234,1520.4308788592461,stimuli/253_ya.png,a,16.443511073477566,ambig,0.333,5.491803279,1.849531029,0.236808182
060,78,0,1,7,15,159,1520.9905650271103,1531.5907814847305,stimuli/329_zb.png,a,10.588238027878106,awful,0.333,2.406779661,1.992387617,0.259386774
060,78,0,1,7,16,160,1532.145235803444,1540.7509188423865,stimuli/248_zb.png,a,8.5939708489459,awful,0.333,3.288135593,1.991800844,0.259310383
060,78,0,1,7,17,161,1541.302893901011,1550.1988847069442,stimuli/207_yb.png,l,8.883956843754277,ambig,0.333,5.655737705,1.662179753,0.212820309
060,78,0,1,7,18,162,1550.7716146579478,1555.886877605226,stimuli/331_za.png,a,5.103337686741725,awful,0.333,1.983606557,1.638004917,0.209725039
060,78,0,1,7,19,163,1556.4425481199287,1563.75087039941,stimuli/258_ya.png,l,7.2964088341686875,ambig,0.333,5.627118644,1.78014243,0.231754804
060,78,0,1,7,20,164,1564.3015327695757,1572.566885277396,stimuli/243_ya.png,l,8.253483567154035,ambig,0.333,5.830508475,1.652088985,0.215083666
060,78,0,1,7,21,165,1573.1153842518106,1581.7588386901189,stimuli/268_zb.png,l,8.631472070002928,awful,0.333,2.655737705,2.048456703,0.262278005
060,78,0,1,7,22,166,1582.3183291165624,1590.1828283965588,stimuli/127_xb.png,l,7.85246374248527,harmless,0.333,6.423728814,1.162686987,0.151368953
060,78,0,1,7,23,167,1590.7403751933016,1598.2708202707581,stimuli/351_zb.png,a,7.5184288383461535,awful,0.333,3.06779661,2.033040926,0.264679384
060,78,0,1,7,24,168,1598.8329872740433,1607.4948461321183,stimuli/147_ya.png,l,8.649887123610824,ambig,0.333,5.883333333,1.766847875,0.22809908
060,78,0,1,8,1,169,1630.972579265479,1641.5108413966373,stimuli/262_ya.png,a,10.52662004576996,ambig,0.333,5.491525424,1.7750462,0.231091332
060,78,0,1,8,2,170,1642.066538299201,1642.286781664472,stimuli/128_xc.png,l,0.20837166788987815,harmless,0.333,6.627118644,0.98082135,0.127692063
060,78,0,1,8,3,171,1642.8496024517808,1650.3828280814923,stimuli/319_ya.png,a,7.521185365971178,ambig,0.333,4.216666667,2.108028774,0.272145344
060,78,0,1,8,4,172,1650.9786114094313,1661.5748248172458,stimuli/300_za.png,a,10.584676872938871,awful,0.333,3.75,2.12032137,0.273732312
060,78,0,1,8,5,173,1662.1306745319162,1671.6547562407795,stimuli/110_xa.png,a,9.512215525144711,harmless,0.333,6.428571429,1.059281795,0.141552484
060,78,0,1,8,6,174,1672.2082283077762,1678.4147634718101,stimuli/292_zb.png,a,6.194555946625769,awful,0.333,2.396551724,1.955107169,0.256718148
060,78,0,1,8,7,175,1678.973483535694,1686.9507779243868,stimuli/222_ya.png,l,7.965584561927244,ambig,0.333,5.931034483,1.543089507,0.202617579
060,78,0,1,8,8,176,1687.5048746308312,1693.9508295182604,stimuli/324_za.png,a,6.434054438956082,awful,0.333,2.491525424,1.994586478,0.259673041
060,78,0,1,8,9,177,1694.5052901383024,1704.5748011865653,stimuli/237_ya.png,a,10.057451092172414,ambig,0.333,4.305084746,2.019339575,0.26289562
060,78,0,1,8,10,178,1705.1294851172715,1711.1668134399224,stimuli/232_yb.png,a,6.025383369764313,ambig,0.333,5.483333333,1.845669845,0.238274952
060,78,0,1,8,11,179,1711.7251026362646,1722.4307291978039,stimuli/273_ya.png,l,10.693414187291637,ambig,0.333,5.551724138,1.836973233,0.241206403
060,78,0,1,8,12,180,1722.989356313832,1734.1428026233334,stimuli/259_xc.png,l,11.141430858056992,harmless,0.333,6.568965517,0.993170874,0.130409725
060,78,0,1,8,13,181,1734.7080660432111,1741.9667534965556,stimuli/214_xb.png,l,7.246697602095082,harmless,0.333,6.465517241,0.940614156,0.12350869
060,78,0,1,8,14,182,1742.5187340688426,1746.9827334010042,stimuli/195_xc.png,l,4.452013025293127,harmless,0.333,6.637640449,1.001766915,0.05309354
060,78,0,1,8,15,183,1747.535953800194,1754.1187370622065,stimuli/124_xa.png,l,6.570699675241485,harmless,0.333,6.344262295,1.181598436,0.151288177
060,78,0,1,8,16,184,1754.6757836744655,1761.5987828585785,stimuli/167_xb.png,l,6.911001061787829,harmless,0.333,6.590163934,0.955284411,0.122311635
060,78,0,1,8,17,185,1762.1602570868563,1767.7747291915584,stimuli/295_za.png,a,5.602549207163975,awful,0.333,2.3,1.825432384,0.235662307
060,78,0,1,8,18,186,1768.3318648131099,1773.0226914326195,stimuli/318_za.png,a,4.678936017211527,awful,0.333,3.06557377,2.197489875,0.281359747
060,78,0,1,8,19,187,1773.5833011690993,1779.310718831839,stimuli/321_zb.png,a,5.715506974374875,awful,0.333,2.918032787,2.177881861,0.278849198
060,78,0,1,8,20,188,1779.8624871212523,1785.846702564275,stimuli/101_xa.png,l,5.97220865637064,harmless,0.333,6.508522727,1.13475832,0.060482822
060,78,0,1,8,21,189,1786.4098254316486,1799.5026883922983,stimuli/335_yb.png,l,13.080824272241443,ambig,0.333,5.016949153,2.046793332,0.266469795
060,78,0,1,8,22,190,1800.049483195413,1806.9187314694282,stimuli/252_zb.png,a,6.857286385726184,awful,0.333,2.711864407,1.983125776,0.258180985
060,78,0,1,8,23,191,1807.4733909817878,1812.3667075741105,stimuli/373_zb.png,a,4.881355097750202,awful,0.333,2.327586207,1.858011869,0.243968911
060,78,0,1,8,24,192,1812.9272932859603,1819.3267270929646,stimuli/245_yb.png,a,6.387525875587016,ambig,0.333,4.949152542,2.096168334,0.272897873
060,78,0,1,9,1,193,1841.8482708588708,1848.166675593704,stimuli/299_za.png,a,6.306576754199341,awful,0.333,1.288135593,0.929420425,0.121000233
060,78,0,1,9,2,194,1848.7232291111723,1856.062688061269,stimuli/125_xc.png,l,7.327643178636208,harmless,0.333,6.683333333,0.999858747,0.129081209
060,78,0,1,9,3,195,1856.6138332865667,1869.022649684921,stimuli/235_ya.png,l,12.397238903678954,ambig,0.333,5.694915254,1.567495667,0.204070554
060,78,0,1,9,4,196,1869.5821460192092,1875.3906837322284,stimuli/131_xb.png,l,5.796587246237323,harmless,0.333,6.525423729,1.119666394,0.145768149
060,78,0,1,9,5,197,1875.9788055755198,1882.50263089058,stimuli/368_za.png,a,6.512070195749402,awful,0.333,3.590163934,2.02794682,0.259651984
060,78,0,1,9,6,198,1883.1160368544515,1888.0226327497512,stimuli/320_za.png,a,4.894890794530511,awful,0.333,1.423728814,1.117314975,0.14546202
060,78,0,1,9,7,199,1888.5804473615717,1893.2226848159917,stimuli/192_za.png,a,4.630265326006338,awful,0.333,2.68852459,2.093967396,0.268105052
060,78,0,1,9,8,200,1893.7690676562488,1901.1266096481122,stimuli/287_ya.png,a,7.345541112590581,ambig,0.333,5.950819672,1.407435369,0.180203633
060,78,0,1,9,9,201,1901.6766887325794,1910.9586186090019,stimuli/238_xb.png,a,9.269973895978183,harmless,0.333,6.4,1.076718178,0.139003719
060,78,0,1,9,10,202,1911.5208588675596,1921.7345935353078,stimuli/309_ya.png,a,10.201811376260594,ambig,0.333,4.706896552,1.946734744,0.255618795
060,78,0,1,9,11,203,1922.2853594867047,1929.686595926527,stimuli/203_yb.png,l,7.3892832160927355,ambig,0.333,6,1.542501327,0.200816568
060,78,0,1,9,12,204,1930.2383980867453,1938.8306635830086,stimuli/242_xb.png,l,8.580217749578878,harmless,0.333,6.576271186,0.913564256,0.118935936
060,78,0,1,9,13,205,1939.3789297945332,1947.1906131550204,stimuli/293_zb.png,a,7.799828991992399,awful,0.333,3.677966102,2.169066842,0.28238845
060,78,0,1,9,14,206,1947.7379943947308,1954.3746333294548,stimuli/229_za.png,l,6.62470737262629,awful,0.333,3.406779661,2.043649913,0.266060557
060,78,0,1,9,15,207,1954.9239381125662,1959.6545994901098,stimuli/106_xc.png,l,4.718752658460289,harmless,0.333,6.661016949,0.863237081,0.112383896
060,78,0,1,9,16,208,1960.2683276198804,1967.5666316405404,stimuli/199_za.png,a,7.286572138313204,awful,0.333,3.033898305,2.189048775,0.284989876
060,78,0,1,9,17,209,1968.1326496691909,1977.7426027858164,stimuli/239_ya.png,a,9.597570994636044,ambig,0.333,5.157894737,1.925296579,0.255011762
060,78,0,1,9,18,210,1978.301343723433,1986.5665965883527,stimuli/181_xa.png,l,8.253203936619684,harmless,0.333,6.666666667,0.950765377,0.122743282
060,78,0,1,9,19,211,1987.1303023474757,1997.3586731173564,stimuli/339_ya.png,a,10.21642227214761,ambig,0.333,4.949152542,1.960152429,0.25519011
060,78,0,1,9,20,212,1997.9104886681307,2010.158620263217,stimuli/289_yb.png,a,12.236195306759328,ambig,0.333,5.305084746,1.714584873,0.223219937
060,78,0,1,9,21,213,2010.7066895517055,2021.2626140972134,stimuli/334_za.png,a,10.544226533966139,awful,0.333,3.333333333,2.214487481,0.285889104
060,78,0,1,9,22,214,2021.8146966756321,2027.0465793693438,stimuli/156_xc.png,l,5.219903082353994,harmless,0.333,6.590163934,0.955284411,0.122311635
060,78,0,1,9,23,215,2027.5975158561487,2038.7745421146974,stimuli/286_ya.png,l,11.165037588682026,ambig,0.333,5.06779661,1.779814082,0.231712057
060,78,0,1,9,24,216,2039.3311680997722,2047.766454094788,stimuli/172_xb.png,l,8.423387909773737,harmless,0.333,6.482758621,1.127664553,0.14806961
060,78,0,1,10,1,217,2063.9868337307125,2072.030543145025,stimuli/372_zb.png,a,8.031834959750995,awful,0.333,2.796610169,2.082601664,0.271131643
060,78,0,1,10,2,218,2072.5802031771746,2089.9905524239875,stimuli/185_xa.png,l,17.39834127854556,harmless,0.333,6.5,0.965506805,0.124646393
060,78,0,1,10,3,219,2090.5487203157973,2096.8465249398723,stimuli/322_za.png,a,6.285849825013429,awful,0.333,2.406779661,1.975004531,0.257123689
060,78,0,1,10,4,220,2097.3933323461097,2107.766486390261,stimuli/121_xc.png,l,10.361245325068012,harmless,0.333,6.508474576,1.006408455,0.131023221
060,78,0,1,10,5,221,2108.3303705616854,2116.966568782693,stimuli/134_xc.png,l,8.624235938768834,harmless,0.333,6.516666667,0.965360505,0.124627505
060,78,0,1,10,6,222,2117.5186139459256,2130.518507607514,stimuli/366_za.png,a,12.988021176308393,awful,0.333,3.689655172,2.036568291,0.267414518
060,78,0,1,10,7,223,2131.065914840903,2137.3025591319893,stimuli/355_zb.png,a,6.2249001995660365,awful,0.333,3.183333333,2.070713188,0.267327923
060,78,0,1,10,8,224,2137.8605237992015,2143.8465438443236,stimuli/143_xb.png,l,5.974101085914299,harmless,0.333,6.655172414,0.738697862,0.096995781
060,78,0,1,10,9,225,2144.3924926666077,2151.8704940087628,stimuli/220_yb.png,a,7.465996918501332,ambig,0.333,4.75,2.096203186,0.270618668
060,78,0,1,10,10,226,2152.426414221758,2158.6464965040796,stimuli/312_yb.png,a,6.208210190758109,ambig,0.333,4.677966102,2.112692986,0.275049199
060,78,0,1,10,11,227,2159.20518466644,2165.278521140106,stimuli/288_yb.png,a,6.061285970034078,ambig,0.333,5.189655172,1.914459262,0.251380817
060,78,0,1,10,12,228,2165.8292433747556,2173.046458458528,stimuli/263_ya.png,a,7.205808912171051,ambig,0.333,4.983050847,2.071910042,0.269739712
060,78,0,1,10,13,229,2173.5963508598506,2175.958465402946,stimuli/126_xa.png,l,2.349905713228509,harmless,0.333,6.6,0.977717855,0.126222832
060,78,0,1,10,14,230,2176.517555288039,2185.966465201229,stimuli/201_yb.png,a,9.436905883485451,ambig,0.333,5.898305085,1.626238682,0.211718243
060,78,0,1,10,15,231,2186.5177711155266,2193.42251396575,stimuli/301_za.png,a,6.892748666461557,awful,0.333,3.610169492,2.212947396,0.288101212
060,78,0,1,10,16,232,2193.9715694445185,2203.9503888045438,stimuli/191_ya.png,a,9.966867711860687,ambig,0.333,5.517241379,2.062542966,0.270825159
060,78,0,1,10,17,233,2204.502964478219,2212.638512853533,stimuli/361_za.png,a,8.123554585501552,awful,0.333,2.416666667,1.907093508,0.246204713
060,78,0,1,10,18,234,2213.191515455954,2223.7344265445136,stimuli/193_xc.png,a,10.530972043285146,harmless,0.333,6.482758621,1.012923151,0.133003326
060,78,0,1,10,19,235,2224.2834186139517,2232.454460777575,stimuli/313_zb.png,a,8.159113752190024,awful,0.333,2.101694915,1.688652955,0.219843889
060,78,0,1,10,20,236,2233.0005758027546,2240.4544406915084,stimuli/178_xa.png,l,7.441872280556709,harmless,0.333,6.483333333,1.112207557,0.143585378
060,78,0,1,10,21,237,2241.0010578699876,2247.7184990216047,stimuli/225_ya.png,l,6.705469023203477,ambig,0.333,5.85,1.792876677,0.231459384
060,78,0,1,10,22,238,2248.267337884987,2258.990464202594,stimuli/363_zb.png,a,10.711178607540205,awful,0.333,2.433333333,2.019956927,0.260775318
060,78,0,1,10,23,239,2259.5486446972936,2270.70240962808,stimuli/144_xa.png,l,11.14180816244334,harmless,0.333,6.542372881,1.00553698,0.130909764
060,78,0,1,10,24,240,2271.252151974011,2279.36643148819,stimuli/265_yb.png,a,8.102338893571869,ambig,0.333,5.627118644,1.856008928,0.241631781
