id,age,condition,counterbalance,block,trialinblock,trial,tstart,tend,trialstim,response,RT,trialtype,ethicfreq,norm_mean,norm_sd,norm_se
177,28,0,1,0,0,practice,4.725996404886246e-06,17.408041952643543,stimuli/prac_217_1.png,a,17.38790457881987,harmless,NA,NA,NA,NA
177,28,0,1,1,1,1,4.417651807889342,10.456012067385018,stimuli/139_xa.png,a,6.026765811257064,harmless,0.333,6.724137931,0.790138861,0.103750315
177,28,0,1,1,2,2,11.062411285936832,23.67214480927214,stimuli/245_yb.png,l,12.598058336414397,ambig,0.333,4.949152542,2.096168334,0.272897873
177,28,0,1,1,3,3,24.236359912436455,36.24797050841153,stimuli/271_ya.png,a,12.000152418389916,ambig,0.333,5.711864407,1.771915459,0.230683744
177,28,0,1,1,4,4,36.87557127419859,44.200031901244074,stimuli/209_ya.png,a,7.312664923258126,ambig,0.333,5.603448276,1.825161903,0.239655499
177,28,0,1,1,5,5,44.828720077406615,64.80008270777762,stimuli/286_ya.png,l,19.95968862529844,ambig,0.333,5.06779661,1.779814082,0.231712057
177,28,0,1,1,6,6,65.36947649903595,97.3441210524179,stimuli/276_ya.png,l,31.96284648636356,ambig,0.333,5.186440678,1.804922162,0.234980851
177,28,0,1,1,7,7,97.90524879284203,105.84805873036385,stimuli/354_zb.png,l,7.931126086041331,awful,0.333,2,1.701925887,0.221571878
177,28,0,1,1,8,8,106.43454388622195,120.88010602351278,stimuli/341_zb.png,l,14.433844808954746,awful,0.333,3.603448276,2.15975677,0.283589957
177,28,0,1,1,9,9,121.49255590653047,138.0321323638782,stimuli/173_yb.png,l,16.52795995399356,ambig,0.333,5.796610169,1.242628763,0.161776485
177,28,0,1,1,10,10,138.6397194233723,157.58412168268114,stimuli/121_xc.png,a,18.933002764824778,harmless,0.333,6.508474576,1.006408455,0.131023221
177,28,0,1,1,11,11,158.2048710938543,174.9680937039666,stimuli/211_zb.png,a,16.751683300361037,awful,0.333,3.983333333,2.127237938,0.274625237
177,28,0,1,1,12,12,175.57473041210324,188.1041105762124,stimuli/259_xc.png,a,12.517790835816413,harmless,0.333,6.568965517,0.993170874,0.130409725
177,28,0,1,1,13,13,188.71870731655508,196.72014485672116,stimuli/372_zb.png,l,7.989720999263227,awful,0.333,2.796610169,2.082601664,0.271131643
177,28,0,1,1,14,14,197.34899569116533,218.9601986561902,stimuli/190_xc.png,a,21.599909021519125,harmless,0.333,6.517241379,1.046990328,0.137476565
177,28,0,1,1,15,15,219.53312525106594,243.5122395688668,stimuli/268_zb.png,l,23.967386749573052,awful,0.333,2.655737705,2.048456703,0.262278005
177,28,0,1,1,16,16,244.08731459639966,261.09616866055876,stimuli/118_xb.png,a,16.997004009317607,harmless,0.333,6.474576271,0.953323265,0.124112118
177,28,0,1,1,17,17,261.702725417912,276.17624829662964,stimuli/192_za.png,a,14.462240356951952,awful,0.333,2.68852459,2.093967396,0.268105052
177,28,0,1,1,18,18,276.74840216431767,322.38461162755266,stimuli/340_za.png,l,45.62456420855597,awful,0.333,2.508474576,1.832398855,0.238558011
177,28,0,1,1,19,19,322.99663536902517,332.87229407718405,stimuli/122_xa.png,a,9.863871275447309,harmless,0.333,6.457627119,1.039264227,0.135300678
177,28,0,1,1,20,20,333.48439934430644,354.24827219499275,stimuli/203_yb.png,a,20.752154340501875,ambig,0.333,6,1.542501327,0.200816568
177,28,0,1,1,21,21,354.83486014511436,363.50432443479076,stimuli/127_xb.png,a,8.657905681524426,harmless,0.333,6.423728814,1.162686987,0.151368953
177,28,0,1,1,22,22,364.1300453711301,375.0403239778243,stimuli/283_yb.png,a,10.898407678119838,ambig,0.333,5.949152542,1.478859402,0.192531095
177,28,0,1,1,23,23,375.6066678217612,382.2482836167328,stimuli/240_xa.png,a,6.629916583653539,harmless,0.333,6.482758621,1.096107616,0.143925981
177,28,0,1,1,24,24,382.86605042777956,392.2563460492529,stimuli/303_zb.png,l,9.378703929949552,awful,0.333,3.620689655,2.158846233,0.283470398
177,28,0,1,2,1,25,441.4841181379743,450.67239923402667,stimuli/224_yb.png,a,9.176497601438314,ambig,0.333,5.881355932,1.609077116,0.209483997
177,28,0,1,2,2,26,451.2777315224521,461.6403968394734,stimuli/292_zb.png,l,10.351049207150936,awful,0.333,2.396551724,1.955107169,0.256718148
177,28,0,1,2,3,27,462.24666727054864,473.6804120419547,stimuli/353_zb.png,l,11.422081006225199,awful,0.333,1.949152542,1.623361018,0.211343603
177,28,0,1,2,4,28,474.24767276039347,510.8405079045333,stimuli/318_za.png,l,36.581134357023984,awful,0.333,3.06557377,2.197489875,0.281359747
177,28,0,1,2,5,29,511.4587871101685,526.248482903,stimuli/207_yb.png,a,14.778026513755322,ambig,0.333,5.655737705,1.662179753,0.212820309
177,28,0,1,2,6,30,526.8572278716601,547.2324466533028,stimuli/272_xb.png,a,20.363764936570078,harmless,0.333,6.355932203,1.029943284,0.134087194
177,28,0,1,2,7,31,547.8529668459669,572.6086689559743,stimuli/334_za.png,a,24.744043464772403,awful,0.333,3.333333333,2.214487481,0.285889104
177,28,0,1,2,8,32,573.1852520219982,603.7125971815549,stimuli/105_xa.png,l,30.515625074040145,harmless,0.333,6.557377049,1.088187946,0.139328189
177,28,0,1,2,9,33,604.3056481531821,639.3765948815271,stimuli/247_ya.png,l,35.059223098214716,ambig,0.333,4.65,2.081598147,0.268733165
177,28,0,1,2,10,34,639.9985463120975,648.5525832395069,stimuli/177_xb.png,a,8.542296361643821,harmless,0.333,6.482758621,1.063614811,0.139659467
177,28,0,1,2,11,35,649.1280280891806,669.3045942196622,stimuli/305_zb.png,l,20.16483974363655,awful,0.333,2.75,2.12830003,0.274762352
177,28,0,1,2,12,36,669.9249135507271,686.9765747953206,stimuli/310_zb.png,a,17.03921963274479,awful,0.333,3.224137931,2.102989547,0.276136056
177,28,0,1,2,13,37,687.540450796485,717.6646825987846,stimuli/336_ya.png,a,30.112527470570058,ambig,0.333,5.033898305,1.884291705,0.245313885
177,28,0,1,2,14,38,718.3149638054892,782.7367573035881,stimuli/135_xa.png,a,64.41006789915264,harmless,0.333,6.508474576,1.179901828,0.153610134
177,28,0,1,2,15,39,783.357330665458,799.5688120797276,stimuli/343_zb.png,a,16.19998818449676,awful,0.333,3.103448276,2.141401862,0.28117984
177,28,0,1,2,16,40,800.1528144273907,816.5127531448379,stimuli/206_xa.png,a,16.34842500789091,harmless,0.333,6.325842697,1.136094431,0.060212884
177,28,0,1,2,17,41,817.1268051955849,823.5127393598668,stimuli/119_xc.png,a,6.374146731104702,harmless,0.333,6.694915254,0.914523379,0.119060803
177,28,0,1,2,18,42,824.1296534938738,832.7527892212383,stimuli/249_ya.png,l,8.611359715927392,ambig,0.333,5.327868852,1.859402337,0.238072074
177,28,0,1,2,19,43,833.4116448606364,864.3047749954276,stimuli/160_xb.png,a,30.881222972180694,harmless,0.333,6.666666667,0.680644427,0.087870818
177,28,0,1,2,20,44,864.916647892911,870.7847376586869,stimuli/201_yb.png,a,5.856184965930879,ambig,0.333,5.898305085,1.626238682,0.211718243
177,28,0,1,2,21,45,871.3565902342089,885.0327932382934,stimuli/200_ya.png,l,13.66435610037297,ambig,0.333,5.862068966,1.444266048,0.189641423
177,28,0,1,2,22,46,885.6531716459431,902.0728568839841,stimuli/356_za.png,l,16.407941915560514,awful,0.333,3.033333333,2.178217796,0.281206708
177,28,0,1,2,23,47,902.6883118161932,927.8409643722698,stimuli/282_xc.png,a,25.141054563224316,harmless,0.333,6.55,0.998728005,0.128935231
177,28,0,1,2,24,48,928.4150622668676,944.377102943603,stimuli/263_ya.png,a,15.950451348442584,ambig,0.333,4.983050847,2.071910042,0.269739712
177,28,0,1,3,1,49,1021.0050660478882,1042.9129855143838,stimuli/239_ya.png,a,21.896143848542124,ambig,0.333,5.157894737,1.925296579,0.255011762
177,28,0,1,3,2,50,1043.5317460005172,1091.441016360186,stimuli/280_xb.png,a,47.89751049596816,harmless,0.333,6.333333333,1.068289726,0.137915611
177,28,0,1,3,3,51,1092.0759919025004,1105.7850216221996,stimuli/169_xc.png,a,13.697517191525549,harmless,0.333,6.603448276,0.916508538,0.120343467
177,28,0,1,3,4,52,1106.377541294787,1117.7372291320935,stimuli/236_yb.png,l,11.348293463233858,ambig,0.333,5.93442623,1.49297078,0.19115532
177,28,0,1,3,5,53,1118.3158613815904,1143.6811237228103,stimuli/296_yb.png,a,25.353853394743055,ambig,0.333,4.229508197,2.052587332,0.262806878
177,28,0,1,3,6,54,1144.2958173495717,1159.2250809352845,stimuli/258_ya.png,a,14.917625420261174,ambig,0.333,5.627118644,1.78014243,0.231754804
177,28,0,1,3,7,55,1159.8394527896307,1205.3851815238595,stimuli/266_zb.png,l,45.53417957853526,awful,0.333,3.491525424,1.888010094,0.245797978
177,28,0,1,3,8,56,1206.0019637187943,1228.481162713375,stimuli/166_xa.png,a,22.467707734089345,harmless,0.333,6.593220339,1.052397002,0.13701042
177,28,0,1,3,9,57,1229.092494466342,1236.1291225883178,stimuli/141_xc.png,a,7.024809181224555,harmless,0.333,6.508474576,1.040107444,0.135410455
177,28,0,1,3,10,58,1236.7672804105096,1250.3691413355991,stimuli/198_yb.png,a,13.5902263042517,ambig,0.333,5.101694915,1.83542643,0.238952168
177,28,0,1,3,11,59,1250.9753463878296,1299.001266610343,stimuli/229_za.png,a,48.01441399566829,awful,0.333,3.406779661,2.043649913,0.266060557
177,28,0,1,3,12,60,1299.5821441793814,1312.4732609703206,stimuli/330_ya.png,l,12.879548336844891,ambig,0.333,4.796610169,2.049219036,0.266785595
177,28,0,1,3,13,61,1313.066761714872,1324.2412794497795,stimuli/120_xa.png,a,11.16301544662565,harmless,0.333,6.440677966,1.054893138,0.137335389
177,28,0,1,3,14,62,1324.8809425532818,1332.6892507462762,stimuli/102_xc.png,a,7.796687750611454,harmless,0.333,6.66011236,0.937292468,0.049676401
177,28,0,1,3,15,63,1333.3108217213303,1338.305225555785,stimuli/232_yb.png,a,4.982717619743198,ambig,0.333,5.483333333,1.845669845,0.238274952
177,28,0,1,3,16,64,1338.927108457312,1360.809280993417,stimuli/321_zb.png,l,21.87069624196738,awful,0.333,2.918032787,2.177881861,0.278849198
177,28,0,1,3,17,65,1361.374027395621,1374.0572743453085,stimuli/355_zb.png,l,12.671554433181882,awful,0.333,3.183333333,2.070713188,0.267327923
177,28,0,1,3,18,66,1374.6629618834704,1403.5133569114842,stimuli/171_xa.png,a,28.83881160756573,harmless,0.333,6.465517241,1.046556882,0.137419651
177,28,0,1,3,19,67,1404.076560616959,1421.0173363368958,stimuli/301_za.png,l,16.928968988358974,awful,0.333,3.610169492,2.212947396,0.288101212
177,28,0,1,3,20,68,1421.5828649182804,1432.8733936967328,stimuli/349_za.png,l,11.279073358047754,awful,0.333,3.288135593,2.101320172,0.273568585
177,28,0,1,3,21,69,1433.47817696305,1440.3613498695195,stimuli/317_za.png,l,6.8716001198627055,awful,0.333,3.65,2.03215674,0.262350307
177,28,0,1,3,22,70,1440.976761478465,1468.0734291430563,stimuli/287_ya.png,a,27.0852925889194,ambig,0.333,5.950819672,1.407435369,0.180203633
177,28,0,1,3,23,71,1468.6875359383412,1473.8574279458262,stimuli/199_za.png,a,5.158331036102027,awful,0.333,3.033898305,2.189048775,0.284989876
177,28,0,1,3,24,72,1474.453070427291,1496.4894362478517,stimuli/154_xc.png,a,22.023778091184795,harmless,0.333,6.5,0.965506805,0.124646393
177,28,0,1,4,1,73,1583.1944408561103,1594.5775676821359,stimuli/350_ya.png,a,11.371586728841066,ambig,0.333,4.915254237,2.02814792,0.264042369
177,28,0,1,4,2,74,1595.168990492355,1604.6895733065903,stimuli/352_zb.png,l,9.50801123259589,awful,0.333,2.93442623,2.135952968,0.273480754
177,28,0,1,4,3,75,1605.301693934016,1613.0335553311743,stimuli/208_xb.png,a,7.720115711912513,harmless,0.333,6.216666667,1.165778516,0.150501359
177,28,0,1,4,4,76,1613.6444822098128,1632.8576020258479,stimuli/110_xa.png,a,19.201304813846946,harmless,0.333,6.428571429,1.059281795,0.141552484
177,28,0,1,4,5,77,1633.4941856432706,1642.7935657287017,stimuli/248_zb.png,l,9.28757847379893,awful,0.333,3.288135593,1.991800844,0.259310383
177,28,0,1,4,6,78,1643.4644317184575,1663.481576252263,stimuli/157_xc.png,l,20.005290146451443,harmless,0.333,6.603448276,0.877389573,0.115206895
177,28,0,1,4,7,79,1664.0973072708584,1673.8815758586861,stimuli/124_xa.png,a,9.77265523467213,harmless,0.333,6.344262295,1.181598436,0.151288177
177,28,0,1,4,8,80,1674.492152607534,1680.2895855158567,stimuli/250_yb.png,a,5.78616732172668,ambig,0.333,5.950819672,1.585625318,0.203018519
177,28,0,1,4,9,81,1680.8936078706756,1691.9376127384603,stimuli/368_za.png,l,11.032706592231989,awful,0.333,3.590163934,2.02794682,0.259651984
177,28,0,1,4,10,82,1692.5556954145432,1699.8736717524007,stimuli/290_zb.png,l,7.306298000272363,awful,0.333,2.586206897,2.026443456,0.266085062
177,28,0,1,4,11,83,1700.476622450631,1740.0657156584784,stimuli/264_xa.png,a,39.577689381316304,harmless,0.333,6.533333333,0.947193297,0.122282129
177,28,0,1,4,12,84,1740.6931458883919,1748.313693256583,stimuli/348_za.png,l,7.609073830768466,awful,0.333,3.084745763,2.119597681,0.275948114
177,28,0,1,4,13,85,1748.9369278391823,1779.9936665534042,stimuli/322_za.png,l,31.04498121328652,awful,0.333,2.406779661,1.975004531,0.257123689
177,28,0,1,4,14,86,1780.60815459257,1803.71385709662,stimuli/253_ya.png,a,23.094432979356498,ambig,0.333,5.491803279,1.849531029,0.236808182
177,28,0,1,4,15,87,1804.2871799012646,1811.1617382019758,stimuli/281_ya.png,a,6.8632946838624775,ambig,0.333,5.881355932,1.543448286,0.200939852
177,28,0,1,4,16,88,1811.7467917259783,1816.4497073716484,stimuli/299_za.png,l,4.691759942565113,awful,0.333,1.288135593,0.929420425,0.121000233
177,28,0,1,4,17,89,1817.0503658833914,1828.8177573587745,stimuli/273_ya.png,a,11.755783636588603,ambig,0.333,5.551724138,1.836973233,0.241206403
177,28,0,1,4,18,90,1829.4427032051608,1858.649803076405,stimuli/183_xb.png,a,29.195517632178962,harmless,0.333,6.448275862,1.095003225,0.143780967
177,28,0,1,4,19,91,1859.2166321394034,1864.29775625607,stimuli/159_xa.png,a,5.069491465110332,harmless,0.333,6.389830508,1.174689235,0.152931512
177,28,0,1,4,20,92,1864.923548872117,1872.0657511046156,stimuli/212_ya.png,a,7.13093428267166,ambig,0.333,5.677966102,1.490668422,0.194068498
177,28,0,1,4,21,93,1872.6888458719477,1898.2418115362525,stimuli/261_yb.png,l,25.54148188699037,ambig,0.333,5.706896552,1.901141123,0.249632059
177,28,0,1,4,22,94,1898.8378994585946,1923.3379199388437,stimuli/214_xb.png,a,24.48807944683358,harmless,0.333,6.465517241,0.940614156,0.12350869
177,28,0,1,4,23,95,1923.9486865215003,1953.585882964544,stimuli/293_zb.png,a,29.625525588169694,awful,0.333,3.677966102,2.169066842,0.28238845
177,28,0,1,4,24,96,1954.2052598204464,1962.9380459696986,stimuli/202_yb.png,a,8.721188156399876,ambig,0.333,5.431034483,1.892849601,0.248543329
177,28,0,1,5,1,97,2030.2007223144174,2058.3060286086984,stimuli/362_zb.png,l,28.093707513529807,awful,0.333,1.474576271,1.222715071,0.159183944
177,28,0,1,5,2,98,2058.8911872897297,2068.7699731392786,stimuli/335_yb.png,a,9.867261899635196,ambig,0.333,5.016949153,2.046793332,0.266469795
177,28,0,1,5,3,99,2069.4201657306403,2074.8979649948888,stimuli/295_za.png,l,5.4664812963455915,awful,0.333,2.3,1.825432384,0.235662307
177,28,0,1,5,4,100,2075.5173843861558,2107.6740474822,stimuli/285_yb.png,a,32.14498200127855,ambig,0.333,4.120689655,2.119893958,0.278355714
177,28,0,1,5,5,101,2108.2843178180046,2124.554102305323,stimuli/260_ya.png,a,16.257935613859445,ambig,0.333,4.966101695,2.016877936,0.262575142
177,28,0,1,5,6,102,2125.1171346874908,2133.114028025884,stimuli/319_ya.png,a,7.985140957403928,ambig,0.333,4.216666667,2.108028774,0.272145344
177,28,0,1,5,7,103,2133.7281545135193,2140.298053216189,stimuli/163_xa.png,a,6.558381841983646,harmless,0.333,6.627118644,0.963082427,0.125382652
177,28,0,1,5,8,104,2140.919788031839,2150.2340472457,stimuli/165_xb.png,a,9.302506833337247,harmless,0.333,6.557377049,1.008705278,0.129151477
177,28,0,1,5,9,105,2150.806901372969,2158.6820701360703,stimuli/226_yb.png,a,7.863475065678358,ambig,0.333,5.683333333,1.712285287,0.22105508
177,28,0,1,5,10,106,2159.3436464671977,2172.5060880798846,stimuli/213_ya.png,a,13.150653391610831,ambig,0.333,5.98245614,1.597891781,0.211645937
177,28,0,1,5,11,107,2173.111745685339,2201.322146384511,stimuli/197_xa.png,a,28.198844847735018,harmless,0.333,6.779661017,0.55918033,0.072799078
177,28,0,1,5,12,108,2201.93463801546,2207.1704185800627,stimuli/185_xa.png,a,5.223970288410783,harmless,0.333,6.5,0.965506805,0.124646393
177,28,0,1,5,13,109,2207.7850385573693,2213.8661158066243,stimuli/311_za.png,a,6.0693311700597405,awful,0.333,3.116666667,1.975199339,0.254997138
177,28,0,1,5,14,110,2214.4672465398908,2225.6741266450845,stimuli/371_zb.png,a,11.19586973125115,awful,0.333,3.131147541,2.085468851,0.267016925
177,28,0,1,5,15,111,2226.3122809226625,2231.746150937397,stimuli/146_xa.png,a,5.4220754923298955,harmless,0.333,6.442622951,1.162247681,0.148810567
177,28,0,1,5,16,112,2232.3617929467,2237.7141410601325,stimuli/357_za.png,l,5.340938379056752,awful,0.333,2.793103448,2.066937905,0.271402243
177,28,0,1,5,17,113,2238.342613013927,2266.690188101027,stimuli/288_yb.png,a,28.33540247194469,ambig,0.333,5.189655172,1.914459262,0.251380817
177,28,0,1,5,18,114,2267.313992973417,2277.0181771991774,stimuli/126_xa.png,a,9.69227981986478,harmless,0.333,6.6,0.977717855,0.126222832
177,28,0,1,5,19,115,2277.5950186289847,2284.146197805181,stimuli/346_zb.png,l,6.539611115586013,awful,0.333,1.288135593,0.983499162,0.128040685
177,28,0,1,5,20,116,2284.758590186946,2301.8422624906525,stimuli/128_xc.png,a,17.0721633201465,harmless,0.333,6.627118644,0.98082135,0.127692063
177,28,0,1,5,21,117,2302.461287641898,2318.1142493677326,stimuli/314_zb.png,l,15.641538994852453,awful,0.333,1.833333333,1.451669602,0.18740974
177,28,0,1,5,22,118,2318.7361157275736,2338.6982363550924,stimuli/151_xa.png,a,19.94975030142814,harmless,0.333,6.610169492,0.947172729,0.123311386
177,28,0,1,5,23,119,2339.319696265273,2403.6663749576546,stimuli/225_ya.png,a,64.33543752413243,ambig,0.333,5.85,1.792876677,0.231459384
177,28,0,1,5,24,120,2404.281678652391,2423.8983592349105,stimuli/344_za.png,a,19.605212558526546,awful,0.333,2.711864407,2.043077863,0.265986082
177,28,0,1,6,1,121,2432.590148322284,2454.570394161623,stimuli/279_ya.png,a,21.968610430601984,ambig,0.333,5.31147541,1.970964092,0.252356093
177,28,0,1,6,2,122,2455.154630059842,2466.0663529019803,stimuli/149_xa.png,a,10.900171323213726,harmless,0.333,6.721311475,0.933294301,0.11949609
177,28,0,1,6,3,123,2466.6850562803447,2476.058381448034,stimuli/366_za.png,l,9.361672429833561,awful,0.333,3.689655172,2.036568291,0.267414518
177,28,0,1,6,4,124,2476.6637420933694,2504.6664438806474,stimuli/347_zb.png,a,27.991355462465435,awful,0.333,3.796610169,2.147810923,0.279621165
177,28,0,1,6,5,125,2505.289487054106,2512.2343902857974,stimuli/235_ya.png,a,6.933316266629845,ambig,0.333,5.694915254,1.567495667,0.204070554
177,28,0,1,6,6,126,2512.8715118980035,2521.1625416493043,stimuli/220_yb.png,a,8.279407340101898,ambig,0.333,4.75,2.096203186,0.270618668
177,28,0,1,6,7,127,2521.7784691969864,2537.074459445663,stimuli/147_ya.png,a,15.284434397239238,ambig,0.333,5.883333333,1.766847875,0.22809908
177,28,0,1,6,8,128,2537.6880857478827,2561.690481122583,stimuli/227_xa.png,a,23.99079895671457,harmless,0.333,6.180327869,1.05685377,0.135316259
177,28,0,1,6,9,129,2562.2973950989544,2567.4664690867066,stimuli/205_yb.png,a,5.157440942712128,ambig,0.333,5.847457627,1.52918233,0.199082582
177,28,0,1,6,10,130,2568.0807609902695,2579.5464908271097,stimuli/262_ya.png,a,11.454007782507688,ambig,0.333,5.491525424,1.7750462,0.231091332
177,28,0,1,6,11,131,2580.1498637287878,2607.2905512275174,stimuli/324_za.png,a,27.129018219187856,awful,0.333,2.491525424,1.994586478,0.259673041
177,28,0,1,6,12,132,2607.859037990216,2638.85054390179,stimuli/172_xb.png,a,30.979946515522897,harmless,0.333,6.482758621,1.127664553,0.14806961
177,28,0,1,6,13,133,2639.429922096897,2649.018545445986,stimuli/331_za.png,l,9.576397958677262,awful,0.333,1.983606557,1.638004917,0.209725039
177,28,0,1,6,14,134,2649.586038533598,2684.0186411505565,stimuli/140_xb.png,a,34.420941608492285,harmless,0.333,6.724137931,0.790138861,0.103750315
177,28,0,1,6,15,135,2684.6306731621735,2690.3146235221066,stimuli/337_zb.png,a,5.672643419355154,awful,0.333,3.033333333,2.20143764,0.284204377
177,28,0,1,6,16,136,2690.9282364337705,2702.226614573505,stimuli/297_za.png,l,11.286834497470409,awful,0.333,1.898305085,1.446695584,0.188343723
177,28,0,1,6,17,137,2702.8436251995154,2733.4506537849084,stimuli/228_ya.png,l,30.5954183829017,ambig,0.333,5.442622951,1.793735303,0.229664272
177,28,0,1,6,18,138,2734.0633710897528,2739.170595416799,stimuli/106_xc.png,a,5.095640512183309,harmless,0.333,6.661016949,0.863237081,0.112383896
177,28,0,1,6,19,139,2739.744043858722,2793.402768740896,stimuli/123_xc.png,a,53.64692760305479,harmless,0.333,6.491525424,1.023396666,0.133234897
177,28,0,1,6,20,140,2794.0149385989644,2799.234773498494,stimuli/270_yb.png,a,5.208262900356203,ambig,0.333,5.534482759,1.912246013,0.251090203
177,28,0,1,6,21,141,2799.8293466870673,2804.978695658967,stimuli/244_xb.png,a,5.137912061996758,harmless,0.333,6.610169492,0.743174671,0.096753101
177,28,0,1,6,22,142,2805.6155573320575,2825.4027234488167,stimuli/365_zb.png,l,19.775892653502524,awful,0.333,2.966101695,2.165291266,0.281896912
177,28,0,1,6,23,143,2826.020962875802,2860.970777768176,stimuli/132_xc.png,a,34.93816727492958,harmless,0.333,6.627118644,0.692280217,0.090127208
177,28,0,1,6,24,144,2861.571461485699,2873.8507809974253,stimuli/320_za.png,l,12.267651807982475,awful,0.333,1.423728814,1.117314975,0.14546202
177,28,0,1,7,1,145,2882.703584791161,2892.8347699539736,stimuli/327_zb.png,l,10.119599773082882,awful,0.333,2.502808989,1.906990248,0.101070281
177,28,0,1,7,2,146,2893.4151185872033,2900.4508341667242,stimuli/338_zb.png,l,7.024170362390578,awful,0.333,3.310344828,2.137443107,0.28066003
177,28,0,1,7,3,147,2901.071544981096,2920.098850362003,stimuli/265_yb.png,a,19.015661308076233,ambig,0.333,5.627118644,1.856008928,0.241631781
177,28,0,1,7,4,148,2920.704445345793,2951.034900710918,stimuli/312_yb.png,a,30.318715981207788,ambig,0.333,4.677966102,2.112692986,0.275049199
177,28,0,1,7,5,149,2951.6428201776,2960.794845336117,stimuli/252_zb.png,l,9.140409048646688,awful,0.333,2.711864407,1.983125776,0.258180985
177,28,0,1,7,6,150,2961.40574700851,2979.9228856344707,stimuli/179_xb.png,a,18.505602072924376,harmless,0.333,6.704918033,0.882123617,0.112944356
177,28,0,1,7,7,151,2980.520747047849,2986.290865123272,stimuli/345_zb.png,a,5.7584243775345385,awful,0.333,3.694915254,2.191317013,0.285285176
177,28,0,1,7,8,152,2986.913101305254,2998.0829295092262,stimuli/255_xb.png,a,11.158386962022632,harmless,0.333,6.770491803,0.642740036,0.082294429
177,28,0,1,7,9,153,2998.6515698721632,3014.362912258599,stimuli/111_xa.png,a,15.700234338641167,harmless,0.333,6.590163934,0.863655973,0.110579816
177,28,0,1,7,10,154,3014.959170716349,3029.1869235071354,stimuli/306_zb.png,l,14.216202059295028,awful,0.333,2.352112676,1.917055413,0.101746737
177,28,0,1,7,11,155,3029.824683544226,3060.3709809929132,stimuli/267_ya.png,a,30.53447575075552,ambig,0.333,5.103448276,1.898195405,0.249245267
177,28,0,1,7,12,156,3060.943696879782,3071.098986238707,stimuli/143_xb.png,a,10.14357045525685,harmless,0.333,6.655172414,0.738697862,0.096995781
177,28,0,1,7,13,157,3071.6621982147917,3084.4830988631584,stimuli/221_xb.png,a,12.80896709812805,harmless,0.333,6.440677966,1.133672495,0.147591588
177,28,0,1,7,14,158,3085.0846707047895,3096.091103794053,stimuli/274_xb.png,a,10.994444794487208,harmless,0.333,6.491525424,1.179901828,0.153610134
177,28,0,1,7,15,159,3096.6619185837917,3142.563087126706,stimuli/364_za.png,a,45.88914637733251,awful,0.333,1.677966102,1.279017376,0.166513879
177,28,0,1,7,16,160,3143.122738336213,3156.371061337646,stimuli/178_xa.png,a,13.236546989995986,harmless,0.333,6.483333333,1.112207557,0.143585378
177,28,0,1,7,17,161,3156.9445003266446,3173.6191492127255,stimuli/242_xb.png,a,16.66295715747401,harmless,0.333,6.576271186,0.913564256,0.118935936
177,28,0,1,7,18,162,3174.186453253962,3202.147160760127,stimuli/302_za.png,a,27.948636896908283,awful,0.333,3.137931034,2.188071937,0.287307921
177,28,0,1,7,19,163,3202.747568785213,3210.243424337823,stimuli/215_yb.png,a,7.484265436884016,ambig,0.333,5.866666667,1.466769385,0.189359113
177,28,0,1,7,20,164,3210.868591132108,3231.9151457622647,stimuli/241_yb.png,a,21.03489362169057,ambig,0.333,5.508474576,1.442852555,0.187843403
177,28,0,1,7,21,165,3232.5257359021343,3272.603237418458,stimuli/339_ya.png,l,40.06582593545318,ambig,0.333,4.949152542,1.960152429,0.25519011
177,28,0,1,7,22,166,3273.2309279809706,3300.4752664370462,stimuli/254_ya.png,a,27.232666813768446,ambig,0.333,5.983606557,1.627798137,0.208418195
177,28,0,1,7,23,167,3301.04531558929,3312.011216749437,stimuli/222_ya.png,a,10.95407158555463,ambig,0.333,5.931034483,1.543089507,0.202617579
177,28,0,1,7,24,168,3312.624919852242,3319.5792308961973,stimuli/269_za.png,a,6.9427043865434825,awful,0.333,3.457627119,2.119873401,0.27598401
177,28,0,1,8,1,169,3328.7161347111687,3355.8752691941336,stimuli/326_zb.png,a,27.147527037654072,awful,0.333,3.389830508,2.220724867,0.289113752
177,28,0,1,8,2,170,3356.445050136652,3368.467288681306,stimuli/370_za.png,l,12.01037037326023,awful,0.333,2.393442623,1.882185684,0.240989182
177,28,0,1,8,3,171,3369.0792336533777,3378.611590115819,stimuli/217_yb.png,a,9.520767922047526,ambig,0.333,5.169491525,2.001314588,0.260548967
177,28,0,1,8,4,172,3379.217533260118,3384.2912684218027,stimuli/230_yb.png,a,5.061997353099287,ambig,0.333,4.98245614,1.875511626,0.248417583
177,28,0,1,8,5,173,3384.8941466524266,3415.6433542333543,stimuli/164_xb.png,a,30.737217316869646,harmless,0.333,6.830508475,0.460604639,0.059965616
177,28,0,1,8,6,174,3416.2471910864115,3424.6512985117733,stimuli/257_yb.png,a,8.39244838617742,ambig,0.333,5.620689655,1.843219782,0.242026615
177,28,0,1,8,7,175,3425.2726780776866,3441.427293171175,stimuli/251_ya.png,a,16.143462934996933,ambig,0.333,5.655172414,1.792300532,0.235340589
177,28,0,1,8,8,176,3441.9853556039743,3446.1393177001737,stimuli/323_yb.png,a,4.142086047679186,ambig,0.333,4.603448276,1.955107169,0.256718148
177,28,0,1,8,9,177,3446.7666490748525,3453.1233692783862,stimuli/196_xb.png,a,6.344933558255434,harmless,0.333,6.594366197,0.982313556,0.05213579
177,28,0,1,8,10,178,3453.742183327675,3459.667308767792,stimuli/363_zb.png,l,5.913555016741157,awful,0.333,2.433333333,2.019956927,0.260775318
177,28,0,1,8,11,179,3460.2406508708373,3464.1953774229623,stimuli/184_xb.png,a,3.942947783973068,harmless,0.333,6.508474576,1.194425,0.15550089
177,28,0,1,8,12,180,3464.814023693558,3469.75537561113,stimuli/113_xb.png,a,4.929815364535898,harmless,0.333,6.733333333,0.660422737,0.085260209
177,28,0,1,8,13,181,3470.3409088402987,3483.019387095701,stimuli/117_xc.png,a,12.666824730113149,harmless,0.333,6.627118644,0.868972939,0.113130641
177,28,0,1,8,14,182,3483.6440911199898,3501.675444849301,stimuli/174_xc.png,a,18.0198065424338,harmless,0.333,6.533333333,1.111826512,0.143536185
177,28,0,1,8,15,183,3502.2562330150977,3513.9314080798067,stimuli/360_za.png,l,11.66428205696866,awful,0.333,3.2,2.207844259,0.285031468
177,28,0,1,8,16,184,3514.5086362669244,3541.379479019437,stimuli/304_ya.png,l,26.859362913761288,ambig,0.333,4.034482759,2.017167697,0.264867095
177,28,0,1,8,17,185,3541.9404204702005,3553.2834647465497,stimuli/275_yb.png,l,11.33137696608901,ambig,0.333,4.836065574,2.138382004,0.27379176
177,28,0,1,8,18,186,3553.906789914239,3577.4834513557144,stimuli/351_zb.png,a,23.56491260509938,awful,0.333,3.06779661,2.033040926,0.264679384
177,28,0,1,8,19,187,3578.0530255287886,3611.5075740627944,stimuli/373_zb.png,l,33.44300174107775,awful,0.333,2.327586207,1.858011869,0.243968911
177,28,0,1,8,20,188,3612.106280276552,3620.451513552107,stimuli/328_za.png,l,8.333571479190141,awful,0.333,2.706896552,1.955725922,0.256799395
177,28,0,1,8,21,189,3621.0548651861027,3630.6835167342797,stimuli/361_za.png,l,9.61698069376871,awful,0.333,2.416666667,1.907093508,0.246204713
177,28,0,1,8,22,190,3631.3017786107957,3646.4274952146225,stimuli/186_xa.png,a,15.114423841703683,harmless,0.333,6.65,0.879618561,0.113558268
177,28,0,1,8,23,191,3647.054113727063,3656.259553929325,stimuli/156_xc.png,a,9.193754381500185,harmless,0.333,6.590163934,0.955284411,0.122311635
177,28,0,1,8,24,192,3656.8314451016486,3670.1876135258935,stimuli/246_ya.png,a,13.344567674677819,ambig,0.333,5.542372881,1.715266481,0.223308675
177,28,0,1,9,1,193,3678.790735153947,3687.67570557585,stimuli/315_yb.png,a,8.87299709348008,ambig,0.333,5.050847458,1.915667965,0.249398726
177,28,0,1,9,2,194,3688.2422550073825,3709.7796097765677,stimuli/358_za.png,a,21.525784739293158,awful,0.333,3.949152542,2.112554662,0.275031191
177,28,0,1,9,3,195,3710.383459626697,3714.9956101863645,stimuli/369_za.png,l,4.600502942223102,awful,0.333,2.948275862,2.055565093,0.26990892
177,28,0,1,9,4,196,3715.599521870259,3760.6519747464918,stimuli/289_yb.png,a,45.040909627918154,ambig,0.333,5.305084746,1.714584873,0.223219937
177,28,0,1,9,5,197,3761.295781509485,3768.1636392995715,stimuli/101_xa.png,a,6.855992769356817,harmless,0.333,6.508522727,1.13475832,0.060482822
177,28,0,1,9,6,198,3768.779524311889,3799.3797267489135,stimuli/329_zb.png,l,30.588609957601875,awful,0.333,2.406779661,1.992387617,0.259386774
177,28,0,1,9,7,199,3799.9468645877205,3813.899740454741,stimuli/138_xc.png,a,13.941031720023602,harmless,0.333,6.661016949,0.70978796,0.092406522
177,28,0,1,9,8,200,3814.4897887404077,3822.6598182003945,stimuli/145_xa.png,a,8.158460611477494,harmless,0.333,6.661016949,0.822321556,0.107057148
177,28,0,1,9,9,201,3823.2255905726925,3826.4197596744634,stimuli/158_xa.png,a,3.1824891888536513,harmless,0.333,6.786885246,0.661179605,0.084655374
177,28,0,1,9,10,202,3827.0026872148737,3836.155672571622,stimuli/277_yb.png,a,9.140713098458946,ambig,0.333,5.491525424,2.02886822,0.264136144
177,28,0,1,9,11,203,3836.773829291109,3843.3557277102955,stimuli/298_za.png,l,6.57025316497311,awful,0.333,2.881355932,2.026418156,0.263817173
177,28,0,1,9,12,204,3843.9230719241314,3860.2037632036954,stimuli/161_xc.png,a,16.268854615744203,harmless,0.333,6.796610169,0.609682252,0.079373868
177,28,0,1,9,13,205,3860.818422959652,3871.3958673682064,stimuli/223_yb.png,a,10.565647129435092,ambig,0.333,5.542372881,1.77455224,0.231027024
177,28,0,1,9,14,206,3871.9719136212952,3892.6357770198956,stimuli/104_xc.png,a,20.65220042085275,harmless,0.333,6.745762712,0.756425814,0.098478253
177,28,0,1,9,15,207,3893.2310811872594,3910.787812812254,stimuli/218_yb.png,a,17.545091096311808,ambig,0.333,5.850282486,1.552723069,0.0825263
177,28,0,1,9,16,208,3911.4867510022596,3924.3958201063797,stimuli/237_ya.png,a,12.897435271181166,ambig,0.333,4.305084746,2.019339575,0.26289562
177,28,0,1,9,17,209,3924.9730242686346,3930.5238312603906,stimuli/231_xb.png,a,5.539170008152723,harmless,0.333,6.62295082,1.05141071,0.134619347
177,28,0,1,9,18,210,3931.152888864279,3937.907812733669,stimuli/291_za.png,l,6.743076965678483,awful,0.333,2.593220339,1.830005126,0.238246374
177,28,0,1,9,19,211,3938.5145262419246,3959.723930509761,stimuli/219_ya.png,a,21.19779367186129,ambig,0.333,5.271186441,1.998538332,0.260187529
177,28,0,1,9,20,212,3960.3020826601423,3970.2998424610123,stimuli/332_zb.png,l,9.986269327811897,awful,0.333,2.694915254,2.002190501,0.260663001
177,28,0,1,9,21,213,3970.904845099896,3980.427840617951,stimuli/367_zb.png,l,9.511396343354136,awful,0.333,3.413793103,2.086165649,0.27392697
177,28,0,1,9,22,214,3981.0937283877283,3998.9719254369847,stimuli/307_za.png,l,17.866277677938342,awful,0.333,2.93220339,2.172432347,0.282826601
177,28,0,1,9,23,215,3999.578467227984,4016.483905854635,stimuli/238_xb.png,a,16.893340448848903,harmless,0.333,6.4,1.076718178,0.139003719
177,28,0,1,9,24,216,4017.0786913265474,4061.708019896876,stimuli/210_yb.png,a,44.61660457029939,ambig,0.333,5.557377049,1.76564049,0.226067099
177,28,0,1,10,1,217,4070.5679987869225,4105.00401723478,stimuli/294_za.png,a,34.42390687903389,awful,0.333,1.557377049,1.38473331,0.177296933
177,28,0,1,10,2,218,4105.566519105341,4111.956359439995,stimuli/129_xa.png,a,6.3781194617040455,harmless,0.333,6.770491803,0.642740036,0.082294429
177,28,0,1,10,3,219,4112.514165478293,4133.148021314759,stimuli/309_ya.png,a,20.62221018783748,ambig,0.333,4.706896552,1.946734744,0.255618795
177,28,0,1,10,4,220,4133.742292422801,4139.732014997397,stimuli/256_zb.png,l,5.9780926797539,awful,0.333,3.051724138,2.012438634,0.264246138
177,28,0,1,10,5,221,4140.299406473059,4146.211970965378,stimuli/325_yb.png,a,5.90099840098992,ambig,0.333,5.131147541,1.811770863,0.231973488
177,28,0,1,10,6,222,4146.78365970077,4152.476011594757,stimuli/233_yb.png,a,5.680671587120742,ambig,0.333,5.318309859,1.922973646,0.102060844
177,28,0,1,10,7,223,4153.112054067198,4164.452030672692,stimuli/193_xc.png,a,11.328386095818132,harmless,0.333,6.482758621,1.012923151,0.133003326
177,28,0,1,10,8,224,4165.025446818676,4168.588015643414,stimuli/300_za.png,l,3.550975951831788,awful,0.333,3.75,2.12032137,0.273732312
177,28,0,1,10,9,225,4169.156014036387,4206.532129213214,stimuli/284_ya.png,a,37.36426354665309,ambig,0.333,5.948275862,1.431750417,0.18799804
177,28,0,1,10,10,226,4207.0985537953675,4212.356101470534,stimuli/109_xb.png,a,5.24576221127063,harmless,0.333,6.644067797,0.97843492,0.127381377
177,28,0,1,10,11,227,4212.942267216742,4220.148094176315,stimuli/316_za.png,a,7.194267169572413,awful,0.333,2.344827586,1.802062407,0.236622386
177,28,0,1,10,12,228,4220.7564838952385,4227.348062668461,stimuli/107_xa.png,a,6.579894527792931,harmless,0.333,6.813559322,0.540580029,0.070377525
177,28,0,1,10,13,229,4227.916178034153,4237.436116909143,stimuli/342_yb.png,a,9.50825935555622,ambig,0.333,4.916666667,2.085394461,0.269223267
177,28,0,1,10,14,230,4238.012804738712,4244.284135467373,stimuli/359_za.png,l,6.259755184873939,awful,0.333,2.01754386,1.641985167,0.217486248
177,28,0,1,10,15,231,4244.846911455039,4252.436154718511,stimuli/108_xb.png,a,7.577517664059997,harmless,0.333,6.568965517,1.077880782,0.141532681
177,28,0,1,10,16,232,4253.009962348267,4258.356109741144,stimuli/115_xb.png,a,5.334533646237105,harmless,0.333,6.440677966,1.021681954,0.133011661
177,28,0,1,10,17,233,4258.96001197258,4269.588154277299,stimuli/182_xb.png,a,10.61632927134633,harmless,0.333,6.542372881,0.988241802,0.128658124
177,28,0,1,10,18,234,4270.1561420364305,4276.604148385581,stimuli/189_yb.png,a,6.436171260196716,ambig,0.333,5.983333333,1.455459234,0.187898979
177,28,0,1,10,19,235,4277.174659519456,4311.8842351106,stimuli/313_zb.png,l,34.6980733028613,awful,0.333,2.101694915,1.688652955,0.219843889
177,28,0,1,10,20,236,4312.47651571827,4319.220276795328,stimuli/243_ya.png,a,6.7321209423244,ambig,0.333,5.830508475,1.652088985,0.215083666
177,28,0,1,10,21,237,4319.798358447384,4331.668200829998,stimuli/333_za.png,l,11.858046678826213,awful,0.333,3.266666667,2.185209657,0.282109354
177,28,0,1,10,22,238,4332.240517356433,4341.524243223481,stimuli/191_ya.png,a,9.271912439726293,ambig,0.333,5.517241379,2.062542966,0.270825159
177,28,0,1,10,23,239,4342.0966172521,4353.988215717487,stimuli/114_xc.png,a,11.879788977093995,harmless,0.333,6.644067797,0.97843492,0.127381377
177,28,0,1,10,24,240,4354.569999133237,4360.308313706424,stimuli/308_zb.png,l,5.726844186428934,awful,0.333,1.644067797,1.471132708,0.191525165
