id,age,condition,counterbalance,block,trialinblock,trial,tstart,tend,trialstim,response,RT,trialtype,ethicfreq,norm_mean,norm_sd,norm_se
75,78,1,2,0,0,practice,4.726158749690512e-06,47.0161075358601,stimuli/prac_217_1.png,a,46.999810559813795,harmless,NA,NA,NA,NA
75,78,1,2,1,1,1,5.848020527281733,38.640086488700945,stimuli/352_zb.png,a,32.780675919435,awful,0.333,2.93442623,2.135952968,0.273480754
75,78,1,2,1,2,2,39.25061833907057,78.08814443140409,stimuli/268_zb.png,l,38.826108481091524,awful,0.333,2.655737705,2.048456703,0.262278005
75,78,1,2,1,3,3,78.67092821752931,98.25612982757411,stimuli/237_ya.png,l,19.573902152765186,ambig,0.333,4.305084746,2.019339575,0.26289562
75,78,1,2,1,4,4,98.86122344489695,129.61613077280572,stimuli/314_zb.png,l,30.743579119831793,awful,0.333,1.833333333,1.451669602,0.18740974
75,78,1,2,1,5,5,130.28221073940767,151.02416406071552,stimuli/287_ya.png,l,20.73035257142419,ambig,0.333,5.950819672,1.407435369,0.180203633
75,78,1,2,1,6,6,151.5963789748962,175.53616102022033,stimuli/133_xa.png,l,23.928315597110668,harmless,0.333,6.568965517,1.186356193,0.1557762
75,78,1,2,1,7,7,176.15585571038127,205.09622498089857,stimuli/281_ya.png,a,28.92908399171347,ambig,0.333,5.881355932,1.543448286,0.200939852
75,78,1,2,1,8,8,205.71591770182704,219.5522004206282,stimuli/188_xa.png,l,13.824740258205566,harmless,0.333,6.655172414,0.806807095,0.105938962
75,78,1,2,1,9,9,220.1594460154547,250.3042956842296,stimuli/140_xb.png,l,30.13344111600327,harmless,0.333,6.724137931,0.790138861,0.103750315
75,78,1,2,1,10,10,250.9162890991156,274.1602971178313,stimuli/203_yb.png,a,23.232655392152992,ambig,0.333,6,1.542501327,0.200816568
75,78,1,2,1,11,11,274.7904208644145,283.2162619237042,stimuli/129_xa.png,l,8.414430931131847,harmless,0.333,6.770491803,0.642740036,0.082294429
75,78,1,2,1,12,12,283.8339212149381,307.27226808346404,stimuli/162_xa.png,a,23.426887115704176,harmless,0.333,6.644067797,0.905209289,0.117848212
75,78,1,2,1,13,13,307.8842784337512,330.08033563602294,stimuli/191_ya.png,a,22.1847392342047,ambig,0.333,5.517241379,2.062542966,0.270825159
75,78,1,2,1,14,14,330.70139618599023,345.20030916953556,stimuli/198_yb.png,l,14.487467803045547,ambig,0.333,5.101694915,1.83542643,0.238952168
75,78,1,2,1,15,15,345.8178069836872,384.84037990437446,stimuli/299_za.png,l,39.01129039880925,awful,0.333,1.288135593,0.929420425,0.121000233
75,78,1,2,1,16,16,385.48603695855945,410.56061692122285,stimuli/165_xb.png,l,25.06316589604012,harmless,0.333,6.557377049,1.008705278,0.129151477
75,78,1,2,1,17,17,411.22903161012346,426.28851307176683,stimuli/107_xa.png,l,15.049038226745324,harmless,0.333,6.813559322,0.540580029,0.070377525
75,78,1,2,1,18,18,426.99351767977123,439.3124522461071,stimuli/161_xc.png,l,12.308474789882894,harmless,0.333,6.796610169,0.609682252,0.079373868
75,78,1,2,1,19,19,439.95175419249654,460.9684552550948,stimuli/344_za.png,a,21.00534095295143,awful,0.333,2.711864407,2.043077863,0.265986082
75,78,1,2,1,20,20,461.54540341701295,475.8164797208419,stimuli/215_yb.png,l,14.259619701779684,ambig,0.333,5.866666667,1.466769385,0.189359113
75,78,1,2,1,21,21,476.4464687719078,501.66445180499886,stimuli/300_za.png,l,25.20653194489296,awful,0.333,3.75,2.12032137,0.273732312
75,78,1,2,1,22,22,502.2916224902133,533.1685415074871,stimuli/292_zb.png,l,30.865580963033608,awful,0.333,2.396551724,1.955107169,0.256718148
75,78,1,2,1,23,23,533.7893925310946,556.7525367655749,stimuli/297_za.png,a,22.951860924909397,awful,0.333,1.898305085,1.446695584,0.188343723
75,78,1,2,1,24,24,557.3640748938587,581.5045390813925,stimuli/213_ya.png,a,24.12901113010321,ambig,0.333,5.98245614,1.597891781,0.211645937
75,78,1,2,2,1,25,591.733247737352,606.1765803092485,stimuli/105_xa.png,l,14.431854702133933,harmless,0.333,6.557377049,1.088187946,0.139328189
75,78,1,2,2,2,26,606.7333737682452,629.6006470898683,stimuli/372_zb.png,a,22.85584901498987,awful,0.333,2.796610169,2.082601664,0.271131643
75,78,1,2,2,3,27,630.2364233220169,641.136661205328,stimuli/111_xa.png,l,10.88899789685911,harmless,0.333,6.590163934,0.863655973,0.110579816
75,78,1,2,2,4,28,641.7854910872529,674.768698258411,stimuli/250_yb.png,l,32.97185060612992,ambig,0.333,5.950819672,1.585625318,0.203018519
75,78,1,2,2,5,29,675.4132430899626,706.0086547777528,stimuli/245_yb.png,l,30.583798728663623,ambig,0.333,4.949152542,2.096168334,0.272897873
75,78,1,2,2,6,30,706.5893913495547,721.0727265208384,stimuli/212_ya.png,l,14.471980575488487,ambig,0.333,5.677966102,1.490668422,0.194068498
75,78,1,2,2,7,31,721.6694520806914,740.0247788551669,stimuli/288_yb.png,l,18.343806369286085,ambig,0.333,5.189655172,1.914459262,0.251380817
75,78,1,2,2,8,32,740.664654635968,755.4007301914885,stimuli/266_zb.png,l,14.724759162839746,awful,0.333,3.491525424,1.888010094,0.245797978
75,78,1,2,2,9,33,756.0116011437303,776.016759745733,stimuli/303_zb.png,l,19.993888683213754,awful,0.333,3.620689655,2.158846233,0.283470398
75,78,1,2,2,10,34,776.6250064984683,807.2247650705381,stimuli/366_za.png,a,30.588458327097214,awful,0.333,3.689655172,2.036568291,0.267414518
75,78,1,2,2,11,35,807.8836037746255,824.5288185391446,stimuli/175_xb.png,l,16.63367427315643,harmless,0.333,6.6,1.028409995,0.13276716
75,78,1,2,2,12,36,825.1548628232495,844.376838278733,stimuli/239_ya.png,a,19.211004466219492,ambig,0.333,5.157894737,1.925296579,0.255011762
75,78,1,2,2,13,37,845.0114802328426,855.9528801997594,stimuli/118_xb.png,l,10.930262380566091,harmless,0.333,6.474576271,0.953323265,0.124112118
75,78,1,2,2,14,38,856.5636995581044,885.9688936062958,stimuli/371_zb.png,a,29.393804006207574,awful,0.333,3.131147541,2.085468851,0.267016925
75,78,1,2,2,15,39,886.5744700794785,898.0568907390925,stimuli/154_xc.png,l,11.471337030239738,harmless,0.333,6.5,0.965506805,0.124646393
75,78,1,2,2,16,40,898.6679184422583,926.9369286271303,stimuli/285_yb.png,l,28.257995478642442,ambig,0.333,4.120689655,2.119893958,0.278355714
75,78,1,2,2,17,41,927.5856214504583,950.3689337786427,stimuli/362_zb.png,a,22.771945129299638,awful,0.333,1.474576271,1.222715071,0.159183944
75,78,1,2,2,18,42,950.9915653824646,959.0889270044818,stimuli/150_xc.png,l,8.086026718548965,harmless,0.333,6.482758621,1.030097582,0.135258439
75,78,1,2,2,19,43,959.7017608878878,988.2809185289043,stimuli/290_zb.png,a,28.567812891385074,awful,0.333,2.586206897,2.026443456,0.266085062
75,78,1,2,2,20,44,988.8909470433946,1004.4889715091413,stimuli/214_xb.png,l,15.587063716493503,harmless,0.333,6.465517241,0.940614156,0.12350869
75,78,1,2,2,21,45,1005.1342937937661,1021.2649949193801,stimuli/207_yb.png,l,16.119147243468433,ambig,0.333,5.655737705,1.662179753,0.212820309
75,78,1,2,2,22,46,1021.8722700526969,1028.001062991816,stimuli/346_zb.png,a,6.1175687065288,awful,0.333,1.288135593,0.983499162,0.128040685
75,78,1,2,2,23,47,1028.6180818885732,1039.6330232448227,stimuli/182_xb.png,l,11.00346742495185,harmless,0.333,6.542372881,0.988241802,0.128658124
75,78,1,2,2,24,48,1040.2707730419925,1054.065000433231,stimuli/230_yb.png,l,13.782876340062103,ambig,0.333,4.98245614,1.875511626,0.248417583
75,78,1,2,3,1,49,1064.30780091845,1092.2171354753336,stimuli/345_zb.png,l,27.89807015194583,awful,0.333,3.694915254,2.191317013,0.285285176
75,78,1,2,3,2,50,1092.8535879419942,1114.38509172686,stimuli/122_xa.png,l,21.520129890589487,harmless,0.333,6.457627119,1.039264227,0.135300678
75,78,1,2,3,3,51,1115.0133108315677,1122.8330736571806,stimuli/337_zb.png,l,7.808226666561495,awful,0.333,3.033333333,2.20143764,0.284204377
75,78,1,2,3,4,52,1123.463349428529,1144.3371133411583,stimuli/293_zb.png,a,20.861790583917355,awful,0.333,3.677966102,2.169066842,0.28238845
75,78,1,2,3,5,53,1144.9874335383965,1155.1371326396384,stimuli/211_zb.png,l,10.138479594810633,awful,0.333,3.983333333,2.127237938,0.274625237
75,78,1,2,3,6,54,1155.797041818626,1178.4971473694995,stimuli/276_ya.png,a,22.688627287264353,ambig,0.333,5.186440678,1.804922162,0.234980851
75,78,1,2,3,7,55,1179.1176037588712,1194.7371460304212,stimuli/235_ya.png,l,15.608155774184524,ambig,0.333,5.694915254,1.567495667,0.204070554
75,78,1,2,3,8,56,1195.4027455042415,1213.9451871952615,stimuli/271_ya.png,l,18.530919316597647,ambig,0.333,5.711864407,1.771915459,0.230683744
75,78,1,2,3,9,57,1214.55765519523,1223.23314770033,stimuli/335_yb.png,l,8.6633293423547,ambig,0.333,5.016949153,2.046793332,0.266469795
75,78,1,2,3,10,58,1223.8695788992782,1246.5692657912768,stimuli/319_ya.png,a,22.688237773033507,ambig,0.333,4.216666667,2.108028774,0.272145344
75,78,1,2,3,11,59,1247.2156376769353,1266.8332871220064,stimuli/277_yb.png,a,19.606182603010893,ambig,0.333,5.491525424,2.02886822,0.264136144
75,78,1,2,3,12,60,1267.429195450285,1280.2332855466202,stimuli/295_za.png,l,12.792715020519609,awful,0.333,2.3,1.825432384,0.235662307
75,78,1,2,3,13,61,1280.8700775089992,1304.9772392145123,stimuli/170_xc.png,l,24.095686198828844,harmless,0.333,6.583333333,1.062323432,0.137145365
75,78,1,2,3,14,62,1305.6244373902155,1313.3852965270617,stimuli/130_xc.png,l,7.748999629784521,harmless,0.333,6.644067797,0.960651931,0.125066229
75,78,1,2,3,15,63,1314.0153155104645,1323.4895240758397,stimuli/291_za.png,l,9.463306105409174,awful,0.333,2.593220339,1.830005126,0.238246374
75,78,1,2,3,16,64,1324.1251486770698,1330.505306688302,stimuli/125_xc.png,l,6.368801840050764,harmless,0.333,6.683333333,0.999858747,0.129081209
75,78,1,2,3,17,65,1331.0777457011654,1347.3853209455474,stimuli/339_ya.png,l,16.296288784038552,ambig,0.333,4.949152542,1.960152429,0.25519011
75,78,1,2,3,18,66,1348.0276696887822,1381.1853768717556,stimuli/340_za.png,a,33.14634667947939,awful,0.333,2.508474576,1.832398855,0.238558011
75,78,1,2,3,19,67,1381.8047513646789,1408.16938394524,stimuli/358_za.png,a,26.353312643262143,awful,0.333,3.949152542,2.112554662,0.275031191
75,78,1,2,3,20,68,1408.7894760265608,1419.6973616220175,stimuli/227_xa.png,l,10.89648295038296,harmless,0.333,6.180327869,1.05685377,0.135316259
75,78,1,2,3,21,69,1420.3139847030006,1435.6734378076926,stimuli/172_xb.png,l,15.347977204161907,harmless,0.333,6.482758621,1.127664553,0.14806961
75,78,1,2,3,22,70,1436.2940221971912,1446.313403385505,stimuli/126_xa.png,l,10.008041558687182,harmless,0.333,6.6,0.977717855,0.126222832
75,78,1,2,3,23,71,1446.9348719604895,1461.6974470867171,stimuli/128_xc.png,l,14.751104739549191,harmless,0.333,6.627118644,0.98082135,0.127692063
75,78,1,2,3,24,72,1462.3415791670932,1483.9774408639423,stimuli/224_yb.png,a,21.624549242633293,ambig,0.333,5.881355932,1.609077116,0.209483997
75,78,1,2,4,1,73,1494.2332028388464,1521.1694698037854,stimuli/296_yb.png,a,26.92487219679697,ambig,0.333,4.229508197,2.052587332,0.262806878
75,78,1,2,4,2,74,1521.7972741880858,1532.1215055965595,stimuli/257_yb.png,l,10.313183619134179,ambig,0.333,5.620689655,1.843219782,0.242026615
75,78,1,2,4,3,75,1532.7881972068408,1556.8735555678086,stimuli/315_yb.png,l,24.074028971351254,ambig,0.333,5.050847458,1.915667965,0.249398726
75,78,1,2,4,4,76,1557.4902542673271,1566.5375123077047,stimuli/136_xc.png,l,9.035822706040562,harmless,0.333,6.559322034,1.038420326,0.135190811
75,78,1,2,4,5,77,1567.1729423487432,1591.2015872015627,stimuli/231_xb.png,l,24.017179586146085,harmless,0.333,6.62295082,1.05141071,0.134619347
75,78,1,2,4,6,78,1591.7889006167643,1604.4975341268027,stimuli/313_zb.png,l,12.69737895126491,awful,0.333,2.101694915,1.688652955,0.219843889
75,78,1,2,4,7,79,1605.110169905398,1612.425586240577,stimuli/135_xa.png,l,7.304095216339192,harmless,0.333,6.508474576,1.179901828,0.153610134
75,78,1,2,4,8,80,1613.0751904248027,1624.8575929674762,stimuli/251_ya.png,l,11.770878199018625,ambig,0.333,5.655172414,1.792300532,0.235340589
75,78,1,2,4,9,81,1625.4723980528233,1635.1136389057374,stimuli/370_za.png,a,9.62984805400447,awful,0.333,2.393442623,1.882185684,0.240989182
75,78,1,2,4,10,82,1635.7606952966844,1660.7136802596242,stimuli/279_ya.png,l,24.941431080794246,ambig,0.333,5.31147541,1.970964092,0.252356093
75,78,1,2,4,11,83,1661.3594019046423,1674.6736678140733,stimuli/209_ya.png,l,13.302875867447256,ambig,0.333,5.603448276,1.825161903,0.239655499
75,78,1,2,4,12,84,1675.315091805629,1686.169658062433,stimuli/185_xa.png,l,10.843201420998412,harmless,0.333,6.5,0.965506805,0.124646393
75,78,1,2,4,13,85,1686.813436074768,1700.7376210093498,stimuli/360_za.png,a,13.913054437468418,awful,0.333,3.2,2.207844259,0.285031468
75,78,1,2,4,14,86,1701.3748974029759,1710.5296952415465,stimuli/232_yb.png,l,9.143310516490601,ambig,0.333,5.483333333,1.845669845,0.238274952
75,78,1,2,4,15,87,1711.1709849314311,1741.7857620536734,stimuli/365_zb.png,a,30.603428827991593,awful,0.333,2.966101695,2.165291266,0.281896912
75,78,1,2,4,16,88,1742.4238769465865,1748.94568501729,stimuli/153_xb.png,l,6.510169511551794,harmless,0.333,6.633333333,0.973664521,0.125699549
75,78,1,2,4,17,89,1749.5435212243901,1782.305745827196,stimuli/332_zb.png,l,32.75087118855026,awful,0.333,2.694915254,2.002190501,0.260663001
75,78,1,2,4,18,90,1782.929089111719,1800.5297661339237,stimuli/306_zb.png,a,17.58901325687475,awful,0.333,2.352112676,1.917055413,0.101746737
75,78,1,2,4,19,91,1801.0994013532572,1817.897809819382,stimuli/176_xb.png,l,16.7869782517937,harmless,0.333,6.796610169,0.517942249,0.067430337
75,78,1,2,4,20,92,1818.5095066678223,1827.4097748773174,stimuli/240_xa.png,l,8.889202303214915,harmless,0.333,6.482758621,1.096107616,0.143925981
75,78,1,2,4,21,93,1828.0222243664984,1834.8017853063739,stimuli/158_xa.png,l,6.768275661072039,harmless,0.333,6.786885246,0.661179605,0.084655374
75,78,1,2,4,22,94,1835.4172646569996,1869.2499121722212,stimuli/310_zb.png,a,33.821333485620926,awful,0.333,3.224137931,2.102989547,0.276136056
75,78,1,2,4,23,95,1869.8622435074403,1881.7538321268503,stimuli/236_yb.png,l,11.880281679046675,ambig,0.333,5.93442623,1.49297078,0.19115532
75,78,1,2,4,24,96,1882.342542121888,1892.001873921845,stimuli/354_zb.png,a,9.648042188840918,awful,0.333,2,1.701925887,0.221571878
75,78,1,2,5,1,97,1902.3316416311554,1909.7138370105476,stimuli/243_ya.png,l,7.370812426645898,ambig,0.25,5.830508475,1.652088985,0.215083666
75,78,1,2,5,2,98,1910.3221940403146,1929.9779178121034,stimuli/265_yb.png,a,19.64425535434293,ambig,0.25,5.627118644,1.856008928,0.241631781
75,78,1,2,5,3,99,1930.6035702189001,1949.4259777240395,stimuli/289_yb.png,l,18.811038337022183,ambig,0.25,5.305084746,1.714584873,0.223219937
75,78,1,2,5,4,100,1949.9839676888296,1957.2419222074313,stimuli/160_xb.png,l,7.246526667349826,harmless,0.25,6.666666667,0.680644427,0.087870818
75,78,1,2,5,5,101,1957.8828219892403,1970.2819492253038,stimuli/190_xc.png,l,12.387771458728821,harmless,0.25,6.517241379,1.046990328,0.137476565
75,78,1,2,5,6,102,1970.916655376399,1980.697925610265,stimuli/242_xb.png,l,9.76942451143259,harmless,0.25,6.576271186,0.913564256,0.118935936
75,78,1,2,5,7,103,1981.3093117137842,1992.7539526438923,stimuli/331_za.png,a,11.433302482020736,awful,0.25,1.983606557,1.638004917,0.209725039
75,78,1,2,5,8,104,1993.334855812781,2000.433917276473,stimuli/298_za.png,a,7.088045575922479,awful,0.25,2.881355932,2.026418156,0.263817173
75,78,1,2,5,9,105,2001.059625215631,2023.6739911620834,stimuli/241_yb.png,l,22.602909738248854,ambig,0.25,5.508474576,1.442852555,0.187843403
75,78,1,2,5,10,106,2024.2815675880056,2034.0980016226476,stimuli/216_xa.png,l,9.805338589871099,harmless,0.25,6.603448276,0.877389573,0.115206895
75,78,1,2,5,11,107,2034.742685088182,2055.2900411963483,stimuli/283_yb.png,l,20.536051530881196,ambig,0.25,5.949152542,1.478859402,0.192531095
75,78,1,2,5,12,108,2055.911549155987,2081.1060660244348,stimuli/258_ya.png,l,25.183193780375404,ambig,0.25,5.627118644,1.78014243,0.231754804
75,78,1,2,5,13,109,2081.738580813372,2094.954034170126,stimuli/248_zb.png,l,13.204110970201327,awful,0.25,3.288135593,1.991800844,0.259310383
75,78,1,2,5,14,110,2095.591932053595,2104.0980414011483,stimuli/302_za.png,a,8.494654714736498,awful,0.25,3.137931034,2.188071937,0.287307921
75,78,1,2,5,15,111,2104.780934282766,2110.610055689901,stimuli/121_xc.png,l,5.8175612234445,harmless,0.25,6.508474576,1.006408455,0.131023221
75,78,1,2,5,16,112,2111.243972572527,2118.9141032508096,stimuli/196_xb.png,l,7.659157719785981,harmless,0.25,6.594366197,0.982313556,0.05213579
75,78,1,2,5,17,113,2119.4828727954446,2145.338117255993,stimuli/226_yb.png,l,25.843988720235757,ambig,0.25,5.683333333,1.712285287,0.22105508
75,78,1,2,5,18,114,2145.9573924995866,2159.3381066221364,stimuli/181_xa.png,l,13.369220498925642,harmless,0.25,6.666666667,0.950765377,0.122743282
75,78,1,2,5,19,115,2159.9929406945876,2167.4500586831346,stimuli/124_xa.png,l,7.4457614235188885,harmless,0.25,6.344262295,1.181598436,0.151288177
75,78,1,2,5,20,116,2168.061989870267,2177.2821244870147,stimuli/244_xb.png,l,9.208816254834346,harmless,0.25,6.610169492,0.743174671,0.096753101
75,78,1,2,5,21,117,2177.8990831252513,2189.962149378117,stimuli/317_za.png,l,12.051780580215564,awful,0.25,3.65,2.03215674,0.262350307
75,78,1,2,5,22,118,2190.6098808220368,2200.0981465581754,stimuli/252_zb.png,a,9.476756358652892,awful,0.25,2.711864407,1.983125776,0.258180985
75,78,1,2,5,23,119,2200.7054973100285,2213.1701484013774,stimuli/208_xb.png,l,12.45323072318115,harmless,0.25,6.216666667,1.165778516,0.150501359
75,78,1,2,5,24,120,2213.733582506912,2222.3781734185095,stimuli/262_ya.png,l,8.633105952596452,ambig,0.25,5.491525424,1.7750462,0.231091332
75,78,1,2,6,1,121,2232.6122828920943,2253.722235000355,stimuli/269_za.png,a,21.098785377265813,awful,0.166,3.457627119,2.119873401,0.27598401
75,78,1,2,6,2,122,2254.306168030689,2263.7703469000344,stimuli/108_xb.png,l,9.453250809355268,harmless,0.166,6.568965517,1.077880782,0.141532681
75,78,1,2,6,3,123,2264.3821619024366,2272.9862653895534,stimuli/225_ya.png,l,8.593095082431319,ambig,0.166,5.85,1.792876677,0.231459384
75,78,1,2,6,4,124,2273.592888312998,2293.0662583790854,stimuli/159_xa.png,l,19.46200798720747,harmless,0.166,6.389830508,1.174689235,0.152931512
75,78,1,2,6,5,125,2293.6713563287203,2303.858285743543,stimuli/101_xa.png,l,10.175564972863867,harmless,0.166,6.508522727,1.13475832,0.060482822
75,78,1,2,6,6,126,2304.485852244532,2311.4182705410667,stimuli/117_xc.png,l,6.920799429710314,harmless,0.166,6.627118644,0.868972939,0.113130641
75,78,1,2,6,7,127,2312.049207580759,2318.8423983679004,stimuli/132_xc.png,l,6.7816940127449925,harmless,0.166,6.627118644,0.692280217,0.090127208
75,78,1,2,6,8,128,2319.4875414523485,2348.7223255850595,stimuli/342_yb.png,l,29.22315305664324,ambig,0.166,4.916666667,2.085394461,0.269223267
75,78,1,2,6,9,129,2349.360554299623,2360.1222810804,stimuli/120_xa.png,l,10.750256787945546,harmless,0.166,6.440677966,1.054893138,0.137335389
75,78,1,2,6,10,130,2360.694964671965,2368.1782880278533,stimuli/102_xc.png,l,7.471641473616728,harmless,0.166,6.66011236,0.937292468,0.049676401
75,78,1,2,6,11,131,2368.767915291486,2383.2823009302656,stimuli/270_yb.png,a,14.503323670965074,ambig,0.166,5.534482759,1.912246013,0.251090203
75,78,1,2,6,12,132,2383.9194808314887,2396.8985171677714,stimuli/197_xa.png,l,12.967602183485724,harmless,0.166,6.779661017,0.55918033,0.072799078
75,78,1,2,6,13,133,2397.5112927618884,2428.410388096382,stimuli/219_ya.png,l,30.88766472631596,ambig,0.166,5.271186441,1.998538332,0.260187529
75,78,1,2,6,14,134,2429.0106732412787,2435.86640134538,stimuli/323_yb.png,l,6.84437035753399,ambig,0.166,4.603448276,1.955107169,0.256718148
75,78,1,2,6,15,135,2436.444398714485,2452.6904118059438,stimuli/359_za.png,a,16.23472111726369,awful,0.166,2.01754386,1.641985167,0.217486248
75,78,1,2,6,16,136,2453.3132119760858,2463.3384437547757,stimuli/131_xb.png,l,10.01382361976448,harmless,0.166,6.525423729,1.119666394,0.145768149
75,78,1,2,6,17,137,2463.9103873086897,2468.858377115941,stimuli/106_xc.png,l,4.936649389932427,harmless,0.166,6.661016949,0.863237081,0.112383896
75,78,1,2,6,18,138,2469.4937768307955,2484.802530857877,stimuli/304_ya.png,a,15.297249769600057,ambig,0.166,4.034482759,2.017167697,0.264867095
75,78,1,2,6,19,139,2485.4396508944255,2502.7144218726617,stimuli/233_yb.png,l,17.263250573046207,ambig,0.166,5.318309859,1.922973646,0.102060844
75,78,1,2,6,20,140,2503.329788977023,2515.786476885147,stimuli/280_xb.png,l,12.445367576977333,harmless,0.166,6.333333333,1.068289726,0.137915611
75,78,1,2,6,21,141,2516.4333276882,2536.6425228234075,stimuli/341_zb.png,a,20.19772514237593,awful,0.166,3.603448276,2.15975677,0.283589957
75,78,1,2,6,22,142,2537.2680239931315,2552.818579316755,stimuli/210_yb.png,l,15.539219632461936,ambig,0.166,5.557377049,1.76564049,0.226067099
75,78,1,2,6,23,143,2553.4005466589997,2562.5224929698397,stimuli/144_xa.png,l,9.11040778870938,harmless,0.166,6.542372881,1.00553698,0.130909764
75,78,1,2,6,24,144,2563.1507093176215,2576.5065276125815,stimuli/338_zb.png,a,13.344195883516477,awful,0.166,3.310344828,2.137443107,0.28066003
75,78,1,2,7,1,145,2589.056432301718,2609.4185840429136,stimuli/263_ya.png,a,20.350697502225557,ambig,0.083,4.983050847,2.071910042,0.269739712
75,78,1,2,7,2,146,2610.006449630966,2634.314594377447,stimuli/218_yb.png,a,24.296723984466553,ambig,0.083,5.850282486,1.552723069,0.0825263
75,78,1,2,7,3,147,2634.9407422431923,2654.546828747647,stimuli/228_ya.png,l,19.594753964065603,ambig,0.083,5.442622951,1.793735303,0.229664272
75,78,1,2,7,4,148,2655.184436366215,2679.162638535521,stimuli/307_za.png,a,23.966301702204873,awful,0.083,2.93220339,2.172432347,0.282826601
75,78,1,2,7,5,149,2679.7816136680503,2685.0906398430916,stimuli/113_xb.png,l,5.29776846549521,harmless,0.083,6.733333333,0.660422737,0.085260209
75,78,1,2,7,6,150,2685.73244625964,2692.7706084141373,stimuli/163_xa.png,l,7.026917048040559,harmless,0.083,6.627118644,0.963082427,0.125382652
75,78,1,2,7,7,151,2693.416664041023,2719.7866623868676,stimuli/286_ya.png,a,26.358715823966122,ambig,0.083,5.06779661,1.779814082,0.231712057
75,78,1,2,7,8,152,2720.3868860917037,2728.882638456752,stimuli/180_xc.png,l,8.484343418430399,harmless,0.083,6.672131148,0.723908638,0.092687003
75,78,1,2,7,9,153,2729.5180960670486,2737.0586721070003,stimuli/178_xa.png,l,7.529090687105054,harmless,0.083,6.483333333,1.112207557,0.143585378
75,78,1,2,7,10,154,2737.6702791584285,2747.7387162965824,stimuli/274_xb.png,l,10.057053397714299,harmless,0.083,6.491525424,1.179901828,0.153610134
75,78,1,2,7,11,155,2748.34617811316,2760.4266831031955,stimuli/223_yb.png,a,12.06914212346237,ambig,0.083,5.542372881,1.77455224,0.231027024
75,78,1,2,7,12,156,2761.0604392964324,2767.45068214221,stimuli/145_xa.png,l,6.3788275976148725,harmless,0.083,6.661016949,0.822321556,0.107057148
75,78,1,2,7,13,157,2768.080236780541,2781.0907398801137,stimuli/186_xa.png,l,12.999385205548606,harmless,0.083,6.65,0.879618561,0.113558268
75,78,1,2,7,14,158,2781.7020704512697,2795.4107303490273,stimuli/328_za.png,a,13.697381314344966,awful,0.083,2.706896552,1.955725922,0.256799395
75,78,1,2,7,15,159,2796.0725607114446,2805.498729844903,stimuli/282_xc.png,l,9.414371854150886,harmless,0.083,6.55,0.998728005,0.128935231
75,78,1,2,7,16,160,2806.129234441092,2814.6827952076756,stimuli/220_yb.png,l,8.542228620040987,ambig,0.083,4.75,2.096203186,0.270618668
75,78,1,2,7,17,161,2815.3181114270637,2824.402777799658,stimuli/112_xc.png,l,9.073342496829355,harmless,0.083,6.706896552,0.749470472,0.098410294
75,78,1,2,7,18,162,2824.9935038951426,2839.6908068340254,stimuli/149_xa.png,l,14.685934164612263,harmless,0.083,6.721311475,0.933294301,0.11949609
75,78,1,2,7,19,163,2840.2991036052717,2867.9789185761665,stimuli/273_ya.png,l,27.668810110828417,ambig,0.083,5.551724138,1.836973233,0.241206403
75,78,1,2,7,20,164,2868.6010708687472,2876.2588138917554,stimuli/264_xa.png,l,7.6465010673236975,harmless,0.083,6.533333333,0.947193297,0.122282129
75,78,1,2,7,21,165,2876.866020889621,2884.6348373019937,stimuli/174_xc.png,l,7.75800414326568,harmless,0.083,6.533333333,1.111826512,0.143536185
75,78,1,2,7,22,166,2885.268145297866,2900.322834434791,stimuli/156_xc.png,l,15.043375501169976,harmless,0.083,6.590163934,0.955284411,0.122311635
75,78,1,2,7,23,167,2900.9295920537525,2920.17886580073,stimuli/217_yb.png,l,19.237690720187857,ambig,0.083,5.169491525,2.001314588,0.260548967
75,78,1,2,7,24,168,2920.8090970674184,2927.314877159264,stimuli/138_xc.png,l,6.493981630997951,harmless,0.083,6.661016949,0.70978796,0.092406522
75,78,1,2,8,1,169,2937.950072073917,2947.3788457145556,stimuli/109_xb.png,l,9.417625026584574,harmless,0.0412,6.644067797,0.97843492,0.127381377
75,78,1,2,8,2,170,2948.020572967949,2985.8670283490746,stimuli/222_ya.png,l,37.83484084661268,ambig,0.0412,5.931034483,1.543089507,0.202617579
75,78,1,2,8,3,171,2986.483990925776,2994.1869057840304,stimuli/336_ya.png,l,7.69176545650771,ambig,0.0412,5.033898305,1.884291705,0.245313885
75,78,1,2,8,4,172,2994.8186049167807,3002.994934345782,stimuli/169_xc.png,l,8.164918906997627,harmless,0.0412,6.603448276,0.916508538,0.120343467
75,78,1,2,8,5,173,3003.5853469394187,3021.331155230676,stimuli/255_xb.png,a,17.734530889383677,harmless,0.0412,6.770491803,0.642740036,0.082294429
75,78,1,2,8,6,174,3021.922584736084,3034.090959252637,stimuli/343_zb.png,a,12.157175883988202,awful,0.0412,3.103448276,2.141401862,0.28117984
75,78,1,2,8,7,175,3034.6756212929195,3051.851015336384,stimuli/249_ya.png,a,17.163905539844563,ambig,0.0412,5.327868852,1.859402337,0.238072074
75,78,1,2,8,8,176,3052.453726969824,3071.9869924302693,stimuli/119_xc.png,l,19.521898655407313,harmless,0.0412,6.694915254,0.914523379,0.119060803
75,78,1,2,8,9,177,3072.596753916804,3079.7470559971016,stimuli/194_xb.png,l,7.138681244239706,harmless,0.0412,6.586206897,1.026567825,0.134794959
75,78,1,2,8,10,178,3080.3864571928198,3098.8590423227497,stimuli/309_ya.png,l,18.46126401109086,ambig,0.0412,4.706896552,1.946734744,0.255618795
75,78,1,2,8,11,179,3099.4933061841784,3111.235055492978,stimuli/275_yb.png,l,11.730261199026245,ambig,0.0412,4.836065574,2.138382004,0.27379176
75,78,1,2,8,12,180,3111.8820157853697,3120.2030653076336,stimuli/104_xc.png,l,8.309479886256668,harmless,0.0412,6.745762712,0.756425814,0.098478253
75,78,1,2,8,13,181,3120.827028112766,3127.4750482462014,stimuli/114_xc.png,l,6.6371739935248115,harmless,0.0412,6.644067797,0.97843492,0.127381377
75,78,1,2,8,14,182,3128.076119902641,3147.043106503982,stimuli/137_xa.png,l,18.95543941458618,harmless,0.0412,6.355932203,1.094858074,0.14253838
75,78,1,2,8,15,183,3147.6648858238877,3156.235097634558,stimuli/142_xa.png,l,8.558613817712285,harmless,0.0412,6.4,1.076718178,0.139003719
75,78,1,2,8,16,184,3156.882757792254,3167.7231156412217,stimuli/116_xa.png,l,10.828966625444082,harmless,0.0412,6.63559322,0.958030802,0.050918763
75,78,1,2,8,17,185,3168.3479409702804,3178.003135806165,stimuli/202_yb.png,l,9.643860720109842,ambig,0.0412,5.431034483,1.892849601,0.248543329
75,78,1,2,8,18,186,3178.6413420714753,3192.123138878168,stimuli/151_xa.png,l,13.470436697045443,harmless,0.0412,6.610169492,0.947172729,0.123311386
75,78,1,2,8,19,187,3192.729346687357,3202.3391255031393,stimuli/247_ya.png,l,9.598334816821989,ambig,0.0412,4.65,2.081598147,0.268733165
75,78,1,2,8,20,188,3202.912142682725,3208.3631592006495,stimuli/184_xb.png,l,5.439642623648069,harmless,0.0412,6.508474576,1.194425,0.15550089
75,78,1,2,8,21,189,3208.998023284208,3218.5311997353356,stimuli/254_ya.png,l,9.522201523398508,ambig,0.0412,5.983606557,1.627798137,0.208418195
75,78,1,2,8,22,190,3219.163765330477,3224.6991276299104,stimuli/143_xb.png,l,5.524174300725463,harmless,0.0412,6.655172414,0.738697862,0.096995781
75,78,1,2,8,23,191,3225.305886824258,3235.7231617212674,stimuli/177_xb.png,l,10.405810024182756,harmless,0.0412,6.482758621,1.063614811,0.139659467
75,78,1,2,8,24,192,3236.3519601742382,3241.3711515285186,stimuli/103_xb.png,l,5.00767252447713,harmless,0.0412,6.779661017,0.589207434,0.076708274
75,78,1,2,9,1,193,3252.235901869196,3268.027221885265,stimuli/267_ya.png,l,15.779978811056026,ambig,0.0412,5.103448276,1.898195405,0.249245267
75,78,1,2,9,2,194,3268.642026182918,3276.555215709751,stimuli/312_yb.png,l,7.901815238709787,ambig,0.0412,4.677966102,2.112692986,0.275049199
75,78,1,2,9,3,195,3277.163701921184,3293.259223098312,stimuli/167_xb.png,l,16.08417839672893,harmless,0.0412,6.590163934,0.955284411,0.122311635
75,78,1,2,9,4,196,3293.882428930392,3307.547232046506,stimuli/272_xb.png,l,13.653322489425591,harmless,0.0412,6.355932203,1.029943284,0.134087194
75,78,1,2,9,5,197,3308.172014052445,3332.579277764212,stimuli/192_za.png,l,24.395944562160366,awful,0.0412,2.68852459,2.093967396,0.268105052
75,78,1,2,9,6,198,3333.189910439297,3340.555278725198,stimuli/152_xa.png,l,7.354002662403218,harmless,0.0412,6.576271186,0.968528743,0.126091702
75,78,1,2,9,7,199,3341.193397556576,3354.011282915725,stimuli/253_ya.png,l,12.806375981662313,ambig,0.0412,5.491803279,1.849531029,0.236808182
75,78,1,2,9,8,200,3354.632659724465,3370.6753381172566,stimuli/278_xb.png,l,16.031251329232873,harmless,0.0412,6.360655738,1.140654591,0.146045855
75,78,1,2,9,9,201,3371.3213921687557,3384.411333328082,stimuli/189_yb.png,l,13.078347892526835,ambig,0.0412,5.983333333,1.455459234,0.187898979
75,78,1,2,9,10,202,3384.976048616417,3407.9313919324477,stimuli/141_xc.png,l,22.943877655510732,harmless,0.0412,6.508474576,1.040107444,0.135410455
75,78,1,2,9,11,203,3408.560486951864,3420.2993663009147,stimuli/147_ya.png,l,11.72777681504158,ambig,0.0412,5.883333333,1.766847875,0.22809908
75,78,1,2,9,12,204,3420.939432309595,3431.46742062023,stimuli/200_ya.png,l,10.516561247075515,ambig,0.0412,5.862068966,1.444266048,0.189641423
75,78,1,2,9,13,205,3432.0723385819947,3437.379361653526,stimuli/195_xc.png,l,5.295262419950632,harmless,0.0412,6.637640449,1.001766915,0.05309354
75,78,1,2,9,14,206,3437.9457885989304,3452.6113908296775,stimuli/134_xc.png,l,14.654117271746145,harmless,0.0412,6.516666667,0.965360505,0.124627505
75,78,1,2,9,15,207,3453.18475341268,3478.275397981931,stimuli/139_xa.png,l,25.07937898277305,harmless,0.0412,6.724137931,0.790138861,0.103750315
75,78,1,2,9,16,208,3478.908352303609,3486.6433853473336,stimuli/173_yb.png,l,7.723577623214624,ambig,0.0412,5.796610169,1.242628763,0.161776485
75,78,1,2,9,17,209,3487.263727915055,3500.683406063661,stimuli/157_xc.png,l,13.40833654974631,harmless,0.0412,6.603448276,0.877389573,0.115206895
75,78,1,2,9,18,210,3501.327817381236,3516.8354820287823,stimuli/171_xa.png,l,15.496195048561276,harmless,0.0412,6.465517241,1.046556882,0.137419651
75,78,1,2,9,19,211,3517.4497451812877,3538.7714910242375,stimuli/350_ya.png,l,21.31050073649294,ambig,0.0412,4.915254237,2.02814792,0.264042369
75,78,1,2,9,20,212,3539.4301930635747,3548.6914649515966,stimuli/204_xb.png,l,9.249797169030899,harmless,0.0412,6.508474576,0.858484658,0.111765183
75,78,1,2,9,21,213,3549.3096803541466,3564.9635140563832,stimuli/221_xb.png,l,15.64254054650155,harmless,0.0412,6.440677966,1.133672495,0.147591588
75,78,1,2,9,22,214,3565.5760824872195,3579.4275003347693,stimuli/238_xb.png,l,13.839956519341285,harmless,0.0412,6.4,1.076718178,0.139003719
75,78,1,2,9,23,215,3580.0525733933036,3586.4675190818652,stimuli/179_xb.png,l,6.403461123408306,harmless,0.0412,6.704918033,0.882123617,0.112944356
75,78,1,2,9,24,216,3587.10380140682,3605.371536710436,stimuli/148_xc.png,l,18.256403550920368,harmless,0.0412,6.491525424,1.135218061,0.147792803
75,78,1,2,10,1,217,3615.795363244665,3625.123546115492,stimuli/322_za.png,a,9.316568336314049,awful,0.0412,2.406779661,1.975004531,0.257123689
75,78,1,2,10,2,218,3625.69740809591,3636.6595488094017,stimuli/261_yb.png,a,10.95059825289627,ambig,0.0412,5.706896552,1.901141123,0.249632059
75,78,1,2,10,3,219,3637.2916937764376,3662.0116732176475,stimuli/155_xb.png,l,24.708631146959306,harmless,0.0412,6.655737705,0.892286312,0.114245555
75,78,1,2,10,4,220,3662.6332808204616,3669.651573810781,stimuli/166_xa.png,l,7.00692539758893,harmless,0.0412,6.593220339,1.052397002,0.13701042
75,78,1,2,10,5,221,3670.2595279355355,3681.291611856356,stimuli/187_xc.png,l,11.021078273060994,harmless,0.0412,6.224137931,1.185335891,0.155642228
75,78,1,2,10,6,222,3681.9119138578844,3690.379621592243,stimuli/110_xa.png,l,8.456178270698729,harmless,0.0412,6.428571429,1.059281795,0.141552484
75,78,1,2,10,7,223,3690.992993076178,3701.707622899814,stimuli/193_xc.png,l,10.703104692288434,harmless,0.0412,6.482758621,1.012923151,0.133003326
75,78,1,2,10,8,224,3702.310810299875,3723.9396981560103,stimuli/234_xb.png,l,21.617331610910696,harmless,0.0412,6.637931034,0.788030542,0.103473479
75,78,1,2,10,9,225,3724.5904874244798,3734.131651477319,stimuli/259_xc.png,l,9.529625530708472,harmless,0.0412,6.568965517,0.993170874,0.130409725
75,78,1,2,10,10,226,3734.744094271108,3747.619666727057,stimuli/246_ya.png,l,12.864107976967716,ambig,0.0412,5.542372881,1.715266481,0.223308675
75,78,1,2,10,11,227,3748.259485400109,3761.531686135814,stimuli/284_ya.png,l,13.260596835049,ambig,0.0412,5.948275862,1.431750417,0.18799804
75,78,1,2,10,12,228,3762.150943262467,3768.8596905941567,stimuli/146_xa.png,l,6.697328145060965,harmless,0.0412,6.442622951,1.162247681,0.148810567
75,78,1,2,10,13,229,3769.4638653674983,3785.3556745409724,stimuli/123_xc.png,l,15.880365568360503,harmless,0.0412,6.491525424,1.023396666,0.133234897
75,78,1,2,10,14,230,3785.993644104511,3806.7637464258432,stimuli/325_yb.png,l,20.75851456838427,ambig,0.0412,5.131147541,1.811770863,0.231973488
75,78,1,2,10,15,231,3807.365169393398,3816.8437303569035,stimuli/206_xa.png,l,9.467126810709487,harmless,0.0412,6.325842697,1.136094431,0.060212884
75,78,1,2,10,16,232,3817.4691133726656,3827.3877907572096,stimuli/201_yb.png,l,9.907538616653255,ambig,0.0412,5.898305085,1.626238682,0.211718243
75,78,1,2,10,17,233,3827.9977854008966,3839.9317538774194,stimuli/260_ya.png,a,11.922648933069468,ambig,0.0412,4.966101695,2.016877936,0.262575142
75,78,1,2,10,18,234,3840.551352469024,3860.0837601317025,stimuli/183_xb.png,l,19.52115507313738,harmless,0.0412,6.448275862,1.095003225,0.143780967
75,78,1,2,10,19,235,3860.7278351043306,3872.7797964601077,stimuli/127_xb.png,l,12.040419682874926,harmless,0.0412,6.423728814,1.162686987,0.151368953
75,78,1,2,10,20,236,3873.3934999566773,3903.635870755319,stimuli/168_xa.png,a,30.231193433790395,harmless,0.0412,6.474576271,1.164946827,0.151663159
75,78,1,2,10,21,237,3904.300175261711,3913.17183130765,stimuli/205_yb.png,l,8.860348711727966,ambig,0.0412,5.847457627,1.52918233,0.199082582
75,78,1,2,10,22,238,3913.7981650689626,3924.1638649736515,stimuli/330_ya.png,l,10.354399265869688,ambig,0.0412,4.796610169,2.049219036,0.266785595
75,78,1,2,10,23,239,3924.7762498720003,3929.835880601483,stimuli/164_xb.png,l,5.048093782738761,harmless,0.0412,6.830508475,0.460604639,0.059965616
75,78,1,2,10,24,240,3930.454292533457,3938.411881562468,stimuli/115_xb.png,l,7.946333288697133,harmless,0.0412,6.440677966,1.021681954,0.133011661
