id,age,condition,counterbalance,block,trialinblock,trial,tstart,tend,trialstim,response,RT,trialtype,ethicfreq,norm_mean,norm_sd,norm_se
178,22,1,2,0,0,practice,4.7262292355299e-06,7.559843391412869,stimuli/prac_217_1.png,l,7.372248647036031,harmless,NA,NA,NA,NA
178,22,1,2,1,1,1,4.370460590114817,13.976306669879705,stimuli/367_zb.png,a,9.59408113756217,awful,0.333,3.413793103,2.086165649,0.27392697
178,22,1,2,1,2,2,14.735586941591464,23.25624943629373,stimuli/234_xb.png,l,8.50832332635764,harmless,0.333,6.637931034,0.788030542,0.103473479
178,22,1,2,1,3,3,23.911457703681663,32.88037623243872,stimuli/173_yb.png,a,8.957223691046238,ambig,0.333,5.796610169,1.242628763,0.161776485
178,22,1,2,1,4,4,33.49596919189207,40.54482489451766,stimuli/165_xb.png,l,7.037149837240577,harmless,0.333,6.557377049,1.008705278,0.129151477
178,22,1,2,1,5,5,41.16191604093183,48.6084163133055,stimuli/302_za.png,l,7.435520657454617,awful,0.333,3.137931034,2.188071937,0.287307921
178,22,1,2,1,6,6,49.26569738751277,60.28014008293394,stimuli/145_xa.png,l,11.001964893424883,harmless,0.333,6.661016949,0.822321556,0.107057148
178,22,1,2,1,7,7,61.16543150274083,65.77614984079264,stimuli/127_xb.png,l,4.599131807801314,harmless,0.333,6.423728814,1.162686987,0.151368953
178,22,1,2,1,8,8,66.44746755610686,71.32018704502843,stimuli/361_za.png,a,4.861194004653953,awful,0.333,2.416666667,1.907093508,0.246204713
178,22,1,2,1,9,9,72.42459381767549,78.85616263293196,stimuli/289_yb.png,a,6.420925937825814,ambig,0.333,5.305084746,1.714584873,0.223219937
178,22,1,2,1,10,10,79.68081765412353,87.21603548387066,stimuli/350_ya.png,a,7.523003116482869,ambig,0.333,4.915254237,2.02814792,0.264042369
178,22,1,2,1,11,11,88.05875775730237,99.71203145722393,stimuli/366_za.png,a,11.642519364366308,awful,0.333,3.689655172,2.036568291,0.267414518
178,22,1,2,1,12,12,100.51824783021584,106.53612603677902,stimuli/175_xb.png,l,6.005206632777117,harmless,0.333,6.6,1.028409995,0.13276716
178,22,1,2,1,13,13,107.24501776043326,113.0879987902008,stimuli/300_za.png,a,5.831094783265144,awful,0.333,3.75,2.12032137,0.273732312
178,22,1,2,1,14,14,113.86034014832694,122.08800154703204,stimuli/277_yb.png,l,8.215242279693484,ambig,0.333,5.491525424,2.02886822,0.264136144
178,22,1,2,1,15,15,122.68521178432275,131.46394367387984,stimuli/208_xb.png,l,8.767098097712733,harmless,0.333,6.216666667,1.165778516,0.150501359
178,22,1,2,1,16,16,132.03920177044347,136.77605886256788,stimuli/286_ya.png,a,4.724619929562323,ambig,0.333,5.06779661,1.779814082,0.231712057
178,22,1,2,1,17,17,137.36601683532353,140.89594453724567,stimuli/108_xb.png,l,3.518179301172495,harmless,0.333,6.568965517,1.077880782,0.141532681
178,22,1,2,1,18,18,141.54446373856626,147.3039200588828,stimuli/292_zb.png,a,5.748219130677171,awful,0.333,2.396551724,1.955107169,0.256718148
178,22,1,2,1,19,19,148.1369383818237,153.815918748267,stimuli/236_yb.png,l,5.666938551119529,ambig,0.333,5.93442623,1.49297078,0.19115532
178,22,1,2,1,20,20,154.5242709040176,158.23219731333666,stimuli/205_yb.png,a,3.6966718904441223,ambig,0.333,5.847457627,1.52918233,0.199082582
178,22,1,2,1,21,21,158.9585517368978,163.70385838276707,stimuli/214_xb.png,l,4.732588992221281,harmless,0.333,6.465517241,0.940614156,0.12350869
178,22,1,2,1,22,22,164.4283790633781,169.9678701130906,stimuli/370_za.png,a,5.527656396967359,awful,0.333,2.393442623,1.882185684,0.240989182
178,22,1,2,1,23,23,170.5512087304378,177.07988754939288,stimuli/291_za.png,a,6.516725224908441,awful,0.333,2.593220339,1.830005126,0.238246374
178,22,1,2,1,24,24,177.68601286539342,184.0398472826928,stimuli/276_ya.png,a,6.342011186061427,ambig,0.333,5.186440678,1.804922162,0.234980851
178,22,1,2,2,1,25,192.89322149183135,197.43176416237839,stimuli/297_za.png,a,4.526797814411111,awful,0.333,1.898305085,1.446695584,0.188343723
178,22,1,2,2,2,26,197.996943761711,202.61580130364746,stimuli/368_za.png,a,4.607004378456622,awful,0.333,3.590163934,2.02794682,0.259651984
178,22,1,2,2,3,27,203.19140480237547,208.0717814285308,stimuli/337_zb.png,l,4.868570724036545,awful,0.333,3.033333333,2.20143764,0.284204377
178,22,1,2,2,4,28,208.62867295066826,219.23171248997096,stimuli/309_ya.png,a,10.590847669052891,ambig,0.333,4.706896552,1.946734744,0.255618795
178,22,1,2,2,5,29,219.79669752973132,222.79977621720172,stimuli/102_xc.png,l,2.9910994935780764,harmless,0.333,6.66011236,0.937292468,0.049676401
178,22,1,2,2,6,30,223.41084310831502,229.6877123072045,stimuli/351_zb.png,a,6.264648577896878,awful,0.333,3.06779661,2.033040926,0.264679384
178,22,1,2,2,7,31,230.28608202456962,234.8636803489644,stimuli/363_zb.png,a,4.5658424405846745,awful,0.333,2.433333333,2.019956927,0.260775318
178,22,1,2,2,8,32,235.44581931410357,245.0957197303651,stimuli/239_ya.png,l,9.638209910830483,ambig,0.333,5.157894737,1.925296579,0.255011762
178,22,1,2,2,9,33,245.66672114864923,251.43961979774758,stimuli/284_ya.png,l,5.7608950367430225,ambig,0.333,5.948275862,1.431750417,0.18799804
178,22,1,2,2,10,34,252.04921213246416,257.5676982389996,stimuli/215_yb.png,a,5.506714075105265,ambig,0.333,5.866666667,1.466769385,0.189359113
178,22,1,2,2,11,35,258.1266101866495,264.17559940286446,stimuli/287_ya.png,a,6.036908410140313,ambig,0.333,5.950819672,1.407435369,0.180203633
178,22,1,2,2,12,36,264.82799285883084,272.10359860246535,stimuli/188_xa.png,l,7.263469405472279,harmless,0.333,6.655172414,0.806807095,0.105938962
178,22,1,2,2,13,37,272.70564919663593,277.1195410601795,stimuli/369_za.png,a,4.401982380193658,awful,0.333,2.948275862,2.055565093,0.26990892
178,22,1,2,2,14,38,277.73945135017857,282.5275831416948,stimuli/126_xa.png,l,4.776398750836961,harmless,0.333,6.6,0.977717855,0.126222832
178,22,1,2,2,15,39,283.2154049378587,291.551552163437,stimuli/189_yb.png,l,8.32453903381247,ambig,0.333,5.983333333,1.455459234,0.187898979
178,22,1,2,2,16,40,292.1492358025862,297.13552841614,stimuli/341_zb.png,a,4.974618649575859,awful,0.333,3.603448276,2.15975677,0.283589957
178,22,1,2,2,17,41,297.73966993414797,301.4075517443707,stimuli/115_xb.png,l,3.656164917163551,harmless,0.333,6.440677966,1.021681954,0.133011661
178,22,1,2,2,18,42,302.03691431786865,306.50352944328915,stimuli/101_xa.png,l,4.454537864075974,harmless,0.333,6.508522727,1.13475832,0.060482822
178,22,1,2,2,19,43,307.12928006297443,310.8875004972797,stimuli/138_xc.png,l,3.746191222104244,harmless,0.333,6.661016949,0.70978796,0.092406522
178,22,1,2,2,20,44,311.50381576875225,317.6075057432754,stimuli/310_zb.png,a,6.0923574743792415,awful,0.333,3.224137931,2.102989547,0.276136056
178,22,1,2,2,21,45,318.2273412026698,323.6394788798643,stimuli/123_xc.png,l,5.4010698408819735,harmless,0.333,6.491525424,1.023396666,0.133234897
178,22,1,2,2,22,46,324.253869036329,328.2714400435798,stimuli/129_xa.png,l,4.005786766647361,harmless,0.333,6.770491803,0.642740036,0.082294429
178,22,1,2,2,23,47,328.8877903672401,335.53547894919757,stimuli/243_ya.png,a,6.635913005913608,ambig,0.333,5.830508475,1.652088985,0.215083666
178,22,1,2,2,24,48,336.19451224058867,340.9033783642808,stimuli/273_ya.png,a,4.696851089829579,ambig,0.333,5.551724138,1.836973233,0.241206403
178,22,1,2,3,1,49,350.5760670545278,355.83161662798375,stimuli/349_za.png,a,5.24344080442097,awful,0.333,3.288135593,2.101320172,0.273568585
178,22,1,2,3,2,50,356.5817746584071,364.3194324376527,stimuli/338_zb.png,a,7.725974756875075,awful,0.333,3.310344828,2.137443107,0.28066003
178,22,1,2,3,3,51,364.91493535623886,369.95933706418145,stimuli/335_yb.png,l,5.032268914394081,ambig,0.333,5.016949153,2.046793332,0.266469795
178,22,1,2,3,4,52,370.5694280068856,374.5832996268291,stimuli/296_yb.png,a,4.002159846830182,ambig,0.333,4.229508197,2.052587332,0.262806878
178,22,1,2,3,5,53,375.1833353091497,380.17537766799796,stimuli/206_xa.png,l,4.980364456423558,harmless,0.333,6.325842697,1.136094431,0.060212884
178,22,1,2,3,6,54,380.806163991685,386.4552601760952,stimuli/133_xa.png,l,5.637346208328381,harmless,0.333,6.568965517,1.186356193,0.1557762
178,22,1,2,3,7,55,387.0288081970066,393.57531717338134,stimuli/172_xb.png,l,6.534608551417477,harmless,0.333,6.482758621,1.127664553,0.14806961
178,22,1,2,3,8,56,394.20731378311757,400.03123664623126,stimuli/233_yb.png,a,5.811776284943335,ambig,0.333,5.318309859,1.922973646,0.102060844
178,22,1,2,3,9,57,400.62544735893607,402.8312271151226,stimuli/346_zb.png,a,2.1939265927067026,awful,0.333,1.288135593,0.983499162,0.128040685
178,22,1,2,3,10,58,403.4350110217929,408.0473433373263,stimuli/180_xc.png,l,4.600659533054568,harmless,0.333,6.672131148,0.723908638,0.092687003
178,22,1,2,3,11,59,408.64576228533406,415.39924712560605,stimuli/141_xc.png,l,6.741614347556606,harmless,0.333,6.508474576,1.040107444,0.135410455
178,22,1,2,3,12,60,416.10292985348497,420.1351885277545,stimuli/248_zb.png,a,4.020835195784457,awful,0.333,3.288135593,1.991800844,0.259310383
178,22,1,2,3,13,61,420.70634275791235,424.47918154252693,stimuli/356_za.png,a,3.76106281473767,awful,0.333,3.033333333,2.178217796,0.281206708
178,22,1,2,3,14,62,425.115742029855,429.92719496798236,stimuli/342_yb.png,a,4.800218505319208,ambig,0.333,4.916666667,2.085394461,0.269223267
178,22,1,2,3,15,63,430.52479156735353,435.65517754736356,stimuli/313_zb.png,l,5.1182846940355375,awful,0.333,2.101694915,1.688652955,0.219843889
178,22,1,2,3,16,64,436.27273461257573,446.60716191644315,stimuli/198_yb.png,l,10.321597010479309,ambig,0.333,5.101694915,1.83542643,0.238952168
178,22,1,2,3,17,65,447.1950108484598,451.04741304786876,stimuli/144_xa.png,l,3.8408904996467754,harmless,0.333,6.542372881,1.00553698,0.130909764
178,22,1,2,3,18,66,451.6222367333248,455.2711915273685,stimuli/197_xa.png,l,3.6369858401594684,harmless,0.333,6.779661017,0.55918033,0.072799078
178,22,1,2,3,19,67,455.8408136998769,469.7190769530134,stimuli/272_xb.png,l,13.866700353566557,harmless,0.333,6.355932203,1.029943284,0.134087194
178,22,1,2,3,20,68,470.33477546297945,473.1110706325853,stimuli/331_za.png,a,2.76492249709554,awful,0.333,1.983606557,1.638004917,0.209725039
178,22,1,2,3,21,69,473.7389791298192,478.25506829470396,stimuli/201_yb.png,l,4.504122573998757,ambig,0.333,5.898305085,1.626238682,0.211718243
178,22,1,2,3,22,70,478.82507170934696,481.7430766946636,stimuli/328_za.png,a,2.9063475627917796,awful,0.333,2.706896552,1.955725922,0.256799395
178,22,1,2,3,23,71,482.35433026833925,498.0070876373211,stimuli/250_yb.png,a,15.64098966983147,ambig,0.333,5.950819672,1.585625318,0.203018519
178,22,1,2,3,24,72,498.61032055458054,507.00702934816945,stimuli/263_ya.png,l,8.384875716175884,ambig,0.333,4.983050847,2.071910042,0.269739712
178,22,1,2,4,1,73,516.2896360831801,522.2389293083688,stimuli/168_xa.png,l,5.937601144309156,harmless,0.333,6.474576271,1.164946827,0.151663159
178,22,1,2,4,2,74,522.8639363483526,527.6709593161941,stimuli/240_xa.png,l,4.794892537291162,harmless,0.333,6.482758621,1.096107616,0.143925981
178,22,1,2,4,3,75,528.2587523222901,534.790917458362,stimuli/293_zb.png,a,6.52050023060292,awful,0.333,3.677966102,2.169066842,0.28238845
178,22,1,2,4,4,76,535.4058609672356,540.950870181201,stimuli/327_zb.png,a,5.533199767349288,awful,0.333,2.502808989,1.906990248,0.101070281
178,22,1,2,4,5,77,541.5200733025558,549.3428634669399,stimuli/298_za.png,a,7.8107014815323055,awful,0.333,2.881355932,2.026418156,0.263817173
178,22,1,2,4,6,78,549.947624503402,554.3428926115157,stimuli/230_yb.png,l,4.383806032943539,ambig,0.333,4.98245614,1.875511626,0.248417583
178,22,1,2,4,7,79,554.9413434609305,560.1429169510957,stimuli/136_xc.png,l,5.189715994289145,harmless,0.333,6.559322034,1.038420326,0.135190811
178,22,1,2,4,8,80,560.7202852700138,571.1108882823028,stimuli/268_zb.png,a,10.378712039673701,awful,0.333,2.655737705,2.048456703,0.262278005
178,22,1,2,4,9,81,571.7372997740749,578.2708693620516,stimuli/339_ya.png,a,6.5217424182919785,ambig,0.333,4.949152542,1.960152429,0.25519011
178,22,1,2,4,10,82,578.8446194254793,585.4390144577483,stimuli/332_zb.png,a,6.5823847245192155,awful,0.333,2.694915254,2.002190501,0.260663001
178,22,1,2,4,11,83,586.009707889054,595.1827662029536,stimuli/325_yb.png,a,9.161231538048014,ambig,0.333,5.131147541,1.811770863,0.231973488
178,22,1,2,4,12,84,595.7705792950001,603.1827366645448,stimuli/210_yb.png,l,7.400284907547757,ambig,0.333,5.557377049,1.76564049,0.226067099
178,22,1,2,4,13,85,603.8030758518726,610.9907186453929,stimuli/245_yb.png,l,7.175968435709365,ambig,0.333,4.949152542,2.096168334,0.272897873
178,22,1,2,4,14,86,611.5734330181731,617.1027478970354,stimuli/237_ya.png,a,5.517565690446645,ambig,0.333,4.305084746,2.019339575,0.26289562
178,22,1,2,4,15,87,617.7043617168674,623.5986973965773,stimuli/354_zb.png,a,5.882931499625556,awful,0.333,2,1.701925887,0.221571878
178,22,1,2,4,16,88,624.1975944726728,635.5106474066852,stimuli/261_yb.png,l,11.301728310761973,ambig,0.333,5.706896552,1.901141123,0.249632059
178,22,1,2,4,17,89,636.0946539854631,641.4386946554296,stimuli/227_xa.png,l,5.332092589815147,harmless,0.333,6.180327869,1.05685377,0.135316259
178,22,1,2,4,18,90,642.0260469487403,645.6948023075238,stimuli/232_yb.png,l,3.657160163857043,ambig,0.333,5.483333333,1.845669845,0.238274952
178,22,1,2,4,19,91,646.288940158789,652.1345993354917,stimuli/347_zb.png,l,5.833805225440301,awful,0.333,3.796610169,2.147810923,0.279621165
178,22,1,2,4,20,92,652.7800713569159,657.8305697876494,stimuli/111_xa.png,l,5.038558621308766,harmless,0.333,6.590163934,0.863655973,0.110579816
178,22,1,2,4,21,93,658.4295074297115,663.3586192419752,stimuli/159_xa.png,l,4.917452814406715,harmless,0.333,6.389830508,1.174689235,0.152931512
178,22,1,2,4,22,94,663.9831237355247,668.6625975898933,stimuli/131_xb.png,l,4.66606421477627,harmless,0.333,6.525423729,1.119666394,0.145768149
178,22,1,2,4,23,95,669.2365819913102,674.2946024704725,stimuli/353_zb.png,a,5.046107057365589,awful,0.333,1.949152542,1.623361018,0.211343603
178,22,1,2,4,24,96,674.8733854810707,683.4065726454137,stimuli/128_xc.png,l,8.52145766816102,harmless,0.333,6.627118644,0.98082135,0.127692063
178,22,1,2,5,1,97,697.4527293272549,704.8788969500456,stimuli/157_xc.png,l,7.414896956295706,harmless,0.25,6.603448276,0.877389573,0.115206895
178,22,1,2,5,2,98,705.4786971129943,715.4304932241794,stimuli/252_zb.png,a,9.9404202880105,awful,0.25,2.711864407,1.983125776,0.258180985
178,22,1,2,5,3,99,716.0024063938763,721.7985556911444,stimuli/170_xc.png,l,5.783987752976827,harmless,0.25,6.583333333,1.062323432,0.137145365
178,22,1,2,5,4,100,722.3794071763987,725.9584276756505,stimuli/311_za.png,a,3.56701649306342,awful,0.25,3.116666667,1.975199339,0.254997138
178,22,1,2,5,5,101,726.5727481214562,731.2784099212149,stimuli/163_xa.png,l,4.693752316408791,harmless,0.25,6.627118644,0.963082427,0.125382652
178,22,1,2,5,6,102,731.9408917205874,737.34238376352,stimuli/262_ya.png,a,5.389136333018541,ambig,0.25,5.491525424,1.7750462,0.231091332
178,22,1,2,5,7,103,737.9081222290406,743.7103840030031,stimuli/355_zb.png,a,5.789981682319194,awful,0.25,3.183333333,2.070713188,0.267327923
178,22,1,2,5,8,104,744.2967571972404,746.7904279088834,stimuli/106_xc.png,l,2.4821180519647896,harmless,0.25,6.661016949,0.863237081,0.112383896
178,22,1,2,5,9,105,747.3672184569295,755.1023410549387,stimuli/235_ya.png,l,7.7232560438569635,ambig,0.25,5.694915254,1.567495667,0.204070554
178,22,1,2,5,10,106,755.6742093263892,762.5183439285029,stimuli/200_ya.png,a,6.832611874677241,ambig,0.25,5.862068966,1.444266048,0.189641423
178,22,1,2,5,11,107,763.1398591373581,767.8143732998287,stimuli/120_xa.png,l,4.662876432179473,harmless,0.25,6.440677966,1.054893138,0.137335389
178,22,1,2,5,12,108,768.3839127649553,772.0863170713419,stimuli/117_xc.png,l,3.6904369278345257,harmless,0.25,6.627118644,0.868972939,0.113130641
178,22,1,2,5,13,109,772.6519830693724,777.9582669868832,stimuli/358_za.png,a,5.294292120495811,awful,0.25,3.949152542,2.112554662,0.275031191
178,22,1,2,5,14,110,778.5756814801134,784.6703457054682,stimuli/254_ya.png,a,6.081970990169793,ambig,0.25,5.983606557,1.627798137,0.208418195
178,22,1,2,5,15,111,785.2613225557143,789.758310624864,stimuli/315_yb.png,a,4.485664627398364,ambig,0.25,5.050847458,1.915667965,0.249398726
178,22,1,2,5,16,112,790.4811098084319,794.6703197116731,stimuli/238_xb.png,l,4.177544603939168,harmless,0.25,6.4,1.076718178,0.139003719
178,22,1,2,5,17,113,795.2939278137637,799.7342628341867,stimuli/203_yb.png,l,4.427558683906682,ambig,0.25,6,1.542501327,0.200816568
178,22,1,2,5,18,114,800.3167452322086,816.1263222858543,stimuli/217_yb.png,a,15.797906240448356,ambig,0.25,5.169491525,2.001314588,0.260548967
178,22,1,2,5,19,115,816.729166478035,823.3661783118732,stimuli/326_zb.png,a,6.6252256240695715,awful,0.25,3.389830508,2.220724867,0.289113752
178,22,1,2,5,20,116,823.9415021805326,830.8781431304524,stimuli/164_xb.png,l,6.924776364932768,harmless,0.25,6.830508475,0.460604639,0.059965616
178,22,1,2,5,21,117,831.5009154931176,834.0061597381718,stimuli/320_za.png,a,2.4931823436636478,awful,0.25,1.423728814,1.117314975,0.14546202
178,22,1,2,5,22,118,834.5774742632639,839.5661862675333,stimuli/107_xa.png,l,4.9767462010495365,harmless,0.25,6.813559322,0.540580029,0.070377525
178,22,1,2,5,23,119,840.188750679954,844.1661483008647,stimuli/279_ya.png,l,3.9655842358479276,ambig,0.25,5.31147541,1.970964092,0.252356093
178,22,1,2,5,24,120,844.7717155383434,849.0541411045706,stimuli/134_xc.png,l,4.270388083299622,harmless,0.25,6.516666667,0.965360505,0.124627505
178,22,1,2,6,1,121,857.8030037782155,861.3660940290429,stimuli/143_xb.png,l,3.5511917951516807,harmless,0.166,6.655172414,0.738697862,0.096995781
178,22,1,2,6,2,122,861.9388133997563,866.0541056584334,stimuli/343_zb.png,a,4.103638774715364,awful,0.166,3.103448276,2.141401862,0.28117984
178,22,1,2,6,3,123,866.6202808982925,870.806108065648,stimuli/285_yb.png,a,4.1737597520696,ambig,0.166,4.120689655,2.119893958,0.278355714
178,22,1,2,6,4,124,871.373742107884,874.9420417484362,stimuli/260_ya.png,l,3.5561814192915335,ambig,0.166,4.966101695,2.016877936,0.262575142
178,22,1,2,6,5,125,875.5320536779473,884.8781506135128,stimuli/160_xb.png,l,9.334309150348417,harmless,0.166,6.666666667,0.680644427,0.087870818
178,22,1,2,6,6,126,885.4636490776902,888.5821094267303,stimuli/116_xa.png,l,3.106726126745343,harmless,0.166,6.63559322,0.958030802,0.050918763
178,22,1,2,6,7,127,889.1565290270373,892.4140769707737,stimuli/299_za.png,a,3.2458377460716292,awful,0.166,1.288135593,0.929420425,0.121000233
178,22,1,2,6,8,128,892.9746899355669,898.0140106471954,stimuli/226_yb.png,l,5.027254871674813,ambig,0.166,5.683333333,1.712285287,0.22105508
178,22,1,2,6,9,129,898.6287729872856,908.9579995659878,stimuli/253_ya.png,a,10.31803861958906,ambig,0.166,5.491803279,1.849531029,0.236808182
178,22,1,2,6,10,130,909.6985391102498,913.525991613511,stimuli/146_xa.png,l,3.8157919300720096,harmless,0.166,6.442622951,1.162247681,0.148810567
178,22,1,2,6,11,131,914.1017258688807,917.4459307723446,stimuli/184_xb.png,l,3.3322304356843233,harmless,0.166,6.508474576,1.194425,0.15550089
178,22,1,2,6,12,132,918.0115534473443,920.2940625087358,stimuli/113_xb.png,l,2.2705936703132465,harmless,0.166,6.733333333,0.660422737,0.085260209
178,22,1,2,6,13,133,920.8923526694998,922.9499647312332,stimuli/179_xb.png,l,2.0458778395550326,harmless,0.166,6.704918033,0.882123617,0.112944356
178,22,1,2,6,14,134,923.5146000365494,927.2620905537624,stimuli/132_xc.png,l,3.7354479142231867,harmless,0.166,6.627118644,0.692280217,0.090127208
178,22,1,2,6,15,135,927.851843333221,930.9338856092654,stimuli/125_xc.png,l,3.0700796236051247,harmless,0.166,6.683333333,0.999858747,0.129081209
178,22,1,2,6,16,136,931.5108222739073,935.2059412328526,stimuli/191_ya.png,l,3.6834162443410605,ambig,0.166,5.517241379,2.062542966,0.270825159
178,22,1,2,6,17,137,935.7952532995259,938.6458879219135,stimuli/103_xb.png,l,2.838768461951986,harmless,0.166,6.779661017,0.589207434,0.076708274
178,22,1,2,6,18,138,939.2710146908648,942.5658597699367,stimuli/225_ya.png,l,3.283081712317653,ambig,0.166,5.85,1.792876677,0.231459384
178,22,1,2,6,19,139,943.127969346242,950.4298394412035,stimuli/228_ya.png,l,7.28985939337872,ambig,0.166,5.442622951,1.793735303,0.229664272
178,22,1,2,6,20,140,951.0413383804262,954.0697842398658,stimuli/316_za.png,a,3.016687612631358,awful,0.166,2.344827586,1.802062407,0.236622386
178,22,1,2,6,21,141,954.682238647365,959.6218149251072,stimuli/371_zb.png,a,4.927553760819137,awful,0.166,3.131147541,2.085468851,0.267016925
178,22,1,2,6,22,142,960.2595742770936,964.9738077224465,stimuli/110_xa.png,l,4.70195689832326,harmless,0.166,6.428571429,1.059281795,0.141552484
178,22,1,2,6,23,143,965.5766487638466,970.7098034752999,stimuli/218_yb.png,a,5.121261375723407,ambig,0.166,5.850282486,1.552723069,0.0825263
178,22,1,2,6,24,144,971.3177278758958,975.1657729664585,stimuli/216_xa.png,l,3.8362671515205875,harmless,0.166,6.603448276,0.877389573,0.115206895
178,22,1,2,7,1,145,983.7968692461727,988.2778069442138,stimuli/148_xc.png,l,4.469417333602905,harmless,0.083,6.491525424,1.135218061,0.147792803
178,22,1,2,7,2,146,988.904560293653,995.7497657606145,stimuli/167_xb.png,l,6.833446038654074,harmless,0.083,6.590163934,0.955284411,0.122311635
178,22,1,2,7,3,147,996.3280462248949,998.9738266270142,stimuli/290_zb.png,a,2.6338606788776815,awful,0.083,2.586206897,2.026443456,0.266085062
178,22,1,2,7,4,148,999.5474809862208,1003.8057413958013,stimuli/182_xb.png,l,4.246417879941873,harmless,0.083,6.542372881,0.988241802,0.128658124
178,22,1,2,7,5,149,1004.4123286921531,1008.4937238807324,stimuli/190_xc.png,l,4.0702269218163565,harmless,0.083,6.517241379,1.046990328,0.137476565
178,22,1,2,7,6,150,1009.0627564670285,1012.9416813801508,stimuli/323_yb.png,a,3.867074112640694,ambig,0.083,4.603448276,1.955107169,0.256718148
178,22,1,2,7,7,151,1013.5653627372812,1016.5256859896472,stimuli/121_xc.png,l,2.9483802921604365,harmless,0.083,6.508474576,1.006408455,0.131023221
178,22,1,2,7,8,152,1017.1339703648118,1022.1736707431264,stimuli/109_xb.png,l,5.028195767779835,harmless,0.083,6.644067797,0.97843492,0.127381377
178,22,1,2,7,9,153,1022.7423492626986,1026.1656563882716,stimuli/124_xa.png,l,3.412739866413176,harmless,0.083,6.344262295,1.181598436,0.151288177
178,22,1,2,7,10,154,1026.7490375409834,1029.7657082183287,stimuli/130_xc.png,l,3.005038460949436,harmless,0.083,6.644067797,0.960651931,0.125066229
178,22,1,2,7,11,155,1030.3519144222373,1036.6536411574343,stimuli/166_xa.png,l,6.289903110126033,harmless,0.083,6.593220339,1.052397002,0.13701042
178,22,1,2,7,12,156,1037.2644989168039,1041.533670018427,stimuli/258_ya.png,l,4.25612379971426,ambig,0.083,5.627118644,1.78014243,0.231754804
178,22,1,2,7,13,157,1042.1532148200786,1049.1576042242814,stimuli/142_xa.png,l,6.992597286705859,harmless,0.083,6.4,1.076718178,0.139003719
178,22,1,2,7,14,158,1049.7922604703344,1053.5015822729329,stimuli/196_xb.png,l,3.697587186470628,harmless,0.083,6.594366197,0.982313556,0.05213579
178,22,1,2,7,15,159,1054.0720323079731,1056.053641708917,stimuli/294_za.png,a,1.9698613941436633,awful,0.083,1.557377049,1.38473331,0.177296933
178,22,1,2,7,16,160,1056.6582062165253,1062.5015649436973,stimuli/202_yb.png,l,5.832000626949593,ambig,0.083,5.431034483,1.892849601,0.248543329
178,22,1,2,7,17,161,1063.0683770311298,1068.3496155481553,stimuli/221_xb.png,l,5.269405439612456,harmless,0.083,6.440677966,1.133672495,0.147591588
178,22,1,2,7,18,162,1068.957733720541,1072.8135316527914,stimuli/137_xa.png,l,3.8438825411722064,harmless,0.083,6.355932203,1.094858074,0.14253838
178,22,1,2,7,19,163,1073.3885617130436,1078.3975197208347,stimuli/257_yb.png,l,4.997569975443184,ambig,0.083,5.620689655,1.843219782,0.242026615
178,22,1,2,7,20,164,1078.9759620553814,1083.189651797642,stimuli/246_ya.png,a,4.202965732780285,ambig,0.083,5.542372881,1.715266481,0.223308675
178,22,1,2,7,21,165,1083.790118740406,1089.173489574343,stimuli/267_ya.png,a,5.371357769239694,ambig,0.083,5.103448276,1.898195405,0.249245267
178,22,1,2,7,22,166,1089.752064634813,1093.9575096226763,stimuli/147_ya.png,l,4.193539049127139,ambig,0.083,5.883333333,1.766847875,0.22809908
178,22,1,2,7,23,167,1094.5312459015986,1100.0535022877157,stimuli/209_ya.png,a,5.510287432116456,ambig,0.083,5.603448276,1.825161903,0.239655499
178,22,1,2,7,24,168,1100.6584787573665,1107.389501427533,stimuli/264_xa.png,a,6.718691378599033,harmless,0.083,6.533333333,0.947193297,0.122282129
178,22,1,2,8,1,169,1115.9221777745988,1122.2934347196715,stimuli/213_ya.png,l,6.358973702648655,ambig,0.0412,5.98245614,1.597891781,0.211645937
178,22,1,2,8,2,170,1122.8571736334125,1127.7974320509238,stimuli/118_xb.png,l,4.92828198056668,harmless,0.0412,6.474576271,0.953323265,0.124112118
178,22,1,2,8,3,171,1128.3639908959158,1132.613400029717,stimuli/174_xc.png,l,4.237704449915327,harmless,0.0412,6.533333333,1.111826512,0.143536185
178,22,1,2,8,4,172,1133.178658004268,1137.6133795498172,stimuli/149_xa.png,l,4.422760468558408,harmless,0.0412,6.721311475,0.933294301,0.11949609
178,22,1,2,8,5,173,1138.1878326268634,1145.8613365765195,stimuli/222_ya.png,l,7.661556263337843,ambig,0.0412,5.931034483,1.543089507,0.202617579
178,22,1,2,8,6,174,1146.429643306299,1149.1094117568573,stimuli/247_ya.png,a,2.6679054409032688,ambig,0.0412,4.65,2.081598147,0.268733165
178,22,1,2,8,7,175,1149.7129495103145,1154.9494038957637,stimuli/330_ya.png,a,5.22451654530596,ambig,0.0412,4.796610169,2.049219036,0.266785595
178,22,1,2,8,8,176,1155.5675111626042,1158.7812714030733,stimuli/119_xc.png,l,3.2019145600497723,harmless,0.0412,6.694915254,0.914523379,0.119060803
178,22,1,2,8,9,177,1159.380559173529,1163.9493093729252,stimuli/212_ya.png,l,4.5570230663288385,ambig,0.0412,5.677966102,1.490668422,0.194068498
178,22,1,2,8,10,178,1164.5698943195166,1166.429341620882,stimuli/229_za.png,a,1.8476205253973603,awful,0.0412,3.406779661,2.043649913,0.266060557
178,22,1,2,8,11,179,1167.0370352283353,1172.6773297614418,stimuli/194_xb.png,l,5.628247991669923,harmless,0.0412,6.586206897,1.026567825,0.134794959
178,22,1,2,8,12,180,1173.2528923003701,1176.7573094705585,stimuli/274_xb.png,l,3.4925454959739,harmless,0.0412,6.491525424,1.179901828,0.153610134
178,22,1,2,8,13,181,1177.3884427717421,1181.0612413447816,stimuli/122_xa.png,l,3.6606898040045053,harmless,0.0412,6.457627119,1.039264227,0.135300678
178,22,1,2,8,14,182,1181.6624751040945,1186.405259565683,stimuli/251_ya.png,a,4.731160515919328,ambig,0.0412,5.655172414,1.792300532,0.235340589
178,22,1,2,8,15,183,1186.9747194739757,1191.1412474415265,stimuli/171_xa.png,l,4.154567284276709,harmless,0.0412,6.465517241,1.046556882,0.137419651
178,22,1,2,8,16,184,1191.716511051869,1196.6452128713718,stimuli/278_xb.png,l,4.916900643496774,harmless,0.0412,6.360655738,1.140654591,0.146045855
178,22,1,2,8,17,185,1197.209501592908,1201.1492421041476,stimuli/156_xc.png,l,3.9277152373688295,harmless,0.0412,6.590163934,0.955284411,0.122311635
178,22,1,2,8,18,186,1201.780553423334,1204.4131711269729,stimuli/154_xc.png,l,2.620576675981283,harmless,0.0412,6.5,0.965506805,0.124646393
178,22,1,2,8,19,187,1205.0057174500544,1207.821212026989,stimuli/139_xa.png,l,2.803674102644436,harmless,0.0412,6.724137931,0.790138861,0.103750315
178,22,1,2,8,20,188,1208.4297681552125,1213.2052023793804,stimuli/336_ya.png,a,4.763780346256681,ambig,0.0412,5.033898305,1.884291705,0.245313885
178,22,1,2,8,21,189,1213.8192790349713,1217.7731562238187,stimuli/151_xa.png,l,3.942421021172777,harmless,0.0412,6.610169492,0.947172729,0.123311386
178,22,1,2,8,22,190,1218.3427795779426,1222.821154919453,stimuli/176_xb.png,l,4.466201194212772,harmless,0.0412,6.796610169,0.517942249,0.067430337
178,22,1,2,8,23,191,1223.3940629420104,1226.7011337620206,stimuli/155_xb.png,l,3.294969534035772,harmless,0.0412,6.655737705,0.892286312,0.114245555
178,22,1,2,8,24,192,1227.2989985699533,1235.9490982718999,stimuli/223_yb.png,a,8.638398956507444,ambig,0.0412,5.542372881,1.77455224,0.231027024
178,22,1,2,9,1,193,1244.576220260351,1247.7170710996725,stimuli/178_xa.png,l,3.129066204885021,harmless,0.0412,6.483333333,1.112207557,0.143585378
178,22,1,2,9,2,194,1248.3149871075293,1251.9571319251554,stimuli/220_yb.png,a,3.630095125408843,ambig,0.0412,4.75,2.096203186,0.270618668
178,22,1,2,9,3,195,1252.5625884921756,1256.853042591596,stimuli/283_yb.png,l,4.278822276974097,ambig,0.0412,5.949152542,1.478859402,0.192531095
178,22,1,2,9,4,196,1257.4186766882194,1262.325067967875,stimuli/275_yb.png,a,4.894516848493367,ambig,0.0412,4.836065574,2.138382004,0.27379176
178,22,1,2,9,5,197,1262.8793585365638,1265.8930848275777,stimuli/153_xb.png,l,3.0016202789265662,harmless,0.0412,6.633333333,0.973664521,0.125699549
178,22,1,2,9,6,198,1266.4674473203486,1269.7410507552559,stimuli/219_ya.png,a,3.2616541732568294,ambig,0.0412,5.271186441,1.998538332,0.260187529
178,22,1,2,9,7,199,1270.3168799272971,1275.1571138870204,stimuli/104_xc.png,l,4.828283122624271,harmless,0.0412,6.745762712,0.756425814,0.098478253
178,22,1,2,9,8,200,1275.7612333497964,1282.0129653821932,stimuli/169_xc.png,l,6.239855632069521,harmless,0.0412,6.603448276,0.916508538,0.120343467
178,22,1,2,9,9,201,1282.586795002455,1287.6529806791805,stimuli/207_yb.png,a,5.054367171600461,ambig,0.0412,5.655737705,1.662179753,0.212820309
178,22,1,2,9,10,202,1288.2202720761998,1292.8130480109248,stimuli/242_xb.png,l,4.580983817228116,harmless,0.0412,6.576271186,0.913564256,0.118935936
178,22,1,2,9,11,203,1293.371806359035,1297.3251294076908,stimuli/231_xb.png,l,3.941339128650725,harmless,0.0412,6.62295082,1.05141071,0.134619347
178,22,1,2,9,12,204,1297.9005438608583,1302.5089176387992,stimuli/280_xb.png,a,4.596930213388987,harmless,0.0412,6.333333333,1.068289726,0.137915611
178,22,1,2,9,13,205,1303.192312615458,1308.6769741192693,stimuli/352_zb.png,a,5.472899318556301,awful,0.0412,2.93442623,2.135952968,0.273480754
178,22,1,2,9,14,206,1309.2469523278996,1314.6529279039241,stimuli/193_xc.png,l,5.393193725729361,harmless,0.0412,6.482758621,1.012923151,0.133003326
178,22,1,2,9,15,207,1315.2901764387498,1320.6608847574098,stimuli/249_ya.png,a,5.3584384670248255,ambig,0.0412,5.327868852,1.859402337,0.238072074
178,22,1,2,9,16,208,1321.2630688650534,1326.1569354751846,stimuli/185_xa.png,l,4.882278504432179,harmless,0.0412,6.5,0.965506805,0.124646393
178,22,1,2,9,17,209,1326.7676998932147,1329.9570177100832,stimuli/158_xa.png,l,3.1775473608868197,harmless,0.0412,6.786885246,0.661179605,0.084655374
178,22,1,2,9,18,210,1330.5755845942767,1332.932900208747,stimuli/195_xc.png,l,2.345630228985101,harmless,0.0412,6.637640449,1.001766915,0.05309354
178,22,1,2,9,19,211,1333.5385588182835,1337.204842404928,stimuli/186_xa.png,l,3.6545446382369846,harmless,0.0412,6.65,0.879618561,0.113558268
178,22,1,2,9,20,212,1337.8124970216304,1342.6288679039571,stimuli/181_xa.png,l,4.804982456145808,harmless,0.0412,6.666666667,0.950765377,0.122743282
178,22,1,2,9,21,213,1343.233023994253,1348.380983344745,stimuli/187_xc.png,l,5.136275540338829,harmless,0.0412,6.224137931,1.185335891,0.155642228
178,22,1,2,9,22,214,1348.9896749557229,1354.5888516617706,stimuli/259_xc.png,l,5.587472415994853,harmless,0.0412,6.568965517,0.993170874,0.130409725
178,22,1,2,9,23,215,1355.196438537212,1361.948801706545,stimuli/288_yb.png,a,6.740886521874927,ambig,0.0412,5.189655172,1.914459262,0.251380817
178,22,1,2,9,24,216,1362.5439907305408,1370.9568668673746,stimuli/304_ya.png,a,8.401217926759273,ambig,0.0412,4.034482759,2.017167697,0.264867095
178,22,1,2,10,1,217,1379.5709817260504,1388.4527281456394,stimuli/312_yb.png,a,8.869862930034287,ambig,0.0412,4.677966102,2.112692986,0.275049199
178,22,1,2,10,2,218,1389.0438247247366,1397.5167086834554,stimuli/105_xa.png,l,8.459579475806095,harmless,0.0412,6.557377049,1.088187946,0.139328189
178,22,1,2,10,3,219,1398.1146404449828,1405.5087396207964,stimuli/204_xb.png,a,7.381829717895016,harmless,0.0412,6.508474576,0.858484658,0.111765183
178,22,1,2,10,4,220,1406.1229970513377,1410.67663856328,stimuli/241_yb.png,a,4.541840336052701,ambig,0.0412,5.508474576,1.442852555,0.187843403
178,22,1,2,10,5,221,1411.2504138328368,1414.5887031821767,stimuli/161_xc.png,l,3.3268906831508502,harmless,0.0412,6.796610169,0.609682252,0.079373868
178,22,1,2,10,6,222,1415.1666992901592,1418.524680896895,stimuli/114_xc.png,l,3.3467290570260957,harmless,0.0412,6.644067797,0.97843492,0.127381377
178,22,1,2,10,7,223,1419.1080502341501,1421.780641250778,stimuli/135_xa.png,l,2.660864671226591,harmless,0.0412,6.508474576,1.179901828,0.153610134
178,22,1,2,10,8,224,1422.342808328569,1425.8686904531205,stimuli/255_xb.png,l,3.513989576487802,harmless,0.0412,6.770491803,0.642740036,0.082294429
178,22,1,2,10,9,225,1426.507474590093,1431.468683600193,stimuli/340_za.png,a,4.949686282663606,awful,0.0412,2.508474576,1.832398855,0.238558011
178,22,1,2,10,10,226,1432.0728597765556,1437.988610786153,stimuli/177_xb.png,l,5.903915962902829,harmless,0.0412,6.482758621,1.063614811,0.139659467
178,22,1,2,10,11,227,1438.5861148318509,1441.82860253111,stimuli/112_xc.png,l,3.2302410843549296,harmless,0.0412,6.706896552,0.749470472,0.098410294
178,22,1,2,10,12,228,1442.4179043578915,1446.1245885795215,stimuli/244_xb.png,l,3.6945723018143326,harmless,0.0412,6.610169492,0.743174671,0.096753101
178,22,1,2,10,13,229,1446.7071194206364,1450.9405813706107,stimuli/183_xb.png,l,4.221776170656085,harmless,0.0412,6.448275862,1.095003225,0.143780967
178,22,1,2,10,14,230,1451.5347972032614,1456.1405330064008,stimuli/152_xa.png,l,4.5938093843869865,harmless,0.0412,6.576271186,0.968528743,0.126091702
178,22,1,2,10,15,231,1456.7376116995001,1461.572562620393,stimuli/281_ya.png,l,4.822998508461751,ambig,0.0412,5.881355932,1.543448286,0.200939852
178,22,1,2,10,16,232,1462.1885805388447,1468.9005135347834,stimuli/271_ya.png,l,6.7002598197432235,ambig,0.0412,5.711864407,1.771915459,0.230683744
178,22,1,2,10,17,233,1469.4840301701333,1474.9805117545184,stimuli/140_xb.png,l,5.48487890639808,harmless,0.0412,6.724137931,0.790138861,0.103750315
178,22,1,2,10,18,234,1475.5457886336371,1480.0444651169237,stimuli/319_ya.png,a,4.48691232886631,ambig,0.0412,4.216666667,2.108028774,0.272145344
178,22,1,2,10,19,235,1480.6621584525565,1484.460469959653,stimuli/162_xa.png,l,3.786654084571637,harmless,0.0412,6.644067797,0.905209289,0.117848212
178,22,1,2,10,20,236,1485.0516071048332,1490.7884630154585,stimuli/224_yb.png,a,5.724699880229309,ambig,0.0412,5.881355932,1.609077116,0.209483997
178,22,1,2,10,21,237,1491.40442106931,1498.4364729749504,stimuli/265_yb.png,a,7.020319652627222,ambig,0.0412,5.627118644,1.856008928,0.241631781
178,22,1,2,10,22,238,1499.0440425211564,1503.372415637481,stimuli/282_xc.png,l,4.317006745492108,harmless,0.0412,6.55,0.998728005,0.128935231
178,22,1,2,10,23,239,1504.004456751747,1507.9324264130555,stimuli/150_xc.png,l,3.9161613961914554,harmless,0.0412,6.482758621,1.030097582,0.135258439
178,22,1,2,10,24,240,1508.5354754045838,1513.3731978138676,stimuli/270_yb.png,l,4.825912568718195,ambig,0.0412,5.534482759,1.912246013,0.251090203
