id,age,condition,counterbalance,block,trialinblock,trial,tstart,tend,trialstim,response,RT,trialtype,ethicfreq,norm_mean,norm_sd,norm_se
003,76,0,1,0,0,practice,3.5446137189865112e-06,7.839937992976047,stimuli/prac_217_1.png,l,7.776216923841275,harmless,NA,NA,NA,NA
003,76,0,1,1,1,1,5.961613837513141,12.943783265189268,stimuli/225_ya.png,l,6.970332791679539,ambig,0.333,5.85,1.792876677,0.231459384
003,76,0,1,1,2,2,13.578447744250298,20.23175175441429,stimuli/355_zb.png,a,6.640921110403724,awful,0.333,3.183333333,2.070713188,0.267327923
003,76,0,1,1,3,3,20.874186019646004,29.0557902000146,stimuli/213_ya.png,l,8.169862067326903,ambig,0.333,5.98245614,1.597891781,0.211645937
003,76,0,1,1,4,4,29.69646003691014,34.60779987601563,stimuli/346_zb.png,a,4.899643018259667,awful,0.333,1.288135593,0.983499162,0.128040685
003,76,0,1,1,5,5,35.199450506595895,40.91177464474458,stimuli/256_zb.png,a,5.7005847819382325,awful,0.333,3.051724138,2.012438634,0.264246138
003,76,0,1,1,6,6,41.48923068563454,55.2558003612794,stimuli/319_ya.png,l,13.754625125904568,ambig,0.333,4.216666667,2.108028774,0.272145344
003,76,0,1,1,7,7,55.878160709515214,63.06380850286223,stimuli/340_za.png,a,7.173906467971392,awful,0.333,2.508474576,1.832398855,0.238558011
003,76,0,1,1,8,8,63.668127965182066,72.89576363912784,stimuli/245_yb.png,l,9.215886077843606,ambig,0.333,4.949152542,2.096168334,0.272897873
003,76,0,1,1,9,9,73.49778580002021,81.35172224754933,stimuli/261_yb.png,l,7.842563367797993,ambig,0.333,5.706896552,1.901141123,0.249632059
003,76,0,1,1,10,10,81.95234428730328,87.99969240662176,stimuli/269_za.png,a,6.035618609399535,awful,0.333,3.457627119,2.119873401,0.27598401
003,76,0,1,1,11,11,88.58404941030312,93.11969795194454,stimuli/150_xc.png,l,4.523452324559912,harmless,0.333,6.482758621,1.030097582,0.135258439
003,76,0,1,1,12,12,93.75021838746034,101.83171213360038,stimuli/289_yb.png,l,8.070147447986528,ambig,0.333,5.305084746,1.714584873,0.223219937
003,76,0,1,1,13,13,102.43908232403919,109.45572623948101,stimuli/349_za.png,a,7.005347241763957,awful,0.333,3.288135593,2.101320172,0.273568585
003,76,0,1,1,14,14,110.09741022880189,119.57566404342651,stimuli/274_xb.png,l,9.466084772953764,harmless,0.333,6.491525424,1.179901828,0.153610134
003,76,0,1,1,15,15,120.22177997743711,129.4636527763214,stimuli/370_za.png,a,9.230230328859761,awful,0.333,2.393442623,1.882185684,0.240989182
003,76,0,1,1,16,16,130.1027944921516,136.35969801491592,stimuli/178_xa.png,l,6.2452342711621895,harmless,0.333,6.483333333,1.112207557,0.143585378
003,76,0,1,1,17,17,136.97591634094715,144.5597235361347,stimuli/139_xa.png,l,7.572469955426641,harmless,0.333,6.724137931,0.790138861,0.103750315
003,76,0,1,1,18,18,145.1905456574168,159.59167307976168,stimuli/172_xb.png,l,14.389137186575681,harmless,0.333,6.482758621,1.127664553,0.14806961
003,76,0,1,1,19,19,160.20040833915118,168.87962739053182,stimuli/198_yb.png,l,8.667296163155697,ambig,0.333,5.101694915,1.83542643,0.238952168
003,76,0,1,1,20,20,169.51281416078564,177.19186504022218,stimuli/278_xb.png,l,7.667344606248662,harmless,0.333,6.360655738,1.140654591,0.146045855
003,76,0,1,1,21,21,177.83405551488977,184.34359288029373,stimuli/194_xb.png,l,6.497942944406532,harmless,0.333,6.586206897,1.026567825,0.134794959
003,76,0,1,1,22,22,184.98252703947946,189.839601255022,stimuli/299_za.png,a,4.845430170069449,awful,0.333,1.288135593,0.929420425,0.121000233
003,76,0,1,1,23,23,190.50100666936487,199.50356233352795,stimuli/166_xa.png,l,8.990858843317255,harmless,0.333,6.593220339,1.052397002,0.13701042
003,76,0,1,1,24,24,200.0812385341851,209.82355244015343,stimuli/247_ya.png,l,9.730964457034133,ambig,0.333,4.65,2.081598147,0.268733165
003,76,0,1,2,1,25,219.32344373874366,227.12753784272354,stimuli/302_za.png,a,7.792387436958961,awful,0.333,3.137931034,2.188071937,0.287307921
003,76,0,1,2,2,26,227.76845934684388,234.30350963701494,stimuli/240_xa.png,l,6.52339836768806,harmless,0.333,6.482758621,1.096107616,0.143925981
003,76,0,1,2,3,27,234.90439043333754,239.94347882259171,stimuli/254_ya.png,l,5.027705069514923,ambig,0.333,5.983606557,1.627798137,0.208418195
003,76,0,1,2,4,28,240.5319373344537,247.56752404232975,stimuli/229_za.png,a,7.023798121022992,awful,0.333,3.406779661,2.043649913,0.266060557
003,76,0,1,2,5,29,248.14321683649905,253.85547677776776,stimuli/160_xb.png,l,5.700401643756777,harmless,0.333,6.666666667,0.680644427,0.087870818
003,76,0,1,2,6,30,254.43395799875725,263.0395350101171,stimuli/362_zb.png,a,8.594106651726179,awful,0.333,1.474576271,1.222715071,0.159183944
003,76,0,1,2,7,31,263.681379294605,271.5354780064663,stimuli/233_yb.png,a,7.842052549938671,ambig,0.333,5.318309859,1.922973646,0.102060844
003,76,0,1,2,8,32,272.09937827533577,282.59943065675907,stimuli/330_ya.png,l,10.488526489585638,ambig,0.333,4.796610169,2.049219036,0.266785595
003,76,0,1,2,9,33,283.21512201731093,291.2314760624431,stimuli/323_yb.png,l,8.004644621280022,ambig,0.333,4.603448276,1.955107169,0.256718148
003,76,0,1,2,10,34,291.85405341966543,300.1914144807961,stimuli/328_za.png,l,8.325934812310152,awful,0.333,2.706896552,1.955725922,0.256799395
003,76,0,1,2,11,35,300.7566325570224,308.94344928418286,stimuli/342_yb.png,l,8.174930072738789,ambig,0.333,4.916666667,2.085394461,0.269223267
003,76,0,1,2,12,36,309.51729139778763,315.1193781492766,stimuli/364_za.png,a,5.59037102619186,awful,0.333,1.677966102,1.279017376,0.166513879
003,76,0,1,2,13,37,315.70735223114025,320.88741096144076,stimuli/102_xc.png,l,5.168711644364521,harmless,0.333,6.66011236,0.937292468,0.049676401
003,76,0,1,2,14,38,321.51010371535085,332.9033928224817,stimuli/307_za.png,a,11.381556052598171,awful,0.333,2.93220339,2.172432347,0.282826601
003,76,0,1,2,15,39,333.48213516315445,339.76734633918386,stimuli/283_yb.png,l,6.273443069192581,ambig,0.333,5.949152542,1.478859402,0.192531095
003,76,0,1,2,16,40,340.3676722070668,351.05535578832496,stimuli/357_za.png,l,10.675929259043187,awful,0.333,2.793103448,2.066937905,0.271402243
003,76,0,1,2,17,41,351.66763171972707,357.23935100552626,stimuli/187_xc.png,l,5.55985941295512,harmless,0.333,6.224137931,1.185335891,0.155642228
003,76,0,1,2,18,42,357.829502659617,363.42333558877,stimuli/202_yb.png,a,5.582133351359516,ambig,0.333,5.431034483,1.892849601,0.248543329
003,76,0,1,2,19,43,364.00970986974426,371.3753419565037,stimuli/193_xc.png,l,7.353777333861217,harmless,0.333,6.482758621,1.012923151,0.133003326
003,76,0,1,2,20,44,371.99659008474555,379.8873321922729,stimuli/188_xa.png,l,7.879114997456782,harmless,0.333,6.655172414,0.806807095,0.105938962
003,76,0,1,2,21,45,380.50745549739804,387.5832845621044,stimuli/345_zb.png,l,7.063412687974051,awful,0.333,3.694915254,2.191317013,0.285285176
003,76,0,1,2,22,46,388.16711420658976,393.51929882878903,stimuli/153_xb.png,l,5.340480712126009,harmless,0.333,6.633333333,0.973664521,0.125699549
003,76,0,1,2,23,47,394.12435123790056,401.6473100738367,stimuli/296_yb.png,l,7.511195061379112,ambig,0.333,4.229508197,2.052587332,0.262806878
003,76,0,1,2,24,48,402.24235171522014,408.99128104595,stimuli/180_xc.png,l,6.7370796978939325,harmless,0.333,6.672131148,0.723908638,0.092687003
003,76,0,1,3,1,49,418.02542076504324,422.7593524547992,stimuli/106_xc.png,l,4.722149010631256,harmless,0.333,6.661016949,0.863237081,0.112383896
003,76,0,1,3,2,50,423.417242403375,434.76724590861704,stimuli/309_ya.png,a,11.337981761898845,ambig,0.333,4.706896552,1.946734744,0.255618795
003,76,0,1,3,3,51,435.34587324631866,441.6712472224608,stimuli/232_yb.png,a,6.313520798576064,ambig,0.333,5.483333333,1.845669845,0.238274952
003,76,0,1,3,4,52,442.2490053429501,453.3192327414872,stimuli/183_xb.png,l,11.05854908854235,harmless,0.333,6.448275862,1.095003225,0.143780967
003,76,0,1,3,5,53,453.9095931338379,458.72724497911986,stimuli/109_xb.png,l,4.805802606162615,harmless,0.333,6.644067797,0.97843492,0.127381377
003,76,0,1,3,6,54,459.3164644007338,468.3672507922165,stimuli/343_zb.png,l,9.038997016963549,awful,0.333,3.103448276,2.141401862,0.28117984
003,76,0,1,3,7,55,468.9334467871813,475.7671990409726,stimuli/275_yb.png,l,6.8216304735979065,ambig,0.333,4.836065574,2.138382004,0.27379176
003,76,0,1,3,8,56,476.3818159906659,481.2871870995732,stimuli/201_yb.png,l,4.893521869904362,ambig,0.333,5.898305085,1.626238682,0.211718243
003,76,0,1,3,9,57,481.9062824676512,488.6071583015146,stimuli/312_yb.png,l,6.689235726837069,ambig,0.333,4.677966102,2.112692986,0.275049199
003,76,0,1,3,10,58,489.24259471788537,501.7351935711922,stimuli/365_zb.png,l,12.48053969454486,awful,0.333,2.966101695,2.165291266,0.281896912
003,76,0,1,3,11,59,502.29495964269154,506.46317622310016,stimuli/107_xa.png,l,4.156248006154783,harmless,0.333,6.813559322,0.540580029,0.070377525
003,76,0,1,3,12,60,507.0308345668018,515.9750924159307,stimuli/359_za.png,a,8.932235711952671,awful,0.333,2.01754386,1.641985167,0.217486248
003,76,0,1,3,13,61,516.5552195177879,521.6871006898582,stimuli/298_za.png,a,5.119859034777619,awful,0.333,2.881355932,2.026418156,0.263817173
003,76,0,1,3,14,62,522.2613366490696,529.7191227010917,stimuli/348_za.png,a,7.445868677692488,awful,0.333,3.084745763,2.119597681,0.275948114
003,76,0,1,3,15,63,530.3240037872456,535.5510979234241,stimuli/227_xa.png,l,5.21584629942663,harmless,0.333,6.180327869,1.05685377,0.135316259
003,76,0,1,3,16,64,536.1843004474649,542.7750932823401,stimuli/176_xb.png,l,6.578598980908282,harmless,0.333,6.796610169,0.517942249,0.067430337
003,76,0,1,3,17,65,543.3582730815979,550.6951071772492,stimuli/263_ya.png,l,7.324868672178127,ambig,0.333,4.983050847,2.071910042,0.269739712
003,76,0,1,3,18,66,551.2977681556949,556.4391224962892,stimuli/197_xa.png,l,5.129595292150043,harmless,0.333,6.779661017,0.55918033,0.072799078
003,76,0,1,3,19,67,557.0417247917503,562.8631634624908,stimuli/306_zb.png,a,5.809811166720465,awful,0.333,2.352112676,1.917055413,0.101746737
003,76,0,1,3,20,68,563.4435670439852,570.239080827334,stimuli/151_xa.png,l,6.783829171792604,harmless,0.333,6.610169492,0.947172729,0.123311386
003,76,0,1,3,21,69,570.7979871338466,578.6710715673398,stimuli/352_zb.png,l,7.861189902178012,awful,0.333,2.93442623,2.135952968,0.273480754
003,76,0,1,3,22,70,579.2337607608642,585.1910797120072,stimuli/318_za.png,a,5.945690659456886,awful,0.333,3.06557377,2.197489875,0.281359747
003,76,0,1,3,23,71,585.7579531213269,594.8550541814184,stimuli/284_ya.png,l,9.08511673193425,ambig,0.333,5.948275862,1.431750417,0.18799804
003,76,0,1,3,24,72,595.4703359424602,603.3509810300311,stimuli/267_ya.png,l,7.868643824127503,ambig,0.333,5.103448276,1.898195405,0.249245267
003,76,0,1,4,1,73,612.5068836336723,619.4230094846571,stimuli/177_xb.png,l,6.904237621231005,harmless,0.333,6.482758621,1.063614811,0.139659467
003,76,0,1,4,2,74,620.000850312761,628.7509899309371,stimuli/226_yb.png,l,8.738160804030485,ambig,0.333,5.683333333,1.712285287,0.22105508
003,76,0,1,4,3,75,629.3227962566307,636.0709969729651,stimuli/371_zb.png,a,6.736517286277376,awful,0.333,3.131147541,2.085468851,0.267016925
003,76,0,1,4,4,76,636.6776755704777,641.8310583498096,stimuli/317_za.png,a,5.140895904274657,awful,0.333,3.65,2.03215674,0.262350307
003,76,0,1,4,5,77,642.4003353989683,651.3029814900365,stimuli/121_xc.png,l,8.8905715723522,harmless,0.333,6.508474576,1.006408455,0.131023221
003,76,0,1,4,6,78,652.1385013229446,658.2869421276264,stimuli/258_ya.png,l,6.136235923040658,ambig,0.333,5.627118644,1.78014243,0.231754804
003,76,0,1,4,7,79,658.8732711162884,665.6310513393255,stimuli/156_xc.png,l,6.746081039193086,harmless,0.333,6.590163934,0.955284411,0.122311635
003,76,0,1,4,8,80,666.2418613773771,673.0389194294112,stimuli/286_ya.png,a,6.7849744748091325,ambig,0.333,5.06779661,1.779814082,0.231712057
003,76,0,1,4,9,81,673.6263815119164,684.6149339954136,stimuli/189_yb.png,l,10.976802099612541,ambig,0.333,5.983333333,1.455459234,0.187898979
003,76,0,1,4,10,82,685.1915759574622,691.8628704414004,stimuli/277_yb.png,l,6.659426734084263,ambig,0.333,5.491525424,2.02886822,0.264136144
003,76,0,1,4,11,83,692.4623956211144,698.0950042259647,stimuli/120_xa.png,l,5.620478160097264,harmless,0.333,6.440677966,1.054893138,0.137335389
003,76,0,1,4,12,84,698.6654825041769,699.2468230443774,stimuli/315_yb.png,l,0.5692152152769268,ambig,0.333,5.050847458,1.915667965,0.249398726
003,76,0,1,4,13,85,699.8257516741287,704.2548917594831,stimuli/190_xc.png,l,4.417160089593381,harmless,0.333,6.517241379,1.046990328,0.137476565
003,76,0,1,4,14,86,704.8651149674552,711.6228384769056,stimuli/262_ya.png,l,6.745846307254396,ambig,0.333,5.491525424,1.7750462,0.231091332
003,76,0,1,4,15,87,712.2311661059503,719.0628561842022,stimuli/334_za.png,a,6.8198912513908,awful,0.333,3.333333333,2.214487481,0.285889104
003,76,0,1,4,16,88,719.6540917014936,722.5908412778517,stimuli/199_za.png,l,2.9251772108254954,awful,0.333,3.033898305,2.189048775,0.284989876
003,76,0,1,4,17,89,723.2225475824671,730.438847198151,stimuli/104_xc.png,l,7.204509059549309,harmless,0.333,6.745762712,0.756425814,0.098478253
003,76,0,1,4,18,90,731.0533479633741,740.3748567387229,stimuli/303_zb.png,a,9.309978551231325,awful,0.333,3.620689655,2.158846233,0.283470398
003,76,0,1,4,19,91,740.9437202499248,746.0308188128984,stimuli/115_xb.png,l,5.074994899681769,harmless,0.333,6.440677966,1.021681954,0.133011661
003,76,0,1,4,20,92,746.6518357538152,752.2308230664348,stimuli/185_xa.png,l,5.567344842478633,harmless,0.333,6.5,0.965506805,0.124646393
003,76,0,1,4,21,93,752.8091920415172,758.9188134535216,stimuli/337_zb.png,a,6.098300713812932,awful,0.333,3.033333333,2.20143764,0.284204377
003,76,0,1,4,22,94,759.4873303805944,765.3748169603059,stimuli/215_yb.png,l,5.875692872912623,ambig,0.333,5.866666667,1.466769385,0.189359113
003,76,0,1,4,23,95,765.9427060974995,769.6387817410287,stimuli/316_za.png,a,3.684113764669746,awful,0.333,2.344827586,1.802062407,0.236622386
003,76,0,1,4,24,96,770.202240115148,776.4147915020585,stimuli/327_zb.png,a,6.200951058301143,awful,0.333,2.502808989,1.906990248,0.101070281
003,76,0,1,5,1,97,785.8887520056451,792.3667907805648,stimuli/273_ya.png,l,6.4662686988012865,ambig,0.333,5.551724138,1.836973233,0.241206403
003,76,0,1,5,2,98,793.163162753568,798.6067951759323,stimuli/203_yb.png,l,5.431846198625863,ambig,0.333,6,1.542501327,0.200816568
003,76,0,1,5,3,99,799.2076035046484,808.0387394420104,stimuli/149_xa.png,l,8.8198668329278,harmless,0.333,6.721311475,0.933294301,0.11949609
003,76,0,1,5,4,100,808.6606370216468,813.7989233048866,stimuli/169_xc.png,l,5.126931320410222,harmless,0.333,6.603448276,0.916508538,0.120343467
003,76,0,1,5,5,101,814.3998111904366,820.3827245924622,stimuli/294_za.png,a,5.97119098121766,awful,0.333,1.557377049,1.38473331,0.177296933
003,76,0,1,5,6,102,820.9739857097156,828.5986996793654,stimuli/354_zb.png,a,7.613046687212773,awful,0.333,2,1.701925887,0.221571878
003,76,0,1,5,7,103,829.1998404137557,836.4146780745359,stimuli/207_yb.png,l,7.202833640389144,ambig,0.333,5.655737705,1.662179753,0.212820309
003,76,0,1,5,8,104,836.9871334577911,844.1666900349082,stimuli/265_yb.png,l,7.167888113181107,ambig,0.333,5.627118644,1.856008928,0.241631781
003,76,0,1,5,9,105,844.742141007795,853.6147532203468,stimuli/332_zb.png,a,8.860848437994719,awful,0.333,2.694915254,2.002190501,0.260663001
003,76,0,1,5,10,106,854.1778854902368,861.7986889667809,stimuli/141_xc.png,l,7.608681696350686,harmless,0.333,6.508474576,1.040107444,0.135410455
003,76,0,1,5,11,107,862.4251315247966,868.0626482337248,stimuli/159_xa.png,l,5.625615482334979,harmless,0.333,6.389830508,1.174689235,0.152931512
003,76,0,1,5,12,108,868.6584496031282,877.5106487976154,stimuli/276_ya.png,l,8.840290484717116,ambig,0.333,5.186440678,1.804922162,0.234980851
003,76,0,1,5,13,109,878.0720276668435,886.2466060355073,stimuli/235_ya.png,l,8.162684625014663,ambig,0.333,5.694915254,1.567495667,0.204070554
003,76,0,1,5,14,110,886.8233614250785,891.9825892670779,stimuli/236_yb.png,l,5.147563710459508,ambig,0.333,5.93442623,1.49297078,0.19115532
003,76,0,1,5,15,111,892.6016598229762,899.6146512143314,stimuli/137_xa.png,l,7.001382792019285,harmless,0.333,6.355932203,1.094858074,0.14253838
003,76,0,1,5,16,112,900.2186185786268,909.4306422125082,stimuli/211_zb.png,l,9.200548941968009,awful,0.333,3.983333333,2.127237938,0.274625237
003,76,0,1,5,17,113,910.0033862845739,918.7746009753319,stimuli/326_zb.png,l,8.759417833178304,awful,0.333,3.389830508,2.220724867,0.289113752
003,76,0,1,5,18,114,919.3794552800246,925.5586113161407,stimuli/101_xa.png,l,6.167371781542897,harmless,0.333,6.508522727,1.13475832,0.060482822
003,76,0,1,5,19,115,926.1769516823115,931.2225794839906,stimuli/144_xa.png,l,5.03431773732882,harmless,0.333,6.542372881,1.00553698,0.130909764
003,76,0,1,5,20,116,931.8454577391967,937.486556867836,stimuli/304_ya.png,a,5.629410578520037,ambig,0.333,4.034482759,2.017167697,0.264867095
003,76,0,1,5,21,117,938.0461015980691,944.4945720197866,stimuli/103_xb.png,l,6.436559742782265,harmless,0.333,6.779661017,0.589207434,0.076708274
003,76,0,1,5,22,118,945.1384977783309,950.8465384516167,stimuli/291_za.png,a,5.696434436948039,awful,0.333,2.593220339,1.830005126,0.238246374
003,76,0,1,5,23,119,951.4542831892613,956.8865389871644,stimuli/293_zb.png,a,5.420155285391957,awful,0.333,3.677966102,2.169066842,0.28238845
003,76,0,1,5,24,120,957.4917713836767,963.510514890193,stimuli/363_zb.png,a,6.006902144406922,awful,0.333,2.433333333,2.019956927,0.260775318
003,76,0,1,6,1,121,972.476546493941,977.2785146192182,stimuli/313_zb.png,a,4.790187809267081,awful,0.333,2.101694915,1.688652955,0.219843889
003,76,0,1,6,2,122,977.8629555120133,986.2624760443578,stimuli/338_zb.png,l,8.38793832063675,awful,0.333,3.310344828,2.137443107,0.28066003
003,76,0,1,6,3,123,986.854101862642,994.0385657560546,stimuli/324_za.png,a,7.172839934006333,awful,0.333,2.491525424,1.994586478,0.259673041
003,76,0,1,6,4,124,994.6051177874906,999.7664365558885,stimuli/116_xa.png,l,5.14940257568378,harmless,0.333,6.63559322,0.958030802,0.050918763
003,76,0,1,6,5,125,1000.4292476052651,1006.7024677578593,stimuli/253_ya.png,l,6.261375245871022,ambig,0.333,5.491803279,1.849531029,0.236808182
003,76,0,1,6,6,126,1007.271375379758,1013.9184337863699,stimuli/186_xa.png,l,6.635276515153237,harmless,0.333,6.65,0.879618561,0.113558268
003,76,0,1,6,7,127,1014.5499392296188,1025.118448673631,stimuli/341_zb.png,a,10.557002456742339,awful,0.333,3.603448276,2.15975677,0.283589957
003,76,0,1,6,8,128,1025.7115927668056,1031.6784955570474,stimuli/128_xc.png,l,5.9550389788346365,harmless,0.333,6.627118644,0.98082135,0.127692063
003,76,0,1,6,9,129,1032.2481510918587,1036.7344917383743,stimuli/117_xc.png,l,4.474344109301455,harmless,0.333,6.627118644,0.868972939,0.113130641
003,76,0,1,6,10,130,1037.37236920977,1042.8703873787308,stimuli/373_zb.png,a,5.486070468439721,awful,0.333,2.327586207,1.858011869,0.243968911
003,76,0,1,6,11,131,1043.5050357100554,1052.302406869363,stimuli/279_ya.png,l,8.785809033783153,ambig,0.333,5.31147541,1.970964092,0.252356093
003,76,0,1,6,12,132,1052.9354424028425,1061.8703972247895,stimuli/347_zb.png,a,8.923278874950483,awful,0.333,3.796610169,2.147810923,0.279621165
003,76,0,1,6,13,133,1062.4482443544548,1069.3583809952252,stimuli/224_yb.png,l,6.898127500433475,ambig,0.333,5.881355932,1.609077116,0.209483997
003,76,0,1,6,14,134,1069.9366136997705,1079.8223559372127,stimuli/335_yb.png,a,9.874147422728129,ambig,0.333,5.016949153,2.046793332,0.266469795
003,76,0,1,6,15,135,1080.4316504573217,1089.3263085717335,stimuli/230_yb.png,l,8.882993195089512,ambig,0.333,4.98245614,1.875511626,0.248417583
003,76,0,1,6,16,136,1089.9369815514656,1097.2303114610258,stimuli/218_yb.png,l,7.281467673601583,ambig,0.333,5.850282486,1.552723069,0.0825263
003,76,0,1,6,17,137,1097.8090266264044,1105.6543075288646,stimuli/212_ya.png,l,7.833453718805686,ambig,0.333,5.677966102,1.490668422,0.194068498
003,76,0,1,6,18,138,1106.2614209320163,1115.0942870331928,stimuli/118_xb.png,l,8.821166523499414,harmless,0.333,6.474576271,0.953323265,0.124112118
003,76,0,1,6,19,139,1115.71626810811,1122.1902711469447,stimuli/145_xa.png,l,6.462396802613512,harmless,0.333,6.661016949,0.822321556,0.107057148
003,76,0,1,6,20,140,1122.8312300664838,1131.3823102668393,stimuli/248_zb.png,a,8.539286493556574,awful,0.333,3.288135593,1.991800844,0.259310383
003,76,0,1,6,21,141,1132.0248709565494,1138.5262403576635,stimuli/222_ya.png,l,6.4894599036779255,ambig,0.333,5.931034483,1.543089507,0.202617579
003,76,0,1,6,22,142,1139.182411170099,1148.2862769223284,stimuli/259_xc.png,l,9.091831799596548,harmless,0.333,6.568965517,0.993170874,0.130409725
003,76,0,1,6,23,143,1148.8645100205904,1153.6623786069686,stimuli/138_xc.png,l,4.78641594981309,harmless,0.333,6.661016949,0.70978796,0.092406522
003,76,0,1,6,24,144,1154.253424290684,1160.2063443801599,stimuli/366_za.png,a,5.94137529307045,awful,0.333,3.689655172,2.036568291,0.267414518
003,76,0,1,7,1,145,1190.3508065564092,1199.7421705462039,stimuli/266_zb.png,a,9.37960415368434,awful,0.333,3.491525424,1.888010094,0.245797978
003,76,0,1,7,2,146,1200.3108331961557,1209.8301804679213,stimuli/339_ya.png,l,9.507503152708523,ambig,0.333,4.949152542,1.960152429,0.25519011
003,76,0,1,7,3,147,1210.4202824976528,1216.094208657858,stimuli/251_ya.png,l,5.662141905748285,ambig,0.333,5.655172414,1.792300532,0.235340589
003,76,0,1,7,4,148,1216.6645286101848,1221.3341846963158,stimuli/314_zb.png,a,4.657644976512529,awful,0.333,1.833333333,1.451669602,0.18740974
003,76,0,1,7,5,149,1221.906922072987,1229.1341249105753,stimuli/308_zb.png,a,7.21536068781279,awful,0.333,1.644067797,1.471132708,0.191525165
003,76,0,1,7,6,150,1229.735959994723,1234.42214223661,stimuli/260_ya.png,l,4.674479907145724,ambig,0.333,4.966101695,2.016877936,0.262575142
003,76,0,1,7,7,151,1235.004108203575,1240.686119620339,stimuli/257_yb.png,l,5.6694359263638034,ambig,0.333,5.620689655,1.843219782,0.242026615
003,76,0,1,7,8,152,1241.3356064789696,1246.3981007189723,stimuli/127_xb.png,l,5.050502035068348,harmless,0.333,6.423728814,1.162686987,0.151368953
003,76,0,1,7,9,153,1246.9985727035673,1252.3981314388802,stimuli/231_xb.png,l,5.3875834656646475,harmless,0.333,6.62295082,1.05141071,0.134619347
003,76,0,1,7,10,154,1252.9882196839899,1257.3980857528513,stimuli/132_xc.png,l,4.398241321789101,harmless,0.333,6.627118644,0.692280217,0.090127208
003,76,0,1,7,11,155,1257.9922124907607,1262.9822804922005,stimuli/105_xa.png,l,4.978233334724791,harmless,0.333,6.557377049,1.088187946,0.139328189
003,76,0,1,7,12,156,1263.581788342679,1275.0940786887659,stimuli/305_zb.png,a,11.49992910772562,awful,0.333,2.75,2.12830003,0.274762352
003,76,0,1,7,13,157,1275.649124520598,1279.5821077515138,stimuli/320_za.png,a,3.9209618812892586,awful,0.333,1.423728814,1.117314975,0.14546202
003,76,0,1,7,14,158,1280.1478094700724,1288.838073527906,stimuli/228_ya.png,l,8.678206080570817,ambig,0.333,5.442622951,1.793735303,0.229664272
003,76,0,1,7,15,159,1289.4286072122632,1295.15002997173,stimuli/356_za.png,a,5.709516412811354,awful,0.333,3.033333333,2.178217796,0.281206708
003,76,0,1,7,16,160,1295.7534211399034,1303.1340725290356,stimuli/154_xc.png,l,7.369115257286467,harmless,0.333,6.5,0.965506805,0.124646393
003,76,0,1,7,17,161,1303.7044933058787,1310.4700011736713,stimuli/162_xa.png,l,6.753781508654356,harmless,0.333,6.644067797,0.905209289,0.117848212
003,76,0,1,7,18,162,1311.1276875040494,1318.2940167762572,stimuli/181_xa.png,l,7.1541405383031815,harmless,0.333,6.666666667,0.950765377,0.122743282
003,76,0,1,7,19,163,1318.950506209745,1332.5580363015179,stimuli/333_za.png,a,13.595761197153479,awful,0.333,3.266666667,2.185209657,0.282109354
003,76,0,1,7,20,164,1333.159108900698,1339.0859800415346,stimuli/182_xb.png,l,5.9150746770901605,harmless,0.333,6.542372881,0.988241802,0.128658124
003,76,0,1,7,21,165,1339.7281075009378,1345.5740098918322,stimuli/351_zb.png,l,5.833766432246193,awful,0.333,3.06779661,2.033040926,0.264679384
003,76,0,1,7,22,166,1346.1442526504397,1354.638001139043,stimuli/210_yb.png,l,8.481824812712148,ambig,0.333,5.557377049,1.76564049,0.226067099
003,76,0,1,7,23,167,1355.2395845559658,1361.861972079496,stimuli/173_yb.png,l,6.610635958262719,ambig,0.333,5.796610169,1.242628763,0.161776485
003,76,0,1,7,24,168,1362.4655676536495,1369.8859588525956,stimuli/285_yb.png,a,7.408418686245568,ambig,0.333,4.120689655,2.119893958,0.278355714
003,76,0,1,8,1,169,1380.7445978167234,1386.621929874993,stimuli/158_xa.png,l,5.865956221707165,harmless,0.333,6.786885246,0.661179605,0.084655374
003,76,0,1,8,2,170,1387.2593827809906,1391.4698865646496,stimuli/250_yb.png,l,4.198784513748251,ambig,0.333,5.950819672,1.585625318,0.203018519
003,76,0,1,8,3,171,1392.0826390491566,1400.7419220296433,stimuli/325_yb.png,a,8.647133631049655,ambig,0.333,5.131147541,1.811770863,0.231973488
003,76,0,1,8,4,172,1401.3089124110993,1413.5739516026806,stimuli/311_za.png,l,12.253430592129007,awful,0.333,3.116666667,1.975199339,0.254997138
003,76,0,1,8,5,173,1414.1461021493888,1420.6858813437866,stimuli/271_ya.png,l,6.528378939372487,ambig,0.333,5.711864407,1.771915459,0.230683744
003,76,0,1,8,6,174,1421.3407075672876,1426.5738866181346,stimuli/372_zb.png,a,5.221468051546253,awful,0.333,2.796610169,2.082601664,0.271131643
003,76,0,1,8,7,175,1427.2087310845964,1433.2138510775985,stimuli/290_zb.png,a,5.993053351179697,awful,0.333,2.586206897,2.026443456,0.266085062
003,76,0,1,8,8,176,1433.8186470931396,1439.4458340193378,stimuli/119_xc.png,l,5.615347927203402,harmless,0.333,6.694915254,0.914523379,0.119060803
003,76,0,1,8,9,177,1440.0585010393988,1447.7980013123015,stimuli/268_zb.png,a,7.727860953542404,awful,0.333,2.655737705,2.048456703,0.262278005
003,76,0,1,8,10,178,1448.3629633889068,1453.9898592632962,stimuli/175_xb.png,l,5.615016703028232,harmless,0.333,6.6,1.028409995,0.13276716
003,76,0,1,8,11,179,1454.6085131304571,1463.3979010392213,stimuli/329_zb.png,a,8.777525278972462,awful,0.333,2.406779661,1.992387617,0.259386774
003,76,0,1,8,12,180,1463.9522292843321,1468.7178289182484,stimuli/282_xc.png,l,4.753639330388978,harmless,0.333,6.55,0.998728005,0.128935231
003,76,0,1,8,13,181,1469.3210838158848,1473.1578797085676,stimuli/297_za.png,a,3.8249486228451133,awful,0.333,1.898305085,1.446695584,0.188343723
003,76,0,1,8,14,182,1473.7231159016956,1481.2218213311862,stimuli/223_yb.png,l,7.486819562735036,ambig,0.333,5.542372881,1.77455224,0.231027024
003,76,0,1,8,15,183,1481.7949883934343,1489.2297837078804,stimuli/336_ya.png,l,7.4229771891841665,ambig,0.333,5.033898305,1.884291705,0.245313885
003,76,0,1,8,16,184,1489.8260958951432,1501.2857696491992,stimuli/219_ya.png,l,11.44837944349274,ambig,0.333,5.271186441,1.998538332,0.260187529
003,76,0,1,8,17,185,1501.852196437656,1509.413816734217,stimuli/361_za.png,a,7.549698983784765,awful,0.333,2.416666667,1.907093508,0.246204713
003,76,0,1,8,18,186,1510.0106491914485,1515.3737496386748,stimuli/322_za.png,a,5.3514138663886115,awful,0.333,2.406779661,1.975004531,0.257123689
003,76,0,1,8,19,187,1515.9827247499488,1526.3417402304476,stimuli/288_yb.png,l,10.34733992733527,ambig,0.333,5.189655172,1.914459262,0.251380817
003,76,0,1,8,20,188,1526.9038548032986,1539.853871856816,stimuli/209_ya.png,a,12.93818553746678,ambig,0.333,5.603448276,1.825161903,0.239655499
003,76,0,1,8,21,189,1540.4583181374473,1546.821706091985,stimuli/174_xc.png,l,6.351640327600762,harmless,0.333,6.533333333,1.111826512,0.143536185
003,76,0,1,8,22,190,1547.411325660767,1555.2776839988073,stimuli/130_xc.png,l,7.854214896331541,harmless,0.333,6.644067797,0.960651931,0.125066229
003,76,0,1,8,23,191,1555.9206184479408,1563.0936679078732,stimuli/157_xc.png,l,7.16140226367861,harmless,0.333,6.603448276,0.877389573,0.115206895
003,76,0,1,8,24,192,1563.7396329989424,1568.4696482879808,stimuli/111_xa.png,l,4.717962431837805,harmless,0.333,6.590163934,0.863655973,0.110579816
003,76,0,1,9,1,193,1578.6299186394317,1585.5976500808029,stimuli/214_xb.png,l,6.956102755852044,harmless,0.333,6.465517241,0.940614156,0.12350869
003,76,0,1,9,2,194,1586.254976830096,1592.1416505124653,stimuli/353_zb.png,a,5.875595593010075,awful,0.333,1.949152542,1.623361018,0.211343603
003,76,0,1,9,3,195,1592.7562446191441,1597.8936805896228,stimuli/321_zb.png,a,5.125912047922611,awful,0.333,2.918032787,2.177881861,0.278849198
003,76,0,1,9,4,196,1598.502178360126,1603.4296170324087,stimuli/191_ya.png,l,4.915628817863762,ambig,0.333,5.517241379,2.062542966,0.270825159
003,76,0,1,9,5,197,1604.00576550595,1610.9976325940806,stimuli/281_ya.png,l,6.979967436869629,ambig,0.333,5.881355932,1.543448286,0.200939852
003,76,0,1,9,6,198,1611.6128730013734,1616.4456686041085,stimuli/310_zb.png,a,4.821203544852324,awful,0.333,3.224137931,2.102989547,0.276136056
003,76,0,1,9,7,199,1617.0877188699087,1626.6856005318696,stimuli/344_za.png,a,9.586458170088008,awful,0.333,2.711864407,2.043077863,0.265986082
003,76,0,1,9,8,200,1627.2798855957808,1631.3735869803932,stimuli/292_zb.png,a,4.081995899206959,awful,0.333,2.396551724,1.955107169,0.256718148
003,76,0,1,9,9,201,1631.9926717147464,1637.0295399962924,stimuli/264_xa.png,l,5.025147830019705,harmless,0.333,6.533333333,0.947193297,0.122282129
003,76,0,1,9,10,202,1637.6439710508566,1643.17355830851,stimuli/243_ya.png,l,5.517788037075661,ambig,0.333,5.830508475,1.652088985,0.215083666
003,76,0,1,9,11,203,1643.7410579323769,1649.2295643358957,stimuli/165_xb.png,l,5.476563429227099,harmless,0.333,6.557377049,1.008705278,0.129151477
003,76,0,1,9,12,204,1649.793038069969,1659.5577590342145,stimuli/350_ya.png,l,9.752891023643315,ambig,0.333,4.915254237,2.02814792,0.264042369
003,76,0,1,9,13,205,1660.1254232856445,1665.4535482733045,stimuli/360_za.png,a,5.316310800961219,awful,0.333,3.2,2.207844259,0.285031468
003,76,0,1,9,14,206,1666.0209793680115,1675.4055711824913,stimuli/200_ya.png,l,9.372825676808134,ambig,0.333,5.862068966,1.444266048,0.189641423
003,76,0,1,9,15,207,1676.0222633046797,1681.0295151839964,stimuli/148_xc.png,l,4.995543636963703,harmless,0.333,6.491525424,1.135218061,0.147792803
003,76,0,1,9,16,208,1681.6837553652003,1692.0774717947934,stimuli/239_ya.png,l,10.381682476960123,ambig,0.333,5.157894737,1.925296579,0.255011762
003,76,0,1,9,17,209,1692.6713968837867,1704.3575342271943,stimuli/300_za.png,a,11.674480694928207,awful,0.333,3.75,2.12032137,0.273732312
003,76,0,1,9,18,210,1704.9721854414092,1712.373489306774,stimuli/170_xc.png,l,7.389445174019784,harmless,0.333,6.583333333,1.062323432,0.137145365
003,76,0,1,9,19,211,1712.982358867419,1717.4374833108159,stimuli/114_xc.png,l,4.443121210671961,harmless,0.333,6.644067797,0.97843492,0.127381377
003,76,0,1,9,20,212,1718.007725281641,1723.3334233927308,stimuli/124_xa.png,l,5.314040280994959,harmless,0.333,6.344262295,1.181598436,0.151288177
003,76,0,1,9,21,213,1723.9532682490535,1727.2454457662534,stimuli/112_xc.png,l,3.280349939595908,harmless,0.333,6.706896552,0.749470472,0.098410294
003,76,0,1,9,22,214,1727.8529171750415,1734.7414730456658,stimuli/217_yb.png,l,6.876705056172796,ambig,0.333,5.169491525,2.001314588,0.260548967
003,76,0,1,9,23,215,1735.3040531439474,1742.0294608332915,stimuli/331_za.png,a,6.713607287150808,awful,0.333,1.983606557,1.638004917,0.209725039
003,76,0,1,9,24,216,1742.621659303084,1749.093448141939,stimuli/287_ya.png,l,6.46021371637471,ambig,0.333,5.950819672,1.407435369,0.180203633
003,76,0,1,10,1,217,1758.6971492667217,1770.3254310837947,stimuli/147_ya.png,a,11.616587753174827,ambig,0.333,5.883333333,1.766847875,0.22809908
003,76,0,1,10,2,218,1770.9106628185837,1778.3334466295782,stimuli/249_ya.png,l,7.410886916681193,ambig,0.333,5.327868852,1.859402337,0.238072074
003,76,0,1,10,3,219,1778.904839417315,1784.189379086718,stimuli/238_xb.png,l,5.272731390199624,harmless,0.333,6.4,1.076718178,0.139003719
003,76,0,1,10,4,220,1784.8075686099473,1791.7173496080795,stimuli/272_xb.png,l,6.897987291333266,harmless,0.333,6.355932203,1.029943284,0.134087194
003,76,0,1,10,5,221,1792.2741326929536,1797.7253635786474,stimuli/241_yb.png,l,5.43944111734163,ambig,0.333,5.508474576,1.442852555,0.187843403
003,76,0,1,10,6,222,1798.3200247650966,1810.5093357163714,stimuli/368_za.png,l,12.177649970515631,awful,0.333,3.590163934,2.02794682,0.259651984
003,76,0,1,10,7,223,1811.1716312218923,1819.7333424967946,stimuli/358_za.png,a,8.549338221200742,awful,0.333,3.949152542,2.112554662,0.275031191
003,76,0,1,10,8,224,1820.3004297643201,1824.8213287878316,stimuli/295_za.png,l,4.508616948034614,awful,0.333,2.3,1.825432384,0.235662307
003,76,0,1,10,9,225,1825.437419113936,1835.9012798407348,stimuli/205_yb.png,a,10.45249079784844,ambig,0.333,5.847457627,1.52918233,0.199082582
003,76,0,1,10,10,226,1836.4763641434256,1841.381310686702,stimuli/133_xa.png,l,4.89310596883297,harmless,0.333,6.568965517,1.186356193,0.1557762
003,76,0,1,10,11,227,1842.033056249842,1849.013291501673,stimuli/301_za.png,l,6.968594750971533,awful,0.333,3.610169492,2.212947396,0.288101212
003,76,0,1,10,12,228,1849.6228376891231,1854.2772755809128,stimuli/122_xa.png,l,4.642769427853636,harmless,0.333,6.457627119,1.039264227,0.135300678
003,76,0,1,10,13,229,1854.8475207025185,1858.3092684475705,stimuli/252_zb.png,a,3.449779170798138,awful,0.333,2.711864407,1.983125776,0.258180985
003,76,0,1,10,14,230,1858.9385207002051,1864.1413074729498,stimuli/369_za.png,a,5.190821349271573,awful,0.333,2.948275862,2.055565093,0.26990892
003,76,0,1,10,15,231,1864.7746301199077,1871.925239438424,stimuli/246_ya.png,l,7.1390794882318005,ambig,0.333,5.542372881,1.715266481,0.223308675
003,76,0,1,10,16,232,1872.5450803562999,1878.6852358308388,stimuli/168_xa.png,l,6.128834382398054,harmless,0.333,6.474576271,1.164946827,0.151663159
003,76,0,1,10,17,233,1879.2877573879668,1885.7731953404145,stimuli/220_yb.png,l,6.47404518048279,ambig,0.333,4.75,2.096203186,0.270618668
003,76,0,1,10,18,234,1886.3398450454697,1891.3732116455212,stimuli/164_xb.png,l,5.021447256556712,harmless,0.333,6.830508475,0.460604639,0.059965616
003,76,0,1,10,19,235,1891.9856770166662,1903.149631006061,stimuli/367_zb.png,a,11.152162251761183,awful,0.333,3.413793103,2.086165649,0.27392697
003,76,0,1,10,20,236,1903.739185196464,1909.7331908663036,stimuli/108_xb.png,l,5.982334055122919,harmless,0.333,6.568965517,1.077880782,0.141532681
003,76,0,1,10,21,237,1910.3459362615831,1916.0531947574345,stimuli/242_xb.png,l,5.695518745807931,harmless,0.333,6.576271186,0.913564256,0.118935936
003,76,0,1,10,22,238,1916.6193273431854,1922.4691559809726,stimuli/270_yb.png,l,5.837817528168671,ambig,0.333,5.534482759,1.912246013,0.251090203
003,76,0,1,10,23,239,1923.0838414598256,1931.4451526664197,stimuli/237_ya.png,l,8.349638804211281,ambig,0.333,4.305084746,2.019339575,0.26289562
003,76,0,1,10,24,240,1932.1188133746618,1936.0291611168068,stimuli/192_za.png,a,3.898264164919965,awful,0.333,2.68852459,2.093967396,0.268105052
