id,age,condition,counterbalance,block,trialinblock,trial,tstart,tend,trialstim,response,RT,trialtype,ethicfreq,norm_mean,norm_sd,norm_se
69,66,1,1,0,0,practice,3.5446137189865112e-06,13.359612519387156,stimuli/prac_217_1.png,l,13.345100113423541,harmless,NA,NA,NA,NA
69,66,1,1,1,1,1,4.389725131448358,17.50370273506269,stimuli/171_xa.png,l,13.102447393117473,harmless,0.333,6.465517241,1.046556882,0.137419651
69,66,1,1,1,2,2,18.095984788029455,40.73563105217181,stimuli/352_zb.png,l,22.62773953762371,awful,0.333,2.93442623,2.135952968,0.273480754
69,66,1,1,1,3,3,41.371373916976154,49.31970419071149,stimuli/235_ya.png,l,7.936572420760058,ambig,0.333,5.694915254,1.567495667,0.204070554
69,66,1,1,1,4,4,49.88324263726827,70.83158196951263,stimuli/302_za.png,a,20.936432605725713,awful,0.333,3.137931034,2.188071937,0.287307921
69,66,1,1,1,5,5,71.4109789847862,77.97549219802022,stimuli/230_yb.png,l,6.552665169700049,ambig,0.333,4.98245614,1.875511626,0.248417583
69,66,1,1,1,6,6,78.60390718013514,84.95159997616429,stimuli/338_zb.png,l,6.336009379825555,awful,0.333,3.310344828,2.137443107,0.28066003
69,66,1,1,1,7,7,85.57684883708134,99.75144078396261,stimuli/306_zb.png,l,14.162859693868086,awful,0.333,2.352112676,1.917055413,0.101746737
69,66,1,1,1,8,8,100.36986430850811,106.35953571950085,stimuli/116_xa.png,l,5.977976967114955,harmless,0.333,6.63559322,0.958030802,0.050918763
69,66,1,1,1,9,9,107.02996334480122,116.88747056492139,stimuli/360_za.png,l,9.845755274873227,awful,0.333,3.2,2.207844259,0.285031468
69,66,1,1,1,10,10,117.47070205654018,123.27144043741282,stimuli/164_xb.png,l,5.7889809218468145,harmless,0.333,6.830508475,0.460604639,0.059965616
69,66,1,1,1,11,11,123.83532074152026,136.63144404499326,stimuli/137_xa.png,l,12.784495025523938,harmless,0.333,6.355932203,1.094858074,0.14253838
69,66,1,1,1,12,12,137.20256085984875,142.91937792941462,stimuli/256_zb.png,l,5.704924127669074,awful,0.333,3.051724138,2.012438634,0.264246138
69,66,1,1,1,13,13,143.52736534527503,149.48736446304247,stimuli/186_xa.png,l,5.94845945504494,harmless,0.333,6.65,0.879618561,0.113558268
69,66,1,1,1,14,14,150.10299444396514,158.41538808122277,stimuli/257_yb.png,l,8.300841371412389,ambig,0.333,5.620689655,1.843219782,0.242026615
69,66,1,1,1,15,15,158.99015072057955,168.7113134774845,stimuli/228_ya.png,l,9.70960103883408,ambig,0.333,5.442622951,1.793735303,0.229664272
69,66,1,1,1,16,16,169.33864696067758,182.1512491388712,stimuli/362_zb.png,l,12.80086480511818,awful,0.333,1.474576271,1.222715071,0.159183944
69,66,1,1,1,17,17,182.71794149745256,188.58326575602405,stimuli/202_yb.png,l,5.853690466843545,ambig,0.333,5.431034483,1.892849601,0.248543329
69,66,1,1,1,18,18,189.1744363780599,196.43123562214896,stimuli/216_xa.png,l,7.245078412583098,harmless,0.333,6.603448276,0.877389573,0.115206895
69,66,1,1,1,19,19,196.98486098635476,203.40717680368107,stimuli/335_yb.png,a,6.410428389208391,ambig,0.333,5.016949153,2.046793332,0.266469795
69,66,1,1,1,20,20,204.17682032263838,212.15121093590278,stimuli/189_yb.png,l,7.962299961131066,ambig,0.333,5.983333333,1.455459234,0.187898979
69,66,1,1,1,21,21,212.74105272442102,219.69518354954198,stimuli/156_xc.png,l,6.942499790340662,harmless,0.333,6.590163934,0.955284411,0.122311635
69,66,1,1,1,22,22,220.2986047246959,238.91117374121677,stimuli/311_za.png,l,18.600812345044687,awful,0.333,3.116666667,1.975199339,0.254997138
69,66,1,1,1,23,23,239.49070151301567,245.479142157943,stimuli/105_xa.png,l,5.976983689703047,harmless,0.333,6.557377049,1.088187946,0.139328189
69,66,1,1,1,24,24,246.09524120844435,251.45517077320255,stimuli/270_yb.png,l,5.3481516257161275,ambig,0.333,5.534482759,1.912246013,0.251090203
69,66,1,1,2,1,25,265.61065414128825,272.07104415039066,stimuli/351_zb.png,l,6.449124068720266,awful,0.333,3.06779661,2.033040926,0.264679384
69,66,1,1,2,2,26,272.67181002162397,278.8549996081274,stimuli/185_xa.png,l,6.171330909128301,harmless,0.333,6.5,0.965506805,0.124646393
69,66,1,1,2,3,27,279.4712542273337,283.19907454261556,stimuli/178_xa.png,l,3.7159470656188205,harmless,0.333,6.483333333,1.112207557,0.143585378
69,66,1,1,2,4,28,283.8125383752631,289.73506549047306,stimuli/158_xa.png,l,5.910301768104546,harmless,0.333,6.786885246,0.661179605,0.084655374
69,66,1,1,2,5,29,290.30833585059736,297.4389648331562,stimuli/331_za.png,l,7.118719893041998,awful,0.333,1.983606557,1.638004917,0.209725039
69,66,1,1,2,6,30,298.1978922195267,304.45498921058606,stimuli/284_ya.png,l,6.245146153960377,ambig,0.333,5.948275862,1.431750417,0.18799804
69,66,1,1,2,7,31,305.0235877796076,313.1109201837098,stimuli/246_ya.png,l,8.07559069886338,ambig,0.333,5.542372881,1.715266481,0.223308675
69,66,1,1,2,8,32,313.6973997161258,321.92687162104994,stimuli/276_ya.png,l,8.217676242813468,ambig,0.333,5.186440678,1.804922162,0.234980851
69,66,1,1,2,9,33,322.55137453915086,330.53491929522716,stimuli/332_zb.png,l,7.971540749887936,awful,0.333,2.694915254,2.002190501,0.260663001
69,66,1,1,2,10,34,331.14378616726026,335.56700822222047,stimuli/150_xc.png,l,4.411515008076094,harmless,0.333,6.482758621,1.030097582,0.135258439
69,66,1,1,2,11,35,336.1931688346667,342.32689304614905,stimuli/205_yb.png,l,6.122006136807613,ambig,0.333,5.847457627,1.52918233,0.199082582
69,66,1,1,2,12,36,342.8802781648701,349.63084224960767,stimuli/135_xa.png,l,6.738588435342535,harmless,0.333,6.508474576,1.179901828,0.153610134
69,66,1,1,2,13,37,350.2550651439233,356.38284426298924,stimuli/254_ya.png,l,6.115945647819899,ambig,0.333,5.983606557,1.627798137,0.208418195
69,66,1,1,2,14,38,357.00885836500674,363.1828528487822,stimuli/224_yb.png,l,6.162161406362429,ambig,0.333,5.881355932,1.609077116,0.209483997
69,66,1,1,2,15,39,363.7606272220146,373.1347915318329,stimuli/366_za.png,l,9.362072082352825,awful,0.333,3.689655172,2.036568291,0.267414518
69,66,1,1,2,16,40,373.7548648735974,381.3828040907392,stimuli/308_zb.png,a,7.616638224455528,awful,0.333,1.644067797,1.471132708,0.191525165
69,66,1,1,2,17,41,381.9434714062372,388.742742320057,stimuli/348_za.png,l,6.78751739312429,awful,0.333,3.084745763,2.119597681,0.275948114
69,66,1,1,2,18,42,389.37055668828543,398.2387182073435,stimuli/179_xb.png,l,8.85647889052052,harmless,0.333,6.704918033,0.882123617,0.112944356
69,66,1,1,2,19,43,398.9432575482642,406.71075658046175,stimuli/339_ya.png,l,7.7558049821527675,ambig,0.333,4.949152542,1.960152429,0.25519011
69,66,1,1,2,20,44,407.338669409859,412.1667111054994,stimuli/138_xc.png,l,4.816353947040625,harmless,0.333,6.661016949,0.70978796,0.092406522
69,66,1,1,2,21,45,412.7981409720378,418.39868983463384,stimuli/312_yb.png,l,5.588761865044944,ambig,0.333,4.677966102,2.112692986,0.275049199
69,66,1,1,2,22,46,418.9875407087384,430.02264294505585,stimuli/364_za.png,l,11.023252223501913,awful,0.333,1.677966102,1.279017376,0.166513879
69,66,1,1,2,23,47,430.6406123661436,442.1666047673207,stimuli/347_zb.png,l,11.51424715120811,awful,0.333,3.796610169,2.147810923,0.279621165
69,66,1,1,2,24,48,442.75481643073726,450.3506013423903,stimuli/169_xc.png,l,7.584368522511795,harmless,0.333,6.603448276,0.916508538,0.120343467
69,66,1,1,3,1,49,460.9957858568523,468.78254234127235,stimuli/173_yb.png,l,7.774938766960986,ambig,0.333,5.796610169,1.242628763,0.161776485
69,66,1,1,3,2,50,469.49368961609434,476.3824984668754,stimuli/280_xb.png,l,6.877027367125265,harmless,0.333,6.333333333,1.068289726,0.137915611
69,66,1,1,3,3,51,476.95002892788034,484.79848243587185,stimuli/210_yb.png,l,7.836440443410538,ambig,0.333,5.557377049,1.76564049,0.226067099
69,66,1,1,3,4,52,485.38113576266915,491.7264300418319,stimuli/125_xc.png,l,6.333435601787642,harmless,0.333,6.683333333,0.999858747,0.129081209
69,66,1,1,3,5,53,492.2958170888014,510.2304659700021,stimuli/303_zb.png,l,17.922643299563788,awful,0.333,3.620689655,2.158846233,0.283470398
69,66,1,1,3,6,54,510.7832217240939,516.4784292982658,stimuli/109_xb.png,l,5.683551727095619,harmless,0.333,6.644067797,0.97843492,0.127381377
69,66,1,1,3,7,55,517.106197980349,526.6063655614853,stimuli/217_yb.png,l,9.48831166070886,ambig,0.333,5.169491525,2.001314588,0.260548967
69,66,1,1,3,8,56,527.1960616272409,532.5183711036807,stimuli/220_yb.png,l,5.310531143448316,ambig,0.333,4.75,2.096203186,0.270618668
69,66,1,1,3,9,57,533.0870736477664,539.974374859361,stimuli/277_yb.png,l,6.875411814311519,ambig,0.333,5.491525424,2.02886822,0.264136144
69,66,1,1,3,10,58,540.6132661222946,547.6783131926786,stimuli/271_ya.png,l,7.05327031284105,ambig,0.333,5.711864407,1.771915459,0.230683744
69,66,1,1,3,11,59,548.2833117177943,552.9183495996986,stimuli/153_xb.png,l,4.623233555234037,harmless,0.333,6.633333333,0.973664521,0.125699549
69,66,1,1,3,12,60,553.5279123962391,560.9582965251757,stimuli/127_xb.png,l,7.418629426741973,harmless,0.333,6.423728814,1.162686987,0.151368953
69,66,1,1,3,13,61,561.5752880288055,568.478328080033,stimuli/149_xa.png,l,6.891344425850548,harmless,0.333,6.721311475,0.933294301,0.11949609
69,66,1,1,3,14,62,569.0905142789707,575.2942460405175,stimuli/295_za.png,l,6.191975090070628,awful,0.333,2.3,1.825432384,0.235662307
69,66,1,1,3,15,63,575.8903153084684,583.5022754402598,stimuli/223_yb.png,l,7.600477182772011,ambig,0.333,5.542372881,1.77455224,0.231027024
69,66,1,1,3,16,64,584.1061003068462,591.3102302458137,stimuli/203_yb.png,l,7.192487482680008,ambig,0.333,6,1.542501327,0.200816568
69,66,1,1,3,17,65,591.959715155419,597.4622710134136,stimuli/333_za.png,l,5.490644799312577,awful,0.333,3.266666667,2.185209657,0.282109354
69,66,1,1,3,18,66,598.2586058117449,606.8062199176056,stimuli/242_xb.png,l,8.535836166818626,harmless,0.333,6.576271186,0.913564256,0.118935936
69,66,1,1,3,19,67,607.3716941130115,613.6621875970159,stimuli/358_za.png,l,6.278258684556931,awful,0.333,3.949152542,2.112554662,0.275031191
69,66,1,1,3,20,68,614.2618727572262,621.7823068219004,stimuli/324_za.png,l,7.50868330092635,awful,0.333,2.491525424,1.994586478,0.259673041
69,66,1,1,3,21,69,622.4035900559975,629.054186002817,stimuli/327_zb.png,l,6.640169290476479,awful,0.333,2.502808989,1.906990248,0.101070281
69,66,1,1,3,22,70,629.6257746440824,634.31018652895,stimuli/227_xa.png,l,4.672348801861517,harmless,0.333,6.180327869,1.05685377,0.135316259
69,66,1,1,3,23,71,634.9777831953252,647.006223934819,stimuli/337_zb.png,l,12.016548585379496,awful,0.333,3.033333333,2.20143764,0.284204377
69,66,1,1,3,24,72,647.5811429306632,655.7581802620552,stimuli/361_za.png,a,8.165853310725652,awful,0.333,2.416666667,1.907093508,0.246204713
69,66,1,1,4,1,73,664.6290270172758,692.0699953407748,stimuli/290_zb.png,l,27.429074593936093,awful,0.333,2.586206897,2.026443456,0.266085062
69,66,1,1,4,2,74,692.6860754867084,700.5739749490749,stimuli/367_zb.png,a,7.876209350768477,awful,0.333,3.413793103,2.086165649,0.27392697
69,66,1,1,4,3,75,701.1473906380124,709.4540061730659,stimuli/176_xb.png,l,8.294759614625946,harmless,0.333,6.796610169,0.517942249,0.067430337
69,66,1,1,4,4,76,710.027116632089,721.2939041829668,stimuli/252_zb.png,l,11.254878067527898,awful,0.333,2.711864407,1.983125776,0.258180985
69,66,1,1,4,5,77,721.9025879170513,727.8058481276967,stimuli/363_zb.png,l,5.891592154395767,awful,0.333,2.433333333,2.019956927,0.260775318
69,66,1,1,4,6,78,728.3681825897656,737.5418793265708,stimuli/133_xa.png,l,9.161821517976932,harmless,0.333,6.568965517,1.186356193,0.1557762
69,66,1,1,4,7,79,738.1165486247046,743.5499307028949,stimuli/226_yb.png,l,5.421650219010189,ambig,0.333,5.683333333,1.712285287,0.22105508
69,66,1,1,4,8,80,744.1675830786116,749.9178049118491,stimuli/191_ya.png,l,5.738684139680117,ambig,0.333,5.517241379,2.062542966,0.270825159
69,66,1,1,4,9,81,750.5407891632058,758.9898360383231,stimuli/147_ya.png,l,8.436886906274594,ambig,0.333,5.883333333,1.766847875,0.22809908
69,66,1,1,4,10,82,759.5973189384677,768.8377704583108,stimuli/287_ya.png,l,9.228590479353443,ambig,0.333,5.950819672,1.407435369,0.180203633
69,66,1,1,4,11,83,769.407651387155,770.2777730734088,stimuli/326_zb.png,a,0.8580546649172902,awful,0.333,3.389830508,2.220724867,0.289113752
69,66,1,1,4,12,84,770.880087543861,776.4697446189821,stimuli/113_xb.png,l,5.577844871557318,harmless,0.333,6.733333333,0.660422737,0.085260209
69,66,1,1,4,13,85,777.0903996700654,782.4137512607267,stimuli/237_ya.png,l,5.311596100800671,ambig,0.333,4.305084746,2.019339575,0.26289562
69,66,1,1,4,14,86,783.0263565109344,793.2937505833106,stimuli/291_za.png,l,10.255178571329452,awful,0.333,2.593220339,1.830005126,0.238246374
69,66,1,1,4,15,87,793.8554623761447,800.8936830782332,stimuli/282_xc.png,l,7.026491993688978,harmless,0.333,6.55,0.998728005,0.128935231
69,66,1,1,4,16,88,801.510091297212,808.3016652953811,stimuli/214_xb.png,l,6.779844108270481,harmless,0.333,6.465517241,0.940614156,0.12350869
69,66,1,1,4,17,89,808.9046024349518,816.0697188614868,stimuli/310_zb.png,l,7.153394413529895,awful,0.333,3.224137931,2.102989547,0.276136056
69,66,1,1,4,18,90,816.6603865432553,822.3416854760144,stimuli/136_xc.png,l,5.669413867872208,harmless,0.333,6.559322034,1.038420326,0.135190811
69,66,1,1,4,19,91,822.9306911312742,830.5736082792282,stimuli/139_xa.png,l,7.631083676707931,harmless,0.333,6.724137931,0.790138861,0.103750315
69,66,1,1,4,20,92,831.1315171032911,838.4935970625374,stimuli/261_yb.png,l,7.350209466530941,ambig,0.333,5.706896552,1.901141123,0.249632059
69,66,1,1,4,21,93,839.0699685593136,857.6215959470719,stimuli/285_yb.png,l,18.540294493664987,ambig,0.333,4.120689655,2.119893958,0.278355714
69,66,1,1,4,22,94,858.1827098829672,864.4775403897511,stimuli/219_ya.png,l,6.28340072685387,ambig,0.333,5.271186441,1.998538332,0.260187529
69,66,1,1,4,23,95,865.0859582783887,873.1895171024371,stimuli/229_za.png,l,8.091701722121798,awful,0.333,3.406779661,2.043649913,0.266060557
69,66,1,1,4,24,96,873.8077693043742,880.4295330295572,stimuli/182_xb.png,l,6.610449735657312,harmless,0.333,6.542372881,0.988241802,0.128658124
69,66,1,1,5,1,97,913.2161579696694,920.4533838977804,stimuli/222_ya.png,l,7.22525224799756,ambig,0.25,5.931034483,1.543089507,0.202617579
69,66,1,1,5,2,98,921.0269094695104,926.9093273951439,stimuli/317_za.png,l,5.87057854665909,awful,0.25,3.65,2.03215674,0.262350307
69,66,1,1,5,3,99,927.5831109748688,932.997313976055,stimuli/200_ya.png,l,5.402123770560138,ambig,0.25,5.862068966,1.444266048,0.189641423
69,66,1,1,5,4,100,933.6189260708634,938.5333289484261,stimuli/117_xc.png,l,4.903043202008121,harmless,0.25,6.627118644,0.868972939,0.113130641
69,66,1,1,5,5,101,939.1655886467779,947.4933422446484,stimuli/129_xa.png,l,8.315910280449316,harmless,0.25,6.770491803,0.642740036,0.082294429
69,66,1,1,5,6,102,948.050844620564,952.7253044324461,stimuli/247_ya.png,l,4.663565267459489,ambig,0.25,4.65,2.081598147,0.268733165
69,66,1,1,5,7,103,953.2994180149399,958.813317007036,stimuli/301_za.png,l,5.502053311560303,awful,0.25,3.610169492,2.212947396,0.288101212
69,66,1,1,5,8,104,959.3981573560741,972.3812893623253,stimuli/269_za.png,l,12.971504122251645,awful,0.25,3.457627119,2.119873401,0.27598401
69,66,1,1,5,9,105,972.9454158196459,979.2532392778667,stimuli/236_yb.png,l,6.296199906384572,ambig,0.25,5.93442623,1.49297078,0.19115532
69,66,1,1,5,10,106,979.8502466848586,988.7652430870803,stimuli/369_za.png,l,8.903019965160638,awful,0.25,2.948275862,2.055565093,0.26990892
69,66,1,1,5,11,107,989.3811869625933,991.677220272366,stimuli/278_xb.png,a,2.2841383987106383,harmless,0.25,6.360655738,1.140654591,0.146045855
69,66,1,1,5,12,108,992.2562391962856,1006.3971869215602,stimuli/353_zb.png,l,14.130490349023603,awful,0.25,1.949152542,1.623361018,0.211343603
69,66,1,1,5,13,109,1006.9753689245554,1013.7971929868218,stimuli/172_xb.png,l,6.809933089651167,harmless,0.25,6.482758621,1.127664553,0.14806961
69,66,1,1,5,14,110,1014.4347254839959,1021.0211215212476,stimuli/240_xa.png,l,6.575063930940814,harmless,0.25,6.482758621,1.096107616,0.143925981
69,66,1,1,5,15,111,1021.6257281703874,1025.8851693277247,stimuli/124_xa.png,l,4.247505286359228,harmless,0.25,6.344262295,1.181598436,0.151288177
69,66,1,1,5,16,112,1026.4947719025658,1031.5490654250607,stimuli/177_xb.png,l,5.042547484859824,harmless,0.25,6.482758621,1.063614811,0.139659467
69,66,1,1,5,17,113,1032.15769087011,1037.7651332042878,stimuli/151_xa.png,l,5.595615952159278,harmless,0.25,6.610169492,0.947172729,0.123311386
69,66,1,1,5,18,114,1038.4055978785036,1042.9330608975142,stimuli/168_xa.png,l,4.515951713081449,harmless,0.25,6.474576271,1.164946827,0.151663159
69,66,1,1,5,19,115,1043.5425110541983,1050.4610339459032,stimuli/198_yb.png,l,6.906883586081676,ambig,0.25,5.101694915,1.83542643,0.238952168
69,66,1,1,5,20,116,1051.100418302929,1058.469078626833,stimuli/253_ya.png,l,7.356836698832922,ambig,0.25,5.491803279,1.849531029,0.236808182
69,66,1,1,5,21,117,1059.080969835748,1067.0210309368558,stimuli/281_ya.png,l,7.928371777175926,ambig,0.25,5.881355932,1.543448286,0.200939852
69,66,1,1,5,22,118,1067.6016252413392,1079.3970203250647,stimuli/354_zb.png,a,11.783662830712274,awful,0.25,2,1.701925887,0.221571878
69,66,1,1,5,23,119,1079.9942774299998,1085.2529679185245,stimuli/233_yb.png,l,5.247155158082023,ambig,0.25,5.318309859,1.922973646,0.102060844
69,66,1,1,5,24,120,1085.825835768832,1089.9009837857448,stimuli/115_xb.png,l,4.063912796438672,harmless,0.25,6.440677966,1.021681954,0.133011661
69,66,1,1,6,1,121,1098.8757099549985,1107.7649197402643,stimuli/196_xb.png,l,8.877201446681283,harmless,0.166,6.594366197,0.982313556,0.05213579
69,66,1,1,6,2,122,1108.3817702472443,1112.5089310293552,stimuli/190_xc.png,l,4.115565981017426,harmless,0.166,6.517241379,1.046990328,0.137476565
69,66,1,1,6,3,123,1113.1298251445405,1120.7808708624216,stimuli/350_ya.png,l,7.63912323769182,ambig,0.166,4.915254237,2.02814792,0.264042369
69,66,1,1,6,4,124,1121.3537536789663,1128.3008362513501,stimuli/288_yb.png,l,6.935167181305587,ambig,0.166,5.189655172,1.914459262,0.251380817
69,66,1,1,6,5,125,1128.9241596033098,1134.4368490970228,stimuli/119_xc.png,l,5.500990717438981,harmless,0.166,6.694915254,0.914523379,0.119060803
69,66,1,1,6,6,126,1135.0639829008142,1145.6608197728638,stimuli/299_za.png,l,10.585092409863137,awful,0.166,1.288135593,0.929420425,0.121000233
69,66,1,1,6,7,127,1146.3007897776552,1152.3648167890497,stimuli/121_xc.png,l,6.051312114694156,harmless,0.166,6.508474576,1.006408455,0.131023221
69,66,1,1,6,8,128,1152.9395849423017,1159.004827359924,stimuli/157_xc.png,l,6.053466841578484,harmless,0.166,6.603448276,0.877389573,0.115206895
69,66,1,1,6,9,129,1159.6274898396805,1164.3567441451596,stimuli/162_xa.png,l,4.71734639746137,harmless,0.166,6.644067797,0.905209289,0.117848212
69,66,1,1,6,10,130,1164.9544281781418,1170.0367894688388,stimuli/170_xc.png,l,5.0706499114166945,harmless,0.166,6.583333333,1.062323432,0.137145365
69,66,1,1,6,11,131,1170.649361636024,1177.0608589210315,stimuli/267_ya.png,l,6.40006396046374,ambig,0.166,5.103448276,1.898195405,0.249245267
69,66,1,1,6,12,132,1177.6689463736257,1185.036688644439,stimuli/328_za.png,l,7.355990719399415,awful,0.166,2.706896552,1.955725922,0.256799395
69,66,1,1,6,13,133,1185.66244871635,1192.9646311304532,stimuli/262_ya.png,l,7.290310345939361,ambig,0.166,5.491525424,1.7750462,0.231091332
69,66,1,1,6,14,134,1193.5941851126263,1201.6767299352214,stimuli/128_xc.png,l,8.07077042805031,harmless,0.166,6.627118644,0.98082135,0.127692063
69,66,1,1,6,15,135,1202.3289434040198,1206.9086535261013,stimuli/114_xc.png,l,4.567948330659419,harmless,0.166,6.644067797,0.97843492,0.127381377
69,66,1,1,6,16,136,1207.4977257411228,1211.8686010502279,stimuli/368_za.png,l,4.3594266244908795,awful,0.166,3.590163934,2.02794682,0.259651984
69,66,1,1,6,17,137,1212.4951968614478,1217.588650406804,stimuli/255_xb.png,l,5.081384948571213,harmless,0.166,6.770491803,0.642740036,0.082294429
69,66,1,1,6,18,138,1218.22052610619,1226.4526564658154,stimuli/370_za.png,a,8.220465060323477,awful,0.166,2.393442623,1.882185684,0.240989182
69,66,1,1,6,19,139,1227.0598388621584,1233.4206293723546,stimuli/120_xa.png,l,6.34905195562169,harmless,0.166,6.440677966,1.054893138,0.137335389
69,66,1,1,6,20,140,1234.0161417432828,1239.5245481709717,stimuli/174_xc.png,l,5.496062927064486,harmless,0.166,6.533333333,1.111826512,0.143536185
69,66,1,1,6,21,141,1240.1019361821236,1244.9885505277198,stimuli/296_yb.png,l,4.874837982002646,ambig,0.166,4.229508197,2.052587332,0.262806878
69,66,1,1,6,22,142,1245.6078763514524,1250.1965649613412,stimuli/289_yb.png,l,4.5768267817329615,ambig,0.166,5.305084746,1.714584873,0.223219937
69,66,1,1,6,23,143,1250.8362939328654,1255.764565673424,stimuli/232_yb.png,l,4.9165268844226375,ambig,0.166,5.483333333,1.845669845,0.238274952
69,66,1,1,6,24,144,1256.3722380131949,1262.7885098828701,stimuli/330_ya.png,l,6.404878717381507,ambig,0.166,4.796610169,2.049219036,0.266785595
69,66,1,1,7,1,145,1271.8203983427957,1278.0525094040204,stimuli/175_xb.png,l,6.2205973921809345,harmless,0.083,6.6,1.028409995,0.13276716
69,66,1,1,7,2,146,1278.6848010037793,1283.3724711694522,stimuli/305_zb.png,l,4.675913100363687,awful,0.083,2.75,2.12830003,0.274762352
69,66,1,1,7,3,147,1283.9838515613228,1289.6924888610374,stimuli/250_yb.png,l,5.697173255262896,ambig,0.083,5.950819672,1.585625318,0.203018519
69,66,1,1,7,4,148,1290.317925586016,1305.6844229124254,stimuli/319_ya.png,l,15.355161281535402,ambig,0.083,4.216666667,2.108028774,0.272145344
69,66,1,1,7,5,149,1306.3080822143238,1313.8683860107558,stimuli/204_xb.png,l,7.548540035728365,harmless,0.083,6.508474576,0.858484658,0.111765183
69,66,1,1,7,6,150,1314.4844700951362,1321.676369566936,stimuli/108_xb.png,l,7.18003843142651,harmless,0.083,6.568965517,1.077880782,0.141532681
69,66,1,1,7,7,151,1322.2929049978266,1326.4283306204015,stimuli/130_xc.png,l,4.123670132714324,harmless,0.083,6.644067797,0.960651931,0.125066229
69,66,1,1,7,8,152,1327.0452272072434,1336.0363849898567,stimuli/345_zb.png,l,8.97923648392316,awful,0.083,3.694915254,2.191317013,0.285285176
69,66,1,1,7,9,153,1336.6598347661784,1340.0843517839676,stimuli/134_xc.png,l,3.4127690109889954,harmless,0.083,6.516666667,0.965360505,0.124627505
69,66,1,1,7,10,154,1340.7269589758944,1349.1163127113832,stimuli/165_xb.png,l,8.377406836836599,harmless,0.083,6.557377049,1.008705278,0.129151477
69,66,1,1,7,11,155,1349.7915515489876,1355.660294777248,stimuli/275_yb.png,l,5.856819172622636,ambig,0.083,4.836065574,2.138382004,0.27379176
69,66,1,1,7,12,156,1356.2754584455397,1361.1962809989927,stimuli/259_xc.png,l,4.908425489789806,harmless,0.083,6.568965517,0.993170874,0.130409725
69,66,1,1,7,13,157,1361.7992886368884,1368.9882972852793,stimuli/336_ya.png,l,7.177137368009426,ambig,0.083,5.033898305,1.884291705,0.245313885
69,66,1,1,7,14,158,1369.6298674829304,1375.1402730685659,stimuli/264_xa.png,l,5.498611498973332,harmless,0.083,6.533333333,0.947193297,0.122282129
69,66,1,1,7,15,159,1375.7185763757443,1381.6202206398593,stimuli/187_xc.png,l,5.889816700480878,harmless,0.083,6.224137931,1.185335891,0.155642228
69,66,1,1,7,16,160,1382.1884375729132,1388.4441876135534,stimuli/101_xa.png,l,6.244083953555673,harmless,0.083,6.508522727,1.13475832,0.060482822
69,66,1,1,7,17,161,1389.0971312712645,1396.6521689642686,stimuli/197_xa.png,l,7.54277689976152,harmless,0.083,6.779661017,0.55918033,0.072799078
69,66,1,1,7,18,162,1397.279885658878,1402.9801679276861,stimuli/243_ya.png,l,5.6883255240973085,ambig,0.083,5.830508475,1.652088985,0.215083666
69,66,1,1,7,19,163,1403.61645548034,1407.2361326139653,stimuli/283_yb.png,l,3.6078212133143097,ambig,0.083,5.949152542,1.478859402,0.192531095
69,66,1,1,7,20,164,1407.7962036478566,1415.5641382726608,stimuli/218_yb.png,l,7.756244513206184,ambig,0.083,5.850282486,1.552723069,0.0825263
69,66,1,1,7,21,165,1416.185078073875,1421.3481102718506,stimuli/244_xb.png,l,5.151644165627658,harmless,0.083,6.610169492,0.743174671,0.096753101
69,66,1,1,7,22,166,1421.968656227924,1427.172100088559,stimuli/180_xc.png,l,5.191620629397221,harmless,0.083,6.672131148,0.723908638,0.092687003
69,66,1,1,7,23,167,1427.7430975683965,1434.8760667787865,stimuli/110_xa.png,l,7.12112392380368,harmless,0.083,6.428571429,1.059281795,0.141552484
69,66,1,1,7,24,168,1435.5198850444285,1441.3880902802339,stimuli/309_ya.png,l,5.85549900366459,ambig,0.083,4.706896552,1.946734744,0.255618795
69,66,1,1,8,1,169,1451.1227536549559,1458.0920412166743,stimuli/111_xa.png,l,6.957406435278244,harmless,0.0412,6.590163934,0.863655973,0.110579816
69,66,1,1,8,2,170,1458.70805047045,1464.6600127841812,stimuli/273_ya.png,l,5.940166257787496,ambig,0.0412,5.551724138,1.836973233,0.241206403
69,66,1,1,8,3,171,1465.2873372089816,1469.435934194713,stimuli/148_xc.png,l,4.13698840001598,harmless,0.0412,6.491525424,1.135218061,0.147792803
69,66,1,1,8,4,172,1470.0665421065642,1476.6759434264386,stimuli/320_za.png,a,6.5975859655300155,awful,0.0412,1.423728814,1.117314975,0.14546202
69,66,1,1,8,5,173,1477.2380915996619,1483.4439249188872,stimuli/274_xb.png,l,6.193828525370918,harmless,0.0412,6.491525424,1.179901828,0.153610134
69,66,1,1,8,6,174,1484.0682167360792,1487.555960472091,stimuli/143_xb.png,l,3.4761335749644786,harmless,0.0412,6.655172414,0.738697862,0.096995781
69,66,1,1,8,7,175,1488.125907960697,1496.7798866434023,stimuli/118_xb.png,l,8.642119217664003,harmless,0.0412,6.474576271,0.953323265,0.124112118
69,66,1,1,8,8,176,1497.3421120103449,1501.3879280161345,stimuli/126_xa.png,l,4.033885254873894,harmless,0.0412,6.6,0.977717855,0.126222832
69,66,1,1,8,9,177,1501.9956795186736,1506.8518575115595,stimuli/141_xc.png,l,4.84430238022469,harmless,0.0412,6.508474576,1.040107444,0.135410455
69,66,1,1,8,10,178,1507.4234134637518,1512.0279267715523,stimuli/106_xc.png,l,4.592408477328718,harmless,0.0412,6.661016949,0.863237081,0.112383896
69,66,1,1,8,11,179,1512.6320694710594,1519.25990156224,stimuli/279_ya.png,l,6.616013979888521,ambig,0.0412,5.31147541,1.970964092,0.252356093
69,66,1,1,8,12,180,1519.8327942249598,1526.1718409385066,stimuli/132_xc.png,l,6.326754018897191,harmless,0.0412,6.627118644,0.692280217,0.090127208
69,66,1,1,8,13,181,1526.7434453336755,1531.7158529366134,stimuli/122_xa.png,l,4.960616666940041,harmless,0.0412,6.457627119,1.039264227,0.135300678
69,66,1,1,8,14,182,1532.2956075632246,1541.0357914651977,stimuli/286_ya.png,l,8.728392966091633,ambig,0.0412,5.06779661,1.779814082,0.231712057
69,66,1,1,8,15,183,1541.6191907348111,1547.3958135836292,stimuli/209_ya.png,l,5.764794891350903,ambig,0.0412,5.603448276,1.825161903,0.239655499
69,66,1,1,8,16,184,1547.9715876172995,1554.3398123484803,stimuli/166_xa.png,l,6.357116328901611,harmless,0.0412,6.593220339,1.052397002,0.13701042
69,66,1,1,8,17,185,1554.9293087347178,1558.779844108154,stimuli/241_yb.png,l,3.838784215738997,ambig,0.0412,5.508474576,1.442852555,0.187843403
69,66,1,1,8,18,186,1559.3823381719412,1564.0197844170034,stimuli/265_yb.png,l,4.625606078421697,ambig,0.0412,5.627118644,1.856008928,0.241631781
69,66,1,1,8,19,187,1564.625500134076,1569.7397290108493,stimuli/221_xb.png,l,5.10250765143428,harmless,0.0412,6.440677966,1.133672495,0.147591588
69,66,1,1,8,20,188,1570.3331807838986,1574.627701728372,stimuli/154_xc.png,l,4.2827122854068875,harmless,0.0412,6.5,0.965506805,0.124646393
69,66,1,1,8,21,189,1575.2389497882687,1581.2917147977278,stimuli/160_xb.png,l,6.041646367171779,harmless,0.0412,6.666666667,0.680644427,0.087870818
69,66,1,1,8,22,190,1581.8683084232034,1588.643707201234,stimuli/167_xb.png,l,6.763707090984099,harmless,0.0412,6.590163934,0.955284411,0.122311635
69,66,1,1,8,23,191,1589.247739624232,1594.0676480237162,stimuli/251_ya.png,l,4.808267518528737,ambig,0.0412,5.655172414,1.792300532,0.235340589
69,66,1,1,8,24,192,1594.6822685794905,1598.7716584306909,stimuli/304_ya.png,l,4.077718644170091,ambig,0.0412,4.034482759,2.017167697,0.264867095
69,66,1,1,9,1,193,1607.4840120532317,1612.0996006804053,stimuli/258_ya.png,l,4.603594860993326,ambig,0.0412,5.627118644,1.78014243,0.231754804
69,66,1,1,9,2,194,1612.7150105017936,1616.0596261858009,stimuli/152_xa.png,l,3.3327959972666577,harmless,0.0412,6.576271186,0.968528743,0.126091702
69,66,1,1,9,3,195,1616.678950040252,1622.9315591659397,stimuli/188_xa.png,l,6.241243148571812,harmless,0.0412,6.655172414,0.806807095,0.105938962
69,66,1,1,9,4,196,1623.5699344916502,1627.3236028638203,stimuli/112_xc.png,l,3.742296093609184,harmless,0.0412,6.706896552,0.749470472,0.098410294
69,66,1,1,9,5,197,1627.8949000597931,1634.2275223713368,stimuli/159_xa.png,l,6.320880606188439,harmless,0.0412,6.389830508,1.174689235,0.152931512
69,66,1,1,9,6,198,1634.8502640140941,1642.0356008441886,stimuli/245_yb.png,l,7.172987815574743,ambig,0.0412,4.949152542,2.096168334,0.272897873
69,66,1,1,9,7,199,1642.6026547525544,1649.8595237073023,stimuli/239_ya.png,l,7.245538029936142,ambig,0.0412,5.157894737,1.925296579,0.255011762
69,66,1,1,9,8,200,1650.5151203058194,1654.875537057058,stimuli/155_xb.png,l,4.348588399938308,harmless,0.0412,6.655737705,0.892286312,0.114245555
69,66,1,1,9,9,201,1655.51044457627,1661.1954708595295,stimuli/234_xb.png,l,5.673090806114487,harmless,0.0412,6.637931034,0.788030542,0.103473479
69,66,1,1,9,10,202,1661.7731483468087,1673.0355653981678,stimuli/146_xa.png,l,11.250517414067872,harmless,0.0412,6.442622951,1.162247681,0.148810567
69,66,1,1,9,11,203,1673.6063328722958,1676.3314801605884,stimuli/145_xa.png,l,2.713161398889497,harmless,0.0412,6.661016949,0.822321556,0.107057148
69,66,1,1,9,12,204,1676.9127479402814,1681.2594710895792,stimuli/215_yb.png,l,4.3349475733703,ambig,0.0412,5.866666667,1.466769385,0.189359113
69,66,1,1,9,13,205,1681.8756363060093,1686.139429058414,stimuli/201_yb.png,l,4.252218825160526,ambig,0.0412,5.898305085,1.626238682,0.211718243
69,66,1,1,9,14,206,1686.704995807493,1691.3875830076868,stimuli/193_xc.png,l,4.670867944019847,harmless,0.0412,6.482758621,1.012923151,0.133003326
69,66,1,1,9,15,207,1691.9630695345113,1700.843539108173,stimuli/213_ya.png,l,8.868635708582588,ambig,0.0412,5.98245614,1.597891781,0.211645937
69,66,1,1,9,16,208,1701.4531956397695,1707.251347639598,stimuli/207_yb.png,l,5.786827376461588,ambig,0.0412,5.655737705,1.662179753,0.212820309
69,66,1,1,9,17,209,1707.818751676241,1710.7634113132954,stimuli/238_xb.png,l,2.9327410951955244,harmless,0.0412,6.4,1.076718178,0.139003719
69,66,1,1,9,18,210,1711.385249081417,1713.3233653751668,stimuli/248_zb.png,l,1.9265317326644436,awful,0.0412,3.288135593,1.991800844,0.259310383
69,66,1,1,9,19,211,1713.9000133513473,1715.3154254570836,stimuli/123_xc.png,l,1.403623926686123,harmless,0.0412,6.491525424,1.023396666,0.133234897
69,66,1,1,9,20,212,1715.9068981582532,1718.6514017538866,stimuli/260_ya.png,l,2.7328319946536794,ambig,0.0412,4.966101695,2.016877936,0.262575142
69,66,1,1,9,21,213,1719.2265027062967,1723.1154623997863,stimuli/206_xa.png,l,3.8770817178301513,harmless,0.0412,6.325842697,1.136094431,0.060212884
69,66,1,1,9,22,214,1723.7213506209664,1727.4833547256421,stimuli/161_xc.png,l,3.750475863344036,harmless,0.0412,6.796610169,0.609682252,0.079373868
69,66,1,1,9,23,215,1728.0869224112248,1732.4753675460815,stimuli/181_xa.png,l,4.377878663362935,harmless,0.0412,6.666666667,0.950765377,0.122743282
69,66,1,1,9,24,216,1733.0853395476006,1737.0113187156385,stimuli/104_xc.png,l,3.91471913526766,harmless,0.0412,6.745762712,0.756425814,0.098478253
69,66,1,1,10,1,217,1746.4240010806825,1750.6752892496297,stimuli/163_xa.png,l,4.239640592597425,harmless,0.0412,6.627118644,0.963082427,0.125382652
69,66,1,1,10,2,218,1751.25546410901,1754.4993357801577,stimuli/131_xb.png,l,3.232131935073994,harmless,0.0412,6.525423729,1.119666394,0.145768149
69,66,1,1,10,3,219,1755.1107366518117,1761.5952118670102,stimuli/208_xb.png,l,6.472725632949732,harmless,0.0412,6.216666667,1.165778516,0.150501359
69,66,1,1,10,4,220,1762.194767845911,1765.6912289503962,stimuli/323_yb.png,l,3.4846957684494555,ambig,0.0412,4.603448276,1.955107169,0.256718148
69,66,1,1,10,5,221,1766.2567448935006,1768.3792027707677,stimuli/195_xc.png,l,2.1105070401681587,harmless,0.0412,6.637640449,1.001766915,0.05309354
69,66,1,1,10,6,222,1769.0017679708544,1772.3872529654764,stimuli/315_yb.png,l,3.3737948830239475,ambig,0.0412,5.050847458,1.915667965,0.249398726
69,66,1,1,10,7,223,1772.9638249294367,1774.9551737270085,stimuli/144_xa.png,l,1.980134844663553,harmless,0.0412,6.542372881,1.00553698,0.130909764
69,66,1,1,10,8,224,1775.5756531232037,1778.4272117062937,stimuli/263_ya.png,l,2.83967312425375,ambig,0.0412,4.983050847,2.071910042,0.269739712
69,66,1,1,10,9,225,1779.0344516040059,1781.4751781065715,stimuli/184_xb.png,l,2.4287929945858195,harmless,0.0412,6.508474576,1.194425,0.15550089
69,66,1,1,10,10,226,1782.0428570471704,1784.627168462146,stimuli/140_xb.png,l,2.5723397041438147,harmless,0.0412,6.724137931,0.790138861,0.103750315
69,66,1,1,10,11,227,1785.2212984365178,1787.8272441591835,stimuli/294_za.png,l,2.5943903061561286,awful,0.0412,1.557377049,1.38473331,0.177296933
69,66,1,1,10,12,228,1788.4329031624366,1792.4991471283138,stimuli/325_yb.png,l,4.054220661171712,ambig,0.0412,5.131147541,1.811770863,0.231973488
69,66,1,1,10,13,229,1793.0692824810976,1796.011158420588,stimuli/231_xb.png,l,2.9299176193308085,harmless,0.0412,6.62295082,1.05141071,0.134619347
69,66,1,1,10,14,230,1796.6148576504784,1801.0271705888445,stimuli/142_xa.png,l,4.400063566630706,harmless,0.0412,6.4,1.076718178,0.139003719
69,66,1,1,10,15,231,1801.6618150195573,1807.0350829378003,stimuli/272_xb.png,l,5.361419087043032,harmless,0.0412,6.355932203,1.029943284,0.134087194
69,66,1,1,10,16,232,1807.6457162053557,1813.0832049068995,stimuli/212_ya.png,l,5.4260463184909895,ambig,0.0412,5.677966102,1.490668422,0.194068498
69,66,1,1,10,17,233,1813.6859636346344,1817.2671416176017,stimuli/194_xb.png,l,3.568809276097454,harmless,0.0412,6.586206897,1.026567825,0.134794959
69,66,1,1,10,18,234,1817.828270125785,1820.723081964301,stimuli/183_xb.png,l,2.8832020714180544,harmless,0.0412,6.448275862,1.095003225,0.143780967
69,66,1,1,10,19,235,1821.3522527350578,1825.3551435584668,stimuli/342_yb.png,l,3.9911912594689056,ambig,0.0412,4.916666667,2.085394461,0.269223267
69,66,1,1,10,20,236,1825.9469592988025,1829.6270700008608,stimuli/107_xa.png,l,3.668387901270762,harmless,0.0412,6.813559322,0.540580029,0.070377525
69,66,1,1,10,21,237,1830.1800589113263,1833.1631208130857,stimuli/102_xc.png,l,2.971316257957369,harmless,0.0412,6.66011236,0.937292468,0.049676401
69,66,1,1,10,22,238,1833.7382682391908,1836.6670606430853,stimuli/249_ya.png,l,2.9170447908109054,ambig,0.0412,5.327868852,1.859402337,0.238072074
69,66,1,1,10,23,239,1837.2389426990412,1839.091058572987,stimuli/103_xb.png,l,1.840330058010295,harmless,0.0412,6.779661017,0.589207434,0.076708274
69,66,1,1,10,24,240,1839.6522244963562,1841.955016582855,stimuli/225_ya.png,l,2.2908254954963923,ambig,0.0412,5.85,1.792876677,0.231459384
