id,age,condition,counterbalance,block,trialinblock,trial,tstart,tend,trialstim,response,RT,trialtype,ethicfreq,norm_mean,norm_sd,norm_se
030,71,1,1,0,0,practice,3.8000289350748062e-06,18.31198520003818,stimuli/prac_217_1.png,a,18.29297269997187,harmless,NA,NA,NA,NA
030,71,1,1,1,1,1,4.77875870000571,14.848053600173444,stimuli/158_xa.png,l,10.057704100152478,harmless,0.333,6.786885246,0.661179605,0.084655374
030,71,1,1,1,2,2,15.402744400082156,53.42405390017666,stimuli/264_xa.png,a,38.009706100216135,harmless,0.333,6.533333333,0.947193297,0.122282129
030,71,1,1,1,3,3,54.06482119997963,60.51997030014172,stimuli/318_za.png,a,6.443374900147319,awful,0.333,3.06557377,2.197489875,0.281359747
030,71,1,1,1,4,4,61.09892450016923,67.60802470007911,stimuli/293_zb.png,a,6.497414499986917,awful,0.333,3.677966102,2.169066842,0.28238845
030,71,1,1,1,5,5,68.1997859000694,73.36796179995872,stimuli/220_yb.png,a,5.156815399881452,ambig,0.333,4.75,2.096203186,0.270618668
030,71,1,1,1,6,6,73.93543389998376,79.80795700009912,stimuli/310_zb.png,a,5.861120300134644,awful,0.333,3.224137931,2.102989547,0.276136056
030,71,1,1,1,7,7,80.4419667001348,96.37594359996729,stimuli/175_xb.png,l,15.92207059985958,harmless,0.333,6.6,1.028409995,0.13276716
030,71,1,1,1,8,8,96.94069309998304,111.80002870014869,stimuli/128_xc.png,l,14.847739400109276,harmless,0.333,6.627118644,0.98082135,0.127692063
030,71,1,1,1,9,9,112.35484450007789,119.27200120012276,stimuli/133_xa.png,a,6.905458100140095,harmless,0.333,6.568965517,1.186356193,0.1557762
030,71,1,1,1,10,10,119.8371860999614,125.96800130000338,stimuli/207_yb.png,a,6.11819459986873,ambig,0.333,5.655737705,1.662179753,0.212820309
030,71,1,1,1,11,11,126.59928019996732,146.46398929995485,stimuli/145_xa.png,l,19.85302669997327,harmless,0.333,6.661016949,0.822321556,0.107057148
030,71,1,1,1,12,12,147.026287100045,155.4879165000748,stimuli/163_xa.png,l,8.449922000057995,harmless,0.333,6.627118644,0.963082427,0.125382652
030,71,1,1,1,13,13,156.108998300042,161.8079030001536,stimuli/309_ya.png,a,5.6871454999782145,ambig,0.333,4.706896552,1.946734744,0.255618795
030,71,1,1,1,14,14,162.3956870001275,167.6239364000503,stimuli/258_ya.png,a,5.216879300074652,ambig,0.333,5.627118644,1.78014243,0.231754804
030,71,1,1,1,15,15,168.2145845000632,170.75993390008807,stimuli/295_za.png,a,2.533966900082305,awful,0.333,2.3,1.825432384,0.235662307
030,71,1,1,1,16,16,171.3305720000062,176.68793480005115,stimuli/279_ya.png,a,5.345981599995866,ambig,0.333,5.31147541,1.970964092,0.252356093
030,71,1,1,1,17,17,177.24418699997477,179.58396610012278,stimuli/348_za.png,a,2.3282000001054257,awful,0.333,3.084745763,2.119597681,0.275948114
030,71,1,1,1,18,18,180.15474230004475,184.11198720009997,stimuli/353_zb.png,a,3.944438199978322,awful,0.333,1.949152542,1.623361018,0.211343603
030,71,1,1,1,19,19,184.7100029999856,188.42396050016396,stimuli/261_yb.png,a,3.702424200018868,ambig,0.333,5.706896552,1.901141123,0.249632059
030,71,1,1,1,20,20,188.9881271000486,193.81591330002993,stimuli/262_ya.png,a,4.816181999864057,ambig,0.333,5.491525424,1.7750462,0.231091332
030,71,1,1,1,21,21,194.41497749998234,198.1438961001113,stimuli/345_zb.png,a,3.7175450001377612,awful,0.333,3.694915254,2.191317013,0.285285176
030,71,1,1,1,22,22,198.72228200011887,206.76794510008767,stimuli/282_xc.png,a,8.033754300093278,harmless,0.333,6.55,0.998728005,0.128935231
030,71,1,1,1,23,23,207.34003590000793,210.73594290018082,stimuli/323_yb.png,a,3.3842968000099063,ambig,0.333,4.603448276,1.955107169,0.256718148
030,71,1,1,1,24,24,211.38397229998372,213.77587920008227,stimuli/344_za.png,a,2.3802938999142498,awful,0.333,2.711864407,2.043077863,0.265986082
030,71,1,1,2,1,25,222.89421189995483,228.19989860011265,stimuli/284_ya.png,a,5.294224600074813,ambig,0.333,5.948275862,1.431750417,0.18799804
030,71,1,1,2,2,26,228.7571481000632,233.7358866999857,stimuli/286_ya.png,a,4.96704089990817,ambig,0.333,5.06779661,1.779814082,0.231712057
030,71,1,1,2,3,27,234.3564844999928,239.3199295999948,stimuli/171_xa.png,a,4.951621699845418,harmless,0.333,6.465517241,1.046556882,0.137419651
030,71,1,1,2,4,28,239.92638730001636,243.01589519996196,stimuli/276_ya.png,a,3.077985799871385,ambig,0.333,5.186440678,1.804922162,0.234980851
030,71,1,1,2,5,29,243.65456230007112,247.11993760010228,stimuli/373_zb.png,a,3.453824399970472,awful,0.333,2.327586207,1.858011869,0.243968911
030,71,1,1,2,6,30,247.68246180005372,254.02391240000725,stimuli/218_yb.png,a,6.329817699966952,ambig,0.333,5.850282486,1.552723069,0.0825263
030,71,1,1,2,7,31,254.58882339997217,257.7519396999851,stimuli/347_zb.png,a,3.1515577000100166,awful,0.333,3.796610169,2.147810923,0.279621165
030,71,1,1,2,8,32,258.37681200006045,262.304000900127,stimuli/259_xc.png,a,3.91564380005002,harmless,0.333,6.568965517,0.993170874,0.130409725
030,71,1,1,2,9,33,262.91464890004136,265.1919424000662,stimuli/372_zb.png,a,2.2655672999098897,awful,0.333,2.796610169,2.082601664,0.271131643
030,71,1,1,2,10,34,265.83956940006465,268.4159629000351,stimuli/224_yb.png,a,2.564506500028074,ambig,0.333,5.881355932,1.609077116,0.209483997
030,71,1,1,2,11,35,269.0516240999568,272.07987520005554,stimuli/360_za.png,a,3.016348300036043,awful,0.333,3.2,2.207844259,0.285031468
030,71,1,1,2,12,36,272.6864165000152,287.8238788000308,stimuli/186_xa.png,a,15.12570820003748,harmless,0.333,6.65,0.879618561,0.113558268
030,71,1,1,2,13,37,288.378717900021,291.4798403000459,stimuli/256_zb.png,a,3.08938409993425,awful,0.333,3.051724138,2.012438634,0.264246138
030,71,1,1,2,14,38,292.04722860013135,298.42387950001284,stimuli/196_xb.png,a,6.364954599877819,harmless,0.333,6.594366197,0.982313556,0.05213579
030,71,1,1,2,15,39,299.0099692000076,303.2878630000632,stimuli/146_xa.png,a,4.266028499929234,harmless,0.333,6.442622951,1.162247681,0.148810567
030,71,1,1,2,16,40,303.86004519998096,306.83995850011706,stimuli/341_zb.png,a,2.9684153001289815,awful,0.333,3.603448276,2.15975677,0.283589957
030,71,1,1,2,17,41,307.40455060009845,314.2239090001676,stimuli/365_zb.png,a,6.807697700103745,awful,0.333,2.966101695,2.165291266,0.281896912
030,71,1,1,2,18,42,314.9046249999665,319.9198454001453,stimuli/122_xa.png,a,5.0033864001743495,harmless,0.333,6.457627119,1.039264227,0.135300678
030,71,1,1,2,19,43,320.5306314001791,324.18396600009874,stimuli/275_yb.png,a,3.641975099919364,ambig,0.333,4.836065574,2.138382004,0.27379176
030,71,1,1,2,20,44,324.7638387000188,327.83188390010037,stimuli/202_yb.png,a,3.056667699944228,ambig,0.333,5.431034483,1.892849601,0.248543329
030,71,1,1,2,21,45,328.45893590012565,333.03188070002943,stimuli/248_zb.png,a,4.561458099866286,awful,0.333,3.288135593,1.991800844,0.259310383
030,71,1,1,2,22,46,333.6562117000576,339.74391690013,stimuli/141_xc.png,a,6.075788400135934,harmless,0.333,6.508474576,1.040107444,0.135410455
030,71,1,1,2,23,47,340.3896993000526,348.59189300006256,stimuli/117_xc.png,a,8.190768700093031,harmless,0.333,6.627118644,0.868972939,0.113130641
030,71,1,1,2,24,48,349.15278890007176,351.9919388999697,stimuli/212_ya.png,a,2.8276191998738796,ambig,0.333,5.677966102,1.490668422,0.194068498
030,71,1,1,3,1,49,360.68919710000046,366.90386880002916,stimuli/342_yb.png,a,6.203277699882165,ambig,0.333,4.916666667,2.085394461,0.269223267
030,71,1,1,3,2,50,367.46999310003594,372.62386670010164,stimuli/324_za.png,a,5.14220939995721,awful,0.333,2.491525424,1.994586478,0.259673041
030,71,1,1,3,3,51,373.2408920000307,379.3518215001095,stimuli/211_zb.png,a,6.099495300091803,awful,0.333,3.983333333,2.127237938,0.274625237
030,71,1,1,3,4,52,379.9491596000735,393.45590359997004,stimuli/161_xc.png,l,13.49538329988718,harmless,0.333,6.796610169,0.609682252,0.079373868
030,71,1,1,3,5,53,394.0667051000055,408.6078751999885,stimuli/304_ya.png,a,14.529527699807659,ambig,0.333,4.034482759,2.017167697,0.264867095
030,71,1,1,3,6,54,409.2520207001362,411.42384360008873,stimuli/316_za.png,a,2.1604251000098884,awful,0.333,2.344827586,1.802062407,0.236622386
030,71,1,1,3,7,55,412.0012048999779,423.23189159994945,stimuli/107_xa.png,l,11.219357199966908,harmless,0.333,6.813559322,0.540580029,0.070377525
030,71,1,1,3,8,56,423.85486790002324,429.87985330005176,stimuli/205_yb.png,a,6.013198300031945,ambig,0.333,5.847457627,1.52918233,0.199082582
030,71,1,1,3,9,57,430.47863170015626,435.24783540004864,stimuli/206_xa.png,a,4.757656899979338,harmless,0.333,6.325842697,1.136094431,0.060212884
030,71,1,1,3,10,58,435.8000843001064,440.9598886000458,stimuli/144_xa.png,a,5.148172700079158,harmless,0.333,6.542372881,1.00553698,0.130909764
030,71,1,1,3,11,59,441.5546685999725,443.5438274999615,stimuli/334_za.png,a,1.9777378998696804,awful,0.333,3.333333333,2.214487481,0.285889104
030,71,1,1,3,12,60,444.1326824000571,453.28784819995053,stimuli/195_xc.png,l,9.142530199838802,harmless,0.333,6.637640449,1.001766915,0.05309354
030,71,1,1,3,13,61,453.8686089999974,456.04783950001,stimuli/331_za.png,a,2.167962099891156,awful,0.333,1.983606557,1.638004917,0.209725039
030,71,1,1,3,14,62,456.62631530012004,462.23981570010073,stimuli/251_ya.png,a,5.601907900068909,ambig,0.333,5.655172414,1.792300532,0.235340589
030,71,1,1,3,15,63,462.85963180009276,465.7838267001789,stimuli/174_xc.png,a,2.9116832001600415,harmless,0.333,6.533333333,1.111826512,0.143536185
030,71,1,1,3,16,64,466.38990640011616,474.319799200166,stimuli/182_xb.png,l,7.918186500202864,harmless,0.333,6.542372881,0.988241802,0.128658124
030,71,1,1,3,17,65,474.90507730003446,478.96784100006334,stimuli/142_xa.png,a,4.0507994999643415,harmless,0.333,6.4,1.076718178,0.139003719
030,71,1,1,3,18,66,479.6117377001792,483.39186080009677,stimuli/281_ya.png,a,3.7681365001481026,ambig,0.333,5.881355932,1.543448286,0.200939852
030,71,1,1,3,19,67,483.94778040004894,486.2157887001522,stimuli/361_za.png,a,2.256363600026816,awful,0.333,2.416666667,1.907093508,0.246204713
030,71,1,1,3,20,68,486.8224369001109,490.75982709997334,stimuli/223_yb.png,a,3.925701799802482,ambig,0.333,5.542372881,1.77455224,0.231027024
030,71,1,1,3,21,69,491.3648551001679,494.80782680003904,stimuli/239_ya.png,a,3.4306526000145823,ambig,0.333,5.157894737,1.925296579,0.255011762
030,71,1,1,3,22,70,495.3721140001435,497.27178360009566,stimuli/308_zb.png,a,1.8879871999379247,awful,0.333,1.644067797,1.471132708,0.191525165
030,71,1,1,3,23,71,497.8674023000058,499.56779350014403,stimuli/199_za.png,a,1.6890809000469744,awful,0.333,3.033898305,2.189048775,0.284989876
030,71,1,1,3,24,72,500.14074310008436,503.47179820016026,stimuli/267_ya.png,a,3.319297900190577,ambig,0.333,5.103448276,1.898195405,0.249245267
030,71,1,1,4,1,73,512.0696142001543,522.927824600134,stimuli/126_xa.png,a,10.846373100066558,harmless,0.333,6.6,0.977717855,0.126222832
030,71,1,1,4,2,74,523.5653429001104,532.5278376000933,stimuli/172_xb.png,l,8.950745200039819,harmless,0.333,6.482758621,1.127664553,0.14806961
030,71,1,1,4,3,75,533.1197284001391,536.4797875001095,stimuli/201_yb.png,a,3.347628900082782,ambig,0.333,5.898305085,1.626238682,0.211718243
030,71,1,1,4,4,76,537.0807300000452,539.9678399001714,stimuli/285_yb.png,a,2.87560180015862,ambig,0.333,4.120689655,2.119893958,0.278355714
030,71,1,1,4,5,77,540.523821100127,545.6398173000198,stimuli/265_yb.png,a,5.104266499867663,ambig,0.333,5.627118644,1.856008928,0.241631781
030,71,1,1,4,6,78,546.2768813001458,558.2158021000214,stimuli/119_xc.png,l,11.927294200053439,harmless,0.333,6.694915254,0.914523379,0.119060803
030,71,1,1,4,7,79,558.8422437000554,566.0238785000984,stimuli/121_xc.png,l,7.169953699922189,harmless,0.333,6.508474576,1.006408455,0.131023221
030,71,1,1,4,8,80,566.6107679000124,571.8959179001395,stimuli/130_xc.png,a,5.272530399961397,harmless,0.333,6.644067797,0.960651931,0.125066229
030,71,1,1,4,9,81,572.5071554000024,575.9037654001731,stimuli/245_yb.png,a,3.3843102999962866,ambig,0.333,4.949152542,2.096168334,0.272897873
030,71,1,1,4,10,82,576.5120678001549,578.9197866001632,stimuli/317_za.png,a,2.39594620000571,awful,0.333,3.65,2.03215674,0.262350307
030,71,1,1,4,11,83,579.5166056000162,583.7277945000678,stimuli/228_ya.png,a,4.199914899887517,ambig,0.333,5.442622951,1.793735303,0.229664272
030,71,1,1,4,12,84,584.3348968999926,586.1677779001184,stimuli/303_zb.png,a,1.8213676000013947,awful,0.333,3.620689655,2.158846233,0.283470398
030,71,1,1,4,13,85,586.7935881000012,595.4318063000683,stimuli/319_ya.png,a,8.626357400091365,ambig,0.333,4.216666667,2.108028774,0.272145344
030,71,1,1,4,14,86,595.9897163000423,598.8957891999744,stimuli/340_za.png,a,2.894528399920091,awful,0.333,2.508474576,1.832398855,0.238558011
030,71,1,1,4,15,87,599.4498161999509,601.8478017000016,stimuli/278_xb.png,a,2.386388599872589,harmless,0.333,6.360655738,1.140654591,0.146045855
030,71,1,1,4,16,88,602.3998990000691,604.9597613001242,stimuli/269_za.png,a,2.548253000015393,awful,0.333,3.457627119,2.119873401,0.27598401
030,71,1,1,4,17,89,605.5322744001169,608.2718156999908,stimuli/192_za.png,a,2.7283715000376105,awful,0.333,2.68852459,2.093967396,0.268105052
030,71,1,1,4,18,90,608.8786065999884,613.7437897999771,stimuli/197_xa.png,l,4.852689399849623,harmless,0.333,6.779661017,0.55918033,0.072799078
030,71,1,1,4,19,91,614.2961883000098,617.6158384000883,stimuli/150_xc.png,a,3.308066900121048,harmless,0.333,6.482758621,1.030097582,0.135258439
030,71,1,1,4,20,92,618.1832655000035,620.519819600042,stimuli/321_zb.png,a,2.32599990000017,awful,0.333,2.918032787,2.177881861,0.278849198
030,71,1,1,4,21,93,621.1026719000656,622.9277502000332,stimuli/270_yb.png,a,1.8143736999481916,ambig,0.333,5.534482759,1.912246013,0.251090203
030,71,1,1,4,22,94,623.4922974000219,625.6318256000523,stimuli/247_ya.png,a,2.1287853999529034,ambig,0.333,4.65,2.081598147,0.268733165
030,71,1,1,4,23,95,626.1764216001611,627.6078027000185,stimuli/346_zb.png,a,1.4209189999382943,awful,0.333,1.288135593,0.983499162,0.128040685
030,71,1,1,4,24,96,628.1773511001375,629.4878079001792,stimuli/302_za.png,a,1.2996702000964433,awful,0.333,3.137931034,2.188071937,0.287307921
030,71,1,1,5,1,97,638.2269429001026,641.015826200135,stimuli/260_ya.png,a,2.7779336001258343,ambig,0.25,4.966101695,2.016877936,0.262575142
030,71,1,1,5,2,98,641.7357866000384,644.0398634001613,stimuli/322_za.png,a,2.2928722000215203,awful,0.25,2.406779661,1.975004531,0.257123689
030,71,1,1,5,3,99,644.6180938000325,649.0157697000541,stimuli/336_ya.png,a,4.386325699975714,ambig,0.25,5.033898305,1.884291705,0.245313885
030,71,1,1,5,4,100,649.5671479001176,651.783843900077,stimuli/312_yb.png,a,2.2050002000760287,ambig,0.25,4.677966102,2.112692986,0.275049199
030,71,1,1,5,5,101,652.3935621001292,654.9117868000176,stimuli/214_xb.png,a,2.5074034000281245,harmless,0.25,6.465517241,0.940614156,0.12350869
030,71,1,1,5,6,102,655.4875243999995,659.0877496001776,stimuli/268_zb.png,a,3.5884896002244204,awful,0.25,2.655737705,2.048456703,0.262278005
030,71,1,1,5,7,103,659.6605126000941,669.0557659000624,stimuli/116_xa.png,l,9.383763700025156,harmless,0.25,6.63559322,0.958030802,0.050918763
030,71,1,1,5,8,104,669.6978482999839,670.111786399968,stimuli/149_xa.png,a,0.40256469999440014,harmless,0.25,6.721311475,0.933294301,0.11949609
030,71,1,1,5,9,105,670.668865900021,672.4557529001031,stimuli/103_xb.png,a,1.7747237000148743,harmless,0.25,6.779661017,0.589207434,0.076708274
030,71,1,1,5,10,106,673.0300112999976,679.3357804999687,stimuli/139_xa.png,l,6.294175699818879,harmless,0.25,6.724137931,0.790138861,0.103750315
030,71,1,1,5,11,107,679.8942826001439,682.3278057000134,stimuli/106_xc.png,a,2.421853299951181,harmless,0.25,6.661016949,0.863237081,0.112383896
030,71,1,1,5,12,108,682.8895892000291,685.0478089000098,stimuli/236_yb.png,a,2.1465636000502855,ambig,0.25,5.93442623,1.49297078,0.19115532
030,71,1,1,5,13,109,685.6028466001153,687.5437710999977,stimuli/115_xb.png,a,1.929491899907589,harmless,0.25,6.440677966,1.021681954,0.133011661
030,71,1,1,5,14,110,688.1034015000332,690.2957641000394,stimuli/307_za.png,a,2.18070530006662,awful,0.25,2.93220339,2.172432347,0.282826601
030,71,1,1,5,15,111,690.8502791000064,693.2477557000238,stimuli/329_zb.png,a,2.38574569998309,awful,0.25,2.406779661,1.992387617,0.259386774
030,71,1,1,5,16,112,693.8484690999612,696.6477459000889,stimuli/187_xc.png,a,2.7876518999692053,harmless,0.25,6.224137931,1.185335891,0.155642228
030,71,1,1,5,17,113,697.2886969000101,700.0957708000205,stimuli/320_za.png,a,2.795417199842632,awful,0.25,1.423728814,1.117314975,0.14546202
030,71,1,1,5,18,114,700.6494534001686,702.5517378000077,stimuli/271_ya.png,a,1.8907134998589754,ambig,0.25,5.711864407,1.771915459,0.230683744
030,71,1,1,5,19,115,703.1242297000717,705.5277369001415,stimuli/272_xb.png,a,2.3919606001581997,harmless,0.25,6.355932203,1.029943284,0.134087194
030,71,1,1,5,20,116,706.0806412000675,707.7677446000744,stimuli/147_ya.png,a,1.6754882999230176,ambig,0.25,5.883333333,1.766847875,0.22809908
030,71,1,1,5,21,117,708.3960786000825,710.4397122999653,stimuli/230_yb.png,a,2.0321867999155074,ambig,0.25,4.98245614,1.875511626,0.248417583
030,71,1,1,5,22,118,711.0061527001671,713.0717905000784,stimuli/232_yb.png,a,2.0540072000585496,ambig,0.25,5.483333333,1.845669845,0.238274952
030,71,1,1,5,23,119,713.7133126000408,716.9757928999607,stimuli/327_zb.png,a,3.251056599896401,awful,0.25,2.502808989,1.906990248,0.101070281
030,71,1,1,5,24,120,717.5430344999768,722.4557801000774,stimuli/240_xa.png,a,4.901230399962515,harmless,0.25,6.482758621,1.096107616,0.143925981
030,71,1,1,6,1,121,732.8947616999503,737.6957809999585,stimuli/314_zb.png,a,4.789941399823874,awful,0.166,1.833333333,1.451669602,0.18740974
030,71,1,1,6,2,122,738.2722787000239,741.2077440000139,stimuli/273_ya.png,a,2.923840400064364,ambig,0.166,5.551724138,1.836973233,0.241206403
030,71,1,1,6,3,123,741.7745706001297,749.5837620999664,stimuli/257_yb.png,a,7.797505399910733,ambig,0.166,5.620689655,1.843219782,0.242026615
030,71,1,1,6,4,124,750.2283722001594,752.3277511000633,stimuli/193_xc.png,a,2.0875369000714272,harmless,0.166,6.482758621,1.012923151,0.133003326
030,71,1,1,6,5,125,752.9798298000824,758.1757743000053,stimuli/280_xb.png,a,5.184823399875313,harmless,0.166,6.333333333,1.068289726,0.137915611
030,71,1,1,6,6,126,758.8263942999765,764.2237500001211,stimuli/222_ya.png,a,5.385547900106758,ambig,0.166,5.931034483,1.543089507,0.202617579
030,71,1,1,6,7,127,764.7843278001528,772.1757845999673,stimuli/148_xc.png,l,7.378831599839032,harmless,0.166,6.491525424,1.135218061,0.147792803
030,71,1,1,6,8,128,772.8075825001579,777.1119138000067,stimuli/332_zb.png,a,4.29243339993991,awful,0.166,2.694915254,2.002190501,0.260663001
030,71,1,1,6,9,129,777.681119899964,782.9757584000472,stimuli/194_xb.png,l,5.282967499922961,harmless,0.166,6.586206897,1.026567825,0.134794959
030,71,1,1,6,10,130,783.5631481001619,787.3517092000693,stimuli/225_ya.png,a,3.7767664999701083,ambig,0.166,5.85,1.792876677,0.231459384
030,71,1,1,6,11,131,787.9187390999869,791.855751400115,stimuli/179_xb.png,l,3.9255383000709116,harmless,0.166,6.704918033,0.882123617,0.112944356
030,71,1,1,6,12,132,792.4634964000434,796.3517412999645,stimuli/183_xb.png,a,3.876888999948278,harmless,0.166,6.448275862,1.095003225,0.143780967
030,71,1,1,6,13,133,796.9679130001459,802.2877617001068,stimuli/164_xb.png,l,5.308154900092632,harmless,0.166,6.830508475,0.460604639,0.059965616
030,71,1,1,6,14,134,802.9379610000178,805.5036904001608,stimuli/233_yb.png,a,2.5540503000374883,ambig,0.166,5.318309859,1.922973646,0.102060844
030,71,1,1,6,15,135,806.0944002000615,807.5997266999912,stimuli/328_za.png,a,1.493879099842161,awful,0.166,2.706896552,1.955725922,0.256799395
030,71,1,1,6,16,136,808.1921245001722,810.4797622000333,stimuli/335_yb.png,a,2.276484499918297,ambig,0.166,5.016949153,2.046793332,0.266469795
030,71,1,1,6,17,137,811.087444000179,813.6396925000008,stimuli/301_za.png,a,2.540226799901575,awful,0.166,3.610169492,2.212947396,0.288101212
030,71,1,1,6,18,138,814.2136415999848,817.2477304001804,stimuli/296_yb.png,a,3.022707400145009,ambig,0.166,4.229508197,2.052587332,0.262806878
030,71,1,1,6,19,139,817.8029329001438,822.0557158000302,stimuli/138_xc.png,a,4.241406799992546,harmless,0.166,6.661016949,0.70978796,0.092406522
030,71,1,1,6,20,140,822.6422594999894,830.1357038000133,stimuli/168_xa.png,a,7.482332800049335,harmless,0.166,6.474576271,1.164946827,0.151663159
030,71,1,1,6,21,141,830.7494696001522,832.3836873001419,stimuli/215_yb.png,a,1.622444499982521,ambig,0.166,5.866666667,1.466769385,0.189359113
030,71,1,1,6,22,142,832.9564376000781,837.3037030999549,stimuli/238_xb.png,a,4.335628099972382,harmless,0.166,6.4,1.076718178,0.139003719
030,71,1,1,6,23,143,837.9067043000832,840.0798583000433,stimuli/151_xa.png,a,2.1613906000275165,harmless,0.166,6.610169492,0.947172729,0.123311386
030,71,1,1,6,24,144,840.6764613999985,853.4077576000709,stimuli/154_xc.png,l,12.71959919994697,harmless,0.166,6.5,0.965506805,0.124646393
030,71,1,1,7,1,145,862.5593169000931,867.6317916000262,stimuli/249_ya.png,a,5.06103099999018,ambig,0.083,5.327868852,1.859402337,0.238072074
030,71,1,1,7,2,146,868.1888303000014,870.4557406001259,stimuli/289_yb.png,a,2.255319199990481,ambig,0.083,5.305084746,1.714584873,0.223219937
030,71,1,1,7,3,147,871.0544998000842,872.7276676001493,stimuli/198_yb.png,a,1.6614322001114488,ambig,0.083,5.101694915,1.83542643,0.238952168
030,71,1,1,7,4,148,873.2861061000731,876.8317323999945,stimuli/132_xc.png,a,3.5342395999468863,harmless,0.083,6.627118644,0.692280217,0.090127208
030,71,1,1,7,5,149,877.4414016001392,880.6077185999602,stimuli/184_xb.png,a,3.1543435999192297,harmless,0.083,6.508474576,1.194425,0.15550089
030,71,1,1,7,6,150,881.1747037000023,894.6397298001684,stimuli/143_xb.png,l,13.453247900120914,harmless,0.083,6.655172414,0.738697862,0.096995781
030,71,1,1,7,7,151,895.2426648000255,899.0237037001643,stimuli/173_yb.png,a,3.7695670002140105,ambig,0.083,5.796610169,1.242628763,0.161776485
030,71,1,1,7,8,152,899.6454726001248,904.9277054001577,stimuli/253_ya.png,a,5.2704888000153005,ambig,0.083,5.491803279,1.849531029,0.236808182
030,71,1,1,7,9,153,905.5523247001693,908.8237016999628,stimuli/120_xa.png,a,3.259447299875319,harmless,0.083,6.440677966,1.054893138,0.137335389
030,71,1,1,7,10,154,909.41745180008,914.0557283000089,stimuli/101_xa.png,a,4.626584199955687,harmless,0.083,6.508522727,1.13475832,0.060482822
030,71,1,1,7,11,155,914.635898000095,919.6477171999868,stimuli/135_xa.png,a,5.000637299846858,harmless,0.083,6.508474576,1.179901828,0.153610134
030,71,1,1,7,12,156,920.2490819001105,923.4957445000764,stimuli/162_xa.png,a,3.2348929999861866,harmless,0.083,6.644067797,0.905209289,0.117848212
030,71,1,1,7,13,157,924.1136648000684,926.1997515000403,stimuli/226_yb.png,a,2.0746736999135464,ambig,0.083,5.683333333,1.712285287,0.22105508
030,71,1,1,7,14,158,926.7507740000729,929.0876915000845,stimuli/243_ya.png,a,2.325298000127077,ambig,0.083,5.830508475,1.652088985,0.215083666
030,71,1,1,7,15,159,929.6902444001753,931.5116718001664,stimuli/114_xc.png,a,1.8096161000430584,harmless,0.083,6.644067797,0.97843492,0.127381377
030,71,1,1,7,16,160,932.1211872999556,938.76771130017,stimuli/170_xc.png,a,6.634726200019941,harmless,0.083,6.583333333,1.062323432,0.137145365
030,71,1,1,7,17,161,939.3366798001807,941.1436747000553,stimuli/358_za.png,a,1.7944255999755114,awful,0.083,3.949152542,2.112554662,0.275031191
030,71,1,1,7,18,162,941.7488033999689,945.7596565999556,stimuli/189_yb.png,a,3.9992095998022705,ambig,0.083,5.983333333,1.455459234,0.187898979
030,71,1,1,7,19,163,946.3613211000338,949.6556395001244,stimuli/354_zb.png,a,3.282516000093892,awful,0.083,2,1.701925887,0.221571878
030,71,1,1,7,20,164,950.2556106001139,953.6957346999552,stimuli/136_xc.png,a,3.4287473999429494,harmless,0.083,6.559322034,1.038420326,0.135190811
030,71,1,1,7,21,165,954.2981267001014,960.6796908001415,stimuli/221_xb.png,a,6.370243899989873,harmless,0.083,6.440677966,1.133672495,0.147591588
030,71,1,1,7,22,166,961.279204600025,968.2156684000511,stimuli/102_xc.png,l,6.924803900066763,harmless,0.083,6.66011236,0.937292468,0.049676401
030,71,1,1,7,23,167,968.8095057001337,971.7596591999754,stimuli/127_xb.png,a,2.9386082999408245,harmless,0.083,6.423728814,1.162686987,0.151368953
030,71,1,1,7,24,168,972.3401610001456,974.4956418999936,stimuli/111_xa.png,a,2.144057599827647,harmless,0.083,6.590163934,0.863655973,0.110579816
030,71,1,1,8,1,169,983.0626193000935,987.8797530999873,stimuli/185_xa.png,a,4.804266499821097,harmless,0.0412,6.5,0.965506805,0.124646393
030,71,1,1,8,2,170,988.47271680017,991.5996475000866,stimuli/246_ya.png,a,3.1155560000333935,ambig,0.0412,5.542372881,1.715266481,0.223308675
030,71,1,1,8,3,171,992.184923000168,994.4316547000781,stimuli/330_ya.png,a,2.234498600009829,ambig,0.0412,4.796610169,2.049219036,0.266785595
030,71,1,1,8,4,172,995.0070330000017,1000.0876823000144,stimuli/109_xb.png,l,5.0679581998847425,harmless,0.0412,6.644067797,0.97843492,0.127381377
030,71,1,1,8,5,173,1000.6601502001286,1005.9996716000605,stimuli/131_xb.png,a,5.327838999917731,harmless,0.0412,6.525423729,1.119666394,0.145768149
030,71,1,1,8,6,174,1006.5571743000764,1009.9436616001185,stimuli/188_xa.png,a,3.374830400105566,harmless,0.0412,6.655172414,0.806807095,0.105938962
030,71,1,1,8,7,175,1010.5229197000153,1013.9917158000171,stimuli/244_xb.png,a,3.4574620998464525,harmless,0.0412,6.610169492,0.743174671,0.096753101
030,71,1,1,8,8,176,1014.569729699986,1017.191645800136,stimuli/283_yb.png,a,2.609227100154385,ambig,0.0412,5.949152542,1.478859402,0.192531095
030,71,1,1,8,9,177,1017.8073734999634,1022.7596748000942,stimuli/125_xc.png,l,4.940397399943322,harmless,0.0412,6.683333333,0.999858747,0.129081209
030,71,1,1,8,10,178,1023.377926300047,1027.4396653999574,stimuli/250_yb.png,a,4.049862099811435,ambig,0.0412,5.950819672,1.585625318,0.203018519
030,71,1,1,8,11,179,1028.0105550000444,1029.935633300105,stimuli/191_ya.png,a,1.9126421001274139,ambig,0.0412,5.517241379,2.062542966,0.270825159
030,71,1,1,8,12,180,1030.5454498000909,1033.4716185000725,stimuli/181_xa.png,a,2.914429400116205,harmless,0.0412,6.666666667,0.950765377,0.122743282
030,71,1,1,8,13,181,1034.0888175000437,1042.8716887000483,stimuli/112_xc.png,a,8.77102019987069,harmless,0.0412,6.706896552,0.749470472,0.098410294
030,71,1,1,8,14,182,1043.5083198000211,1046.143710500095,stimuli/339_ya.png,a,2.6236251001246274,ambig,0.0412,4.949152542,1.960152429,0.25519011
030,71,1,1,8,15,183,1046.746824500151,1049.2396233000327,stimuli/371_zb.png,a,2.481081899954006,awful,0.0412,3.131147541,2.085468851,0.267016925
030,71,1,1,8,16,184,1049.8450742000714,1053.4476906000637,stimuli/325_yb.png,a,3.5914300999138504,ambig,0.0412,5.131147541,1.811770863,0.231973488
030,71,1,1,8,17,185,1054.0397359000053,1056.671651700046,stimuli/108_xb.png,a,2.6205708000343293,harmless,0.0412,6.568965517,1.077880782,0.141532681
030,71,1,1,8,18,186,1057.2904613001738,1060.2636494999751,stimuli/231_xb.png,a,2.9613893998321146,harmless,0.0412,6.62295082,1.05141071,0.134619347
030,71,1,1,8,19,187,1060.8258965001442,1063.2476930001285,stimuli/200_ya.png,a,2.4100159001536667,ambig,0.0412,5.862068966,1.444266048,0.189641423
030,71,1,1,8,20,188,1063.8612779001705,1069.5116590999532,stimuli/140_xb.png,a,5.638381299795583,harmless,0.0412,6.724137931,0.790138861,0.103750315
030,71,1,1,8,21,189,1070.0876283999532,1070.9916799999774,stimuli/113_xb.png,a,0.8926156000234187,harmless,0.0412,6.733333333,0.660422737,0.085260209
030,71,1,1,8,22,190,1071.5594813001808,1075.1996371999849,stimuli/156_xc.png,a,3.6284473999403417,harmless,0.0412,6.590163934,0.955284411,0.122311635
030,71,1,1,8,23,191,1075.8523252001032,1078.7836243000347,stimuli/176_xb.png,a,2.920020200079307,harmless,0.0412,6.796610169,0.517942249,0.067430337
030,71,1,1,8,24,192,1079.3349819001742,1083.751632800093,stimuli/169_xc.png,a,4.4050909001380205,harmless,0.0412,6.603448276,0.916508538,0.120343467
030,71,1,1,9,1,193,1092.3460629000328,1101.3436108001042,stimuli/155_xb.png,a,8.985959300072864,harmless,0.0412,6.655737705,0.892286312,0.114245555
030,71,1,1,9,2,194,1101.9621544000693,1104.5836195000447,stimuli/350_ya.png,a,2.6096993999090046,ambig,0.0412,4.915254237,2.02814792,0.264042369
030,71,1,1,9,3,195,1105.1563973000739,1107.239634100115,stimuli/190_xc.png,a,2.0715873001608998,harmless,0.0412,6.517241379,1.046990328,0.137476565
030,71,1,1,9,4,196,1107.8710719000082,1115.383693400072,stimuli/204_xb.png,a,7.501208600122482,harmless,0.0412,6.508474576,0.858484658,0.111765183
030,71,1,1,9,5,197,1115.993210399989,1119.6076311001088,stimuli/180_xc.png,a,3.602552399970591,harmless,0.0412,6.672131148,0.723908638,0.092687003
030,71,1,1,9,6,198,1120.234740999993,1124.3916218001395,stimuli/203_yb.png,a,4.1459403000772,ambig,0.0412,6,1.542501327,0.200816568
030,71,1,1,9,7,199,1124.9502129000612,1131.927665400086,stimuli/216_xa.png,l,6.966398800024763,harmless,0.0412,6.603448276,0.877389573,0.115206895
030,71,1,1,9,8,200,1132.5690238999669,1135.3996645000298,stimuli/227_xa.png,a,2.816860100021586,harmless,0.0412,6.180327869,1.05685377,0.135316259
030,71,1,1,9,9,201,1136.008164800005,1137.7757064001635,stimuli/157_xc.png,a,1.7559121001977473,harmless,0.0412,6.603448276,0.877389573,0.115206895
030,71,1,1,9,10,202,1138.3554189000279,1141.0155711001717,stimuli/241_yb.png,a,2.6488040999975055,ambig,0.0412,5.508474576,1.442852555,0.187843403
030,71,1,1,9,11,203,1141.5927877000067,1144.67967530014,stimuli/219_ya.png,a,3.074112900067121,ambig,0.0412,5.271186441,1.998538332,0.260187529
030,71,1,1,9,12,204,1145.2890004001092,1153.1356031000614,stimuli/152_xa.png,a,7.834847700083628,harmless,0.0412,6.576271186,0.968528743,0.126091702
030,71,1,1,9,13,205,1153.7030388000421,1156.2636061001103,stimuli/137_xa.png,a,2.5492201999295503,harmless,0.0412,6.355932203,1.094858074,0.14253838
030,71,1,1,9,14,206,1156.8783416999504,1158.7996015001554,stimuli/105_xa.png,a,1.9093414000235498,harmless,0.0412,6.557377049,1.088187946,0.139328189
030,71,1,1,9,15,207,1159.4189898001496,1164.903590500122,stimuli/242_xb.png,a,5.472984200110659,harmless,0.0412,6.576271186,0.913564256,0.118935936
030,71,1,1,9,16,208,1165.5325838001445,1169.5676224001218,stimuli/255_xb.png,a,4.023317500017583,harmless,0.0412,6.770491803,0.642740036,0.082294429
030,71,1,1,9,17,209,1170.1600417001173,1172.671608600067,stimuli/370_za.png,a,2.4997243999969214,awful,0.0412,2.393442623,1.882185684,0.240989182
030,71,1,1,9,18,210,1173.2430561000947,1177.1196069000289,stimuli/177_xb.png,a,3.8638186999596655,harmless,0.0412,6.482758621,1.063614811,0.139659467
030,71,1,1,9,19,211,1177.77107909997,1181.223595800111,stimuli/287_ya.png,a,3.4408301999792457,ambig,0.0412,5.950819672,1.407435369,0.180203633
030,71,1,1,9,20,212,1181.8666594000533,1184.2076465999708,stimuli/209_ya.png,a,2.328990399837494,ambig,0.0412,5.603448276,1.825161903,0.239655499
030,71,1,1,9,21,213,1184.841550400015,1187.15158169996,stimuli/213_ya.png,a,2.298150499816984,ambig,0.0412,5.98245614,1.597891781,0.211645937
030,71,1,1,9,22,214,1187.7159113001544,1192.4876470000017,stimuli/160_xb.png,a,4.760069299954921,harmless,0.0412,6.666666667,0.680644427,0.087870818
030,71,1,1,9,23,215,1193.1130693000741,1195.4795991999563,stimuli/277_yb.png,a,2.355067699914798,ambig,0.0412,5.491525424,2.02886822,0.264136144
030,71,1,1,9,24,216,1196.0716945000459,1198.2476204000413,stimuli/234_xb.png,a,2.1644125999882817,harmless,0.0412,6.637931034,0.788030542,0.103473479
030,71,1,1,10,1,217,1207.076628800016,1213.67165750009,stimuli/104_xc.png,l,6.583610400091857,harmless,0.0412,6.745762712,0.756425814,0.098478253
030,71,1,1,10,2,218,1214.3029481000267,1219.6235938000027,stimuli/124_xa.png,l,5.309259499888867,harmless,0.0412,6.344262295,1.181598436,0.151288177
030,71,1,1,10,3,219,1220.2380703000817,1227.9836569000036,stimuli/134_xc.png,l,7.734216199954972,harmless,0.0412,6.516666667,0.965360505,0.124627505
030,71,1,1,10,4,220,1228.6240558000281,1231.6795646999963,stimuli/263_ya.png,a,3.0435542999766767,ambig,0.0412,4.983050847,2.071910042,0.269739712
030,71,1,1,10,5,221,1232.2958821000066,1234.6236191999633,stimuli/217_yb.png,a,2.31601329986006,ambig,0.0412,5.169491525,2.001314588,0.260548967
030,71,1,1,10,6,222,1235.2391858000774,1238.855594499968,stimuli/235_ya.png,a,3.605057699838653,ambig,0.0412,5.694915254,1.567495667,0.204070554
030,71,1,1,10,7,223,1239.4114334001206,1241.3356189001352,stimuli/208_xb.png,a,1.9124843999743462,harmless,0.0412,6.216666667,1.165778516,0.150501359
030,71,1,1,10,8,224,1241.8815669000614,1248.879559900146,stimuli/153_xb.png,l,6.986275400035083,harmless,0.0412,6.633333333,0.973664521,0.125699549
030,71,1,1,10,9,225,1249.4983475999907,1251.9756736001,stimuli/288_yb.png,a,2.4659631999675184,ambig,0.0412,5.189655172,1.914459262,0.251380817
030,71,1,1,10,10,226,1252.588019600138,1255.9675483000465,stimuli/159_xa.png,a,3.3678134998772293,harmless,0.0412,6.389830508,1.174689235,0.152931512
030,71,1,1,10,11,227,1256.524097400019,1258.5435614001472,stimuli/178_xa.png,a,2.0077319000847638,harmless,0.0412,6.483333333,1.112207557,0.143585378
030,71,1,1,10,12,228,1259.1646569999866,1262.223576999968,stimuli/165_xb.png,a,3.04723639995791,harmless,0.0412,6.557377049,1.008705278,0.129151477
030,71,1,1,10,13,229,1262.854880800005,1267.3515481001232,stimuli/167_xb.png,a,4.4848062000237405,harmless,0.0412,6.590163934,0.955284411,0.122311635
030,71,1,1,10,14,230,1267.9611862001475,1270.343580200104,stimuli/315_yb.png,a,2.3709966000169516,ambig,0.0412,5.050847458,1.915667965,0.249398726
030,71,1,1,10,15,231,1270.9065015001688,1274.2476070001721,stimuli/254_ya.png,a,3.329434300074354,ambig,0.0412,5.983606557,1.627798137,0.208418195
030,71,1,1,10,16,232,1274.8404349000193,1277.4556255000643,stimuli/123_xc.png,a,2.6038565998896956,harmless,0.0412,6.491525424,1.023396666,0.133234897
030,71,1,1,10,17,233,1278.0847046000417,1282.4556335001253,stimuli/129_xa.png,a,4.35912590008229,harmless,0.0412,6.770491803,0.642740036,0.082294429
030,71,1,1,10,18,234,1283.0573186001275,1289.1915770999622,stimuli/110_xa.png,a,6.122899999842048,harmless,0.0412,6.428571429,1.059281795,0.141552484
030,71,1,1,10,19,235,1289.7994463001378,1292.8715743001085,stimuli/274_xb.png,a,3.0606970000080764,harmless,0.0412,6.491525424,1.179901828,0.153610134
030,71,1,1,10,20,236,1293.4743467001244,1295.3355344999582,stimuli/292_zb.png,a,1.8495753000024706,awful,0.0412,2.396551724,1.955107169,0.256718148
030,71,1,1,10,21,237,1295.9400329999626,1298.0635637999512,stimuli/237_ya.png,a,2.1118302999529988,ambig,0.0412,4.305084746,2.019339575,0.26289562
030,71,1,1,10,22,238,1298.6848055000883,1301.0395941000897,stimuli/118_xb.png,a,2.3430035000201315,harmless,0.0412,6.474576271,0.953323265,0.124112118
030,71,1,1,10,23,239,1301.6259727999568,1304.0635711001232,stimuli/166_xa.png,a,2.424642600119114,harmless,0.0412,6.593220339,1.052397002,0.13701042
030,71,1,1,10,24,240,1304.6268009000923,1307.8396062999964,stimuli/210_yb.png,a,3.201177599839866,ambig,0.0412,5.557377049,1.76564049,0.226067099
