id,age,condition,counterbalance,block,trialinblock,trial,tstart,tend,trialstim,response,RT,trialtype,ethicfreq,norm_mean,norm_sd,norm_se
028,81,1,2,0,0,practice,3.5446137189865112e-06,23.783907770644873,stimuli/prac_217_1.png,a,23.764956298749894,harmless,NA,NA,NA,NA
028,81,1,2,1,1,1,5.223481172695756,19.615766676259227,stimuli/113_xb.png,l,14.380490212119184,harmless,0.333,6.733333333,0.660422737,0.085260209
028,81,1,2,1,2,2,20.171072489698417,31.463779566111043,stimuli/202_yb.png,a,11.280753458850086,ambig,0.333,5.431034483,1.892849601,0.248543329
028,81,1,2,1,3,3,32.13068201520946,45.27179819019511,stimuli/266_zb.png,a,13.1293945327634,awful,0.333,3.491525424,1.888010094,0.245797978
028,81,1,2,1,4,4,45.82601344434079,61.32773533870932,stimuli/296_yb.png,l,15.490294454968534,ambig,0.333,4.229508197,2.052587332,0.262806878
028,81,1,2,1,5,5,61.884977298788726,85.92007645347621,stimuli/183_xb.png,a,24.023016749531962,harmless,0.333,6.448275862,1.095003225,0.143780967
028,81,1,2,1,6,6,86.47609079570975,94.32772194803692,stimuli/111_xa.png,l,7.8395507163368165,harmless,0.333,6.590163934,0.863655973,0.110579816
028,81,1,2,1,7,7,94.87417607440148,117.00775128160603,stimuli/224_yb.png,l,22.121530217467807,ambig,0.333,5.881355932,1.609077116,0.209483997
028,81,1,2,1,8,8,117.55888862989377,131.62373378546908,stimuli/257_yb.png,a,14.0529840918025,ambig,0.333,5.620689655,1.843219782,0.242026615
028,81,1,2,1,9,9,132.18042829958722,140.91173952294048,stimuli/294_za.png,a,8.71920479356777,awful,0.333,1.557377049,1.38473331,0.177296933
028,81,1,2,1,10,10,141.57668455783278,150.4397128233686,stimuli/320_za.png,a,8.850728851277381,awful,0.333,1.423728814,1.117314975,0.14546202
028,81,1,2,1,11,11,150.99958961259108,160.6236951885512,stimuli/317_za.png,l,9.61185106006451,awful,0.333,3.65,2.03215674,0.262350307
028,81,1,2,1,12,12,161.1783385531744,180.8957021170063,stimuli/148_xc.png,l,19.70562577387318,harmless,0.333,6.491525424,1.135218061,0.147792803
028,81,1,2,1,13,13,181.46090212778654,194.6157107501058,stimuli/300_za.png,a,13.143322893767618,awful,0.333,3.75,2.12032137,0.273732312
028,81,1,2,1,14,14,195.1687527372269,211.35969514760654,stimuli/198_yb.png,l,16.17896910046693,ambig,0.333,5.101694915,1.83542643,0.238952168
028,81,1,2,1,15,15,211.9164030525135,231.3356449464336,stimuli/211_zb.png,a,19.407484805444255,awful,0.333,3.983333333,2.127237938,0.274625237
028,81,1,2,1,16,16,231.90337778022513,248.87161607586313,stimuli/340_za.png,a,16.956122807459906,awful,0.333,2.508474576,1.832398855,0.238558011
028,81,1,2,1,17,17,249.42709281854331,267.55972200783435,stimuli/283_yb.png,a,18.120670451782644,ambig,0.333,5.949152542,1.478859402,0.192531095
028,81,1,2,1,18,18,268.1201174921589,279.6716089078691,stimuli/271_ya.png,l,11.539554339717142,ambig,0.333,5.711864407,1.771915459,0.230683744
028,81,1,2,1,19,19,280.22416252607945,292.7596381974872,stimuli/144_xa.png,l,12.523483063094318,harmless,0.333,6.542372881,1.00553698,0.130909764
028,81,1,2,1,20,20,293.3123367509106,306.8236562765669,stimuli/204_xb.png,l,13.499051225255243,harmless,0.333,6.508474576,0.858484658,0.111765183
028,81,1,2,1,21,21,307.37479598785285,318.7916086401092,stimuli/255_xb.png,l,11.404801139375195,harmless,0.333,6.770491803,0.642740036,0.082294429
028,81,1,2,1,22,22,319.4038330661133,339.6715667663375,stimuli/344_za.png,a,20.255916747264564,awful,0.333,2.711864407,2.043077863,0.265986082
028,81,1,2,1,23,23,340.2296444674721,356.97565402055625,stimuli/145_xa.png,l,16.734139037085697,harmless,0.333,6.661016949,0.822321556,0.107057148
028,81,1,2,1,24,24,357.5337269954616,368.7355261624325,stimuli/209_ya.png,l,11.189907383173704,ambig,0.333,5.603448276,1.825161903,0.239655499
028,81,1,2,2,1,25,392.41269263008144,408.94358432875015,stimuli/312_yb.png,l,16.519067656365223,ambig,0.333,4.677966102,2.112692986,0.275049199
028,81,1,2,2,2,26,409.55290926108137,420.09554347593803,stimuli/372_zb.png,a,10.530940141761675,awful,0.333,2.796610169,2.082601664,0.271131643
028,81,1,2,2,3,27,420.65605672018137,431.43961751263123,stimuli/190_xc.png,l,10.77160441793967,harmless,0.333,6.517241379,1.046990328,0.137476565
028,81,1,2,2,4,28,431.99543256894685,443.95952209166717,stimuli/290_zb.png,a,11.952172139077447,awful,0.333,2.586206897,2.026443456,0.266085062
028,81,1,2,2,5,29,444.5138803118607,456.5515233173501,stimuli/220_yb.png,l,12.025592501857318,ambig,0.333,4.75,2.096203186,0.270618668
028,81,1,2,2,6,30,457.1109318237286,468.6955110230483,stimuli/269_za.png,a,11.57254523714073,awful,0.333,3.457627119,2.119873401,0.27598401
028,81,1,2,2,7,31,469.2531688843155,479.2475672138389,stimuli/331_za.png,a,9.982495124218985,awful,0.333,1.983606557,1.638004917,0.209725039
028,81,1,2,2,8,32,479.8079733320046,491.9835155790206,stimuli/118_xb.png,l,12.163525614188984,harmless,0.333,6.474576271,0.953323265,0.124112118
028,81,1,2,2,9,33,492.5380785991438,507.0314816798782,stimuli/152_xa.png,l,14.481378964846954,harmless,0.333,6.576271186,0.968528743,0.126091702
028,81,1,2,2,10,34,507.5886369938962,518.9194644168019,stimuli/165_xb.png,l,11.318829300813377,harmless,0.333,6.557377049,1.008705278,0.129151477
028,81,1,2,2,11,35,519.4674793547019,529.8714636574732,stimuli/241_yb.png,a,10.392484789597802,ambig,0.333,5.508474576,1.442852555,0.187843403
028,81,1,2,2,12,36,530.4310289146379,542.0794851961546,stimuli/337_zb.png,a,11.636438467074186,awful,0.333,3.033333333,2.20143764,0.284204377
028,81,1,2,2,13,37,542.6386329765664,554.3275841019349,stimuli/305_zb.png,a,11.677112510777079,awful,0.333,2.75,2.12830003,0.274762352
028,81,1,2,2,14,38,554.9422342249891,566.6714198618429,stimuli/345_zb.png,a,11.717525828396901,awful,0.333,3.694915254,2.191317013,0.285285176
028,81,1,2,2,15,39,567.2302655624226,577.9114177508745,stimuli/236_yb.png,l,10.669398644589819,ambig,0.333,5.93442623,1.49297078,0.19115532
028,81,1,2,2,16,40,578.464497547131,589.29552504397,stimuli/131_xb.png,l,10.819055368425325,harmless,0.333,6.525423729,1.119666394,0.145768149
028,81,1,2,2,17,41,589.846738404478,601.6234352502506,stimuli/228_ya.png,a,11.76473416981753,ambig,0.333,5.442622951,1.793735303,0.229664272
028,81,1,2,2,18,42,602.1926020770334,614.7434389208211,stimuli/186_xa.png,l,12.538984838523902,harmless,0.333,6.65,0.879618561,0.113558268
028,81,1,2,2,19,43,615.299186235643,631.7754483541939,stimuli/273_ya.png,l,16.464434531750157,ambig,0.333,5.551724138,1.836973233,0.241206403
028,81,1,2,2,20,44,632.3322996190982,648.0633796548937,stimuli/351_zb.png,l,15.719138233573176,awful,0.333,3.06779661,2.033040926,0.264679384
028,81,1,2,2,21,45,648.6213427467737,660.95163178246,stimuli/191_ya.png,a,12.318390556494705,ambig,0.333,5.517241379,2.062542966,0.270825159
028,81,1,2,2,22,46,661.5157676214585,680.2233811357291,stimuli/168_xa.png,l,18.695762296556495,harmless,0.333,6.474576271,1.164946827,0.151663159
028,81,1,2,2,23,47,680.7846056657145,694.6239188930485,stimuli/335_yb.png,l,13.827609308063984,ambig,0.333,5.016949153,2.046793332,0.266469795
028,81,1,2,2,24,48,695.1878507198999,704.3354110019282,stimuli/169_xc.png,l,9.135581458336674,harmless,0.333,6.603448276,0.916508538,0.120343467
028,81,1,2,3,1,49,716.2945636659861,734.2393917602021,stimuli/342_yb.png,l,17.93281027977355,ambig,0.333,4.916666667,2.085394461,0.269223267
028,81,1,2,3,2,50,734.8793598744087,748.7673642728478,stimuli/343_zb.png,a,13.87600706401281,awful,0.333,3.103448276,2.141401862,0.28117984
028,81,1,2,3,3,51,749.3211143949302,763.8633579146117,stimuli/314_zb.png,a,14.53029502206482,awful,0.333,1.833333333,1.451669602,0.18740974
028,81,1,2,3,4,52,764.4164648862788,774.8313161858823,stimuli/215_yb.png,l,10.4029796019895,ambig,0.333,5.866666667,1.466769385,0.189359113
028,81,1,2,3,5,53,775.4461659888038,785.2713255751878,stimuli/313_zb.png,a,9.813493476365693,awful,0.333,2.101694915,1.688652955,0.219843889
028,81,1,2,3,6,54,785.8291567286942,795.7513213531347,stimuli/295_za.png,a,9.910208643879741,awful,0.333,2.3,1.825432384,0.235662307
028,81,1,2,3,7,55,796.3086554730544,810.6873505355325,stimuli/196_xb.png,a,14.366683943429962,harmless,0.333,6.594366197,0.982313556,0.05213579
028,81,1,2,3,8,56,811.2386103698518,823.967302911682,stimuli/222_ya.png,l,12.716703084297478,ambig,0.333,5.931034483,1.543089507,0.202617579
028,81,1,2,3,9,57,824.527073756326,842.2713208489586,stimuli/151_xa.png,a,17.732388391857967,harmless,0.333,6.610169492,0.947172729,0.123311386
028,81,1,2,3,10,58,842.8254297646927,866.8552998270607,stimuli/281_ya.png,l,24.017865638714284,ambig,0.333,5.881355932,1.543448286,0.200939852
028,81,1,2,3,11,59,867.4116969875759,874.7192307874793,stimuli/150_xc.png,l,7.295656982227229,harmless,0.333,6.482758621,1.030097582,0.135258439
028,81,1,2,3,12,60,875.282424153178,885.9592586087529,stimuli/206_xa.png,l,10.664945034892298,harmless,0.333,6.325842697,1.136094431,0.060212884
028,81,1,2,3,13,61,886.5119035991374,897.35923395399,stimuli/171_xa.png,l,10.835498435655609,harmless,0.333,6.465517241,1.046556882,0.137419651
028,81,1,2,3,14,62,897.935871250229,910.2952670748346,stimuli/352_zb.png,a,12.34778800373897,awful,0.333,2.93442623,2.135952968,0.273480754
028,81,1,2,3,15,63,910.8483661696082,924.0152646802599,stimuli/203_yb.png,l,13.155015391530469,ambig,0.333,6,1.542501327,0.200816568
028,81,1,2,3,16,64,924.5734743197681,937.6472944361158,stimuli/164_xb.png,l,13.061781428172253,harmless,0.333,6.830508475,0.460604639,0.059965616
028,81,1,2,3,17,65,938.1998728666222,950.2952383240918,stimuli/301_za.png,a,12.08347839990165,awful,0.333,3.610169492,2.212947396,0.288101212
028,81,1,2,3,18,66,950.8566105463542,964.0152382926317,stimuli/219_ya.png,l,13.146674522664398,ambig,0.333,5.271186441,1.998538332,0.260187529
028,81,1,2,3,19,67,964.5715578654781,973.3992329457542,stimuli/156_xc.png,l,8.815656872000545,harmless,0.333,6.590163934,0.955284411,0.122311635
028,81,1,2,3,20,68,974.0396673735231,984.9432034797501,stimuli/248_zb.png,l,10.891381233348511,awful,0.333,3.288135593,1.991800844,0.259310383
028,81,1,2,3,21,69,985.4903744057519,994.9832016838482,stimuli/322_za.png,l,9.480837032897398,awful,0.333,2.406779661,1.975004531,0.257123689
028,81,1,2,3,22,70,995.5344067735132,1008.839230519603,stimuli/253_ya.png,l,13.29285201150924,ambig,0.333,5.491803279,1.849531029,0.236808182
028,81,1,2,3,23,71,1009.4027803159552,1019.8151429031277,stimuli/123_xc.png,l,10.40044717269484,harmless,0.333,6.491525424,1.023396666,0.133234897
028,81,1,2,3,24,72,1020.3815276023233,1035.0391896384535,stimuli/319_ya.png,l,14.64559065864887,ambig,0.333,4.216666667,2.108028774,0.272145344
028,81,1,2,4,1,73,1192.5663075054763,1205.743056890322,stimuli/325_yb.png,l,13.165063188644126,ambig,0.333,5.131147541,1.811770863,0.231973488
028,81,1,2,4,2,74,1206.296189068118,1224.4710491740843,stimuli/127_xb.png,l,18.16293602681253,harmless,0.333,6.423728814,1.162686987,0.151368953
028,81,1,2,4,3,75,1225.0205812063068,1236.023041955661,stimuli/264_xa.png,l,10.990583931677975,harmless,0.333,6.533333333,0.947193297,0.122282129
028,81,1,2,4,4,76,1236.5826761358185,1247.9430349137401,stimuli/193_xc.png,l,11.348459511063993,harmless,0.333,6.482758621,1.012923151,0.133003326
028,81,1,2,4,5,77,1248.5086047457298,1261.1351809171028,stimuli/307_za.png,l,12.614827353740111,awful,0.333,2.93220339,2.172432347,0.282826601
028,81,1,2,4,6,78,1261.6838307345752,1277.0630878150696,stimuli/261_yb.png,a,15.367509050527588,ambig,0.333,5.706896552,1.901141123,0.249632059
028,81,1,2,4,7,79,1277.6128081057686,1289.4230015471112,stimuli/182_xb.png,l,11.798230765387416,harmless,0.333,6.542372881,0.988241802,0.128658124
028,81,1,2,4,8,80,1290.079348531668,1304.319067577715,stimuli/370_za.png,l,14.227253034943715,awful,0.333,2.393442623,1.882185684,0.240989182
028,81,1,2,4,9,81,1304.8719319403172,1316.7270962843904,stimuli/245_yb.png,l,11.843185126548633,ambig,0.333,4.949152542,2.096168334,0.272897873
028,81,1,2,4,10,82,1317.2819137289189,1328.2470244941069,stimuli/309_ya.png,l,10.95303032931406,ambig,0.333,4.706896552,1.946734744,0.255618795
028,81,1,2,4,11,83,1328.85469921201,1337.9509972967207,stimuli/292_zb.png,l,9.084499248536304,awful,0.333,2.396551724,1.955107169,0.256718148
028,81,1,2,4,12,84,1338.501778608188,1347.9750463162782,stimuli/201_yb.png,l,9.46147123503033,ambig,0.333,5.898305085,1.626238682,0.211718243
028,81,1,2,4,13,85,1348.5263364767889,1359.9669791703345,stimuli/167_xb.png,l,11.428761543589644,harmless,0.333,6.590163934,0.955284411,0.122311635
028,81,1,2,4,14,86,1360.5211451937212,1380.9670772380196,stimuli/155_xb.png,l,20.43393589137122,harmless,0.333,6.655737705,0.892286312,0.114245555
028,81,1,2,4,15,87,1381.5738768302836,1393.3029785780236,stimuli/371_zb.png,l,11.71722532401327,awful,0.333,3.131147541,2.085468851,0.267016925
028,81,1,2,4,16,88,1393.9012907906435,1410.2309965405148,stimuli/362_zb.png,a,16.318279491970316,awful,0.333,1.474576271,1.222715071,0.159183944
028,81,1,2,4,17,89,1410.7938181157224,1422.9749604578828,stimuli/250_yb.png,l,12.169120983104222,ambig,0.333,5.950819672,1.585625318,0.203018519
028,81,1,2,4,18,90,1423.5401076932903,1439.8310802720953,stimuli/367_zb.png,a,16.278760204440914,awful,0.333,3.413793103,2.086165649,0.27392697
028,81,1,2,4,19,91,1440.3968296978856,1450.2792899273336,stimuli/124_xa.png,l,9.870485344203189,harmless,0.333,6.344262295,1.181598436,0.151288177
028,81,1,2,4,20,92,1450.8314422165276,1462.926942763268,stimuli/327_zb.png,a,12.083554018405266,awful,0.333,2.502808989,1.906990248,0.101070281
028,81,1,2,4,21,93,1463.4796161105623,1473.6869318772806,stimuli/267_ya.png,a,10.195667773601599,ambig,0.333,5.103448276,1.898195405,0.249245267
028,81,1,2,4,22,94,1474.2479606658453,1496.6149222706445,stimuli/321_zb.png,l,22.354661008925177,awful,0.333,2.918032787,2.177881861,0.278849198
028,81,1,2,4,23,95,1497.1767422956182,1506.6309143842664,stimuli/185_xa.png,l,9.442458323203027,harmless,0.333,6.5,0.965506805,0.124646393
028,81,1,2,4,24,96,1507.1940935715102,1516.118883966701,stimuli/230_yb.png,a,8.913251891266555,ambig,0.333,4.98245614,1.875511626,0.248417583
028,81,1,2,5,1,97,1527.310526241199,1539.8148691802053,stimuli/329_zb.png,l,12.49267092125956,awful,0.25,2.406779661,1.992387617,0.259386774
028,81,1,2,5,2,98,1540.3624071705854,1549.5188435581513,stimuli/226_yb.png,l,9.144849834381603,ambig,0.25,5.683333333,1.712285287,0.22105508
028,81,1,2,5,3,99,1550.081255139783,1559.3668532972224,stimuli/195_xc.png,l,9.273543715360574,harmless,0.25,6.637640449,1.001766915,0.05309354
028,81,1,2,5,4,100,1559.9337086422602,1571.5108516367618,stimuli/234_xb.png,l,11.565296109183691,harmless,0.25,6.637931034,0.788030542,0.103473479
028,81,1,2,5,5,101,1572.0716133977985,1580.3828257184941,stimuli/260_ya.png,l,8.299544635345228,ambig,0.25,4.966101695,2.016877936,0.262575142
028,81,1,2,5,6,102,1580.9348846662324,1592.9988582407823,stimuli/159_xa.png,l,12.051982147851959,harmless,0.25,6.389830508,1.174689235,0.152931512
028,81,1,2,5,7,103,1593.5542889033677,1609.5190117303282,stimuli/268_zb.png,l,15.95274872938171,awful,0.25,2.655737705,2.048456703,0.262278005
028,81,1,2,5,8,104,1610.0634383379947,1632.894865194452,stimuli/130_xc.png,a,22.819557915790938,harmless,0.25,6.644067797,0.960651931,0.125066229
028,81,1,2,5,9,105,1633.454897159012,1642.9908261470264,stimuli/254_ya.png,l,9.52392338286154,ambig,0.25,5.983606557,1.627798137,0.208418195
028,81,1,2,5,10,106,1643.5450347057777,1652.295016195043,stimuli/109_xb.png,l,8.737855761079118,harmless,0.25,6.644067797,0.97843492,0.127381377
028,81,1,2,5,11,107,1652.842198936385,1666.1704013763228,stimuli/286_ya.png,l,13.31624409626238,ambig,0.25,5.06779661,1.779814082,0.231712057
028,81,1,2,5,12,108,1666.7243519659387,1679.614801359945,stimuli/360_za.png,a,12.878489474882372,awful,0.25,3.2,2.207844259,0.285031468
028,81,1,2,5,13,109,1680.1728054118576,1692.9428143600235,stimuli/200_ya.png,l,12.758047453709878,ambig,0.25,5.862068966,1.444266048,0.189641423
028,81,1,2,5,14,110,1693.4951391536742,1705.5267838857835,stimuli/251_ya.png,l,12.019529637764208,ambig,0.25,5.655172414,1.792300532,0.235340589
028,81,1,2,5,15,111,1706.0714515270665,1714.1667890214594,stimuli/346_zb.png,a,8.083157415385358,awful,0.25,1.288135593,0.983499162,0.128040685
028,81,1,2,5,16,112,1714.717974025174,1724.4548144513974,stimuli/247_ya.png,l,9.72482182411477,ambig,0.25,4.65,2.081598147,0.268733165
028,81,1,2,5,17,113,1725.077416717424,1739.558812223724,stimuli/373_zb.png,a,14.469631328713149,awful,0.25,2.327586207,1.858011869,0.243968911
028,81,1,2,5,18,114,1740.109628587612,1751.92673205561,stimuli/162_xa.png,l,11.805059659760445,harmless,0.25,6.644067797,0.905209289,0.117848212
028,81,1,2,5,19,115,1752.4839157264214,1761.8387378184125,stimuli/173_yb.png,l,9.342816486721858,ambig,0.25,5.796610169,1.242628763,0.161776485
028,81,1,2,5,20,116,1762.4002604897832,1772.4547388328938,stimuli/238_xb.png,l,10.042971740709618,harmless,0.25,6.4,1.076718178,0.139003719
028,81,1,2,5,21,117,1773.004850606434,1781.7267374907387,stimuli/160_xb.png,l,8.710469684912823,harmless,0.25,6.666666667,0.680644427,0.087870818
028,81,1,2,5,22,118,1782.2806833542418,1804.0227631127927,stimuli/142_xa.png,l,21.73024311324116,harmless,0.25,6.4,1.076718178,0.139003719
028,81,1,2,5,23,119,1804.593069335795,1816.1347547757905,stimuli/355_zb.png,l,11.530003576073796,awful,0.25,3.183333333,2.070713188,0.267327923
028,81,1,2,5,24,120,1816.7119800840737,1827.134772498859,stimuli/181_xa.png,l,10.410514268209226,harmless,0.25,6.666666667,0.950765377,0.122743282
028,81,1,2,6,1,121,1838.530912572518,1856.6947339649778,stimuli/291_za.png,l,18.152215540758334,awful,0.166,2.593220339,1.830005126,0.238246374
028,81,1,2,6,2,122,1857.2392846341245,1877.4946779601742,stimuli/175_xb.png,l,20.2432648409158,harmless,0.166,6.6,1.028409995,0.13276716
028,81,1,2,6,3,123,1878.0775021819863,1886.838657079963,stimuli/184_xb.png,l,8.749208369641565,harmless,0.166,6.508474576,1.194425,0.15550089
028,81,1,2,6,4,124,1887.3898322373861,1901.1986590335146,stimuli/338_zb.png,l,13.796581338741817,awful,0.166,3.310344828,2.137443107,0.28066003
028,81,1,2,6,5,125,1901.757894641487,1915.5027120230952,stimuli/189_yb.png,l,13.733154028421268,ambig,0.166,5.983333333,1.455459234,0.187898979
028,81,1,2,6,6,126,1916.0518313047942,1923.7189444614341,stimuli/107_xa.png,l,7.655378517345525,harmless,0.166,6.813559322,0.540580029,0.070377525
028,81,1,2,6,7,127,1924.2865032154368,1935.1186291484628,stimuli/318_za.png,l,10.820119540090673,awful,0.166,3.06557377,2.197489875,0.281359747
028,81,1,2,6,8,128,1935.6686653034994,1947.8946119515458,stimuli/263_ya.png,l,12.2140670735389,ambig,0.166,4.983050847,2.071910042,0.269739712
028,81,1,2,6,9,129,1948.4587277044775,1958.566617068369,stimuli/117_xc.png,l,10.095834527979605,harmless,0.166,6.627118644,0.868972939,0.113130641
028,81,1,2,6,10,130,1959.1288147916785,1970.3026477474486,stimuli/197_xa.png,l,11.162450808682479,harmless,0.166,6.779661017,0.55918033,0.072799078
028,81,1,2,6,11,131,1970.864633581601,1982.414577970514,stimuli/284_ya.png,l,11.53802621748764,ambig,0.166,5.948275862,1.431750417,0.18799804
028,81,1,2,6,12,132,1982.9765193000203,1997.262631032616,stimuli/110_xa.png,l,14.274169930373318,harmless,0.166,6.428571429,1.059281795,0.141552484
028,81,1,2,6,13,133,1997.8270189330215,2010.790629539173,stimuli/170_xc.png,l,12.95172394241672,harmless,0.166,6.583333333,1.062323432,0.137145365
028,81,1,2,6,14,134,2011.3556538945995,2022.5986198063474,stimuli/231_xb.png,l,11.231062312726863,harmless,0.166,6.62295082,1.05141071,0.134619347
028,81,1,2,6,15,135,2023.15456286259,2034.1425801004516,stimuli/108_xb.png,l,10.9760636202991,harmless,0.166,6.568965517,1.077880782,0.141532681
028,81,1,2,6,16,136,2034.7094590762863,2054.2225706009194,stimuli/210_yb.png,l,19.501093316357583,ambig,0.166,5.557377049,1.76564049,0.226067099
028,81,1,2,6,17,137,2054.786095584859,2064.918553845142,stimuli/239_ya.png,l,10.121279337676242,ambig,0.166,5.157894737,1.925296579,0.255011762
028,81,1,2,6,18,138,2065.4767654538155,2080.398524810793,stimuli/180_xc.png,l,14.910222428501584,harmless,0.166,6.672131148,0.723908638,0.092687003
028,81,1,2,6,19,139,2080.963054495747,2094.326577825588,stimuli/262_ya.png,l,13.351840284420177,ambig,0.166,5.491525424,1.7750462,0.231091332
028,81,1,2,6,20,140,2094.8821494850563,2104.9187003558036,stimuli/132_xc.png,l,10.024642939330079,harmless,0.166,6.627118644,0.692280217,0.090127208
028,81,1,2,6,21,141,2105.472302391776,2113.454555694596,stimuli/368_za.png,l,7.970267389900982,awful,0.166,3.590163934,2.02794682,0.259651984
028,81,1,2,6,22,142,2114.0093837729655,2122.438494657981,stimuli/158_xa.png,l,8.417133242823184,harmless,0.166,6.786885246,0.661179605,0.084655374
028,81,1,2,6,23,143,2122.9878120442154,2146.6625551778125,stimuli/147_ya.png,a,23.663134131231345,ambig,0.166,5.883333333,1.766847875,0.22809908
028,81,1,2,6,24,144,2147.216462444514,2158.718489569379,stimuli/289_yb.png,l,11.49008689809125,ambig,0.166,5.305084746,1.714584873,0.223219937
028,81,1,2,7,1,145,2170.8478986745467,2179.022468122188,stimuli/103_xb.png,l,8.16328694357071,harmless,0.083,6.779661017,0.589207434,0.076708274
028,81,1,2,7,2,146,2179.584666239214,2188.1185216284357,stimuli/102_xc.png,l,8.522081365343183,harmless,0.083,6.66011236,0.937292468,0.049676401
028,81,1,2,7,3,147,2188.681470415904,2198.222538699396,stimuli/141_xc.png,l,9.529258025810122,harmless,0.083,6.508474576,1.040107444,0.135410455
028,81,1,2,7,4,148,2198.7882113251835,2209.6864860437345,stimuli/282_xc.png,l,10.88621515640989,harmless,0.083,6.55,0.998728005,0.128935231
028,81,1,2,7,5,149,2210.2382933238987,2219.174503675429,stimuli/323_yb.png,l,8.924089349457063,ambig,0.083,4.603448276,1.955107169,0.256718148
028,81,1,2,7,6,150,2219.73182794929,2232.982479370432,stimuli/276_ya.png,l,13.23878681275528,ambig,0.083,5.186440678,1.804922162,0.234980851
028,81,1,2,7,7,151,2233.5389986231457,2246.8545026829233,stimuli/265_yb.png,l,13.303837949759327,ambig,0.083,5.627118644,1.856008928,0.241631781
028,81,1,2,7,8,152,2247.4120699596824,2260.6704458808526,stimuli/114_xc.png,l,13.246192297548987,harmless,0.083,6.644067797,0.97843492,0.127381377
028,81,1,2,7,9,153,2261.2236985756317,2270.614455563249,stimuli/349_za.png,l,9.378569819498807,awful,0.083,3.288135593,2.101320172,0.273568585
028,81,1,2,7,10,154,2271.1712205758085,2278.9504537893226,stimuli/179_xb.png,l,7.767214611405507,harmless,0.083,6.704918033,0.882123617,0.112944356
028,81,1,2,7,11,155,2279.5122942943126,2302.6944570912747,stimuli/134_xc.png,a,23.170227690134197,harmless,0.083,6.516666667,0.965360505,0.124627505
028,81,1,2,7,12,156,2303.258564967313,2313.990425211843,stimuli/330_ya.png,a,10.720007845433429,ambig,0.083,4.796610169,2.049219036,0.266785595
028,81,1,2,7,13,157,2314.5443659554003,2325.958418535418,stimuli/126_xa.png,l,11.40222656854894,harmless,0.083,6.6,0.977717855,0.126222832
028,81,1,2,7,14,158,2326.5202633726876,2342.9263685358455,stimuli/339_ya.png,l,16.39418462861795,ambig,0.083,4.949152542,1.960152429,0.25519011
028,81,1,2,7,15,159,2343.4851193196373,2352.606358484947,stimuli/249_ya.png,l,9.109415516955778,ambig,0.083,5.327868852,1.859402337,0.238072074
028,81,1,2,7,16,160,2353.1689090940636,2364.6946729188785,stimuli/133_xa.png,a,11.513881493359804,harmless,0.083,6.568965517,1.186356193,0.1557762
028,81,1,2,7,17,161,2365.242765444331,2374.686389945331,stimuli/129_xa.png,l,9.431793763418682,harmless,0.083,6.770491803,0.642740036,0.082294429
028,81,1,2,7,18,162,2375.231398657197,2388.526386101381,stimuli/208_xb.png,l,13.28335047874134,harmless,0.083,6.216666667,1.165778516,0.150501359
028,81,1,2,7,19,163,2389.07960689452,2397.3584021513816,stimuli/270_yb.png,a,8.266891263891011,ambig,0.083,5.534482759,1.912246013,0.251090203
028,81,1,2,7,20,164,2397.9161962834187,2409.550383133348,stimuli/233_yb.png,l,11.622341540060006,ambig,0.083,5.318309859,1.922973646,0.102060844
028,81,1,2,7,21,165,2410.101441318635,2419.1743618908804,stimuli/187_xc.png,l,9.061391520663165,harmless,0.083,6.224137931,1.185335891,0.155642228
028,81,1,2,7,22,166,2419.731666078558,2432.6943519344786,stimuli/272_xb.png,l,12.950743266032077,harmless,0.083,6.355932203,1.029943284,0.134087194
028,81,1,2,7,23,167,2433.2525320354616,2449.318336599623,stimuli/334_za.png,l,16.053885211236775,awful,0.083,3.333333333,2.214487481,0.285889104
028,81,1,2,7,24,168,2449.8772736726096,2460.934317921987,stimuli/101_xa.png,l,11.04515167803038,harmless,0.083,6.508522727,1.13475832,0.060482822
028,81,1,2,8,1,169,2693.8272906866623,2703.502187814098,stimuli/336_ya.png,l,9.663042759057134,ambig,0.0412,5.033898305,1.884291705,0.245313885
028,81,1,2,8,2,170,2704.0704385553254,2715.718256412656,stimuli/332_zb.png,a,11.635807919781655,awful,0.0412,2.694915254,2.002190501,0.260663001
028,81,1,2,8,3,171,2716.2752368589863,2725.766165012028,stimuli/139_xa.png,l,9.478894978645258,harmless,0.0412,6.724137931,0.790138861,0.103750315
028,81,1,2,8,4,172,2726.3230631445767,2736.118161653285,stimuli/177_xb.png,l,9.783114565070719,harmless,0.0412,6.482758621,1.063614811,0.139659467
028,81,1,2,8,5,173,2736.678114061011,2748.4142585614463,stimuli/277_yb.png,l,11.724116052151658,ambig,0.0412,5.491525424,2.02886822,0.264136144
028,81,1,2,8,6,174,2748.967920068186,2760.9981292319717,stimuli/163_xa.png,l,12.018250426161103,harmless,0.0412,6.627118644,0.963082427,0.125382652
028,81,1,2,8,7,175,2761.5611422162037,2773.9265067757806,stimuli/315_yb.png,l,12.35374610486906,ambig,0.0412,5.050847458,1.915667965,0.249398726
028,81,1,2,8,8,176,2774.477091164328,2783.7662229073467,stimuli/212_ya.png,l,9.277175762341358,ambig,0.0412,5.677966102,1.490668422,0.194068498
028,81,1,2,8,9,177,2784.3150475923903,2794.5341590445023,stimuli/279_ya.png,l,10.207117662299424,ambig,0.0412,5.31147541,1.970964092,0.252356093
028,81,1,2,8,10,178,2795.080064937356,2803.782155156485,stimuli/106_xc.png,l,8.690225610742345,harmless,0.0412,6.661016949,0.863237081,0.112383896
028,81,1,2,8,11,179,2804.339496365632,2813.9181178576546,stimuli/135_xa.png,l,9.56664975755848,harmless,0.0412,6.508474576,1.179901828,0.153610134
028,81,1,2,8,12,180,2814.4801099933684,2826.6222891585203,stimuli/304_ya.png,a,12.130384267540649,ambig,0.0412,4.034482759,2.017167697,0.264867095
028,81,1,2,8,13,181,2827.177635144326,2839.798094100901,stimuli/275_yb.png,l,12.60871644038707,ambig,0.0412,4.836065574,2.138382004,0.27379176
028,81,1,2,8,14,182,2840.3518020814518,2855.9100849762326,stimuli/223_yb.png,l,15.546539197093807,ambig,0.0412,5.542372881,1.77455224,0.231027024
028,81,1,2,8,15,183,2856.463262446341,2862.998206031858,stimuli/143_xb.png,l,6.523629967588931,harmless,0.0412,6.655172414,0.738697862,0.096995781
028,81,1,2,8,16,184,2863.556291216053,2875.83008029731,stimuli/188_xa.png,l,12.261839796090499,harmless,0.0412,6.655172414,0.806807095,0.105938962
028,81,1,2,8,17,185,2876.3803425199585,2885.214112759684,stimuli/194_xb.png,l,8.822271908051334,harmless,0.0412,6.586206897,1.026567825,0.134794959
028,81,1,2,8,18,186,2885.763383672107,2895.2220873519545,stimuli/121_xc.png,l,9.446568893152289,harmless,0.0412,6.508474576,1.006408455,0.131023221
028,81,1,2,8,19,187,2895.7803162898635,2906.3180912337266,stimuli/161_xc.png,l,10.52591663703788,harmless,0.0412,6.796610169,0.609682252,0.079373868
028,81,1,2,8,20,188,2906.880731639685,2916.3260142321233,stimuli/120_xa.png,l,9.433093061088584,harmless,0.0412,6.440677966,1.054893138,0.137335389
028,81,1,2,8,21,189,2916.877188207931,2927.4860606113216,stimuli/136_xc.png,l,10.596647032070905,harmless,0.0412,6.559322034,1.038420326,0.135190811
028,81,1,2,8,22,190,2928.0393073983723,2938.9900471197907,stimuli/274_xb.png,l,10.938790042302571,harmless,0.0412,6.491525424,1.179901828,0.153610134
028,81,1,2,8,23,191,2939.5390852693236,2950.9100349578075,stimuli/244_xb.png,l,11.358897609519772,harmless,0.0412,6.610169492,0.743174671,0.096753101
028,81,1,2,8,24,192,2951.4577127634548,2961.3019998709206,stimuli/105_xa.png,l,9.832264172961004,harmless,0.0412,6.557377049,1.088187946,0.139328189
028,81,1,2,9,1,193,2970.4494097038405,2977.9500485218596,stimuli/178_xa.png,l,7.488954197266139,harmless,0.0412,6.483333333,1.112207557,0.143585378
028,81,1,2,9,2,194,2978.5131627245573,2989.5900119099533,stimuli/350_ya.png,l,11.064843973959796,ambig,0.0412,4.915254237,2.02814792,0.264042369
028,81,1,2,9,3,195,2990.134861901868,3001.478078142274,stimuli/205_yb.png,l,11.331270105903968,ambig,0.0412,5.847457627,1.52918233,0.199082582
028,81,1,2,9,4,196,3002.034725788748,3019.4620876039844,stimuli/358_za.png,a,17.41542670840863,awful,0.0412,3.949152542,2.112554662,0.275031191
028,81,1,2,9,5,197,3020.022928921855,3033.9419758620206,stimuli/146_xa.png,l,13.907266614725813,harmless,0.0412,6.442622951,1.162247681,0.148810567
028,81,1,2,9,6,198,3034.4914480297593,3043.3979797280626,stimuli/125_xc.png,l,8.894744283752516,harmless,0.0412,6.683333333,0.999858747,0.129081209
028,81,1,2,9,7,199,3043.9477846955415,3054.605953217484,stimuli/278_xb.png,l,10.646262165973894,harmless,0.0412,6.360655738,1.140654591,0.146045855
028,81,1,2,9,8,200,3055.166638572351,3063.877938484424,stimuli/240_xa.png,l,8.699708632775582,harmless,0.0412,6.482758621,1.096107616,0.143925981
028,81,1,2,9,9,201,3064.4332458733115,3076.2779603035888,stimuli/242_xb.png,l,11.832760812714696,harmless,0.0412,6.576271186,0.913564256,0.118935936
028,81,1,2,9,10,202,3076.8391379658133,3095.957973095705,stimuli/288_yb.png,l,19.106934287701733,ambig,0.0412,5.189655172,1.914459262,0.251380817
028,81,1,2,9,11,203,3096.5078335953876,3108.8638821234927,stimuli/218_yb.png,a,12.344054738176055,ambig,0.0412,5.850282486,1.552723069,0.0825263
028,81,1,2,9,12,204,3109.4259742960567,3122.1100027412176,stimuli/285_yb.png,l,12.67210791062098,ambig,0.0412,4.120689655,2.119893958,0.278355714
028,81,1,2,9,13,205,3122.6708885637345,3134.1499371422688,stimuli/104_xc.png,l,11.467003982630558,harmless,0.0412,6.745762712,0.756425814,0.098478253
028,81,1,2,9,14,206,3134.705178364995,3146.597970354487,stimuli/166_xa.png,l,11.880834827315994,harmless,0.0412,6.593220339,1.052397002,0.13701042
028,81,1,2,9,15,207,3147.151540095103,3156.8781799119897,stimuli/232_yb.png,l,9.714756303816102,ambig,0.0412,5.483333333,1.845669845,0.238274952
028,81,1,2,9,16,208,3157.4278041042853,3165.389868077473,stimuli/225_ya.png,l,7.950157223385759,ambig,0.0412,5.85,1.792876677,0.231459384
028,81,1,2,9,17,209,3165.9531098862644,3174.109915701323,stimuli/153_xb.png,l,8.14487819140777,harmless,0.0412,6.633333333,0.973664521,0.125699549
028,81,1,2,9,18,210,3174.6680296361446,3186.8939550165087,stimuli/280_xb.png,l,12.214073374983855,harmless,0.0412,6.333333333,1.068289726,0.137915611
028,81,1,2,9,19,211,3187.4441388638224,3196.965930358623,stimuli/119_xc.png,l,9.509774468024261,harmless,0.0412,6.694915254,0.914523379,0.119060803
028,81,1,2,9,20,212,3197.5160933320876,3206.485851085279,stimuli/259_xc.png,l,8.958131421590224,harmless,0.0412,6.568965517,0.993170874,0.130409725
028,81,1,2,9,21,213,3207.0446837890195,3225.205901466077,stimuli/140_xb.png,l,18.150042299064808,harmless,0.0412,6.724137931,0.790138861,0.103750315
028,81,1,2,9,22,214,3225.7675808881177,3236.4779241484357,stimuli/116_xa.png,a,10.698438085848466,harmless,0.0412,6.63559322,0.958030802,0.050918763
028,81,1,2,9,23,215,3237.0448078504996,3250.1098341752077,stimuli/214_xb.png,l,13.053218430140987,harmless,0.0412,6.465517241,0.940614156,0.12350869
028,81,1,2,9,24,216,3250.665596456034,3260.7818585904315,stimuli/287_ya.png,l,10.104354990646243,ambig,0.0412,5.950819672,1.407435369,0.180203633
028,81,1,2,10,1,217,3269.508537398069,3281.0058210428106,stimuli/213_ya.png,l,11.48515634110663,ambig,0.0412,5.98245614,1.597891781,0.211645937
028,81,1,2,10,2,218,3281.5596420571674,3289.3018238217337,stimuli/243_ya.png,l,7.730210817884654,ambig,0.0412,5.830508475,1.652088985,0.215083666
028,81,1,2,10,3,219,3289.8511703525437,3302.077825529501,stimuli/207_yb.png,a,12.214582224027254,ambig,0.0412,5.655737705,1.662179753,0.212820309
028,81,1,2,10,4,220,3302.634172671591,3315.333855310455,stimuli/235_ya.png,l,12.687827876652591,ambig,0.0412,5.694915254,1.567495667,0.204070554
028,81,1,2,10,5,221,3315.8908664768096,3324.293810238829,stimuli/112_xc.png,l,8.390911769121885,harmless,0.0412,6.706896552,0.749470472,0.098410294
028,81,1,2,10,6,222,3324.854846510454,3342.477802843903,stimuli/115_xb.png,l,17.61097987287212,harmless,0.0412,6.440677966,1.021681954,0.133011661
028,81,1,2,10,7,223,3343.033502109465,3352.3898869820405,stimuli/227_xa.png,a,9.344390294980258,harmless,0.0412,6.180327869,1.05685377,0.135316259
028,81,1,2,10,8,224,3352.9470127575332,3361.6617375537753,stimuli/216_xa.png,l,8.702764089452103,harmless,0.0412,6.603448276,0.877389573,0.115206895
028,81,1,2,10,9,225,3362.2227734315675,3372.1098904950777,stimuli/157_xc.png,l,9.875142572214827,harmless,0.0412,6.603448276,0.877389573,0.115206895
028,81,1,2,10,10,226,3372.6796539985808,3394.997780678328,stimuli/176_xb.png,l,22.30628412682563,harmless,0.0412,6.796610169,0.517942249,0.067430337
028,81,1,2,10,11,227,3395.546134717413,3404.853795335628,stimuli/128_xc.png,l,9.295746779069304,harmless,0.0412,6.627118644,0.98082135,0.127692063
028,81,1,2,10,12,228,3405.4076596730156,3414.5657793581486,stimuli/122_xa.png,l,9.146108172135428,harmless,0.0412,6.457627119,1.039264227,0.135300678
028,81,1,2,10,13,229,3415.121321873041,3426.053781629773,stimuli/237_ya.png,l,10.920548674534075,ambig,0.0412,4.305084746,2.019339575,0.26289562
028,81,1,2,10,14,230,3426.6075872841757,3438.597732077702,stimuli/221_xb.png,l,11.978194720577449,harmless,0.0412,6.440677966,1.133672495,0.147591588
028,81,1,2,10,15,231,3439.14597032615,3449.157749469974,stimuli/149_xa.png,l,9.99976684327703,harmless,0.0412,6.721311475,0.933294301,0.11949609
028,81,1,2,10,16,232,3449.710505524883,3463.4937067361316,stimuli/154_xc.png,a,13.771287765935995,harmless,0.0412,6.5,0.965506805,0.124646393
028,81,1,2,10,17,233,3464.0574061938096,3486.2137145814486,stimuli/172_xb.png,l,22.144321293220855,harmless,0.0412,6.482758621,1.127664553,0.14806961
028,81,1,2,10,18,234,3486.763114675414,3500.2856962251244,stimuli/217_yb.png,l,13.510470393812284,ambig,0.0412,5.169491525,2.001314588,0.260548967
028,81,1,2,10,19,235,3500.8342160733882,3512.189723851043,stimuli/137_xa.png,l,11.343547858530656,harmless,0.0412,6.355932203,1.094858074,0.14253838
028,81,1,2,10,20,236,3512.8459467741195,3521.7496998894494,stimuli/364_za.png,a,8.891046070493758,awful,0.0412,1.677966102,1.279017376,0.166513879
028,81,1,2,10,21,237,3522.307219510898,3535.3176867539296,stimuli/258_ya.png,a,12.998309613321908,ambig,0.0412,5.627118644,1.78014243,0.231754804
028,81,1,2,10,22,238,3535.8735825485783,3549.3736416255124,stimuli/138_xc.png,l,13.488111760932952,harmless,0.0412,6.661016949,0.70978796,0.092406522
028,81,1,2,10,23,239,3549.924877435202,3558.6379803739255,stimuli/174_xc.png,l,8.701109936577268,harmless,0.0412,6.533333333,1.111826512,0.143536185
028,81,1,2,10,24,240,3559.1943818667205,3570.605641291477,stimuli/246_ya.png,l,11.399217191850767,ambig,0.0412,5.542372881,1.715266481,0.223308675
