id,age,condition,counterbalance,block,trialinblock,trial,tstart,tend,trialstim,response,RT,trialtype,ethicfreq,norm_mean,norm_sd,norm_se
126,20,0,2,0,0,practice,4.332279786467552e-06,6.479691728949547,stimuli/prac_217_1.png,l,6.461596084176563,harmless,NA,NA,NA,NA
126,20,0,2,1,1,1,4.436383643769659,10.911735584493726,stimuli/303_zb.png,l,6.463546015438624,awful,0.333,3.620689655,2.158846233,0.283470398
126,20,0,2,1,2,2,11.46320297557395,15.599713122588582,stimuli/113_xb.png,l,4.124443889479153,harmless,0.333,6.733333333,0.660422737,0.085260209
126,20,0,2,1,3,3,16.151924882549793,20.559713736991398,stimuli/331_za.png,a,4.395733624580316,awful,0.333,1.983606557,1.638004917,0.209725039
126,20,0,2,1,4,4,21.12076812563464,26.79977227828931,stimuli/109_xb.png,l,5.666982793598436,harmless,0.333,6.644067797,0.97843492,0.127381377
126,20,0,2,1,5,5,27.354353415314108,32.687691605999134,stimuli/316_za.png,a,5.321564560756087,awful,0.333,2.344827586,1.802062407,0.236622386
126,20,0,2,1,6,6,33.24501036608126,39.0477483040886,stimuli/335_yb.png,l,5.790694917435758,ambig,0.333,5.016949153,2.046793332,0.266469795
126,20,0,2,1,7,7,39.60479491658043,48.78371596778743,stimuli/203_yb.png,l,9.166998547501862,ambig,0.333,6,1.542501327,0.200816568
126,20,0,2,1,8,8,49.33810372638982,54.64771585119888,stimuli/116_xa.png,l,5.297905448591337,harmless,0.333,6.63559322,0.958030802,0.050918763
126,20,0,2,1,9,9,55.198124190676026,58.55972870322876,stimuli/136_xc.png,l,3.3497399041661993,harmless,0.333,6.559322034,1.038420326,0.135190811
126,20,0,2,1,10,10,59.120705110253766,63.647710337419994,stimuli/291_za.png,a,4.514996471232735,awful,0.333,2.593220339,1.830005126,0.238246374
126,20,0,2,1,11,11,64.1979071815731,71.14368877664674,stimuli/194_xb.png,l,6.933758660685271,harmless,0.333,6.586206897,1.026567825,0.134794959
126,20,0,2,1,12,12,71.6992864300264,78.65569753269665,stimuli/217_yb.png,l,6.944340512971394,ambig,0.333,5.169491525,2.001314588,0.260548967
126,20,0,2,1,13,13,79.21369882766157,84.97569576825481,stimuli/305_zb.png,a,5.7500047262292355,awful,0.333,2.75,2.12830003,0.274762352
126,20,0,2,1,14,14,85.5262691291282,100.16768068866804,stimuli/333_za.png,l,14.629366569803096,awful,0.333,3.266666667,2.185209657,0.282109354
126,20,0,2,1,15,15,100.72921793232672,107.23166804772336,stimuli/245_yb.png,l,6.490368497907184,ambig,0.333,4.949152542,2.096168334,0.272897873
126,20,0,2,1,16,16,107.79080558824353,116.07966478983872,stimuli/367_zb.png,l,8.276987897814251,awful,0.333,3.413793103,2.086165649,0.27392697
126,20,0,2,1,17,17,116.63521557545755,122.51164326700382,stimuli/120_xa.png,l,5.864373249351047,harmless,0.333,6.440677966,1.054893138,0.137335389
126,20,0,2,1,18,18,123.07239557569847,128.90372003230732,stimuli/173_yb.png,l,5.819327516015619,ambig,0.333,5.796610169,1.242628763,0.161776485
126,20,0,2,1,19,19,129.47139812156092,135.06361517473124,stimuli/196_xb.png,l,5.580083054257557,harmless,0.333,6.594366197,0.982313556,0.05213579
126,20,0,2,1,20,20,135.6185606191866,138.59962253808044,stimuli/106_xc.png,l,2.968998024472967,harmless,0.333,6.661016949,0.863237081,0.112383896
126,20,0,2,1,21,21,139.15121083986014,150.4396592603298,stimuli/288_yb.png,l,11.276452661375515,ambig,0.333,5.189655172,1.914459262,0.251380817
126,20,0,2,1,22,22,150.99444795411546,159.91169935069047,stimuli/336_ya.png,l,8.905397422146052,ambig,0.333,5.033898305,1.884291705,0.245313885
126,20,0,2,1,23,23,160.46176228718832,164.83162259799428,stimuli/318_za.png,a,4.35802130238153,awful,0.333,3.06557377,2.197489875,0.281359747
126,20,0,2,1,24,24,165.3867555130273,169.65565460338257,stimuli/271_ya.png,l,4.256878518965095,ambig,0.333,5.711864407,1.771915459,0.230683744
126,20,0,2,2,1,25,178.91230508568697,182.63162370072678,stimuli/229_za.png,a,3.7076824373798445,awful,0.333,3.406779661,2.043649913,0.266060557
126,20,0,2,2,2,26,183.18155036657117,187.27159890416078,stimuli/119_xc.png,l,4.07800315390341,harmless,0.333,6.694915254,0.914523379,0.119060803
126,20,0,2,2,3,27,187.8221502096858,198.86383643734735,stimuli/226_yb.png,a,11.029670382500626,ambig,0.333,5.683333333,1.712285287,0.22105508
126,20,0,2,2,4,28,199.41734316269867,204.5916144689545,stimuli/311_za.png,a,5.162331079482101,awful,0.333,3.116666667,1.975199339,0.254997138
126,20,0,2,2,5,29,205.15357785392553,210.7596626158338,stimuli/175_xb.png,l,5.59413547674194,harmless,0.333,6.6,1.028409995,0.13276716
126,20,0,2,2,6,30,211.30826832249295,217.74360236688517,stimuli/202_yb.png,l,6.423595466651022,ambig,0.333,5.431034483,1.892849601,0.248543329
126,20,0,2,2,7,31,218.29257435025647,224.2956254745368,stimuli/241_yb.png,a,5.991004559095018,ambig,0.333,5.508474576,1.442852555,0.187843403
126,20,0,2,2,8,32,224.857737733284,236.0476159718819,stimuli/228_ya.png,a,11.1780096917646,ambig,0.333,5.442622951,1.793735303,0.229664272
126,20,0,2,2,9,33,236.60653926013038,241.3195583097404,stimuli/292_zb.png,a,4.7010532228741795,awful,0.333,2.396551724,1.955107169,0.256718148
126,20,0,2,2,10,34,241.87475620943587,250.7035742305452,stimuli/357_za.png,a,8.817043997347355,awful,0.333,2.793103448,2.066937905,0.271402243
126,20,0,2,2,11,35,251.26470463129226,259.63160125154536,stimuli/180_xc.png,l,8.354842572007328,harmless,0.333,6.672131148,0.723908638,0.092687003
126,20,0,2,2,12,36,260.19385687005706,264.7036707227817,stimuli/302_za.png,a,4.49794215511065,awful,0.333,3.137931034,2.188071937,0.287307921
126,20,0,2,2,13,37,265.2764692028286,272.75953185895924,stimuli/235_ya.png,l,7.471036177128553,ambig,0.333,5.694915254,1.567495667,0.204070554
126,20,0,2,2,14,38,273.3138325776672,280.42357892519794,stimuli/102_xc.png,l,7.097776188398711,harmless,0.333,6.66011236,0.937292468,0.049676401
126,20,0,2,2,15,39,280.986689583282,286.7116244410863,stimuli/345_zb.png,l,5.712891049566679,awful,0.333,3.694915254,2.191317013,0.285285176
126,20,0,2,2,16,40,287.26826972456183,291.535591462045,stimuli/201_yb.png,l,4.255422076792456,ambig,0.333,5.898305085,1.626238682,0.211718243
126,20,0,2,2,17,41,292.0957021957729,296.8315753364004,stimuli/177_xb.png,l,4.723925430793315,harmless,0.333,6.482758621,1.063614811,0.139659467
126,20,0,2,2,18,42,297.3933083214797,308.7115744226612,stimuli/200_ya.png,l,11.306254588300362,ambig,0.333,5.862068966,1.444266048,0.189641423
126,20,0,2,2,19,43,309.2688829427352,314.5675922308583,stimuli/212_ya.png,l,5.286808839766309,ambig,0.333,5.677966102,1.490668422,0.194068498
126,20,0,2,2,20,44,315.1264083930291,319.3435703078285,stimuli/164_xb.png,l,4.205384346423671,harmless,0.333,6.830508475,0.460604639,0.059965616
126,20,0,2,2,21,45,319.8926403587684,326.31955476512667,stimuli/328_za.png,a,6.41521324403584,awful,0.333,2.706896552,1.955725922,0.256799395
126,20,0,2,2,22,46,326.8768739189254,333.0395173182478,stimuli/121_xc.png,l,6.150613375706598,harmless,0.333,6.508474576,1.006408455,0.131023221
126,20,0,2,2,23,47,333.59630596160423,341.83960900548846,stimuli/358_za.png,l,8.23136872483883,awful,0.333,3.949152542,2.112554662,0.275031191
126,20,0,2,2,24,48,342.3943173547741,346.5595239032991,stimuli/169_xc.png,l,4.153215909493156,harmless,0.333,6.603448276,0.916508538,0.120343467
126,20,0,2,3,1,49,355.41239291324746,361.55947861098684,stimuli/360_za.png,a,6.1353758707409725,awful,0.333,3.2,2.207844259,0.285031468
126,20,0,2,3,2,50,362.12074922095053,368.0795253684046,stimuli/114_xc.png,l,5.947033631266095,harmless,0.333,6.644067797,0.97843492,0.127381377
126,20,0,2,3,3,51,368.6370197837241,372.93560461653396,stimuli/254_ya.png,l,4.286627276800573,ambig,0.333,5.983606557,1.627798137,0.208418195
126,20,0,2,3,4,52,373.49643175594974,377.6155410024803,stimuli/189_yb.png,l,4.107178078149445,ambig,0.333,5.983333333,1.455459234,0.187898979
126,20,0,2,3,5,53,378.1687448603334,383.27953608101234,stimuli/244_xb.png,l,5.098749381606467,harmless,0.333,6.610169492,0.743174671,0.096753101
126,20,0,2,3,6,54,383.8412966353353,389.95155222550966,stimuli/219_ya.png,l,6.098399646463804,ambig,0.333,5.271186441,1.998538332,0.260187529
126,20,0,2,3,7,55,390.5133080537198,400.6874935015803,stimuli/341_zb.png,a,10.162049085833132,awful,0.333,3.603448276,2.15975677,0.283589957
126,20,0,2,3,8,56,401.24808787810616,414.1835085685598,stimuli/339_ya.png,a,12.923142937710509,ambig,0.333,4.949152542,1.960152429,0.25519011
126,20,0,2,3,9,57,414.73149672476575,419.1754792317515,stimuli/294_za.png,a,4.431912704836577,awful,0.333,1.557377049,1.38473331,0.177296933
126,20,0,2,3,10,58,419.73816059774254,422.50350010872353,stimuli/184_xb.png,l,2.7530979920411482,harmless,0.333,6.508474576,1.194425,0.15550089
126,20,0,2,3,11,59,423.0607680625981,430.26347189361695,stimuli/290_zb.png,a,7.190685228910297,awful,0.333,2.586206897,2.026443456,0.266085062
126,20,0,2,3,12,60,430.80901859898586,437.95953075622674,stimuli/141_xc.png,l,7.13865109346807,harmless,0.333,6.508474576,1.040107444,0.135410455
126,20,0,2,3,13,61,438.51272634323686,441.8154898813227,stimuli/111_xa.png,l,3.2909068065928295,harmless,0.333,6.590163934,0.863655973,0.110579816
126,20,0,2,3,14,62,442.37284448125865,450.0634666947881,stimuli/275_yb.png,l,7.678628423716873,ambig,0.333,4.836065574,2.138382004,0.27379176
126,20,0,2,3,15,63,450.6221379217459,453.2954545454122,stimuli/143_xb.png,l,2.6613511907635257,harmless,0.333,6.655172414,0.738697862,0.096995781
126,20,0,2,3,16,64,453.8581520591397,458.6314496208215,stimuli/293_zb.png,a,4.761505814734846,awful,0.333,3.677966102,2.169066842,0.28238845
126,20,0,2,3,17,65,459.18618120695464,461.9754500084091,stimuli/125_xc.png,l,2.777171036344953,harmless,0.333,6.683333333,0.999858747,0.129081209
126,20,0,2,3,18,66,462.5283167340094,472.99947579111904,stimuli/323_yb.png,a,10.459295630222186,ambig,0.333,4.603448276,1.955107169,0.256718148
126,20,0,2,3,19,67,473.5600138476584,477.175446936395,stimuli/363_zb.png,a,3.6034786835080013,awful,0.333,2.433333333,2.019956927,0.260775318
126,20,0,2,3,20,68,477.7343316277256,482.63149885158055,stimuli/206_xa.png,l,4.885125778615475,harmless,0.333,6.325842697,1.136094431,0.060212884
126,20,0,2,3,21,69,483.18713943404146,493.8154839735944,stimuli/250_yb.png,l,10.616439758916385,ambig,0.333,5.950819672,1.585625318,0.203018519
126,20,0,2,3,22,70,494.3741685912246,502.74347988073714,stimuli/371_zb.png,l,8.357390754972585,awful,0.333,3.131147541,2.085468851,0.267016925
126,20,0,2,3,23,71,503.28419961058535,508.9035164138768,stimuli/191_ya.png,l,5.607293475070037,ambig,0.333,5.517241379,2.062542966,0.270825159
126,20,0,2,3,24,72,509.45584869070444,514.7033930614125,stimuli/361_za.png,a,5.23549938085489,awful,0.333,2.416666667,1.907093508,0.246204713
126,20,0,2,4,1,73,523.4177153471392,526.9034065309679,stimuli/356_za.png,a,3.4740152277518064,awful,0.333,3.033333333,2.178217796,0.281206708
126,20,0,2,4,2,74,527.461271555163,532.8554329469334,stimuli/300_za.png,a,5.382145152660087,awful,0.333,3.75,2.12032137,0.273732312
126,20,0,2,4,3,75,533.4126973561943,538.7274188441224,stimuli/225_ya.png,l,5.302775353426114,ambig,0.333,5.85,1.792876677,0.231459384
126,20,0,2,4,4,76,539.2883609866258,547.2314321340527,stimuli/248_zb.png,a,7.931070268386975,awful,0.333,3.288135593,1.991800844,0.259310383
126,20,0,2,4,5,77,547.7885677557206,552.2633860352216,stimuli/159_xa.png,l,4.463121055625379,harmless,0.333,6.389830508,1.174689235,0.152931512
126,20,0,2,4,6,78,552.8203928691801,555.4555533062667,stimuli/297_za.png,a,2.623254474834539,awful,0.333,1.898305085,1.446695584,0.188343723
126,20,0,2,4,7,79,556.0077823954634,559.4154007146135,stimuli/144_xa.png,l,3.395763950771652,harmless,0.333,6.542372881,1.00553698,0.130909764
126,20,0,2,4,8,80,559.9746957934694,562.439419801929,stimuli/128_xc.png,l,2.4529334431281313,harmless,0.333,6.627118644,0.98082135,0.127692063
126,20,0,2,4,9,81,562.9912617405644,568.5673921571579,stimuli/267_ya.png,l,5.564331186702475,ambig,0.333,5.103448276,1.898195405,0.249245267
126,20,0,2,4,10,82,569.1170049278298,573.5594317433424,stimuli/368_za.png,a,4.430571659468114,awful,0.333,3.590163934,2.02794682,0.259651984
126,20,0,2,4,11,83,574.1174153152388,579.4954144519288,stimuli/208_xb.png,a,5.366023069946095,harmless,0.333,6.216666667,1.165778516,0.150501359
126,20,0,2,4,12,84,580.054430293967,584.7033591906074,stimuli/281_ya.png,l,4.637287992751226,ambig,0.333,5.881355932,1.543448286,0.200939852
126,20,0,2,4,13,85,585.2579808937153,590.4713681892026,stimuli/351_zb.png,a,5.201578219304793,awful,0.333,3.06779661,2.033040926,0.264679384
126,20,0,2,4,14,86,591.0233979923651,597.5833657600451,stimuli/370_za.png,a,6.547994064050727,awful,0.333,2.393442623,1.882185684,0.240989182
126,20,0,2,4,15,87,598.1338965855539,602.88736558042,stimuli/286_ya.png,l,4.7414381835842505,ambig,0.333,5.06779661,1.779814082,0.231712057
126,20,0,2,4,16,88,603.4460923395818,613.7274570472073,stimuli/340_za.png,a,10.269331927062012,awful,0.333,2.508474576,1.832398855,0.238558011
126,20,0,2,4,17,89,614.2889954723651,618.3833448074292,stimuli/135_xa.png,l,4.0826028804294765,harmless,0.333,6.508474576,1.179901828,0.153610134
126,20,0,2,4,18,90,618.9454799091909,626.4794266705867,stimuli/218_yb.png,a,7.521939974743873,ambig,0.333,5.850282486,1.552723069,0.0825263
126,20,0,2,4,19,91,627.0389572692802,634.4313396590296,stimuli/210_yb.png,l,7.380384267540649,ambig,0.333,5.557377049,1.76564049,0.226067099
126,20,0,2,4,20,92,634.9917871310608,639.9273566952907,stimuli/287_ya.png,l,4.923559626797214,ambig,0.333,5.950819672,1.407435369,0.180203633
126,20,0,2,4,21,93,640.4770013674861,647.9833670990774,stimuli/272_xb.png,l,7.494399904855527,harmless,0.333,6.355932203,1.029943284,0.134087194
126,20,0,2,4,22,94,648.5376528516645,653.9593929101247,stimuli/179_xb.png,l,5.4099845454329625,harmless,0.333,6.704918033,0.882123617,0.112944356
126,20,0,2,4,23,95,654.5077067769598,658.5033039734699,stimuli/273_ya.png,l,3.9837266803951934,ambig,0.333,5.551724138,1.836973233,0.241206403
126,20,0,2,4,24,96,659.0533791192574,665.8873770019272,stimuli/134_xc.png,l,6.822035600547679,harmless,0.333,6.516666667,0.965360505,0.124627505
126,20,0,2,5,1,97,674.5653354937676,685.0393377244473,stimuli/233_yb.png,a,10.46207500086166,ambig,0.333,5.318309859,1.922973646,0.102060844
126,20,0,2,5,2,98,685.5883250677725,689.6793188356096,stimuli/308_zb.png,a,4.079009430250153,awful,0.333,1.644067797,1.471132708,0.191525165
126,20,0,2,5,3,99,690.2289835939882,694.6073352227686,stimuli/236_yb.png,l,4.366322392830625,ambig,0.333,5.93442623,1.49297078,0.19115532
126,20,0,2,5,4,100,695.1665279016597,698.0633016733918,stimuli/320_za.png,a,2.8846492250449955,awful,0.333,1.423728814,1.117314975,0.14546202
126,20,0,2,5,5,101,698.6194396832725,705.3913379103178,stimuli/262_ya.png,a,6.759932006360032,ambig,0.333,5.491525424,1.7750462,0.231091332
126,20,0,2,5,6,102,705.9474093603203,709.3113182652742,stimuli/158_xa.png,l,3.3518962105736136,harmless,0.333,6.786885246,0.661179605,0.084655374
126,20,0,2,5,7,103,709.8715455774218,712.8393179534469,stimuli/149_xa.png,l,2.9558108815690503,harmless,0.333,6.721311475,0.933294301,0.11949609
126,20,0,2,5,8,104,713.4030087465653,716.1353321538772,stimuli/186_xa.png,l,2.720313863712363,harmless,0.333,6.65,0.879618561,0.113558268
126,20,0,2,5,9,105,716.6852761490736,722.9993005295983,stimuli/352_zb.png,a,6.302089273813181,awful,0.333,2.93442623,2.135952968,0.273480754
126,20,0,2,5,10,106,723.5587362115039,730.255325584556,stimuli/104_xc.png,l,6.684641663217917,harmless,0.333,6.745762712,0.756425814,0.098478253
126,20,0,2,5,11,107,730.8093612449011,737.2633056906052,stimuli/239_ya.png,l,6.44197625585366,ambig,0.333,5.157894737,1.925296579,0.255011762
126,20,0,2,5,12,108,737.8249985034345,741.5992932828376,stimuli/296_yb.png,a,3.76252626942005,ambig,0.333,4.229508197,2.052587332,0.262806878
126,20,0,2,5,13,109,742.1540390474256,748.3032948361943,stimuli/181_xa.png,l,6.137331315781921,harmless,0.333,6.666666667,0.950765377,0.122743282
126,20,0,2,5,14,110,748.855376626947,752.119327043416,stimuli/230_yb.png,a,3.2521543372422457,ambig,0.333,4.98245614,1.875511626,0.248417583
126,20,0,2,5,15,111,752.6693706815131,756.7193453966174,stimuli/314_zb.png,a,4.038075448363088,awful,0.333,1.833333333,1.451669602,0.18740974
126,20,0,2,5,16,112,757.2771505563287,764.6393513515359,stimuli/332_zb.png,a,7.3502637192141265,awful,0.333,2.694915254,2.002190501,0.260663001
126,20,0,2,5,17,113,765.1988035748946,769.6313350116834,stimuli/257_yb.png,l,4.420525831636041,ambig,0.333,5.620689655,1.843219782,0.242026615
126,20,0,2,5,18,114,770.2347546182573,774.6873182400595,stimuli/195_xc.png,l,4.441281117731705,harmless,0.333,6.637640449,1.001766915,0.05309354
126,20,0,2,5,19,115,775.2456602117745,781.9193155430257,stimuli/192_za.png,a,6.661717861308716,awful,0.333,2.68852459,2.093967396,0.268105052
126,20,0,2,5,20,116,782.4809457343072,789.7112861274509,stimuli/317_za.png,a,7.218279649503529,awful,0.333,3.65,2.03215674,0.262350307
126,20,0,2,5,21,117,790.2615999439731,793.8072478676913,stimuli/160_xb.png,l,3.5336757954210043,harmless,0.333,6.666666667,0.680644427,0.087870818
126,20,0,2,5,22,118,794.3429208558518,797.5193390162895,stimuli/243_ya.png,l,3.164392862934619,ambig,0.333,5.830508475,1.652088985,0.215083666
126,20,0,2,5,23,119,798.077535658842,800.7752754559042,stimuli/298_za.png,a,2.6857519149780273,awful,0.333,2.881355932,2.026418156,0.263817173
126,20,0,2,5,24,120,801.3291106487159,808.4872567213606,stimuli/193_xc.png,l,7.1463456612546,harmless,0.333,6.482758621,1.012923151,0.133003326
126,20,0,2,6,1,121,817.5823866589926,823.1592468720628,stimuli/185_xa.png,l,5.56505350000225,harmless,0.333,6.5,0.965506805,0.124646393
126,20,0,2,6,2,122,823.7143541872501,827.3432556248736,stimuli/310_zb.png,a,3.6168733831727877,awful,0.333,3.224137931,2.102989547,0.276136056
126,20,0,2,6,3,123,827.9035010539228,834.3112489484483,stimuli/214_xb.png,l,6.395813181530684,harmless,0.333,6.465517241,0.940614156,0.12350869
126,20,0,2,6,4,124,834.8701265505515,839.0633343625814,stimuli/322_za.png,a,4.181194723700173,awful,0.333,2.406779661,1.975004531,0.257123689
126,20,0,2,6,5,125,839.620764974854,849.7912466956768,stimuli/269_za.png,a,10.158469420275651,awful,0.333,3.457627119,2.119873401,0.27598401
126,20,0,2,6,6,126,850.3404490789399,856.2312092172215,stimuli/249_ya.png,l,5.878728145500645,ambig,0.333,5.327868852,1.859402337,0.238072074
126,20,0,2,6,7,127,856.7901226594113,861.6232651086757,stimuli/213_ya.png,l,4.821167564019561,ambig,0.333,5.98245614,1.597891781,0.211645937
126,20,0,2,6,8,128,862.1813435974764,869.319260956021,stimuli/253_ya.png,l,7.125823531881906,ambig,0.333,5.491803279,1.849531029,0.236808182
126,20,0,2,6,9,129,869.8690694681136,874.1832281502429,stimuli/344_za.png,a,4.3020703692454845,awful,0.333,2.711864407,2.043077863,0.265986082
126,20,0,2,6,10,130,874.7435574684059,885.0792142301798,stimuli/280_xb.png,l,10.32364564272575,harmless,0.333,6.333333333,1.068289726,0.137915611
126,20,0,2,6,11,131,885.6327004755149,891.1271949033253,stimuli/209_ya.png,l,5.482448650407605,ambig,0.333,5.603448276,1.825161903,0.239655499
126,20,0,2,6,12,132,891.679543327773,897.2071932806866,stimuli/259_xc.png,l,5.515653406153433,harmless,0.333,6.568965517,0.993170874,0.130409725
126,20,0,2,6,13,133,897.7581573367352,902.4071807563305,stimuli/362_zb.png,a,4.637150934315287,awful,0.333,1.474576271,1.222715071,0.159183944
126,20,0,2,6,14,134,902.961280219839,908.0311819631606,stimuli/215_yb.png,l,5.057936704251915,ambig,0.333,5.866666667,1.466769385,0.189359113
126,20,0,2,6,15,135,908.5861931798281,918.6791868972359,stimuli/147_ya.png,l,10.081008985987864,ambig,0.333,5.883333333,1.766847875,0.22809908
126,20,0,2,6,16,136,919.2276520009618,924.3512207648018,stimuli/278_xb.png,l,5.111825853935443,harmless,0.333,6.360655738,1.140654591,0.146045855
126,20,0,2,6,17,137,924.8951822404051,929.7671571099199,stimuli/342_yb.png,a,4.8600070734974,ambig,0.333,4.916666667,2.085394461,0.269223267
126,20,0,2,6,18,138,930.3159573763842,936.7671705005923,stimuli/301_za.png,a,6.43919412815012,awful,0.333,3.610169492,2.212947396,0.288101212
126,20,0,2,6,19,139,937.3163693392416,940.4312242622254,stimuli/369_za.png,a,3.102757551590912,awful,0.333,2.948275862,2.055565093,0.26990892
126,20,0,2,6,20,140,940.9879223209573,945.9431853628485,stimuli/140_xb.png,l,4.94335865508765,harmless,0.333,6.724137931,0.790138861,0.103750315
126,20,0,2,6,21,141,946.5029617213877,949.2312068542233,stimuli/178_xa.png,l,2.7162438599625602,harmless,0.333,6.483333333,1.112207557,0.143585378
126,20,0,2,6,22,142,949.7839451860636,953.3271792283049,stimuli/190_xc.png,l,3.531504523009062,harmless,0.333,6.517241379,1.046990328,0.137476565
126,20,0,2,6,23,143,953.8807324273512,957.935111521394,stimuli/309_ya.png,a,4.042579470202327,ambig,0.333,4.706896552,1.946734744,0.255618795
126,20,0,2,6,24,144,958.4891885356046,966.9432436520001,stimuli/211_zb.png,a,8.442159394151531,awful,0.333,3.983333333,2.127237938,0.274625237
126,20,0,2,7,1,145,980.8483287541894,987.2391578156967,stimuli/299_za.png,a,6.379092059214599,awful,0.333,1.288135593,0.929420425,0.121000233
126,20,0,2,7,2,146,987.8016009049024,992.8551856117556,stimuli/237_ya.png,a,5.041727975360118,ambig,0.333,4.305084746,2.019339575,0.26289562
126,20,0,2,7,3,147,993.4094780596206,997.8151476292405,stimuli/153_xb.png,l,4.393850647378713,harmless,0.333,6.633333333,0.973664521,0.125699549
126,20,0,2,7,4,148,998.3633023822913,1002.3351270389976,stimuli/284_ya.png,l,3.960077414405532,ambig,0.333,5.948275862,1.431750417,0.18799804
126,20,0,2,7,5,149,1002.8970738823991,1008.5511015083175,stimuli/350_ya.png,a,5.641966488445178,ambig,0.333,4.915254237,2.02814792,0.264042369
126,20,0,2,7,6,150,1009.1134800068103,1015.6151156489505,stimuli/170_xc.png,l,6.489630824653432,harmless,0.333,6.583333333,1.062323432,0.137145365
126,20,0,2,7,7,151,1016.175655280822,1020.7911253911443,stimuli/222_ya.png,l,4.603556665009819,ambig,0.333,5.931034483,1.543089507,0.202617579
126,20,0,2,7,8,152,1021.3483035480604,1027.455139374244,stimuli/355_zb.png,a,6.095036202343181,awful,0.333,3.183333333,2.070713188,0.267327923
126,20,0,2,7,9,153,1028.0038502376992,1035.5271072331816,stimuli/372_zb.png,a,7.511115907225758,awful,0.333,2.796610169,2.082601664,0.271131643
126,20,0,2,7,10,154,1036.07414188853,1038.5431462145643,stimuli/112_xc.png,l,2.456986117758788,harmless,0.333,6.706896552,0.749470472,0.098410294
126,20,0,2,7,11,155,1039.107154053636,1043.983157179202,stimuli/359_za.png,a,4.86406329262536,awful,0.333,2.01754386,1.641985167,0.217486248
126,20,0,2,7,12,156,1044.5363090493483,1049.3031231194036,stimuli/277_yb.png,l,4.754818310961127,ambig,0.333,5.491525424,2.02886822,0.264136144
126,20,0,2,7,13,157,1049.86408180336,1057.2791379027767,stimuli/198_yb.png,a,7.403182038688101,ambig,0.333,5.101694915,1.83542643,0.238952168
126,20,0,2,7,14,158,1057.8338214397663,1065.1351553171407,stimuli/365_zb.png,a,7.289234142983332,awful,0.333,2.966101695,2.165291266,0.281896912
126,20,0,2,7,15,159,1065.6904170197668,1075.7991389740491,stimuli/282_xc.png,l,10.096991647267714,harmless,0.333,6.55,0.998728005,0.128935231
126,20,0,2,7,16,160,1076.362020020024,1081.8231025291607,stimuli/258_ya.png,l,5.449253346887417,ambig,0.333,5.627118644,1.78014243,0.231754804
126,20,0,2,7,17,161,1082.3782228411874,1086.6071335736196,stimuli/171_xa.png,l,4.216864561080001,harmless,0.333,6.465517241,1.046556882,0.137419651
126,20,0,2,7,18,162,1087.1594126812415,1092.0551400043769,stimuli/330_ya.png,l,4.883813090156764,ambig,0.333,4.796610169,2.049219036,0.266785595
126,20,0,2,7,19,163,1092.6126572627109,1102.3030723133124,stimuli/172_xb.png,l,9.678485457669012,harmless,0.333,6.482758621,1.127664553,0.14806961
126,20,0,2,7,20,164,1102.8620507399319,1107.7031299723312,stimuli/105_xa.png,l,4.829087805585004,harmless,0.333,6.557377049,1.088187946,0.139328189
126,20,0,2,7,21,165,1108.2530314320466,1114.0870651546866,stimuli/324_za.png,a,5.821925323572941,awful,0.333,2.491525424,1.994586478,0.259673041
126,20,0,2,7,22,166,1114.6447434960864,1121.551133409841,stimuli/129_xa.png,l,6.894428025465459,harmless,0.333,6.770491803,0.642740036,0.082294429
126,20,0,2,7,23,167,1122.1126974349609,1124.807034009369,stimuli/347_zb.png,a,2.6823219107463956,awful,0.333,3.796610169,2.147810923,0.279621165
126,20,0,2,7,24,168,1125.361754173995,1130.7590923269745,stimuli/337_zb.png,a,5.385374689241871,awful,0.333,3.033333333,2.20143764,0.284204377
126,20,0,2,8,1,169,1145.3176162554882,1150.887064682087,stimuli/334_za.png,a,5.558610574575141,awful,0.333,3.333333333,2.214487481,0.285889104
126,20,0,2,8,2,170,1151.4407344596693,1154.8951144989114,stimuli/313_zb.png,a,3.443160944385454,awful,0.333,2.101694915,1.688652955,0.219843889
126,20,0,2,8,3,171,1155.4711129771313,1158.47906157549,stimuli/130_xc.png,l,2.995993799297139,harmless,0.333,6.644067797,0.960651931,0.125066229
126,20,0,2,8,4,172,1159.0341618013335,1162.1110550974263,stimuli/366_za.png,a,3.0648522446863353,awful,0.333,3.689655172,2.036568291,0.267414518
126,20,0,2,8,5,173,1162.6580948727205,1172.679059291142,stimuli/283_yb.png,l,10.009341237600893,ambig,0.333,5.949152542,1.478859402,0.192531095
126,20,0,2,8,6,174,1173.2408541099867,1176.7910044804448,stimuli/216_xa.png,l,3.538425183505751,harmless,0.333,6.603448276,0.877389573,0.115206895
126,20,0,2,8,7,175,1177.347852200619,1182.7430415302515,stimuli/101_xa.png,l,5.383123072097078,harmless,0.333,6.508522727,1.13475832,0.060482822
126,20,0,2,8,8,176,1183.302191279945,1189.3670537647558,stimuli/321_zb.png,a,6.0529045349685475,awful,0.333,2.918032787,2.177881861,0.278849198
126,20,0,2,8,9,177,1189.9267336309422,1194.9110518679954,stimuli/276_ya.png,l,4.972635979298502,ambig,0.333,5.186440678,1.804922162,0.234980851
126,20,0,2,8,10,178,1195.471908151987,1203.287015215028,stimuli/137_xa.png,l,7.803545322152786,harmless,0.333,6.355932203,1.094858074,0.14253838
126,20,0,2,8,11,179,1203.8479916221695,1214.159079881385,stimuli/108_xb.png,l,10.299005066393875,harmless,0.333,6.568965517,1.077880782,0.141532681
126,20,0,2,8,12,180,1214.7067076686071,1224.8150101769716,stimuli/182_xb.png,l,10.096288632368669,harmless,0.333,6.542372881,0.988241802,0.128658124
126,20,0,2,8,13,181,1225.3629723393824,1227.6790234511718,stimuli/306_zb.png,a,2.3039990327088162,awful,0.333,2.352112676,1.917055413,0.101746737
126,20,0,2,8,14,182,1228.2383815452922,1232.3510246295482,stimuli/312_yb.png,a,4.10063432820607,ambig,0.333,4.677966102,2.112692986,0.275049199
126,20,0,2,8,15,183,1232.9114929754287,1237.1430255401647,stimuli/205_yb.png,a,4.219580522621982,ambig,0.333,5.847457627,1.52918233,0.199082582
126,20,0,2,8,16,184,1237.6921806618338,1242.1189587974222,stimuli/329_zb.png,a,4.415019471780397,awful,0.333,2.406779661,1.992387617,0.259386774
126,20,0,2,8,17,185,1242.6778517595958,1257.8950144620612,stimuli/207_yb.png,a,15.205118500394747,ambig,0.333,5.655737705,1.662179753,0.212820309
126,20,0,2,8,18,186,1258.4418431358645,1264.2389742834494,stimuli/263_ya.png,a,5.7852559053571895,ambig,0.333,4.983050847,2.071910042,0.269739712
126,20,0,2,8,19,187,1264.8019368554233,1269.5910134600708,stimuli/261_yb.png,l,4.7770765132736415,ambig,0.333,5.706896552,1.901141123,0.249632059
126,20,0,2,8,20,188,1270.1446493668482,1273.6069760352839,stimuli/174_xc.png,l,3.450328152393922,harmless,0.333,6.533333333,1.111826512,0.143536185
126,20,0,2,8,21,189,1274.1607623911696,1277.9990031759953,stimuli/295_za.png,a,3.8264065025141463,awful,0.333,2.3,1.825432384,0.235662307
126,20,0,2,8,22,190,1278.5503618656658,1280.9030170172919,stimuli/115_xb.png,l,2.340628672624007,harmless,0.333,6.440677966,1.021681954,0.133011661
126,20,0,2,8,23,191,1281.4555785123957,1285.2070089607732,stimuli/247_ya.png,a,3.739461077027954,ambig,0.333,4.65,2.081598147,0.268733165
126,20,0,2,8,24,192,1285.7541365637444,1290.5189865241991,stimuli/307_za.png,a,4.7528246629517525,awful,0.333,2.93220339,2.172432347,0.282826601
126,20,0,2,9,1,193,1299.1850997060537,1307.1829430058133,stimuli/319_ya.png,a,7.986231146613136,ambig,0.333,4.216666667,2.108028774,0.272145344
126,20,0,2,9,2,194,1307.7400912304875,1310.3669868109282,stimuli/364_za.png,a,2.6151447935262695,awful,0.333,1.677966102,1.279017376,0.166513879
126,20,0,2,9,3,195,1310.9274480674649,1316.1509386923863,stimuli/150_xc.png,l,5.21144090895541,harmless,0.333,6.482758621,1.030097582,0.135258439
126,20,0,2,9,4,196,1316.7076914957725,1318.638956324081,stimuli/199_za.png,a,1.919261192320846,awful,0.333,3.033898305,2.189048775,0.284989876
126,20,0,2,9,5,197,1319.1925666308962,1323.7988999095978,stimuli/223_yb.png,l,4.59440565505065,ambig,0.333,5.542372881,1.77455224,0.231027024
126,20,0,2,9,6,198,1324.3486351663014,1328.8309329737676,stimuli/338_zb.png,a,4.47019886074122,awful,0.333,3.310344828,2.137443107,0.28066003
126,20,0,2,9,7,199,1329.3787431116216,1336.6549464684213,stimuli/156_xc.png,l,7.2642430438427255,harmless,0.333,6.590163934,0.955284411,0.122311635
126,20,0,2,9,8,200,1337.2069498839555,1341.0709596134257,stimuli/270_yb.png,l,3.8520498104626313,ambig,0.333,5.534482759,1.912246013,0.251090203
126,20,0,2,9,9,201,1341.6304996644612,1347.19093020109,stimuli/354_zb.png,a,5.54844501754269,awful,0.333,2,1.701925887,0.221571878
126,20,0,2,9,10,202,1347.7394264185568,1353.886985125253,stimuli/220_yb.png,a,6.135492449160665,ambig,0.333,4.75,2.096203186,0.270618668
126,20,0,2,9,11,203,1354.4430077383295,1359.1429258971475,stimuli/232_yb.png,l,4.687967298203148,ambig,0.333,5.483333333,1.845669845,0.238274952
126,20,0,2,9,12,204,1359.6895159003325,1362.7109415123705,stimuli/326_zb.png,a,3.009555489756167,awful,0.333,3.389830508,2.220724867,0.289113752
126,20,0,2,9,13,205,1363.2693398039555,1369.2069538224023,stimuli/285_yb.png,a,5.925452450290322,ambig,0.333,4.120689655,2.119893958,0.278355714
126,20,0,2,9,14,206,1369.76889712119,1376.0709151088959,stimuli/279_ya.png,l,6.2902664131252095,ambig,0.333,5.31147541,1.970964092,0.252356093
126,20,0,2,9,15,207,1376.6276171061909,1381.8469546257984,stimuli/142_xa.png,l,5.207341366680339,harmless,0.333,6.4,1.076718178,0.139003719
126,20,0,2,9,16,208,1382.4093024043832,1385.6149136059685,stimuli/155_xb.png,l,3.1936630979180336,harmless,0.333,6.655737705,0.892286312,0.114245555
126,20,0,2,9,17,209,1386.1737368573667,1392.470938897226,stimuli/161_xc.png,l,6.285198797704652,harmless,0.333,6.796610169,0.609682252,0.079373868
126,20,0,2,9,18,210,1393.035428409814,1397.2468618357088,stimuli/166_xa.png,l,4.199419549899176,harmless,0.333,6.593220339,1.052397002,0.13701042
126,20,0,2,9,19,211,1397.7995017061476,1402.119050563546,stimuli/138_xc.png,l,4.307510562939569,harmless,0.333,6.661016949,0.70978796,0.092406522
126,20,0,2,9,20,212,1402.6761444375152,1407.7908843574114,stimuli/252_zb.png,a,5.102671299362555,awful,0.333,2.711864407,1.983125776,0.258180985
126,20,0,2,9,21,213,1408.3486257140758,1415.6389185148291,stimuli/266_zb.png,a,7.278163134120405,awful,0.333,3.491525424,1.888010094,0.245797978
126,20,0,2,9,22,214,1416.1934177319054,1419.6948852017522,stimuli/183_xb.png,l,3.4895780491642654,harmless,0.333,6.448275862,1.095003225,0.143780967
126,20,0,2,9,23,215,1420.2558545196662,1424.8149711862206,stimuli/348_za.png,a,4.547190224402584,awful,0.333,3.084745763,2.119597681,0.275948114
126,20,0,2,9,24,216,1425.364783242927,1431.7748953945702,stimuli/265_yb.png,l,6.398257389431819,ambig,0.333,5.627118644,1.856008928,0.241631781
126,20,0,2,10,1,217,1443.4441656452836,1451.494906784501,stimuli/146_xa.png,l,8.03938144131098,harmless,0.333,6.442622951,1.162247681,0.148810567
126,20,0,2,10,2,218,1452.0543137156637,1457.3748849970289,stimuli/154_xc.png,l,5.308373873238452,harmless,0.333,6.5,0.965506805,0.124646393
126,20,0,2,10,3,219,1457.9311990560964,1462.0868835917208,stimuli/373_zb.png,a,4.143973133410327,awful,0.333,2.327586207,1.858011869,0.243968911
126,20,0,2,10,4,220,1462.6354440061841,1467.3989107797388,stimuli/256_zb.png,l,4.751518276054412,awful,0.333,3.051724138,2.012438634,0.264246138
126,20,0,2,10,5,221,1467.9463999331929,1473.4388798391446,stimuli/251_ya.png,a,5.4804660299560055,ambig,0.333,5.655172414,1.792300532,0.235340589
126,20,0,2,10,6,222,1473.994708680082,1480.214828377706,stimuli/145_xa.png,l,6.208324800012633,harmless,0.333,6.661016949,0.822321556,0.107057148
126,20,0,2,10,7,223,1480.7759985569865,1488.726838709088,stimuli/126_xa.png,l,7.938914103782736,harmless,0.333,6.6,0.977717855,0.126222832
126,20,0,2,10,8,224,1489.2775727590779,1494.0708639089717,stimuli/304_ya.png,a,4.7813131138682365,ambig,0.333,4.034482759,2.017167697,0.264867095
126,20,0,2,10,9,225,1494.624160320498,1498.4948457384016,stimuli/260_ya.png,l,3.858783000265248,ambig,0.333,4.966101695,2.016877936,0.262575142
126,20,0,2,10,10,226,1499.0477624825435,1506.7828278451925,stimuli/268_zb.png,a,7.723104655859061,awful,0.333,2.655737705,2.048456703,0.262278005
126,20,0,2,10,11,227,1507.343488781713,1511.9348157431232,stimuli/224_yb.png,l,4.579358771559782,ambig,0.333,5.881355932,1.609077116,0.209483997
126,20,0,2,10,12,228,1512.5454746315954,1516.3748397047166,stimuli/197_xa.png,l,3.8176635169656947,harmless,0.333,6.779661017,0.55918033,0.072799078
126,20,0,2,10,13,229,1516.935670388746,1520.5828143757535,stimuli/343_zb.png,a,3.635139563237317,awful,0.333,3.103448276,2.141401862,0.28117984
126,20,0,2,10,14,230,1521.1389590810286,1531.4148355457,stimuli/315_yb.png,a,10.263876373297535,ambig,0.333,5.050847458,1.915667965,0.249398726
126,20,0,2,10,15,231,1532.0161724950885,1535.7988030235283,stimuli/157_xc.png,l,3.770933304564096,harmless,0.333,6.603448276,0.877389573,0.115206895
126,20,0,2,10,16,232,1536.3573781519663,1542.3267897146288,stimuli/152_xa.png,l,5.957376812817529,harmless,0.333,6.576271186,0.968528743,0.126091702
126,20,0,2,10,17,233,1542.8738881730242,1546.0868528718129,stimuli/187_xc.png,l,3.2009401890682057,harmless,0.333,6.224137931,1.185335891,0.155642228
126,20,0,2,10,18,234,1546.6271606386872,1549.9908714392222,stimuli/349_za.png,a,3.351749699912034,awful,0.333,3.288135593,2.101320172,0.273568585
126,20,0,2,10,19,235,1550.550225594896,1560.3908605690813,stimuli/289_yb.png,a,9.828524212003686,ambig,0.333,5.305084746,1.714584873,0.223219937
126,20,0,2,10,20,236,1560.9406072474085,1564.6548098039348,stimuli/325_yb.png,a,3.702126846765168,ambig,0.333,5.131147541,1.811770863,0.231973488
126,20,0,2,10,21,237,1565.2054347586818,1569.1348788372707,stimuli/353_zb.png,a,3.9175960117718205,awful,0.333,1.949152542,1.623361018,0.211343603
126,20,0,2,10,22,238,1569.689582460327,1578.7828156360192,stimuli/327_zb.png,a,9.081192518235184,awful,0.333,2.502808989,1.906990248,0.101070281
126,20,0,2,10,23,239,1579.3295742053306,1585.6868227819214,stimuli/246_ya.png,l,6.345274085178971,ambig,0.333,5.542372881,1.715266481,0.223308675
126,20,0,2,10,24,240,1586.2357455345336,1588.7828124852385,stimuli/346_zb.png,a,2.5351271177642047,awful,0.333,1.288135593,0.983499162,0.128040685
