id,age,condition,counterbalance,block,trialinblock,trial,tstart,tend,trialstim,response,RT,trialtype,ethicfreq,norm_mean,norm_sd,norm_se
110,18,0,1,0,0,practice,2.0480016246438026e-05,5.895922276889905,stimuli/prac_217_1.png,a,5.875105550629087,harmless,NA,NA,NA,NA
110,18,0,1,1,1,1,4.250450165825896,10.783848299994133,stimuli/301_za.png,l,6.5215744856977835,awful,0.333,3.610169492,2.212947396,0.288101212
110,18,0,1,1,2,2,11.34012533747591,16.271849390119314,stimuli/116_xa.png,a,4.919738927390426,harmless,0.333,6.63559322,0.958030802,0.050918763
110,18,0,1,1,3,3,16.826406502514146,24.775796907837503,stimuli/217_yb.png,l,7.9373698339331895,ambig,0.333,5.169491525,2.001314588,0.260548967
110,18,0,1,1,4,4,25.32412810390815,32.519786819117144,stimuli/126_xa.png,a,7.183618057752028,harmless,0.333,6.6,0.977717855,0.126222832
110,18,0,1,1,5,5,33.130572132067755,40.1757501977263,stimuli/331_za.png,l,7.033286675694399,awful,0.333,1.983606557,1.638004917,0.209725039
110,18,0,1,1,6,6,40.72980200580787,49.02379735209979,stimuli/145_xa.png,a,8.282222110196017,harmless,0.333,6.661016949,0.822321556,0.107057148
110,18,0,1,1,7,7,49.574498712900095,56.839831528486684,stimuli/123_xc.png,a,7.253327998099849,harmless,0.333,6.491525424,1.023396666,0.133234897
110,18,0,1,1,8,8,57.40049561567139,62.58377496583853,stimuli/156_xc.png,a,5.171297375694849,harmless,0.333,6.590163934,0.955284411,0.122311635
110,18,0,1,1,9,9,63.134724843432195,68.37575894105248,stimuli/190_xc.png,l,5.229062756989151,harmless,0.333,6.517241379,1.046990328,0.137476565
110,18,0,1,1,10,10,68.93281618738547,75.40775734675117,stimuli/287_ya.png,l,6.463108058669604,ambig,0.333,5.950819672,1.407435369,0.180203633
110,18,0,1,1,11,11,75.95266168948729,81.29579837294295,stimuli/192_za.png,l,5.3310637306421995,awful,0.333,2.68852459,2.093967396,0.268105052
110,18,0,1,1,12,12,81.90916180133354,98.27981571154669,stimuli/297_za.png,l,16.35930248303339,awful,0.333,1.898305085,1.446695584,0.188343723
110,18,0,1,1,13,13,98.83196366846096,107.5597460323479,stimuli/289_yb.png,l,8.715674358652905,ambig,0.333,5.305084746,1.714584873,0.223219937
110,18,0,1,1,14,14,108.11334412998985,114.75171716825571,stimuli/176_xb.png,a,6.626452503842302,harmless,0.333,6.796610169,0.517942249,0.067430337
110,18,0,1,1,15,15,115.28766033460852,119.69574457360432,stimuli/247_ya.png,l,4.396035704528913,ambig,0.333,4.65,2.081598147,0.268733165
110,18,0,1,1,16,16,120.31592389952857,128.72771383472718,stimuli/292_zb.png,l,8.399930840707384,awful,0.333,2.396551724,1.955107169,0.256718148
110,18,0,1,1,17,17,129.28403655835427,138.59173577348702,stimuli/281_ya.png,a,9.295851542148739,ambig,0.333,5.881355932,1.543448286,0.200939852
110,18,0,1,1,18,18,139.1439884933643,144.7677435463993,stimuli/333_za.png,l,5.61172857391648,awful,0.333,3.266666667,2.185209657,0.282109354
110,18,0,1,1,19,19,145.38044295064174,152.9757524819579,stimuli/303_zb.png,l,7.583916750387289,awful,0.333,3.620689655,2.158846233,0.283470398
110,18,0,1,1,20,20,153.53714479040354,161.61573398695327,stimuli/361_za.png,l,8.066593831405044,awful,0.333,2.416666667,1.907093508,0.246204713
110,18,0,1,1,21,21,162.17703216616064,167.97574539273046,stimuli/260_ya.png,l,5.786745824385434,ambig,0.333,4.966101695,2.016877936,0.262575142
110,18,0,1,1,22,22,168.53719835344236,175.43170908652246,stimuli/196_xb.png,a,6.882455503335223,harmless,0.333,6.594366197,0.982313556,0.05213579
110,18,0,1,1,23,23,175.99027161183767,182.335747346282,stimuli/254_ya.png,a,6.333734793588519,ambig,0.333,5.983606557,1.627798137,0.208418195
110,18,0,1,1,24,24,182.89762408507522,191.11976618156768,stimuli/218_yb.png,a,8.210267248097807,ambig,0.333,5.850282486,1.552723069,0.0825263
110,18,0,1,2,1,25,211.10082888812758,220.00767133082263,stimuli/228_ya.png,l,8.89539609872736,ambig,0.333,5.442622951,1.793735303,0.229664272
110,18,0,1,2,2,26,220.56783326447476,227.6396939974511,stimuli/104_xc.png,a,7.059856703039259,harmless,0.333,6.745762712,0.756425814,0.098478253
110,18,0,1,2,3,27,228.19315070437733,233.65566799417138,stimuli/312_yb.png,l,5.450524287647568,ambig,0.333,4.677966102,2.112692986,0.275049199
110,18,0,1,2,4,28,234.20957644237205,244.1916690559592,stimuli/339_ya.png,l,9.970142540638335,ambig,0.333,4.949152542,1.960152429,0.25519011
110,18,0,1,2,5,29,244.74041930411477,252.79966397059616,stimuli/352_zb.png,l,8.047563984175213,awful,0.333,2.93442623,2.135952968,0.273480754
110,18,0,1,2,6,30,253.3491676460253,257.76773645717185,stimuli/150_xc.png,a,4.406505704391748,harmless,0.333,6.482758621,1.030097582,0.135258439
110,18,0,1,2,7,31,258.31872217473574,265.03174555662554,stimuli/269_za.png,l,6.701049678144045,awful,0.333,3.457627119,2.119873401,0.27598401
110,18,0,1,2,8,32,265.5771252713166,271.37569277500734,stimuli/139_xa.png,a,5.786251941695809,harmless,0.333,6.724137931,0.790138861,0.103750315
110,18,0,1,2,9,33,271.9354506226955,277.95963315619156,stimuli/245_yb.png,l,6.012171808280982,ambig,0.333,4.949152542,2.096168334,0.272897873
110,18,0,1,2,10,34,278.5118665775517,282.5436617587693,stimuli/298_za.png,l,4.019609194481745,awful,0.333,2.881355932,2.026418156,0.263817173
110,18,0,1,2,11,35,283.0933414832689,289.02370597980917,stimuli/236_yb.png,l,5.918400245136581,ambig,0.333,5.93442623,1.49297078,0.19115532
110,18,0,1,2,12,36,289.5780007907888,297.42363563890103,stimuli/239_ya.png,a,7.833741488982923,ambig,0.333,5.157894737,1.925296579,0.255011762
110,18,0,1,2,13,37,297.9842579785036,302.903616450727,stimuli/259_xc.png,l,4.907377679250203,harmless,0.333,6.568965517,0.993170874,0.130409725
110,18,0,1,2,14,38,303.45338045828976,311.40762698382605,stimuli/357_za.png,l,7.942190508008935,awful,0.333,2.793103448,2.066937905,0.271402243
110,18,0,1,2,15,39,312.040521625313,321.8556070268387,stimuli/373_zb.png,l,9.803164079319686,awful,0.333,2.327586207,1.858011869,0.243968911
110,18,0,1,2,16,40,322.431045849924,328.91964007203933,stimuli/313_zb.png,l,6.47697143512778,awful,0.333,2.101694915,1.688652955,0.219843889
110,18,0,1,2,17,41,329.4720479672542,339.9196164413588,stimuli/168_xa.png,a,10.435591225745156,harmless,0.333,6.474576271,1.164946827,0.151663159
110,18,0,1,2,18,42,340.47177188133355,344.9836333389394,stimuli/346_zb.png,l,4.499839704716578,awful,0.333,1.288135593,0.983499162,0.128040685
110,18,0,1,2,19,43,345.5332476849435,351.49561058718245,stimuli/106_xc.png,a,5.950439610751346,harmless,0.333,6.661016949,0.863237081,0.112383896
110,18,0,1,2,20,44,352.04998613661155,363.1357271813322,stimuli/222_ya.png,l,11.0739496917231,ambig,0.333,5.931034483,1.543089507,0.202617579
110,18,0,1,2,21,45,363.68965256481897,369.1196409385884,stimuli/174_xc.png,a,5.417957956204191,harmless,0.333,6.533333333,1.111826512,0.143536185
110,18,0,1,2,22,46,369.6751988134347,378.53565802203957,stimuli/200_ya.png,l,8.848403585026972,ambig,0.333,5.862068966,1.444266048,0.189641423
110,18,0,1,2,23,47,379.0956852603704,387.1995967805851,stimuli/148_xc.png,a,8.091879921150394,harmless,0.333,6.491525424,1.135218061,0.147792803
110,18,0,1,2,24,48,387.7526104107965,397.0635379808955,stimuli/290_zb.png,l,9.29885540495161,awful,0.333,2.586206897,2.026443456,0.266085062
110,18,0,1,3,1,49,410.9604492048966,418.1196050985018,stimuli/369_za.png,l,7.147761931060813,awful,0.333,2.948275862,2.055565093,0.26990892
110,18,0,1,3,2,50,418.6772149106255,429.63154217461124,stimuli/226_yb.png,a,10.942366163362749,ambig,0.333,5.683333333,1.712285287,0.22105508
110,18,0,1,3,3,51,430.2555205383105,436.77556493261363,stimuli/305_zb.png,l,6.508318813634105,awful,0.333,2.75,2.12830003,0.274762352
110,18,0,1,3,4,52,437.333622547565,443.687561243074,stimuli/132_xc.png,a,6.342105594812892,harmless,0.333,6.627118644,0.692280217,0.090127208
110,18,0,1,3,5,53,444.2405977162998,451.6395474867895,stimuli/188_xa.png,a,7.387379758874886,harmless,0.333,6.655172414,0.806807095,0.105938962
110,18,0,1,3,6,54,452.1929502367275,458.48758518882096,stimuli/258_ya.png,l,6.282617925317027,ambig,0.333,5.627118644,1.78014243,0.231754804
110,18,0,1,3,7,55,459.0915991090005,466.7675734049408,stimuli/229_za.png,l,7.664203816791996,awful,0.333,3.406779661,2.043649913,0.266060557
110,18,0,1,3,8,56,467.3182401073864,474.2875311531825,stimuli/327_zb.png,l,6.957432345137931,awful,0.333,2.502808989,1.906990248,0.101070281
110,18,0,1,3,9,57,474.84759108081926,482.39955274853855,stimuli/113_xb.png,a,7.540012382552959,harmless,0.333,6.733333333,0.660422737,0.085260209
110,18,0,1,3,10,58,482.9595157901058,488.9195274321828,stimuli/270_yb.png,a,5.947858344647102,ambig,0.333,5.534482759,1.912246013,0.251090203
110,18,0,1,3,11,59,489.47608882642817,496.09552811586764,stimuli/249_ya.png,l,6.60724897054024,ambig,0.333,5.327868852,1.859402337,0.238072074
110,18,0,1,3,12,60,496.6480041464092,507.58355047367513,stimuli/338_zb.png,l,10.92377466650214,awful,0.333,3.310344828,2.137443107,0.28066003
110,18,0,1,3,13,61,508.1320785927819,513.9435012271861,stimuli/233_yb.png,l,5.7994946169201285,ambig,0.333,5.318309859,1.922973646,0.102060844
110,18,0,1,3,14,62,514.4914173096186,519.5115235378034,stimuli/115_xb.png,a,5.007953324588016,harmless,0.333,6.440677966,1.021681954,0.133011661
110,18,0,1,3,15,63,520.0691770667909,525.3595403659856,stimuli/191_ya.png,l,5.278317127842456,ambig,0.333,5.517241379,2.062542966,0.270825159
110,18,0,1,3,16,64,525.9131282236194,534.9915240418632,stimuli/345_zb.png,l,9.066377216135152,awful,0.333,3.694915254,2.191317013,0.285285176
110,18,0,1,3,17,65,535.5386737001827,543.3675122013083,stimuli/221_xb.png,a,7.816802963614464,harmless,0.333,6.440677966,1.133672495,0.147591588
110,18,0,1,3,18,66,543.928435833077,550.1834845439298,stimuli/267_ya.png,l,6.2431202995358035,ambig,0.333,5.103448276,1.898195405,0.249245267
110,18,0,1,3,19,67,550.742208546144,558.007500007865,stimuli/309_ya.png,l,7.253262619604357,ambig,0.333,4.706896552,1.946734744,0.255618795
110,18,0,1,3,20,68,558.5689395776717,566.8395629255101,stimuli/171_xa.png,a,8.258570481091738,harmless,0.333,6.465517241,1.046556882,0.137419651
110,18,0,1,3,21,69,567.3963645658223,571.1674900671933,stimuli/318_za.png,l,3.7589966224040836,awful,0.333,3.06557377,2.197489875,0.281359747
110,18,0,1,3,22,70,571.7254381929524,577.8714719281998,stimuli/274_xb.png,a,6.1340864192461595,harmless,0.333,6.491525424,1.179901828,0.153610134
110,18,0,1,3,23,71,578.4286158205941,586.1435111521278,stimuli/356_za.png,l,7.7029578615911305,awful,0.333,3.033333333,2.178217796,0.281206708
110,18,0,1,3,24,72,586.6949568816926,592.7755034925649,stimuli/131_xb.png,a,6.068567787180655,harmless,0.333,6.525423729,1.119666394,0.145768149
110,18,0,1,4,1,73,606.6447253790684,613.5834476798773,stimuli/362_zb.png,l,6.926970726228319,awful,0.333,1.474576271,1.222715071,0.159183944
110,18,0,1,4,2,74,614.1320679589408,619.8714356943965,stimuli/282_xc.png,a,5.7273889117641374,harmless,0.333,6.55,0.998728005,0.128935231
110,18,0,1,4,3,75,620.4289383804426,626.1914528345224,stimuli/136_xc.png,a,5.750520270434208,harmless,0.333,6.559322034,1.038420326,0.135190811
110,18,0,1,4,4,76,626.7411534328712,631.58348430763,stimuli/149_xa.png,a,4.830301638809033,harmless,0.333,6.721311475,0.933294301,0.11949609
110,18,0,1,4,5,77,632.1315386299975,639.3274316834286,stimuli/265_yb.png,a,7.184021749650128,ambig,0.333,5.627118644,1.856008928,0.241631781
110,18,0,1,4,6,78,639.8816469375743,645.5114073532168,stimuli/349_za.png,l,5.6179123488254845,awful,0.333,3.288135593,2.101320172,0.273568585
110,18,0,1,4,7,79,646.0690309499623,653.3914592148503,stimuli/194_xb.png,a,7.310468739597127,harmless,0.333,6.586206897,1.026567825,0.134794959
110,18,0,1,4,8,80,653.9452715646476,663.3594927106751,stimuli/253_ya.png,l,9.40219466702547,ambig,0.333,5.491803279,1.849531029,0.236808182
110,18,0,1,4,9,81,663.9279565225588,672.4794991381932,stimuli/266_zb.png,l,8.53987532411702,awful,0.333,3.491525424,1.888010094,0.245797978
110,18,0,1,4,10,82,673.038097109762,678.7514517160598,stimuli/300_za.png,l,5.701285591814667,awful,0.333,3.75,2.12032137,0.273732312
110,18,0,1,4,11,83,679.3040021834895,691.1994163991185,stimuli/330_ya.png,a,11.88337158889044,ambig,0.333,4.796610169,2.049219036,0.266785595
110,18,0,1,4,12,84,691.8037843867205,698.1353983200388,stimuli/341_zb.png,l,6.319563035853207,awful,0.333,3.603448276,2.15975677,0.283589957
110,18,0,1,4,13,85,698.6936997255543,704.1674030272989,stimuli/310_zb.png,l,5.461700453422964,awful,0.333,3.224137931,2.102989547,0.276136056
110,18,0,1,4,14,86,704.7256867097458,711.6953853861196,stimuli/240_xa.png,a,6.957513871253468,harmless,0.333,6.482758621,1.096107616,0.143925981
110,18,0,1,4,15,87,712.2567430359777,718.9594472608296,stimuli/250_yb.png,a,6.690663567278534,ambig,0.333,5.950819672,1.585625318,0.203018519
110,18,0,1,4,16,88,719.5101683139801,727.5513732619584,stimuli/336_ya.png,a,8.029626665636897,ambig,0.333,5.033898305,1.884291705,0.245313885
110,18,0,1,4,17,89,728.1008856019471,735.0153647171101,stimuli/325_yb.png,l,6.902459331555292,ambig,0.333,5.131147541,1.811770863,0.231973488
110,18,0,1,4,18,90,735.5678096337942,742.04738990427,stimuli/161_xc.png,a,6.467503379215486,harmless,0.333,6.796610169,0.609682252,0.079373868
110,18,0,1,4,19,91,742.6001896761591,747.5594124449417,stimuli/332_zb.png,l,4.947351465001702,awful,0.333,2.694915254,2.002190501,0.260663001
110,18,0,1,4,20,92,748.1156099255895,758.6073966627009,stimuli/155_xb.png,a,10.479797673528083,harmless,0.333,6.655737705,0.892286312,0.114245555
110,18,0,1,4,21,93,759.1623369872104,763.2233590803808,stimuli/103_xb.png,a,4.0491622110130265,harmless,0.333,6.779661017,0.589207434,0.076708274
110,18,0,1,4,22,94,763.7726138450671,771.9354045427172,stimuli/342_yb.png,l,8.150923726148903,ambig,0.333,4.916666667,2.085394461,0.269223267
110,18,0,1,4,23,95,772.4914232173469,783.4793542029802,stimuli/210_yb.png,a,10.975787534378469,ambig,0.333,5.557377049,1.76564049,0.226067099
110,18,0,1,4,24,96,784.036811990547,789.5833586707013,stimuli/294_za.png,l,5.534563130349852,awful,0.333,1.557377049,1.38473331,0.177296933
110,18,0,1,5,1,97,808.8322350282688,813.9833249575458,stimuli/328_za.png,l,5.139527006773278,awful,0.333,2.706896552,1.955725922,0.256799395
110,18,0,1,5,2,98,814.53738582402,820.5193583146902,stimuli/117_xc.png,a,5.970042109955102,harmless,0.333,6.627118644,0.868972939,0.113130641
110,18,0,1,5,3,99,821.1694837152027,827.6794432909228,stimuli/344_za.png,l,6.4982083949726075,awful,0.333,2.711864407,2.043077863,0.265986082
110,18,0,1,5,4,100,828.2410482760752,836.8073160030181,stimuli/189_yb.png,a,8.55427945102565,ambig,0.333,5.983333333,1.455459234,0.187898979
110,18,0,1,5,5,101,837.3655756609514,846.8633323145332,stimuli/232_yb.png,l,9.485725448350422,ambig,0.333,5.483333333,1.845669845,0.238274952
110,18,0,1,5,6,102,847.4136351032648,853.8393002302619,stimuli/182_xb.png,a,6.413715841714293,harmless,0.333,6.542372881,0.988241802,0.128658124
110,18,0,1,5,7,103,854.3978529095184,860.2713503873674,stimuli/175_xb.png,a,5.861704943235964,harmless,0.333,6.6,1.028409995,0.13276716
110,18,0,1,5,8,104,860.8206402043579,870.5273187285056,stimuli/340_za.png,l,9.694659134256653,awful,0.333,2.508474576,1.832398855,0.238558011
110,18,0,1,5,9,105,871.0840010334505,877.1113055835012,stimuli/251_ya.png,l,6.015363929443993,ambig,0.333,5.655172414,1.792300532,0.235340589
110,18,0,1,5,10,106,877.6857960255584,884.1192809633212,stimuli/347_zb.png,l,6.421588427852839,awful,0.333,3.796610169,2.147810923,0.279621165
110,18,0,1,5,11,107,884.6658079512417,892.8712919406826,stimuli/271_ya.png,a,8.193411430343986,ambig,0.333,5.711864407,1.771915459,0.230683744
110,18,0,1,5,12,108,893.4459529180313,899.3112891206983,stimuli/317_za.png,l,5.853350683581084,awful,0.333,3.65,2.03215674,0.262350307
110,18,0,1,5,13,109,899.8701210366562,907.7272628811188,stimuli/169_xc.png,a,7.845075980760157,harmless,0.333,6.603448276,0.916508538,0.120343467
110,18,0,1,5,14,110,908.290958006517,913.8872726326808,stimuli/186_xa.png,a,5.584458288503811,harmless,0.333,6.65,0.879618561,0.113558268
110,18,0,1,5,15,111,914.4462880810024,920.6872808247572,stimuli/220_yb.png,l,6.229043852421455,ambig,0.333,4.75,2.096203186,0.270618668
110,18,0,1,5,16,112,921.2445082124323,928.7032812091056,stimuli/355_zb.png,l,7.446748880669475,awful,0.333,3.183333333,2.070713188,0.267327923
110,18,0,1,5,17,113,929.2588863455458,934.2152671220247,stimuli/241_yb.png,l,4.9442105437628925,ambig,0.333,5.508474576,1.442852555,0.187843403
110,18,0,1,5,18,114,934.7747575484682,942.9272574459901,stimuli/215_yb.png,l,8.14058054459747,ambig,0.333,5.866666667,1.466769385,0.189359113
110,18,0,1,5,19,115,943.4892117725685,950.8232624304947,stimuli/367_zb.png,l,7.322021028143354,awful,0.333,3.413793103,2.086165649,0.27392697
110,18,0,1,5,20,116,951.3837000563508,956.9913212112151,stimuli/231_xb.png,a,5.595682503422722,harmless,0.333,6.62295082,1.05141071,0.134619347
110,18,0,1,5,21,117,957.5409647019114,968.6232781056315,stimuli/165_xb.png,a,11.070518899941817,harmless,0.333,6.557377049,1.008705278,0.129151477
110,18,0,1,5,22,118,969.1800549336476,980.8153213151963,stimuli/137_xa.png,a,11.623363176360726,harmless,0.333,6.355932203,1.094858074,0.14253838
110,18,0,1,5,23,119,981.3684172593057,986.9752420576988,stimuli/209_ya.png,l,5.594939710106701,ambig,0.333,5.603448276,1.825161903,0.239655499
110,18,0,1,5,24,120,987.5273813499371,993.1832490240922,stimuli/295_za.png,l,5.643893182743341,awful,0.333,2.3,1.825432384,0.235662307
110,18,0,1,6,1,121,1010.0815843949094,1018.3992230995791,stimuli/319_ya.png,l,8.305992287001573,ambig,0.333,4.216666667,2.108028774,0.272145344
110,18,0,1,6,2,122,1018.9547620697413,1027.25521255075,stimuli/160_xb.png,a,8.288464174140245,harmless,0.333,6.666666667,0.680644427,0.087870818
110,18,0,1,6,3,123,1027.8142335128505,1034.8472090502037,stimuli/111_xa.png,a,7.02112510742154,harmless,0.333,6.590163934,0.863655973,0.110579816
110,18,0,1,6,4,124,1035.4091306874761,1041.5831554462202,stimuli/296_yb.png,l,6.161944322753698,ambig,0.333,4.229508197,2.052587332,0.262806878
110,18,0,1,6,5,125,1042.1435592012713,1049.1831938856049,stimuli/302_za.png,l,7.027616869891062,awful,0.333,3.137931034,2.188071937,0.287307921
110,18,0,1,6,6,126,1049.7374343458796,1058.4872441182379,stimuli/211_zb.png,l,8.737838037894107,awful,0.333,3.983333333,2.127237938,0.274625237
110,18,0,1,6,7,127,1059.0496738167712,1065.1831674979767,stimuli/170_xc.png,a,6.1217251712223515,harmless,0.333,6.583333333,1.062323432,0.137145365
110,18,0,1,6,8,128,1065.7370625552721,1072.775230557425,stimuli/256_zb.png,l,7.026201387634501,awful,0.333,3.051724138,2.012438634,0.264246138
110,18,0,1,6,9,129,1073.3449901223648,1082.1512069014134,stimuli/370_za.png,l,8.794237955356948,awful,0.333,2.393442623,1.882185684,0.240989182
110,18,0,1,6,10,130,1082.7060905121034,1091.8151744107017,stimuli/173_yb.png,a,9.097291757934727,ambig,0.333,5.796610169,1.242628763,0.161776485
110,18,0,1,6,11,131,1092.377208294114,1099.04723748588,stimuli/121_xc.png,a,6.65808975265827,harmless,0.333,6.508474576,1.006408455,0.131023221
110,18,0,1,6,12,132,1099.6124130781973,1106.159183462849,stimuli/334_za.png,l,6.5348596962867305,awful,0.333,3.333333333,2.214487481,0.285889104
110,18,0,1,6,13,133,1106.720639574225,1113.7191547751427,stimuli/284_ya.png,l,6.986546223401092,ambig,0.333,5.948275862,1.431750417,0.18799804
110,18,0,1,6,14,134,1114.2688092935132,1122.3671478938777,stimuli/268_zb.png,l,8.086310939746909,awful,0.333,2.655737705,2.048456703,0.262278005
110,18,0,1,6,15,135,1122.9234060267918,1129.1591874012956,stimuli/263_ya.png,l,6.223858476965688,ambig,0.333,4.983050847,2.071910042,0.269739712
110,18,0,1,6,16,136,1129.7212008046918,1137.7991748140194,stimuli/224_yb.png,l,8.066011727205478,ambig,0.333,5.881355932,1.609077116,0.209483997
110,18,0,1,6,17,137,1138.3458002633415,1147.2231499481713,stimuli/371_zb.png,l,8.865474442602135,awful,0.333,3.131147541,2.085468851,0.267016925
110,18,0,1,6,18,138,1147.7829274882097,1154.8711391284596,stimuli/238_xb.png,l,7.076373813324608,harmless,0.333,6.4,1.076718178,0.139003719
110,18,0,1,6,19,139,1155.4999688861426,1161.9831248838454,stimuli/363_zb.png,l,6.471476496895775,awful,0.333,2.433333333,2.019956927,0.260775318
110,18,0,1,6,20,140,1162.5323918578215,1168.831164161209,stimuli/197_xa.png,a,6.2868895780993626,harmless,0.333,6.779661017,0.55918033,0.072799078
110,18,0,1,6,21,141,1169.3923067712458,1174.6311621132772,stimuli/178_xa.png,a,5.226960801286623,harmless,0.333,6.483333333,1.112207557,0.143585378
110,18,0,1,6,22,142,1175.189573007985,1179.2871097380994,stimuli/129_xa.png,a,4.085505131050013,harmless,0.333,6.770491803,0.642740036,0.082294429
110,18,0,1,6,23,143,1179.8457561526448,1184.5431076176465,stimuli/283_yb.png,l,4.685345465899445,ambig,0.333,5.949152542,1.478859402,0.192531095
110,18,0,1,6,24,144,1185.0946624425706,1188.679147906485,stimuli/243_ya.png,l,3.572529877186753,ambig,0.333,5.830508475,1.652088985,0.215083666
110,18,0,1,7,1,145,1211.1758392069023,1216.6951727092965,stimuli/181_xa.png,a,5.507419663248584,harmless,0.333,6.666666667,0.950765377,0.122743282
110,18,0,1,7,2,146,1217.253182274988,1228.3830951090204,stimuli/276_ya.png,l,11.117862724233419,ambig,0.333,5.186440678,1.804922162,0.234980851
110,18,0,1,7,3,147,1228.9397569340654,1235.5351042746333,stimuli/307_za.png,l,6.5833066831110045,awful,0.333,2.93220339,2.172432347,0.282826601
110,18,0,1,7,4,148,1236.0955824665725,1243.1830796702998,stimuli/246_ya.png,l,7.075562096899375,ambig,0.333,5.542372881,1.715266481,0.223308675
110,18,0,1,7,5,149,1243.7569375958992,1250.0950992176076,stimuli/351_zb.png,l,6.3263426994672045,awful,0.333,3.06779661,2.033040926,0.264679384
110,18,0,1,7,6,150,1250.643903028802,1257.0311075262725,stimuli/286_ya.png,l,6.375427322927862,ambig,0.333,5.06779661,1.779814082,0.231712057
110,18,0,1,7,7,151,1257.629244083655,1262.9750691592926,stimuli/364_za.png,l,5.334042781032622,awful,0.333,1.677966102,1.279017376,0.166513879
110,18,0,1,7,8,152,1263.5330736050382,1270.255099516944,stimuli/214_xb.png,a,6.710067962063476,harmless,0.333,6.465517241,0.940614156,0.12350869
110,18,0,1,7,9,153,1270.814193340484,1278.1750515149906,stimuli/212_ya.png,l,7.3489785999991,ambig,0.333,5.677966102,1.490668422,0.194068498
110,18,0,1,7,10,154,1278.7366045125527,1284.0390683338046,stimuli/335_yb.png,l,5.2905090221902356,ambig,0.333,5.016949153,2.046793332,0.266469795
110,18,0,1,7,11,155,1284.6282748287776,1293.5910532384878,stimuli/293_zb.png,a,8.95113002276048,awful,0.333,3.677966102,2.169066842,0.28238845
110,18,0,1,7,12,156,1294.142641540384,1299.6311038241256,stimuli/264_xa.png,a,5.476804050733335,harmless,0.333,6.533333333,0.947193297,0.122282129
110,18,0,1,7,13,157,1300.1881819441915,1304.271051852149,stimuli/201_yb.png,l,4.070863515022211,ambig,0.333,5.898305085,1.626238682,0.211718243
110,18,0,1,7,14,158,1304.8505815528333,1310.8230525106192,stimuli/299_za.png,l,5.960375161841512,awful,0.333,1.288135593,0.929420425,0.121000233
110,18,0,1,7,15,159,1311.4387246639235,1318.2150489314226,stimuli/366_za.png,l,6.7640461209230125,awful,0.333,3.689655172,2.036568291,0.267414518
110,18,0,1,7,16,160,1318.7677285802783,1325.5110005104216,stimuli/237_ya.png,l,6.731284047942609,ambig,0.333,4.305084746,2.019339575,0.26289562
110,18,0,1,7,17,161,1326.0651582630817,1334.1430066354806,stimuli/278_xb.png,a,8.066117277834564,harmless,0.333,6.360655738,1.140654591,0.146045855
110,18,0,1,7,18,162,1334.704977503512,1339.7750588405179,stimuli/206_xa.png,a,5.058065098011866,harmless,0.333,6.325842697,1.136094431,0.060212884
110,18,0,1,7,19,163,1340.329200839391,1345.183016654919,stimuli/322_za.png,l,4.8418767703697085,awful,0.333,2.406779661,1.975004531,0.257123689
110,18,0,1,7,20,164,1345.7357313560788,1352.7590840561315,stimuli/255_xb.png,a,7.011413260945119,harmless,0.333,6.770491803,0.642740036,0.082294429
110,18,0,1,7,21,165,1353.3140570698306,1361.1270629649516,stimuli/277_yb.png,a,7.801082997582853,ambig,0.333,5.491525424,2.02886822,0.264136144
110,18,0,1,7,22,166,1361.6896265710238,1370.7989975833334,stimuli/180_xc.png,a,9.097462293226272,harmless,0.333,6.672131148,0.723908638,0.092687003
110,18,0,1,7,23,167,1371.3602488948964,1376.3830163398525,stimuli/353_zb.png,l,5.01080476900097,awful,0.333,1.949152542,1.623361018,0.211343603
110,18,0,1,7,24,168,1376.9384745716816,1384.2869978857925,stimuli/242_xb.png,a,7.336553942644969,harmless,0.333,6.576271186,0.913564256,0.118935936
110,18,0,1,8,1,169,1395.3131886395859,1399.3590197017184,stimuli/337_zb.png,l,4.034181887516752,awful,0.333,3.033333333,2.20143764,0.284204377
110,18,0,1,8,2,170,1399.9072099009063,1408.82322777214,stimuli/157_xc.png,l,8.903994149062783,harmless,0.333,6.603448276,0.877389573,0.115206895
110,18,0,1,8,3,171,1409.3748400985496,1414.4390137468,stimuli/320_za.png,l,5.052488239831291,awful,0.333,1.423728814,1.117314975,0.14546202
110,18,0,1,8,4,172,1415.0033342995448,1418.7509846148314,stimuli/316_za.png,l,3.736226026667282,awful,0.333,2.344827586,1.802062407,0.236622386
110,18,0,1,8,5,173,1419.313337907195,1425.4549247281393,stimuli/151_xa.png,a,6.1296001203591,harmless,0.333,6.610169492,0.947172729,0.123311386
110,18,0,1,8,6,174,1426.0205871140352,1433.1189753388753,stimuli/308_zb.png,l,7.086567333433777,awful,0.333,1.644067797,1.471132708,0.191525165
110,18,0,1,8,7,175,1433.6730232085101,1437.463009203435,stimuli/306_zb.png,l,3.777990235830657,awful,0.333,2.352112676,1.917055413,0.101746737
110,18,0,1,8,8,176,1438.0211463752203,1443.7909438280622,stimuli/166_xa.png,a,5.7579375706845894,harmless,0.333,6.593220339,1.052397002,0.13701042
110,18,0,1,8,9,177,1444.344580916455,1449.9989440990612,stimuli/304_ya.png,l,5.642335522104986,ambig,0.333,4.034482759,2.017167697,0.264867095
110,18,0,1,8,10,178,1450.5476754425326,1457.887016238994,stimuli/142_xa.png,a,7.3275021818699315,harmless,0.333,6.4,1.076718178,0.139003719
110,18,0,1,8,11,179,1458.4389546698658,1465.8069268832915,stimuli/359_za.png,l,7.355928011238575,awful,0.333,2.01754386,1.641985167,0.217486248
110,18,0,1,8,12,180,1466.3596809690353,1472.4629733633483,stimuli/114_xc.png,a,6.091255675302818,harmless,0.333,6.644067797,0.97843492,0.127381377
110,18,0,1,8,13,181,1473.0218304855516,1479.1669658583123,stimuli/360_za.png,l,6.133550001191907,awful,0.333,3.2,2.207844259,0.285031468
110,18,0,1,8,14,182,1479.7612021595705,1484.4389574268134,stimuli/372_zb.png,l,4.666020628064871,awful,0.333,2.796610169,2.082601664,0.271131643
110,18,0,1,8,15,183,1485.0011488485616,1493.2709451199044,stimuli/140_xb.png,a,8.258110469090752,harmless,0.333,6.724137931,0.790138861,0.103750315
110,18,0,1,8,16,184,1493.8279452585848,1497.5349258624483,stimuli/262_ya.png,l,3.695249509299174,ambig,0.333,5.491525424,1.7750462,0.231091332
110,18,0,1,8,17,185,1498.094468276482,1506.7509271132294,stimuli/141_xc.png,a,8.644443385419436,harmless,0.333,6.508474576,1.040107444,0.135410455
110,18,0,1,8,18,186,1507.3145505588036,1512.5029294259148,stimuli/219_ya.png,l,5.176483932649717,ambig,0.333,5.271186441,1.998538332,0.260187529
110,18,0,1,8,19,187,1513.0621209233068,1518.8149073831737,stimuli/323_yb.png,l,5.740827328525484,ambig,0.333,4.603448276,1.955107169,0.256718148
110,18,0,1,8,20,188,1519.375226461445,1524.7109076415654,stimuli/130_xc.png,a,5.323705901042558,harmless,0.333,6.644067797,0.960651931,0.125066229
110,18,0,1,8,21,189,1525.2657573814504,1530.4309111546027,stimuli/230_yb.png,l,5.1532812878722325,ambig,0.333,4.98245614,1.875511626,0.248417583
110,18,0,1,8,22,190,1530.9849133380922,1539.6069075060077,stimuli/288_yb.png,l,8.609959418070503,ambig,0.333,5.189655172,1.914459262,0.251380817
110,18,0,1,8,23,191,1540.1578916482395,1546.1828941688873,stimuli/213_ya.png,l,6.013347438303754,ambig,0.333,5.98245614,1.597891781,0.211645937
110,18,0,1,8,24,192,1546.735322937835,1552.8788994684583,stimuli/285_yb.png,l,6.13161149143707,ambig,0.333,4.120689655,2.119893958,0.278355714
110,18,0,1,9,1,193,1580.249832221656,1585.3988686382072,stimuli/107_xa.png,a,5.137788177118637,harmless,0.333,6.813559322,0.540580029,0.070377525
110,18,0,1,9,2,194,1585.9539791040588,1592.086869019433,stimuli/272_xb.png,a,6.120891399332322,harmless,0.333,6.355932203,1.029943284,0.134087194
110,18,0,1,9,3,195,1592.641155559686,1597.6788686696673,stimuli/223_yb.png,l,5.025786667829379,ambig,0.333,5.542372881,1.77455224,0.231027024
110,18,0,1,9,4,196,1598.2351555533241,1605.3348552852403,stimuli/234_xb.png,a,7.087740600458346,harmless,0.333,6.637931034,0.788030542,0.103473479
110,18,0,1,9,5,197,1605.8912339350209,1612.078885762603,stimuli/358_za.png,l,6.175793914590031,awful,0.333,3.949152542,2.112554662,0.275031191
110,18,0,1,9,6,198,1612.6418132823892,1619.3188938916428,stimuli/193_xc.png,a,6.665130536304787,harmless,0.333,6.482758621,1.012923151,0.133003326
110,18,0,1,9,7,199,1619.885587759898,1626.9029181619408,stimuli/354_zb.png,l,7.005357879912481,awful,0.333,2,1.701925887,0.221571878
110,18,0,1,9,8,200,1627.4525084834313,1635.3988528843038,stimuli/203_yb.png,l,7.934688137029298,ambig,0.333,6,1.542501327,0.200816568
110,18,0,1,9,9,201,1635.953455682844,1643.5188545858255,stimuli/147_ya.png,a,7.553522873087786,ambig,0.333,5.883333333,1.766847875,0.22809908
110,18,0,1,9,10,202,1644.0990368891507,1649.150869375444,stimuli/326_zb.png,l,5.040052948636003,awful,0.333,3.389830508,2.220724867,0.289113752
110,18,0,1,9,11,203,1649.7020890375134,1655.9348858477315,stimuli/164_xb.png,a,6.221129912533797,harmless,0.333,6.830508475,0.460604639,0.059965616
110,18,0,1,9,12,204,1656.4836128589232,1660.9188358386746,stimuli/248_zb.png,l,4.423242974560708,awful,0.333,3.288135593,1.991800844,0.259310383
110,18,0,1,9,13,205,1661.4688853845,1670.0068710359046,stimuli/162_xa.png,a,8.526139947585762,harmless,0.333,6.644067797,0.905209289,0.117848212
110,18,0,1,9,14,206,1670.561306449934,1673.6148226275109,stimuli/195_xc.png,a,3.0415661046281457,harmless,0.333,6.637640449,1.001766915,0.05309354
110,18,0,1,9,15,207,1674.171534470981,1678.3668391186511,stimuli/324_za.png,l,4.183328974759206,awful,0.333,2.491525424,1.994586478,0.259673041
110,18,0,1,9,16,208,1678.9230633808766,1685.0387816140428,stimuli/350_ya.png,l,6.103969415533356,ambig,0.333,4.915254237,2.02814792,0.264042369
110,18,0,1,9,17,209,1685.5935797600541,1693.6148245967925,stimuli/348_za.png,l,8.009140376118012,awful,0.333,3.084745763,2.119597681,0.275948114
110,18,0,1,9,18,210,1694.1729542855173,1702.678847401985,stimuli/207_yb.png,l,8.49414941878058,ambig,0.333,5.655737705,1.662179753,0.212820309
110,18,0,1,9,19,211,1703.250523815048,1708.0228103741538,stimuli/314_zb.png,l,4.76039753225632,awful,0.333,1.833333333,1.451669602,0.18740974
110,18,0,1,9,20,212,1708.5773714249954,1714.8228158092825,stimuli/205_yb.png,l,6.233480920549482,ambig,0.333,5.847457627,1.52918233,0.199082582
110,18,0,1,9,21,213,1715.3746215139981,1722.1747636136133,stimuli/202_yb.png,l,6.7881951773306355,ambig,0.333,5.431034483,1.892849601,0.248543329
110,18,0,1,9,22,214,1722.7336313696578,1730.85477955651,stimuli/257_yb.png,a,8.109235923155211,ambig,0.333,5.620689655,1.843219782,0.242026615
110,18,0,1,9,23,215,1731.4087120293407,1737.6467796794605,stimuli/172_xb.png,a,6.2260880387621,harmless,0.333,6.482758621,1.127664553,0.14806961
110,18,0,1,9,24,216,1738.2024206557544,1743.0628645044053,stimuli/343_zb.png,l,4.848446514224634,awful,0.333,3.103448276,2.141401862,0.28117984
110,18,0,1,10,1,217,1754.6789045096375,1764.0388296631863,stimuli/273_ya.png,l,9.34820626815781,ambig,0.333,5.551724138,1.836973233,0.241206403
110,18,0,1,10,2,218,1764.5935951201245,1769.5267760087736,stimuli/291_za.png,l,4.92100080975797,awful,0.333,2.593220339,1.830005126,0.238246374
110,18,0,1,10,3,219,1770.0810621551936,1775.4547931835987,stimuli/261_yb.png,l,5.361684463219717,ambig,0.333,5.706896552,1.901141123,0.249632059
110,18,0,1,10,4,220,1776.0190392994555,1784.1908396164654,stimuli/279_ya.png,a,8.159806527080946,ambig,0.333,5.31147541,1.970964092,0.252356093
110,18,0,1,10,5,221,1784.7499547076877,1791.4547967282124,stimuli/108_xb.png,a,6.692958507570438,harmless,0.333,6.568965517,1.077880782,0.141532681
110,18,0,1,10,6,222,1792.0177108572097,1800.2147708762204,stimuli/124_xa.png,a,8.185185170616023,harmless,0.333,6.344262295,1.181598436,0.151288177
110,18,0,1,10,7,223,1800.7650622434448,1808.6547617546748,stimuli/275_yb.png,l,7.87787546904292,ambig,0.333,4.836065574,2.138382004,0.27379176
110,18,0,1,10,8,224,1809.2019318930106,1819.8547578949947,stimuli/187_xc.png,a,10.640851116739213,harmless,0.333,6.224137931,1.185335891,0.155642228
110,18,0,1,10,9,225,1820.4150257732254,1825.6388795240782,stimuli/329_zb.png,l,5.2120399485575035,awful,0.333,2.406779661,1.992387617,0.259386774
110,18,0,1,10,10,226,1826.1963014716748,1833.0307365233311,stimuli/252_zb.png,l,6.8224648925242946,awful,0.333,2.711864407,1.983125776,0.258180985
110,18,0,1,10,11,227,1833.5779129632283,1839.4227924147854,stimuli/321_zb.png,l,5.833048713975586,awful,0.333,2.918032787,2.177881861,0.278849198
110,18,0,1,10,12,228,1839.9837384957355,1845.5747724358225,stimuli/315_yb.png,l,5.5791264025028795,ambig,0.333,5.050847458,1.915667965,0.249398726
110,18,0,1,10,13,229,1846.1245120249223,1850.0387016632594,stimuli/158_xa.png,a,3.902395528391935,harmless,0.333,6.786885246,0.661179605,0.084655374
110,18,0,1,10,14,230,1850.5931008434854,1854.9427686737617,stimuli/216_xa.png,a,4.337801646557637,harmless,0.333,6.603448276,0.877389573,0.115206895
110,18,0,1,10,15,231,1855.499031532905,1862.24676022341,stimuli/225_ya.png,a,6.7360098051140085,ambig,0.333,5.85,1.792876677,0.231459384
110,18,0,1,10,16,232,1862.7952517147642,1866.1427742664237,stimuli/199_za.png,l,3.3355165525572374,awful,0.333,3.033898305,2.189048775,0.284989876
110,18,0,1,10,17,233,1866.7013048903318,1872.2546970064286,stimuli/152_xa.png,a,5.541453070938587,harmless,0.333,6.576271186,0.968528743,0.126091702
110,18,0,1,10,18,234,1872.8126829414396,1878.7187006707536,stimuli/198_yb.png,l,5.894023939501494,ambig,0.333,5.101694915,1.83542643,0.238952168
110,18,0,1,10,19,235,1879.2668211592827,1890.182686218177,stimuli/365_zb.png,l,10.903812585980631,awful,0.333,2.966101695,2.165291266,0.281896912
110,18,0,1,10,20,236,1890.8047725460492,1896.8546574643115,stimuli/368_za.png,l,6.03789782372769,awful,0.333,3.590163934,2.02794682,0.259651984
110,18,0,1,10,21,237,1897.4049299269682,1902.4786897848826,stimuli/102_xc.png,a,5.061819237307645,harmless,0.333,6.66011236,0.937292468,0.049676401
110,18,0,1,10,22,238,1903.0413695755415,1908.6466619195417,stimuli/311_za.png,l,5.593404498766176,awful,0.333,3.116666667,1.975199339,0.254997138
110,18,0,1,10,23,239,1909.2034127536463,1914.966695207404,stimuli/204_xb.png,l,5.7512713347096,harmless,0.333,6.508474576,0.858484658,0.111765183
110,18,0,1,10,24,240,1915.518433564459,1921.0386863033054,stimuli/235_ya.png,l,5.508273127488792,ambig,0.333,5.694915254,1.567495667,0.204070554
