id,age,condition,counterbalance,block,trialinblock,trial,tstart,tend,trialstim,response,RT,trialtype,ethicfreq,norm_mean,norm_sd,norm_se
169,20,0,1,0,0,practice,7.0892274379730225e-06,4.312407101519057,stimuli/prac_217_1.png,l,4.2920200452063,harmless,NA,NA,NA,NA
169,20,0,1,1,1,1,4.6645623462536605,12.199997479387093,stimuli/344_za.png,a,7.523850540077547,awful,0.333,2.711864407,2.043077863,0.265986082
169,20,0,1,1,2,2,12.851027662967681,20.79191370672197,stimuli/258_ya.png,l,7.929221499915002,ambig,0.333,5.627118644,1.78014243,0.231754804
169,20,0,1,1,3,3,21.395286920916988,28.15196005454345,stimuli/203_yb.png,l,6.744308725028532,ambig,0.333,6,1.542501327,0.200816568
169,20,0,1,1,4,4,28.785681090099388,37.031955895523424,stimuli/148_xc.png,l,8.234627984667895,harmless,0.333,6.491525424,1.135218061,0.147792803
169,20,0,1,1,5,5,37.670421202798025,42.416020561926416,stimuli/294_za.png,a,4.733953326067422,awful,0.333,1.557377049,1.38473331,0.177296933
169,20,0,1,1,6,6,43.06577547141933,50.215942737908335,stimuli/342_yb.png,l,7.138702796539292,ambig,0.333,4.916666667,2.085394461,0.269223267
169,20,0,1,1,7,7,50.85656159637438,55.98399723993498,stimuli/192_za.png,l,5.115835690507083,awful,0.333,2.68852459,2.093967396,0.268105052
169,20,0,1,1,8,8,56.6239115074859,64.19197719472868,stimuli/166_xa.png,l,7.556305832622456,harmless,0.333,6.593220339,1.052397002,0.13701042
169,20,0,1,1,9,9,64.84159031957097,69.12792164980783,stimuli/327_zb.png,a,4.274375340188271,awful,0.333,2.502808989,1.906990248,0.101070281
169,20,0,1,1,10,10,69.74146869986726,74.2479600734514,stimuli/338_zb.png,a,4.4948603066877695,awful,0.333,3.310344828,2.137443107,0.28066003
169,20,0,1,1,11,11,74.87386916900869,78.91993696885766,stimuli/345_zb.png,a,4.035330763887032,awful,0.333,3.694915254,2.191317013,0.285285176
169,20,0,1,1,12,12,79.55731604821631,83.92007048272353,stimuli/212_ya.png,l,4.35110091837123,ambig,0.333,5.677966102,1.490668422,0.194068498
169,20,0,1,1,13,13,84.61448125331663,89.6480113522266,stimuli/200_ya.png,a,5.021884853544179,ambig,0.333,5.862068966,1.444266048,0.189641423
169,20,0,1,1,14,14,90.2896782355092,94.12797718212823,stimuli/184_xb.png,l,3.826854168975842,harmless,0.333,6.508474576,1.194425,0.15550089
169,20,0,1,1,15,15,94.75863015554205,100.15994371149282,stimuli/102_xc.png,l,5.38959544901445,harmless,0.333,6.66011236,0.937292468,0.049676401
169,20,0,1,1,16,16,100.7788195010653,105.55198533946532,stimuli/157_xc.png,a,4.761550131501281,harmless,0.333,6.603448276,0.877389573,0.115206895
169,20,0,1,1,17,17,106.18653739058936,111.3439463077375,stimuli/310_zb.png,a,5.145829837958445,awful,0.333,3.224137931,2.102989547,0.276136056
169,20,0,1,1,18,18,111.96741395050776,118.38394730022992,stimuli/167_xb.png,a,6.4050042889866745,harmless,0.333,6.590163934,0.955284411,0.122311635
169,20,0,1,1,19,19,119.00389632077713,123.73595052032033,stimuli/153_xb.png,a,4.720542861905415,harmless,0.333,6.633333333,0.973664521,0.125699549
169,20,0,1,1,20,20,124.35755369502294,131.88801297487225,stimuli/254_ya.png,a,7.5188719298748765,ambig,0.333,5.983606557,1.627798137,0.208418195
169,20,0,1,1,21,21,132.52048985019792,142.5839857396204,stimuli/267_ya.png,l,10.051949105618405,ambig,0.333,5.103448276,1.898195405,0.249245267
169,20,0,1,1,22,22,143.1460436964553,151.58400976423582,stimuli/362_zb.png,a,8.426071911599138,awful,0.333,1.474576271,1.222715071,0.159183944
169,20,0,1,1,23,23,152.20802130865923,159.34417158778524,stimuli/233_yb.png,l,7.124923692303128,ambig,0.333,5.318309859,1.922973646,0.102060844
169,20,0,1,1,24,24,159.9991658336803,167.56005918722076,stimuli/238_xb.png,l,7.549019677346223,harmless,0.333,6.4,1.076718178,0.139003719
169,20,0,1,2,1,25,176.17692675483704,180.72795977412898,stimuli/289_yb.png,l,4.538915158438613,ambig,0.333,5.305084746,1.714584873,0.223219937
169,20,0,1,2,2,26,181.34579699116875,187.20000653785246,stimuli/222_ya.png,l,5.84237840588321,ambig,0.333,5.931034483,1.543089507,0.202617579
169,20,0,1,2,3,27,187.85353685732116,192.6320200136979,stimuli/168_xa.png,l,4.766878871014342,harmless,0.333,6.474576271,1.164946827,0.151663159
169,20,0,1,2,4,28,193.25507766254304,197.91205177345546,stimuli/163_xa.png,l,4.645350527091068,harmless,0.333,6.627118644,0.963082427,0.125382652
169,20,0,1,2,5,29,198.55810728529468,202.73596312339942,stimuli/133_xa.png,l,4.166006580388057,harmless,0.333,6.568965517,1.186356193,0.1557762
169,20,0,1,2,6,30,203.3627536468266,207.49596780228603,stimuli/287_ya.png,l,4.121513771620812,ambig,0.333,5.950819672,1.407435369,0.180203633
169,20,0,1,2,7,31,208.10695130721433,214.07199390955793,stimuli/324_za.png,a,5.953728581647738,awful,0.333,2.491525424,1.994586478,0.259673041
169,20,0,1,2,8,32,214.72069291731168,220.1599791576591,stimuli/110_xa.png,l,5.426630385554745,harmless,0.333,6.428571429,1.059281795,0.141552484
169,20,0,1,2,9,33,220.7670643725869,224.84794817928923,stimuli/256_zb.png,a,4.069154278229689,awful,0.333,3.051724138,2.012438634,0.264246138
169,20,0,1,2,10,34,225.48171293178166,231.54399813790224,stimuli/229_za.png,l,6.049926311374293,awful,0.333,3.406779661,2.043649913,0.266060557
169,20,0,1,2,11,35,232.19253488098911,245.3040488967963,stimuli/228_ya.png,l,13.099733287323033,ambig,0.333,5.442622951,1.793735303,0.229664272
169,20,0,1,2,12,36,245.93622841821343,252.6479908722249,stimuli/140_xb.png,l,6.70010933172307,harmless,0.333,6.724137931,0.790138861,0.103750315
169,20,0,1,2,13,37,253.28333928041684,257.04801300638064,stimuli/303_zb.png,a,3.752644086678629,awful,0.333,3.620689655,2.158846233,0.283470398
169,20,0,1,2,14,38,257.6912450345844,261.6639975707658,stimuli/278_xb.png,l,3.960822933833697,harmless,0.333,6.360655738,1.140654591,0.146045855
169,20,0,1,2,15,39,262.2870591580722,272.4079959449591,stimuli/283_yb.png,l,10.109363221534295,ambig,0.333,5.949152542,1.478859402,0.192531095
169,20,0,1,2,16,40,273.05203457025345,277.54400601482484,stimuli/219_ya.png,l,4.480108402232872,ambig,0.333,5.271186441,1.998538332,0.260187529
169,20,0,1,2,17,41,278.17602799774613,283.30398627524846,stimuli/367_zb.png,l,5.116047185932985,awful,0.333,3.413793103,2.086165649,0.27392697
169,20,0,1,2,18,42,283.9669054950209,288.1119960835931,stimuli/125_xc.png,l,4.133228333928855,harmless,0.333,6.683333333,0.999858747,0.129081209
169,20,0,1,2,19,43,288.7355870002357,293.6320298598439,stimuli/213_ya.png,l,4.884449060322368,ambig,0.333,5.98245614,1.597891781,0.211645937
169,20,0,1,2,20,44,294.23732819443103,302.0559974510252,stimuli/124_xa.png,a,7.807030706608202,harmless,0.333,6.344262295,1.181598436,0.151288177
169,20,0,1,2,21,45,302.6809865217947,305.95199368901376,stimuli/360_za.png,a,3.259247706446331,awful,0.333,3.2,2.207844259,0.285031468
169,20,0,1,2,22,46,306.56624966228264,312.4960048238281,stimuli/328_za.png,a,5.918088648482808,awful,0.333,2.706896552,1.955725922,0.256799395
169,20,0,1,2,23,47,313.1334863032098,320.1759874315758,stimuli/293_zb.png,l,7.0307916860620026,awful,0.333,3.677966102,2.169066842,0.28238845
169,20,0,1,2,24,48,320.78765622896026,328.28801620441664,stimuli/235_ya.png,l,7.48865880392259,ambig,0.333,5.694915254,1.567495667,0.204070554
169,20,0,1,3,1,49,336.8698220051301,342.3520233062445,stimuli/322_za.png,l,5.470550935729989,awful,0.333,2.406779661,1.975004531,0.257123689
169,20,0,1,3,2,50,342.9633443374041,351.664052315391,stimuli/175_xb.png,l,8.688969391063438,harmless,0.333,6.6,1.028409995,0.13276716
169,20,0,1,3,3,51,352.3092870516848,357.13604078987555,stimuli/296_yb.png,l,4.814862338927924,ambig,0.333,4.229508197,2.052587332,0.262806878
169,20,0,1,3,4,52,357.7470262640272,362.01641590477084,stimuli/312_yb.png,a,4.257736912288237,ambig,0.333,4.677966102,2.112692986,0.275049199
169,20,0,1,3,5,53,362.5828042009234,367.25601619810914,stimuli/311_za.png,a,4.66175737339654,awful,0.333,3.116666667,1.975199339,0.254997138
169,20,0,1,3,6,54,367.8853005558776,372.3520071585517,stimuli/252_zb.png,a,4.455517431240878,awful,0.333,2.711864407,1.983125776,0.258180985
169,20,0,1,3,7,55,372.99584807302745,376.89603759183956,stimuli/126_xa.png,l,3.8883059964718996,harmless,0.333,6.6,0.977717855,0.126222832
169,20,0,1,3,8,56,377.5299476735963,382.6640219892288,stimuli/319_ya.png,a,5.122412528726272,ambig,0.333,4.216666667,2.108028774,0.272145344
169,20,0,1,3,9,57,383.2679560404649,392.0320248186181,stimuli/170_xc.png,l,8.751947766533704,harmless,0.333,6.583333333,1.062323432,0.137145365
169,20,0,1,3,10,58,392.6721017446689,397.5120217623771,stimuli/214_xb.png,a,4.828302735433681,harmless,0.333,6.465517241,0.940614156,0.12350869
169,20,0,1,3,11,59,398.1307687642111,403.4240030373476,stimuli/156_xc.png,l,5.281965544752893,harmless,0.333,6.590163934,0.955284411,0.122311635
169,20,0,1,3,12,60,404.0437452886108,407.6800066323776,stimuli/266_zb.png,a,3.624012332118582,awful,0.333,3.491525424,1.888010094,0.245797978
169,20,0,1,3,13,61,408.2987682065286,414.60807179973926,stimuli/131_xb.png,l,6.298063221765915,harmless,0.333,6.525423729,1.119666394,0.145768149
169,20,0,1,3,14,62,415.2472452425427,422.32007253072516,stimuli/183_xb.png,l,7.060920922769583,harmless,0.333,6.448275862,1.095003225,0.143780967
169,20,0,1,3,15,63,422.9575323485624,428.0480429386953,stimuli/351_zb.png,l,5.07893229862384,awful,0.333,3.06779661,2.033040926,0.264679384
169,20,0,1,3,16,64,428.6635733983712,432.7760531251406,stimuli/262_ya.png,l,4.10090064756514,ambig,0.333,5.491525424,1.7750462,0.231091332
169,20,0,1,3,17,65,433.3800289240753,441.2000549809309,stimuli/300_za.png,a,7.808355605331599,awful,0.333,3.75,2.12032137,0.273732312
169,20,0,1,3,18,66,441.83222347465926,446.92017051966104,stimuli/316_za.png,a,5.076136384217534,awful,0.333,2.344827586,1.802062407,0.236622386
169,20,0,1,3,19,67,447.5678120502853,452.46406862062577,stimuli/224_yb.png,a,4.884614081893233,ambig,0.333,5.881355932,1.609077116,0.209483997
169,20,0,1,3,20,68,453.08847282973875,457.07202108495403,stimuli/313_zb.png,a,3.9719715390965575,awful,0.333,2.101694915,1.688652955,0.219843889
169,20,0,1,3,21,69,457.69278339797165,462.0160220585385,stimuli/134_xc.png,a,4.311626104434254,harmless,0.333,6.516666667,0.965360505,0.124627505
169,20,0,1,3,22,70,462.64693181970506,467.8080590391328,stimuli/286_ya.png,a,5.149797444886644,ambig,0.333,5.06779661,1.779814082,0.231712057
169,20,0,1,3,23,71,468.431575124996,473.1600346899795,stimuli/189_yb.png,a,4.71583009789174,ambig,0.333,5.983333333,1.455459234,0.187898979
169,20,0,1,3,24,72,473.7816126585385,477.7919928698102,stimuli/251_ya.png,l,3.998677070514532,ambig,0.333,5.655172414,1.792300532,0.235340589
169,20,0,1,4,1,73,486.6513401405682,489.1600071207358,stimuli/114_xc.png,l,2.497000467090402,harmless,0.333,6.644067797,0.97843492,0.127381377
169,20,0,1,4,2,74,489.77647138983593,494.88000096098403,stimuli/206_xa.png,a,5.092319919713191,harmless,0.333,6.325842697,1.136094431,0.060212884
169,20,0,1,4,3,75,495.48640679116943,500.96806734141137,stimuli/325_yb.png,a,5.470091317198239,ambig,0.333,5.131147541,1.811770863,0.231973488
169,20,0,1,4,4,76,501.62173629475,504.2560382535012,stimuli/332_zb.png,a,2.622764233412454,awful,0.333,2.694915254,2.002190501,0.260663001
169,20,0,1,4,5,77,504.8639351855236,509.29602585521934,stimuli/284_ya.png,a,4.420928279811051,ambig,0.333,5.948275862,1.431750417,0.18799804
169,20,0,1,4,6,78,509.91962701187003,514.6000152812339,stimuli/217_yb.png,a,4.668659528600983,ambig,0.333,5.169491525,2.001314588,0.260548967
169,20,0,1,4,7,79,515.2340521814767,525.3360555984837,stimuli/281_ya.png,l,10.08977803614107,ambig,0.333,5.881355932,1.543448286,0.200939852
169,20,0,1,4,8,80,525.9729963269929,528.1280398036761,stimuli/241_yb.png,a,2.143273775902344,ambig,0.333,5.508474576,1.442852555,0.187843403
169,20,0,1,4,9,81,528.7657221446425,532.2960286121379,stimuli/277_yb.png,a,3.5184438190044602,ambig,0.333,5.491525424,2.02886822,0.264136144
169,20,0,1,4,10,82,532.9166526851332,539.3600743109128,stimuli/120_xa.png,l,6.431813795803464,harmless,0.333,6.440677966,1.054893138,0.137335389
169,20,0,1,4,11,83,539.9699062094587,543.3920581695129,stimuli/109_xb.png,l,3.41056421623216,harmless,0.333,6.644067797,0.97843492,0.127381377
169,20,0,1,4,12,84,544.0223255674791,548.5280619378318,stimuli/340_za.png,a,4.493598029497662,awful,0.333,2.508474576,1.832398855,0.238558011
169,20,0,1,4,13,85,549.1637856814923,553.5761021196085,stimuli/216_xa.png,a,4.400467574247159,harmless,0.333,6.603448276,0.877389573,0.115206895
169,20,0,1,4,14,86,554.2117715124768,560.664062161537,stimuli/144_xa.png,a,6.4404276067216415,harmless,0.333,6.542372881,1.00553698,0.130909764
169,20,0,1,4,15,87,561.3231496513326,566.5841361888743,stimuli/246_ya.png,a,5.249321993702324,ambig,0.333,5.542372881,1.715266481,0.223308675
169,20,0,1,4,16,88,567.1526933962305,570.4080884988216,stimuli/368_za.png,a,3.2434800725604873,awful,0.333,3.590163934,2.02794682,0.259651984
169,20,0,1,4,17,89,571.0399710601778,574.0240592785849,stimuli/337_zb.png,a,2.972549311511102,awful,0.333,3.033333333,2.20143764,0.284204377
169,20,0,1,4,18,90,574.6507359804527,577.3520422108704,stimuli/138_xc.png,l,2.6896873727382626,harmless,0.333,6.661016949,0.70978796,0.092406522
169,20,0,1,4,19,91,578.0238395123888,580.3760333540558,stimuli/373_zb.png,a,2.340161445448757,awful,0.333,2.327586207,1.858011869,0.243968911
169,20,0,1,4,20,92,580.9975069533539,584.5120225500577,stimuli/132_xc.png,l,3.5025891451223288,harmless,0.333,6.627118644,0.692280217,0.090127208
169,20,0,1,4,21,93,585.1525047438772,588.5920832181291,stimuli/317_za.png,a,3.4279879735113354,awful,0.333,3.65,2.03215674,0.262350307
169,20,0,1,4,22,94,589.1612276502128,592.1440768283792,stimuli/356_za.png,a,2.9710440312192077,awful,0.333,3.033333333,2.178217796,0.281206708
169,20,0,1,4,23,95,592.7387838501018,597.2961038367794,stimuli/210_yb.png,l,4.545559344362118,ambig,0.333,5.557377049,1.76564049,0.226067099
169,20,0,1,4,24,96,597.8714533162274,600.184084910099,stimuli/363_zb.png,a,2.3007390130660497,awful,0.333,2.433333333,2.019956927,0.260775318
169,20,0,1,5,1,97,609.4274117764726,612.0560474695085,stimuli/355_zb.png,a,2.616636773745995,awful,0.333,3.183333333,2.070713188,0.267327923
169,20,0,1,5,2,98,612.6674835037556,615.1040663835738,stimuli/343_zb.png,a,2.4248919482924975,awful,0.333,3.103448276,2.141401862,0.28117984
169,20,0,1,5,3,99,615.7414655490866,617.5440201932797,stimuli/364_za.png,a,1.7906199218414258,awful,0.333,1.677966102,1.279017376,0.166513879
169,20,0,1,5,4,100,618.1759815238911,623.0720423526509,stimuli/326_zb.png,a,4.883917761762859,awful,0.333,3.389830508,2.220724867,0.289113752
169,20,0,1,5,5,101,623.6872845168837,629.4960839869309,stimuli/269_za.png,l,5.796707209199667,awful,0.333,3.457627119,2.119873401,0.27598401
169,20,0,1,5,6,102,630.1669313313323,632.4960528730735,stimuli/195_xc.png,a,2.31706590858812,harmless,0.333,6.637640449,1.001766915,0.05309354
169,20,0,1,5,7,103,633.1678749869025,643.2400933888275,stimuli/186_xa.png,l,10.06030809803633,harmless,0.333,6.65,0.879618561,0.113558268
169,20,0,1,5,8,104,643.8734158519947,646.5041070285079,stimuli/139_xa.png,l,2.619060503449873,harmless,0.333,6.724137931,0.790138861,0.103750315
169,20,0,1,5,9,105,647.1078347043222,650.3604228648182,stimuli/298_za.png,a,3.2410374382307054,awful,0.333,2.881355932,2.026418156,0.263817173
169,20,0,1,5,10,106,650.9932699555939,656.0240321032034,stimuli/259_xc.png,l,5.019117689924315,harmless,0.333,6.568965517,0.993170874,0.130409725
169,20,0,1,5,11,107,656.6473831674812,664.0160724708549,stimuli/115_xb.png,l,7.3568861256644595,harmless,0.333,6.440677966,1.021681954,0.133011661
169,20,0,1,5,12,108,664.6473106997873,667.6640783092298,stimuli/143_xb.png,l,3.0051152748492314,harmless,0.333,6.655172414,0.738697862,0.096995781
169,20,0,1,5,13,109,668.2723320659425,671.0000567138632,stimuli/306_zb.png,a,2.7164744303299813,awful,0.333,2.352112676,1.917055413,0.101746737
169,20,0,1,5,14,110,671.6101788770902,673.8480844500882,stimuli/308_zb.png,a,2.22635603226081,awful,0.333,1.644067797,1.471132708,0.191525165
169,20,0,1,5,15,111,674.4609091861494,676.5120386977651,stimuli/323_yb.png,a,2.0394555154634872,ambig,0.333,4.603448276,1.955107169,0.256718148
169,20,0,1,5,16,112,677.129981465594,684.1281236929208,stimuli/263_ya.png,a,6.986423332709819,ambig,0.333,4.983050847,2.071910042,0.269739712
169,20,0,1,5,17,113,684.7245281919168,688.816134856097,stimuli/230_yb.png,a,4.079623498750152,ambig,0.333,4.98245614,1.875511626,0.248417583
169,20,0,1,5,18,114,689.4515344643005,693.3120916306943,stimuli/279_ya.png,l,3.8489580010209465,ambig,0.333,5.31147541,1.970964092,0.252356093
169,20,0,1,5,19,115,693.9473758419481,699.5921048796736,stimuli/207_yb.png,a,5.633116087745293,ambig,0.333,5.655737705,1.662179753,0.212820309
169,20,0,1,5,20,116,700.2242229610856,706.0241774324531,stimuli/154_xc.png,l,5.788467158345156,harmless,0.333,6.5,0.965506805,0.124646393
169,20,0,1,5,21,117,706.6071391718724,709.1441170006874,stimuli/282_xc.png,l,2.52559370349627,harmless,0.333,6.55,0.998728005,0.128935231
169,20,0,1,5,22,118,709.7384081208002,718.1361014421855,stimuli/335_yb.png,l,8.38611660526658,ambig,0.333,5.016949153,2.046793332,0.266469795
169,20,0,1,5,23,119,718.709908225952,720.6880651201209,stimuli/261_yb.png,a,1.9663344179862179,ambig,0.333,5.706896552,1.901141123,0.249632059
169,20,0,1,5,24,120,721.2487804551492,724.9201094735035,stimuli/209_ya.png,a,3.6593576683080755,ambig,0.333,5.603448276,1.825161903,0.239655499
169,20,0,1,6,1,121,733.8683190879237,738.7841395759606,stimuli/116_xa.png,l,4.904449753492372,harmless,0.333,6.63559322,0.958030802,0.050918763
169,20,0,1,6,2,122,739.4289383244759,742.5600942395249,stimuli/361_za.png,a,3.1194827066065045,awful,0.333,2.416666667,1.907093508,0.246204713
169,20,0,1,6,3,123,743.1799002938933,748.7920921190671,stimuli/141_xc.png,l,5.600561152110458,harmless,0.333,6.508474576,1.040107444,0.135410455
169,20,0,1,6,4,124,749.4139048199722,752.2560866965796,stimuli/260_ya.png,a,2.8305523850867758,ambig,0.333,4.966101695,2.016877936,0.262575142
169,20,0,1,6,5,125,752.8743134275574,756.9600608413748,stimuli/297_za.png,a,4.074315633100923,awful,0.333,1.898305085,1.446695584,0.188343723
169,20,0,1,6,6,126,757.5642717665032,760.7441511865472,stimuli/305_zb.png,a,3.167552426850307,awful,0.333,2.75,2.12830003,0.274762352
169,20,0,1,6,7,127,761.3408357102016,764.2161128794833,stimuli/165_xb.png,l,2.863936760899378,harmless,0.333,6.557377049,1.008705278,0.129151477
169,20,0,1,6,8,128,764.8252563348215,769.2960979290801,stimuli/171_xa.png,l,4.459110884257825,harmless,0.333,6.465517241,1.046556882,0.137419651
169,20,0,1,6,9,129,769.9445838660176,775.672080476972,stimuli/329_zb.png,a,5.715715882484801,awful,0.333,2.406779661,1.992387617,0.259386774
169,20,0,1,6,10,130,776.3116233475157,785.5200751301163,stimuli/365_zb.png,a,9.196813232614659,awful,0.333,2.966101695,2.165291266,0.281896912
169,20,0,1,6,11,131,786.1163705336949,794.8960883980035,stimuli/245_yb.png,a,8.768145086651202,ambig,0.333,4.949152542,2.096168334,0.272897873
169,20,0,1,6,12,132,795.5002902646811,798.2400477026531,stimuli/151_xa.png,l,2.728614740393823,harmless,0.333,6.610169492,0.947172729,0.123311386
169,20,0,1,6,13,133,798.8560657439666,804.5601190518355,stimuli/270_yb.png,l,5.692521490214858,ambig,0.333,5.534482759,1.912246013,0.251090203
169,20,0,1,6,14,134,805.2010821319127,812.1042002912873,stimuli/158_xa.png,l,6.891301984738675,harmless,0.333,6.786885246,0.661179605,0.084655374
169,20,0,1,6,15,135,812.7361379911163,821.9601707244728,stimuli/271_ya.png,a,9.212425297228037,ambig,0.333,5.711864407,1.771915459,0.230683744
169,20,0,1,6,16,136,822.6210510023084,835.3921570249222,stimuli/250_yb.png,l,12.759217774131685,ambig,0.333,5.950819672,1.585625318,0.203018519
169,20,0,1,6,17,137,836.0121257377759,845.4641217898607,stimuli/357_za.png,a,9.440234228226473,awful,0.333,2.793103448,2.066937905,0.271402243
169,20,0,1,6,18,138,846.120396429862,849.6320920875587,stimuli/299_za.png,a,3.498566793568898,awful,0.333,1.288135593,0.929420425,0.121000233
169,20,0,1,6,19,139,850.2111551431299,854.1921122839849,stimuli/173_yb.png,a,3.9691882277693367,ambig,0.333,5.796610169,1.242628763,0.161776485
169,20,0,1,6,20,140,854.7939030240377,862.3281392892386,stimuli/137_xa.png,a,7.5226048044569325,harmless,0.333,6.355932203,1.094858074,0.14253838
169,20,0,1,6,21,141,862.967741236731,867.3281290492305,stimuli/307_za.png,a,4.347961176215904,awful,0.333,2.93220339,2.172432347,0.282826601
169,20,0,1,6,22,142,867.9658046948025,871.7281393680023,stimuli/249_ya.png,a,3.7506669785943814,ambig,0.333,5.327868852,1.859402337,0.238072074
169,20,0,1,6,23,143,872.3771022527217,877.2001404455659,stimuli/336_ya.png,a,4.811273218219867,ambig,0.333,5.033898305,1.884291705,0.245313885
169,20,0,1,6,24,144,877.8345629212708,882.0481217079359,stimuli/130_xc.png,l,4.20057249488309,harmless,0.333,6.644067797,0.960651931,0.125066229
169,20,0,1,7,1,145,894.1140271486074,907.4321158758685,stimuli/147_ya.png,a,13.306655371154193,ambig,0.333,5.883333333,1.766847875,0.22809908
169,20,0,1,7,2,146,908.0522310995148,913.0801319542516,stimuli/321_zb.png,a,5.016355252460926,awful,0.333,2.918032787,2.177881861,0.278849198
169,20,0,1,7,3,147,913.6976808758482,919.6481204476295,stimuli/218_yb.png,a,5.938145267820801,ambig,0.333,5.850282486,1.552723069,0.0825263
169,20,0,1,7,4,148,920.2452421406051,923.5841180719581,stimuli/358_za.png,a,3.3271018982632086,awful,0.333,3.949152542,2.112554662,0.275031191
169,20,0,1,7,5,149,924.1981231651735,928.1520986884134,stimuli/129_xa.png,l,3.94228892402316,harmless,0.333,6.770491803,0.642740036,0.082294429
169,20,0,1,7,6,150,928.7601830912317,931.6321220198733,stimuli/211_zb.png,a,2.860682803337113,awful,0.333,3.983333333,2.127237938,0.274625237
169,20,0,1,7,7,151,932.2551765179523,940.7201360187319,stimuli/181_xa.png,a,8.452983424576814,harmless,0.333,6.666666667,0.950765377,0.122743282
169,20,0,1,7,8,152,941.2888566722686,946.376124332528,stimuli/231_xb.png,a,5.075444790243637,harmless,0.333,6.62295082,1.05141071,0.134619347
169,20,0,1,7,9,153,947.0188849268015,951.5361432686623,stimuli/106_xc.png,a,4.505416567219072,harmless,0.333,6.661016949,0.863237081,0.112383896
169,20,0,1,7,10,154,952.1873747076752,961.3281038430723,stimuli/104_xc.png,l,9.129109883884666,harmless,0.333,6.745762712,0.756425814,0.098478253
169,20,0,1,7,11,155,961.9610230077087,965.3361134938896,stimuli/225_ya.png,l,3.363827665496501,ambig,0.333,5.85,1.792876677,0.231459384
169,20,0,1,7,12,156,965.980844894686,970.3681119248067,stimuli/191_ya.png,l,4.375626904744422,ambig,0.333,5.517241379,2.062542966,0.270825159
169,20,0,1,7,13,157,970.9937197279942,973.5201672901312,stimuli/292_zb.png,a,2.514801529076067,awful,0.333,2.396551724,1.955107169,0.256718148
169,20,0,1,7,14,158,974.1501708111173,978.1921678163053,stimuli/290_zb.png,a,4.030470701385639,awful,0.333,2.586206897,2.026443456,0.266085062
169,20,0,1,7,15,159,978.770946121047,983.9761569429975,stimuli/108_xb.png,l,5.193673096597195,harmless,0.333,6.568965517,1.077880782,0.141532681
169,20,0,1,7,16,160,984.5981244254799,991.6642606600362,stimuli/172_xb.png,l,7.054327542995452,harmless,0.333,6.482758621,1.127664553,0.14806961
169,20,0,1,7,17,161,992.297134926208,995.8721551502094,stimuli/341_zb.png,a,3.5633899447857402,awful,0.333,3.603448276,2.15975677,0.283589957
169,20,0,1,7,18,162,996.5499152836856,999.9921892415441,stimuli/330_ya.png,a,3.4303132416680455,ambig,0.333,4.796610169,2.049219036,0.266785595
169,20,0,1,7,19,163,1000.5592313224333,1003.3521422478079,stimuli/275_yb.png,a,2.7810683630377753,ambig,0.333,4.836065574,2.138382004,0.27379176
169,20,0,1,7,20,164,1003.988300010009,1007.472088117589,stimuli/369_za.png,a,3.4718553544662427,awful,0.333,2.948275862,2.055565093,0.26990892
169,20,0,1,7,21,165,1008.0664454038633,1013.0881227004284,stimuli/190_xc.png,l,5.010157688142499,harmless,0.333,6.517241379,1.046990328,0.137476565
169,20,0,1,7,22,166,1013.7267357000383,1017.8961199056939,stimuli/248_zb.png,a,4.158045766496798,awful,0.333,3.288135593,1.991800844,0.259310383
169,20,0,1,7,23,167,1018.4629804234864,1025.0801256527047,stimuli/309_ya.png,a,6.605442088461132,ambig,0.333,4.706896552,1.946734744,0.255618795
169,20,0,1,7,24,168,1025.678463542834,1034.008186487772,stimuli/276_ya.png,a,8.318104087258689,ambig,0.333,5.186440678,1.804922162,0.234980851
169,20,0,1,8,1,169,1043.452552556817,1050.3441735570086,stimuli/180_xc.png,l,6.879277465457562,harmless,0.333,6.672131148,0.723908638,0.092687003
169,20,0,1,8,2,170,1051.0097153988463,1053.8721346702077,stimuli/333_za.png,a,2.85087445678073,awful,0.333,3.266666667,2.185209657,0.282109354
169,20,0,1,8,3,171,1054.5064704997349,1057.0401593186834,stimuli/353_zb.png,a,2.5223787367140176,awful,0.333,1.949152542,1.623361018,0.211343603
169,20,0,1,8,4,172,1057.672662975543,1060.312131409155,stimuli/304_ya.png,a,2.628006326733157,ambig,0.333,4.034482759,2.017167697,0.264867095
169,20,0,1,8,5,173,1060.9369542768254,1062.7201533479674,stimuli/199_za.png,a,1.7708803487184923,awful,0.333,3.033898305,2.189048775,0.284989876
169,20,0,1,8,6,174,1063.3729160611256,1067.048177634104,stimuli/118_xb.png,l,3.66369667222898,harmless,0.333,6.474576271,0.953323265,0.124112118
169,20,0,1,8,7,175,1067.6807135863637,1070.0401490786753,stimuli/354_zb.png,a,2.3478142715612194,awful,0.333,2,1.701925887,0.221571878
169,20,0,1,8,8,176,1070.6575144679373,1078.6241643567628,stimuli/107_xa.png,l,7.9551960527169285,harmless,0.333,6.813559322,0.540580029,0.070377525
169,20,0,1,8,9,177,1079.2632515472214,1081.7281941126275,stimuli/265_yb.png,a,2.453371363124461,ambig,0.333,5.627118644,1.856008928,0.241631781
169,20,0,1,8,10,178,1082.2947899657447,1088.1681947900506,stimuli/221_xb.png,l,5.861619763527415,harmless,0.333,6.440677966,1.133672495,0.147591588
169,20,0,1,8,11,179,1088.7964693260728,1091.1681810054288,stimuli/179_xb.png,l,2.36007509859337,harmless,0.333,6.704918033,0.882123617,0.112944356
169,20,0,1,8,12,180,1091.7971514677483,1095.7841750221123,stimuli/280_xb.png,l,3.975379490526393,harmless,0.333,6.333333333,1.068289726,0.137915611
169,20,0,1,8,13,181,1096.4015872790915,1105.5841980227415,stimuli/198_yb.png,l,9.170956439818838,ambig,0.333,5.101694915,1.83542643,0.238952168
169,20,0,1,8,14,182,1106.2083245702524,1110.488171222285,stimuli/243_ya.png,l,4.268411720549921,ambig,0.333,5.830508475,1.652088985,0.215083666
169,20,0,1,8,15,183,1111.1260225232836,1113.5361235763412,stimuli/320_za.png,a,2.397959561436437,awful,0.333,1.423728814,1.117314975,0.14546202
169,20,0,1,8,16,184,1114.1701545688993,1118.6641373861785,stimuli/201_yb.png,a,4.482452968863072,ambig,0.333,5.898305085,1.626238682,0.211718243
169,20,0,1,8,17,185,1119.3005428776523,1122.6161913336546,stimuli/349_za.png,a,3.304046139877755,awful,0.333,3.288135593,2.101320172,0.273568585
169,20,0,1,8,18,186,1123.231667836386,1129.0482237141114,stimuli/174_xc.png,l,5.805296995502431,harmless,0.333,6.533333333,1.111826512,0.143536185
169,20,0,1,8,19,187,1129.682910460644,1133.1281871021638,stimuli/366_za.png,a,3.43332419609942,awful,0.333,3.689655172,2.036568291,0.267414518
169,20,0,1,8,20,188,1133.7636674488458,1137.128127237549,stimuli/220_yb.png,l,3.352783823327627,ambig,0.333,4.75,2.096203186,0.270618668
169,20,0,1,8,21,189,1137.693630955051,1141.9121730780898,stimuli/237_ya.png,l,4.207306871583569,ambig,0.333,4.305084746,2.019339575,0.26289562
169,20,0,1,8,22,190,1142.5989081794833,1145.4001678572677,stimuli/150_xc.png,l,2.7889070845849346,harmless,0.333,6.482758621,1.030097582,0.135258439
169,20,0,1,8,23,191,1146.0122935162653,1150.2081697886897,stimuli/302_za.png,a,4.184314522455679,awful,0.333,3.137931034,2.188071937,0.287307921
169,20,0,1,8,24,192,1150.8090613777895,1161.8482171762735,stimuli/273_ya.png,a,11.027520793111762,ambig,0.333,5.551724138,1.836973233,0.241206403
169,20,0,1,9,1,193,1171.1220816978894,1173.1361668206664,stimuli/346_zb.png,a,2.0023260558518814,awful,0.333,1.288135593,0.983499162,0.128040685
169,20,0,1,9,2,194,1173.7569393736776,1178.8161746345722,stimuli/117_xc.png,a,5.0476585447759135,harmless,0.333,6.627118644,0.868972939,0.113130641
169,20,0,1,9,3,195,1179.4184998239507,1184.0802426250302,stimuli/264_xa.png,a,4.650017211068189,harmless,0.333,6.533333333,0.947193297,0.122282129
169,20,0,1,9,4,196,1184.6570363386127,1189.8482069362653,stimuli/135_xa.png,a,5.179458792263176,harmless,0.333,6.508474576,1.179901828,0.153610134
169,20,0,1,9,5,197,1190.4262648962467,1195.0161421816447,stimuli/288_yb.png,a,4.578245036944281,ambig,0.333,5.189655172,1.914459262,0.251380817
169,20,0,1,9,6,198,1195.6055212515494,1203.84814392087,stimuli/234_xb.png,a,8.231346851709532,harmless,0.333,6.637931034,0.788030542,0.103473479
169,20,0,1,9,7,199,1204.4657227747957,1207.2721674382192,stimuli/318_za.png,a,2.7944973379926523,awful,0.333,3.06557377,2.197489875,0.281359747
169,20,0,1,9,8,200,1207.8500934597105,1211.4481848021096,stimuli/202_yb.png,a,3.586485087798792,ambig,0.333,5.431034483,1.892849601,0.248543329
169,20,0,1,9,9,201,1212.0179700220033,1220.6722592831502,stimuli/347_zb.png,a,8.642390772656654,awful,0.333,3.796610169,2.147810923,0.279621165
169,20,0,1,9,10,202,1221.2425305093057,1224.960168755235,stimuli/194_xb.png,l,3.705788200517418,harmless,0.333,6.586206897,1.026567825,0.134794959
169,20,0,1,9,11,203,1225.5479133632907,1232.6802390016528,stimuli/350_ya.png,l,7.120732774550561,ambig,0.333,4.915254237,2.02814792,0.264042369
169,20,0,1,9,12,204,1233.2889055092091,1235.2721780720603,stimuli/295_za.png,a,1.9713606835866813,awful,0.333,2.3,1.825432384,0.235662307
169,20,0,1,9,13,205,1235.8986988108227,1241.1681991223595,stimuli/240_xa.png,a,5.257707767668762,harmless,0.333,6.482758621,1.096107616,0.143925981
169,20,0,1,9,14,206,1241.7927801684273,1248.024191217075,stimuli/119_xc.png,a,6.219782344822306,harmless,0.333,6.694915254,0.914523379,0.119060803
169,20,0,1,9,15,207,1248.663912893826,1256.84829082551,stimuli/371_zb.png,a,8.172865806351183,awful,0.333,3.131147541,2.085468851,0.267016925
169,20,0,1,9,16,208,1257.4739777918003,1260.4961690577038,stimuli/331_za.png,a,3.0100714358268306,awful,0.333,1.983606557,1.638004917,0.209725039
169,20,0,1,9,17,209,1261.0830716225173,1264.9522103044437,stimuli/239_ya.png,a,3.8574162426957628,ambig,0.333,5.157894737,1.925296579,0.255011762
169,20,0,1,9,18,210,1265.563013033956,1268.328144015395,stimuli/315_yb.png,a,2.7533608868252486,ambig,0.333,5.050847458,1.915667965,0.249398726
169,20,0,1,9,19,211,1268.9048026397213,1272.104199503592,stimuli/247_ya.png,a,3.1874932553764665,ambig,0.333,4.65,2.081598147,0.268733165
169,20,0,1,9,20,212,1272.727207527816,1280.168189276199,stimuli/370_za.png,a,7.429405032249633,awful,0.333,2.393442623,1.882185684,0.240989182
169,20,0,1,9,21,213,1280.824167349987,1282.9281829273968,stimuli/359_za.png,a,2.092437679733848,awful,0.333,2.01754386,1.641985167,0.217486248
169,20,0,1,9,22,214,1283.5497073328734,1286.496225771567,stimuli/128_xc.png,l,2.9349499933450716,harmless,0.333,6.627118644,0.98082135,0.127692063
169,20,0,1,9,23,215,1287.064787705065,1290.0641796064883,stimuli/226_yb.png,l,2.9876804898813134,ambig,0.333,5.683333333,1.712285287,0.22105508
169,20,0,1,9,24,216,1290.6933217857586,1294.0321811755712,stimuli/215_yb.png,a,3.326739559721318,ambig,0.333,5.866666667,1.466769385,0.189359113
169,20,0,1,10,1,217,1303.3593681446218,1308.3521800570452,stimuli/334_za.png,a,4.981182420902769,awful,0.333,3.333333333,2.214487481,0.285889104
169,20,0,1,10,2,218,1308.9690531385277,1312.3602968340274,stimuli/257_yb.png,a,3.380049797910033,ambig,0.333,5.620689655,1.843219782,0.242026615
169,20,0,1,10,3,219,1312.9717391698214,1317.7682904159155,stimuli/352_zb.png,a,4.784864253029809,awful,0.333,2.93442623,2.135952968,0.273480754
169,20,0,1,10,4,220,1318.3891110181721,1321.9361776120495,stimuli/372_zb.png,a,3.535479637750541,awful,0.333,2.796610169,2.082601664,0.271131643
169,20,0,1,10,5,221,1322.5685646904312,1327.2002463902027,stimuli/236_yb.png,a,4.620277488298598,ambig,0.333,5.93442623,1.49297078,0.19115532
169,20,0,1,10,6,222,1327.7779908485973,1337.0002493046632,stimuli/285_yb.png,a,9.210669924563263,ambig,0.333,4.120689655,2.119893958,0.278355714
169,20,0,1,10,7,223,1337.6358072390576,1340.2802393167221,stimuli/177_xb.png,l,2.63321573084977,harmless,0.333,6.482758621,1.063614811,0.139659467
169,20,0,1,10,8,224,1340.8925390557706,1343.040227454083,stimuli/348_za.png,l,2.1359714729333064,awful,0.333,3.084745763,2.119597681,0.275948114
169,20,0,1,10,9,225,1343.6433340343792,1347.8322423792706,stimuli/314_zb.png,a,4.17684759174881,awful,0.333,1.833333333,1.451669602,0.18740974
169,20,0,1,10,10,226,1348.495344343697,1353.6802094631857,stimuli/159_xa.png,l,5.172767738637049,harmless,0.333,6.389830508,1.174689235,0.152931512
169,20,0,1,10,11,227,1354.312270436887,1359.0802355358028,stimuli/111_xa.png,a,4.75635726893961,harmless,0.333,6.590163934,0.863655973,0.110579816
169,20,0,1,10,12,228,1359.684749722539,1361.5361854102084,stimuli/205_yb.png,a,1.8397695684543578,ambig,0.333,5.847457627,1.52918233,0.199082582
169,20,0,1,10,13,229,1362.1624406966002,1365.4242196527775,stimuli/301_za.png,l,3.2501396184961777,awful,0.333,3.610169492,2.212947396,0.288101212
169,20,0,1,10,14,230,1366.0552991616569,1371.2402087857627,stimuli/291_za.png,a,5.172750015553902,awful,0.333,2.593220339,1.830005126,0.238246374
169,20,0,1,10,15,231,1371.8627028406627,1377.864249080958,stimuli/227_xa.png,a,5.989988822635496,harmless,0.333,6.180327869,1.05685377,0.135316259
169,20,0,1,10,16,232,1378.5068615890486,1382.616229930587,stimuli/244_xb.png,l,4.098086616242654,harmless,0.333,6.610169492,0.743174671,0.096753101
169,20,0,1,10,17,233,1383.2479616488272,1386.8082130330004,stimuli/339_ya.png,l,3.5486092895735055,ambig,0.333,4.949152542,1.960152429,0.25519011
169,20,0,1,10,18,234,1387.4283408597403,1392.0401971279207,stimuli/268_zb.png,a,4.600214961275924,awful,0.333,2.655737705,2.048456703,0.262278005
169,20,0,1,10,19,235,1392.6956230293,1397.2322424580489,stimuli/253_ya.png,l,4.52481349412119,ambig,0.333,5.491803279,1.849531029,0.236808182
169,20,0,1,10,20,236,1397.860372452502,1401.4642521529604,stimuli/164_xb.png,a,3.592276202776702,harmless,0.333,6.830508475,0.460604639,0.059965616
169,20,0,1,10,21,237,1402.060579851939,1406.4642608175782,stimuli/232_yb.png,a,4.392443744975026,ambig,0.333,5.483333333,1.845669845,0.238274952
169,20,0,1,10,22,238,1407.0981236377847,1414.3362828477693,stimuli/208_xb.png,a,7.226514358451823,harmless,0.333,6.216666667,1.165778516,0.150501359
169,20,0,1,10,23,239,1414.974251908774,1424.1522105407494,stimuli/223_yb.png,a,9.166056598856812,ambig,0.333,5.542372881,1.77455224,0.231027024
169,20,0,1,10,24,240,1424.769118674536,1429.4402397420781,stimuli/274_xb.png,a,4.659505754490965,harmless,0.333,6.491525424,1.179901828,0.153610134
