id,age,condition,counterbalance,block,trialinblock,trial,tstart,tend,trialstim,response,RT,trialtype,ethicfreq,norm_mean,norm_sd,norm_se
119,24,1,1,0,0,practice,3.6999990697950125e-06,5.968667300010566,stimuli/prac_217_1.png,l,5.955904000002192,harmless,NA,NA,NA,NA
119,24,1,1,1,1,1,4.489465599996038,11.00015170002007,stimuli/188_xa.png,l,6.49934530002065,harmless,0.333,6.655172414,0.806807095,0.105938962
119,24,1,1,1,2,2,11.554358699999284,15.680155600013677,stimuli/106_xc.png,l,4.1145061000133865,harmless,0.333,6.661016949,0.863237081,0.112383896
119,24,1,1,1,3,3,16.23130569999921,29.224257499998203,stimuli/365_zb.png,l,12.981646200001705,awful,0.333,2.966101695,2.165291266,0.281896912
119,24,1,1,1,4,4,29.772387400007574,36.416143400012515,stimuli/118_xb.png,l,6.632353900000453,harmless,0.333,6.474576271,0.953323265,0.124112118
119,24,1,1,1,5,5,36.962273500015726,42.76015469999402,stimuli/269_za.png,l,5.786547299998347,awful,0.333,3.457627119,2.119873401,0.27598401
119,24,1,1,1,6,6,43.304520200006664,48.09613280001213,stimuli/220_yb.png,l,4.780232899996918,ambig,0.333,4.75,2.096203186,0.270618668
119,24,1,1,1,7,7,48.6348862000159,59.84015950001776,stimuli/292_zb.png,a,11.194075000006706,awful,0.333,2.396551724,1.955107169,0.256718148
119,24,1,1,1,8,8,60.38451269999496,66.43215280000004,stimuli/214_xb.png,l,6.036471400002483,harmless,0.333,6.465517241,0.940614156,0.12350869
119,24,1,1,1,9,9,66.98685220000334,69.83213799999794,stimuli/150_xc.png,l,2.8340143999957945,harmless,0.333,6.482758621,1.030097582,0.135258439
119,24,1,1,1,10,10,70.37526299999445,76.31212800001958,stimuli/322_za.png,a,5.925460900005419,awful,0.333,2.406779661,1.975004531,0.257123689
119,24,1,1,1,11,11,76.857659900008,83.44809730001725,stimuli/278_xb.png,l,6.579453300015302,harmless,0.333,6.360655738,1.140654591,0.146045855
119,24,1,1,1,12,12,83.99322999999276,87.5761033000017,stimuli/289_yb.png,l,3.5716736000031233,ambig,0.333,5.305084746,1.714584873,0.223219937
119,24,1,1,1,13,13,88.1182069000206,92.80010409999522,stimuli/273_ya.png,l,4.6707652999903075,ambig,0.333,5.551724138,1.836973233,0.241206403
119,24,1,1,1,14,14,93.34196390002035,98.36808200000087,stimuli/236_yb.png,l,5.014712700009113,ambig,0.333,5.93442623,1.49297078,0.19115532
119,24,1,1,1,15,15,98.91475570001057,105.38415359999635,stimuli/334_za.png,a,6.458101700001862,awful,0.333,3.333333333,2.214487481,0.285889104
119,24,1,1,1,16,16,105.9280772000202,115.12014420001651,stimuli/263_ya.png,l,9.180500500020571,ambig,0.333,4.983050847,2.071910042,0.269739712
119,24,1,1,1,17,17,115.671700100007,121.4880947000056,stimuli/239_ya.png,l,5.804855599999428,ambig,0.333,5.157894737,1.925296579,0.255011762
119,24,1,1,1,18,18,122.02894049999304,128.1761005000153,stimuli/357_za.png,a,6.135901300003752,awful,0.333,2.793103448,2.066937905,0.271402243
119,24,1,1,1,19,19,128.83726980001666,134.43210380000528,stimuli/140_xb.png,l,5.583502800000133,harmless,0.333,6.724137931,0.790138861,0.103750315
119,24,1,1,1,20,20,134.97321680001915,141.20009359999676,stimuli/300_za.png,a,6.215547699976014,awful,0.333,3.75,2.12032137,0.273732312
119,24,1,1,1,21,21,141.75154830000247,147.3440552999964,stimuli/204_xb.png,l,5.580851799983066,harmless,0.333,6.508474576,0.858484658,0.111765183
119,24,1,1,1,22,22,147.88720860000467,155.70411210000748,stimuli/326_zb.png,a,7.805532700003823,awful,0.333,3.389830508,2.220724867,0.289113752
119,24,1,1,1,23,23,156.24251189999632,161.50408730001072,stimuli/202_yb.png,a,5.249990000011167,ambig,0.333,5.431034483,1.892849601,0.248543329
119,24,1,1,1,24,24,162.056582899997,167.30409590000636,stimuli/315_yb.png,l,5.2361596999980975,ambig,0.333,5.050847458,1.915667965,0.249398726
119,24,1,1,2,1,25,175.91179800001555,180.41608070000075,stimuli/196_xb.png,l,4.492027300002519,harmless,0.333,6.594366197,0.982313556,0.05213579
119,24,1,1,2,2,26,180.96367230001488,185.2640662000049,stimuli/102_xc.png,l,4.289613600005396,harmless,0.333,6.66011236,0.937292468,0.049676401
119,24,1,1,2,3,27,185.80899799999315,195.24809480001568,stimuli/360_za.png,l,9.427671400015242,awful,0.333,3.2,2.207844259,0.285031468
119,24,1,1,2,4,28,195.78696830000263,200.7520136999956,stimuli/130_xc.png,l,4.9537449999770615,harmless,0.333,6.644067797,0.960651931,0.125066229
119,24,1,1,2,5,29,201.3064982999931,204.69599959999323,stimuli/179_xb.png,l,3.3781220999953803,harmless,0.333,6.704918033,0.882123617,0.112944356
119,24,1,1,2,6,30,205.2389758999925,210.0400399999926,stimuli/353_zb.png,a,4.789902499993332,awful,0.333,1.949152542,1.623361018,0.211343603
119,24,1,1,2,7,31,210.57859160000226,216.17605510001886,stimuli/230_yb.png,a,5.586573100008536,ambig,0.333,4.98245614,1.875511626,0.248417583
119,24,1,1,2,8,32,216.7226643000031,222.94401430001017,stimuli/212_ya.png,l,6.209623900009319,ambig,0.333,5.677966102,1.490668422,0.194068498
119,24,1,1,2,9,33,223.49566670000786,229.18402020001668,stimuli/354_zb.png,a,5.676922900020145,awful,0.333,2,1.701925887,0.221571878
119,24,1,1,2,10,34,229.7232306000078,235.80799490000936,stimuli/307_za.png,a,6.073315799992997,awful,0.333,2.93220339,2.172432347,0.282826601
119,24,1,1,2,11,35,236.35473389999242,241.7360059999919,stimuli/284_ya.png,l,5.3698291999753565,ambig,0.333,5.948275862,1.431750417,0.18799804
119,24,1,1,2,12,36,242.28809159999946,246.48797459999332,stimuli/180_xc.png,l,4.188432899973122,harmless,0.333,6.672131148,0.723908638,0.092687003
119,24,1,1,2,13,37,247.02904130000388,251.9839920999948,stimuli/165_xb.png,l,4.943470999976853,harmless,0.333,6.557377049,1.008705278,0.129151477
119,24,1,1,2,14,38,252.5306485000183,263.8639847000013,stimuli/256_zb.png,l,11.321958599990467,awful,0.333,3.051724138,2.012438634,0.264246138
119,24,1,1,2,15,39,264.4057369999937,269.19200740000815,stimuli/233_yb.png,l,4.774907100014389,ambig,0.333,5.318309859,1.922973646,0.102060844
119,24,1,1,2,16,40,269.7467525000102,275.1440202000085,stimuli/321_zb.png,l,5.385917000006884,awful,0.333,2.918032787,2.177881861,0.278849198
119,24,1,1,2,17,41,275.6879758000141,281.4559883000038,stimuli/257_yb.png,l,5.75665329999174,ambig,0.333,5.620689655,1.843219782,0.242026615
119,24,1,1,2,18,42,282.0414451000106,286.06401780000306,stimuli/183_xb.png,l,4.010225700010778,harmless,0.333,6.448275862,1.095003225,0.143780967
119,24,1,1,2,19,43,286.6063556000008,289.59196750001865,stimuli/135_xa.png,l,2.9740411000093445,harmless,0.333,6.508474576,1.179901828,0.153610134
119,24,1,1,2,20,44,290.13704329999746,294.7999326999998,stimuli/222_ya.png,l,4.651570199988782,ambig,0.333,5.931034483,1.543089507,0.202617579
119,24,1,1,2,21,45,295.3394745000114,300.2079575000098,stimuli/192_za.png,a,4.857096099993214,awful,0.333,2.68852459,2.093967396,0.268105052
119,24,1,1,2,22,46,300.7633021000074,305.7919608000084,stimuli/309_ya.png,l,5.017321299994364,ambig,0.333,4.706896552,1.946734744,0.255618795
119,24,1,1,2,23,47,306.3392053999996,317.0239782000135,stimuli/211_zb.png,l,10.673408100003144,awful,0.333,3.983333333,2.127237938,0.274625237
119,24,1,1,2,24,48,317.57711010001367,323.19996870000614,stimuli/203_yb.png,l,5.611317400005646,ambig,0.333,6,1.542501327,0.200816568
119,24,1,1,3,1,49,331.7140190000064,337.247967000003,stimuli/272_xb.png,l,5.522898199997144,harmless,0.333,6.355932203,1.029943284,0.134087194
119,24,1,1,3,2,50,337.79003750000265,342.47193920001155,stimuli/219_ya.png,l,4.670325500017498,ambig,0.333,5.271186441,1.998538332,0.260187529
119,24,1,1,3,3,51,343.0176190000202,347.50388980002026,stimuli/221_xb.png,l,4.474975100019947,harmless,0.333,6.440677966,1.133672495,0.147591588
119,24,1,1,3,4,52,348.0538457999937,352.20791470000404,stimuli/205_yb.png,l,4.142489199992269,ambig,0.333,5.847457627,1.52918233,0.199082582
119,24,1,1,3,5,53,352.75549810001394,357.5439224000147,stimuli/271_ya.png,a,4.7769494999956805,ambig,0.333,5.711864407,1.771915459,0.230683744
119,24,1,1,3,6,54,358.0901244000124,363.46385890000965,stimuli/270_yb.png,l,5.36213759999373,ambig,0.333,5.534482759,1.912246013,0.251090203
119,24,1,1,3,7,55,364.00680279999506,369.0479329999944,stimuli/176_xb.png,l,5.029577499983134,harmless,0.333,6.796610169,0.517942249,0.067430337
119,24,1,1,3,8,56,369.60446920001414,376.3439062999969,stimuli/248_zb.png,a,6.72800139998435,awful,0.333,3.288135593,1.991800844,0.259310383
119,24,1,1,3,9,57,376.8900296000065,383.1839400000172,stimuli/359_za.png,a,6.282465500000399,awful,0.333,2.01754386,1.641985167,0.217486248
119,24,1,1,3,10,58,383.7301410000073,387.43989670000155,stimuli/136_xc.png,l,3.6984224999905564,harmless,0.333,6.559322034,1.038420326,0.135190811
119,24,1,1,3,11,59,387.98091340000974,392.54392950001056,stimuli/327_zb.png,a,4.551424500008579,awful,0.333,2.502808989,1.906990248,0.101070281
119,24,1,1,3,12,60,393.0842923000164,399.6958951000124,stimuli/310_zb.png,a,6.60032460000366,awful,0.333,3.224137931,2.102989547,0.276136056
119,24,1,1,3,13,61,400.23781900000176,409.9999761999934,stimuli/267_ya.png,l,9.750839999993332,ambig,0.333,5.103448276,1.898195405,0.249245267
119,24,1,1,3,14,62,410.5549045999942,415.27986780001083,stimuli/171_xa.png,l,4.713587700010976,harmless,0.333,6.465517241,1.046556882,0.137419651
119,24,1,1,3,15,63,415.83070980000775,421.89588809999987,stimuli/245_yb.png,l,6.053820800007088,ambig,0.333,4.949152542,2.096168334,0.272897873
119,24,1,1,3,16,64,422.52113569999347,426.31186909999815,stimuli/190_xc.png,l,3.7797019999998156,harmless,0.333,6.517241379,1.046990328,0.137476565
119,24,1,1,3,17,65,426.8667847000179,435.8478638000088,stimuli/173_yb.png,l,8.969788799993694,ambig,0.333,5.796610169,1.242628763,0.161776485
119,24,1,1,3,18,66,436.38804360001814,440.8238607000094,stimuli/363_zb.png,a,4.424443199997768,awful,0.333,2.433333333,2.019956927,0.260775318
119,24,1,1,3,19,67,441.38663090000045,446.5038354000135,stimuli/240_xa.png,l,5.105935400002636,harmless,0.333,6.482758621,1.096107616,0.143925981
119,24,1,1,3,20,68,447.05643329999293,453.0798590000195,stimuli/217_yb.png,a,6.011987800011411,ambig,0.333,5.169491525,2.001314588,0.260548967
119,24,1,1,3,21,69,453.62546139999176,457.89584569999715,stimuli/317_za.png,a,4.259048699983396,awful,0.333,3.65,2.03215674,0.262350307
119,24,1,1,3,22,70,458.44230389999575,465.2558426000178,stimuli/341_zb.png,l,6.801970900007291,awful,0.333,3.603448276,2.15975677,0.283589957
119,24,1,1,3,23,71,465.804941600014,474.4079175000079,stimuli/332_zb.png,l,8.591565300012007,awful,0.333,2.694915254,2.002190501,0.260663001
119,24,1,1,3,24,72,474.94863620001706,479.498156799993,stimuli/137_xa.png,l,4.5381433999864385,harmless,0.333,6.355932203,1.094858074,0.14253838
119,24,1,1,4,1,73,487.89642350000213,494.6238844000036,stimuli/288_yb.png,a,6.716347699984908,ambig,0.333,5.189655172,1.914459262,0.251380817
119,24,1,1,4,2,74,495.18073740002,500.1038434999937,stimuli/182_xb.png,l,4.911802499991609,harmless,0.333,6.542372881,0.988241802,0.128658124
119,24,1,1,4,3,75,500.64283850000356,507.6078447000182,stimuli/325_yb.png,l,6.9536148000042886,ambig,0.333,5.131147541,1.811770863,0.231973488
119,24,1,1,4,4,76,508.1606820000161,515.3358468000079,stimuli/224_yb.png,l,7.163826400006656,ambig,0.333,5.881355932,1.609077116,0.209483997
119,24,1,1,4,5,77,515.8884683999931,520.6398121000093,stimuli/358_za.png,a,4.740019399992889,awful,0.333,3.949152542,2.112554662,0.275031191
119,24,1,1,4,6,78,521.1822354000178,526.3918243999942,stimuli/208_xb.png,l,5.198243599996204,harmless,0.333,6.216666667,1.165778516,0.150501359
119,24,1,1,4,7,79,526.9306514000054,535.4078362,stimuli/198_yb.png,l,8.465853800007608,ambig,0.333,5.101694915,1.83542643,0.238952168
119,24,1,1,4,8,80,535.9562196000188,542.5598100000061,stimuli/320_za.png,l,6.592005499987863,awful,0.333,1.423728814,1.117314975,0.14546202
119,24,1,1,4,9,81,543.1079250000184,549.2958121999982,stimuli/194_xb.png,l,6.176515500003006,harmless,0.333,6.586206897,1.026567825,0.134794959
119,24,1,1,4,10,82,549.855188400019,554.9357578000054,stimuli/181_xa.png,l,5.069090000004508,harmless,0.333,6.666666667,0.950765377,0.122743282
119,24,1,1,4,11,83,555.4761249000148,559.4317480000027,stimuli/299_za.png,a,3.9442927000054624,awful,0.333,1.288135593,0.929420425,0.121000233
119,24,1,1,4,12,84,559.9906491000147,566.1597779000003,stimuli/253_ya.png,l,6.157452799991006,ambig,0.333,5.491803279,1.849531029,0.236808182
119,24,1,1,4,13,85,566.7131933000055,570.6157469000027,stimuli/209_ya.png,l,3.8911312999844085,ambig,0.333,5.603448276,1.825161903,0.239655499
119,24,1,1,4,14,86,571.1601614000101,575.8318246999988,stimuli/318_za.png,l,4.6603353999962565,awful,0.333,3.06557377,2.197489875,0.281359747
119,24,1,1,4,15,87,576.381982699997,582.0477738000045,stimuli/266_zb.png,l,5.654320200002985,awful,0.333,3.491525424,1.888010094,0.245797978
119,24,1,1,4,16,88,582.588769199996,590.0077544999949,stimuli/145_xa.png,l,7.407591700000921,harmless,0.333,6.661016949,0.822321556,0.107057148
119,24,1,1,4,17,89,590.5590395000181,594.2717117000138,stimuli/158_xa.png,l,3.7017481999937445,harmless,0.333,6.786885246,0.661179605,0.084655374
119,24,1,1,4,18,90,594.8261606000015,598.7677830000175,stimuli/193_xc.png,l,3.9300692999968305,harmless,0.333,6.482758621,1.012923151,0.133003326
119,24,1,1,4,19,91,599.3223494999984,603.5517376000062,stimuli/311_za.png,a,4.2179269999905955,awful,0.333,3.116666667,1.975199339,0.254997138
119,24,1,1,4,20,92,604.0974153999996,608.4077353000175,stimuli/216_xa.png,l,4.299002700019628,harmless,0.333,6.603448276,0.877389573,0.115206895
119,24,1,1,4,21,93,608.9576448000153,615.0317436000041,stimuli/373_zb.png,a,6.062675900000613,awful,0.333,2.327586207,1.858011869,0.243968911
119,24,1,1,4,22,94,615.5730115000042,620.4637430000002,stimuli/213_ya.png,l,4.879499600006966,ambig,0.333,5.98245614,1.597891781,0.211645937
119,24,1,1,4,23,95,621.0080362000153,626.8556912000058,stimuli/189_yb.png,l,5.836682199995266,ambig,0.333,5.983333333,1.455459234,0.187898979
119,24,1,1,4,24,96,627.4041264000116,634.1517120000208,stimuli/343_zb.png,l,6.736116600019159,awful,0.333,3.103448276,2.141401862,0.28117984
119,24,1,1,5,1,97,642.8144278000109,649.4316710999992,stimuli/218_yb.png,l,6.606175099994289,ambig,0.25,5.850282486,1.552723069,0.0825263
119,24,1,1,5,2,98,649.97839080001,655.3516883999982,stimuli/105_xa.png,l,5.361999299988383,harmless,0.25,6.557377049,1.088187946,0.139328189
119,24,1,1,5,3,99,655.900326300005,662.3677553000161,stimuli/295_za.png,a,6.456154500017874,awful,0.25,2.3,1.825432384,0.235662307
119,24,1,1,5,4,100,662.9063561999938,667.4236816000193,stimuli/274_xb.png,l,4.506279600027483,harmless,0.25,6.491525424,1.179901828,0.153610134
119,24,1,1,5,5,101,667.969173999998,670.7836755000171,stimuli/152_xa.png,l,2.8031651000201236,harmless,0.25,6.576271186,0.968528743,0.126091702
119,24,1,1,5,6,102,671.3397080000141,675.3677318000118,stimuli/223_yb.png,l,4.016554800007725,ambig,0.25,5.542372881,1.77455224,0.231027024
119,24,1,1,5,7,103,675.917200099997,683.8477106000064,stimuli/333_za.png,l,7.919276500004344,awful,0.25,3.266666667,2.185209657,0.282109354
119,24,1,1,5,8,104,684.4192561999953,688.4236756000028,stimuli/104_xc.png,l,3.9930080999911297,harmless,0.25,6.745762712,0.756425814,0.098478253
119,24,1,1,5,9,105,688.9672109000094,693.9036397000018,stimuli/249_ya.png,l,4.925151700008428,ambig,0.25,5.327868852,1.859402337,0.238072074
119,24,1,1,5,10,106,694.4566346000065,702.7596523000102,stimuli/371_zb.png,l,8.291510400013067,awful,0.25,3.131147541,2.085468851,0.267016925
119,24,1,1,5,11,107,703.3035465000139,707.5836482000013,stimuli/161_xc.png,l,4.268652200000361,harmless,0.25,6.796610169,0.609682252,0.079373868
119,24,1,1,5,12,108,708.1286086000036,712.239611099998,stimuli/356_za.png,a,4.09965999997803,awful,0.25,3.033333333,2.178217796,0.281206708
119,24,1,1,5,13,109,712.784551299992,720.3517143999925,stimuli/362_zb.png,a,7.555759299983038,awful,0.25,1.474576271,1.222715071,0.159183944
119,24,1,1,5,14,110,720.8921337999927,726.4717313000001,stimuli/304_ya.png,a,5.56790729999193,ambig,0.25,4.034482759,2.017167697,0.264867095
119,24,1,1,5,15,111,727.0157877000165,729.4476558000024,stimuli/298_za.png,a,2.420551599992905,awful,0.25,2.881355932,2.026418156,0.263817173
119,24,1,1,5,16,112,730.0067703000095,733.279689899995,stimuli/195_xc.png,l,3.2615364999801386,harmless,0.25,6.637640449,1.001766915,0.05309354
119,24,1,1,5,17,113,733.8235257000197,739.4156617000117,stimuli/141_xc.png,l,5.580679000006057,harmless,0.25,6.508474576,1.040107444,0.135410455
119,24,1,1,5,18,114,740.0121280000021,744.519644200016,stimuli/156_xc.png,l,4.49649820002378,harmless,0.25,6.590163934,0.955284411,0.122311635
119,24,1,1,5,19,115,745.0805873000063,749.6556454999954,stimuli/265_yb.png,l,4.563619499997003,ambig,0.25,5.627118644,1.856008928,0.241631781
119,24,1,1,5,20,116,750.2055125000188,755.1036243000126,stimuli/281_ya.png,l,4.88666980000562,ambig,0.25,5.881355932,1.543448286,0.200939852
119,24,1,1,5,21,117,755.6522629999963,761.3035839000077,stimuli/276_ya.png,l,5.640145799989114,ambig,0.25,5.186440678,1.804922162,0.234980851
119,24,1,1,5,22,118,761.8485231999948,768.3596251000126,stimuli/279_ya.png,l,6.499644399998942,ambig,0.25,5.31147541,1.970964092,0.252356093
119,24,1,1,5,23,119,768.9932871000201,772.8316179999965,stimuli/111_xa.png,l,3.826483899989398,harmless,0.25,6.590163934,0.863655973,0.110579816
119,24,1,1,5,24,120,773.3880809000111,778.359617500013,stimuli/157_xc.png,l,4.96036890000687,harmless,0.25,6.603448276,0.877389573,0.115206895
119,24,1,1,6,1,121,786.9747434000019,793.9276002999977,stimuli/126_xa.png,l,6.941998700000113,harmless,0.166,6.6,0.977717855,0.126222832
119,24,1,1,6,2,122,794.4868077000137,798.9836133999925,stimuli/369_za.png,a,4.485425699996995,awful,0.166,2.948275862,2.055565093,0.26990892
119,24,1,1,6,3,123,799.5294187999971,806.3195853999932,stimuli/174_xc.png,l,6.778791299992008,harmless,0.166,6.533333333,1.111826512,0.143536185
119,24,1,1,6,4,124,806.8631815999979,810.2475478000124,stimuli/199_za.png,l,3.3729572000156622,awful,0.166,3.033898305,2.189048775,0.284989876
119,24,1,1,6,5,125,810.7900606000039,818.3036353999923,stimuli/330_ya.png,l,7.5020896999922115,ambig,0.166,4.796610169,2.049219036,0.266785595
119,24,1,1,6,6,126,818.8601232999936,823.2715750999923,stimuli/207_yb.png,l,4.399996199994348,ambig,0.166,5.655737705,1.662179753,0.212820309
119,24,1,1,6,7,127,823.8227531000157,826.8155816000071,stimuli/164_xb.png,l,2.981862299988279,harmless,0.166,6.830508475,0.460604639,0.059965616
119,24,1,1,6,8,128,827.3732336999965,833.2075565000123,stimuli/237_ya.png,l,5.822897900012322,ambig,0.166,4.305084746,2.019339575,0.26289562
119,24,1,1,6,9,129,833.7565620999958,837.743615400017,stimuli/231_xb.png,l,3.9757096999965142,harmless,0.166,6.62295082,1.05141071,0.134619347
119,24,1,1,6,10,130,838.2885799999931,848.3755658000009,stimuli/291_za.png,a,10.075467499991646,awful,0.166,2.593220339,1.830005126,0.238246374
119,24,1,1,6,11,131,848.9236583000165,853.7195440999931,stimuli/242_xb.png,l,4.784494099993026,harmless,0.166,6.576271186,0.913564256,0.118935936
119,24,1,1,6,12,132,854.2605870999978,857.8235708000138,stimuli/143_xb.png,l,3.55161950000911,harmless,0.166,6.655172414,0.738697862,0.096995781
119,24,1,1,6,13,133,858.3707868000201,863.9195338000136,stimuli/128_xc.png,l,5.537345399992773,harmless,0.166,6.627118644,0.98082135,0.127692063
119,24,1,1,6,14,134,864.4731711999921,869.3035022999975,stimuli/234_xb.png,l,4.818906200001948,harmless,0.166,6.637931034,0.788030542,0.103473479
119,24,1,1,6,15,135,869.8441816999984,877.9435958999966,stimuli/286_ya.png,l,8.088075899984688,ambig,0.166,5.06779661,1.779814082,0.231712057
119,24,1,1,6,16,136,878.4958738000132,883.2075570000161,stimuli/258_ya.png,l,4.700328600010835,ambig,0.166,5.627118644,1.78014243,0.231754804
119,24,1,1,6,17,137,883.7537068999954,888.063532900007,stimuli/361_za.png,a,4.298410699993838,awful,0.166,2.416666667,1.907093508,0.246204713
119,24,1,1,6,18,138,888.6064082999947,895.7995919999958,stimuli/261_yb.png,l,7.181715899991104,ambig,0.166,5.706896552,1.901141123,0.249632059
119,24,1,1,6,19,139,896.3393580999982,900.471544,stimuli/264_xa.png,l,4.120729799993569,harmless,0.166,6.533333333,0.947193297,0.122282129
119,24,1,1,6,20,140,901.0212933000003,909.7435432999919,stimuli/235_ya.png,l,8.710906099993736,ambig,0.166,5.694915254,1.567495667,0.204070554
119,24,1,1,6,21,141,910.302316300018,912.9034862999979,stimuli/113_xb.png,l,2.5900699000048917,harmless,0.166,6.733333333,0.660422737,0.085260209
119,24,1,1,6,22,142,913.4549271000142,920.5035137000086,stimuli/131_xb.png,l,7.0373318000056315,harmless,0.166,6.525423729,1.119666394,0.145768149
119,24,1,1,6,23,143,921.0550876000198,925.879502900003,stimuli/251_ya.png,l,4.813036999985343,ambig,0.166,5.655172414,1.792300532,0.235340589
119,24,1,1,6,24,144,926.4225517000013,931.4395005000115,stimuli/280_xb.png,l,5.005566900013946,harmless,0.166,6.333333333,1.068289726,0.137915611
119,24,1,1,7,1,145,939.6655830999953,945.2795003000065,stimuli/142_xa.png,l,5.602867799985688,harmless,0.083,6.4,1.076718178,0.139003719
119,24,1,1,7,2,146,945.8238478999992,950.0314948000014,stimuli/144_xa.png,l,4.196239299984882,harmless,0.083,6.542372881,1.00553698,0.130909764
119,24,1,1,7,3,147,950.5763304000138,953.759507300012,stimuli/154_xc.png,l,3.1720722000172827,harmless,0.083,6.5,0.965506805,0.124646393
119,24,1,1,7,4,148,954.3323264000064,958.0874904000084,stimuli/151_xa.png,l,3.743644800008042,harmless,0.083,6.610169492,0.947172729,0.123311386
119,24,1,1,7,5,149,958.6357353000203,962.8875276000181,stimuli/287_ya.png,l,4.240578199998708,ambig,0.083,5.950819672,1.407435369,0.180203633
119,24,1,1,7,6,150,963.4431680999987,967.1995292000065,stimuli/148_xc.png,l,3.744911999994656,harmless,0.083,6.491525424,1.135218061,0.147792803
119,24,1,1,7,7,151,967.7439860000159,973.167440499994,stimuli/366_za.png,l,5.412117399973795,awful,0.083,3.689655172,2.036568291,0.267414518
119,24,1,1,7,8,152,973.8052192000032,978.1914812000177,stimuli/178_xa.png,l,4.327564000006532,harmless,0.083,6.483333333,1.112207557,0.143585378
119,24,1,1,7,9,153,978.7367556999961,983.2634729999991,stimuli/215_yb.png,l,4.515349599998444,ambig,0.083,5.866666667,1.466769385,0.189359113
119,24,1,1,7,10,154,983.8205343000009,988.6554536000185,stimuli/166_xa.png,l,4.823461400024826,harmless,0.083,6.593220339,1.052397002,0.13701042
119,24,1,1,7,11,155,989.2071097000153,994.0379424999992,stimuli/250_yb.png,l,4.819392599980347,ambig,0.083,5.950819672,1.585625318,0.203018519
119,24,1,1,7,12,156,994.5737926000147,998.2474632000085,stimuli/225_ya.png,l,3.6622612999926787,ambig,0.083,5.85,1.792876677,0.231459384
119,24,1,1,7,13,157,998.8079201999935,1004.6074379000056,stimuli/296_yb.png,l,5.7881830999976955,ambig,0.083,4.229508197,2.052587332,0.262806878
119,24,1,1,7,14,158,1005.16175140001,1009.911529200006,stimuli/153_xb.png,l,4.738700899994001,harmless,0.083,6.633333333,0.973664521,0.125699549
119,24,1,1,7,15,159,1010.4855924000149,1013.695406200015,stimuli/116_xa.png,l,3.198506600019755,harmless,0.083,6.63559322,0.958030802,0.050918763
119,24,1,1,7,16,160,1014.3046083000081,1020.9274059000018,stimuli/170_xc.png,l,6.611658100009663,harmless,0.083,6.583333333,1.062323432,0.137145365
119,24,1,1,7,17,161,1021.4737015000137,1026.0074418000004,stimuli/120_xa.png,l,4.522158000007039,harmless,0.083,6.440677966,1.054893138,0.137335389
119,24,1,1,7,18,162,1026.5683651000145,1033.887414900004,stimuli/335_yb.png,l,7.307754699984798,ambig,0.083,5.016949153,2.046793332,0.266469795
119,24,1,1,7,19,163,1034.4660809000197,1038.8794288999925,stimuli/121_xc.png,l,4.4021019999927375,harmless,0.083,6.508474576,1.006408455,0.131023221
119,24,1,1,7,20,164,1039.436501899996,1053.4633524999954,stimuli/103_xb.png,l,14.015515699982643,harmless,0.083,6.779661017,0.589207434,0.076708274
119,24,1,1,7,21,165,1054.0192802000092,1059.5994854000164,stimuli/344_za.png,a,5.568977300019469,awful,0.083,2.711864407,2.043077863,0.265986082
119,24,1,1,7,22,166,1060.1509602000006,1066.5674224999966,stimuli/319_ya.png,a,6.405186699994374,ambig,0.083,4.216666667,2.108028774,0.272145344
119,24,1,1,7,23,167,1067.1144038000202,1071.335431000014,stimuli/139_xa.png,l,4.209818300005281,harmless,0.083,6.724137931,0.790138861,0.103750315
119,24,1,1,7,24,168,1071.9140010999981,1077.1353991999931,stimuli/147_ya.png,l,5.210171299986541,ambig,0.083,5.883333333,1.766847875,0.22809908
119,24,1,1,8,1,169,1086.1175329000107,1091.9113519999955,stimuli/336_ya.png,l,5.782757199980551,ambig,0.0412,5.033898305,1.884291705,0.245313885
119,24,1,1,8,2,170,1092.4555817999935,1095.4393670000136,stimuli/283_yb.png,l,2.972526600002311,ambig,0.0412,5.949152542,1.478859402,0.192531095
119,24,1,1,8,3,171,1095.9907301000203,1099.7673698000144,stimuli/119_xc.png,l,3.7652944000146817,harmless,0.0412,6.694915254,0.914523379,0.119060803
119,24,1,1,8,4,172,1100.3079968999955,1107.4873754,stimuli/210_yb.png,l,7.1681261000048835,ambig,0.0412,5.557377049,1.76564049,0.226067099
119,24,1,1,8,5,173,1108.0309140000027,1115.5993533,stimuli/244_xb.png,l,7.557145600003423,harmless,0.0412,6.610169492,0.743174671,0.096753101
119,24,1,1,8,6,174,1116.1411150000058,1120.103380400018,stimuli/169_xc.png,l,3.950882300006924,harmless,0.0412,6.603448276,0.916508538,0.120343467
119,24,1,1,8,7,175,1120.6623657000018,1124.5273391999945,stimuli/107_xa.png,l,3.8537462999811396,harmless,0.0412,6.813559322,0.540580029,0.070377525
119,24,1,1,8,8,176,1125.127977199998,1130.1273497999937,stimuli/134_xc.png,l,4.988252099981764,harmless,0.0412,6.516666667,0.965360505,0.124627505
119,24,1,1,8,9,177,1130.6729754999978,1135.6153223000001,stimuli/351_zb.png,a,4.931055499997456,awful,0.0412,3.06779661,2.033040926,0.264679384
119,24,1,1,8,10,178,1136.1721779000072,1141.4713477000187,stimuli/138_xc.png,l,5.287808699999005,harmless,0.0412,6.661016949,0.70978796,0.092406522
119,24,1,1,8,11,179,1142.0750772000174,1147.4313394000055,stimuli/122_xa.png,l,5.344790400005877,harmless,0.0412,6.457627119,1.039264227,0.135300678
119,24,1,1,8,12,180,1147.9828856000095,1151.8793791000207,stimuli/262_ya.png,l,3.8857471000228543,ambig,0.0412,5.491525424,1.7750462,0.231091332
119,24,1,1,8,13,181,1152.4233884999994,1156.0714176000038,stimuli/163_xa.png,l,3.636883900006069,harmless,0.0412,6.627118644,0.963082427,0.125382652
119,24,1,1,8,14,182,1156.6300954000035,1160.1513111999957,stimuli/133_xa.png,l,3.5100489999749698,harmless,0.0412,6.568965517,1.186356193,0.1557762
119,24,1,1,8,15,183,1160.7051812999998,1163.6953303000191,stimuli/129_xa.png,l,2.978868500009412,harmless,0.0412,6.770491803,0.642740036,0.082294429
119,24,1,1,8,16,184,1164.2557527000026,1167.6233176999958,stimuli/132_xc.png,l,3.356255799997598,harmless,0.0412,6.627118644,0.692280217,0.090127208
119,24,1,1,8,17,185,1168.1804477999976,1172.3433276000142,stimuli/232_yb.png,l,4.151620000018738,ambig,0.0412,5.483333333,1.845669845,0.238274952
119,24,1,1,8,18,186,1172.8890984000172,1178.9113239000144,stimuli/117_xc.png,l,6.010907200019574,harmless,0.0412,6.627118644,0.868972939,0.113130641
119,24,1,1,8,19,187,1179.456939399999,1184.6553118000156,stimuli/167_xb.png,l,5.1870522999961395,harmless,0.0412,6.590163934,0.955284411,0.122311635
119,24,1,1,8,20,188,1185.2051045999979,1194.5593460999953,stimuli/323_yb.png,a,9.342725900001824,ambig,0.0412,4.603448276,1.955107169,0.256718148
119,24,1,1,8,21,189,1195.1071263000194,1198.5513250000076,stimuli/254_ya.png,l,3.432709699991392,ambig,0.0412,5.983606557,1.627798137,0.208418195
119,24,1,1,8,22,190,1199.1064428999962,1202.335321599996,stimuli/186_xa.png,l,3.2175298999936786,harmless,0.0412,6.65,0.879618561,0.113558268
119,24,1,1,8,23,191,1202.881987300003,1206.6873119999946,stimuli/247_ya.png,l,3.794067899987567,ambig,0.0412,4.65,2.081598147,0.268733165
119,24,1,1,8,24,192,1207.2402974000142,1210.8313127000001,stimuli/160_xb.png,l,3.5796436999808066,harmless,0.0412,6.666666667,0.680644427,0.087870818
119,24,1,1,9,1,193,1219.6299875999975,1225.2393141000066,stimuli/227_xa.png,l,5.598297199991066,harmless,0.0412,6.180327869,1.05685377,0.135316259
119,24,1,1,9,2,194,1225.7915581999987,1228.647320499993,stimuli/184_xb.png,l,2.8442760999896564,harmless,0.0412,6.508474576,1.194425,0.15550089
119,24,1,1,9,3,195,1229.1902673000004,1232.2792716000113,stimuli/241_yb.png,l,3.0776053000008687,ambig,0.0412,5.508474576,1.442852555,0.187843403
119,24,1,1,9,4,196,1232.919546899997,1245.50330880002,stimuli/172_xb.png,l,12.572286600014195,harmless,0.0412,6.482758621,1.127664553,0.14806961
119,24,1,1,9,5,197,1246.0526291000133,1251.215256399999,stimuli/159_xa.png,l,5.151370799983852,harmless,0.0412,6.389830508,1.174689235,0.152931512
119,24,1,1,9,6,198,1251.7701273999992,1257.5032915000047,stimuli/110_xa.png,l,5.721871799993096,harmless,0.0412,6.428571429,1.059281795,0.141552484
119,24,1,1,9,7,199,1258.0556463999965,1262.2232861999946,stimuli/201_yb.png,l,4.156297399982577,ambig,0.0412,5.898305085,1.626238682,0.211718243
119,24,1,1,9,8,200,1262.7816468999954,1266.2152903999959,stimuli/124_xa.png,l,3.422138599999016,harmless,0.0412,6.344262295,1.181598436,0.151288177
119,24,1,1,9,9,201,1266.7922794000187,1275.3752838000073,stimuli/123_xc.png,l,8.571566200000234,harmless,0.0412,6.491525424,1.023396666,0.133234897
119,24,1,1,9,10,202,1275.9414470000193,1279.8232774000207,stimuli/101_xa.png,l,3.870570700004464,harmless,0.0412,6.508522727,1.13475832,0.060482822
119,24,1,1,9,11,203,1280.3712182000163,1283.9432321000204,stimuli/197_xa.png,l,3.560787700000219,harmless,0.0412,6.779661017,0.55918033,0.072799078
119,24,1,1,9,12,204,1284.5408429999952,1289.6312724000018,stimuli/177_xb.png,l,5.079181000008248,harmless,0.0412,6.482758621,1.063614811,0.139659467
119,24,1,1,9,13,205,1290.1736089000187,1295.5752669000067,stimuli/339_ya.png,l,5.390297700010706,ambig,0.0412,4.949152542,1.960152429,0.25519011
119,24,1,1,9,14,206,1296.1185345000122,1302.8392269000178,stimuli/275_yb.png,a,6.70941720000701,ambig,0.0412,4.836065574,2.138382004,0.27379176
119,24,1,1,9,15,207,1303.3895583999984,1325.0472343000001,stimuli/255_xb.png,l,21.6465148999996,harmless,0.0412,6.770491803,0.642740036,0.082294429
119,24,1,1,9,16,208,1325.5880120999936,1328.9112086000096,stimuli/112_xc.png,l,3.3120818000170402,harmless,0.0412,6.706896552,0.749470472,0.098410294
119,24,1,1,9,17,209,1329.4552350000013,1332.6712170999963,stimuli/146_xa.png,l,3.204576799995266,harmless,0.0412,6.442622951,1.162247681,0.148810567
119,24,1,1,9,18,210,1333.227760800015,1336.079235800018,stimuli/162_xa.png,l,2.8402662000153214,harmless,0.0412,6.644067797,0.905209289,0.117848212
119,24,1,1,9,19,211,1336.6194526000181,1342.1671944000118,stimuli/367_zb.png,a,5.536429900006624,awful,0.0412,3.413793103,2.086165649,0.27392697
119,24,1,1,9,20,212,1342.7080691000156,1349.2472070000076,stimuli/350_ya.png,l,6.527829600003315,ambig,0.0412,4.915254237,2.02814792,0.264042369
119,24,1,1,9,21,213,1349.788521600014,1357.959171399998,stimuli/243_ya.png,l,8.159306699992158,ambig,0.0412,5.830508475,1.652088985,0.215083666
119,24,1,1,9,22,214,1358.5144734999922,1363.2471696000139,stimuli/228_ya.png,l,4.721400700014783,ambig,0.0412,5.442622951,1.793735303,0.229664272
119,24,1,1,9,23,215,1363.7998505000141,1368.6231940000143,stimuli/175_xb.png,l,4.811945299996296,harmless,0.0412,6.6,1.028409995,0.13276716
119,24,1,1,9,24,216,1369.1723149000027,1372.9991521000047,stimuli/200_ya.png,l,3.8154589000041597,ambig,0.0412,5.862068966,1.444266048,0.189641423
119,24,1,1,10,1,217,1382.5361259000201,1386.8631637000071,stimuli/238_xb.png,l,4.316289200010942,harmless,0.0412,6.4,1.076718178,0.139003719
119,24,1,1,10,2,218,1387.4480383000046,1391.3991633999976,stimuli/149_xa.png,l,3.9397798999852967,harmless,0.0412,6.721311475,0.933294301,0.11949609
119,24,1,1,10,3,219,1391.9483326000045,1395.4952736000123,stimuli/259_xc.png,l,3.535711900010938,harmless,0.0412,6.568965517,0.993170874,0.130409725
119,24,1,1,10,4,220,1396.1189690000028,1402.991135999997,stimuli/282_xc.png,l,6.860991900000954,harmless,0.0412,6.55,0.998728005,0.128935231
119,24,1,1,10,5,221,1403.539306199993,1408.5991587000026,stimuli/226_yb.png,l,5.048548999999184,ambig,0.0412,5.683333333,1.712285287,0.22105508
119,24,1,1,10,6,222,1409.1524183000147,1420.0711421000015,stimuli/108_xb.png,l,10.907462200004375,harmless,0.0412,6.568965517,1.077880782,0.141532681
119,24,1,1,10,7,223,1420.6216984000057,1435.3031441000057,stimuli/260_ya.png,l,14.67016139999032,ambig,0.0412,4.966101695,2.016877936,0.262575142
119,24,1,1,10,8,224,1435.8566380999982,1442.26314190001,stimuli/312_yb.png,l,6.395094000006793,ambig,0.0412,4.677966102,2.112692986,0.275049199
119,24,1,1,10,9,225,1442.8130958999973,1445.9911842000147,stimuli/187_xc.png,l,3.1668336000002455,harmless,0.0412,6.224137931,1.185335891,0.155642228
119,24,1,1,10,10,226,1446.5400031000027,1454.9431243000145,stimuli/246_ya.png,l,8.391809699998703,ambig,0.0412,5.542372881,1.715266481,0.223308675
119,24,1,1,10,11,227,1455.4898829000012,1474.3991390000156,stimuli/342_yb.png,l,18.89789870000095,ambig,0.0412,4.916666667,2.085394461,0.269223267
119,24,1,1,10,12,228,1475.034549300006,1478.559101699997,stimuli/125_xc.png,l,3.513100799988024,harmless,0.0412,6.683333333,0.999858747,0.129081209
119,24,1,1,10,13,229,1479.1113751000084,1486.1431030000094,stimuli/337_zb.png,l,7.020487200003117,awful,0.0412,3.033333333,2.20143764,0.284204377
119,24,1,1,10,14,230,1486.6898718000157,1489.8390848000126,stimuli/191_ya.png,l,3.137784399994416,ambig,0.0412,5.517241379,2.062542966,0.270825159
119,24,1,1,10,15,231,1490.4121465000208,1493.2470557000197,stimuli/109_xb.png,l,2.82391540001845,harmless,0.0412,6.644067797,0.97843492,0.127381377
119,24,1,1,10,16,232,1493.7898640000203,1497.9270525000175,stimuli/277_yb.png,l,4.126232800015714,ambig,0.0412,5.491525424,2.02886822,0.264136144
119,24,1,1,10,17,233,1498.4760903000133,1503.335050099995,stimuli/185_xa.png,l,4.826667199988151,harmless,0.0412,6.5,0.965506805,0.124646393
119,24,1,1,10,18,234,1503.929474500008,1514.063118399994,stimuli/127_xb.png,l,10.122478399978718,harmless,0.0412,6.423728814,1.162686987,0.151368953
119,24,1,1,10,19,235,1514.607508999994,1526.2311005000083,stimuli/206_xa.png,l,11.612258600012865,harmless,0.0412,6.325842697,1.136094431,0.060212884
119,24,1,1,10,20,236,1526.775891600002,1530.5750778999936,stimuli/155_xb.png,l,3.787919900001725,harmless,0.0412,6.655737705,0.892286312,0.114245555
119,24,1,1,10,21,237,1531.113510199997,1536.647039100004,stimuli/285_yb.png,a,5.522231299983105,ambig,0.0412,4.120689655,2.119893958,0.278355714
119,24,1,1,10,22,238,1537.1894516000175,1541.6710165000113,stimuli/168_xa.png,l,4.470252500002971,harmless,0.0412,6.474576271,1.164946827,0.151663159
119,24,1,1,10,23,239,1542.2127311000077,1567.8470300000045,stimuli/115_xb.png,l,25.62304820001009,harmless,0.0412,6.440677966,1.021681954,0.133011661
119,24,1,1,10,24,240,1568.4499394000159,1573.8230794999981,stimuli/114_xc.png,l,5.361528499983251,harmless,0.0412,6.644067797,0.97843492,0.127381377
