id,age,condition,counterbalance,block,trialinblock,trial,tstart,tend,trialstim,response,RT,trialtype,ethicfreq,norm_mean,norm_sd,norm_se
175,21,0,2,0,0,practice,4.7264620661735535e-06,10.072778451256454,stimuli/prac_217_1.png,l,10.058073020540178,harmless,NA,NA,NA,NA
175,21,0,2,1,1,1,4.462295131292194,12.121643741149455,stimuli/259_xc.png,l,7.648749026469886,harmless,0.333,6.568965517,0.993170874,0.130409725
175,21,0,2,1,2,2,12.685072676744312,20.48963436111808,stimuli/270_yb.png,l,7.79399124532938,ambig,0.333,5.534482759,1.912246013,0.251090203
175,21,0,2,1,3,3,21.10820373846218,30.24963470781222,stimuli/304_ya.png,a,9.131880986038595,ambig,0.333,4.034482759,2.017167697,0.264867095
175,21,0,2,1,4,4,30.812602843157947,43.049630926921964,stimuli/190_xc.png,l,12.226488758344203,harmless,0.333,6.517241379,1.046990328,0.137476565
175,21,0,2,1,5,5,43.658728695940226,58.00963859912008,stimuli/326_zb.png,a,14.34052260266617,awful,0.333,3.389830508,2.220724867,0.289113752
175,21,0,2,1,6,6,58.58288533333689,63.71365803619847,stimuli/294_za.png,a,5.120391309726983,awful,0.333,1.557377049,1.38473331,0.177296933
175,21,0,2,1,7,7,64.28745576133952,83.12967032706365,stimuli/214_xb.png,l,18.831773308105767,harmless,0.333,6.465517241,0.940614156,0.12350869
175,21,0,2,1,8,8,83.68968540383503,94.61762572173029,stimuli/128_xc.png,l,10.917806654702872,harmless,0.333,6.627118644,0.98082135,0.127692063
175,21,0,2,1,9,9,95.19221625942737,102.96963918209076,stimuli/328_za.png,a,7.766802859026939,awful,0.333,2.706896552,1.955725922,0.256799395
175,21,0,2,1,10,10,103.54295287001878,112.53766193985939,stimuli/335_yb.png,l,8.984133904334158,ambig,0.333,5.016949153,2.046793332,0.266469795
175,21,0,2,1,11,11,113.1010113186203,125.01767581887543,stimuli/345_zb.png,l,11.906057039741427,awful,0.333,3.694915254,2.191317013,0.285285176
175,21,0,2,1,12,12,125.58223469927907,136.53763082623482,stimuli/151_xa.png,l,10.944871767889708,harmless,0.333,6.610169492,0.947172729,0.123311386
175,21,0,2,1,13,13,137.14979429449886,145.12963842554018,stimuli/261_yb.png,a,7.969615550711751,ambig,0.333,5.706896552,1.901141123,0.249632059
175,21,0,2,1,14,14,145.70080722728744,159.96166497748345,stimuli/256_zb.png,a,14.25034953886643,awful,0.333,3.051724138,2.012438634,0.264246138
175,21,0,2,1,15,15,160.55078292731196,187.32966032344848,stimuli/288_yb.png,l,26.768758698832244,ambig,0.333,5.189655172,1.914459262,0.251380817
175,21,0,2,1,16,16,187.91952618723735,194.98568093264475,stimuli/221_xb.png,l,7.055815494153649,harmless,0.333,6.440677966,1.133672495,0.147591588
175,21,0,2,1,17,17,195.6120374375023,202.58563989400864,stimuli/362_zb.png,a,6.963001297321171,awful,0.333,1.474576271,1.222715071,0.159183944
175,21,0,2,1,18,18,203.163337090984,209.35365855600685,stimuli/149_xa.png,l,6.180300835520029,harmless,0.333,6.721311475,0.933294301,0.11949609
175,21,0,2,1,19,19,209.91733876569197,216.68167969118804,stimuli/202_yb.png,a,6.753928025253117,ambig,0.333,5.431034483,1.892849601,0.248543329
175,21,0,2,1,20,20,217.25196942826733,231.56967888167128,stimuli/370_za.png,a,14.307051974348724,awful,0.333,2.393442623,1.882185684,0.240989182
175,21,0,2,1,21,21,232.1634107399732,239.4656778764911,stimuli/336_ya.png,l,7.292883356101811,ambig,0.333,5.033898305,1.884291705,0.245313885
175,21,0,2,1,22,22,240.02968852315098,248.2097105155699,stimuli/203_yb.png,l,8.169311344157904,ambig,0.333,6,1.542501327,0.200816568
175,21,0,2,1,23,23,248.79738108022138,261.8337011858821,stimuli/240_xa.png,l,13.026100189890712,harmless,0.333,6.482758621,1.096107616,0.143925981
175,21,0,2,1,24,24,262.41579094994813,269.4336593593471,stimuli/301_za.png,a,7.007416124455631,awful,0.333,3.610169492,2.212947396,0.288101212
175,21,0,2,2,1,25,278.50695729395375,287.49768221518025,stimuli/342_yb.png,a,8.980169842485338,ambig,0.333,4.916666667,2.085394461,0.269223267
175,21,0,2,2,2,26,288.11109575117007,308.34591317595914,stimuli/275_yb.png,a,20.22427416080609,ambig,0.333,4.836065574,2.138382004,0.27379176
175,21,0,2,2,3,27,308.9694296559319,331.67373896343634,stimuli/183_xb.png,a,22.69382945355028,harmless,0.333,6.448275862,1.095003225,0.143780967
175,21,0,2,2,4,28,332.2600799035281,345.30571998655796,stimuli/357_za.png,a,13.03495660983026,awful,0.333,2.793103448,2.066937905,0.271402243
175,21,0,2,2,5,29,345.86044098204,356.8576935105957,stimuli/120_xa.png,l,10.987155098933727,harmless,0.333,6.440677966,1.054893138,0.137335389
175,21,0,2,2,6,30,357.45411415724084,366.92996153701097,stimuli/215_yb.png,l,9.465831082314253,ambig,0.333,5.866666667,1.466769385,0.189359113
175,21,0,2,2,7,31,367.4890191736631,375.42568791192025,stimuli/332_zb.png,a,7.926436613313854,awful,0.333,2.694915254,2.002190501,0.260663001
175,21,0,2,2,8,32,376.0031956685707,390.9137193188071,stimuli/264_xa.png,a,14.90046914992854,harmless,0.333,6.533333333,0.947193297,0.122282129
175,21,0,2,2,9,33,391.48096107970923,396.7536976253614,stimuli/292_zb.png,a,5.263372064102441,awful,0.333,2.396551724,1.955107169,0.256718148
175,21,0,2,2,10,34,397.3757836557925,419.6097102002241,stimuli/243_ya.png,a,22.223914185538888,ambig,0.333,5.830508475,1.652088985,0.215083666
175,21,0,2,2,11,35,420.1746440222487,430.86574293999,stimuli/187_xc.png,l,10.68045207252726,harmless,0.333,6.224137931,1.185335891,0.155642228
175,21,0,2,2,12,36,431.48852607794106,439.0896126208827,stimuli/337_zb.png,a,7.591091119218618,awful,0.333,3.033333333,2.20143764,0.284204377
175,21,0,2,2,13,37,439.6953292200342,439.7777175195515,stimuli/236_yb.png,l,0.0715551651082933,ambig,0.333,5.93442623,1.49297078,0.19115532
175,21,0,2,2,14,38,440.3725206395611,462.4177255225368,stimuli/167_xb.png,l,22.03458993928507,harmless,0.333,6.590163934,0.955284411,0.122311635
175,21,0,2,2,15,39,462.9924988048151,469.9617299619131,stimuli/366_za.png,a,6.959119942504913,awful,0.333,3.689655172,2.036568291,0.267414518
175,21,0,2,2,16,40,470.53253484983,475.1697288211435,stimuli/114_xc.png,l,4.626722387969494,harmless,0.333,6.644067797,0.97843492,0.127381377
175,21,0,2,2,17,41,475.7742481282912,487.0017148065381,stimuli/373_zb.png,a,11.21699273167178,awful,0.333,2.327586207,1.858011869,0.243968911
175,21,0,2,2,18,42,487.707067807205,500.6417102064006,stimuli/134_xc.png,l,12.92501758504659,harmless,0.333,6.516666667,0.965360505,0.124627505
175,21,0,2,2,19,43,501.2116466634907,518.8897388093174,stimuli/260_ya.png,a,17.66788246994838,ambig,0.333,4.966101695,2.016877936,0.262575142
175,21,0,2,2,20,44,519.4663103935309,527.7857484379783,stimuli/207_yb.png,a,8.308606879319996,ambig,0.333,5.655737705,1.662179753,0.212820309
175,21,0,2,2,21,45,528.3629639609717,537.1138845765963,stimuli/355_zb.png,l,8.74062074907124,awful,0.333,3.183333333,2.070713188,0.267327923
175,21,0,2,2,22,46,537.6834866576828,544.3377467743121,stimuli/158_xa.png,l,6.643152471166104,harmless,0.333,6.786885246,0.661179605,0.084655374
175,21,0,2,2,23,47,544.9107438102365,554.3137264866382,stimuli/211_zb.png,l,9.391745455563068,awful,0.333,3.983333333,2.127237938,0.274625237
175,21,0,2,2,24,48,554.9092869730666,568.5937625784427,stimuli/200_ya.png,a,13.673449486028403,ambig,0.333,5.862068966,1.444266048,0.189641423
175,21,0,2,3,1,49,581.9843544587493,597.2737751188688,stimuli/224_yb.png,l,15.278681654948741,ambig,0.333,5.881355932,1.609077116,0.209483997
175,21,0,2,3,2,50,597.848846542649,610.497773587238,stimuli/329_zb.png,a,12.638941073324531,awful,0.333,2.406779661,1.992387617,0.259386774
175,21,0,2,3,3,51,611.0621127015911,624.2177599444985,stimuli/169_xc.png,l,13.145270970184356,harmless,0.333,6.603448276,0.916508538,0.120343467
175,21,0,2,3,4,52,624.7809080677107,629.8817697246559,stimuli/164_xb.png,l,5.09048538422212,harmless,0.333,6.830508475,0.460604639,0.059965616
175,21,0,2,3,5,53,630.5047450596467,635.3217774913646,stimuli/346_zb.png,a,4.806777857244015,awful,0.333,1.288135593,0.983499162,0.128040685
175,21,0,2,3,6,54,635.8956980966032,643.0257492731325,stimuli/237_ya.png,a,7.119435445405543,ambig,0.333,4.305084746,2.019339575,0.26289562
175,21,0,2,3,7,55,643.6029770052992,650.3777820314281,stimuli/115_xb.png,l,6.764984076842666,harmless,0.333,6.440677966,1.021681954,0.133011661
175,21,0,2,3,8,56,650.9407418961637,659.0659814532846,stimuli/241_yb.png,a,8.114862102549523,ambig,0.333,5.508474576,1.442852555,0.187843403
175,21,0,2,3,9,57,659.6442694193684,675.233791061677,stimuli/281_ya.png,a,15.57973259408027,ambig,0.333,5.881355932,1.543448286,0.200939852
175,21,0,2,3,10,58,675.8164365426637,684.2977879233658,stimuli/321_zb.png,a,8.471402431372553,awful,0.333,2.918032787,2.177881861,0.278849198
175,21,0,2,3,11,59,684.8610636526719,693.7297671348788,stimuli/318_za.png,a,8.85856587998569,awful,0.333,3.06557377,2.197489875,0.281359747
175,21,0,2,3,12,60,694.3018981027417,713.9297764296643,stimuli/247_ya.png,l,19.617102300282568,ambig,0.333,4.65,2.081598147,0.268733165
175,21,0,2,3,13,61,714.5056213675998,721.0257894452661,stimuli/363_zb.png,a,6.510310894344002,awful,0.333,2.433333333,2.019956927,0.260775318
175,21,0,2,3,14,62,721.5868911435828,729.7378193209879,stimuli/163_xa.png,l,8.140429024584591,harmless,0.333,6.627118644,0.963082427,0.125382652
175,21,0,2,3,15,63,730.302312429063,741.3057711864822,stimuli/173_yb.png,l,10.993287678807974,ambig,0.333,5.796610169,1.242628763,0.161776485
175,21,0,2,3,16,64,741.8843734422699,749.5537552847527,stimuli/188_xa.png,l,7.658953582402319,harmless,0.333,6.655172414,0.806807095,0.105938962
175,21,0,2,3,17,65,750.1240402953699,765.8177858595736,stimuli/133_xa.png,l,15.683601660653949,harmless,0.333,6.568965517,1.186356193,0.1557762
175,21,0,2,3,18,66,766.4052906152792,772.7937805382535,stimuli/165_xb.png,l,6.378354683984071,harmless,0.333,6.557377049,1.008705278,0.129151477
175,21,0,2,3,19,67,773.3655219920911,780.473801348824,stimuli/307_za.png,a,7.098802234977484,awful,0.333,2.93220339,2.172432347,0.282826601
175,21,0,2,3,20,68,781.084162183106,786.7298021870665,stimuli/371_zb.png,a,5.635333442129195,awful,0.333,3.131147541,2.085468851,0.267016925
175,21,0,2,3,21,69,787.3066242574714,797.129800690338,stimuli/284_ya.png,a,9.812431519851089,ambig,0.333,5.948275862,1.431750417,0.18799804
175,21,0,2,3,22,70,797.7040028958581,802.449833442457,stimuli/252_zb.png,a,4.735334544442594,awful,0.333,2.711864407,1.983125776,0.258180985
175,21,0,2,3,23,71,803.0172323482111,814.0177762499079,stimuli/210_yb.png,l,10.990500428713858,ambig,0.333,5.557377049,1.76564049,0.226067099
175,21,0,2,3,24,72,814.5787334064953,838.8338047675788,stimuli/101_xa.png,l,24.245157069992274,harmless,0.333,6.508522727,1.13475832,0.060482822
175,21,0,2,4,1,73,848.0747516211122,859.8098238641396,stimuli/125_xc.png,l,11.724421459250152,harmless,0.333,6.683333333,0.999858747,0.129081209
175,21,0,2,4,2,74,860.4006188116036,869.4097745548934,stimuli/297_za.png,a,8.998578215017915,awful,0.333,1.898305085,1.446695584,0.188343723
175,21,0,2,4,3,75,869.9789883038029,877.3617721823975,stimuli/268_zb.png,a,7.372891249135137,awful,0.333,2.655737705,2.048456703,0.262278005
175,21,0,2,4,4,76,877.9319933899678,886.7217874163762,stimuli/253_ya.png,l,8.779898246284574,ambig,0.333,5.491803279,1.849531029,0.236808182
175,21,0,2,4,5,77,887.3092397903092,890.9779320079833,stimuli/299_za.png,a,3.6588783571496606,awful,0.333,1.288135593,0.929420425,0.121000233
175,21,0,2,4,6,78,891.6127254869789,896.9618012481369,stimuli/162_xa.png,l,5.33915044227615,harmless,0.333,6.644067797,0.905209289,0.117848212
175,21,0,2,4,7,79,897.541573620867,941.6578972865827,stimuli/194_xb.png,l,44.10630421759561,harmless,0.333,6.586206897,1.026567825,0.134794959
175,21,0,2,4,8,80,942.2802999694832,948.0098181930371,stimuli/285_yb.png,a,5.719410947989672,ambig,0.333,4.120689655,2.119893958,0.278355714
175,21,0,2,4,9,81,948.5794884096831,954.1938125183806,stimuli/179_xb.png,l,5.604572081938386,harmless,0.333,6.704918033,0.882123617,0.112944356
175,21,0,2,4,10,82,954.7595738111995,959.4980614888482,stimuli/131_xb.png,l,4.728083441499621,harmless,0.333,6.525423729,1.119666394,0.145768149
175,21,0,2,4,11,83,960.0784553508274,965.185801292304,stimuli/353_zb.png,a,5.0974095948040485,awful,0.333,1.949152542,1.623361018,0.211343603
175,21,0,2,4,12,84,965.7479246272705,980.8818520386703,stimuli/180_xc.png,l,15.1238544001244,harmless,0.333,6.672131148,0.723908638,0.092687003
175,21,0,2,4,13,85,981.4600931368768,999.9939662758261,stimuli/245_yb.png,a,18.523710330482572,ambig,0.333,4.949152542,2.096168334,0.272897873
175,21,0,2,4,14,86,1000.5618689106777,1007.9298288109712,stimuli/192_za.png,a,7.357569448649883,awful,0.333,2.68852459,2.093967396,0.268105052
175,21,0,2,4,15,87,1008.5260950699449,1015.7618203102611,stimuli/201_yb.png,l,7.224899589084089,ambig,0.333,5.898305085,1.626238682,0.211718243
175,21,0,2,4,16,88,1016.3310612346977,1021.3458588253707,stimuli/349_za.png,a,5.004746634978801,awful,0.333,3.288135593,2.101320172,0.273568585
175,21,0,2,4,17,89,1021.9534926679917,1032.4498172947206,stimuli/327_zb.png,a,10.485920784529299,awful,0.333,2.502808989,1.906990248,0.101070281
175,21,0,2,4,18,90,1033.0253983559087,1048.353885017801,stimuli/123_xc.png,l,15.318687767721713,harmless,0.333,6.491525424,1.023396666,0.133234897
175,21,0,2,4,19,91,1048.934696356766,1059.6018427279778,stimuli/213_ya.png,l,10.65759717579931,ambig,0.333,5.98245614,1.597891781,0.211645937
175,21,0,2,4,20,92,1060.1769302994944,1066.5378364138305,stimuli/124_xa.png,a,6.3507433058694005,harmless,0.333,6.344262295,1.181598436,0.151288177
175,21,0,2,4,21,93,1067.1344610727392,1093.5858529647812,stimuli/286_ya.png,l,26.44100301619619,ambig,0.333,5.06779661,1.779814082,0.231712057
175,21,0,2,4,22,94,1094.1533924737014,1102.19384953985,stimuli/217_yb.png,a,8.030560104176402,ambig,0.333,5.169491525,2.001314588,0.260548967
175,21,0,2,4,23,95,1102.76224999642,1120.1058638980612,stimuli/235_ya.png,a,17.333867388777435,ambig,0.333,5.694915254,1.567495667,0.204070554
175,21,0,2,4,24,96,1120.6868382892571,1133.537879737094,stimuli/300_za.png,a,12.841078319586813,awful,0.333,3.75,2.12032137,0.273732312
175,21,0,2,5,1,97,1141.7946024951525,1174.481911430601,stimuli/316_za.png,a,32.67631826270372,awful,0.333,2.344827586,1.802062407,0.236622386
175,21,0,2,5,2,98,1175.0480799605139,1180.3699082578532,stimuli/166_xa.png,l,5.311863593757153,harmless,0.333,6.593220339,1.052397002,0.13701042
175,21,0,2,5,3,99,1180.9415563703515,1187.6499963374808,stimuli/350_ya.png,a,6.697498525027186,ambig,0.333,4.915254237,2.02814792,0.264042369
175,21,0,2,5,4,100,1188.2220682287589,1202.1778999492526,stimuli/282_xc.png,l,13.945629921741784,harmless,0.333,6.55,0.998728005,0.128935231
175,21,0,2,5,5,101,1202.7526941052638,1208.8018807736225,stimuli/310_zb.png,a,6.038662309292704,awful,0.333,3.224137931,2.102989547,0.276136056
175,21,0,2,5,6,102,1209.3741881847382,1216.2498816493899,stimuli/343_zb.png,a,6.865890237968415,awful,0.333,3.103448276,2.141401862,0.28117984
175,21,0,2,5,7,103,1216.8152683945373,1227.93785303412,stimuli/228_ya.png,a,11.112891689874232,ambig,0.333,5.442622951,1.793735303,0.229664272
175,21,0,2,5,8,104,1228.5133970738389,1234.921880993992,stimuli/338_zb.png,a,6.398020607419312,awful,0.333,3.310344828,2.137443107,0.28066003
175,21,0,2,5,9,105,1235.4831839478575,1243.617881721817,stimuli/251_ya.png,a,8.124135605990887,ambig,0.333,5.655172414,1.792300532,0.235340589
175,21,0,2,5,10,106,1244.1926207398064,1249.8018862875178,stimuli/306_zb.png,a,5.599249644204974,awful,0.333,2.352112676,1.917055413,0.101746737
175,21,0,2,5,11,107,1250.397499943152,1264.0498987422325,stimuli/239_ya.png,a,13.642000077292323,ambig,0.333,5.157894737,1.925296579,0.255011762
175,21,0,2,5,12,108,1264.6180179924704,1270.0258469469845,stimuli/312_yb.png,a,5.397191955242306,ambig,0.333,4.677966102,2.112692986,0.275049199
175,21,0,2,5,13,109,1270.6079118982889,1276.8338555735536,stimuli/147_ya.png,a,6.21505422051996,ambig,0.333,5.883333333,1.766847875,0.22809908
175,21,0,2,5,14,110,1277.4314282205887,1283.0098930238746,stimuli/117_xc.png,l,5.568853379692882,harmless,0.333,6.627118644,0.868972939,0.113130641
175,21,0,2,5,15,111,1283.5879336544313,1287.1938475705683,stimuli/320_za.png,a,3.5961717357859015,awful,0.333,1.423728814,1.117314975,0.14546202
175,21,0,2,5,16,112,1287.7834058408625,1307.8179363091476,stimuli/189_yb.png,l,20.025019869673997,ambig,0.333,5.983333333,1.455459234,0.187898979
175,21,0,2,5,17,113,1308.3935988959856,1314.8178925919347,stimuli/146_xa.png,l,6.4132348876446486,harmless,0.333,6.442622951,1.162247681,0.148810567
175,21,0,2,5,18,114,1315.3846440142952,1321.0338951945305,stimuli/185_xa.png,l,5.638517295010388,harmless,0.333,6.5,0.965506805,0.124646393
175,21,0,2,5,19,115,1321.6244109044783,1327.8181119645014,stimuli/295_za.png,a,6.183119199238718,awful,0.333,2.3,1.825432384,0.235662307
175,21,0,2,5,20,116,1328.3805287149735,1335.1699107782915,stimuli/348_za.png,l,6.779167267493904,awful,0.333,3.084745763,2.119597681,0.275948114
175,21,0,2,5,21,117,1335.7525558653288,1344.1619097921066,stimuli/161_xc.png,l,8.398428238462657,harmless,0.333,6.796610169,0.609682252,0.079373868
175,21,0,2,5,22,118,1344.7381922933273,1350.9538758802228,stimuli/153_xb.png,l,6.205901627894491,harmless,0.333,6.633333333,0.973664521,0.125699549
175,21,0,2,5,23,119,1351.5412979284301,1359.1059229751118,stimuli/127_xb.png,l,7.554817487951368,harmless,0.333,6.423728814,1.162686987,0.151368953
175,21,0,2,5,24,120,1359.6913564931601,1376.9779327958822,stimuli/296_yb.png,a,17.27674353774637,ambig,0.333,4.229508197,2.052587332,0.262806878
175,21,0,2,6,1,121,1385.5700049861334,1401.6579189482145,stimuli/109_xb.png,l,16.077263178303838,harmless,0.333,6.644067797,0.97843492,0.127381377
175,21,0,2,6,2,122,1402.2212856560946,1414.9459213679656,stimuli/204_xb.png,l,12.714562306646258,harmless,0.333,6.508474576,0.858484658,0.111765183
175,21,0,2,6,3,123,1415.5202212473378,1421.9939229530282,stimuli/156_xc.png,l,6.463458159007132,harmless,0.333,6.590163934,0.955284411,0.122311635
175,21,0,2,6,4,124,1422.5769618861377,1432.913913091179,stimuli/333_za.png,a,10.32680690754205,awful,0.333,3.266666667,2.185209657,0.282109354
175,21,0,2,6,5,125,1433.4954459560104,1441.1939243706875,stimuli/358_za.png,a,7.688601932488382,awful,0.333,3.949152542,2.112554662,0.275031191
175,21,0,2,6,6,126,1441.7843443760648,1453.6980573930778,stimuli/257_yb.png,l,11.904092140961438,ambig,0.333,5.620689655,1.843219782,0.242026615
175,21,0,2,6,7,127,1454.2822861359455,1463.417913387064,stimuli/212_ya.png,l,9.126080418471247,ambig,0.333,5.677966102,1.490668422,0.194068498
175,21,0,2,6,8,128,1463.989800564479,1469.5459311353043,stimuli/113_xb.png,l,5.5458330675028265,harmless,0.333,6.733333333,0.660422737,0.085260209
175,21,0,2,6,9,129,1470.142412434332,1482.0579343871213,stimuli/219_ya.png,l,11.905102356802672,ambig,0.333,5.271186441,1.998538332,0.260187529
175,21,0,2,6,10,130,1482.6544310459867,1490.0579863744788,stimuli/271_ya.png,l,7.3931648773141205,ambig,0.333,5.711864407,1.771915459,0.230683744
175,21,0,2,6,11,131,1490.6670128577389,1495.7138856793754,stimuli/119_xc.png,l,5.036748216487467,harmless,0.333,6.694915254,0.914523379,0.119060803
175,21,0,2,6,12,132,1496.3099613166414,1500.6259492682293,stimuli/144_xa.png,l,4.306150460615754,harmless,0.333,6.542372881,1.00553698,0.130909764
175,21,0,2,6,13,133,1501.2029068218544,1534.97797926981,stimuli/269_za.png,a,33.765134525951,awful,0.333,3.457627119,2.119873401,0.27598401
175,21,0,2,6,14,134,1535.537691084668,1541.8179323705845,stimuli/225_ya.png,l,6.270331720821559,ambig,0.333,5.85,1.792876677,0.231459384
175,21,0,2,6,15,135,1542.4030011873692,1548.9779414604418,stimuli/317_za.png,a,6.564878289587796,awful,0.333,3.65,2.03215674,0.262350307
175,21,0,2,6,16,136,1549.5427421624772,1556.4739230475388,stimuli/277_yb.png,l,6.920166581403464,ambig,0.333,5.491525424,2.02886822,0.264136144
175,21,0,2,6,17,137,1557.0518699428067,1567.4259549393319,stimuli/218_yb.png,a,10.36391785601154,ambig,0.333,5.850282486,1.552723069,0.0825263
175,21,0,2,6,18,138,1567.9948354945518,1574.6259567509405,stimuli/229_za.png,a,6.620436208322644,awful,0.333,3.406779661,2.043649913,0.266060557
175,21,0,2,6,19,139,1575.2464122581296,1581.6979983160272,stimuli/155_xb.png,l,6.44109675148502,harmless,0.333,6.655737705,0.892286312,0.114245555
175,21,0,2,6,20,140,1582.2687090747058,1590.5859277956188,stimuli/367_zb.png,a,8.307331605348736,awful,0.333,3.413793103,2.086165649,0.27392697
175,21,0,2,6,21,141,1591.1582592315972,1598.4899384104647,stimuli/272_xb.png,l,7.321868863422424,harmless,0.333,6.355932203,1.029943284,0.134087194
175,21,0,2,6,22,142,1599.0835678689182,1607.9859759234823,stimuli/359_za.png,a,8.892017996869981,awful,0.333,2.01754386,1.641985167,0.217486248
175,21,0,2,6,23,143,1608.5539451185614,1613.7379563795403,stimuli/324_za.png,a,5.174022926948965,awful,0.333,2.491525424,1.994586478,0.259673041
175,21,0,2,6,24,144,1614.343147194013,1666.0340137421153,stimuli/246_ya.png,l,51.680901057086885,ambig,0.333,5.542372881,1.715266481,0.223308675
175,21,0,2,7,1,145,1675.4655136428773,1693.5699880509637,stimuli/341_zb.png,l,18.09487440623343,awful,0.333,3.603448276,2.15975677,0.283589957
175,21,0,2,7,2,146,1694.1338805435225,1699.8260077936575,stimuli/107_xa.png,l,5.681812417227775,harmless,0.333,6.813559322,0.540580029,0.070377525
175,21,0,2,7,3,147,1700.399192694109,1705.2339533264749,stimuli/364_za.png,a,4.824880212079734,awful,0.333,1.677966102,1.279017376,0.166513879
175,21,0,2,7,4,148,1705.8027334506623,1714.2019954617135,stimuli/266_zb.png,a,8.389302821364254,awful,0.333,3.491525424,1.888010094,0.245797978
175,21,0,2,7,5,149,1714.7750003742985,1730.6660778666846,stimuli/103_xb.png,l,15.881328616756946,harmless,0.333,6.779661017,0.589207434,0.076708274
175,21,0,2,7,6,150,1731.233276304789,1737.1139877643436,stimuli/291_za.png,a,5.870433254633099,awful,0.333,2.593220339,1.830005126,0.238246374
175,21,0,2,7,7,151,1737.6863845782354,1748.041963528376,stimuli/287_ya.png,l,10.345041200052947,ambig,0.333,5.950819672,1.407435369,0.180203633
175,21,0,2,7,8,152,1748.6055102241226,1762.4899565274827,stimuli/276_ya.png,a,13.874396529048681,ambig,0.333,5.186440678,1.804922162,0.234980851
175,21,0,2,7,9,153,1763.0617972309701,1768.2500021662563,stimuli/174_xc.png,l,5.178176428657025,harmless,0.333,6.533333333,1.111826512,0.143536185
175,21,0,2,7,10,154,1768.8279329137877,1775.2180123999715,stimuli/314_zb.png,a,6.37932748394087,awful,0.333,1.833333333,1.451669602,0.18740974
175,21,0,2,7,11,155,1775.7838973607868,1802.250069513917,stimuli/176_xb.png,l,26.455805332865566,harmless,0.333,6.796610169,0.517942249,0.067430337
175,21,0,2,7,12,156,1802.8147020437755,1807.209984632209,stimuli/148_xc.png,l,4.384883866645396,harmless,0.333,6.491525424,1.135218061,0.147792803
175,21,0,2,7,13,157,1807.7831718958914,1814.9379991511814,stimuli/289_yb.png,a,7.145031905733049,ambig,0.333,5.305084746,1.714584873,0.223219937
175,21,0,2,7,14,158,1815.5035087764263,1825.1300003705546,stimuli/347_zb.png,a,9.616738779935986,awful,0.333,3.796610169,2.147810923,0.279621165
175,21,0,2,7,15,159,1825.6930531826802,1831.6579705420882,stimuli/220_yb.png,a,5.955029455944896,ambig,0.333,4.75,2.096203186,0.270618668
175,21,0,2,7,16,160,1832.228235072922,1849.0499605759978,stimuli/234_xb.png,l,16.811105045489967,harmless,0.333,6.637931034,0.788030542,0.103473479
175,21,0,2,7,17,161,1849.6124281329103,1856.970005852636,stimuli/354_zb.png,a,7.348125409800559,awful,0.333,2,1.701925887,0.221571878
175,21,0,2,7,18,162,1857.5785041879863,1864.6260016495362,stimuli/262_ya.png,a,7.036781693343073,ambig,0.333,5.491525424,1.7750462,0.231091332
175,21,0,2,7,19,163,1865.2086400412954,1867.7140014702454,stimuli/298_za.png,a,2.4945944608189166,awful,0.333,2.881355932,2.026418156,0.263817173
175,21,0,2,7,20,164,1868.2900464818813,1880.3620155793615,stimuli/122_xa.png,l,12.062042203266174,harmless,0.333,6.457627119,1.039264227,0.135300678
175,21,0,2,7,21,165,1880.968474578578,1887.354007503949,stimuli/142_xa.png,l,6.375609969720244,harmless,0.333,6.4,1.076718178,0.139003719
175,21,0,2,7,22,166,1887.9171666544862,1892.8420105539262,stimuli/232_yb.png,l,4.915188759099692,ambig,0.333,5.483333333,1.845669845,0.238274952
175,21,0,2,7,23,167,1893.4185443287715,1900.2980380156077,stimuli/325_yb.png,l,6.869387198705226,ambig,0.333,5.131147541,1.811770863,0.231973488
175,21,0,2,7,24,168,1900.8766839881428,1918.1860494152643,stimuli/250_yb.png,l,17.29936645878479,ambig,0.333,5.950819672,1.585625318,0.203018519
175,21,0,2,8,1,169,1937.6769590503536,1944.8740062275901,stimuli/305_zb.png,a,7.1863180180080235,awful,0.333,2.75,2.12830003,0.274762352
175,21,0,2,8,2,170,1945.4452797924168,1954.105996624101,stimuli/330_ya.png,a,8.650439414195716,ambig,0.333,4.796610169,2.049219036,0.266785595
175,21,0,2,8,3,171,1954.6678832578473,1959.0180042870343,stimuli/315_yb.png,a,4.340509605593979,ambig,0.333,5.050847458,1.915667965,0.249398726
175,21,0,2,8,4,172,1959.5860183802433,1984.0981039456092,stimuli/181_xa.png,l,24.50143320625648,harmless,0.333,6.666666667,0.950765377,0.122743282
175,21,0,2,8,5,173,1984.6768657090142,1991.3620462990366,stimuli/279_ya.png,l,6.675120969768614,ambig,0.333,5.31147541,1.970964092,0.252356093
175,21,0,2,8,6,174,1991.9433625489473,1998.8182230289094,stimuli/244_xb.png,l,6.86382136400789,harmless,0.333,6.610169492,0.743174671,0.096753101
175,21,0,2,8,7,175,1999.3921743542887,2017.4261038135737,stimuli/319_ya.png,l,18.023034097161144,ambig,0.333,4.216666667,2.108028774,0.272145344
175,21,0,2,8,8,176,2017.9811150734313,2023.8980166693218,stimuli/274_xb.png,l,5.9067474524490535,harmless,0.333,6.491525424,1.179901828,0.153610134
175,21,0,2,8,9,177,2024.4705245480873,2030.2580299340189,stimuli/265_yb.png,l,5.776735660620034,ambig,0.333,5.627118644,1.856008928,0.241631781
175,21,0,2,8,10,178,2030.835423475597,2039.058040725533,stimuli/344_za.png,a,8.212031057104468,awful,0.333,2.711864407,2.043077863,0.265986082
175,21,0,2,8,11,179,2039.6345154237933,2050.3540811529383,stimuli/308_zb.png,a,10.709159918129444,awful,0.333,1.644067797,1.471132708,0.191525165
175,21,0,2,8,12,180,2050.957655622624,2051.7300479472615,stimuli/351_zb.png,a,0.7618313380517066,awful,0.333,3.06779661,2.033040926,0.264679384
175,21,0,2,8,13,181,2052.341108645778,2064.6101276772097,stimuli/368_za.png,a,12.25940485112369,awful,0.333,3.590163934,2.02794682,0.259651984
175,21,0,2,8,14,182,2065.1810467806645,2079.4020378394052,stimuli/208_xb.png,l,14.211226823274046,harmless,0.333,6.216666667,1.165778516,0.150501359
175,21,0,2,8,15,183,2079.9784109252505,2085.4660634519532,stimuli/290_zb.png,a,5.477195515297353,awful,0.333,2.586206897,2.026443456,0.266085062
175,21,0,2,8,16,184,2086.04772904329,2092.138222304173,stimuli/352_zb.png,a,6.080513984896243,awful,0.333,2.93442623,2.135952968,0.273480754
175,21,0,2,8,17,185,2092.7202128190547,2100.0900513655506,stimuli/108_xb.png,l,7.358669461216778,harmless,0.333,6.568965517,1.077880782,0.141532681
175,21,0,2,8,18,186,2100.65853689285,2106.3941030194983,stimuli/160_xb.png,l,5.725430887658149,harmless,0.333,6.666666667,0.680644427,0.087870818
175,21,0,2,8,19,187,2106.9738627891056,2109.8580538798124,stimuli/249_ya.png,l,2.873604504391551,ambig,0.333,5.327868852,1.859402337,0.238072074
175,21,0,2,8,20,188,2110.440865957644,2114.6900493176654,stimuli/254_ya.png,l,4.238885462284088,ambig,0.333,5.983606557,1.627798137,0.208418195
175,21,0,2,8,21,189,2115.2754233651794,2123.1940693059005,stimuli/309_ya.png,l,7.9081857786513865,ambig,0.333,4.706896552,1.946734744,0.255618795
175,21,0,2,8,22,190,2123.765430698637,2131.5060337246396,stimuli/186_xa.png,l,7.730318519286811,harmless,0.333,6.65,0.879618561,0.113558268
175,21,0,2,8,23,191,2132.078367917333,2144.626087114215,stimuli/248_zb.png,a,12.537473287433386,awful,0.333,3.288135593,1.991800844,0.259310383
175,21,0,2,8,24,192,2145.2917809807695,2160.9460745742545,stimuli/150_xc.png,l,15.64363375119865,harmless,0.333,6.482758621,1.030097582,0.135258439
175,21,0,2,9,1,193,2169.4733117981814,2172.6260709664784,stimuli/331_za.png,a,3.142794464714825,awful,0.333,1.983606557,1.638004917,0.209725039
175,21,0,2,9,2,194,2173.198990020901,2178.1940756076947,stimuli/130_xc.png,l,4.985278815496713,harmless,0.333,6.644067797,0.960651931,0.125066229
175,21,0,2,9,3,195,2178.7938195290044,2187.0740950792097,stimuli/198_yb.png,a,8.269635400734842,ambig,0.333,5.101694915,1.83542643,0.238952168
175,21,0,2,9,4,196,2187.6821357654408,2192.698077872861,stimuli/205_yb.png,l,5.0048194960691035,ambig,0.333,5.847457627,1.52918233,0.199082582
175,21,0,2,9,5,197,2193.2692218623124,2201.794097978156,stimuli/242_xb.png,l,8.51500672288239,harmless,0.333,6.576271186,0.913564256,0.118935936
175,21,0,2,9,6,198,2202.3670386942104,2209.5461221509613,stimuli/182_xb.png,l,7.168976575136185,harmless,0.333,6.542372881,0.988241802,0.128658124
175,21,0,2,9,7,199,2210.1215949039906,2233.9380779201165,stimuli/152_xa.png,l,23.80664355540648,harmless,0.333,6.576271186,0.968528743,0.126091702
175,21,0,2,9,8,200,2234.503140924033,2244.498076455202,stimuli/340_za.png,a,9.984465523157269,awful,0.333,2.508474576,1.832398855,0.238558011
175,21,0,2,9,9,201,2245.0860175923444,2250.78613440739,stimuli/267_ya.png,l,5.6903061051853,ambig,0.333,5.103448276,1.898195405,0.249245267
175,21,0,2,9,10,202,2251.349033619743,2254.002084628213,stimuli/209_ya.png,l,2.642934280447662,ambig,0.333,5.603448276,1.825161903,0.239655499
175,21,0,2,9,11,203,2254.565568308346,2262.3060902021825,stimuli/372_zb.png,a,7.730440611485392,awful,0.333,2.796610169,2.082601664,0.271131643
175,21,0,2,9,12,204,2262.871164627373,2269.9140997738577,stimuli/334_za.png,a,7.0328152677975595,awful,0.333,3.333333333,2.214487481,0.285889104
175,21,0,2,9,13,205,2270.4671902460977,2277.098114185501,stimuli/105_xa.png,l,6.620588232763112,harmless,0.333,6.557377049,1.088187946,0.139328189
175,21,0,2,9,14,206,2277.6661912943237,2313.770145038143,stimuli/138_xc.png,l,36.09435846796259,harmless,0.333,6.661016949,0.70978796,0.092406522
175,21,0,2,9,15,207,2314.3408353165723,2320.3700917898677,stimuli/231_xb.png,l,6.018740385305136,harmless,0.333,6.62295082,1.05141071,0.134619347
175,21,0,2,9,16,208,2320.9830764275976,2327.0500799114816,stimuli/339_ya.png,a,6.056354669388384,ambig,0.333,4.949152542,1.960152429,0.25519011
175,21,0,2,9,17,209,2327.718974566553,2334.5941359447315,stimuli/293_zb.png,a,6.865445191971958,awful,0.333,3.677966102,2.169066842,0.28238845
175,21,0,2,9,18,210,2335.1729729329236,2343.7380934380926,stimuli/223_yb.png,a,8.554988811258227,ambig,0.333,5.542372881,1.77455224,0.231027024
175,21,0,2,9,19,211,2344.3154609855264,2348.802126533352,stimuli/263_ya.png,l,4.4774318230338395,ambig,0.333,4.983050847,2.071910042,0.269739712
175,21,0,2,9,20,212,2349.380935558118,2388.9541689017788,stimuli/361_za.png,a,39.562718043103814,awful,0.333,2.416666667,1.907093508,0.246204713
175,21,0,2,9,21,213,2389.5212188595906,2392.570092814043,stimuli/322_za.png,a,3.0381656689569354,awful,0.333,2.406779661,1.975004531,0.257123689
175,21,0,2,9,22,214,2393.154272719752,2395.1140897702426,stimuli/199_za.png,a,1.9497215901501477,awful,0.333,3.033898305,2.189048775,0.284989876
175,21,0,2,9,23,215,2395.679702977184,2399.626102868002,stimuli/178_xa.png,l,3.9355663624592125,harmless,0.333,6.483333333,1.112207557,0.143585378
175,21,0,2,9,24,216,2400.190036320593,2406.8901535291225,stimuli/222_ya.png,a,6.689660591073334,ambig,0.333,5.931034483,1.543089507,0.202617579
175,21,0,2,10,1,217,2415.7003070428036,2421.2662073634565,stimuli/369_za.png,a,5.555092392489314,awful,0.333,2.948275862,2.055565093,0.26990892
175,21,0,2,10,2,218,2421.8244568272494,2431.298153806478,stimuli/303_zb.png,a,9.463069432415068,awful,0.333,3.620689655,2.158846233,0.283470398
175,21,0,2,10,3,219,2431.8645763671957,2433.5862003373913,stimuli/313_zb.png,a,1.7117081033065915,awful,0.333,2.101694915,1.688652955,0.219843889
175,21,0,2,10,4,220,2434.156282911077,2439.2581079155207,stimuli/283_yb.png,a,5.091627537738532,ambig,0.333,5.949152542,1.478859402,0.192531095
175,21,0,2,10,5,221,2439.8205770477653,2446.634075497277,stimuli/273_ya.png,l,6.802727542817593,ambig,0.333,5.551724138,1.836973233,0.241206403
175,21,0,2,10,6,222,2447.210060644429,2451.3621175852604,stimuli/143_xb.png,l,4.142091843299568,harmless,0.333,6.655172414,0.738697862,0.096995781
175,21,0,2,10,7,223,2451.925925794989,2455.46617530426,stimuli/323_yb.png,l,3.5295920302160084,ambig,0.333,4.603448276,1.955107169,0.256718148
175,21,0,2,10,8,224,2456.045885843225,2464.8900897260755,stimuli/137_xa.png,l,8.833565308712423,harmless,0.333,6.355932203,1.094858074,0.14253838
175,21,0,2,10,9,225,2465.477974543348,2469.4101238963194,stimuli/230_yb.png,a,3.921921560075134,ambig,0.333,4.98245614,1.875511626,0.248417583
175,21,0,2,10,10,226,2469.9779733619653,2478.5221286443993,stimuli/233_yb.png,a,8.53396451100707,ambig,0.333,5.318309859,1.922973646,0.102060844
175,21,0,2,10,11,227,2479.09713823488,2481.5221235244535,stimuli/191_ya.png,a,2.4144404507242143,ambig,0.333,5.517241379,2.062542966,0.270825159
175,21,0,2,10,12,228,2482.0931194275618,2493.1141295488924,stimuli/360_za.png,a,11.011026906780899,awful,0.333,3.2,2.207844259,0.285031468
175,21,0,2,10,13,229,2493.6888973172754,2508.1541687445715,stimuli/302_za.png,a,14.455419757403433,awful,0.333,3.137931034,2.188071937,0.287307921
175,21,0,2,10,14,230,2508.737328588497,2512.530128055252,stimuli/356_za.png,a,3.7826177538372576,awful,0.333,3.033333333,2.178217796,0.281206708
175,21,0,2,10,15,231,2513.127922831569,2519.0580962579697,stimuli/197_xa.png,l,5.919482470490038,harmless,0.333,6.779661017,0.55918033,0.072799078
175,21,0,2,10,16,232,2519.6333039524034,2526.314104184974,stimuli/258_ya.png,l,6.670219947118312,ambig,0.333,5.627118644,1.78014243,0.231754804
175,21,0,2,10,17,233,2526.904011402745,2539.7861076258123,stimuli/226_yb.png,a,12.872523396275938,ambig,0.333,5.683333333,1.712285287,0.22105508
175,21,0,2,10,18,234,2540.3544379775412,2544.930151764769,stimuli/136_xc.png,l,4.564977932721376,harmless,0.333,6.559322034,1.038420326,0.135190811
175,21,0,2,10,19,235,2545.5188136408105,2548.810121218208,stimuli/112_xc.png,l,3.2811565846204758,harmless,0.333,6.706896552,0.749470472,0.098410294
175,21,0,2,10,20,236,2549.3696506824344,2561.6101749390364,stimuli/141_xc.png,l,12.230506777763367,harmless,0.333,6.508474576,1.040107444,0.135410455
175,21,0,2,10,21,237,2562.190374240745,2566.250114806462,stimuli/184_xb.png,l,4.049607689958066,harmless,0.333,6.508474576,1.194425,0.15550089
175,21,0,2,10,22,238,2566.831443265546,2577.6341570233926,stimuli/365_zb.png,a,10.79229101119563,awful,0.333,2.966101695,2.165291266,0.281896912
175,21,0,2,10,23,239,2578.248953747563,2588.0421344577335,stimuli/135_xa.png,l,9.783265631180257,harmless,0.333,6.508474576,1.179901828,0.153610134
175,21,0,2,10,24,240,2588.6145592350513,2595.3781447638758,stimuli/311_za.png,a,6.75314151449129,awful,0.333,3.116666667,1.975199339,0.254997138
