id,age,condition,counterbalance,block,trialinblock,trial,tstart,tend,trialstim,response,RT,trialtype,ethicfreq,norm_mean,norm_sd,norm_se
052,71,1,1,0,0,practice,8.664600318297744e-05,33.319685931899585,stimuli/prac_217_1.png,a,33.26866837305715,harmless,NA,NA,NA,NA
052,71,1,1,1,1,1,4.908237553376239,24.99969004362356,stimuli/315_yb.png,l,20.07972810487263,ambig,0.333,5.050847458,1.915667965,0.249398726
052,71,1,1,1,2,2,25.691239734878764,43.51163478550734,stimuli/151_xa.png,l,17.808154333848506,harmless,0.333,6.610169492,0.947172729,0.123311386
052,71,1,1,1,3,3,44.1614195292932,53.14365670538973,stimuli/122_xa.png,a,8.970396606309805,harmless,0.333,6.457627119,1.039264227,0.135300678
052,71,1,1,1,4,4,53.785341229639016,64.74363890354289,stimuli/270_yb.png,l,10.946010483370628,ambig,0.333,5.534482759,1.912246013,0.251090203
052,71,1,1,1,5,5,65.39840342925163,73.4876287234365,stimuli/334_za.png,a,8.077431985817384,awful,0.333,3.333333333,2.214487481,0.285889104
052,71,1,1,1,6,6,74.09384549519746,91.14359644701472,stimuli/345_zb.png,a,17.038000966480467,awful,0.333,3.694915254,2.191317013,0.285285176
052,71,1,1,1,7,7,91.77147944498574,102.13550410442986,stimuli/313_zb.png,a,10.352145886630751,awful,0.333,2.101694915,1.688652955,0.219843889
052,71,1,1,1,8,8,102.76730153238168,109.39953022112604,stimuli/316_za.png,a,6.619631148001645,awful,0.333,2.344827586,1.802062407,0.236622386
052,71,1,1,1,9,9,110.0188766188221,115.17551683355123,stimuli/183_xb.png,l,5.144885897112545,harmless,0.333,6.448275862,1.095003225,0.143780967
052,71,1,1,1,10,10,115.77082172309747,121.8635045865085,stimuli/323_yb.png,l,6.079258641053457,ambig,0.333,4.603448276,1.955107169,0.256718148
052,71,1,1,1,11,11,122.48716319812229,127.27952826762339,stimuli/346_zb.png,a,4.780418161477428,awful,0.333,1.288135593,0.983499162,0.128040685
052,71,1,1,1,12,12,127.90158432209864,133.37548910680925,stimuli/104_xc.png,l,5.461997655045707,harmless,0.333,6.745762712,0.756425814,0.098478253
052,71,1,1,1,13,13,134.02741518832045,142.5834729843191,stimuli/262_ya.png,l,8.544054568046704,ambig,0.333,5.491525424,1.7750462,0.231091332
052,71,1,1,1,14,14,143.18907220644178,149.31944607995683,stimuli/278_xb.png,l,6.118664060428273,harmless,0.333,6.360655738,1.140654591,0.146045855
052,71,1,1,1,15,15,149.92765334667638,157.31140493729617,stimuli/351_zb.png,a,7.372466736764181,awful,0.333,3.06779661,2.033040926,0.264679384
052,71,1,1,1,16,16,157.93124324799282,164.95944888412487,stimuli/218_yb.png,l,7.016591921332292,ambig,0.333,5.850282486,1.552723069,0.0825263
052,71,1,1,1,17,17,165.5875914262724,174.79942041699542,stimuli/188_xa.png,l,9.199894291872624,harmless,0.333,6.655172414,0.806807095,0.105938962
052,71,1,1,1,18,18,175.38090881414246,182.5833662522491,stimuli/294_za.png,a,7.190789766493253,awful,0.333,1.557377049,1.38473331,0.177296933
052,71,1,1,1,19,19,183.19251087110024,205.95937208429677,stimuli/335_yb.png,l,22.754858772910666,ambig,0.333,5.016949153,2.046793332,0.266469795
052,71,1,1,1,20,20,206.54726795310853,212.09534959099256,stimuli/198_yb.png,l,5.536358434008434,ambig,0.333,5.101694915,1.83542643,0.238952168
052,71,1,1,1,21,21,212.65884870308219,217.94336187269073,stimuli/282_xc.png,l,5.272465043293778,harmless,0.333,6.55,0.998728005,0.128935231
052,71,1,1,1,22,22,218.56971044873353,225.28731222922215,stimuli/339_ya.png,a,6.7059482872718945,ambig,0.333,4.949152542,1.960152429,0.25519011
052,71,1,1,1,23,23,225.8578233657754,233.0154674925725,stimuli/293_zb.png,l,7.145892172236927,awful,0.333,3.677966102,2.169066842,0.28238845
052,71,1,1,1,24,24,233.63227791938698,241.67129067488713,stimuli/136_xc.png,l,8.027229687140789,harmless,0.333,6.559322034,1.038420326,0.135190811
052,71,1,1,2,1,25,251.87947068741778,260.535267088213,stimuli/118_xb.png,l,8.643953861785121,harmless,0.333,6.474576271,0.953323265,0.124112118
052,71,1,1,2,2,26,261.129348693823,272.2712185223936,stimuli/371_zb.png,l,11.129800828464795,awful,0.333,3.131147541,2.085468851,0.267016925
052,71,1,1,2,3,27,272.8880939336959,279.223247358168,stimuli/142_xa.png,l,6.323126565781422,harmless,0.333,6.4,1.076718178,0.139003719
052,71,1,1,2,4,28,279.8388419840485,286.79128790216055,stimuli/286_ya.png,l,6.940526973048691,ambig,0.333,5.06779661,1.779814082,0.231712057
052,71,1,1,2,5,29,287.36954519117717,295.09516487747896,stimuli/361_za.png,a,7.713421110995114,awful,0.333,2.416666667,1.907093508,0.246204713
052,71,1,1,2,6,30,295.75619233358884,301.7671479326673,stimuli/172_xb.png,l,5.999142598418985,harmless,0.333,6.482758621,1.127664553,0.14806961
052,71,1,1,2,7,31,302.39045444643125,309.7671569911181,stimuli/336_ya.png,l,7.364212917571422,ambig,0.333,5.033898305,1.884291705,0.245313885
052,71,1,1,2,8,32,310.43366165598854,316.4231558284955,stimuli/265_yb.png,l,5.977853282354772,ambig,0.333,5.627118644,1.856008928,0.241631781
052,71,1,1,2,9,33,317.02637071016943,325.5831260064733,stimuli/305_zb.png,a,8.545070295454934,awful,0.333,2.75,2.12830003,0.274762352
052,71,1,1,2,10,34,326.153875419579,331.63910247344756,stimuli/219_ya.png,l,5.473351825668942,ambig,0.333,5.271186441,1.998538332,0.260187529
052,71,1,1,2,11,35,332.26563458150486,340.26308837061515,stimuli/233_yb.png,l,7.985613219323568,ambig,0.333,5.318309859,1.922973646,0.102060844
052,71,1,1,2,12,36,340.8808916818234,347.52710897347424,stimuli/272_xb.png,l,6.633142804028466,harmless,0.333,6.355932203,1.029943284,0.134087194
052,71,1,1,2,13,37,348.11615526489913,355.1110557538923,stimuli/310_zb.png,l,6.982989420881495,awful,0.333,3.224137931,2.102989547,0.276136056
052,71,1,1,2,14,38,355.667354583391,360.2070295899757,stimuli/153_xb.png,l,4.527546141936909,harmless,0.333,6.633333333,0.973664521,0.125699549
052,71,1,1,2,15,39,360.76555010164157,365.65510559582617,stimuli/207_yb.png,l,4.877387244952843,ambig,0.333,5.655737705,1.662179753,0.212820309
052,71,1,1,2,16,40,366.27620657504303,372.44704413076397,stimuli/248_zb.png,l,6.159006044385023,awful,0.333,3.288135593,1.991800844,0.259310383
052,71,1,1,2,17,41,373.069730337942,382.27102317503886,stimuli/214_xb.png,l,9.189462113485206,harmless,0.333,6.465517241,0.940614156,0.12350869
052,71,1,1,2,18,42,382.9065282641095,390.6870637914981,stimuli/237_ya.png,l,7.768795782059897,ambig,0.333,4.305084746,2.019339575,0.26289562
052,71,1,1,2,19,43,391.3041408517165,398.01499369647354,stimuli/309_ya.png,l,6.699031967262272,ambig,0.333,4.706896552,1.946734744,0.255618795
052,71,1,1,2,20,44,398.64831294328906,402.17499616980786,stimuli/137_xa.png,l,3.514574447995983,harmless,0.333,6.355932203,1.094858074,0.14253838
052,71,1,1,2,21,45,402.773842517694,408.3189982777112,stimuli/360_za.png,l,5.533293134882115,awful,0.333,3.2,2.207844259,0.285031468
052,71,1,1,2,22,46,408.8961098702275,414.67896278435364,stimuli/175_xb.png,l,5.77118878706824,harmless,0.333,6.6,1.028409995,0.13276716
052,71,1,1,2,23,47,415.3140752094914,421.27893316716654,stimuli/337_zb.png,l,5.952814557473175,awful,0.333,3.033333333,2.20143764,0.284204377
052,71,1,1,2,24,48,421.84577563329367,424.3349655601778,stimuli/365_zb.png,a,2.477192212769296,awful,0.333,2.966101695,2.165291266,0.281896912
052,71,1,1,3,1,49,434.28760721947765,456.1588945860858,stimuli/322_za.png,l,21.859363301598933,awful,0.333,2.406779661,1.975004531,0.257123689
052,71,1,1,3,2,50,456.80647694604704,461.71890147047816,stimuli/161_xc.png,l,4.900619794614613,harmless,0.333,6.796610169,0.609682252,0.079373868
052,71,1,1,3,3,51,462.2893401394831,481.5508956636186,stimuli/268_zb.png,a,19.24991108936956,awful,0.333,2.655737705,2.048456703,0.262278005
052,71,1,1,3,4,52,482.1149079563329,487.1028385623358,stimuli/283_yb.png,l,4.975899808865506,ambig,0.333,5.949152542,1.478859402,0.192531095
052,71,1,1,3,5,53,487.67436148785055,494.8068652776419,stimuli/250_yb.png,l,7.120807367435191,ambig,0.333,5.950819672,1.585625318,0.203018519
052,71,1,1,3,6,54,495.37101699167397,513.870817508956,stimuli/358_za.png,l,18.487931984476745,awful,0.333,3.949152542,2.112554662,0.275031191
052,71,1,1,3,7,55,514.51027011103,520.5348003813997,stimuli/228_ya.png,l,6.012890561774839,ambig,0.333,5.442622951,1.793735303,0.229664272
052,71,1,1,3,8,56,521.1530054149334,526.9107601335272,stimuli/223_yb.png,l,5.746012610150501,ambig,0.333,5.542372881,1.77455224,0.231027024
052,71,1,1,3,9,57,527.5612880636472,533.214745810139,stimuli/247_ya.png,a,5.641786136373412,ambig,0.333,4.65,2.081598147,0.268733165
052,71,1,1,3,10,58,533.8214115657029,538.3587739118375,stimuli/289_yb.png,l,4.525502477888949,ambig,0.333,5.305084746,1.714584873,0.223219937
052,71,1,1,3,11,59,539.0162575465511,544.0307561793015,stimuli/133_xa.png,l,5.002785668883007,harmless,0.333,6.568965517,1.186356193,0.1557762
052,71,1,1,3,12,60,544.6046350883553,549.1107072007144,stimuli/368_za.png,l,4.4942788039916195,awful,0.333,3.590163934,2.02794682,0.259651984
052,71,1,1,3,13,61,549.7066946244449,556.5426997396862,stimuli/325_yb.png,l,6.8241917208069935,ambig,0.333,5.131147541,1.811770863,0.231973488
052,71,1,1,3,14,62,557.1228333084146,564.0866897170781,stimuli/326_zb.png,l,6.952140294015408,awful,0.333,3.389830508,2.220724867,0.289113752
052,71,1,1,3,15,63,564.7074114231509,569.2307075787685,stimuli/128_xc.png,l,4.511173986305948,harmless,0.333,6.627118644,0.98082135,0.127692063
052,71,1,1,3,16,64,569.8251712144702,575.6546688212547,stimuli/200_ya.png,l,5.817988261056598,ambig,0.333,5.862068966,1.444266048,0.189641423
052,71,1,1,3,17,65,576.284283951507,580.3906966613722,stimuli/135_xa.png,l,4.094821050413884,harmless,0.333,6.508474576,1.179901828,0.153610134
052,71,1,1,3,18,66,580.9816909124493,587.8547312851297,stimuli/165_xb.png,l,6.861466436297633,harmless,0.333,6.557377049,1.008705278,0.129151477
052,71,1,1,3,19,67,588.427089556877,600.5346329970635,stimuli/314_zb.png,l,12.095900580810849,awful,0.333,1.833333333,1.451669602,0.18740974
052,71,1,1,3,20,68,601.1592837053468,605.2226105100708,stimuli/130_xc.png,l,4.051813914324157,harmless,0.333,6.644067797,0.960651931,0.125066229
052,71,1,1,3,21,69,605.8382815420046,611.7186104186694,stimuli/177_xb.png,l,5.868593069782946,harmless,0.333,6.482758621,1.063614811,0.139659467
052,71,1,1,3,22,70,612.3238788105664,617.9025839018868,stimuli/290_zb.png,a,5.566981099778786,awful,0.333,2.586206897,2.026443456,0.266085062
052,71,1,1,3,23,71,618.4745518727577,624.4066084116348,stimuli/204_xb.png,l,5.920213999866974,harmless,0.333,6.508474576,0.858484658,0.111765183
052,71,1,1,3,24,72,624.9776902302983,629.8785766582587,stimuli/343_zb.png,l,4.888969058345538,awful,0.333,3.103448276,2.141401862,0.28117984
052,71,1,1,4,1,73,642.0724230593187,649.6785890249885,stimuli/308_zb.png,l,7.594244263716973,awful,0.333,1.644067797,1.471132708,0.191525165
052,71,1,1,4,2,74,650.2779375258251,654.9269877478364,stimuli/220_yb.png,l,4.637374673446175,ambig,0.333,4.75,2.096203186,0.270618668
052,71,1,1,4,3,75,655.5146965400781,660.6785279789474,stimuli/263_ya.png,l,5.152398105303291,ambig,0.333,4.983050847,2.071910042,0.269739712
052,71,1,1,4,4,76,661.283284371777,667.4065402763663,stimuli/256_zb.png,l,6.1115468792268075,awful,0.333,3.051724138,2.012438634,0.264246138
052,71,1,1,4,5,77,667.981841361383,672.8305117588025,stimuli/120_xa.png,l,4.836711280164309,harmless,0.333,6.440677966,1.054893138,0.137335389
052,71,1,1,4,6,78,673.4545153790386,677.6945055014221,stimuli/102_xc.png,l,4.228266130841803,harmless,0.333,6.66011236,0.937292468,0.049676401
052,71,1,1,4,7,79,678.3635508633452,681.0464859729982,stimuli/150_xc.png,l,2.670668792910874,harmless,0.333,6.482758621,1.030097582,0.135258439
052,71,1,1,4,8,80,681.6166268948,693.7824657639721,stimuli/348_za.png,a,12.153981364041101,awful,0.333,3.084745763,2.119597681,0.275948114
052,71,1,1,4,9,81,694.3425990727847,698.9264237611205,stimuli/111_xa.png,l,4.571852180350106,harmless,0.333,6.590163934,0.863655973,0.110579816
052,71,1,1,4,10,82,699.5565922443056,704.3104309574701,stimuli/166_xa.png,l,4.742270684451796,harmless,0.333,6.593220339,1.052397002,0.13701042
052,71,1,1,4,11,83,704.9323842182639,712.0384196242085,stimuli/338_zb.png,l,7.0936599940177985,awful,0.333,3.310344828,2.137443107,0.28066003
052,71,1,1,4,12,84,712.6622806723462,718.8624187546084,stimuli/212_ya.png,l,6.188360921572894,ambig,0.333,5.677966102,1.490668422,0.194068498
052,71,1,1,4,13,85,719.455147501023,723.9425202248967,stimuli/215_yb.png,l,4.475485286500771,ambig,0.333,5.866666667,1.466769385,0.189359113
052,71,1,1,4,14,86,724.5496066074702,731.2464153171168,stimuli/329_zb.png,l,6.685116225795355,awful,0.333,2.406779661,1.992387617,0.259386774
052,71,1,1,4,15,87,731.8072831477039,741.238419860485,stimuli/196_xb.png,l,9.418964918993879,harmless,0.333,6.594366197,0.982313556,0.05213579
052,71,1,1,4,16,88,741.8553744347882,750.9503514479729,stimuli/301_za.png,a,9.08331485540839,awful,0.333,3.610169492,2.212947396,0.288101212
052,71,1,1,4,17,89,751.5539668704732,755.6943554462632,stimuli/369_za.png,l,4.128675218089484,awful,0.333,2.948275862,2.055565093,0.26990892
052,71,1,1,4,18,90,756.2525025924551,761.9664120718371,stimuli/222_ya.png,l,5.701884196081664,ambig,0.333,5.931034483,1.543089507,0.202617579
052,71,1,1,4,19,91,762.6119027185487,770.534317920683,stimuli/242_xb.png,l,7.910512010916136,harmless,0.333,6.576271186,0.913564256,0.118935936
052,71,1,1,4,20,92,771.1944194461685,778.0383065905189,stimuli/217_yb.png,l,6.831983165466227,ambig,0.333,5.169491525,2.001314588,0.260548967
052,71,1,1,4,21,93,778.6485468875035,784.0223007112509,stimuli/173_yb.png,l,5.361899469397031,ambig,0.333,5.796610169,1.242628763,0.161776485
052,71,1,1,4,22,94,784.6490860619233,789.4703357571852,stimuli/154_xc.png,l,4.8093216918059625,harmless,0.333,6.5,0.965506805,0.124646393
052,71,1,1,4,23,95,790.1221176912659,800.446307245933,stimuli/295_za.png,l,10.312389157130383,awful,0.333,2.3,1.825432384,0.235662307
052,71,1,1,4,24,96,801.0556003444945,808.1823059414746,stimuli/235_ya.png,l,7.114815402659588,ambig,0.333,5.694915254,1.567495667,0.204070554
052,71,1,1,5,1,97,817.0724695330719,823.3262611817336,stimuli/125_xc.png,l,6.242072777124122,harmless,0.25,6.683333333,0.999858747,0.129081209
052,71,1,1,5,2,98,823.9396561807953,829.4542046349961,stimuli/160_xb.png,l,5.50292528711725,harmless,0.25,6.666666667,0.680644427,0.087870818
052,71,1,1,5,3,99,830.0824302784749,837.6062010179157,stimuli/273_ya.png,l,7.512089283205569,ambig,0.25,5.551724138,1.836973233,0.241206403
052,71,1,1,5,4,100,838.186066377908,853.1581852703821,stimuli/284_ya.png,a,14.960156230605207,ambig,0.25,5.948275862,1.431750417,0.18799804
052,71,1,1,5,5,101,853.7926474566921,858.2142015157151,stimuli/105_xa.png,l,4.409906867367681,harmless,0.25,6.557377049,1.088187946,0.139328189
052,71,1,1,5,6,102,858.8392066849628,867.8621867796173,stimuli/292_zb.png,a,9.010408941539936,awful,0.25,2.396551724,1.955107169,0.256718148
052,71,1,1,5,7,103,868.4245019922382,882.5021667407709,stimuli/276_ya.png,l,14.066072695248295,ambig,0.25,5.186440678,1.804922162,0.234980851
052,71,1,1,5,8,104,883.1388714830973,886.9341671566362,stimuli/201_yb.png,l,3.783184925792739,ambig,0.25,5.898305085,1.626238682,0.211718243
052,71,1,1,5,9,105,887.5527136542369,892.4941232349956,stimuli/240_xa.png,l,4.929664715426043,harmless,0.25,6.482758621,1.096107616,0.143925981
052,71,1,1,5,10,106,893.1207833428634,897.5901037664153,stimuli/257_yb.png,l,4.457345946342684,ambig,0.25,5.620689655,1.843219782,0.242026615
052,71,1,1,5,11,107,898.2336303059128,903.8541255508317,stimuli/238_xb.png,l,5.608810637961142,harmless,0.25,6.4,1.076718178,0.139003719
052,71,1,1,5,12,108,904.4428961504018,918.6700807816233,stimuli/354_zb.png,l,14.215518141107168,awful,0.25,2,1.701925887,0.221571878
052,71,1,1,5,13,109,919.2997179672238,926.974081424356,stimuli/370_za.png,l,7.662696967017837,awful,0.25,2.393442623,1.882185684,0.240989182
052,71,1,1,5,14,110,927.584969990945,933.958051520458,stimuli/202_yb.png,l,6.361096812295727,ambig,0.25,5.431034483,1.892849601,0.248543329
052,71,1,1,5,15,111,934.5593723993516,940.3980509375688,stimuli/227_xa.png,l,5.8270187434973195,harmless,0.25,6.180327869,1.05685377,0.135316259
052,71,1,1,5,16,112,941.0093341372558,947.446080390946,stimuli/321_zb.png,l,6.424750902631786,awful,0.25,2.918032787,2.177881861,0.278849198
052,71,1,1,5,17,113,948.0381813477143,952.3500246350304,stimuli/180_xc.png,l,4.300105905043893,harmless,0.25,6.672131148,0.723908638,0.092687003
052,71,1,1,5,18,114,953.0053562981775,968.1979924121406,stimuli/302_za.png,l,15.180664787476417,awful,0.25,3.137931034,2.188071937,0.287307921
052,71,1,1,5,19,115,968.8485171915381,975.5579947279766,stimuli/252_zb.png,l,6.697499514615629,awful,0.25,2.711864407,1.983125776,0.258180985
052,71,1,1,5,20,116,976.1665068310103,979.4939719983377,stimuli/143_xb.png,l,3.3161472304491326,harmless,0.25,6.655172414,0.738697862,0.096995781
052,71,1,1,5,21,117,980.1484360199538,983.9500682730577,stimuli/144_xa.png,l,3.789885812380817,harmless,0.25,6.542372881,1.00553698,0.130909764
052,71,1,1,5,22,118,984.5341276933323,990.4619515751256,stimuli/239_ya.png,l,5.916145182505716,ambig,0.25,5.157894737,1.925296579,0.255011762
052,71,1,1,5,23,119,991.138758843299,995.7659277994535,stimuli/109_xb.png,l,4.615167303592898,harmless,0.25,6.644067797,0.97843492,0.127381377
052,71,1,1,5,24,120,996.3311688899412,1001.573946650431,stimuli/260_ya.png,l,5.2310321074328385,ambig,0.25,4.966101695,2.016877936,0.262575142
052,71,1,1,6,1,121,1012.8155090038781,1021.0458755125292,stimuli/171_xa.png,l,8.218708683154546,harmless,0.166,6.465517241,1.046556882,0.137419651
052,71,1,1,6,2,122,1021.709556699323,1026.5258955355966,stimuli/149_xa.png,l,4.804220211575739,harmless,0.166,6.721311475,0.933294301,0.11949609
052,71,1,1,6,3,123,1027.094636336842,1032.365841468505,stimuli/254_ya.png,l,5.259216082107741,ambig,0.166,5.983606557,1.627798137,0.208418195
052,71,1,1,6,4,124,1032.9342604980338,1040.949863079586,stimuli/341_zb.png,l,8.00395145145012,awful,0.166,3.603448276,2.15975677,0.283589957
052,71,1,1,6,5,125,1041.598760883382,1058.9498587473063,stimuli/303_zb.png,l,17.33885399636347,awful,0.166,3.620689655,2.158846233,0.283470398
052,71,1,1,6,6,126,1059.5163680202095,1065.0938604613184,stimuli/255_xb.png,l,5.565610911406111,harmless,0.166,6.770491803,0.642740036,0.082294429
052,71,1,1,6,7,127,1065.7030763662187,1071.061819951923,stimuli/230_yb.png,l,5.346373687614687,ambig,0.166,4.98245614,1.875511626,0.248417583
052,71,1,1,6,8,128,1071.6357654209132,1075.5578513682121,stimuli/182_xb.png,l,3.9102410452323966,harmless,0.166,6.542372881,0.988241802,0.128658124
052,71,1,1,6,9,129,1076.1659081859398,1080.60585994774,stimuli/162_xa.png,l,4.428438083734363,harmless,0.166,6.644067797,0.905209289,0.117848212
052,71,1,1,6,10,130,1081.2108794293017,1086.7578299430315,stimuli/139_xa.png,l,5.535244639089797,harmless,0.166,6.724137931,0.790138861,0.103750315
052,71,1,1,6,11,131,1087.4123687953106,1093.6697601914057,stimuli/362_zb.png,l,6.245713878364768,awful,0.166,1.474576271,1.222715071,0.159183944
052,71,1,1,6,12,132,1094.3005930918735,1099.733760077972,stimuli/147_ya.png,l,5.42111689056037,ambig,0.166,5.883333333,1.766847875,0.22809908
052,71,1,1,6,13,133,1100.3524960152572,1105.4617298400844,stimuli/251_ya.png,l,5.09736607974628,ambig,0.166,5.655172414,1.792300532,0.235340589
052,71,1,1,6,14,134,1106.1025097013917,1111.5737174323876,stimuli/224_yb.png,l,5.459437659592368,ambig,0.166,5.881355932,1.609077116,0.209483997
052,71,1,1,6,15,135,1112.1838726587011,1122.2217247516382,stimuli/349_za.png,l,10.026191510492936,awful,0.166,3.288135593,2.101320172,0.273568585
052,71,1,1,6,16,136,1122.8194730583928,1128.2457682290114,stimuli/116_xa.png,l,5.413673605304211,harmless,0.166,6.63559322,0.958030802,0.050918763
052,71,1,1,6,17,137,1128.8737910421332,1132.4696551922243,stimuli/156_xc.png,l,3.5841318878228776,harmless,0.166,6.590163934,0.955284411,0.122311635
052,71,1,1,6,18,138,1133.109297233983,1147.965710633027,stimuli/221_xb.png,l,14.84479653352173,harmless,0.166,6.440677966,1.133672495,0.147591588
052,71,1,1,6,19,139,1148.6046949528973,1155.4136125592631,stimuli/267_ya.png,l,6.7965831544133835,ambig,0.166,5.103448276,1.898195405,0.249245267
052,71,1,1,6,20,140,1156.0440161681036,1159.3416692036553,stimuli/106_xc.png,l,3.2860416838084348,harmless,0.166,6.661016949,0.863237081,0.112383896
052,71,1,1,6,21,141,1159.9361722238827,1163.4936640111846,stimuli/138_xc.png,l,3.5456122268224135,harmless,0.166,6.661016949,0.70978796,0.092406522
052,71,1,1,6,22,142,1164.101754699659,1173.7896479297196,stimuli/285_yb.png,l,9.67626257991651,ambig,0.166,4.120689655,2.119893958,0.278355714
052,71,1,1,6,23,143,1174.3460011098068,1180.6136506047333,stimuli/132_xc.png,l,6.255781355954241,harmless,0.166,6.627118644,0.692280217,0.090127208
052,71,1,1,6,24,144,1181.2499315693276,1186.1736330707208,stimuli/287_ya.png,l,4.911920796090271,ambig,0.166,5.950819672,1.407435369,0.180203633
052,71,1,1,7,1,145,1196.008234520792,1200.9976156596094,stimuli/117_xc.png,l,4.977540175197646,harmless,0.083,6.627118644,0.868972939,0.113130641
052,71,1,1,7,2,146,1201.620673656871,1207.3095845836215,stimuli/174_xc.png,l,5.6770329416613095,harmless,0.083,6.533333333,1.111826512,0.143536185
052,71,1,1,7,3,147,1207.950947729987,1214.9656121716835,stimuli/304_ya.png,l,7.002892007178161,ambig,0.083,4.034482759,2.017167697,0.264867095
052,71,1,1,7,4,148,1215.5273633976467,1220.325567226042,stimuli/169_xc.png,l,4.786264403432142,harmless,0.083,6.603448276,0.916508538,0.120343467
052,71,1,1,7,5,149,1220.9684628251125,1227.5655549853109,stimuli/280_xb.png,l,6.585332722577732,harmless,0.083,6.333333333,1.068289726,0.137915611
052,71,1,1,7,6,150,1228.1773950824863,1233.8294968190603,stimuli/145_xa.png,l,5.640540797030553,harmless,0.083,6.661016949,0.822321556,0.107057148
052,71,1,1,7,7,151,1234.4444648368517,1238.4775187105988,stimuli/152_xa.png,l,4.020944701333065,harmless,0.083,6.576271186,0.968528743,0.126091702
052,71,1,1,7,8,152,1239.106513140432,1244.2855076293345,stimuli/213_ya.png,l,5.167367777205072,ambig,0.083,5.98245614,1.597891781,0.211645937
052,71,1,1,7,9,153,1244.9010636584135,1249.9975112905377,stimuli/157_xc.png,l,5.083660257863812,harmless,0.083,6.603448276,0.877389573,0.115206895
052,71,1,1,7,10,154,1250.5937972491374,1258.6934460571501,stimuli/246_ya.png,l,8.087796029052697,ambig,0.083,5.542372881,1.715266481,0.223308675
052,71,1,1,7,11,155,1259.3028431309504,1265.5575102980365,stimuli/124_xa.png,l,6.242923877143767,harmless,0.083,6.344262295,1.181598436,0.151288177
052,71,1,1,7,12,156,1266.206571153889,1270.3654558937997,stimuli/186_xa.png,l,4.146865364280529,harmless,0.083,6.65,0.879618561,0.113558268
052,71,1,1,7,13,157,1270.9804097331362,1274.8374654941726,stimuli/209_ya.png,l,3.8451179114053957,ambig,0.083,5.603448276,1.825161903,0.239655499
052,71,1,1,7,14,158,1275.4360566302203,1280.1814985583187,stimuli/274_xb.png,l,4.733504866191652,harmless,0.083,6.491525424,1.179901828,0.153610134
052,71,1,1,7,15,159,1280.7394539017696,1284.229771801969,stimuli/158_xa.png,l,3.478404075198341,harmless,0.083,6.786885246,0.661179605,0.084655374
052,71,1,1,7,16,160,1284.8703677374288,1289.389408786723,stimuli/205_yb.png,l,4.507328873150982,ambig,0.083,5.847457627,1.52918233,0.199082582
052,71,1,1,7,17,161,1290.0095554784057,1294.9494014927186,stimuli/168_xa.png,l,4.928138170449529,harmless,0.083,6.474576271,1.164946827,0.151663159
052,71,1,1,7,18,162,1295.5742613329785,1298.8053792987484,stimuli/190_xc.png,l,3.219528669374995,harmless,0.083,6.517241379,1.046990328,0.137476565
052,71,1,1,7,19,163,1299.3987244133023,1302.1414121800917,stimuli/178_xa.png,l,2.7308507416164503,harmless,0.083,6.483333333,1.112207557,0.143585378
052,71,1,1,7,20,164,1302.777424542117,1319.9413977653603,stimuli/344_za.png,a,17.15191643225262,awful,0.083,2.711864407,2.043077863,0.265986082
052,71,1,1,7,21,165,1320.5060689615202,1327.3413430996006,stimuli/288_yb.png,l,6.823849862907082,ambig,0.083,5.189655172,1.914459262,0.251380817
052,71,1,1,7,22,166,1327.9606713804533,1335.373369430541,stimuli/366_za.png,a,7.401049283042084,awful,0.083,3.689655172,2.036568291,0.267414518
052,71,1,1,7,23,167,1335.990357875533,1339.8613155934727,stimuli/236_yb.png,l,3.858776471868623,ambig,0.083,5.93442623,1.49297078,0.19115532
052,71,1,1,7,24,168,1340.4793071628083,1345.5173211261863,stimuli/296_yb.png,l,5.026570783636998,ambig,0.083,4.229508197,2.052587332,0.262806878
052,71,1,1,8,1,169,1354.653621192323,1360.5092587159015,stimuli/203_yb.png,l,5.843866664450616,ambig,0.0412,6,1.542501327,0.200816568
052,71,1,1,8,2,170,1361.0675531602465,1366.0613256759243,stimuli/187_xc.png,l,4.981535343511496,harmless,0.0412,6.224137931,1.185335891,0.155642228
052,71,1,1,8,3,171,1366.6697727944702,1372.477287917165,stimuli/189_yb.png,l,5.795416977955028,ambig,0.0412,5.983333333,1.455459234,0.187898979
052,71,1,1,8,4,172,1373.1076749845524,1376.6452949055238,stimuli/259_xc.png,l,3.525976667762734,harmless,0.0412,6.568965517,0.993170874,0.130409725
052,71,1,1,8,5,173,1377.2462479327805,1381.973289007321,stimuli/141_xc.png,l,4.715194203250576,harmless,0.0412,6.508474576,1.040107444,0.135410455
052,71,1,1,8,6,174,1382.5874161650427,1385.5412078531226,stimuli/179_xb.png,l,2.942105505731888,harmless,0.0412,6.704918033,0.882123617,0.112944356
052,71,1,1,8,7,175,1386.1569438695442,1393.573219217884,stimuli/275_yb.png,l,7.404582470655441,ambig,0.0412,4.836065574,2.138382004,0.27379176
052,71,1,1,8,8,176,1394.1351646096446,1398.1332643053029,stimuli/191_ya.png,l,3.986141759902239,ambig,0.0412,5.517241379,2.062542966,0.270825159
052,71,1,1,8,9,177,1398.7302485519322,1403.3012397860875,stimuli/155_xb.png,l,4.559103796782438,harmless,0.0412,6.655737705,0.892286312,0.114245555
052,71,1,1,8,10,178,1403.9288443353144,1406.7331661590142,stimuli/195_xc.png,l,2.7923359249252826,harmless,0.0412,6.637640449,1.001766915,0.05309354
052,71,1,1,8,11,179,1407.351213260612,1417.8612301289686,stimuli/231_xb.png,l,10.498323202948086,harmless,0.0412,6.62295082,1.05141071,0.134619347
052,71,1,1,8,12,180,1418.4789054404246,1423.629144091101,stimuli/131_xb.png,l,5.138429588521831,harmless,0.0412,6.525423729,1.119666394,0.145768149
052,71,1,1,8,13,181,1424.2010490467073,1429.4371672744164,stimuli/298_za.png,l,5.224216217990033,awful,0.0412,2.881355932,2.026418156,0.263817173
052,71,1,1,8,14,182,1430.0205165913212,1435.4851549801533,stimuli/249_ya.png,l,5.452830508234911,ambig,0.0412,5.327868852,1.859402337,0.238072074
052,71,1,1,8,15,183,1436.0656993297162,1442.3251213930198,stimuli/245_yb.png,l,6.247559832059778,ambig,0.0412,4.949152542,2.096168334,0.272897873
052,71,1,1,8,16,184,1442.93847425055,1447.2291274708114,stimuli/194_xb.png,l,4.27887448418187,harmless,0.0412,6.586206897,1.026567825,0.134794959
052,71,1,1,8,17,185,1447.799453106185,1454.6291539372178,stimuli/253_ya.png,l,6.817821664386429,ambig,0.0412,5.491803279,1.849531029,0.236808182
052,71,1,1,8,18,186,1455.2826829697588,1460.0851214245195,stimuli/123_xc.png,l,4.790492334403098,harmless,0.0412,6.491525424,1.023396666,0.133234897
052,71,1,1,8,19,187,1460.71485510224,1465.9651218340732,stimuli/163_xa.png,l,5.2386801923275925,harmless,0.0412,6.627118644,0.963082427,0.125382652
052,71,1,1,8,20,188,1466.5458351433626,1472.2051296795253,stimuli/115_xb.png,l,5.647697756707203,harmless,0.0412,6.440677966,1.021681954,0.133011661
052,71,1,1,8,21,189,1472.8008933989913,1477.501147862582,stimuli/129_xa.png,l,4.688466275227256,harmless,0.0412,6.770491803,0.642740036,0.082294429
052,71,1,1,8,22,190,1478.1104106350685,1485.1571183430497,stimuli/277_yb.png,a,7.034630437090527,ambig,0.0412,5.491525424,2.02886822,0.264136144
052,71,1,1,8,23,191,1485.7538268978242,1490.4131190708722,stimuli/170_xc.png,l,4.647186939138919,harmless,0.0412,6.583333333,1.062323432,0.137145365
052,71,1,1,8,24,192,1490.9881972393487,1495.3090540737612,stimuli/206_xa.png,l,4.309092276787851,harmless,0.0412,6.325842697,1.136094431,0.060212884
052,71,1,1,9,1,193,1504.0935138773057,1507.2690185016836,stimuli/112_xc.png,l,3.16339190735016,harmless,0.0412,6.706896552,0.749470472,0.098410294
052,71,1,1,9,2,194,1507.882196491817,1515.333024689753,stimuli/114_xc.png,l,7.439201486238744,harmless,0.0412,6.644067797,0.97843492,0.127381377
052,71,1,1,9,3,195,1515.9178891301272,1519.2210083467653,stimuli/103_xb.png,l,3.2900908089941368,harmless,0.0412,6.779661017,0.589207434,0.076708274
052,71,1,1,9,4,196,1519.7888141588774,1524.6530087626306,stimuli/264_xa.png,l,4.852189406577963,harmless,0.0412,6.533333333,0.947193297,0.122282129
052,71,1,1,9,5,197,1525.2706553233438,1529.8770166364266,stimuli/121_xc.png,l,4.594439217238687,harmless,0.0412,6.508474576,1.006408455,0.131023221
052,71,1,1,9,6,198,1530.47158109647,1534.6449794353102,stimuli/119_xc.png,l,4.161652685783338,harmless,0.0412,6.694915254,0.914523379,0.119060803
052,71,1,1,9,7,199,1535.2322979267337,1542.4769815054024,stimuli/208_xb.png,l,7.233066713088192,harmless,0.0412,6.216666667,1.165778516,0.150501359
052,71,1,1,9,8,200,1543.0957615533262,1547.0129484570352,stimuli/185_xa.png,l,3.9055909119197167,harmless,0.0412,6.5,0.965506805,0.124646393
052,71,1,1,9,9,201,1547.6239843217772,1554.2129876840627,stimuli/110_xa.png,l,6.577662582392804,harmless,0.0412,6.428571429,1.059281795,0.141552484
052,71,1,1,9,10,202,1554.8593790553277,1559.4930889968527,stimuli/140_xb.png,l,4.621621249068994,harmless,0.0412,6.724137931,0.790138861,0.103750315
052,71,1,1,9,11,203,1560.0635867426754,1566.2209409991628,stimuli/192_za.png,l,6.145568431238644,awful,0.0412,2.68852459,2.093967396,0.268105052
052,71,1,1,9,12,204,1566.788827155775,1572.6930179471383,stimuli/176_xb.png,l,5.892195440304931,harmless,0.0412,6.796610169,0.517942249,0.067430337
052,71,1,1,9,13,205,1573.2945633179042,1577.1169189312495,stimuli/167_xb.png,l,3.81037365301745,harmless,0.0412,6.590163934,0.955284411,0.122311635
052,71,1,1,9,14,206,1577.6747218564851,1584.1329051182838,stimuli/258_ya.png,l,6.445885043591261,ambig,0.0412,5.627118644,1.78014243,0.231754804
052,71,1,1,9,15,207,1584.7302564288257,1591.1249210832175,stimuli/271_ya.png,l,6.383126951754093,ambig,0.0412,5.711864407,1.771915459,0.230683744
052,71,1,1,9,16,208,1591.7287216130644,1597.3408980542445,stimuli/342_yb.png,l,5.600426455843262,ambig,0.0412,4.916666667,2.085394461,0.269223267
052,71,1,1,9,17,209,1597.9814144329284,1601.4928834094899,stimuli/113_xb.png,l,3.499227865948342,harmless,0.0412,6.733333333,0.660422737,0.085260209
052,71,1,1,9,18,210,1602.106038556667,1605.6528882459388,stimuli/126_xa.png,l,3.5351190023939125,harmless,0.0412,6.6,0.977717855,0.126222832
052,71,1,1,9,19,211,1606.2199906500755,1610.5648685126798,stimuli/225_ya.png,l,4.332636358158197,ambig,0.0412,5.85,1.792876677,0.231459384
052,71,1,1,9,20,212,1611.158669306431,1617.2848479382228,stimuli/281_ya.png,l,6.114275834406726,ambig,0.0412,5.881355932,1.543448286,0.200939852
052,71,1,1,9,21,213,1617.8441368423519,1623.5088172151009,stimuli/193_xc.png,l,5.652705895481631,harmless,0.0412,6.482758621,1.012923151,0.133003326
052,71,1,1,9,22,214,1624.159682670841,1634.5727840186446,stimuli/279_ya.png,l,10.401035892311484,ambig,0.0412,5.31147541,1.970964092,0.252356093
052,71,1,1,9,23,215,1635.1770681907656,1642.9887714660144,stimuli/312_yb.png,l,7.798611064616125,ambig,0.0412,4.677966102,2.112692986,0.275049199
052,71,1,1,9,24,216,1643.555620233703,1651.1007870213361,stimuli/210_yb.png,l,7.533107239753008,ambig,0.0412,5.557377049,1.76564049,0.226067099
052,71,1,1,10,1,217,1659.6420941235265,1662.9647689485573,stimuli/107_xa.png,l,3.3111863530939445,harmless,0.0412,6.813559322,0.540580029,0.070377525
052,71,1,1,10,2,218,1663.5478728997405,1669.14873416099,stimuli/159_xa.png,l,5.589354672410991,harmless,0.0412,6.389830508,1.174689235,0.152931512
052,71,1,1,10,3,219,1669.7599677361432,1674.7967804709333,stimuli/261_yb.png,l,5.025529062491842,ambig,0.0412,5.706896552,1.901141123,0.249632059
052,71,1,1,10,4,220,1675.3851131143747,1680.013556948281,stimuli/197_xa.png,l,4.616586328775156,harmless,0.0412,6.779661017,0.55918033,0.072799078
052,71,1,1,10,5,221,1680.5896413918817,1685.6127305817208,stimuli/226_yb.png,l,5.01116394327255,ambig,0.0412,5.683333333,1.712285287,0.22105508
052,71,1,1,10,6,222,1686.1686044519302,1691.8207097331178,stimuli/232_yb.png,l,5.640066213323735,ambig,0.0412,5.483333333,1.845669845,0.238274952
052,71,1,1,10,7,223,1692.4445499074645,1696.0447219391936,stimuli/134_xc.png,l,3.5885102677857503,harmless,0.0412,6.516666667,0.965360505,0.124627505
052,71,1,1,10,8,224,1696.6610069761518,1701.9407790341647,stimuli/108_xb.png,l,5.267739291652106,harmless,0.0412,6.568965517,1.077880782,0.141532681
052,71,1,1,10,9,225,1702.5410471641226,1707.9806724280934,stimuli/330_ya.png,l,5.427477100864053,ambig,0.0412,4.796610169,2.049219036,0.266785595
052,71,1,1,10,10,226,1708.6345598599291,1713.9886387400911,stimuli/127_xb.png,l,5.341899603256024,harmless,0.0412,6.423728814,1.162686987,0.151368953
052,71,1,1,10,11,227,1714.589148297382,1721.0526579251164,stimuli/244_xb.png,l,6.451865193026606,harmless,0.0412,6.610169492,0.743174671,0.096753101
052,71,1,1,10,12,228,1721.6653400638606,1725.596630573331,stimuli/216_xa.png,l,3.9195279210689478,harmless,0.0412,6.603448276,0.877389573,0.115206895
052,71,1,1,10,13,229,1726.1783836346003,1734.1085906752269,stimuli/319_ya.png,l,7.918387344630901,ambig,0.0412,4.216666667,2.108028774,0.272145344
052,71,1,1,10,14,230,1734.6985073650721,1742.8926684486796,stimuli/101_xa.png,l,8.182604082569014,harmless,0.0412,6.508522727,1.13475832,0.060482822
052,71,1,1,10,15,231,1743.4896353660151,1749.308608240739,stimuli/181_xa.png,l,5.80604922992643,harmless,0.0412,6.666666667,0.950765377,0.122743282
052,71,1,1,10,16,232,1749.8764715542784,1753.0686137860757,stimuli/148_xc.png,l,3.1801839022082277,harmless,0.0412,6.491525424,1.135218061,0.147792803
052,71,1,1,10,17,233,1753.6389914090396,1758.980615320499,stimuli/234_xb.png,l,5.330189002503175,harmless,0.0412,6.637931034,0.788030542,0.103473479
052,71,1,1,10,18,234,1759.5488327011117,1765.6446233990719,stimuli/306_zb.png,l,6.083834337594453,awful,0.0412,2.352112676,1.917055413,0.101746737
052,71,1,1,10,19,235,1766.2561673244345,1769.7325730277807,stimuli/243_ya.png,l,3.4648168007843196,ambig,0.0412,5.830508475,1.652088985,0.215083666
052,71,1,1,10,20,236,1770.3363971883664,1775.2525963276858,stimuli/146_xa.png,l,4.90443340013735,harmless,0.0412,6.442622951,1.162247681,0.148810567
052,71,1,1,10,21,237,1775.8380735915853,1779.148582136666,stimuli/184_xb.png,l,3.29859905235935,harmless,0.0412,6.508474576,1.194425,0.15550089
052,71,1,1,10,22,238,1779.7461488806293,1783.5325554622686,stimuli/241_yb.png,l,3.7744915750226937,ambig,0.0412,5.508474576,1.442852555,0.187843403
052,71,1,1,10,23,239,1784.1400786194135,1792.3805468701175,stimuli/350_ya.png,l,8.228647767042276,ambig,0.0412,4.915254237,2.02814792,0.264042369
052,71,1,1,10,24,240,1792.9774925198872,1796.7325671201106,stimuli/164_xb.png,l,3.743135962926317,harmless,0.0412,6.830508475,0.460604639,0.059965616
