id,age,condition,counterbalance,block,trialinblock,trial,tstart,tend,trialstim,response,RT,trialtype,ethicfreq,norm_mean,norm_sd,norm_se
80,74,1,1,0,0,practice,4.725996404886246e-06,7.895749608054757,stimuli/prac_217_1.png,l,7.8811969785019755,harmless,NA,NA,NA,NA
80,74,1,1,1,1,1,5.257471662946045,29.45577260898426,stimuli/358_za.png,l,24.18646979611367,awful,0.333,3.949152542,2.112554662,0.275031191
80,74,1,1,1,2,2,30.07400376535952,42.59980504633859,stimuli/257_yb.png,l,12.513955164700747,ambig,0.333,5.620689655,1.843219782,0.242026615
80,74,1,1,1,3,3,43.215706994291395,47.511809882707894,stimuli/178_xa.png,l,4.284242200199515,harmless,0.333,6.483333333,1.112207557,0.143585378
80,74,1,1,1,4,4,48.12836364656687,79.51991327526048,stimuli/308_zb.png,l,31.379760226234794,awful,0.333,1.644067797,1.471132708,0.191525165
80,74,1,1,1,5,5,80.14784447802231,87.79986766772345,stimuli/263_ya.png,l,7.640241664368659,ambig,0.333,4.983050847,2.071910042,0.269739712
80,74,1,1,1,6,6,88.43593849707395,95.03991083335131,stimuli/307_za.png,a,6.592266035731882,awful,0.333,2.93220339,2.172432347,0.282826601
80,74,1,1,1,7,7,95.63228241959587,108.60790686355904,stimuli/227_xa.png,l,12.963740518316627,harmless,0.333,6.180327869,1.05685377,0.135316259
80,74,1,1,1,8,8,109.22244846541435,124.96785148838535,stimuli/238_xb.png,l,15.733714051544666,harmless,0.333,6.4,1.076718178,0.139003719
80,74,1,1,1,9,9,125.57371074333787,146.52788394130766,stimuli/342_yb.png,a,20.942381038330495,ambig,0.333,4.916666667,2.085394461,0.269223267
80,74,1,1,1,10,10,147.1350326500833,158.86391578009352,stimuli/293_zb.png,l,11.7170937275514,awful,0.333,3.677966102,2.169066842,0.28238845
80,74,1,1,1,11,11,159.475349932909,198.08005009731278,stimuli/235_ya.png,l,38.593157310038805,ambig,0.333,5.694915254,1.567495667,0.204070554
80,74,1,1,1,12,12,198.729184422642,205.90403338242322,stimuli/291_za.png,a,7.162863421719521,awful,0.333,2.593220339,1.830005126,0.238246374
80,74,1,1,1,13,13,206.46743086026981,246.41602719156072,stimuli/245_yb.png,l,39.9366560857743,ambig,0.333,4.949152542,2.096168334,0.272897873
80,74,1,1,1,14,14,247.05849763331935,257.5840641814284,stimuli/311_za.png,a,10.513867730740458,awful,0.333,3.116666667,1.975199339,0.254997138
80,74,1,1,1,15,15,258.20453396160156,269.5922175925225,stimuli/292_zb.png,a,11.376045071985573,awful,0.333,2.396551724,1.955107169,0.256718148
80,74,1,1,1,16,16,270.20463833073154,302.0240951376036,stimuli/218_yb.png,l,31.807859207503498,ambig,0.333,5.850282486,1.552723069,0.0825263
80,74,1,1,1,17,17,302.63047781493515,318.7760872137733,stimuli/191_ya.png,l,16.134052366018295,ambig,0.333,5.517241379,2.062542966,0.270825159
80,74,1,1,1,18,18,319.3763282475993,329.97610454261303,stimuli/244_xb.png,l,10.58780611725524,harmless,0.333,6.610169492,0.743174671,0.096753101
80,74,1,1,1,19,19,330.5922140479088,341.2560742953792,stimuli/159_xa.png,l,10.652223657350987,harmless,0.333,6.389830508,1.174689235,0.152931512
80,74,1,1,1,20,20,341.86626468086615,350.7681626272388,stimuli/279_ya.png,l,8.890082550235093,ambig,0.333,5.31147541,1.970964092,0.252356093
80,74,1,1,1,21,21,351.3918497399427,356.56014351779595,stimuli/119_xc.png,l,5.1566355265676975,harmless,0.333,6.694915254,0.914523379,0.119060803
80,74,1,1,1,22,22,357.17060171905905,367.22416406078264,stimuli/204_xb.png,l,10.041780422441661,harmless,0.333,6.508474576,0.858484658,0.111765183
80,74,1,1,1,23,23,367.85234890086576,385.00016777869314,stimuli/303_zb.png,l,17.13601293368265,awful,0.333,3.620689655,2.158846233,0.283470398
80,74,1,1,1,24,24,385.57556772977114,390.8321516625583,stimuli/104_xc.png,l,5.244947736617178,harmless,0.333,6.745762712,0.756425814,0.098478253
80,74,1,1,2,1,25,604.1999062648974,617.5924015189521,stimuli/284_ya.png,l,13.38018715614453,ambig,0.333,5.948275862,1.431750417,0.18799804
80,74,1,1,2,2,26,618.2125885169953,629.8723976593465,stimuli/281_ya.png,l,11.648094570729882,ambig,0.333,5.881355932,1.543448286,0.200939852
80,74,1,1,2,3,27,630.4474120344967,634.6883909795433,stimuli/112_xc.png,l,4.22910486580804,harmless,0.333,6.706896552,0.749470472,0.098410294
80,74,1,1,2,4,28,635.3448929921724,641.880367144011,stimuli/223_yb.png,l,6.523709168191999,ambig,0.333,5.542372881,1.77455224,0.231027024
80,74,1,1,2,5,29,642.4927146267146,647.9844095846638,stimuli/122_xa.png,l,5.48006151849404,harmless,0.333,6.457627119,1.039264227,0.135300678
80,74,1,1,2,6,30,648.5875316062011,661.8164324592799,stimuli/319_ya.png,l,13.217095302883536,ambig,0.333,4.216666667,2.108028774,0.272145344
80,74,1,1,2,7,31,662.4259481858462,671.9204556019977,stimuli/290_zb.png,a,9.482786149252206,awful,0.333,2.586206897,2.026443456,0.266085062
80,74,1,1,2,8,32,672.5471339789219,688.9604672598653,stimuli/352_zb.png,a,16.401591927744448,awful,0.333,2.93442623,2.135952968,0.273480754
80,74,1,1,2,9,33,689.5775405070744,692.72047332488,stimuli/179_xb.png,l,3.131387206260115,harmless,0.333,6.704918033,0.882123617,0.112944356
80,74,1,1,2,10,34,693.2851523794234,698.5444306163117,stimuli/188_xa.png,l,5.24734153598547,harmless,0.333,6.655172414,0.806807095,0.105938962
80,74,1,1,2,11,35,699.191920238547,704.0324340504594,stimuli/353_zb.png,a,4.8285341816954315,awful,0.333,1.949152542,1.623361018,0.211343603
80,74,1,1,2,12,36,704.6490015992895,726.3604987673461,stimuli/222_ya.png,l,21.69981449842453,ambig,0.333,5.931034483,1.543089507,0.202617579
80,74,1,1,2,13,37,726.9811174217612,736.9364859438501,stimuli/258_ya.png,a,9.94366537220776,ambig,0.333,5.627118644,1.78014243,0.231754804
80,74,1,1,2,14,38,737.5654986491427,763.7365662883967,stimuli/229_za.png,a,26.15931250154972,awful,0.333,3.406779661,2.043649913,0.266060557
80,74,1,1,2,15,39,764.3052728176117,772.4725232962519,stimuli/127_xb.png,l,8.155188928358257,harmless,0.333,6.423728814,1.162686987,0.151368953
80,74,1,1,2,16,40,773.0503383143805,776.552535190247,stimuli/346_zb.png,a,3.4904413442127407,awful,0.333,1.288135593,0.983499162,0.128040685
80,74,1,1,2,17,41,777.1284258742817,788.096532181371,stimuli/136_xc.png,l,10.956194418482482,harmless,0.333,6.559322034,1.038420326,0.135190811
80,74,1,1,2,18,42,788.7186222462915,798.5285684466362,stimuli/254_ya.png,l,9.798149708658457,ambig,0.333,5.983606557,1.627798137,0.208418195
80,74,1,1,2,19,43,799.1326538170688,802.2406311784871,stimuli/297_za.png,a,3.0961005254648626,awful,0.333,1.898305085,1.446695584,0.188343723
80,74,1,1,2,20,44,802.8645132454112,817.6885611210018,stimuli/162_xa.png,l,14.812749206088483,harmless,0.333,6.644067797,0.905209289,0.117848212
80,74,1,1,2,21,45,818.3058982458897,826.1285330005921,stimuli/181_xa.png,l,7.810772884637117,harmless,0.333,6.666666667,0.950765377,0.122743282
80,74,1,1,2,22,46,826.7292675245553,836.0566099267453,stimuli/324_za.png,a,9.315627043135464,awful,0.333,2.491525424,1.994586478,0.259673041
80,74,1,1,2,23,47,836.673915149644,843.2805707626976,stimuli/320_za.png,a,6.594871724490076,awful,0.333,1.423728814,1.117314975,0.14546202
80,74,1,1,2,24,48,843.8440403142013,852.6246559750289,stimuli/225_ya.png,l,8.768892818596214,ambig,0.333,5.85,1.792876677,0.231459384
80,74,1,1,3,1,49,862.2421210999601,869.3206418910995,stimuli/106_xc.png,l,7.066378108225763,harmless,0.333,6.661016949,0.863237081,0.112383896
80,74,1,1,3,2,50,869.9197994535789,878.4166203243658,stimuli/343_zb.png,l,8.485173647291958,awful,0.333,3.103448276,2.141401862,0.28117984
80,74,1,1,3,3,51,879.03468527738,898.2246847259812,stimuli/207_yb.png,l,19.178521185182035,ambig,0.333,5.655737705,1.662179753,0.212820309
80,74,1,1,3,4,52,898.8256212929264,907.1206533126533,stimuli/372_zb.png,a,8.283400943502784,awful,0.333,2.796610169,2.082601664,0.271131643
80,74,1,1,3,5,53,907.7658995850943,913.6006502406672,stimuli/345_zb.png,a,5.8230656227096915,awful,0.333,3.694915254,2.191317013,0.285285176
80,74,1,1,3,6,54,914.2189578036778,918.2006722963415,stimuli/332_zb.png,a,3.9703319338150322,awful,0.333,2.694915254,2.002190501,0.260663001
80,74,1,1,3,7,55,918.801184296608,930.3606468536891,stimuli/357_za.png,a,11.547753893304616,awful,0.333,2.793103448,2.066937905,0.271402243
80,74,1,1,3,8,56,930.9598067789339,962.0487542636693,stimuli/233_yb.png,a,31.077240396291018,ambig,0.333,5.318309859,1.922973646,0.102060844
80,74,1,1,3,9,57,962.6670641894452,965.6646995344199,stimuli/102_xc.png,l,2.985895567573607,harmless,0.333,6.66011236,0.937292468,0.049676401
80,74,1,1,3,10,58,966.2304888423532,973.9687132248655,stimuli/304_ya.png,a,7.726403078529984,ambig,0.333,4.034482759,2.017167697,0.264867095
80,74,1,1,3,11,59,974.6098430128768,979.2647720025852,stimuli/283_yb.png,l,4.642566540744156,ambig,0.333,5.949152542,1.478859402,0.192531095
80,74,1,1,3,12,60,979.845645239111,983.7606984474696,stimuli/301_za.png,a,3.9038344896398485,awful,0.333,3.610169492,2.212947396,0.288101212
80,74,1,1,3,13,61,984.3290642993525,988.3367439131252,stimuli/261_yb.png,a,3.9958122298121452,ambig,0.333,5.706896552,1.901141123,0.249632059
80,74,1,1,3,14,62,988.9511145860888,994.4567414713092,stimuli/287_ya.png,a,5.4939800556749105,ambig,0.333,5.950819672,1.407435369,0.180203633
80,74,1,1,3,15,63,995.0402526920661,1000.0007656379603,stimuli/158_xa.png,l,4.948862571269274,harmless,0.333,6.786885246,0.661179605,0.084655374
80,74,1,1,3,16,64,1000.585235087201,1016.3927926085889,stimuli/209_ya.png,a,15.795730309560895,ambig,0.333,5.603448276,1.825161903,0.239655499
80,74,1,1,3,17,65,1017.0302852238528,1020.7527403845452,stimuli/117_xc.png,l,3.710769339930266,harmless,0.333,6.627118644,0.868972939,0.113130641
80,74,1,1,3,18,66,1021.3820496564731,1028.8887856137007,stimuli/148_xc.png,l,7.494980032090098,harmless,0.333,6.491525424,1.135218061,0.147792803
80,74,1,1,3,19,67,1029.4652725812048,1049.4568229974248,stimuli/266_zb.png,l,19.979727536905557,awful,0.333,3.491525424,1.888010094,0.245797978
80,74,1,1,3,20,68,1050.040296802763,1056.8087981380522,stimuli/170_xc.png,l,6.757730026263744,harmless,0.333,6.583333333,1.062323432,0.137145365
80,74,1,1,3,21,69,1057.3712771655992,1060.1288067237474,stimuli/103_xb.png,l,2.7456283033825457,harmless,0.333,6.779661017,0.589207434,0.076708274
80,74,1,1,3,22,70,1060.7002051942982,1065.42479342781,stimuli/197_xa.png,l,4.712776775937527,harmless,0.333,6.779661017,0.55918033,0.072799078
80,74,1,1,3,23,71,1066.04911266407,1069.5609201830812,stimuli/313_zb.png,a,3.5004032985307276,awful,0.333,2.101694915,1.688652955,0.219843889
80,74,1,1,3,24,72,1070.1629492808133,1099.3128260066733,stimuli/220_yb.png,l,29.138081022072583,ambig,0.333,4.75,2.096203186,0.270618668
80,74,1,1,4,1,73,1108.961137586739,1132.56092097098,stimuli/202_yb.png,l,23.588031397666782,ambig,0.333,5.431034483,1.892849601,0.248543329
80,74,1,1,4,2,74,1133.2017778232694,1136.8888659584336,stimuli/349_za.png,a,3.675086843315512,awful,0.333,3.288135593,2.101320172,0.273568585
80,74,1,1,4,3,75,1137.5612218696624,1142.176897355821,stimuli/153_xb.png,l,4.603913259226829,harmless,0.333,6.633333333,0.973664521,0.125699549
80,74,1,1,4,4,76,1142.8075965121388,1146.6169216167182,stimuli/255_xb.png,l,3.797375012654811,harmless,0.333,6.770491803,0.642740036,0.082294429
80,74,1,1,4,5,77,1147.2558466522023,1153.0809086831287,stimuli/160_xb.png,l,5.813431348651648,harmless,0.333,6.666666667,0.680644427,0.087870818
80,74,1,1,4,6,78,1153.7305680057034,1158.1449244995601,stimuli/356_za.png,a,4.402422943618149,awful,0.333,3.033333333,2.178217796,0.281206708
80,74,1,1,4,7,79,1158.7648330484517,1163.1929178517312,stimuli/337_zb.png,a,4.416174490004778,awful,0.333,3.033333333,2.20143764,0.284204377
80,74,1,1,4,8,80,1163.7695572380908,1180.0889466968365,stimuli/226_yb.png,l,16.307625656481832,ambig,0.333,5.683333333,1.712285287,0.22105508
80,74,1,1,4,9,81,1180.7042653583921,1184.089006561786,stimuli/129_xa.png,l,3.372789142653346,harmless,0.333,6.770491803,0.642740036,0.082294429
80,74,1,1,4,10,82,1184.7056772978976,1190.440905295778,stimuli/300_za.png,a,5.723504367750138,awful,0.333,3.75,2.12032137,0.273732312
80,74,1,1,4,11,83,1191.0519113373011,1195.3049636483192,stimuli/354_zb.png,a,4.241360582411289,awful,0.333,2,1.701925887,0.221571878
80,74,1,1,4,12,84,1195.922384662088,1221.5769753376953,stimuli/276_ya.png,a,25.642788670025766,ambig,0.333,5.186440678,1.804922162,0.234980851
80,74,1,1,4,13,85,1222.1939548496157,1226.8329641679302,stimuli/123_xc.png,l,4.6273498851805925,harmless,0.333,6.491525424,1.023396666,0.133234897
80,74,1,1,4,14,86,1227.450208738912,1234.5209951717407,stimuli/137_xa.png,l,7.059100218117237,harmless,0.333,6.355932203,1.094858074,0.14253838
80,74,1,1,4,15,87,1235.1403881753795,1239.6009657117538,stimuli/140_xb.png,l,4.448842484969646,harmless,0.333,6.724137931,0.790138861,0.103750315
80,74,1,1,4,16,88,1240.2464782241732,1244.304957346525,stimuli/360_za.png,a,4.0465565994381905,awful,0.333,3.2,2.207844259,0.285031468
80,74,1,1,4,17,89,1244.924734744709,1259.1690424806438,stimuli/334_za.png,a,14.232580167707056,awful,0.333,3.333333333,2.214487481,0.285889104
80,74,1,1,4,18,90,1259.810905217193,1267.0089966366068,stimuli/147_ya.png,l,7.186535174492747,ambig,0.333,5.883333333,1.766847875,0.22809908
80,74,1,1,4,19,91,1267.6666321395896,1274.265029578004,stimuli/200_ya.png,a,6.586368577089161,ambig,0.333,5.862068966,1.444266048,0.189641423
80,74,1,1,4,20,92,1274.8804766330868,1297.017113420181,stimuli/201_yb.png,l,22.12491473229602,ambig,0.333,5.898305085,1.626238682,0.211718243
80,74,1,1,4,21,93,1297.6119225225411,1316.4490890330635,stimuli/338_zb.png,l,18.825638228096068,awful,0.333,3.310344828,2.137443107,0.28066003
80,74,1,1,4,22,94,1317.0595984342508,1321.921079060994,stimuli/228_ya.png,a,4.8499054769054055,ambig,0.333,5.442622951,1.793735303,0.229664272
80,74,1,1,4,23,95,1322.540662292391,1329.9771454790607,stimuli/247_ya.png,l,7.424917095340788,ambig,0.333,4.65,2.081598147,0.268733165
80,74,1,1,4,24,96,1330.6088079842739,1335.0250632124953,stimuli/216_xa.png,l,4.404299622867256,harmless,0.333,6.603448276,0.877389573,0.115206895
80,74,1,1,5,1,97,1344.792680756189,1348.721106236335,stimuli/186_xa.png,l,3.916700274683535,harmless,0.25,6.65,0.879618561,0.113558268
80,74,1,1,5,2,98,1349.3153107846156,1353.0171146015637,stimuli/143_xb.png,l,3.690181405749172,harmless,0.25,6.655172414,0.738697862,0.096995781
80,74,1,1,5,3,99,1353.6173828109168,1357.55307869846,stimuli/174_xc.png,l,3.9241569712758064,harmless,0.25,6.533333333,1.111826512,0.143536185
80,74,1,1,5,4,100,1358.172225941904,1361.777111608535,stimuli/152_xa.png,l,3.5930627873167396,harmless,0.25,6.576271186,0.968528743,0.126091702
80,74,1,1,5,5,101,1362.3981678262353,1379.433130764868,stimuli/277_yb.png,l,17.023270816542208,ambig,0.25,5.491525424,2.02886822,0.264136144
80,74,1,1,5,6,102,1380.0484383986332,1393.6731601459906,stimuli/249_ya.png,l,13.613060344941914,ambig,0.25,5.327868852,1.859402337,0.238072074
80,74,1,1,5,7,103,1394.2933786520734,1402.5131800747477,stimuli/151_xa.png,l,8.208054161630571,harmless,0.25,6.610169492,0.947172729,0.123311386
80,74,1,1,5,8,104,1403.1497195814736,1408.857128622476,stimuli/373_zb.png,a,5.695660992525518,awful,0.25,2.327586207,1.858011869,0.243968911
80,74,1,1,5,9,105,1409.4750962955877,1413.8251285911538,stimuli/296_yb.png,a,4.33873756416142,ambig,0.25,4.229508197,2.052587332,0.262806878
80,74,1,1,5,10,106,1414.4526135656051,1429.6411802005023,stimuli/172_xb.png,l,15.17678550304845,harmless,0.25,6.482758621,1.127664553,0.14806961
80,74,1,1,5,11,107,1430.2416307609528,1433.4571605240926,stimuli/241_yb.png,a,3.2035339851863682,ambig,0.25,5.508474576,1.442852555,0.187843403
80,74,1,1,5,12,108,1434.0521295284852,1437.3612013896927,stimuli/105_xa.png,l,3.2965727476403117,harmless,0.25,6.557377049,1.088187946,0.139328189
80,74,1,1,5,13,109,1437.9752538343892,1449.7531779478304,stimuli/265_yb.png,a,11.766228446736932,ambig,0.25,5.627118644,1.856008928,0.241631781
80,74,1,1,5,14,110,1450.3070797855034,1455.7291989950463,stimuli/305_zb.png,a,5.410164391621947,awful,0.25,2.75,2.12830003,0.274762352
80,74,1,1,5,15,111,1456.3366379686631,1473.753298071213,stimuli/205_yb.png,a,17.40487188193947,ambig,0.25,5.847457627,1.52918233,0.199082582
80,74,1,1,5,16,112,1474.3800662453286,1478.0652843969874,stimuli/194_xb.png,l,3.673297204542905,harmless,0.25,6.586206897,1.026567825,0.134794959
80,74,1,1,5,17,113,1478.687398486305,1490.0812280923128,stimuli/370_za.png,a,11.382055563852191,awful,0.25,2.393442623,1.882185684,0.240989182
80,74,1,1,5,18,114,1490.6952419402078,1511.6732751494274,stimuli/275_yb.png,a,20.966283585410565,ambig,0.25,4.836065574,2.138382004,0.27379176
80,74,1,1,5,19,115,1512.281573889777,1515.7692677606829,stimuli/348_za.png,a,3.4760119887068868,awful,0.25,3.084745763,2.119597681,0.275948114
80,74,1,1,5,20,116,1516.3884492688812,1521.0732775120996,stimuli/126_xa.png,l,4.673181807156652,harmless,0.25,6.6,0.977717855,0.126222832
80,74,1,1,5,21,117,1521.702400100883,1535.0493123442866,stimuli/269_za.png,l,13.335225634742528,awful,0.25,3.457627119,2.119873401,0.27598401
80,74,1,1,5,22,118,1535.6880440008827,1547.6893192757852,stimuli/203_yb.png,l,11.989618598949164,ambig,0.25,6,1.542501327,0.200816568
80,74,1,1,5,23,119,1548.2947035520338,1553.4493308546953,stimuli/351_zb.png,a,5.142781974282116,awful,0.25,3.06779661,2.033040926,0.264679384
80,74,1,1,5,24,120,1554.0137554844841,1558.0333013008349,stimuli/177_xb.png,l,4.0073995888233185,harmless,0.25,6.482758621,1.063614811,0.139659467
80,74,1,1,6,1,121,1568.3885209490545,1572.4413546747528,stimuli/163_xa.png,l,4.041187289636582,harmless,0.166,6.627118644,0.963082427,0.125382652
80,74,1,1,6,2,122,1573.0811036368832,1576.8093211664818,stimuli/251_ya.png,l,3.7162536531686783,ambig,0.166,5.655172414,1.792300532,0.235340589
80,74,1,1,6,3,123,1577.4132040995173,1583.249302498065,stimuli/264_xa.png,l,5.823727285023779,harmless,0.166,6.533333333,0.947193297,0.122282129
80,74,1,1,6,4,124,1583.8956074295565,1589.7533524218015,stimuli/242_xb.png,l,5.846018211450428,harmless,0.166,6.576271186,0.913564256,0.118935936
80,74,1,1,6,5,125,1590.3931065043435,1595.7053315006196,stimuli/198_yb.png,a,5.300385969225317,ambig,0.166,5.101694915,1.83542643,0.238952168
80,74,1,1,6,6,126,1596.3216005135328,1599.2253786837682,stimuli/230_yb.png,a,2.8921069214120507,ambig,0.166,4.98245614,1.875511626,0.248417583
80,74,1,1,6,7,127,1599.8014576262794,1608.6494092303328,stimuli/260_ya.png,l,8.836123604793102,ambig,0.166,4.966101695,2.016877936,0.262575142
80,74,1,1,6,8,128,1609.2192701236345,1612.5213693259284,stimuli/298_za.png,a,3.290270809084177,awful,0.166,2.881355932,2.026418156,0.263817173
80,74,1,1,6,9,129,1613.1444160440005,1617.6653848276474,stimuli/196_xb.png,l,4.509289658628404,harmless,0.166,6.594366197,0.982313556,0.05213579
80,74,1,1,6,10,130,1618.2299981098622,1629.2733342261054,stimuli/267_ya.png,l,11.031614849343896,ambig,0.166,5.103448276,1.898195405,0.249245267
80,74,1,1,6,11,131,1629.8958232575096,1638.7934168553911,stimuli/355_zb.png,a,8.884907406754792,awful,0.166,3.183333333,2.070713188,0.267327923
80,74,1,1,6,12,132,1639.408303860575,1645.8973817084916,stimuli/323_yb.png,a,6.477376273367554,ambig,0.166,4.603448276,1.955107169,0.256718148
80,74,1,1,6,13,133,1646.4871440613642,1651.8093727603555,stimuli/134_xc.png,l,5.310322718229145,harmless,0.166,6.516666667,0.965360505,0.124627505
80,74,1,1,6,14,134,1652.432562444359,1665.705471710302,stimuli/168_xa.png,l,13.261184847913682,harmless,0.166,6.474576271,1.164946827,0.151663159
80,74,1,1,6,15,135,1666.3152005076408,1672.4974104589783,stimuli/325_yb.png,l,6.170410308986902,ambig,0.166,5.131147541,1.811770863,0.231973488
80,74,1,1,6,16,136,1673.1029522740282,1679.1614479376003,stimuli/239_ya.png,a,6.046760218217969,ambig,0.166,5.157894737,1.925296579,0.255011762
80,74,1,1,6,17,137,1679.7644848884083,1683.3133836933412,stimuli/161_xc.png,l,3.5372204673476517,harmless,0.166,6.796610169,0.609682252,0.079373868
80,74,1,1,6,18,138,1683.945780328475,1691.7454030234367,stimuli/138_xc.png,l,7.787750978954136,harmless,0.166,6.661016949,0.70978796,0.092406522
80,74,1,1,6,19,139,1692.3300926326774,1695.7214228888042,stimuli/121_xc.png,l,3.3788019972853363,harmless,0.166,6.508474576,1.006408455,0.131023221
80,74,1,1,6,20,140,1696.3512894539163,1701.4254460311495,stimuli/182_xb.png,l,5.062442006077617,harmless,0.166,6.542372881,0.988241802,0.128658124
80,74,1,1,6,21,141,1702.0689700124785,1706.1294069462456,stimuli/221_xb.png,l,4.0483801094815135,harmless,0.166,6.440677966,1.133672495,0.147591588
80,74,1,1,6,22,142,1706.7879419946112,1712.7774503165856,stimuli/176_xb.png,l,5.977785479743034,harmless,0.166,6.796610169,0.517942249,0.067430337
80,74,1,1,6,23,143,1713.3991930084303,1724.7214662120678,stimuli/268_zb.png,a,11.309924932662398,awful,0.166,2.655737705,2.048456703,0.262278005
80,74,1,1,6,24,144,1725.3409990314394,1740.6494722459465,stimuli/256_zb.png,a,15.296473497990519,awful,0.166,3.051724138,2.012438634,0.264246138
80,74,1,1,7,1,145,1750.6523008518852,1755.385479665827,stimuli/314_zb.png,a,4.7205741493962705,awful,0.083,1.833333333,1.451669602,0.18740974
80,74,1,1,7,2,146,1755.9977129334584,1760.601488346234,stimuli/111_xa.png,l,4.592009641230106,harmless,0.083,6.590163934,0.863655973,0.110579816
80,74,1,1,7,3,147,1761.1785822315142,1766.5934652984142,stimuli/309_ya.png,a,5.403316188137978,ambig,0.083,4.706896552,1.946734744,0.255618795
80,74,1,1,7,4,148,1767.2384764440358,1771.978040298447,stimuli/130_xc.png,l,4.72783471038565,harmless,0.083,6.644067797,0.960651931,0.125066229
80,74,1,1,7,5,149,1772.540745000355,1775.8815049664117,stimuli/164_xb.png,l,3.328738981857896,harmless,0.083,6.830508475,0.460604639,0.059965616
80,74,1,1,7,6,150,1776.4549305648543,1790.0895504639484,stimuli/285_yb.png,a,13.622873031999916,ambig,0.083,4.120689655,2.119893958,0.278355714
80,74,1,1,7,7,151,1790.707520893775,1795.0815262342803,stimuli/214_xb.png,l,4.362287224270403,harmless,0.083,6.465517241,0.940614156,0.12350869
80,74,1,1,7,8,152,1795.677989098709,1800.873605192639,stimuli/144_xa.png,l,5.184289067517966,harmless,0.083,6.542372881,1.00553698,0.130909764
80,74,1,1,7,9,153,1801.4947866536677,1809.0095736216754,stimuli/116_xa.png,l,7.50306767039001,harmless,0.083,6.63559322,0.958030802,0.050918763
80,74,1,1,7,10,154,1809.6861405405216,1822.7135900687426,stimuli/329_zb.png,a,13.015804274007678,awful,0.083,2.406779661,1.992387617,0.259386774
80,74,1,1,7,11,155,1823.3406331478618,1828.385580490809,stimuli/128_xc.png,l,5.033130371477455,harmless,0.083,6.627118644,0.98082135,0.127692063
80,74,1,1,7,12,156,1829.0123648121953,1849.3058206583373,stimuli/253_ya.png,a,20.28169401269406,ambig,0.083,5.491803279,1.849531029,0.236808182
80,74,1,1,7,13,157,1849.9200314292684,1854.9935980248265,stimuli/217_yb.png,a,5.062257292214781,ambig,0.083,5.169491525,2.001314588,0.260548967
80,74,1,1,7,14,158,1855.609655935783,1860.8176069096662,stimuli/114_xc.png,l,5.19653336238116,harmless,0.083,6.644067797,0.97843492,0.127381377
80,74,1,1,7,15,159,1861.4040944287553,1863.89760305034,stimuli/184_xb.png,l,2.481836191378534,harmless,0.083,6.508474576,1.194425,0.15550089
80,74,1,1,7,16,160,1864.5109985587187,1882.7456842297688,stimuli/120_xa.png,l,18.222970705479383,harmless,0.083,6.440677966,1.054893138,0.137335389
80,74,1,1,7,17,161,1883.3111289218068,1890.2816235143691,stimuli/250_yb.png,a,6.958599245175719,ambig,0.083,5.950819672,1.585625318,0.203018519
80,74,1,1,7,18,162,1890.8626704374328,1896.4896363224834,stimuli/240_xa.png,l,5.615141430404037,harmless,0.083,6.482758621,1.096107616,0.143925981
80,74,1,1,7,19,163,1897.0623270031065,1907.0576335336082,stimuli/243_ya.png,l,9.983455688226968,ambig,0.083,5.830508475,1.652088985,0.215083666
80,74,1,1,7,20,164,1907.6276153381914,1915.0176616543904,stimuli/193_xc.png,l,7.378973714541644,harmless,0.083,6.482758621,1.012923151,0.133003326
80,74,1,1,7,21,165,1915.5885776625946,1922.5696757854894,stimuli/282_xc.png,l,6.969122430775315,harmless,0.083,6.55,0.998728005,0.128935231
80,74,1,1,7,22,166,1923.1574291274883,1928.8897336022928,stimuli/215_yb.png,l,5.72050995239988,ambig,0.083,5.866666667,1.466769385,0.189359113
80,74,1,1,7,23,167,1929.515522673726,1934.865703055635,stimuli/206_xa.png,l,5.3385272501036525,harmless,0.083,6.325842697,1.136094431,0.060212884
80,74,1,1,7,24,168,1935.4521996332332,1950.697756650392,stimuli/210_yb.png,l,15.233787700999528,ambig,0.083,5.557377049,1.76564049,0.226067099
80,74,1,1,8,1,169,1960.3922554017045,1975.865737714339,stimuli/259_xc.png,l,15.461751987226307,harmless,0.0412,6.568965517,0.993170874,0.130409725
80,74,1,1,8,2,170,1976.4682799936272,1979.6337483166717,stimuli/146_xa.png,l,3.153739966917783,harmless,0.0412,6.442622951,1.162247681,0.148810567
80,74,1,1,8,3,171,1980.276112419553,2008.6177975316532,stimuli/339_ya.png,l,28.329935487825423,ambig,0.0412,4.949152542,1.960152429,0.25519011
80,74,1,1,8,4,172,2009.254589493852,2016.4657948217355,stimuli/231_xb.png,l,7.199138657655567,harmless,0.0412,6.62295082,1.05141071,0.134619347
80,74,1,1,8,5,173,2017.0344993816689,2020.609755972866,stimuli/195_xc.png,l,3.563351397868246,harmless,0.0412,6.637640449,1.001766915,0.05309354
80,74,1,1,8,6,174,2021.253511535935,2031.1697900011204,stimuli/208_xb.png,l,9.904419745784253,harmless,0.0412,6.216666667,1.165778516,0.150501359
80,74,1,1,8,7,175,2031.7678329776973,2052.7938272431493,stimuli/330_ya.png,a,21.014232432469726,ambig,0.0412,4.796610169,2.049219036,0.266785595
80,74,1,1,8,8,176,2053.4720861264504,2066.497825967148,stimuli/271_ya.png,l,13.013923656661063,ambig,0.0412,5.711864407,1.771915459,0.230683744
80,74,1,1,8,9,177,2067.133571873419,2073.7778158062138,stimuli/165_xb.png,l,6.632534087635577,harmless,0.0412,6.557377049,1.008705278,0.129151477
80,74,1,1,8,10,178,2074.404555622954,2090.3219010187313,stimuli/341_zb.png,a,15.905598922632635,awful,0.0412,3.603448276,2.15975677,0.283589957
80,74,1,1,8,11,179,2090.941578773316,2098.137836443726,stimuli/237_ya.png,a,7.183756193611771,ambig,0.0412,4.305084746,2.019339575,0.26289562
80,74,1,1,8,12,180,2098.7445790963247,2112.6738824606873,stimuli/224_yb.png,l,13.917570675723255,ambig,0.0412,5.881355932,1.609077116,0.209483997
80,74,1,1,8,13,181,2113.2938374835066,2118.0978299058042,stimuli/131_xb.png,l,4.792246737051755,harmless,0.0412,6.525423729,1.119666394,0.145768149
80,74,1,1,8,14,182,2118.7501193354838,2122.433881830424,stimuli/149_xa.png,l,3.6720880954526365,harmless,0.0412,6.721311475,0.933294301,0.11949609
80,74,1,1,8,15,183,2123.057527589146,2136.769879010506,stimuli/312_yb.png,a,13.700624246615916,ambig,0.0412,4.677966102,2.112692986,0.275049199
80,74,1,1,8,16,184,2137.332171748858,2141.057899774052,stimuli/109_xb.png,l,3.713801170233637,harmless,0.0412,6.644067797,0.97843492,0.127381377
80,74,1,1,8,17,185,2141.629192299675,2144.817902294919,stimuli/124_xa.png,l,3.176827251445502,harmless,0.0412,6.344262295,1.181598436,0.151288177
80,74,1,1,8,18,186,2145.4321414227597,2152.305912818294,stimuli/185_xa.png,l,6.862071002833545,harmless,0.0412,6.5,0.965506805,0.124646393
80,74,1,1,8,19,187,2152.866382441018,2158.20989933284,stimuli/154_xc.png,l,5.331580978818238,harmless,0.0412,6.5,0.965506805,0.124646393
80,74,1,1,8,20,188,2158.8178152544424,2164.553891203832,stimuli/141_xc.png,l,5.724202657584101,harmless,0.0412,6.508474576,1.040107444,0.135410455
80,74,1,1,8,21,189,2165.1217848337255,2168.9778993013315,stimuli/132_xc.png,l,3.844195489306003,harmless,0.0412,6.627118644,0.692280217,0.090127208
80,74,1,1,8,22,190,2169.541559868958,2184.1379022160545,stimuli/280_xb.png,l,14.584445818793029,harmless,0.0412,6.333333333,1.068289726,0.137915611
80,74,1,1,8,23,191,2184.698136711959,2190.089894291945,stimuli/246_ya.png,l,5.380332879256457,ambig,0.0412,5.542372881,1.715266481,0.223308675
80,74,1,1,8,24,192,2190.6647475841455,2195.705919513479,stimuli/336_ya.png,a,5.029482957907021,ambig,0.0412,5.033898305,1.884291705,0.245313885
80,74,1,1,9,1,193,2204.957619355526,2213.0659247911535,stimuli/212_ya.png,l,8.096445534843951,ambig,0.0412,5.677966102,1.490668422,0.194068498
80,74,1,1,9,2,194,2213.6454038112424,2220.601915275678,stimuli/171_xa.png,l,6.9447787762619555,harmless,0.0412,6.465517241,1.046556882,0.137419651
80,74,1,1,9,3,195,2221.173174718395,2229.2340448829345,stimuli/219_ya.png,l,8.049122903961688,ambig,0.0412,5.271186441,1.998538332,0.260187529
80,74,1,1,9,4,196,2229.8963336828165,2233.2181165474467,stimuli/139_xa.png,l,3.3099816469475627,harmless,0.0412,6.724137931,0.790138861,0.103750315
80,74,1,1,9,5,197,2233.8312580250204,2237.2899521873333,stimuli/274_xb.png,l,3.4471863606013358,harmless,0.0412,6.491525424,1.179901828,0.153610134
80,74,1,1,9,6,198,2237.889435854275,2244.0740707190707,stimuli/133_xa.png,l,6.172661929856986,harmless,0.0412,6.568965517,1.186356193,0.1557762
80,74,1,1,9,7,199,2244.6588808456436,2248.2419923124835,stimuli/232_yb.png,a,3.5712909502908587,ambig,0.0412,5.483333333,1.845669845,0.238274952
80,74,1,1,9,8,200,2248.8108544107527,2252.4100151238963,stimuli/135_xa.png,l,3.5872811200097203,harmless,0.0412,6.508474576,1.179901828,0.153610134
80,74,1,1,9,9,201,2253.087218892295,2261.578043055255,stimuli/272_xb.png,l,8.479013492818922,harmless,0.0412,6.355932203,1.029943284,0.134087194
80,74,1,1,9,10,202,2262.156407883391,2266.8899935409427,stimuli/145_xa.png,l,4.721955763176084,harmless,0.0412,6.661016949,0.822321556,0.107057148
80,74,1,1,9,11,203,2267.503318944946,2278.4020444573835,stimuli/118_xb.png,l,10.887133426964283,harmless,0.0412,6.474576271,0.953323265,0.124112118
80,74,1,1,9,12,204,2279.011734657921,2283.8019771096297,stimuli/108_xb.png,l,4.778556630946696,harmless,0.0412,6.568965517,1.077880782,0.141532681
80,74,1,1,9,13,205,2284.388136948459,2310.1860598018393,stimuli/270_yb.png,a,25.786155112553388,ambig,0.0412,5.534482759,1.912246013,0.251090203
80,74,1,1,9,14,206,2310.821113719605,2316.146075319499,stimuli/115_xb.png,l,5.313179680611938,harmless,0.0412,6.440677966,1.021681954,0.133011661
80,74,1,1,9,15,207,2316.780722787138,2320.130029617343,stimuli/156_xc.png,l,3.337604073807597,harmless,0.0412,6.590163934,0.955284411,0.122311635
80,74,1,1,9,16,208,2320.744683859404,2324.938030609861,stimuli/157_xc.png,l,4.181678258813918,harmless,0.0412,6.603448276,0.877389573,0.115206895
80,74,1,1,9,17,209,2325.5109225464985,2329.570071207825,stimuli/166_xa.png,l,4.047241499181837,harmless,0.0412,6.593220339,1.052397002,0.13701042
80,74,1,1,9,18,210,2330.1717493878677,2336.5940745789558,stimuli/289_yb.png,l,6.410594865679741,ambig,0.0412,5.305084746,1.714584873,0.223219937
80,74,1,1,9,19,211,2337.202065725345,2342.650061046239,stimuli/344_za.png,a,5.43625987553969,awful,0.0412,2.711864407,2.043077863,0.265986082
80,74,1,1,9,20,212,2343.244985152036,2352.1941210529767,stimuli/234_xb.png,l,8.937241341453046,harmless,0.0412,6.637931034,0.788030542,0.103473479
80,74,1,1,9,21,213,2352.7952844756655,2357.298131592106,stimuli/288_yb.png,a,4.490629603154957,ambig,0.0412,5.189655172,1.914459262,0.251380817
80,74,1,1,9,22,214,2357.872858853545,2367.266151253134,stimuli/262_ya.png,a,9.381532141938806,ambig,0.0412,5.491525424,1.7750462,0.231091332
80,74,1,1,9,23,215,2367.83217332419,2371.562143864576,stimuli/213_ya.png,l,3.718064559623599,ambig,0.0412,5.98245614,1.597891781,0.211645937
80,74,1,1,9,24,216,2372.134691185318,2377.6101376102306,stimuli/107_xa.png,l,5.464544359128922,harmless,0.0412,6.813559322,0.540580029,0.070377525
80,74,1,1,10,1,217,2386.9266248140484,2393.6501276064664,stimuli/327_zb.png,a,6.71181224565953,awful,0.0412,2.502808989,1.906990248,0.101070281
80,74,1,1,10,2,218,2394.2537718685344,2402.5861346325837,stimuli/189_yb.png,l,8.320009767077863,ambig,0.0412,5.983333333,1.455459234,0.187898979
80,74,1,1,10,3,219,2403.177403448615,2414.586118090898,stimuli/315_yb.png,l,11.39700558455661,ambig,0.0412,5.050847458,1.915667965,0.249398726
80,74,1,1,10,4,220,2415.237605255563,2420.530149346683,stimuli/286_ya.png,a,5.2811260861344635,ambig,0.0412,5.06779661,1.779814082,0.231712057
80,74,1,1,10,5,221,2421.1234897957183,2424.4421490631066,stimuli/150_xc.png,l,3.306758012622595,harmless,0.0412,6.482758621,1.030097582,0.135258439
80,74,1,1,10,6,222,2425.0492556300014,2428.338182634674,stimuli/101_xa.png,l,3.277234094683081,harmless,0.0412,6.508522727,1.13475832,0.060482822
80,74,1,1,10,7,223,2428.9554894333705,2444.8981957891956,stimuli/173_yb.png,l,15.930776744149625,ambig,0.0412,5.796610169,1.242628763,0.161776485
80,74,1,1,10,8,224,2445.471967184916,2449.7942628376186,stimuli/142_xa.png,l,4.310448355041444,harmless,0.0412,6.4,1.076718178,0.139003719
80,74,1,1,10,9,225,2450.3821859271266,2456.058198703453,stimuli/175_xb.png,l,5.664283238351345,harmless,0.0412,6.6,1.028409995,0.13276716
80,74,1,1,10,10,226,2456.6293136044405,2463.114184383303,stimuli/236_yb.png,l,6.473446472082287,ambig,0.0412,5.93442623,1.49297078,0.19115532
80,74,1,1,10,11,227,2463.695222641807,2475.042225863319,stimuli/183_xb.png,l,11.33511575171724,harmless,0.0412,6.448275862,1.095003225,0.143780967
80,74,1,1,10,12,228,2475.6434003137983,2489.2902570245788,stimuli/155_xb.png,l,13.634562397375703,harmless,0.0412,6.655737705,0.892286312,0.114245555
80,74,1,1,10,13,229,2489.9245531810448,2493.154274416622,stimuli/190_xc.png,l,3.2179267131723464,harmless,0.0412,6.517241379,1.046990328,0.137476565
80,74,1,1,10,14,230,2493.7190684741363,2504.5302994023077,stimuli/350_ya.png,a,10.799158743582666,ambig,0.0412,4.915254237,2.02814792,0.264042369
80,74,1,1,10,15,231,2505.0921994755045,2507.8901987350546,stimuli/113_xb.png,l,2.7859239242970943,harmless,0.0412,6.733333333,0.660422737,0.085260209
80,74,1,1,10,16,232,2508.473357069306,2516.250239852816,stimuli/180_xc.png,l,7.765124495141208,harmless,0.0412,6.672131148,0.723908638,0.092687003
80,74,1,1,10,17,233,2516.838632801082,2520.0902329999954,stimuli/169_xc.png,l,3.2395941806025803,harmless,0.0412,6.603448276,0.916508538,0.120343467
80,74,1,1,10,18,234,2520.667255598586,2524.6182803874835,stimuli/278_xb.png,l,3.939074303023517,harmless,0.0412,6.360655738,1.140654591,0.146045855
80,74,1,1,10,19,235,2525.1877273479477,2536.562301796861,stimuli/273_ya.png,l,11.36251408001408,ambig,0.0412,5.551724138,1.836973233,0.241206403
80,74,1,1,10,20,236,2537.1349235544913,2550.0503068068065,stimuli/167_xb.png,l,12.903456003405154,harmless,0.0412,6.590163934,0.955284411,0.122311635
80,74,1,1,10,21,237,2550.610129339155,2555.490301922895,stimuli/110_xa.png,l,4.868218159303069,harmless,0.0412,6.428571429,1.059281795,0.141552484
80,74,1,1,10,22,238,2556.11303356383,2559.0582885006443,stimuli/125_xc.png,l,2.9335167347453535,harmless,0.0412,6.683333333,0.999858747,0.129081209
80,74,1,1,10,23,239,2559.667788472958,2579.690356667619,stimuli/335_yb.png,a,20.010731924325228,ambig,0.0412,5.016949153,2.046793332,0.266469795
80,74,1,1,10,24,240,2580.3155234614387,2590.1383913732134,stimuli/187_xc.png,l,9.811132072471082,harmless,0.0412,6.224137931,1.185335891,0.155642228
