id,age,condition,counterbalance,block,trialinblock,trial,tstart,tend,trialstim,response,RT,trialtype,ethicfreq,norm_mean,norm_sd,norm_se
157,21,0,2,0,0,practice,3.5446137189865112e-06,8.65581332333386,stimuli/prac_217_1.png,l,8.641262291930616,harmless,NA,NA,NA,NA
157,21,0,2,1,1,1,4.782115377951413,17.20784982177429,stimuli/244_xb.png,a,12.413844629307278,harmless,0.333,6.610169492,0.743174671,0.096753101
157,21,0,2,1,2,2,17.8059060346568,25.111851453897543,stimuli/178_xa.png,l,7.294275370775722,harmless,0.333,6.483333333,1.112207557,0.143585378
157,21,0,2,1,3,3,25.703464347519912,38.287830082233995,stimuli/324_za.png,l,12.572677963180467,awful,0.333,2.491525424,1.994586478,0.259673041
157,21,0,2,1,4,4,38.86817228712607,47.43984870018903,stimuli/169_xc.png,l,8.559764937032014,harmless,0.333,6.603448276,0.916508538,0.120343467
157,21,0,2,1,5,5,48.02023777260911,63.991847389377654,stimuli/330_ya.png,l,15.959731617593206,ambig,0.333,4.796610169,2.049219036,0.266785595
157,21,0,2,1,6,6,64.55934706644621,70.78381600463763,stimuli/168_xa.png,l,6.212384169921279,harmless,0.333,6.474576271,1.164946827,0.151663159
157,21,0,2,1,7,7,71.38362522562966,83.52784057427198,stimuli/347_zb.png,l,12.132450777105987,awful,0.333,3.796610169,2.147810923,0.279621165
157,21,0,2,1,8,8,84.09953234728891,90.74383867438883,stimuli/105_xa.png,l,6.632785546127707,harmless,0.333,6.557377049,1.088187946,0.139328189
157,21,0,2,1,9,9,91.33284824644215,100.56780648301356,stimuli/237_ya.png,l,9.223200360429473,ambig,0.333,4.305084746,2.019339575,0.26289562
157,21,0,2,1,10,10,101.15072562173009,108.135829581297,stimuli/369_za.png,a,6.973138920497149,awful,0.333,2.948275862,2.055565093,0.26990892
157,21,0,2,1,11,11,108.76840087526944,121.28777691302821,stimuli/219_ya.png,a,12.507791453856044,ambig,0.333,5.271186441,1.998538332,0.260187529
157,21,0,2,1,12,12,121.85610484809149,128.51976515748538,stimuli/368_za.png,a,6.6519878978142515,awful,0.333,3.590163934,2.02794682,0.259651984
157,21,0,2,1,13,13,129.11567333468702,136.6397782805143,stimuli/270_yb.png,l,7.5122430943883955,ambig,0.333,5.534482759,1.912246013,0.251090203
157,21,0,2,1,14,14,137.2123132776469,147.86374782200437,stimuli/345_zb.png,l,10.639623892842792,awful,0.333,3.694915254,2.191317013,0.285285176
157,21,0,2,1,15,15,148.47929945832584,166.9678235759493,stimuli/279_ya.png,l,18.476808776846156,ambig,0.333,5.31147541,1.970964092,0.252356093
157,21,0,2,1,16,16,167.5814339456847,174.97575996501837,stimuli/214_xb.png,l,7.382300327997655,harmless,0.333,6.465517241,0.940614156,0.12350869
157,21,0,2,1,17,17,175.54496026877314,183.11173054319806,stimuli/317_za.png,l,7.554687869269401,awful,0.333,3.65,2.03215674,0.262350307
157,21,0,2,1,18,18,183.71840568014886,191.4557159645483,stimuli/181_xa.png,l,7.725268051493913,harmless,0.333,6.666666667,0.950765377,0.122743282
157,21,0,2,1,19,19,192.07112266565673,197.4797901903512,stimuli/139_xa.png,l,5.3967170579126105,harmless,0.333,6.724137931,0.790138861,0.103750315
157,21,0,2,1,20,20,198.18549788428936,203.89575528621208,stimuli/254_ya.png,l,5.6985172488493845,ambig,0.333,5.983606557,1.627798137,0.208418195
157,21,0,2,1,21,21,204.46616469684523,242.03175343351904,stimuli/355_zb.png,l,37.55369380209595,awful,0.333,3.183333333,2.070713188,0.267327923
157,21,0,2,1,22,22,242.60336604353506,253.05572959163692,stimuli/346_zb.png,a,10.44055565353483,awful,0.333,1.288135593,0.983499162,0.128040685
157,21,0,2,1,23,23,253.71643920755014,262.3837134471396,stimuli/213_ya.png,l,8.655515969614498,ambig,0.333,5.98245614,1.597891781,0.211645937
157,21,0,2,1,24,24,262.9917855556123,275.9837121081073,stimuli/284_ya.png,a,12.98022145172581,ambig,0.333,5.948275862,1.431750417,0.18799804
157,21,0,2,2,1,25,285.1664467693772,294.4397226694273,stimuli/125_xc.png,l,9.261428227066062,harmless,0.333,6.683333333,0.999858747,0.129081209
157,21,0,2,2,2,26,295.0868264840683,301.6396861205576,stimuli/177_xb.png,l,6.541146658826619,harmless,0.333,6.482758621,1.063614811,0.139659467
157,21,0,2,2,3,27,302.21298202802427,308.9996632616967,stimuli/243_ya.png,a,6.774838680634275,ambig,0.333,5.830508475,1.652088985,0.215083666
157,21,0,2,2,4,28,309.6003566668369,344.8076724335551,stimuli/251_ya.png,l,35.19499469094444,ambig,0.333,5.655172414,1.792300532,0.235340589
157,21,0,2,2,5,29,345.3788222746225,358.775626766379,stimuli/195_xc.png,l,13.38485875108745,harmless,0.333,6.637640449,1.001766915,0.05309354
157,21,0,2,2,6,30,359.3429283389123,364.19963931583334,stimuli/117_xc.png,l,4.844706947100349,harmless,0.333,6.627118644,0.868972939,0.113130641
157,21,0,2,2,7,31,364.81924992834684,372.87161843886133,stimuli/340_za.png,a,8.04081504046917,awful,0.333,2.508474576,1.832398855,0.238558011
157,21,0,2,2,8,32,373.44815569825005,388.37563881801907,stimuli/153_xb.png,l,14.91549484373536,harmless,0.333,6.633333333,0.973664521,0.125699549
157,21,0,2,2,9,33,388.9635582246119,395.22365485865157,stimuli/208_xb.png,l,6.248608936206438,harmless,0.333,6.216666667,1.165778516,0.150501359
157,21,0,2,2,10,34,395.80778507352807,403.99960142793134,stimuli/372_zb.png,a,8.179977739811875,awful,0.333,2.796610169,2.082601664,0.271131643
157,21,0,2,2,11,35,404.5723317726515,412.1116222356213,stimuli/360_za.png,a,7.528296647942625,awful,0.333,3.2,2.207844259,0.285031468
157,21,0,2,2,12,36,412.75723888806533,418.3196118726628,stimuli/113_xb.png,l,5.550923489849083,harmless,0.333,6.733333333,0.660422737,0.085260209
157,21,0,2,2,13,37,418.8853672061814,424.81563717965037,stimuli/292_zb.png,a,5.9184085158631206,awful,0.333,2.396551724,1.955107169,0.256718148
157,21,0,2,2,14,38,425.47035364212934,435.07959626067895,stimuli/194_xb.png,l,9.597263007191941,harmless,0.333,6.586206897,1.026567825,0.134794959
157,21,0,2,2,15,39,435.7214268721873,442.1596025149338,stimuli/248_zb.png,a,6.426031403709203,awful,0.333,3.288135593,1.991800844,0.259310383
157,21,0,2,2,16,40,442.7606484121643,449.92760009202175,stimuli/192_za.png,a,7.154906296171248,awful,0.333,2.68852459,2.093967396,0.268105052
157,21,0,2,2,17,41,450.5081321306061,458.9675636376487,stimuli/223_yb.png,l,8.447682689409703,ambig,0.333,5.542372881,1.77455224,0.231027024
157,21,0,2,2,18,42,459.58399394422304,467.92760245501995,stimuli/326_zb.png,a,8.331934130052105,awful,0.333,3.389830508,2.220724867,0.289113752
157,21,0,2,2,19,43,468.5295412009582,479.1357193044387,stimuli/291_za.png,l,10.59390704613179,awful,0.333,2.593220339,1.830005126,0.238246374
157,21,0,2,2,20,44,479.78010203759186,497.7275771701243,stimuli/222_ya.png,l,17.93579090561252,ambig,0.333,5.931034483,1.543089507,0.202617579
157,21,0,2,2,21,45,498.3375098067336,506.30354059603997,stimuli/262_ya.png,l,7.954278427059762,ambig,0.333,5.491525424,1.7750462,0.231091332
157,21,0,2,2,22,46,506.9222835658584,593.4077120545553,stimuli/309_ya.png,l,86.47329212655313,ambig,0.333,4.706896552,1.946734744,0.255618795
157,21,0,2,2,23,47,593.9834458682453,602.1914500776911,stimuli/247_ya.png,l,8.196041927323677,ambig,0.333,4.65,2.081598147,0.268733165
157,21,0,2,2,24,48,602.7619299867656,608.767593884957,stimuli/200_ya.png,l,5.993616545340046,ambig,0.333,5.862068966,1.444266048,0.189641423
157,21,0,2,3,1,49,617.8669714508578,625.0234554938506,stimuli/328_za.png,l,7.144881342188455,awful,0.333,2.706896552,1.955725922,0.256799395
157,21,0,2,3,2,50,625.6288663854357,637.7675060572801,stimuli/142_xa.png,l,12.127068872563541,harmless,0.333,6.4,1.076718178,0.139003719
157,21,0,2,3,3,51,638.3417664935114,647.3835929302732,stimuli/271_ya.png,l,9.029979551560245,ambig,0.333,5.711864407,1.771915459,0.230683744
157,21,0,2,3,4,52,647.9564441856928,653.8234668365913,stimuli/299_za.png,a,5.855335667030886,awful,0.333,1.288135593,0.929420425,0.121000233
157,21,0,2,3,5,53,654.4843647107482,670.8956580061931,stimuli/335_yb.png,l,16.39917111187242,ambig,0.333,5.016949153,2.046793332,0.266469795
157,21,0,2,3,6,54,671.4676924252417,678.2714472734369,stimuli/258_ya.png,l,6.791700799949467,ambig,0.333,5.627118644,1.78014243,0.231754804
157,21,0,2,3,7,55,678.8448900855146,765.3914481871761,stimuli/189_yb.png,l,86.5348715117434,ambig,0.333,5.983333333,1.455459234,0.187898979
157,21,0,2,3,8,56,766.0555417272262,772.2873708578991,stimuli/145_xa.png,l,6.219859365490265,harmless,0.333,6.661016949,0.822321556,0.107057148
157,21,0,2,3,9,57,772.8797915294999,778.815437499783,stimuli/187_xc.png,l,5.923529694438912,harmless,0.333,6.224137931,1.185335891,0.155642228
157,21,0,2,3,10,58,779.3934658598155,785.1753862840123,stimuli/274_xb.png,l,5.77003257884644,harmless,0.333,6.491525424,1.179901828,0.153610134
157,21,0,2,3,11,59,785.7473383892793,793.4233713683207,stimuli/300_za.png,l,7.664608296588995,awful,0.333,3.75,2.12032137,0.273732312
157,21,0,2,3,12,60,793.9937567544403,799.5994212827645,stimuli/316_za.png,a,5.593979513738304,awful,0.333,2.344827586,1.802062407,0.236622386
157,21,0,2,3,13,61,800.1754469362786,817.4474062095396,stimuli/308_zb.png,a,17.26000053563621,awful,0.333,1.644067797,1.471132708,0.191525165
157,21,0,2,3,14,62,818.0346320533426,823.7594014959177,stimuli/165_xb.png,l,5.712928464985453,harmless,0.333,6.557377049,1.008705278,0.129151477
157,21,0,2,3,15,63,824.3249441526132,867.8153425828787,stimuli/159_xa.png,l,43.47848774190061,harmless,0.333,6.389830508,1.174689235,0.152931512
157,21,0,2,3,16,64,868.415003717877,878.0713514900999,stimuli/230_yb.png,a,9.644767126766965,ambig,0.333,4.98245614,1.875511626,0.248417583
157,21,0,2,3,17,65,878.6726876518223,883.903358481708,stimuli/315_yb.png,l,5.218689643079415,ambig,0.333,5.050847458,1.915667965,0.249398726
157,21,0,2,3,18,66,884.4696415687213,906.0473446119577,stimuli/173_yb.png,l,21.565826619509608,ambig,0.333,5.796610169,1.242628763,0.161776485
157,21,0,2,3,19,67,906.6223549307324,918.5913494105916,stimuli/273_ya.png,a,11.957068825373426,ambig,0.333,5.551724138,1.836973233,0.241206403
157,21,0,2,3,20,68,919.1542958349455,932.8152965029003,stimuli/333_za.png,l,13.649166385643184,awful,0.333,3.266666667,2.185209657,0.282109354
157,21,0,2,3,21,69,933.4182911497774,939.1354172246065,stimuli/371_zb.png,a,5.703997221076861,awful,0.333,3.131147541,2.085468851,0.267016925
157,21,0,2,3,22,70,939.7145574117312,948.199320300715,stimuli/143_xb.png,l,8.47279588074889,harmless,0.333,6.655172414,0.738697862,0.096995781
157,21,0,2,3,23,71,948.779020930524,998.111334728077,stimuli/227_xa.png,a,49.320112450863235,harmless,0.333,6.180327869,1.05685377,0.135316259
157,21,0,2,3,24,72,998.6740613863803,1003.5913029367803,stimuli/313_zb.png,a,4.905567563488148,awful,0.333,2.101694915,1.688652955,0.219843889
157,21,0,2,4,1,73,1012.9638929936336,1027.5592572696041,stimuli/293_zb.png,a,14.583768664393574,awful,0.333,3.677966102,2.169066842,0.28238845
157,21,0,2,4,2,74,1028.138665271923,1033.2231987850973,stimuli/161_xc.png,l,5.072552326368168,harmless,0.333,6.796610169,0.609682252,0.079373868
157,21,0,2,4,3,75,1033.817142852582,1040.7271990780719,stimuli/265_yb.png,a,6.898400749312714,ambig,0.333,5.627118644,1.856008928,0.241631781
157,21,0,2,4,4,76,1041.2991846601944,1053.4232925991528,stimuli/352_zb.png,a,12.112143293721601,awful,0.333,2.93442623,2.135952968,0.273480754
157,21,0,2,4,5,77,1053.998107176507,1059.2312127618352,stimuli/120_xa.png,l,5.2212835123064,harmless,0.333,6.440677966,1.054893138,0.137335389
157,21,0,2,4,6,78,1059.7913699693745,1065.8872084358009,stimuli/318_za.png,l,6.0838836673647165,awful,0.333,3.06557377,2.197489875,0.281359747
157,21,0,2,4,7,79,1066.4569219207624,1076.3112135023111,stimuli/319_ya.png,a,9.842334813205525,ambig,0.333,4.216666667,2.108028774,0.272145344
157,21,0,2,4,8,80,1076.9060441170586,1086.1751814841991,stimuli/349_za.png,a,9.257127035758458,awful,0.333,3.288135593,2.101320172,0.273568585
157,21,0,2,4,9,81,1086.795967332786,1128.6232647148427,stimuli/152_xa.png,l,41.815556835150346,harmless,0.333,6.576271186,0.968528743,0.126091702
157,21,0,2,4,10,82,1129.2231995727634,1136.8311960627325,stimuli/344_za.png,a,7.596370552200824,awful,0.333,2.711864407,2.043077863,0.265986082
157,21,0,2,4,11,83,1137.4002624589484,1142.8711485806853,stimuli/133_xa.png,l,5.458974645705894,harmless,0.333,6.568965517,1.186356193,0.1557762
157,21,0,2,4,12,84,1143.441010939423,1202.6232135149185,stimuli/106_xc.png,l,59.170339936274104,harmless,0.333,6.661016949,0.863237081,0.112383896
157,21,0,2,4,13,85,1203.221924299607,1213.5911343707703,stimuli/188_xa.png,l,10.357436834950931,harmless,0.333,6.655172414,0.806807095,0.105938962
157,21,0,2,4,14,86,1214.2047179590445,1220.799153546337,stimuli/217_yb.png,a,6.5825957912020385,ambig,0.333,5.169491525,2.001314588,0.260548967
157,21,0,2,4,15,87,1221.4169823997654,1228.1751263457118,stimuli/108_xb.png,l,6.746419546660036,harmless,0.333,6.568965517,1.077880782,0.141532681
157,21,0,2,4,16,88,1228.7928421654506,1234.0471094859531,stimuli/229_za.png,a,5.24197420780547,awful,0.333,3.406779661,2.043649913,0.266060557
157,21,0,2,4,17,89,1234.6384691366693,1241.34311935422,stimuli/212_ya.png,l,6.692520944750868,ambig,0.333,5.677966102,1.490668422,0.194068498
157,21,0,2,4,18,90,1241.9944349571597,1283.8791538928635,stimuli/210_yb.png,l,41.87303825339768,ambig,0.333,5.557377049,1.76564049,0.226067099
157,21,0,2,4,19,91,1284.4619812655728,1287.871087928419,stimuli/331_za.png,a,3.397431888268329,awful,0.333,1.983606557,1.638004917,0.209725039
157,21,0,2,4,20,92,1288.4510815796675,1295.2230621204944,stimuli/207_yb.png,a,6.760074972524308,ambig,0.333,5.655737705,1.662179753,0.212820309
157,21,0,2,4,21,93,1295.7924305964261,1299.0070722912205,stimuli/232_yb.png,a,3.202749517164193,ambig,0.333,5.483333333,1.845669845,0.238274952
157,21,0,2,4,22,94,1299.6579211866483,1335.6231197795132,stimuli/234_xb.png,a,35.95335249521304,harmless,0.333,6.637931034,0.788030542,0.103473479
157,21,0,2,4,23,95,1336.2036667842185,1341.0630251935218,stimuli/236_yb.png,l,4.8474910439690575,ambig,0.333,5.93442623,1.49297078,0.19115532
157,21,0,2,4,24,96,1341.7123266684357,1346.16702493513,stimuli/337_zb.png,a,4.442672575358301,awful,0.333,3.033333333,2.20143764,0.284204377
157,21,0,2,5,1,97,1355.3415435766801,1362.3350585097214,stimuli/253_ya.png,l,6.98188545065932,ambig,0.333,5.491803279,1.849531029,0.236808182
157,21,0,2,5,2,98,1362.894475286943,1370.7910277172923,stimuli/240_xa.png,l,7.884384560631588,harmless,0.333,6.482758621,1.096107616,0.143925981
157,21,0,2,5,3,99,1371.3640699880198,1378.5430237284163,stimuli/354_zb.png,a,7.167119852034375,awful,0.333,2,1.701925887,0.221571878
157,21,0,2,5,4,100,1379.1434717675438,1390.8630499270512,stimuli/334_za.png,a,11.70759854814969,awful,0.333,3.333333333,2.214487481,0.285889104
157,21,0,2,5,5,101,1391.4520059360657,1394.3510238418821,stimuli/191_ya.png,a,2.8870489282999188,ambig,0.333,5.517241379,2.062542966,0.270825159
157,21,0,2,5,6,102,1394.9393839619588,1399.3589937079232,stimuli/134_xc.png,l,4.407702996046282,harmless,0.333,6.516666667,0.965360505,0.124627505
157,21,0,2,5,7,103,1399.9360421793535,1409.7270116073778,stimuli/211_zb.png,l,9.779573102481663,awful,0.333,3.983333333,2.127237938,0.274625237
157,21,0,2,5,8,104,1410.3374507297995,1419.5189991272055,stimuli/110_xa.png,l,9.169665672117844,harmless,0.333,6.428571429,1.059281795,0.141552484
157,21,0,2,5,9,105,1420.1087349511217,1424.6951093000825,stimuli/186_xa.png,l,4.5746787005336955,harmless,0.333,6.65,0.879618561,0.113558268
157,21,0,2,5,10,106,1425.3112072007498,1431.1589451860636,stimuli/327_zb.png,a,5.835966718383133,awful,0.333,2.502808989,1.906990248,0.101070281
157,21,0,2,5,11,107,1431.7835537032224,1440.1109467898495,stimuli/288_yb.png,a,8.31577463191934,ambig,0.333,5.189655172,1.914459262,0.251380817
157,21,0,2,5,12,108,1440.7222027487587,1444.4549960142467,stimuli/199_za.png,a,3.7209018756402656,awful,0.333,3.033898305,2.189048775,0.284989876
157,21,0,2,5,13,109,1445.0295195394428,1450.4389680606546,stimuli/160_xb.png,l,5.397490177536383,harmless,0.333,6.666666667,0.680644427,0.087870818
157,21,0,2,5,14,110,1451.0581623779144,1460.3590059170965,stimuli/205_yb.png,l,9.288939940044656,ambig,0.333,5.847457627,1.52918233,0.199082582
157,21,0,2,5,15,111,1460.9734244587598,1469.6389527794672,stimuli/264_xa.png,l,8.653893324546516,harmless,0.333,6.533333333,0.947193297,0.122282129
157,21,0,2,5,16,112,1470.2338420771994,1480.5349959670566,stimuli/218_yb.png,l,10.289364112191834,ambig,0.333,5.850282486,1.552723069,0.0825263
157,21,0,2,5,17,113,1481.0950235992204,1490.3589960709214,stimuli/362_zb.png,a,9.252014915691689,awful,0.333,1.474576271,1.222715071,0.159183944
157,21,0,2,5,18,114,1490.9246746044373,1497.9030489188153,stimuli/325_yb.png,l,6.966592019773088,ambig,0.333,5.131147541,1.811770863,0.231973488
157,21,0,2,5,19,115,1498.494057258824,1504.9589529841905,stimuli/202_yb.png,a,6.453263879870065,ambig,0.333,5.431034483,1.892849601,0.248543329
157,21,0,2,5,20,116,1505.5412864740938,1511.438934977632,stimuli/341_zb.png,a,5.88589653512463,awful,0.333,3.603448276,2.15975677,0.283589957
157,21,0,2,5,21,117,1512.056722871028,1517.3989450442605,stimuli/257_yb.png,l,5.330189786385745,ambig,0.333,5.620689655,1.843219782,0.242026615
157,21,0,2,5,22,118,1517.9990685543744,1523.1989760793513,stimuli/297_za.png,a,5.188052762765437,awful,0.333,1.898305085,1.446695584,0.188343723
157,21,0,2,5,23,119,1523.7960701265838,1529.9349464999977,stimuli/171_xa.png,l,6.126777426688932,harmless,0.333,6.465517241,1.046556882,0.137419651
157,21,0,2,5,24,120,1530.541618880001,1539.0389163092477,stimuli/179_xb.png,l,8.485485990066081,harmless,0.333,6.704918033,0.882123617,0.112944356
157,21,0,2,6,1,121,1548.018038537004,1554.9272546891589,stimuli/281_ya.png,l,6.8971766761969775,ambig,0.333,5.881355932,1.543448286,0.200939852
157,21,0,2,6,2,122,1555.5322323502041,1560.1429388939869,stimuli/201_yb.png,l,4.598939609248191,ambig,0.333,5.898305085,1.626238682,0.211718243
157,21,0,2,6,3,123,1560.7768520209938,1569.4149824501947,stimuli/361_za.png,a,8.625964922481216,awful,0.333,2.416666667,1.907093508,0.246204713
157,21,0,2,6,4,124,1569.989353950834,1575.1109385190066,stimuli/239_ya.png,l,5.109800698119216,ambig,0.333,5.157894737,1.925296579,0.255011762
157,21,0,2,6,5,125,1575.6695234936196,1584.1589357337216,stimuli/225_ya.png,l,8.477628370048478,ambig,0.333,5.85,1.792876677,0.231459384
157,21,0,2,6,6,126,1584.7968231600244,1587.7509219932836,stimuli/320_za.png,a,2.9422558863880113,awful,0.333,1.423728814,1.117314975,0.14546202
157,21,0,2,6,7,127,1588.378838816192,1594.2389120557345,stimuli/348_za.png,a,5.847999498946592,awful,0.333,3.084745763,2.119597681,0.275948114
157,21,0,2,6,8,128,1594.8564313463867,1599.9429884398123,stimuli/259_xc.png,l,5.0748614449985325,harmless,0.333,6.568965517,0.993170874,0.130409725
157,21,0,2,6,9,129,1600.5370475103846,1604.7268867582316,stimuli/329_zb.png,a,4.178069162531756,awful,0.333,2.406779661,1.992387617,0.259386774
157,21,0,2,6,10,130,1605.3280519908294,1625.862891600933,stimuli/172_xb.png,l,20.52300966018811,harmless,0.333,6.482758621,1.127664553,0.14806961
157,21,0,2,6,11,131,1626.4801147193648,1630.022879297263,stimuli/338_zb.png,a,3.531132732401602,awful,0.333,3.310344828,2.137443107,0.28066003
157,21,0,2,6,12,132,1630.663412974216,1637.7508778825868,stimuli/118_xb.png,l,7.075588878476992,harmless,0.333,6.474576271,0.953323265,0.124112118
157,21,0,2,6,13,133,1638.346108644735,1648.5989612707635,stimuli/365_zb.png,a,10.240782823879272,awful,0.333,2.966101695,2.165291266,0.281896912
157,21,0,2,6,14,134,1649.1603626376018,1655.270833267714,stimuli/350_ya.png,l,6.098530403338373,ambig,0.333,4.915254237,2.02814792,0.264042369
157,21,0,2,6,15,135,1655.9025774851907,1660.2149465314578,stimuli/162_xa.png,l,4.3003197241341695,harmless,0.333,6.644067797,0.905209289,0.117848212
157,21,0,2,6,16,136,1660.8448699993314,1667.9429443291156,stimuli/198_yb.png,l,7.086202238337137,ambig,0.333,5.101694915,1.83542643,0.238952168
157,21,0,2,6,17,137,1668.540705551277,1675.5188762473408,stimuli/102_xc.png,l,6.966606592060998,harmless,0.333,6.66011236,0.937292468,0.049676401
157,21,0,2,6,18,138,1676.094708916382,1679.5108555750921,stimuli/298_za.png,a,3.4037472076015547,awful,0.333,2.881355932,2.026418156,0.263817173
157,21,0,2,6,19,139,1680.0907133495202,1687.1588482999941,stimuli/263_ya.png,l,7.056428274372593,ambig,0.333,4.983050847,2.071910042,0.269739712
157,21,0,2,6,20,140,1687.7870230919216,1694.3828422599472,stimuli/104_xc.png,l,6.583882485865615,harmless,0.333,6.745762712,0.756425814,0.098478253
157,21,0,2,6,21,141,1694.9785062526353,1701.6947910726303,stimuli/255_xb.png,l,6.704536002245732,harmless,0.333,6.770491803,0.642740036,0.082294429
157,21,0,2,6,22,142,1702.2659097998403,1712.6068129830528,stimuli/238_xb.png,l,10.32878651341889,harmless,0.333,6.4,1.076718178,0.139003719
157,21,0,2,6,23,143,1713.1746726352721,1718.3988316166215,stimuli/287_ya.png,l,5.212180157657713,ambig,0.333,5.950819672,1.407435369,0.180203633
157,21,0,2,6,24,144,1718.9795534890145,1729.4708250756375,stimuli/269_za.png,a,10.47939476906322,awful,0.333,3.457627119,2.119873401,0.27598401
157,21,0,2,7,1,145,1738.497712149052,1742.1428514602594,stimuli/233_yb.png,l,3.6335279458435252,ambig,0.333,5.318309859,1.922973646,0.102060844
157,21,0,2,7,2,146,1742.7079108678736,1754.2468196941772,stimuli/296_yb.png,a,11.5268583225552,ambig,0.333,4.229508197,2.052587332,0.262806878
157,21,0,2,7,3,147,1754.8254309461918,1758.6867739449954,stimuli/301_za.png,a,3.8494716950226575,awful,0.333,3.610169492,2.212947396,0.288101212
157,21,0,2,7,4,148,1759.2617393654073,1767.3587975726696,stimuli/245_yb.png,l,8.085203051217832,ambig,0.333,4.949152542,2.096168334,0.272897873
157,21,0,2,7,5,149,1767.9279391933233,1775.7348585935542,stimuli/322_za.png,l,7.794916158076376,awful,0.333,2.406779661,1.975004531,0.257123689
157,21,0,2,7,6,150,1776.3629203516757,1781.598830120056,stimuli/332_zb.png,a,5.2245654304279014,awful,0.333,2.694915254,2.002190501,0.260663001
157,21,0,2,7,7,151,1782.2190823074197,1795.374916898436,stimuli/235_ya.png,l,13.144157847040333,ambig,0.333,5.694915254,1.567495667,0.204070554
157,21,0,2,7,8,152,1795.9804372792132,1799.6307639350416,stimuli/158_xa.png,l,3.638695598114282,harmless,0.333,6.786885246,0.661179605,0.084655374
157,21,0,2,7,9,153,1800.1892677773722,1806.8867964730598,stimuli/277_yb.png,l,6.685816505691037,ambig,0.333,5.491525424,2.02886822,0.264136144
157,21,0,2,7,10,154,1807.5164064394776,1815.4627788035432,stimuli/209_ya.png,l,7.934354155790061,ambig,0.333,5.603448276,1.825161903,0.239655499
157,21,0,2,7,11,155,1816.0770988836884,1821.1988630455453,stimuli/353_zb.png,a,5.110186273348518,awful,0.333,1.949152542,1.623361018,0.211343603
157,21,0,2,7,12,156,1821.8314741180511,1828.814725426375,stimuli/358_za.png,l,6.971377641544677,awful,0.333,3.949152542,2.112554662,0.275031191
157,21,0,2,7,13,157,1829.3843802282354,1840.1347405973356,stimuli/283_yb.png,l,10.738420536159538,ambig,0.333,5.949152542,1.478859402,0.192531095
157,21,0,2,7,14,158,1840.7580250045285,1867.5268055471824,stimuli/116_xa.png,l,26.756633940618485,harmless,0.333,6.63559322,0.958030802,0.050918763
157,21,0,2,7,15,159,1868.1447753974935,1872.6387657026062,stimuli/123_xc.png,l,4.48232301347889,harmless,0.333,6.491525424,1.023396666,0.133234897
157,21,0,2,7,16,160,1873.2501756552374,1878.9907324116211,stimuli/275_yb.png,l,5.728919790941291,ambig,0.333,4.836065574,2.138382004,0.27379176
157,21,0,2,7,17,161,1879.598434698768,1886.1507429509657,stimuli/302_za.png,l,6.539863114943728,awful,0.333,3.137931034,2.188071937,0.287307921
157,21,0,2,7,18,162,1886.769929391332,1893.9107643603347,stimuli/357_za.png,a,7.129102692939341,awful,0.333,2.793103448,2.066937905,0.271402243
157,21,0,2,7,19,163,1894.5092242653482,1903.3267652961658,stimuli/252_zb.png,a,8.805735893198289,awful,0.333,2.711864407,1.983125776,0.258180985
157,21,0,2,7,20,164,1903.9405198135646,1911.3667209648993,stimuli/196_xb.png,l,7.414502352126874,harmless,0.333,6.594366197,0.982313556,0.05213579
157,21,0,2,7,21,165,1911.9513844471658,1918.2387521542842,stimuli/115_xb.png,l,6.274492490105331,harmless,0.333,6.440677966,1.021681954,0.133011661
157,21,0,2,7,22,166,1918.8814551346004,1927.0786849012366,stimuli/114_xc.png,l,8.185376973589882,harmless,0.333,6.644067797,0.97843492,0.127381377
157,21,0,2,7,23,167,1927.6718231600244,1932.1426864387468,stimuli/128_xc.png,l,4.458804110530764,harmless,0.333,6.627118644,0.98082135,0.127692063
157,21,0,2,7,24,168,1932.7956246868707,1935.4706655681366,stimuli/184_xb.png,l,2.6630459098378196,harmless,0.333,6.508474576,1.194425,0.15550089
157,21,0,2,8,1,169,1949.798140968429,1961.7826612483477,stimuli/363_zb.png,l,11.973010920570232,awful,0.333,2.433333333,2.019956927,0.260775318
157,21,0,2,8,2,170,1962.357704650145,1978.8867299130652,stimuli/129_xa.png,l,16.517195706721395,harmless,0.333,6.770491803,0.642740036,0.082294429
157,21,0,2,8,3,171,1979.5294226533733,1985.862683650339,stimuli/364_za.png,l,6.3203735707793385,awful,0.333,1.677966102,1.279017376,0.166513879
157,21,0,2,8,4,172,1986.4724930131342,1997.9987168499501,stimuli/163_xa.png,a,11.514287154655904,harmless,0.333,6.627118644,0.963082427,0.125382652
157,21,0,2,8,5,173,1998.6412118796725,2005.422641571844,stimuli/226_yb.png,l,6.76924094860442,ambig,0.333,5.683333333,1.712285287,0.22105508
157,21,0,2,8,6,174,2006.0618787080748,2010.5426456363639,stimuli/111_xa.png,l,4.469169741380028,harmless,0.333,6.590163934,0.863655973,0.110579816
157,21,0,2,8,7,175,2011.1901389645645,2024.0786884458503,stimuli/336_ya.png,l,12.87681366049219,ambig,0.333,5.033898305,1.884291705,0.245313885
157,21,0,2,8,8,176,2024.7220499365358,2071.4546281622024,stimuli/228_ya.png,l,46.72055568511132,ambig,0.333,5.442622951,1.793735303,0.229664272
157,21,0,2,8,9,177,2072.0729788615135,2079.102629157831,stimuli/268_zb.png,a,7.017873909440823,awful,0.333,2.655737705,2.048456703,0.262278005
157,21,0,2,8,10,178,2079.724315338186,2082.966581385932,stimuli/295_za.png,a,3.2298307565506548,awful,0.333,2.3,1.825432384,0.235662307
157,21,0,2,8,11,179,2083.530739674112,2089.3826197370654,stimuli/149_xa.png,l,5.839799233130179,harmless,0.333,6.721311475,0.933294301,0.11949609
157,21,0,2,8,12,180,2090.0024225462694,2103.4625850312877,stimuli/307_za.png,l,13.44845935353078,awful,0.333,2.93220339,2.172432347,0.282826601
157,21,0,2,8,13,181,2104.0865421273047,2126.6386054073228,stimuli/342_yb.png,l,22.540546831442043,ambig,0.333,4.916666667,2.085394461,0.269223267
157,21,0,2,8,14,182,2127.266492297873,2134.15058935096,stimuli/290_zb.png,a,6.872356900013983,awful,0.333,2.586206897,2.026443456,0.266085062
157,21,0,2,8,15,183,2134.705535189365,2138.11058957153,stimuli/180_xc.png,l,3.393074376974255,harmless,0.333,6.672131148,0.723908638,0.092687003
157,21,0,2,8,16,184,2138.767134266789,2144.102564173285,stimuli/141_xc.png,l,5.323701174929738,harmless,0.333,6.508474576,1.040107444,0.135410455
157,21,0,2,8,17,185,2144.7587477117777,2158.1425860080635,stimuli/303_zb.png,l,13.372056001797318,awful,0.333,3.620689655,2.158846233,0.283470398
157,21,0,2,8,18,186,2158.7028956339927,2189.174624586012,stimuli/339_ya.png,a,30.45971468219068,ambig,0.333,4.949152542,1.960152429,0.25519011
157,21,0,2,8,19,187,2189.7773132146103,2193.0545515984995,stimuli/343_zb.png,a,3.2651843356434256,awful,0.333,3.103448276,2.141401862,0.28117984
157,21,0,2,8,20,188,2193.6568113288376,2204.750532479724,stimuli/250_yb.png,l,11.081947914673947,ambig,0.333,5.950819672,1.585625318,0.203018519
157,21,0,2,8,21,189,2205.3706901440164,2211.6384907981846,stimuli/176_xb.png,l,6.255880513461307,harmless,0.333,6.796610169,0.517942249,0.067430337
157,21,0,2,8,22,190,2212.209046719596,2219.1745915029896,stimuli/246_ya.png,l,6.953855436528102,ambig,0.333,5.542372881,1.715266481,0.223308675
157,21,0,2,8,23,191,2219.800233865739,2226.702535658842,stimuli/221_xb.png,l,6.890112261869945,harmless,0.333,6.440677966,1.133672495,0.147591588
157,21,0,2,8,24,192,2227.2706930584973,2250.7904771206668,stimuli/286_ya.png,l,23.507915909169242,ambig,0.333,5.06779661,1.779814082,0.231712057
157,21,0,2,9,1,193,2267.6429432262667,2282.3025303812465,stimuli/323_yb.png,l,14.647459851345047,ambig,0.333,4.603448276,1.955107169,0.256718148
157,21,0,2,9,2,194,2282.8838792563183,2289.0944852118846,stimuli/220_yb.png,l,6.1989642640110105,ambig,0.333,4.75,2.096203186,0.270618668
157,21,0,2,9,3,195,2289.65366489382,2294.390463966178,stimuli/132_xc.png,l,4.7247410856653005,harmless,0.333,6.627118644,0.692280217,0.090127208
157,21,0,2,9,4,196,2294.9530657754513,2299.9344971217215,stimuli/155_xb.png,l,4.969207550515421,harmless,0.333,6.655737705,0.892286312,0.114245555
157,21,0,2,9,5,197,2300.54713744903,2308.3585006127832,stimuli/215_yb.png,l,7.800046395044774,ambig,0.333,5.866666667,1.466769385,0.189359113
157,21,0,2,9,6,198,2308.9621813392732,2316.84645916766,stimuli/256_zb.png,a,7.872232838650234,awful,0.333,3.051724138,2.012438634,0.264246138
157,21,0,2,9,7,199,2317.4893055078574,2326.350530352909,stimuli/166_xa.png,l,8.849109750706702,harmless,0.333,6.593220339,1.052397002,0.13701042
157,21,0,2,9,8,200,2326.9193088476313,2330.4384879624704,stimuli/266_zb.png,a,3.5072617310797796,awful,0.333,3.491525424,1.888010094,0.245797978
157,21,0,2,9,9,201,2331.082292923704,2348.494445591001,stimuli/373_zb.png,a,17.400553117273375,awful,0.333,2.327586207,1.858011869,0.243968911
157,21,0,2,9,10,202,2349.1703871977516,2354.9344628572,stimuli/260_ya.png,l,5.751966472715139,ambig,0.333,4.966101695,2.016877936,0.262575142
157,21,0,2,9,11,203,2355.516497811768,2362.9664238474797,stimuli/224_yb.png,l,7.43799407966435,ambig,0.333,5.881355932,1.609077116,0.209483997
157,21,0,2,9,12,204,2363.5739426024957,2368.4224710365525,stimuli/150_xc.png,l,4.83688674250152,harmless,0.333,6.482758621,1.030097582,0.135258439
157,21,0,2,9,13,205,2369.030117003713,2373.894446930033,stimuli/366_za.png,a,4.852640973171219,awful,0.333,3.689655172,2.036568291,0.267414518
157,21,0,2,9,14,206,2374.4746363227023,2392.4384639378404,stimuli/203_yb.png,l,17.952155597507954,ambig,0.333,6,1.542501327,0.200816568
157,21,0,2,9,15,207,2393.0544275370194,2399.8144391003298,stimuli/231_xb.png,l,6.747283250791952,harmless,0.333,6.62295082,1.05141071,0.134619347
157,21,0,2,9,16,208,2400.387766121654,2412.8144418572774,stimuli/311_za.png,a,12.414796948782168,awful,0.333,3.116666667,1.975199339,0.254997138
157,21,0,2,9,17,209,2413.3795938187977,2418.3743993849494,stimuli/190_xc.png,l,4.982874791603535,harmless,0.333,6.517241379,1.046990328,0.137476565
157,21,0,2,9,18,210,2418.9821103366558,2423.3983853892423,stimuli/314_zb.png,a,4.404682591673918,awful,0.333,1.833333333,1.451669602,0.18740974
157,21,0,2,9,19,211,2424.0359301695134,2439.3344055132475,stimuli/267_ya.png,l,15.286677689175121,ambig,0.333,5.103448276,1.898195405,0.249245267
157,21,0,2,9,20,212,2439.9286910451483,2448.8384510985343,stimuli/359_za.png,a,8.898081734078005,awful,0.333,2.01754386,1.641985167,0.217486248
157,21,0,2,9,21,213,2449.4071071071085,2454.9343785741366,stimuli/148_xc.png,l,5.515324544743635,harmless,0.333,6.491525424,1.135218061,0.147792803
157,21,0,2,9,22,214,2455.515025615692,2460.2943824968534,stimuli/241_yb.png,l,4.767593884957023,ambig,0.333,5.508474576,1.442852555,0.187843403
157,21,0,2,9,23,215,2460.9036715892144,2473.294396281475,stimuli/103_xb.png,l,12.378977449960075,harmless,0.333,6.779661017,0.589207434,0.076708274
157,21,0,2,9,24,216,2473.863034567097,2502.1184621576685,stimuli/310_zb.png,l,28.243461763835512,awful,0.333,3.224137931,2.102989547,0.276136056
157,21,0,2,10,1,217,2511.4064096059883,2515.3263344287407,stimuli/306_zb.png,a,3.908162614214234,awful,0.333,2.352112676,1.917055413,0.101746737
157,21,0,2,10,2,218,2515.9699404977728,2552.0064149623504,stimuli/276_ya.png,l,36.02456771477591,ambig,0.333,5.186440678,1.804922162,0.234980851
157,21,0,2,10,3,219,2552.5815903025214,2558.7423436352983,stimuli/289_yb.png,l,6.14899388118647,ambig,0.333,5.305084746,1.714584873,0.223219937
157,21,0,2,10,4,220,2559.35016880231,2568.398390115355,stimuli/370_za.png,a,9.035925443400629,awful,0.333,2.393442623,1.882185684,0.240989182
157,21,0,2,10,5,221,2568.9742428705795,2576.1344089790946,stimuli/147_ya.png,l,7.148535838467069,ambig,0.333,5.883333333,1.766847875,0.22809908
157,21,0,2,10,6,222,2576.7149402298965,2606.006364156259,stimuli/121_xc.png,l,29.27955971180927,harmless,0.333,6.508474576,1.006408455,0.131023221
157,21,0,2,10,7,223,2606.5767948345747,2613.2943442937685,stimuli/197_xa.png,l,6.705645072390325,harmless,0.333,6.779661017,0.55918033,0.072799078
157,21,0,2,10,8,224,2613.875253242906,2622.3343082332285,stimuli/305_zb.png,a,8.447103735874407,awful,0.333,2.75,2.12830003,0.274762352
157,21,0,2,10,9,225,2622.9317394125974,2628.0782670306507,stimuli/304_ya.png,a,5.134901680285111,ambig,0.333,4.034482759,2.017167697,0.264867095
157,21,0,2,10,10,226,2628.6963920562994,2634.294237955357,stimuli/167_xb.png,l,5.586009253747761,harmless,0.333,6.590163934,0.955284411,0.122311635
157,21,0,2,10,11,227,2634.9217321815668,2643.5502787641017,stimuli/101_xa.png,l,8.616562638781033,harmless,0.333,6.508522727,1.13475832,0.060482822
157,21,0,2,10,12,228,2644.201493148692,2651.798292599153,stimuli/367_zb.png,l,7.584576836205088,awful,0.333,3.413793103,2.086165649,0.27392697
157,21,0,2,10,13,229,2652.3549689964857,2657.342349385377,stimuli/356_za.png,a,4.975215669954196,awful,0.333,3.033333333,2.178217796,0.281206708
157,21,0,2,10,14,230,2657.9139986231457,2661.262243881938,stimuli/294_za.png,a,3.336284552118741,awful,0.333,1.557377049,1.38473331,0.177296933
157,21,0,2,10,15,231,2661.8297274113866,2670.3102962351404,stimuli/249_ya.png,l,8.468742024619132,ambig,0.333,5.327868852,1.859402337,0.238072074
157,21,0,2,10,16,232,2670.9369736248627,2680.2702680988004,stimuli/261_yb.png,l,9.321456647012383,ambig,0.333,5.706896552,1.901141123,0.249632059
157,21,0,2,10,17,233,2680.855292737833,2684.230209242436,stimuli/109_xb.png,l,3.363157053128816,harmless,0.333,6.644067797,0.97843492,0.127381377
157,21,0,2,10,18,234,2684.820174678578,2697.6302574492292,stimuli/351_zb.png,a,12.798339466913603,awful,0.333,3.06779661,2.033040926,0.264679384
157,21,0,2,10,19,235,2698.2563255593413,2702.694250716013,stimuli/130_xc.png,l,4.426070788293146,harmless,0.333,6.644067797,0.960651931,0.125066229
157,21,0,2,10,20,236,2703.2866060091183,2709.806277037482,stimuli/127_xb.png,l,6.507644155411981,harmless,0.333,6.423728814,1.162686987,0.151368953
157,21,0,2,10,21,237,2710.3648360182997,2713.9502808909165,stimuli/312_yb.png,a,3.573527095024474,ambig,0.333,4.677966102,2.112692986,0.275049199
157,21,0,2,10,22,238,2714.516560433316,2719.6382095922017,stimuli/285_yb.png,a,5.109681362868287,ambig,0.333,4.120689655,2.119893958,0.278355714
157,21,0,2,10,23,239,2720.27352835529,2723.734249313944,stimuli/157_xc.png,a,3.4487023565452546,harmless,0.333,6.603448276,0.877389573,0.115206895
157,21,0,2,10,24,240,2724.3562580541475,2727.214231701102,stimuli/321_zb.png,a,2.8466320659499615,awful,0.333,2.918032787,2.177881861,0.278849198
