id,age,condition,counterbalance,block,trialinblock,trial,tstart,tend,trialstim,response,RT,trialtype,ethicfreq,norm_mean,norm_sd,norm_se
72,62,0,1,0,0,practice,3.5446137189865112e-06,12.063767861342058,stimuli/prac_217_1.png,l,12.049345252104104,harmless,NA,NA,NA,NA
72,62,0,1,1,1,1,5.096792170777917,15.047840369865298,stimuli/220_yb.png,l,9.939090666826814,ambig,0.333,4.75,2.096203186,0.270618668
72,62,0,1,1,2,2,15.612140513025224,29.799767158692703,stimuli/183_xb.png,l,14.175854220520705,harmless,0.333,6.448275862,1.095003225,0.143780967
72,62,0,1,1,3,3,30.396267293253914,37.23177077900618,stimuli/331_za.png,l,6.823833854170516,awful,0.333,1.983606557,1.638004917,0.209725039
72,62,0,1,1,4,4,37.85359318717383,44.007884779712185,stimuli/258_ya.png,l,6.142920101759955,ambig,0.333,5.627118644,1.78014243,0.231754804
72,62,0,1,1,5,5,44.63407689984888,57.903730855789036,stimuli/297_za.png,l,13.257836238481104,awful,0.333,1.898305085,1.446695584,0.188343723
72,62,0,1,1,6,6,58.51765509322286,67.55166637850925,stimuli/340_za.png,l,9.022479105507955,awful,0.333,2.508474576,1.832398855,0.238558011
72,62,0,1,1,7,7,68.1488147820346,79.26368759572506,stimuli/218_yb.png,l,11.103146468289196,ambig,0.333,5.850282486,1.552723069,0.0825263
72,62,0,1,1,8,8,79.9330262390431,99.21555184200406,stimuli/151_xa.png,l,19.270737030077726,harmless,0.333,6.610169492,0.947172729,0.123311386
72,62,0,1,1,9,9,99.8348296165932,104.99966995767318,stimuli/284_ya.png,l,5.153040346689522,ambig,0.333,5.948275862,1.431750417,0.18799804
72,62,0,1,1,10,10,105.61115905083716,109.37557781999931,stimuli/137_xa.png,l,3.7527491375803947,harmless,0.333,6.355932203,1.094858074,0.14253838
72,62,0,1,1,11,11,109.99892519670539,114.0956094537396,stimuli/179_xb.png,l,4.084592817351222,harmless,0.333,6.704918033,0.882123617,0.112944356
72,62,0,1,1,12,12,114.73445306136273,122.08751120977104,stimuli/213_ya.png,l,7.34139324282296,ambig,0.333,5.98245614,1.597891781,0.211645937
72,62,0,1,1,13,13,122.69786130264401,144.591511297971,stimuli/328_za.png,a,21.88181337318383,awful,0.333,2.706896552,1.955725922,0.256799395
72,62,0,1,1,14,14,145.1637312732637,154.0554486704059,stimuli/338_zb.png,l,8.879957968834788,awful,0.333,3.310344828,2.137443107,0.28066003
72,62,0,1,1,15,15,154.66770457988605,161.21551363915205,stimuli/288_yb.png,l,6.536075624637306,ambig,0.333,5.189655172,1.914459262,0.251380817
72,62,0,1,1,16,16,161.81413305434398,167.7913794387132,stimuli/262_ya.png,l,5.965598414186388,ambig,0.333,5.491525424,1.7750462,0.231091332
72,62,0,1,1,17,17,168.39919828879647,173.27966865012422,stimuli/162_xa.png,l,4.868625862291083,harmless,0.333,6.644067797,0.905209289,0.117848212
72,62,0,1,1,18,18,173.8439105041325,179.23934087646194,stimuli/110_xa.png,l,5.383692211471498,harmless,0.333,6.428571429,1.059281795,0.141552484
72,62,0,1,1,19,19,179.85760843846947,185.9833387748804,stimuli/119_xc.png,l,6.1139283729717135,harmless,0.333,6.694915254,0.914523379,0.119060803
72,62,0,1,1,20,20,186.60823356895708,222.06332990550436,stimuli/365_zb.png,l,35.44340031710453,awful,0.333,2.966101695,2.165291266,0.281896912
72,62,0,1,1,21,21,222.7090283879079,243.71923882327974,stimuli/320_za.png,l,20.99836514866911,awful,0.333,1.423728814,1.117314975,0.14546202
72,62,0,1,1,22,22,244.36640516668558,249.15119400061667,stimuli/222_ya.png,l,4.772550883702934,ambig,0.333,5.931034483,1.543089507,0.202617579
72,62,0,1,1,23,23,249.76121956505813,254.4151509865187,stimuli/195_xc.png,l,4.642168054590002,harmless,0.333,6.637640449,1.001766915,0.05309354
72,62,0,1,1,24,24,255.02796497452073,267.9511608388275,stimuli/199_za.png,a,12.911414380650967,awful,0.333,3.033898305,2.189048775,0.284989876
72,62,0,1,2,1,25,279.1916572570335,291.75107096345164,stimuli/366_za.png,l,12.54750107228756,awful,0.333,3.689655172,2.036568291,0.267414518
72,62,0,1,2,2,26,292.3241503087338,298.0631420414429,stimuli/214_xb.png,l,5.727119270944968,harmless,0.333,6.465517241,0.940614156,0.12350869
72,62,0,1,2,3,27,298.6464920802973,302.9430775612127,stimuli/125_xc.png,l,4.284779578680173,harmless,0.333,6.683333333,0.999858747,0.129081209
72,62,0,1,2,4,28,303.5567280764226,306.9590109603014,stimuli/215_yb.png,l,3.3906089200172573,ambig,0.333,5.866666667,1.466769385,0.189359113
72,62,0,1,2,5,29,307.57909690518863,315.9270516082179,stimuli/155_xb.png,l,8.336316185072064,harmless,0.333,6.655737705,0.892286312,0.114245555
72,62,0,1,2,6,30,316.5059563170653,319.4470776494127,stimuli/132_xc.png,l,2.9291760090272874,harmless,0.333,6.627118644,0.692280217,0.090127208
72,62,0,1,2,7,31,320.08051258162595,330.45496912440285,stimuli/359_za.png,l,10.362213472602889,awful,0.333,2.01754386,1.641985167,0.217486248
72,62,0,1,2,8,32,331.077764330199,335.0149669032544,stimuli/182_xb.png,l,3.9254813478328288,harmless,0.333,6.542372881,0.988241802,0.128658124
72,62,0,1,2,9,33,335.60780506557785,340.20692663337104,stimuli/157_xc.png,l,4.58739640400745,harmless,0.333,6.603448276,0.877389573,0.115206895
72,62,0,1,2,10,34,340.8166859585326,344.2149717081338,stimuli/117_xc.png,l,3.3862868633586913,harmless,0.333,6.627118644,0.868972939,0.113130641
72,62,0,1,2,11,35,344.82956036250107,351.8069260818884,stimuli/315_yb.png,l,6.9660225852858275,ambig,0.333,5.050847458,1.915667965,0.249398726
72,62,0,1,2,12,36,352.3999903113581,358.67889884044416,stimuli/363_zb.png,l,6.267360989470035,awful,0.333,2.433333333,2.019956927,0.260775318
72,62,0,1,2,13,37,359.29082825244404,365.3988540682476,stimuli/247_ya.png,a,6.096358547220007,ambig,0.333,4.65,2.081598147,0.268733165
72,62,0,1,2,14,38,366.0313784305472,385.3268686279189,stimuli/352_zb.png,a,19.283779999706894,awful,0.333,2.93442623,2.135952968,0.273480754
72,62,0,1,2,15,39,385.88508465117775,389.0708180833608,stimuli/158_xa.png,l,3.1738538811914623,harmless,0.333,6.786885246,0.661179605,0.084655374
72,62,0,1,2,16,40,389.66188945644535,394.1508186662104,stimuli/263_ya.png,l,4.477206409210339,ambig,0.333,4.983050847,2.071910042,0.269739712
72,62,0,1,2,17,41,394.7436658870429,405.47881250968203,stimuli/289_yb.png,l,10.723341902252287,ambig,0.333,5.305084746,1.714584873,0.223219937
72,62,0,1,2,18,42,406.11091230693273,413.98276966880076,stimuli/317_za.png,l,7.8599750539287925,awful,0.333,3.65,2.03215674,0.262350307
72,62,0,1,2,19,43,414.6021088832058,423.84676233679056,stimuli/308_zb.png,l,9.232925532851368,awful,0.333,1.644067797,1.471132708,0.191525165
72,62,0,1,2,20,44,424.4332859800197,434.62273652269505,stimuli/276_ya.png,l,10.177737588062882,ambig,0.333,5.186440678,1.804922162,0.234980851
72,62,0,1,2,21,45,435.2095307374839,439.83066903660074,stimuli/202_yb.png,l,4.609198095975444,ambig,0.333,5.431034483,1.892849601,0.248543329
72,62,0,1,2,22,46,440.4072394252289,447.00668945978396,stimuli/321_zb.png,l,6.58755669882521,awful,0.333,2.918032787,2.177881861,0.278849198
72,62,0,1,2,23,47,447.58320549782366,452.20669032633305,stimuli/260_ya.png,l,4.6117899909149855,ambig,0.333,4.966101695,2.016877936,0.262575142
72,62,0,1,2,24,48,452.7780162729323,459.46265776944347,stimuli/346_zb.png,a,6.672643004218116,awful,0.333,1.288135593,0.983499162,0.128040685
72,62,0,1,3,1,49,469.55526887997985,475.6626389436424,stimuli/200_ya.png,l,6.0956949181854725,ambig,0.333,5.862068966,1.444266048,0.189641423
72,62,0,1,3,2,50,476.2363259920385,479.90257531404495,stimuli/264_xa.png,l,3.652888125507161,harmless,0.333,6.533333333,0.947193297,0.122282129
72,62,0,1,3,3,51,480.5043191027362,485.6225510216318,stimuli/189_yb.png,l,5.106435075169429,ambig,0.333,5.983333333,1.455459234,0.187898979
72,62,0,1,3,4,52,486.25142562086694,492.6865481007844,stimuli/254_ya.png,l,6.423336663749069,ambig,0.333,5.983606557,1.627798137,0.208418195
72,62,0,1,3,5,53,493.31725486787036,497.37455618567765,stimuli/163_xa.png,l,4.045957002323121,harmless,0.333,6.627118644,0.963082427,0.125382652
72,62,0,1,3,6,54,498.03689462551847,503.9344972507097,stimuli/142_xa.png,l,5.885653363540769,harmless,0.333,6.4,1.076718178,0.139003719
72,62,0,1,3,7,55,504.5654816785827,518.9105617059395,stimuli/318_za.png,l,14.333415122004226,awful,0.333,3.06557377,2.197489875,0.281359747
72,62,0,1,3,8,56,519.5322773819789,523.702522066189,stimuli/121_xc.png,l,4.158517551142722,harmless,0.333,6.508474576,1.006408455,0.131023221
72,62,0,1,3,9,57,524.3173647506628,527.8784519049805,stimuli/126_xa.png,l,3.5491686125751585,harmless,0.333,6.6,0.977717855,0.126222832
72,62,0,1,3,10,58,528.4505068589933,532.5424535528291,stimuli/311_za.png,l,4.080047056544572,awful,0.333,3.116666667,1.975199339,0.254997138
72,62,0,1,3,11,59,533.1675141558517,542.5984457295854,stimuli/326_zb.png,l,9.419322200352326,awful,0.333,3.389830508,2.220724867,0.289113752
72,62,0,1,3,12,60,543.2542183769401,548.6944364253432,stimuli/192_za.png,l,5.428432232467458,awful,0.333,2.68852459,2.093967396,0.268105052
72,62,0,1,3,13,61,549.3165542173665,553.0783771532588,stimuli/237_ya.png,l,3.750057993689552,ambig,0.333,4.305084746,2.019339575,0.26289562
72,62,0,1,3,14,62,553.7391118556261,560.2943701017648,stimuli/369_za.png,l,6.543242818443105,awful,0.333,2.948275862,2.055565093,0.26990892
72,62,0,1,3,15,63,560.9474134023767,573.8623983829748,stimuli/285_yb.png,l,12.903162537142634,ambig,0.333,4.120689655,2.119893958,0.278355714
72,62,0,1,3,16,64,574.4377892054617,579.9663486892823,stimuli/174_xc.png,l,5.516611009836197,harmless,0.333,6.533333333,1.111826512,0.143536185
72,62,0,1,3,17,65,580.5558391679078,596.0863005297724,stimuli/344_za.png,l,15.518625527620316,awful,0.333,2.711864407,2.043077863,0.265986082
72,62,0,1,3,18,66,596.6818798542954,612.2302812566049,stimuli/291_za.png,l,15.536714441375807,awful,0.333,2.593220339,1.830005126,0.238246374
72,62,0,1,3,19,67,612.8436426895205,620.3502523957286,stimuli/319_ya.png,l,7.495261846110225,ambig,0.333,4.216666667,2.108028774,0.272145344
72,62,0,1,3,20,68,620.9231100061443,625.1902283867821,stimuli/134_xc.png,l,4.255271518835798,harmless,0.333,6.516666667,0.965360505,0.124627505
72,62,0,1,3,21,69,625.7758005000651,629.6142353753094,stimuli/143_xb.png,l,3.8277786071412265,harmless,0.333,6.655172414,0.738697862,0.096995781
72,62,0,1,3,22,70,630.2413900527172,636.1582178350072,stimuli/309_ya.png,l,5.904941535787657,ambig,0.333,4.706896552,1.946734744,0.255618795
72,62,0,1,3,23,71,636.8021948202513,641.4301812986378,stimuli/293_zb.png,l,4.616318028187379,awful,0.333,3.677966102,2.169066842,0.28238845
72,62,0,1,3,24,72,642.0329128510784,647.0541722183116,stimuli/228_ya.png,l,5.009531840216368,ambig,0.333,5.442622951,1.793735303,0.229664272
72,62,0,1,4,1,73,656.4335656100884,662.8701291694306,stimuli/266_zb.png,l,6.42469858052209,awful,0.333,3.491525424,1.888010094,0.245797978
72,62,0,1,4,2,74,663.4322789178696,670.0061231104191,stimuli/290_zb.png,l,6.561940222978592,awful,0.333,2.586206897,2.026443456,0.266085062
72,62,0,1,4,3,75,670.594101223629,678.5020863946993,stimuli/275_yb.png,l,7.896206444129348,ambig,0.333,4.836065574,2.138382004,0.27379176
72,62,0,1,4,4,76,679.1196753613185,691.4060342591256,stimuli/248_zb.png,l,12.274842078099027,awful,0.333,3.288135593,1.991800844,0.259310383
72,62,0,1,4,5,77,692.0267160916701,699.317990570562,stimuli/358_za.png,l,7.279524502810091,awful,0.333,3.949152542,2.112554662,0.275031191
72,62,0,1,4,6,78,699.8945645038038,704.478069717763,stimuli/227_xa.png,l,4.571698524290696,harmless,0.333,6.180327869,1.05685377,0.135316259
72,62,0,1,4,7,79,705.1012583745178,710.3740229194518,stimuli/127_xb.png,l,5.260912169003859,harmless,0.333,6.423728814,1.162686987,0.151368953
72,62,0,1,4,8,80,710.9611326041631,716.6860140468925,stimuli/279_ya.png,l,5.713088537566364,ambig,0.333,5.31147541,1.970964092,0.252356093
72,62,0,1,4,9,81,717.300108425552,721.4299784684554,stimuli/243_ya.png,l,4.11795465182513,ambig,0.333,5.830508475,1.652088985,0.215083666
72,62,0,1,4,10,82,721.9927906645462,726.9819378678221,stimuli/170_xc.png,l,4.977079000324011,harmless,0.333,6.583333333,1.062323432,0.137145365
72,62,0,1,4,11,83,727.5668621058576,732.285955206491,stimuli/251_ya.png,l,4.707389992196113,ambig,0.333,5.655172414,1.792300532,0.235340589
72,62,0,1,4,12,84,732.8661280965898,737.373922488885,stimuli/286_ya.png,l,4.496041659265757,ambig,0.333,5.06779661,1.779814082,0.231712057
72,62,0,1,4,13,85,737.9612755698618,741.005922643235,stimuli/236_yb.png,l,3.0328234483022243,ambig,0.333,5.93442623,1.49297078,0.19115532
72,62,0,1,4,14,86,741.5935080929194,746.5419592771214,stimuli/186_xa.png,l,4.936622439185157,harmless,0.333,6.65,0.879618561,0.113558268
72,62,0,1,4,15,87,747.1155065104831,751.0779179297388,stimuli/136_xc.png,l,3.950666169403121,harmless,0.333,6.559322034,1.038420326,0.135190811
72,62,0,1,4,16,88,751.7008427104447,755.4538805366028,stimuli/250_yb.png,l,3.7413693759590387,ambig,0.333,5.950819672,1.585625318,0.203018519
72,62,0,1,4,17,89,756.024274645606,768.3498597319704,stimuli/334_za.png,l,12.313669301569462,awful,0.333,3.333333333,2.214487481,0.285889104
72,62,0,1,4,18,90,768.9740471802652,773.5898658130318,stimuli/240_xa.png,l,4.603855586377904,harmless,0.333,6.482758621,1.096107616,0.143925981
72,62,0,1,4,19,91,774.2093913161661,779.5017803770024,stimuli/306_zb.png,l,5.280660352203995,awful,0.333,2.352112676,1.917055413,0.101746737
72,62,0,1,4,20,92,780.0861760748085,786.4138123067096,stimuli/341_zb.png,l,6.315668459516019,awful,0.333,3.603448276,2.15975677,0.283589957
72,62,0,1,4,21,93,786.9820611414034,791.7740463137161,stimuli/323_yb.png,l,4.7800697814673185,ambig,0.333,4.603448276,1.955107169,0.256718148
72,62,0,1,4,22,94,792.3730327927042,795.5737717249431,stimuli/255_xb.png,l,3.1890385805163532,harmless,0.333,6.770491803,0.642740036,0.082294429
72,62,0,1,4,23,95,796.1693419911899,804.381734407274,stimuli/229_za.png,l,8.200854328693822,awful,0.333,3.406779661,2.043649913,0.266060557
72,62,0,1,4,24,96,804.9826798720751,809.0217772733886,stimuli/146_xa.png,l,4.027600273955613,harmless,0.333,6.442622951,1.162247681,0.148810567
72,62,0,1,5,1,97,817.9565238282084,824.189723477466,stimuli/171_xa.png,l,6.221102301729843,harmless,0.333,6.465517241,1.046556882,0.137419651
72,62,0,1,5,2,98,824.8011255306192,831.0936918216757,stimuli/207_yb.png,l,6.280748573597521,ambig,0.333,5.655737705,1.662179753,0.212820309
72,62,0,1,5,3,99,831.6764991420787,839.4137185716536,stimuli/333_za.png,l,7.725333970738575,awful,0.333,3.266666667,2.185209657,0.282109354
72,62,0,1,5,4,100,840.030048021581,846.8856706926599,stimuli/356_za.png,l,6.843909322749823,awful,0.333,3.033333333,2.178217796,0.281206708
72,62,0,1,5,5,101,847.506276513217,853.2696523803752,stimuli/347_zb.png,l,5.751741287764162,awful,0.333,3.796610169,2.147810923,0.279621165
72,62,0,1,5,6,102,853.8903472099919,858.9737053227145,stimuli/180_xc.png,l,5.071507312357426,harmless,0.333,6.672131148,0.723908638,0.092687003
72,62,0,1,5,7,103,859.5471143163741,862.9016340242233,stimuli/123_xc.png,l,3.3427996640093625,harmless,0.333,6.491525424,1.023396666,0.133234897
72,62,0,1,5,8,104,863.5253618550487,869.7736138717737,stimuli/302_za.png,l,6.236438631545752,awful,0.333,3.137931034,2.188071937,0.287307921
72,62,0,1,5,9,105,870.4295326357242,875.437603310449,stimuli/335_yb.png,l,4.996106840670109,ambig,0.333,5.016949153,2.046793332,0.266469795
72,62,0,1,5,10,106,876.0761164820287,879.4375658952631,stimuli/128_xc.png,l,3.349803412333131,harmless,0.333,6.627118644,0.98082135,0.127692063
72,62,0,1,5,11,107,880.070395093644,884.8458285301458,stimuli/239_ya.png,l,4.764019016409293,ambig,0.333,5.157894737,1.925296579,0.255011762
72,62,0,1,5,12,108,885.5052143128123,892.2775607910007,stimuli/357_za.png,l,6.760585080599412,awful,0.333,2.793103448,2.066937905,0.271402243
72,62,0,1,5,13,109,892.902979005361,898.5975603656843,stimuli/161_xc.png,l,5.683180724969134,harmless,0.333,6.796610169,0.609682252,0.079373868
72,62,0,1,5,14,110,899.2631724462844,903.5416776780039,stimuli/296_yb.png,l,4.266732018906623,ambig,0.333,4.229508197,2.052587332,0.262806878
72,62,0,1,5,15,111,904.1027175709605,907.4935805210844,stimuli/209_ya.png,l,3.378911325475201,ambig,0.333,5.603448276,1.825161903,0.239655499
72,62,0,1,5,16,112,908.0686322427355,913.6455106183421,stimuli/322_za.png,l,5.565322565147653,awful,0.333,2.406779661,1.975004531,0.257123689
72,62,0,1,5,17,113,914.2283730769996,917.6374734204728,stimuli/133_xa.png,l,3.397570920875296,harmless,0.333,6.568965517,1.186356193,0.1557762
72,62,0,1,5,18,114,918.2924634974916,925.869439940434,stimuli/269_za.png,l,7.565057507250458,awful,0.333,3.457627119,2.119873401,0.27598401
72,62,0,1,5,19,115,926.4528774130158,931.0214350221213,stimuli/242_xb.png,l,4.557197539834306,harmless,0.333,6.576271186,0.913564256,0.118935936
72,62,0,1,5,20,116,931.6241685436107,935.2534606189001,stimuli/130_xc.png,l,3.6174294594675303,harmless,0.333,6.644067797,0.960651931,0.125066229
72,62,0,1,5,21,117,935.8727049166337,942.9334448964801,stimuli/223_yb.png,l,7.048794656526297,ambig,0.333,5.542372881,1.77455224,0.231027024
72,62,0,1,5,22,118,943.5676856359933,947.1894355765544,stimuli/241_yb.png,l,3.6100523460190743,ambig,0.333,5.508474576,1.442852555,0.187843403
72,62,0,1,5,23,119,947.8239496445749,958.4453758443706,stimuli/295_za.png,a,10.609666377538815,awful,0.333,2.3,1.825432384,0.235662307
72,62,0,1,5,24,120,959.0123667374719,965.6933186927345,stimuli/212_ya.png,l,6.669016478117555,ambig,0.333,5.677966102,1.490668422,0.194068498
72,62,0,1,6,1,121,975.0783759716433,978.7893259301782,stimuli/153_xb.png,l,3.6994563755579293,harmless,0.333,6.633333333,0.973664521,0.125699549
72,62,0,1,6,2,122,979.4158484861255,985.3572888330091,stimuli/300_za.png,l,5.929571429500356,awful,0.333,3.75,2.12032137,0.273732312
72,62,0,1,6,3,123,985.9197406608146,989.3012801147997,stimuli/106_xc.png,l,3.3698068070225418,harmless,0.333,6.661016949,0.863237081,0.112383896
72,62,0,1,6,4,124,989.9608033495024,1002.9172866116278,stimuli/371_zb.png,a,12.944541877135634,awful,0.333,3.131147541,2.085468851,0.267016925
72,62,0,1,6,5,125,1003.561173800379,1006.4292404027656,stimuli/150_xc.png,l,2.856437930604443,harmless,0.333,6.482758621,1.030097582,0.135258439
72,62,0,1,6,6,126,1006.991167628672,1013.2052378254011,stimuli/345_zb.png,l,6.202128811739385,awful,0.333,3.694915254,2.191317013,0.285285176
72,62,0,1,6,7,127,1013.8535266271792,1017.9732378285844,stimuli/217_yb.png,l,4.107836770126596,ambig,0.333,5.169491525,2.001314588,0.260548967
72,62,0,1,6,8,128,1018.5893656297121,1027.9332416723482,stimuli/361_za.png,l,9.332122128224,awful,0.333,2.416666667,1.907093508,0.246204713
72,62,0,1,6,9,129,1028.5666687279008,1034.9491675884929,stimuli/330_ya.png,l,6.3706492418423295,ambig,0.333,4.796610169,2.049219036,0.266785595
72,62,0,1,6,10,130,1035.5556709959637,1040.581155139953,stimuli/253_ya.png,l,5.013080778764561,ambig,0.333,5.491803279,1.849531029,0.236808182
72,62,0,1,6,11,131,1041.1979485393967,1046.2531636594795,stimuli/115_xb.png,l,5.0432449844665825,harmless,0.333,6.440677966,1.021681954,0.133011661
72,62,0,1,6,12,132,1046.8416423499584,1052.0052066328935,stimuli/101_xa.png,l,5.151871414389461,harmless,0.333,6.508522727,1.13475832,0.060482822
72,62,0,1,6,13,133,1052.63909330545,1057.2531179734506,stimuli/196_xb.png,l,4.602351491805166,harmless,0.333,6.594366197,0.982313556,0.05213579
72,62,0,1,6,14,134,1057.881748388987,1061.2770944782533,stimuli/249_ya.png,l,3.383678033016622,ambig,0.333,5.327868852,1.859402337,0.238072074
72,62,0,1,6,15,135,1061.9113052855246,1065.7090894340072,stimuli/287_ya.png,l,3.7859833664260805,ambig,0.333,5.950819672,1.407435369,0.180203633
72,62,0,1,6,16,136,1066.3312446412165,1071.157066625543,stimuli/210_yb.png,l,4.814097214257345,ambig,0.333,5.557377049,1.76564049,0.226067099
72,62,0,1,6,17,137,1071.783382019261,1074.045103145996,stimuli/138_xc.png,l,2.2500310151372105,harmless,0.333,6.661016949,0.70978796,0.092406522
72,62,0,1,6,18,138,1074.666779437568,1081.189018888399,stimuli/294_za.png,a,6.5103988903574646,awful,0.333,1.557377049,1.38473331,0.177296933
72,62,0,1,6,19,139,1081.8346263926942,1087.0049864733592,stimuli/273_ya.png,l,5.158531729597598,ambig,0.333,5.551724138,1.836973233,0.241206403
72,62,0,1,6,20,140,1087.641518997727,1093.8610148050357,stimuli/316_za.png,l,6.207754495786503,awful,0.333,2.344827586,1.802062407,0.236622386
72,62,0,1,6,21,141,1094.4697682496626,1097.6689944227692,stimuli/104_xc.png,l,3.187727864133194,harmless,0.333,6.745762712,0.756425814,0.098478253
72,62,0,1,6,22,142,1098.2928691578563,1116.7169592475984,stimuli/310_zb.png,l,18.412373196566477,awful,0.333,3.224137931,2.102989547,0.276136056
72,62,0,1,6,23,143,1117.3342603135388,1122.6369641786441,stimuli/281_ya.png,l,5.290947981411591,ambig,0.333,5.881355932,1.543448286,0.200939852
72,62,0,1,6,24,144,1123.2501905225217,1130.5089160632342,stimuli/299_za.png,a,7.247101201210171,awful,0.333,1.288135593,0.929420425,0.121000233
72,62,0,1,7,1,145,1139.7671051870566,1144.0209112078883,stimuli/168_xa.png,l,4.241881571477279,harmless,0.333,6.474576271,1.164946827,0.151663159
72,62,0,1,7,2,146,1144.6540255502332,1149.7008852458093,stimuli/211_zb.png,l,5.03517627925612,awful,0.333,3.983333333,2.127237938,0.274625237
72,62,0,1,7,3,147,1150.334870379651,1154.0688850914594,stimuli/230_yb.png,l,3.721591654466465,ambig,0.333,4.98245614,1.875511626,0.248417583
72,62,0,1,7,4,148,1154.67471659882,1160.0528674093075,stimuli/312_yb.png,l,5.366450852714479,ambig,0.333,4.677966102,2.112692986,0.275049199
72,62,0,1,7,5,149,1160.6759438202716,1165.3808069019578,stimuli/360_za.png,l,4.693126496160403,awful,0.333,3.2,2.207844259,0.285031468
72,62,0,1,7,6,150,1166.0002075564116,1169.6448355675675,stimuli/304_ya.png,l,3.6328280167654157,ambig,0.333,4.034482759,2.017167697,0.264867095
72,62,0,1,7,7,151,1170.2914135062601,1189.9647587363143,stimuli/362_zb.png,a,19.661352251423523,awful,0.333,1.474576271,1.222715071,0.159183944
72,62,0,1,7,8,152,1190.5869761712383,1195.1007810342126,stimuli/270_yb.png,l,4.50140858697705,ambig,0.333,5.534482759,1.912246013,0.251090203
72,62,0,1,7,9,153,1195.7362497828435,1207.772711572703,stimuli/278_xb.png,l,12.024950483813882,harmless,0.333,6.360655738,1.140654591,0.146045855
72,62,0,1,7,10,154,1208.4622977948748,1212.4607393497135,stimuli/205_yb.png,l,3.9867140278220177,ambig,0.333,5.847457627,1.52918233,0.199082582
72,62,0,1,7,11,155,1213.030663207639,1217.820689000655,stimuli/364_za.png,l,4.777906390139833,awful,0.333,1.677966102,1.279017376,0.166513879
72,62,0,1,7,12,156,1218.4277721480466,1221.2366938432679,stimuli/190_xc.png,l,2.7972847528290004,harmless,0.333,6.517241379,1.046990328,0.137476565
72,62,0,1,7,13,157,1221.9036178220995,1226.6447544356342,stimuli/314_zb.png,l,4.729266120819375,awful,0.333,1.833333333,1.451669602,0.18740974
72,62,0,1,7,14,158,1227.24143495108,1235.8766473066062,stimuli/156_xc.png,l,8.62340763490647,harmless,0.333,6.590163934,0.955284411,0.122311635
72,62,0,1,7,15,159,1236.473038346041,1240.1166518121026,stimuli/159_xa.png,l,3.6318749114871025,harmless,0.333,6.389830508,1.174689235,0.152931512
72,62,0,1,7,16,160,1240.7419951958582,1245.212747270707,stimuli/257_yb.png,l,4.45897531718947,ambig,0.333,5.620689655,1.843219782,0.242026615
72,62,0,1,7,17,161,1245.8516255368013,1248.8846238523256,stimuli/107_xa.png,l,3.021444868296385,harmless,0.333,6.813559322,0.540580029,0.070377525
72,62,0,1,7,18,162,1249.4616751258727,1254.692587716272,stimuli/173_yb.png,l,5.218690000241622,ambig,0.333,5.796610169,1.242628763,0.161776485
72,62,0,1,7,19,163,1255.3174703011755,1258.9966082056053,stimuli/169_xc.png,l,3.6665541583206505,harmless,0.333,6.603448276,0.916508538,0.120343467
72,62,0,1,7,20,164,1259.6364324877504,1264.716544922674,stimuli/259_xc.png,l,5.068187985569239,harmless,0.333,6.568965517,0.993170874,0.130409725
72,62,0,1,7,21,165,1265.2901764386334,1275.6046594243962,stimuli/324_za.png,l,10.30270898505114,awful,0.333,2.491525424,1.994586478,0.259673041
72,62,0,1,7,22,166,1276.2405239872169,1288.7565658909734,stimuli/268_zb.png,a,12.504358093487099,awful,0.333,2.655737705,2.048456703,0.262278005
72,62,0,1,7,23,167,1289.402832298074,1293.4364721872844,stimuli/224_yb.png,l,4.022006491431966,ambig,0.333,5.881355932,1.609077116,0.209483997
72,62,0,1,7,24,168,1294.049762334209,1305.4604675965384,stimuli/367_zb.png,a,11.399083286058158,awful,0.333,3.413793103,2.086165649,0.27392697
72,62,0,1,8,1,169,1314.982865766855,1328.0124864664394,stimuli/313_zb.png,a,13.017935313982889,awful,0.333,2.101694915,1.688652955,0.219843889
72,62,0,1,8,2,170,1328.5821661404334,1332.8763956394978,stimuli/109_xb.png,l,4.282388938590884,harmless,0.333,6.644067797,0.97843492,0.127381377
72,62,0,1,8,3,171,1333.4449863315094,1339.708375786664,stimuli/332_zb.png,l,6.251539048505947,awful,0.333,2.694915254,2.002190501,0.260663001
72,62,0,1,8,4,172,1340.3069983525202,1346.3164258238394,stimuli/176_xb.png,l,5.997778713470325,harmless,0.333,6.796610169,0.517942249,0.067430337
72,62,0,1,8,5,173,1346.9170420339797,1352.0603335315827,stimuli/232_yb.png,l,5.131614776793867,ambig,0.333,5.483333333,1.845669845,0.238274952
72,62,0,1,8,6,174,1352.6781040609349,1355.5483305100352,stimuli/225_ya.png,l,2.8586474016774446,ambig,0.333,5.85,1.792876677,0.231459384
72,62,0,1,8,7,175,1356.1659663442988,1370.356307370821,stimuli/355_zb.png,a,14.178583961213008,awful,0.333,3.183333333,2.070713188,0.267327923
72,62,0,1,8,8,176,1370.996878777165,1375.180266073905,stimuli/152_xa.png,l,4.171315549174324,harmless,0.333,6.576271186,0.968528743,0.126091702
72,62,0,1,8,9,177,1375.82797789271,1382.9402722020168,stimuli/303_zb.png,l,7.100308813853189,awful,0.333,3.620689655,2.158846233,0.283470398
72,62,0,1,8,10,178,1383.5519928762224,1389.2442458239384,stimuli/154_xc.png,l,5.680853493977338,harmless,0.333,6.5,0.965506805,0.124646393
72,62,0,1,8,11,179,1389.8689787476324,1393.028343459824,stimuli/201_yb.png,l,3.1470676851458848,ambig,0.333,5.898305085,1.626238682,0.211718243
72,62,0,1,8,12,180,1393.6773813550826,1399.6682453292888,stimuli/292_zb.png,a,5.979015930555761,awful,0.333,2.396551724,1.955107169,0.256718148
72,62,0,1,8,13,181,1400.284870163072,1405.5962307443842,stimuli/141_xc.png,l,5.300173016032204,harmless,0.333,6.508474576,1.040107444,0.135410455
72,62,0,1,8,14,182,1406.2444860695396,1409.7881849606056,stimuli/175_xb.png,l,3.5320970008615404,harmless,0.333,6.6,1.028409995,0.13276716
72,62,0,1,8,15,183,1410.414522409672,1420.2522889294196,stimuli/252_zb.png,a,9.825842858059332,awful,0.333,2.711864407,1.983125776,0.258180985
72,62,0,1,8,16,184,1420.8637307612225,1425.6041765701957,stimuli/181_xa.png,l,4.728904176969081,harmless,0.333,6.666666667,0.950765377,0.122743282
72,62,0,1,8,17,185,1426.2141446333844,1430.2841498202179,stimuli/193_xc.png,l,4.058401327347383,harmless,0.333,6.482758621,1.012923151,0.133003326
72,62,0,1,8,18,186,1430.8541587486397,1435.6922494033352,stimuli/350_ya.png,l,4.826265454059467,ambig,0.333,4.915254237,2.02814792,0.264042369
72,62,0,1,8,19,187,1436.3321752974298,1440.9241434556898,stimuli/203_yb.png,l,4.580067339586094,ambig,0.333,6,1.542501327,0.200816568
72,62,0,1,8,20,188,1441.547570388997,1446.9561492814682,stimuli/307_za.png,l,5.396781655028462,awful,0.333,2.93220339,2.172432347,0.282826601
72,62,0,1,8,21,189,1447.6284610619769,1451.2840805035084,stimuli/267_ya.png,l,3.6439001853577793,ambig,0.333,5.103448276,1.898195405,0.249245267
72,62,0,1,8,22,190,1451.9215444715228,1460.6120660761371,stimuli/351_zb.png,l,8.67901226785034,awful,0.333,3.06779661,2.033040926,0.264679384
72,62,0,1,8,23,191,1461.249739176128,1465.140085598221,stimuli/233_yb.png,l,3.8780167060904205,ambig,0.333,5.318309859,1.922973646,0.102060844
72,62,0,1,8,24,192,1465.7561763781123,1469.5880647592712,stimuli/226_yb.png,l,3.8201545528136194,ambig,0.333,5.683333333,1.712285287,0.22105508
72,62,0,1,9,1,193,1482.2896219047252,1501.5320217765402,stimuli/373_zb.png,a,19.230681009590626,awful,0.333,2.327586207,1.858011869,0.243968911
72,62,0,1,9,2,194,1502.1229052853305,1505.412010465283,stimuli/283_yb.png,l,3.2774603604339063,ambig,0.333,5.949152542,1.478859402,0.192531095
72,62,0,1,9,3,195,1506.0310539021157,1520.6039528662805,stimuli/348_za.png,a,14.561292347731069,awful,0.333,3.084745763,2.119597681,0.275948114
72,62,0,1,9,4,196,1521.2402329358738,1531.1640814014245,stimuli/353_zb.png,l,9.91199175757356,awful,0.333,1.949152542,1.623361018,0.211343603
72,62,0,1,9,5,197,1531.834937530337,1534.6998679437675,stimuli/144_xa.png,l,2.8532584188506007,harmless,0.333,6.542372881,1.00553698,0.130909764
72,62,0,1,9,6,198,1535.3098848436493,1540.611931774998,stimuli/343_zb.png,l,5.290402899729088,awful,0.333,3.103448276,2.141401862,0.28117984
72,62,0,1,9,7,199,1541.226734681055,1544.7239196728915,stimuli/282_xc.png,l,3.485281809931621,harmless,0.333,6.55,0.998728005,0.128935231
72,62,0,1,9,8,200,1545.3306322121061,1560.9158333232626,stimuli/327_zb.png,a,15.573613005457446,awful,0.333,2.502808989,1.906990248,0.101070281
72,62,0,1,9,9,201,1561.5143558525015,1565.4677631841041,stimuli/280_xb.png,l,3.941703435499221,harmless,0.333,6.333333333,1.068289726,0.137915611
72,62,0,1,9,10,202,1566.0704848903697,1569.2277838846203,stimuli/118_xb.png,l,3.14562030415982,harmless,0.333,6.474576271,0.953323265,0.124112118
72,62,0,1,9,11,203,1569.8710271362215,1575.8597938851453,stimuli/188_xa.png,l,5.9768367854412645,harmless,0.333,6.655172414,0.806807095,0.105938962
72,62,0,1,9,12,204,1576.5210145923775,1579.1077910840977,stimuli/178_xa.png,l,2.5748792176600546,harmless,0.333,6.483333333,1.112207557,0.143585378
72,62,0,1,9,13,205,1579.7713532007765,1582.9797441503033,stimuli/147_ya.png,l,3.1964397185947746,ambig,0.333,5.883333333,1.766847875,0.22809908
72,62,0,1,9,14,206,1583.6031297298614,1595.0597683638334,stimuli/354_zb.png,l,11.444764990592375,awful,0.333,2,1.701925887,0.221571878
72,62,0,1,9,15,207,1595.6694260770455,1599.515802051872,stimuli/111_xa.png,l,3.834734306205064,harmless,0.333,6.590163934,0.863655973,0.110579816
72,62,0,1,9,16,208,1600.0919699307997,1604.4677312825806,stimuli/342_yb.png,l,4.36361713684164,ambig,0.333,4.916666667,2.085394461,0.269223267
72,62,0,1,9,17,209,1605.0739952321164,1608.043697118992,stimuli/140_xb.png,l,2.957934975391254,harmless,0.333,6.724137931,0.790138861,0.103750315
72,62,0,1,9,18,210,1608.6727682468481,1612.6037736665457,stimuli/325_yb.png,l,3.9192739543505013,ambig,0.333,5.131147541,1.811770863,0.231973488
72,62,0,1,9,19,211,1613.24253496062,1619.627673371695,stimuli/271_ya.png,l,6.373197420034558,ambig,0.333,5.711864407,1.771915459,0.230683744
72,62,0,1,9,20,212,1620.2504126513377,1634.3956721932627,stimuli/256_zb.png,l,14.133707670029253,awful,0.333,3.051724138,2.012438634,0.264246138
72,62,0,1,9,21,213,1634.9857841595076,1639.1476710557472,stimuli/265_yb.png,l,4.150348021183163,ambig,0.333,5.627118644,1.856008928,0.241631781
72,62,0,1,9,22,214,1639.791463327594,1644.3796048867516,stimuli/198_yb.png,l,4.576197417220101,ambig,0.333,5.101694915,1.83542643,0.238952168
72,62,0,1,9,23,215,1644.9842024773825,1649.9075873873662,stimuli/372_zb.png,l,4.911829493474215,awful,0.333,2.796610169,2.082601664,0.271131643
72,62,0,1,9,24,216,1650.5242716916837,1656.8355586240068,stimuli/336_ya.png,l,6.299861484672874,ambig,0.333,5.033898305,1.884291705,0.245313885
72,62,0,1,10,1,217,1666.666463573929,1674.9316812579054,stimuli/339_ya.png,l,8.25333380070515,ambig,0.333,4.949152542,1.960152429,0.25519011
72,62,0,1,10,2,218,1675.5118281543255,1687.7714934095275,stimuli/329_zb.png,a,12.247543095378205,awful,0.333,2.406779661,1.992387617,0.259386774
72,62,0,1,10,3,219,1688.3725972000975,1695.587490533013,stimuli/219_ya.png,l,7.203014963539317,ambig,0.333,5.271186441,1.998538332,0.260187529
72,62,0,1,10,4,220,1696.226102953544,1699.8034322815947,stimuli/139_xa.png,l,3.5655659614130855,harmless,0.333,6.724137931,0.790138861,0.103750315
72,62,0,1,10,5,221,1700.3988560372964,1703.563440379221,stimuli/187_xc.png,l,3.1528639041353017,harmless,0.333,6.224137931,1.185335891,0.155642228
72,62,0,1,10,6,222,1704.1588042704388,1707.5474664138164,stimuli/122_xa.png,l,3.376843638252467,harmless,0.333,6.457627119,1.039264227,0.135300678
72,62,0,1,10,7,223,1708.1204969224054,1711.2434132352937,stimuli/261_yb.png,l,3.1111785462126136,ambig,0.333,5.706896552,1.901141123,0.249632059
72,62,0,1,10,8,224,1711.871422950644,1717.1393944001757,stimuli/235_ya.png,l,5.256104107480496,ambig,0.333,5.694915254,1.567495667,0.204070554
72,62,0,1,10,9,225,1717.74592655804,1722.539396133041,stimuli/368_za.png,l,4.781643980648369,awful,0.333,3.590163934,2.02794682,0.259651984
72,62,0,1,10,10,226,1723.1380517820362,1726.0998271412682,stimuli/102_xc.png,l,2.950017112540081,harmless,0.333,6.66011236,0.937292468,0.049676401
72,62,0,1,10,11,227,1726.7504396296572,1730.8353746982757,stimuli/165_xb.png,l,4.073118138825521,harmless,0.333,6.557377049,1.008705278,0.129151477
72,62,0,1,10,12,228,1731.4422455632593,1736.8995793340728,stimuli/298_za.png,l,5.445561345666647,awful,0.333,2.881355932,2.026418156,0.263817173
72,62,0,1,10,13,229,1737.4852743269876,1742.363372165244,stimuli/166_xa.png,l,4.866573535604402,harmless,0.333,6.593220339,1.052397002,0.13701042
72,62,0,1,10,14,230,1742.9709421051666,1747.8753515561111,stimuli/272_xb.png,l,4.892647659638897,harmless,0.333,6.355932203,1.029943284,0.134087194
72,62,0,1,10,15,231,1748.4812890079338,1754.12337317341,stimuli/245_yb.png,l,5.630426349118352,ambig,0.333,4.949152542,2.096168334,0.272897873
72,62,0,1,10,16,232,1754.6990361427888,1760.0753776286729,stimuli/301_za.png,l,5.36481875856407,awful,0.333,3.610169492,2.212947396,0.288101212
72,62,0,1,10,17,233,1760.7105242118705,1767.635264736833,stimuli/191_ya.png,l,6.9129105983302,ambig,0.333,5.517241379,2.062542966,0.270825159
72,62,0,1,10,18,234,1768.2431879558135,1773.347321400186,stimuli/246_ya.png,l,5.092365745222196,ambig,0.333,5.542372881,1.715266481,0.223308675
72,62,0,1,10,19,235,1773.9167407422792,1778.651257606689,stimuli/337_zb.png,l,4.722661337815225,awful,0.333,3.033333333,2.20143764,0.284204377
72,62,0,1,10,20,236,1779.3013340716716,1782.755231543444,stimuli/231_xb.png,l,3.4423440245445818,harmless,0.333,6.62295082,1.05141071,0.134619347
72,62,0,1,10,21,237,1783.3993719746359,1787.907243560534,stimuli/277_yb.png,l,4.496226372662932,ambig,0.333,5.491525424,2.02886822,0.264136144
72,62,0,1,10,22,238,1788.5353899402544,1799.155236821156,stimuli/370_za.png,l,10.608399771852419,awful,0.333,2.393442623,1.882185684,0.240989182
72,62,0,1,10,23,239,1799.7816329528578,1805.7071891310625,stimuli/349_za.png,l,5.913876306498423,awful,0.333,3.288135593,2.101320172,0.273568585
72,62,0,1,10,24,240,1806.3269119507167,1810.8912534476258,stimuli/305_zb.png,l,4.5521137865725905,awful,0.333,2.75,2.12830003,0.274762352
