id,age,condition,counterbalance,block,trialinblock,trial,tstart,tend,trialstim,response,RT,trialtype,ethicfreq,norm_mean,norm_sd,norm_se
125,23,0,2,0,0,practice,8.27084295451641e-06,6.375974374823272,stimuli/prac_217_1.png,l,6.3550371318124235,harmless,NA,NA,NA,NA
125,23,0,2,1,1,1,4.329975140397437,15.743746908265166,stimuli/137_xa.png,l,11.402335269958712,harmless,0.333,6.355932203,1.094858074,0.14253838
125,23,0,2,1,2,2,16.298145300825126,32.175802185432985,stimuli/201_yb.png,l,15.865733199403621,ambig,0.333,5.898305085,1.626238682,0.211718243
125,23,0,2,1,3,3,32.736728574032895,41.12776834296528,stimuli/254_ya.png,a,8.379121597507037,ambig,0.333,5.983606557,1.627798137,0.208418195
125,23,0,2,1,4,4,41.68962223874405,50.21572004491463,stimuli/331_za.png,a,8.514337566914037,awful,0.333,1.983606557,1.638004917,0.209725039
125,23,0,2,1,5,5,50.76903417950962,70.31174243742134,stimuli/339_ya.png,a,19.530737311113626,ambig,0.333,4.949152542,1.960152429,0.25519011
125,23,0,2,1,6,6,70.86204049992375,75.7997521921061,stimuli/333_za.png,a,4.925660794600844,awful,0.333,3.266666667,2.185209657,0.282109354
125,23,0,2,1,7,7,76.36222875828389,82.26371962262783,stimuli/240_xa.png,l,5.88923989306204,harmless,0.333,6.482758621,1.096107616,0.143925981
125,23,0,2,1,8,8,82.81301140889991,86.26367984421086,stimuli/346_zb.png,a,3.4388144607655704,awful,0.333,1.288135593,0.983499162,0.128040685
125,23,0,2,1,9,9,86.81414056522772,93.58372140279971,stimuli/244_xb.png,l,6.757674087770283,harmless,0.333,6.610169492,0.743174671,0.096753101
125,23,0,2,1,10,10,94.1423158297548,106.49585280241445,stimuli/310_zb.png,a,12.341568388976157,awful,0.333,3.224137931,2.102989547,0.276136056
125,23,0,2,1,11,11,107.04961513378657,112.9916910326574,stimuli/252_zb.png,a,5.930242010508664,awful,0.333,2.711864407,1.983125776,0.258180985
125,23,0,2,1,12,12,113.54873449425213,119.18370549147949,stimuli/306_zb.png,a,5.6231343519175425,awful,0.333,2.352112676,1.917055413,0.101746737
125,23,0,2,1,13,13,119.73841896071099,128.10370278183836,stimuli/340_za.png,a,8.353311692830175,awful,0.333,2.508474576,1.832398855,0.238558011
125,23,0,2,1,14,14,128.65834023873322,146.72772446856834,stimuli/222_ya.png,l,18.05743021843955,ambig,0.333,5.931034483,1.543089507,0.202617579
125,23,0,2,1,15,15,147.28283926669974,154.13570000603795,stimuli/226_yb.png,a,6.8409496571403,ambig,0.333,5.683333333,1.712285287,0.22105508
125,23,0,2,1,16,16,154.6885836670408,157.7676769865211,stimuli/115_xb.png,l,3.0671909018419683,harmless,0.333,6.440677966,1.021681954,0.133011661
125,23,0,2,1,17,17,158.3303193617612,164.19168205291498,stimuli/264_xa.png,l,5.84977180568967,harmless,0.333,6.533333333,0.947193297,0.122282129
125,23,0,2,1,18,18,164.75343354872894,173.4956799041247,stimuli/373_zb.png,a,8.730293525499292,awful,0.333,2.327586207,1.858011869,0.243968911
125,23,0,2,1,19,19,174.04941939236596,185.00761934323236,stimuli/234_xb.png,l,10.94627232721541,harmless,0.333,6.637931034,0.788030542,0.103473479
125,23,0,2,1,20,20,185.56562930275686,192.2556938304333,stimuli/286_ya.png,l,6.678120362455957,ambig,0.333,5.06779661,1.779814082,0.231712057
125,23,0,2,1,21,21,192.81301534734666,196.8396306670038,stimuli/260_ya.png,a,4.01465185591951,ambig,0.333,4.966101695,2.016877936,0.262575142
125,23,0,2,1,22,22,197.39213820523582,211.1036397664575,stimuli/283_yb.png,l,13.699646405177191,ambig,0.333,5.949152542,1.478859402,0.192531095
125,23,0,2,1,23,23,211.65665812289808,217.08764135127421,stimuli/156_xc.png,l,5.419095776975155,harmless,0.333,6.590163934,0.955284411,0.122311635
125,23,0,2,1,24,24,217.64117407042067,222.44760982785374,stimuli/164_xb.png,l,4.794521130621433,harmless,0.333,6.830508475,0.460604639,0.059965616
125,23,0,2,2,1,25,233.07170555763878,240.68762937840074,stimuli/330_ya.png,a,7.604323089122772,ambig,0.333,4.796610169,2.049219036,0.266785595
125,23,0,2,2,2,26,241.23552222398575,254.52776810666546,stimuli/212_ya.png,l,13.280595132731833,ambig,0.333,5.677966102,1.490668422,0.194068498
125,23,0,2,2,3,27,255.08552639873233,260.98361404042225,stimuli/176_xb.png,l,5.886275414843112,harmless,0.333,6.796610169,0.517942249,0.067430337
125,23,0,2,2,4,28,261.53273174678907,271.10362243722193,stimuli/367_zb.png,a,9.559006783529185,awful,0.333,3.413793103,2.086165649,0.27392697
125,23,0,2,2,5,29,271.65788613446057,277.7356017808197,stimuli/284_ya.png,l,6.065781721146777,ambig,0.333,5.948275862,1.431750417,0.18799804
125,23,0,2,2,6,30,278.2975206611445,283.4476137663005,stimuli/295_za.png,a,5.138241493725218,awful,0.333,2.3,1.825432384,0.235662307
125,23,0,2,2,7,31,284.0846370946383,293.8555924545508,stimuli/204_xb.png,l,9.75924553303048,harmless,0.333,6.508474576,0.858484658,0.111765183
125,23,0,2,2,8,32,294.40629224001896,298.6635634233244,stimuli/106_xc.png,l,4.245346316485666,harmless,0.333,6.661016949,0.863237081,0.112383896
125,23,0,2,2,9,33,299.21960336563643,305.39157067332417,stimuli/138_xc.png,l,6.160099154687487,harmless,0.333,6.661016949,0.70978796,0.092406522
125,23,0,2,2,10,34,305.9549235466402,311.92757252277806,stimuli/334_za.png,a,5.96077964163851,awful,0.333,3.333333333,2.214487481,0.285889104
125,23,0,2,2,11,35,312.4849192458205,316.79151963081677,stimuli/162_xa.png,l,4.294758225791156,harmless,0.333,6.644067797,0.905209289,0.117848212
125,23,0,2,2,12,36,317.3459975802107,322.4956164949108,stimuli/316_za.png,a,5.137651118682697,awful,0.333,2.344827586,1.802062407,0.236622386
125,23,0,2,2,13,37,323.0471378429793,330.2476160506485,stimuli/246_ya.png,l,7.188540737843141,ambig,0.333,5.542372881,1.715266481,0.223308675
125,23,0,2,2,14,38,330.7980586546473,353.79959032149054,stimuli/309_ya.png,a,22.989579624612816,ambig,0.333,4.706896552,1.946734744,0.255618795
125,23,0,2,2,15,39,354.36131030961405,359.8715912635671,stimuli/227_xa.png,l,5.498311976436526,harmless,0.333,6.180327869,1.05685377,0.135316259
125,23,0,2,2,16,40,360.42261794104706,371.2475546107162,stimuli/328_za.png,a,10.812996442778967,awful,0.333,2.706896552,1.955725922,0.256799395
125,23,0,2,2,17,41,371.79743559041526,388.6235640377272,stimuli/319_ya.png,a,16.814211851218715,ambig,0.333,4.216666667,2.108028774,0.272145344
125,23,0,2,2,18,42,389.1723706058692,394.13549756922293,stimuli/314_zb.png,a,4.951299770385958,awful,0.333,1.833333333,1.451669602,0.18740974
125,23,0,2,2,19,43,394.68811932276003,399.4155105976388,stimuli/165_xb.png,l,4.715497128083371,harmless,0.333,6.557377049,1.008705278,0.129151477
125,23,0,2,2,20,44,399.96910436288454,404.82367557496764,stimuli/357_za.png,a,4.842611292959191,awful,0.333,2.793103448,2.066937905,0.271402243
125,23,0,2,2,21,45,405.37404689285904,410.51950797613245,stimuli/301_za.png,a,5.1334806841332465,awful,0.333,3.610169492,2.212947396,0.288101212
125,23,0,2,2,22,46,411.0777443971019,433.81555132125504,stimuli/171_xa.png,l,22.725964764948003,harmless,0.333,6.465517241,1.046556882,0.137419651
125,23,0,2,2,23,47,434.3746912247734,440.6234706962714,stimuli/235_ya.png,a,6.236800647806376,ambig,0.333,5.694915254,1.567495667,0.204070554
125,23,0,2,2,24,48,441.1711957635125,451.6395274006063,stimuli/315_yb.png,a,10.456667890190147,ambig,0.333,5.050847458,1.915667965,0.249398726
125,23,0,2,3,1,49,461.31919990992174,469.3274840649683,stimuli/261_yb.png,a,7.99655975587666,ambig,0.333,5.706896552,1.901141123,0.249632059
125,23,0,2,3,2,50,469.8748968123691,474.63147915923037,stimuli/362_zb.png,a,4.744566501700319,awful,0.333,1.474576271,1.222715071,0.159183944
125,23,0,2,3,3,51,475.1863288991153,479.02355001680553,stimuli/114_xc.png,l,3.8252478077774867,harmless,0.333,6.644067797,0.97843492,0.127381377
125,23,0,2,3,4,52,479.57793344324455,486.59148410591297,stimuli/348_za.png,a,7.001704171299934,awful,0.333,3.084745763,2.119597681,0.275948114
125,23,0,2,3,5,53,487.1397641020594,491.89542721258476,stimuli/205_yb.png,l,4.743694526841864,ambig,0.333,5.847457627,1.52918233,0.199082582
125,23,0,2,3,6,54,492.45237575739156,502.8954665971687,stimuli/208_xb.png,l,10.431079326895997,harmless,0.333,6.216666667,1.165778516,0.150501359
125,23,0,2,3,7,55,503.4527609386714,507.64746182062663,stimuli/304_ya.png,a,4.182777984417044,ambig,0.333,4.034482759,2.017167697,0.264867095
125,23,0,2,3,8,56,508.20259000954684,512.3035602883901,stimuli/185_xa.png,l,4.089009572053328,harmless,0.333,6.5,0.965506805,0.124646393
125,23,0,2,3,9,57,512.8590118248248,521.6314704946708,stimuli/202_yb.png,a,8.760541286086664,ambig,0.333,5.431034483,1.892849601,0.248543329
125,23,0,2,3,10,58,522.186864923453,525.8234207566129,stimuli/105_xa.png,l,3.6246695632580668,harmless,0.333,6.557377049,1.088187946,0.139328189
125,23,0,2,3,11,59,526.3736829792615,531.5194276316324,stimuli/317_za.png,a,5.133707933360711,awful,0.333,3.65,2.03215674,0.262350307
125,23,0,2,3,12,60,532.0784714367473,541.3833952196874,stimuli/224_yb.png,l,9.293141094502062,ambig,0.333,5.881355932,1.609077116,0.209483997
125,23,0,2,3,13,61,541.936849957332,548.8154363182839,stimuli/213_ya.png,l,6.866688669542782,ambig,0.333,5.98245614,1.597891781,0.211645937
125,23,0,2,3,14,62,549.3738129483536,554.3834117611405,stimuli/125_xc.png,l,4.997593207517639,harmless,0.333,6.683333333,0.999858747,0.129081209
125,23,0,2,3,15,63,554.9373773169937,558.7434861822985,stimuli/123_xc.png,l,3.7941741523100063,harmless,0.333,6.491525424,1.023396666,0.133234897
125,23,0,2,3,16,64,559.295620748424,564.3754367751535,stimuli/318_za.png,a,5.067967172130011,awful,0.333,3.06557377,2.197489875,0.281359747
125,23,0,2,3,17,65,564.9360536008608,567.9274397967383,stimuli/199_za.png,a,2.97940264607314,awful,0.333,3.033898305,2.189048775,0.284989876
125,23,0,2,3,18,66,568.4841807847843,578.6794460478704,stimuli/168_xa.png,l,10.183488088543527,harmless,0.333,6.474576271,1.164946827,0.151663159
125,23,0,2,3,19,67,579.2344478123123,583.9753838422475,stimuli/207_yb.png,a,4.729145464603789,ambig,0.333,5.655737705,1.662179753,0.212820309
125,23,0,2,3,20,68,584.5310622339603,588.1995010760147,stimuli/239_ya.png,a,3.6565502090379596,ambig,0.333,5.157894737,1.925296579,0.255011762
125,23,0,2,3,21,69,588.7731880724896,600.7674717927584,stimuli/268_zb.png,a,11.981873635319062,awful,0.333,2.655737705,2.048456703,0.262278005
125,23,0,2,3,22,70,601.3244668113766,605.9594126024749,stimuli/329_zb.png,a,4.62296775507275,awful,0.333,2.406779661,1.992387617,0.259386774
125,23,0,2,3,23,71,606.5125168171944,610.4794420306571,stimuli/355_zb.png,a,3.9552630418911576,awful,0.333,3.183333333,2.070713188,0.267327923
125,23,0,2,3,24,72,611.0290016321233,617.0553770995466,stimuli/118_xb.png,l,6.0144313022028655,harmless,0.333,6.474576271,0.953323265,0.124112118
125,23,0,2,4,1,73,626.2077139449539,636.9514285579789,stimuli/289_yb.png,a,10.73183582618367,ambig,0.333,5.305084746,1.714584873,0.223219937
125,23,0,2,4,2,74,637.5118894206826,642.3273674865486,stimuli/336_ya.png,l,4.803694589762017,ambig,0.333,5.033898305,1.884291705,0.245313885
125,23,0,2,4,3,75,642.8863849040354,648.1354282522807,stimuli/347_zb.png,a,5.237112179864198,awful,0.333,3.796610169,2.147810923,0.279621165
125,23,0,2,4,4,76,648.6822045446606,651.2553590614116,stimuli/184_xb.png,l,2.561200505355373,harmless,0.333,6.508474576,1.194425,0.15550089
125,23,0,2,4,5,77,651.8092623896664,657.9673411146505,stimuli/321_zb.png,a,6.146019162959419,awful,0.333,2.918032787,2.177881861,0.278849198
125,23,0,2,4,6,78,658.5261714552762,661.0873983483762,stimuli/179_xb.png,l,2.5491586663993075,harmless,0.333,6.704918033,0.882123617,0.112944356
125,23,0,2,4,7,79,661.6348875018302,666.8633677606704,stimuli/241_yb.png,l,5.216653065755963,ambig,0.333,5.508474576,1.442852555,0.187843403
125,23,0,2,4,8,80,667.4172793596517,680.8153378567658,stimuli/288_yb.png,l,13.386187981115654,ambig,0.333,5.189655172,1.914459262,0.251380817
125,23,0,2,4,9,81,681.3711930853315,685.3033921160968,stimuli/238_xb.png,l,3.9202379301423207,harmless,0.333,6.4,1.076718178,0.139003719
125,23,0,2,4,10,82,685.8550406764261,691.9513608164852,stimuli/290_zb.png,a,6.084391728625633,awful,0.333,2.586206897,2.026443456,0.266085062
125,23,0,2,4,11,83,692.5109146520263,697.479343175306,stimuli/145_xa.png,l,4.956550524104387,harmless,0.333,6.661016949,0.822321556,0.107057148
125,23,0,2,4,12,84,698.0272056946997,703.5993267598096,stimuli/332_zb.png,a,5.560489613562822,awful,0.333,2.694915254,2.002190501,0.260663001
125,23,0,2,4,13,85,704.1506582740694,710.7273400749546,stimuli/152_xa.png,l,6.564870755537413,harmless,0.333,6.576271186,0.968528743,0.126091702
125,23,0,2,4,14,86,711.2772742238594,718.0233105585212,stimuli/218_yb.png,l,6.734131160075776,ambig,0.333,5.850282486,1.552723069,0.0825263
125,23,0,2,4,15,87,718.5734987381147,724.8073274246417,stimuli/220_yb.png,l,6.221924299723469,ambig,0.333,4.75,2.096203186,0.270618668
125,23,0,2,4,16,88,725.356072158902,730.3993810317479,stimuli/311_za.png,a,5.031154787749983,awful,0.333,3.116666667,1.975199339,0.254997138
125,23,0,2,4,17,89,730.9494876852259,742.1193270432996,stimuli/211_zb.png,a,11.157890072790906,awful,0.333,3.983333333,2.127237938,0.274625237
125,23,0,2,4,18,90,742.6677787562367,746.5353106498951,stimuli/327_zb.png,a,3.855790558969602,awful,0.333,2.502808989,1.906990248,0.101070281
125,23,0,2,4,19,91,747.0889816089766,753.5353563360404,stimuli/146_xa.png,l,6.434401417267509,harmless,0.333,6.442622951,1.162247681,0.148810567
125,23,0,2,4,20,92,754.0892297319369,760.0953623066889,stimuli/136_xc.png,l,5.994301443337463,harmless,0.333,6.559322034,1.038420326,0.135190811
125,23,0,2,4,21,93,760.650957990787,769.4633286123862,stimuli/147_ya.png,l,8.800522948615253,ambig,0.333,5.883333333,1.766847875,0.22809908
125,23,0,2,4,22,94,770.0210896614008,775.199255316169,stimuli/359_za.png,a,5.166158474166878,awful,0.333,2.01754386,1.641985167,0.217486248
125,23,0,2,4,23,95,775.7610064181499,779.383290850441,stimuli/111_xa.png,l,3.610474174725823,harmless,0.333,6.590163934,0.863655973,0.110579816
125,23,0,2,4,24,96,779.9326330490876,786.3833526843227,stimuli/215_yb.png,l,6.4388546330155805,ambig,0.333,5.866666667,1.466769385,0.189359113
125,23,0,2,5,1,97,795.3154406505637,802.9112889631651,stimuli/203_yb.png,l,7.584105402580462,ambig,0.333,6,1.542501327,0.200816568
125,23,0,2,5,2,98,803.4646724147024,809.4073158454848,stimuli/308_zb.png,a,5.930715019349009,awful,0.333,1.644067797,1.471132708,0.191525165
125,23,0,2,5,3,99,809.9645077871392,815.1432791769039,stimuli/194_xb.png,l,5.166801230749115,harmless,0.333,6.586206897,1.026567825,0.134794959
125,23,0,2,5,4,100,815.6984325719532,820.3272812343203,stimuli/370_za.png,a,4.616915918537416,awful,0.333,2.393442623,1.882185684,0.240989182
125,23,0,2,5,5,101,820.8868445222033,826.4472876619548,stimuli/175_xb.png,l,5.548690777388401,harmless,0.333,6.6,1.028409995,0.13276716
125,23,0,2,5,6,102,826.995093861362,831.6712812280748,stimuli/160_xb.png,l,4.664065970806405,harmless,0.333,6.666666667,0.680644427,0.087870818
125,23,0,2,5,7,103,832.2297858580714,847.6073159242515,stimuli/335_yb.png,a,15.365777309983969,ambig,0.333,5.016949153,2.046793332,0.266469795
125,23,0,2,5,8,104,848.1665818585316,851.8872454573866,stimuli/294_za.png,a,3.7087375505361706,awful,0.333,1.557377049,1.38473331,0.177296933
125,23,0,2,5,9,105,852.4484806212131,855.9992528742878,stimuli/169_xc.png,l,3.5388938600663096,harmless,0.333,6.603448276,0.916508538,0.120343467
125,23,0,2,5,10,106,856.5585097500589,861.4392764420481,stimuli/245_yb.png,a,4.868767388281412,ambig,0.333,4.949152542,2.096168334,0.272897873
125,23,0,2,5,11,107,861.996605835855,866.2632686691359,stimuli/293_zb.png,a,4.254832883365452,awful,0.333,3.677966102,2.169066842,0.28238845
125,23,0,2,5,12,108,866.8231828736607,870.543293512892,stimuli/139_xa.png,l,3.708268480026163,harmless,0.333,6.724137931,0.790138861,0.103750315
125,23,0,2,5,13,109,871.104772861232,876.911247609416,stimuli/198_yb.png,a,5.794533733744174,ambig,0.333,5.101694915,1.83542643,0.238952168
125,23,0,2,5,14,110,877.4635357754305,881.4792514091823,stimuli/322_za.png,a,4.0038679607678205,awful,0.333,2.406779661,1.975004531,0.257123689
125,23,0,2,5,15,111,882.0268291779794,893.4637823229423,stimuli/273_ya.png,l,11.42507987190038,ambig,0.333,5.551724138,1.836973233,0.241206403
125,23,0,2,5,16,112,894.011071402696,910.8552734393161,stimuli/279_ya.png,a,16.832381932879798,ambig,0.333,5.31147541,1.970964092,0.252356093
125,23,0,2,5,17,113,911.4180260915309,918.1192258249503,stimuli/365_zb.png,a,6.689395383466035,awful,0.333,2.966101695,2.165291266,0.281896912
125,23,0,2,5,18,114,918.6663943878375,922.2952028779546,stimuli/292_zb.png,a,3.616941912448965,awful,0.333,2.396551724,1.955107169,0.256718148
125,23,0,2,5,19,115,922.8539607508574,927.3432367203059,stimuli/296_yb.png,a,4.477329834946431,ambig,0.333,4.229508197,2.052587332,0.262806878
125,23,0,2,5,20,116,927.9026026914362,937.5752072416944,stimuli/217_yb.png,l,9.660772237344645,ambig,0.333,5.169491525,2.001314588,0.260548967
125,23,0,2,5,21,117,938.1353290030966,942.5192255886504,stimuli/177_xb.png,l,4.371975657180883,harmless,0.333,6.482758621,1.063614811,0.139659467
125,23,0,2,5,22,118,943.0713085609023,949.4552776140627,stimuli/150_xc.png,l,6.372054426348768,harmless,0.333,6.482758621,1.030097582,0.135258439
125,23,0,2,5,23,119,950.0110572242411,955.9671780624194,stimuli/163_xa.png,l,5.944193214410916,harmless,0.333,6.627118644,0.963082427,0.125382652
125,23,0,2,5,24,120,956.5259067908628,960.551238566637,stimuli/343_zb.png,a,4.013347044354305,awful,0.333,3.103448276,2.141401862,0.28117984
125,23,0,2,6,1,121,972.2447701200144,976.1751747888047,stimuli/351_zb.png,a,3.9187728232936934,awful,0.333,3.06779661,2.033040926,0.264679384
125,23,0,2,6,2,122,976.728962720139,979.7111593091395,stimuli/107_xa.png,l,2.9702650267863646,harmless,0.333,6.813559322,0.540580029,0.070377525
125,23,0,2,6,3,123,980.2617232176708,984.3431516495766,stimuli/223_yb.png,a,4.06936886976473,ambig,0.333,5.542372881,1.77455224,0.231027024
125,23,0,2,6,4,124,984.9014747167239,990.4071527933702,stimuli/352_zb.png,a,5.4941565081244335,awful,0.333,2.93442623,2.135952968,0.273480754
125,23,0,2,6,5,125,990.963938679779,994.8791653144872,stimuli/108_xb.png,l,3.903454580111429,harmless,0.333,6.568965517,1.077880782,0.141532681
125,23,0,2,6,6,126,995.432760261232,1007.4231653868919,stimuli/300_za.png,a,11.978538941824809,awful,0.333,3.75,2.12032137,0.273732312
125,23,0,2,6,7,127,1007.9795771198114,1015.9191564293578,stimuli/133_xa.png,l,7.927664682734758,harmless,0.333,6.568965517,1.186356193,0.1557762
125,23,0,2,6,8,128,1016.4797035442898,1022.1671438766643,stimuli/291_za.png,a,5.67538234568201,awful,0.333,2.593220339,1.830005126,0.238246374
125,23,0,2,6,9,129,1022.7296858212212,1029.2631363368127,stimuli/258_ya.png,l,6.52138583350461,ambig,0.333,5.627118644,1.78014243,0.231754804
125,23,0,2,6,10,130,1029.8218571883626,1037.4472081050044,stimuli/209_ya.png,a,7.613428806769662,ambig,0.333,5.603448276,1.825161903,0.239655499
125,23,0,2,6,11,131,1038.0111084241653,1042.535201554536,stimuli/233_yb.png,l,4.512223795754835,ambig,0.333,5.318309859,1.922973646,0.102060844
125,23,0,2,6,12,132,1043.089269904187,1046.7031295784982,stimuli/256_zb.png,a,3.6020750167081133,awful,0.333,3.051724138,2.012438634,0.264246138
125,23,0,2,6,13,133,1047.2606488059973,1052.663106168271,stimuli/121_xc.png,l,5.390469873906113,harmless,0.333,6.508474576,1.006408455,0.131023221
125,23,0,2,6,14,134,1053.2135416830424,1059.1111397743225,stimuli/132_xc.png,l,5.885681495186873,harmless,0.333,6.627118644,0.692280217,0.090127208
125,23,0,2,6,15,135,1059.6662758402526,1064.4791631876724,stimuli/372_zb.png,a,4.8010054097976536,awful,0.333,2.796610169,2.082601664,0.271131643
125,23,0,2,6,16,136,1065.0262431352166,1069.6151802396635,stimuli/363_zb.png,a,4.5768960530404,awful,0.333,2.433333333,2.019956927,0.260775318
125,23,0,2,6,17,137,1070.1674711626256,1081.3831388260005,stimuli/280_xb.png,l,11.203818415058777,harmless,0.333,6.333333333,1.068289726,0.137915611
125,23,0,2,6,18,138,1081.9317929756362,1084.2631379122613,stimuli/112_xc.png,l,2.319366112933494,harmless,0.333,6.706896552,0.749470472,0.098410294
125,23,0,2,6,19,139,1084.823851230205,1089.4870968199102,stimuli/350_ya.png,a,4.651524341199547,ambig,0.333,4.915254237,2.02814792,0.264042369
125,23,0,2,6,20,140,1090.0421686889604,1093.8471172841964,stimuli/221_xb.png,l,3.7929209346184507,harmless,0.333,6.440677966,1.133672495,0.147591588
125,23,0,2,6,21,141,1094.4020800578874,1108.0710899764672,stimuli/271_ya.png,l,13.657209507073276,ambig,0.333,5.711864407,1.771915459,0.230683744
125,23,0,2,6,22,142,1108.6198622799711,1112.495078895241,stimuli/230_yb.png,a,3.863244093139656,ambig,0.333,4.98245614,1.875511626,0.248417583
125,23,0,2,6,23,143,1113.0418906337582,1117.9030890910653,stimuli/313_zb.png,a,4.849236175185069,awful,0.333,2.101694915,1.688652955,0.219843889
125,23,0,2,6,24,144,1118.4646921070525,1125.8151125769364,stimuli/253_ya.png,a,7.338417227729224,ambig,0.333,5.491803279,1.849531029,0.236808182
125,23,0,2,7,1,145,1139.11914193572,1142.5030558505096,stimuli/143_xb.png,l,3.3724833246087655,harmless,0.333,6.655172414,0.738697862,0.096995781
125,23,0,2,7,2,146,1143.056693332619,1146.4790690585505,stimuli/180_xc.png,l,3.4103819360025227,harmless,0.333,6.672131148,0.723908638,0.092687003
125,23,0,2,7,3,147,1147.1094749876065,1153.919143038569,stimuli/272_xb.png,l,6.7977530303178355,harmless,0.333,6.355932203,1.029943284,0.134087194
125,23,0,2,7,4,148,1154.478819754091,1158.0550738382153,stimuli/243_ya.png,a,3.5643256726907566,ambig,0.333,5.830508475,1.652088985,0.215083666
125,23,0,2,7,5,149,1158.6043526275316,1165.247065847856,stimuli/250_yb.png,l,6.630784021108411,ambig,0.333,5.950819672,1.585625318,0.203018519
125,23,0,2,7,6,150,1165.807265984593,1169.6950553432107,stimuli/368_za.png,a,3.875795174855739,awful,0.333,3.590163934,2.02794682,0.259651984
125,23,0,2,7,7,151,1170.2454203596571,1178.8310790905962,stimuli/281_ya.png,l,8.573577507282607,ambig,0.333,5.881355932,1.543448286,0.200939852
125,23,0,2,7,8,152,1179.3850667017978,1184.4470383574953,stimuli/172_xb.png,l,5.0500877489103,harmless,0.333,6.482758621,1.127664553,0.14806961
125,23,0,2,7,9,153,1185.0098335449584,1192.7190736428602,stimuli/131_xb.png,l,7.697578713996336,harmless,0.333,6.525423729,1.119666394,0.145768149
125,23,0,2,7,10,154,1193.2759950123727,1203.207031803904,stimuli/358_za.png,a,9.919089081697166,awful,0.333,3.949152542,2.112554662,0.275031191
125,23,0,2,7,11,155,1203.7604546400253,1207.3270650128834,stimuli/148_xc.png,l,3.554799721459858,harmless,0.333,6.491525424,1.135218061,0.147792803
125,23,0,2,7,12,156,1207.886160805705,1211.7670554976212,stimuli/182_xb.png,l,3.869158477289602,harmless,0.333,6.542372881,0.988241802,0.128658124
125,23,0,2,7,13,157,1212.3222246465739,1217.455007041921,stimuli/324_za.png,a,5.120811054715887,awful,0.333,2.491525424,1.994586478,0.259673041
125,23,0,2,7,14,158,1218.0096035388997,1230.031090197037,stimuli/225_ya.png,l,12.009461754467338,ambig,0.333,5.85,1.792876677,0.231459384
125,23,0,2,7,15,159,1230.5894557994325,1241.3830840813462,stimuli/142_xa.png,l,10.781734135118313,harmless,0.333,6.4,1.076718178,0.139003719
125,23,0,2,7,16,160,1241.9325507351896,1248.9270412246697,stimuli/229_za.png,a,6.982883850112557,awful,0.333,3.406779661,2.043649913,0.266060557
125,23,0,2,7,17,161,1249.4790789047256,1254.1350032925839,stimuli/251_ya.png,l,4.643994794925675,ambig,0.333,5.655172414,1.792300532,0.235340589
125,23,0,2,7,18,162,1254.6972297665197,1271.6629860452376,stimuli/275_yb.png,a,16.953823928837664,ambig,0.333,4.836065574,2.138382004,0.27379176
125,23,0,2,7,19,163,1272.213860304444,1279.3110090962145,stimuli/312_yb.png,a,7.085145549615845,ambig,0.333,4.677966102,2.112692986,0.275049199
125,23,0,2,7,20,164,1279.8702261935687,1283.3510860694805,stimuli/361_za.png,a,3.4689070460153744,awful,0.333,2.416666667,1.907093508,0.246204713
125,23,0,2,7,21,165,1283.900576747954,1292.654958677711,stimuli/237_ya.png,l,8.742442884482443,ambig,0.333,4.305084746,2.019339575,0.26289562
125,23,0,2,7,22,166,1293.213429830852,1295.4070015564794,stimuli/248_zb.png,a,2.181578723480925,awful,0.333,3.288135593,1.991800844,0.259310383
125,23,0,2,7,23,167,1295.9638870859053,1303.3350080974633,stimuli/302_za.png,a,7.359213080024347,awful,0.333,3.137931034,2.188071937,0.287307921
125,23,0,2,7,24,168,1303.8854766953737,1317.7989944325527,stimuli/369_za.png,a,13.901678334921598,awful,0.333,2.948275862,2.055565093,0.26990892
125,23,0,2,8,1,169,1326.282504103845,1329.799009792623,stimuli/161_xc.png,l,3.504812403349206,harmless,0.333,6.796610169,0.609682252,0.079373868
125,23,0,2,8,2,170,1330.3539052186534,1335.8229926461354,stimuli/345_zb.png,a,5.457343729794957,awful,0.333,3.694915254,2.191317013,0.285285176
125,23,0,2,8,3,171,1336.3702549443115,1343.2149229007773,stimuli/341_zb.png,a,6.8329518280224875,awful,0.333,3.603448276,2.15975677,0.283589957
125,23,0,2,8,4,172,1343.7750596283004,1346.8790444037877,stimuli/337_zb.png,a,3.0920000441838056,awful,0.333,3.033333333,2.20143764,0.284204377
125,23,0,2,8,5,173,1347.4916067495942,1351.2949772041757,stimuli/167_xb.png,l,3.7915282954927534,harmless,0.333,6.590163934,0.955284411,0.122311635
125,23,0,2,8,6,174,1351.8534479634836,1359.168995346292,stimuli/236_yb.png,a,7.303501999122091,ambig,0.333,5.93442623,1.49297078,0.19115532
125,23,0,2,8,7,175,1359.7396178276977,1364.5749512418406,stimuli/127_xb.png,l,4.823918184032664,harmless,0.333,6.423728814,1.162686987,0.151368953
125,23,0,2,8,8,176,1365.1343093360774,1368.7669570361031,stimuli/353_zb.png,a,3.6207397686084732,awful,0.333,1.949152542,1.623361018,0.211343603
125,23,0,2,8,9,177,1369.3229843752924,1372.9271377169061,stimuli/186_xa.png,l,3.5922009055502713,harmless,0.333,6.65,0.879618561,0.113558268
125,23,0,2,8,10,178,1373.4778579822741,1376.5109461597167,stimuli/247_ya.png,a,3.021180246025324,ambig,0.333,4.65,2.081598147,0.268733165
125,23,0,2,8,11,179,1377.0710813119076,1379.526950876345,stimuli/320_za.png,a,2.4439147653756663,awful,0.333,1.423728814,1.117314975,0.14546202
125,23,0,2,8,12,180,1380.0867965518264,1391.6629592637764,stimuli/267_ya.png,a,11.564224060508423,ambig,0.333,5.103448276,1.898195405,0.249245267
125,23,0,2,8,13,181,1392.2123900776496,1398.0949814576888,stimuli/269_za.png,a,5.870586562552489,awful,0.333,3.457627119,2.119873401,0.27598401
125,23,0,2,8,14,182,1398.6504924648907,1409.0949495561654,stimuli/219_ya.png,l,10.432739781215787,ambig,0.333,5.271186441,1.998538332,0.260187529
125,23,0,2,8,15,183,1409.6501620282652,1416.054898182978,stimuli/366_za.png,a,6.3928412202512845,awful,0.333,3.689655172,2.036568291,0.267414518
125,23,0,2,8,16,184,1416.6034585973248,1419.6148939136183,stimuli/299_za.png,a,2.9994864248437807,awful,0.333,1.288135593,0.929420425,0.121000233
125,23,0,2,8,17,185,1420.1653798407642,1422.0309291140875,stimuli/232_yb.png,a,1.8535976250423118,ambig,0.333,5.483333333,1.845669845,0.238274952
125,23,0,2,8,18,186,1422.5882021879079,1437.286916359677,stimuli/200_ya.png,l,14.686992529430427,ambig,0.333,5.862068966,1.444266048,0.189641423
125,23,0,2,8,19,187,1437.8388886613538,1442.4389207991771,stimuli/166_xa.png,l,4.588081277208403,harmless,0.333,6.593220339,1.052397002,0.13701042
125,23,0,2,8,20,188,1442.992614601273,1445.590945324744,stimuli/113_xb.png,l,2.5863578075077385,harmless,0.333,6.733333333,0.660422737,0.085260209
125,23,0,2,8,21,189,1446.1493199856486,1451.574894528021,stimuli/287_ya.png,l,5.413701269426383,ambig,0.333,5.950819672,1.407435369,0.180203633
125,23,0,2,8,22,190,1452.1344767205883,1457.3909086183412,stimuli/110_xa.png,l,5.244586981716566,harmless,0.333,6.428571429,1.059281795,0.141552484
125,23,0,2,8,23,191,1457.9474259018898,1472.9589171442203,stimuli/276_ya.png,a,14.9997711754404,ambig,0.333,5.186440678,1.804922162,0.234980851
125,23,0,2,8,24,192,1473.5682243535994,1477.7908918404719,stimuli/124_xa.png,l,4.211366472067311,harmless,0.333,6.344262295,1.181598436,0.151288177
125,23,0,2,9,1,193,1486.7041709070327,1491.3348690698622,stimuli/338_zb.png,a,4.618979277438484,awful,0.333,3.310344828,2.137443107,0.28066003
125,23,0,2,9,2,194,1491.8832522536395,1495.8388571536634,stimuli/174_xc.png,l,3.943653645575978,harmless,0.333,6.533333333,1.111826512,0.143536185
125,23,0,2,9,3,195,1496.3992085272912,1499.014900766546,stimuli/297_za.png,a,2.6037319264141843,awful,0.333,1.898305085,1.446695584,0.188343723
125,23,0,2,9,4,196,1499.5718855452724,1505.8949010344222,stimuli/191_ya.png,l,6.31104533013422,ambig,0.333,5.517241379,2.062542966,0.270825159
125,23,0,2,9,5,197,1506.4471750219818,1512.990889949957,stimuli/104_xc.png,l,6.531986984191462,harmless,0.333,6.745762712,0.756425814,0.098478253
125,23,0,2,9,6,198,1513.5553302319022,1516.5908653739607,stimuli/364_za.png,a,3.023658718331717,awful,0.333,1.677966102,1.279017376,0.166513879
125,23,0,2,9,7,199,1517.1491908042226,1524.038945847773,stimuli/170_xc.png,l,6.877848293748684,harmless,0.333,6.583333333,1.062323432,0.137145365
125,23,0,2,9,8,200,1524.6031545483274,1540.6228779582307,stimuli/249_ya.png,a,16.007905275328085,ambig,0.333,5.327868852,1.859402337,0.238072074
125,23,0,2,9,9,201,1541.1806716963183,1545.9268580862554,stimuli/149_xa.png,l,4.7341941754566506,harmless,0.333,6.721311475,0.933294301,0.11949609
125,23,0,2,9,10,202,1546.4789280616678,1550.0468148892978,stimuli/371_zb.png,a,3.556008828454651,awful,0.333,3.131147541,2.085468851,0.267016925
125,23,0,2,9,11,203,1550.602337318007,1553.5188305611955,stimuli/153_xb.png,l,2.9046699886675924,harmless,0.333,6.633333333,0.973664521,0.125699549
125,23,0,2,9,12,204,1554.0742368054343,1560.1988323256373,stimuli/189_yb.png,l,6.113070013234392,ambig,0.333,5.983333333,1.455459234,0.187898979
125,23,0,2,9,13,205,1560.759941458702,1564.0548450137721,stimuli/326_zb.png,a,3.2827356852358207,awful,0.333,3.389830508,2.220724867,0.289113752
125,23,0,2,9,14,206,1564.60265436396,1569.1987913656048,stimuli/265_yb.png,l,4.584499642369337,ambig,0.333,5.627118644,1.856008928,0.241631781
125,23,0,2,9,15,207,1569.7602435385343,1574.8788057331694,stimuli/342_yb.png,l,5.106461278628558,ambig,0.333,4.916666667,2.085394461,0.269223267
125,23,0,2,9,16,208,1575.4307969392976,1580.5348372471053,stimuli/325_yb.png,a,5.092114259372465,ambig,0.333,5.131147541,1.811770863,0.231973488
125,23,0,2,9,17,209,1581.0863869520836,1586.1748423828976,stimuli/135_xa.png,l,5.076655807089992,harmless,0.333,6.508474576,1.179901828,0.153610134
125,23,0,2,9,18,210,1586.7480370718986,1591.2547982248943,stimuli/178_xa.png,l,4.4950521137798205,harmless,0.333,6.483333333,1.112207557,0.143585378
125,23,0,2,9,19,211,1591.8055421210593,1595.758809545543,stimuli/349_za.png,a,3.9413019915809855,awful,0.333,3.288135593,2.101320172,0.273568585
125,23,0,2,9,20,212,1596.3068225141615,1610.6468033102574,stimuli/266_zb.png,a,14.32803032931406,awful,0.333,3.491525424,1.888010094,0.245797978
125,23,0,2,9,21,213,1611.1959714288823,1616.8467986627948,stimuli/323_yb.png,l,5.638838564162143,ambig,0.333,4.603448276,1.955107169,0.256718148
125,23,0,2,9,22,214,1617.398669746006,1625.3268381577218,stimuli/257_yb.png,l,7.916234486387111,ambig,0.333,5.620689655,1.843219782,0.242026615
125,23,0,2,9,23,215,1625.8844341852237,1630.326774748508,stimuli/151_xa.png,l,4.43063585634809,harmless,0.333,6.610169492,0.947172729,0.123311386
125,23,0,2,9,24,216,1630.882702838513,1633.6227814658778,stimuli/298_za.png,a,2.72808483755216,awful,0.333,2.881355932,2.026418156,0.263817173
125,23,0,2,10,1,217,1642.3753859690623,1646.9987991638482,stimuli/285_yb.png,a,4.611611207947135,ambig,0.333,4.120689655,2.119893958,0.278355714
125,23,0,2,10,2,218,1647.5551766320132,1651.6548094101017,stimuli/206_xa.png,l,4.087685462087393,harmless,0.333,6.325842697,1.136094431,0.060212884
125,23,0,2,10,3,219,1652.2110990507063,1655.5507864315296,stimuli/158_xa.png,l,3.3277621201705188,harmless,0.333,6.786885246,0.661179605,0.084655374
125,23,0,2,10,4,220,1656.1016130353091,1659.4468485236866,stimuli/192_za.png,a,3.3334417722653598,awful,0.333,2.68852459,2.093967396,0.268105052
125,23,0,2,10,5,221,1660.008640191867,1669.2307555067819,stimuli/173_yb.png,a,9.210225500399247,ambig,0.333,5.796610169,1.242628763,0.161776485
125,23,0,2,10,6,222,1669.7904885422904,1675.0467329693493,stimuli/119_xc.png,l,5.244231338845566,harmless,0.333,6.694915254,0.914523379,0.119060803
125,23,0,2,10,7,223,1675.6030907452805,1679.9427915168926,stimuli/307_za.png,a,4.327918870956637,awful,0.333,2.93220339,2.172432347,0.282826601
125,23,0,2,10,8,224,1680.4925980597036,1686.1027603085386,stimuli/187_xc.png,l,5.598186575807631,harmless,0.333,6.224137931,1.185335891,0.155642228
125,23,0,2,10,9,225,1686.664796161116,1698.1747785798507,stimuli/303_zb.png,a,11.49804849352222,awful,0.333,3.620689655,2.158846233,0.283470398
125,23,0,2,10,10,226,1698.728355803527,1703.3987709644716,stimuli/210_yb.png,l,4.658684854046442,ambig,0.333,5.557377049,1.76564049,0.226067099
125,23,0,2,10,11,227,1703.9460860380204,1711.4547534051817,stimuli/216_xa.png,l,7.496708629652858,harmless,0.333,6.603448276,0.877389573,0.115206895
125,23,0,2,10,12,228,1712.0084905304248,1717.44674021611,stimuli/360_za.png,a,5.4264248558320105,awful,0.333,3.2,2.207844259,0.285031468
125,23,0,2,10,13,229,1718.0078174476512,1721.6627777008107,stimuli/126_xa.png,l,3.6429798540193588,harmless,0.333,6.6,0.977717855,0.126222832
125,23,0,2,10,14,230,1722.2633269582875,1728.7347073567798,stimuli/278_xb.png,l,6.459675297723152,harmless,0.333,6.360655738,1.140654591,0.146045855
125,23,0,2,10,15,231,1729.2894042844418,1738.7187179999892,stimuli/277_yb.png,a,9.417363248765469,ambig,0.333,5.491525424,2.02886822,0.264136144
125,23,0,2,10,16,232,1739.275443234248,1748.006714285235,stimuli/344_za.png,a,8.719263476552442,awful,0.333,2.711864407,2.043077863,0.265986082
125,23,0,2,10,17,233,1748.5554775303463,1752.2546997633763,stimuli/305_zb.png,a,3.6873237539548427,awful,0.333,2.75,2.12830003,0.274762352
125,23,0,2,10,18,234,1752.8053597704275,1757.6067184599815,stimuli/274_xb.png,l,4.789297158247791,harmless,0.333,6.491525424,1.179901828,0.153610134
125,23,0,2,10,19,235,1758.164367262856,1766.6386826011585,stimuli/356_za.png,a,8.462331788381562,awful,0.333,3.033333333,2.178217796,0.281206708
125,23,0,2,10,20,236,1767.1962904440006,1771.1747096567415,stimuli/262_ya.png,a,3.9667231703642756,ambig,0.333,5.491525424,1.7750462,0.231091332
125,23,0,2,10,21,237,1771.7285464250017,1804.5907239833614,stimuli/228_ya.png,l,32.850352728390135,ambig,0.333,5.442622951,1.793735303,0.229664272
125,23,0,2,10,22,238,1805.1491203057813,1811.1506732401904,stimuli/354_zb.png,a,5.989774184417911,awful,0.333,2,1.701925887,0.221571878
125,23,0,2,10,23,239,1811.7103657096159,1819.454686057521,stimuli/270_yb.png,l,7.732332071987912,ambig,0.333,5.534482759,1.912246013,0.251090203
125,23,0,2,10,24,240,1820.0067225560779,1829.774657511618,stimuli/263_ya.png,a,9.755995910381898,ambig,0.333,4.983050847,2.071910042,0.269739712
