id,age,condition,counterbalance,block,trialinblock,trial,tstart,tend,trialstim,response,RT,trialtype,ethicfreq,norm_mean,norm_sd,norm_se
74,68,1,1,0,0,practice,3.93846130464226e-06,7.823474111097312,stimuli/prac_217_1.png,a,7.809527616704145,harmless,NA,NA,NA,NA
74,68,1,1,1,1,1,10.136088105013187,21.991822567477357,stimuli/154_xc.png,l,11.84351655986029,harmless,0.333,6.5,0.965506805,0.124646393
74,68,1,1,1,2,2,22.567124224271538,30.75984783350941,stimuli/173_yb.png,l,8.180979897686484,ambig,0.333,5.796610169,1.242628763,0.161776485
74,68,1,1,1,3,3,31.379306759467,43.34384719390437,stimuli/134_xc.png,l,11.952922359880176,harmless,0.333,6.516666667,0.965360505,0.124627505
74,68,1,1,1,4,4,43.962853196517244,61.71186474054775,stimuli/200_ya.png,l,17.737417494103283,ambig,0.333,5.862068966,1.444266048,0.189641423
74,68,1,1,1,5,5,62.32669794069807,69.11189687841397,stimuli/301_za.png,a,6.77388412487926,awful,0.333,3.610169492,2.212947396,0.288101212
74,68,1,1,1,6,6,69.73230142954344,83.13590890490741,stimuli/220_yb.png,a,13.391936625390372,ambig,0.333,4.75,2.096203186,0.270618668
74,68,1,1,1,7,7,83.73779204201855,98.86389417190003,stimuli/235_ya.png,a,15.11439110757783,ambig,0.333,5.694915254,1.567495667,0.204070554
74,68,1,1,1,8,8,99.48016688059215,112.62389087934571,stimuli/178_xa.png,l,13.131972410272283,harmless,0.333,6.483333333,1.112207557,0.143585378
74,68,1,1,1,9,9,113.25351694977144,121.52794714266565,stimuli/244_xb.png,l,8.26297635228184,harmless,0.333,6.610169492,0.743174671,0.096753101
74,68,1,1,1,10,10,122.13203739492747,131.41594628880557,stimuli/164_xb.png,l,9.272127766918857,harmless,0.333,6.830508475,0.460604639,0.059965616
74,68,1,1,1,11,11,132.05194833838323,137.56789183087676,stimuli/195_xc.png,l,5.504061934705533,harmless,0.333,6.637640449,1.001766915,0.05309354
74,68,1,1,1,12,12,138.17461455239027,155.43197347366004,stimuli/293_zb.png,a,17.245059886314266,awful,0.333,3.677966102,2.169066842,0.28238845
74,68,1,1,1,13,13,156.04291586535328,162.65591728595973,stimuli/371_zb.png,a,6.601205721330189,awful,0.333,3.131147541,2.085468851,0.267016925
74,68,1,1,1,14,14,163.21640441092313,168.00791946313984,stimuli/292_zb.png,a,4.779527155904361,awful,0.333,2.396551724,1.955107169,0.256718148
74,68,1,1,1,15,15,168.62885216227733,180.74391792871393,stimuli/277_yb.png,l,12.103122374766826,ambig,0.333,5.491525424,2.02886822,0.264136144
74,68,1,1,1,16,16,181.37008839094415,185.28002005465896,stimuli/331_za.png,a,3.8980422289969283,awful,0.333,1.983606557,1.638004917,0.209725039
74,68,1,1,1,17,17,185.89258981962485,202.37593385901346,stimuli/205_yb.png,l,16.471629078623664,ambig,0.333,5.847457627,1.52918233,0.199082582
74,68,1,1,1,18,18,202.98681244759427,228.19198751034492,stimuli/180_xc.png,l,25.193506969702867,harmless,0.333,6.672131148,0.723908638,0.092687003
74,68,1,1,1,19,19,228.79376745970512,234.15193372668,stimuli/328_za.png,a,5.346380807706737,awful,0.333,2.706896552,1.955725922,0.256799395
74,68,1,1,1,20,20,234.77823652129882,240.73595277939603,stimuli/317_za.png,a,5.945743327949458,awful,0.333,3.65,2.03215674,0.262350307
74,68,1,1,1,21,21,241.3606152038119,248.92797494821934,stimuli/341_zb.png,a,7.556052808497043,awful,0.333,3.603448276,2.15975677,0.283589957
74,68,1,1,1,22,22,249.53505606994077,256.31996671210436,stimuli/350_ya.png,a,6.773662783209147,ambig,0.333,4.915254237,2.02814792,0.264042369
74,68,1,1,1,23,23,256.9451045091082,274.7279856608402,stimuli/224_yb.png,l,17.77102716319132,ambig,0.333,5.881355932,1.609077116,0.209483997
74,68,1,1,1,24,24,275.3485489320665,286.3439775570587,stimuli/138_xc.png,l,10.983668371889507,harmless,0.333,6.661016949,0.70978796,0.092406522
74,68,1,1,2,1,25,295.91735133578914,319.8880011153742,stimuli/155_xb.png,l,23.959123865082802,harmless,0.333,6.655737705,0.892286312,0.114245555
74,68,1,1,2,2,26,320.5365062123383,327.0159909509857,stimuli/356_za.png,a,6.467949371835857,awful,0.333,3.033333333,2.178217796,0.281206708
74,68,1,1,2,3,27,327.6013786198928,332.4720725496554,stimuli/297_za.png,a,4.859053405962186,awful,0.333,1.898305085,1.446695584,0.188343723
74,68,1,1,2,4,28,333.07984684101757,347.59207045439325,stimuli/141_xc.png,l,14.500623261905275,harmless,0.333,6.508474576,1.040107444,0.135410455
74,68,1,1,2,5,29,348.2071620177703,353.54404679525396,stimuli/177_xb.png,l,5.325199749040621,harmless,0.333,6.482758621,1.063614811,0.139659467
74,68,1,1,2,6,30,354.1705614792263,370.632035228773,stimuli/355_zb.png,a,16.450198715196166,awful,0.333,3.183333333,2.070713188,0.267327923
74,68,1,1,2,7,31,371.2206654349793,377.6960462942807,stimuli/357_za.png,a,6.4638139847775165,awful,0.333,2.793103448,2.066937905,0.271402243
74,68,1,1,2,8,32,378.2812260122955,388.3680537805121,stimuli/259_xc.png,l,10.074743773388036,harmless,0.333,6.568965517,0.993170874,0.130409725
74,68,1,1,2,9,33,388.99075130530764,395.95208661785,stimuli/116_xa.png,l,6.949684548737423,harmless,0.333,6.63559322,0.958030802,0.050918763
74,68,1,1,2,10,34,396.5658745496876,401.288156921004,stimuli/316_za.png,a,4.710421687388589,awful,0.333,2.344827586,1.802062407,0.236622386
74,68,1,1,2,11,35,401.866030000856,408.43203727677246,stimuli/353_zb.png,a,6.554740512336139,awful,0.333,1.949152542,1.623361018,0.211343603
74,68,1,1,2,12,36,409.02697020670166,417.64806989670615,stimuli/251_ya.png,a,8.609256335312239,ambig,0.333,5.655172414,1.792300532,0.235340589
74,68,1,1,2,13,37,418.27754000396453,428.0400344851914,stimuli/157_xc.png,l,9.750589292656514,harmless,0.333,6.603448276,0.877389573,0.115206895
74,68,1,1,2,14,38,428.65733631448893,434.83202766692193,stimuli/359_za.png,a,6.162934643947665,awful,0.333,2.01754386,1.641985167,0.217486248
74,68,1,1,2,15,39,435.4216109813824,444.864108818183,stimuli/209_ya.png,l,9.431010913089267,ambig,0.333,5.603448276,1.825161903,0.239655499
74,68,1,1,2,16,40,445.43157175034503,455.65610436299175,stimuli/365_zb.png,a,10.212888938076503,awful,0.333,2.966101695,2.165291266,0.281896912
74,68,1,1,2,17,41,456.22177332486535,467.00812820172723,stimuli/254_ya.png,a,10.774371706706006,ambig,0.333,5.983606557,1.627798137,0.208418195
74,68,1,1,2,18,42,467.6291601501507,474.4320518490895,stimuli/309_ya.png,a,6.791032590394025,ambig,0.333,4.706896552,1.946734744,0.255618795
74,68,1,1,2,19,43,475.05006929727097,485.80012256499685,stimuli/270_yb.png,l,10.738559648627415,ambig,0.333,5.534482759,1.912246013,0.251090203
74,68,1,1,2,20,44,486.422038698558,493.8961151386284,stimuli/296_yb.png,a,7.462391411627323,ambig,0.333,4.229508197,2.052587332,0.262806878
74,68,1,1,2,21,45,494.5190922943584,502.1440973651297,stimuli/161_xc.png,l,7.613203857647022,harmless,0.333,6.796610169,0.609682252,0.079373868
74,68,1,1,2,22,46,502.75905108227016,508.5361241813407,stimuli/151_xa.png,l,5.765421941418026,harmless,0.333,6.610169492,0.947172729,0.123311386
74,68,1,1,2,23,47,509.11070549309443,519.8801848399853,stimuli/319_ya.png,a,10.757750601500447,ambig,0.333,4.216666667,2.108028774,0.272145344
74,68,1,1,2,24,48,520.471680672501,532.8001355619272,stimuli/226_yb.png,a,12.31591482047952,ambig,0.333,5.683333333,1.712285287,0.22105508
74,68,1,1,3,1,49,543.3384416522495,555.9201771836124,stimuli/267_ya.png,l,12.56989847821751,ambig,0.333,5.103448276,1.898195405,0.249245267
74,68,1,1,3,2,50,556.4795296371376,583.6881705480882,stimuli/245_yb.png,a,27.19672233160236,ambig,0.333,4.949152542,2.096168334,0.272897873
74,68,1,1,3,3,51,584.2931174162441,590.448212547868,stimuli/347_zb.png,a,6.14314661995013,awful,0.333,3.796610169,2.147810923,0.279621165
74,68,1,1,3,4,52,591.0269733574751,597.3921985332381,stimuli/148_xc.png,l,6.353431839565019,harmless,0.333,6.491525424,1.135218061,0.147792803
74,68,1,1,3,5,53,598.0211763325096,607.9601584995398,stimuli/168_xa.png,l,9.927499181783787,harmless,0.333,6.474576271,1.164946827,0.151663159
74,68,1,1,3,6,54,608.5836366278709,614.5761740265407,stimuli/284_ya.png,l,5.980887422556407,ambig,0.333,5.948275862,1.431750417,0.18799804
74,68,1,1,3,7,55,615.1863779562627,620.656159895334,stimuli/362_zb.png,a,5.458088246010448,awful,0.333,1.474576271,1.222715071,0.159183944
74,68,1,1,3,8,56,621.2671125270317,631.0402014760584,stimuli/131_xb.png,l,9.76133539131115,harmless,0.333,6.525423729,1.119666394,0.145768149
74,68,1,1,3,9,57,631.6098569510541,636.7442302488998,stimuli/136_xc.png,l,5.122422816937615,harmless,0.333,6.559322034,1.038420326,0.135190811
74,68,1,1,3,10,58,637.3373877193189,643.6561917968902,stimuli/334_za.png,a,6.3067287473604665,awful,0.333,3.333333333,2.214487481,0.285889104
74,68,1,1,3,11,59,644.2517064379317,660.2401994280553,stimuli/189_yb.png,l,15.976882792496326,ambig,0.333,5.983333333,1.455459234,0.187898979
74,68,1,1,3,12,60,660.8619402999793,678.0642351641036,stimuli/257_yb.png,a,17.190231743152253,ambig,0.333,5.620689655,1.843219782,0.242026615
74,68,1,1,3,13,61,678.6837448962433,684.1682559024775,stimuli/156_xc.png,l,5.472851183960302,harmless,0.333,6.590163934,0.955284411,0.122311635
74,68,1,1,3,14,62,684.8030445113363,696.2402608680932,stimuli/219_ya.png,a,11.425403328237735,ambig,0.333,5.271186441,1.998538332,0.260187529
74,68,1,1,3,15,63,696.8086847854393,702.680212488005,stimuli/327_zb.png,a,5.859745000219846,awful,0.333,2.502808989,1.906990248,0.101070281
74,68,1,1,3,16,64,703.2855071225167,709.2322539710549,stimuli/352_zb.png,a,5.934862139980396,awful,0.333,2.93442623,2.135952968,0.273480754
74,68,1,1,3,17,65,709.8538538459688,715.2962796088796,stimuli/285_yb.png,a,5.430688746746455,ambig,0.333,4.120689655,2.119893958,0.278355714
74,68,1,1,3,18,66,715.9073244006358,720.632246330435,stimuli/109_xb.png,l,4.7131652213138295,harmless,0.333,6.644067797,0.97843492,0.127381377
74,68,1,1,3,19,67,721.2388788611242,732.0642056256256,stimuli/227_xa.png,l,10.813893403901602,harmless,0.333,6.180327869,1.05685377,0.135316259
74,68,1,1,3,20,68,732.7163754632129,736.9122439358507,stimuli/361_za.png,a,4.183719099306472,awful,0.333,2.416666667,1.907093508,0.246204713
74,68,1,1,3,21,69,737.4931480574924,742.9042665772904,stimuli/274_xb.png,l,5.3992798912659055,harmless,0.333,6.491525424,1.179901828,0.153610134
74,68,1,1,3,22,70,743.5197732547604,749.1682287270778,stimuli/332_zb.png,a,5.636838185455417,awful,0.333,2.694915254,2.002190501,0.260663001
74,68,1,1,3,23,71,749.8116083071654,753.1842566996238,stimuli/346_zb.png,a,3.3607739239050716,awful,0.333,1.288135593,0.983499162,0.128040685
74,68,1,1,3,24,72,753.8051066910193,758.720267847053,stimuli/198_yb.png,a,4.904104706427461,ambig,0.333,5.101694915,1.83542643,0.238952168
74,68,1,1,4,1,73,768.2380679314119,780.3363337863884,stimuli/269_za.png,l,12.086435891062138,awful,0.333,3.457627119,2.119873401,0.27598401
74,68,1,1,4,2,74,780.9358762944248,790.0242629066415,stimuli/280_xb.png,l,9.076748451494495,harmless,0.333,6.333333333,1.068289726,0.137915611
74,68,1,1,4,3,75,790.63687717625,794.3203199923119,stimuli/112_xc.png,l,3.6716514490981353,harmless,0.333,6.706896552,0.749470472,0.098410294
74,68,1,1,4,4,76,794.9339956779295,800.3604686929539,stimuli/288_yb.png,a,5.415135359093256,ambig,0.333,5.189655172,1.914459262,0.251380817
74,68,1,1,4,5,77,800.9530007353133,804.7523072505937,stimuli/113_xb.png,l,3.787393449783849,harmless,0.333,6.733333333,0.660422737,0.085260209
74,68,1,1,4,6,78,805.3648143939827,814.8482446857342,stimuli/261_yb.png,a,9.471779527943,ambig,0.333,5.706896552,1.901141123,0.249632059
74,68,1,1,4,7,79,815.4591882589666,838.7683289215965,stimuli/213_ya.png,a,23.29719924019082,ambig,0.333,5.98245614,1.597891781,0.211645937
74,68,1,1,4,8,80,839.384359414762,845.4883072915545,stimuli/215_yb.png,l,6.092218343710556,ambig,0.333,5.866666667,1.466769385,0.189359113
74,68,1,1,4,9,81,846.0959953305573,856.7203261363175,stimuli/214_xb.png,l,10.612500841845758,harmless,0.333,6.465517241,0.940614156,0.12350869
74,68,1,1,4,10,82,857.3421571990584,862.1843106565793,stimuli/325_yb.png,a,4.830892601636151,ambig,0.333,5.131147541,1.811770863,0.231973488
74,68,1,1,4,11,83,862.7880090316867,866.8563508320622,stimuli/106_xc.png,l,4.056854088972614,harmless,0.333,6.661016949,0.863237081,0.112383896
74,68,1,1,4,12,84,867.4477355998933,870.3123520860681,stimuli/298_za.png,a,2.8528310269030044,awful,0.333,2.881355932,2.026418156,0.263817173
74,68,1,1,4,13,85,870.9219936031477,886.7923681234934,stimuli/268_zb.png,a,15.858914378190093,awful,0.333,2.655737705,2.048456703,0.262278005
74,68,1,1,4,14,86,887.3980924444113,892.0723606089014,stimuli/107_xa.png,l,4.66267765918019,harmless,0.333,6.813559322,0.540580029,0.070377525
74,68,1,1,4,15,87,892.716851623496,897.2003492629774,stimuli/192_za.png,a,4.471427035427041,awful,0.333,2.68852459,2.093967396,0.268105052
74,68,1,1,4,16,88,897.7981675115334,903.8004801775169,stimuli/367_zb.png,a,5.990525237481052,awful,0.333,3.413793103,2.086165649,0.27392697
74,68,1,1,4,17,89,904.409828672884,915.2563132591167,stimuli/210_yb.png,a,10.834656985400215,ambig,0.333,5.557377049,1.76564049,0.226067099
74,68,1,1,4,18,90,915.8859472064687,920.8084571422296,stimuli/186_xa.png,l,4.910901707364246,harmless,0.333,6.65,0.879618561,0.113558268
74,68,1,1,4,19,91,921.4435115973974,948.6964247806573,stimuli/286_ya.png,l,27.241262025607284,ambig,0.333,5.06779661,1.779814082,0.231712057
74,68,1,1,4,20,92,949.2712132556117,959.7043619668839,stimuli/239_ya.png,a,10.421648002942675,ambig,0.333,5.157894737,1.925296579,0.255011762
74,68,1,1,4,21,93,960.3033471822855,964.6963842144796,stimuli/150_xc.png,l,4.381431954567233,harmless,0.333,6.482758621,1.030097582,0.135258439
74,68,1,1,4,22,94,965.2799152915213,970.2643997131236,stimuli/329_zb.png,a,4.972776156224427,awful,0.333,2.406779661,1.992387617,0.259386774
74,68,1,1,4,23,95,970.8606512407532,977.784380131081,stimuli/373_zb.png,a,6.912042680345621,awful,0.333,2.327586207,1.858011869,0.243968911
74,68,1,1,4,24,96,978.4074482653232,982.4163933044547,stimuli/229_za.png,a,3.997168244481145,awful,0.333,3.406779661,2.043649913,0.266060557
74,68,1,1,5,1,97,992.3932189892257,998.2003610783686,stimuli/282_xc.png,l,5.795480297638278,harmless,0.25,6.55,0.998728005,0.128935231
74,68,1,1,5,2,98,998.7633668509734,1005.6165164996055,stimuli/263_ya.png,a,6.841719044954516,ambig,0.25,4.983050847,2.071910042,0.269739712
74,68,1,1,5,3,99,1006.2409883023684,1020.2564428345759,stimuli/315_yb.png,l,14.00359581750672,ambig,0.25,5.050847458,1.915667965,0.249398726
74,68,1,1,5,4,100,1020.8862894589765,1036.5924615438562,stimuli/204_xb.png,l,15.694503597984294,harmless,0.25,6.508474576,0.858484658,0.111765183
74,68,1,1,5,5,101,1037.2187726092452,1047.3924887980247,stimuli/218_yb.png,l,10.162202483516012,ambig,0.25,5.850282486,1.552723069,0.0825263
74,68,1,1,5,6,102,1047.9621537253333,1055.2164205586232,stimuli/279_ya.png,a,7.242392758580536,ambig,0.25,5.31147541,1.970964092,0.252356093
74,68,1,1,5,7,103,1055.8211732605087,1065.6964310822004,stimuli/183_xb.png,l,9.863570430170512,harmless,0.25,6.448275862,1.095003225,0.143780967
74,68,1,1,5,8,104,1066.3151684815784,1071.64039107371,stimuli/240_xa.png,l,5.313589157569368,harmless,0.25,6.482758621,1.096107616,0.143925981
74,68,1,1,5,9,105,1072.2399544556065,1076.4484890280328,stimuli/322_za.png,a,4.1967581716235145,awful,0.25,2.406779661,1.975004531,0.257123689
74,68,1,1,5,10,106,1077.0361251659597,1085.8244413978246,stimuli/354_zb.png,a,8.7767087911634,awful,0.25,2,1.701925887,0.221571878
74,68,1,1,5,11,107,1086.439932715286,1101.6324727921092,stimuli/243_ya.png,a,15.180925153039425,ambig,0.25,5.830508475,1.652088985,0.215083666
74,68,1,1,5,12,108,1102.2361140594912,1106.3284647355867,stimuli/314_zb.png,a,4.080731813846796,awful,0.25,1.833333333,1.451669602,0.18740974
74,68,1,1,5,13,109,1106.928936327251,1116.9684473905909,stimuli/368_za.png,a,10.027957973437879,awful,0.25,3.590163934,2.02794682,0.259651984
74,68,1,1,5,14,110,1117.588088667424,1123.6404666922135,stimuli/271_ya.png,l,6.040788701018755,ambig,0.25,5.711864407,1.771915459,0.230683744
74,68,1,1,5,15,111,1124.252134548955,1137.9125511360326,stimuli/281_ya.png,l,13.648630340114323,ambig,0.25,5.881355932,1.543448286,0.200939852
74,68,1,1,5,16,112,1138.532881250194,1143.4724333129452,stimuli/153_xb.png,l,4.927924142033589,harmless,0.25,6.633333333,0.973664521,0.125699549
74,68,1,1,5,17,113,1144.0427642344948,1155.5285044353004,stimuli/182_xb.png,l,11.473868489174492,harmless,0.25,6.542372881,0.988241802,0.128658124
74,68,1,1,5,18,114,1156.0994343972052,1162.3605057145141,stimuli/146_xa.png,l,6.249148405648157,harmless,0.25,6.442622951,1.162247681,0.148810567
74,68,1,1,5,19,115,1162.969114566371,1169.1605534486953,stimuli/344_za.png,a,6.179854678557604,awful,0.25,2.711864407,2.043077863,0.265986082
74,68,1,1,5,20,116,1169.7806736427374,1185.6645259802754,stimuli/122_xa.png,a,15.8721767614079,harmless,0.25,6.457627119,1.039264227,0.135300678
74,68,1,1,5,21,117,1186.2308152502046,1196.6725265757705,stimuli/206_xa.png,a,10.430140118729469,harmless,0.25,6.325842697,1.136094431,0.060212884
74,68,1,1,5,22,118,1197.2706918029944,1201.2165867617987,stimuli/348_za.png,a,3.9342067795914772,awful,0.25,3.084745763,2.119597681,0.275948114
74,68,1,1,5,23,119,1201.819122108529,1207.07249294129,stimuli/207_yb.png,a,5.241698801251914,ambig,0.25,5.655737705,1.662179753,0.212820309
74,68,1,1,5,24,120,1207.6792337797342,1213.1844973397638,stimuli/190_xc.png,l,5.493571836199408,harmless,0.25,6.517241379,1.046990328,0.137476565
74,68,1,1,6,1,121,1222.8756146465166,1229.9286448809216,stimuli/201_yb.png,a,7.041391679835215,ambig,0.166,5.898305085,1.626238682,0.211718243
74,68,1,1,6,2,122,1230.4929838235475,1233.944538551852,stimuli/232_yb.png,a,3.4396936505290796,ambig,0.166,5.483333333,1.845669845,0.238274952
74,68,1,1,6,3,123,1234.5611101899485,1239.768537660184,stimuli/242_xb.png,l,5.19572432485802,harmless,0.166,6.576271186,0.913564256,0.118935936
74,68,1,1,6,4,124,1240.3858280679378,1245.06452857966,stimuli/126_xa.png,l,4.666924898614525,harmless,0.166,6.6,0.977717855,0.126222832
74,68,1,1,6,5,125,1245.6287946607044,1251.8645664676842,stimuli/130_xc.png,a,6.223851652244775,harmless,0.166,6.644067797,0.960651931,0.125066229
74,68,1,1,6,6,126,1252.4882178884254,1257.4006209382133,stimuli/360_za.png,a,4.900589627424779,awful,0.166,3.2,2.207844259,0.285031468
74,68,1,1,6,7,127,1257.9578092058437,1264.3687036270494,stimuli/137_xa.png,a,6.398996321866434,harmless,0.166,6.355932203,1.094858074,0.14253838
74,68,1,1,6,8,128,1264.9874800172183,1269.9206005684791,stimuli/181_xa.png,l,4.921454821291263,harmless,0.166,6.666666667,0.950765377,0.122743282
74,68,1,1,6,9,129,1270.5380351240092,1279.560600552726,stimuli/133_xa.png,l,9.010971772637276,harmless,0.166,6.568965517,1.186356193,0.1557762
74,68,1,1,6,10,130,1280.1874543384365,1286.2965938982961,stimuli/265_yb.png,a,6.097443897568155,ambig,0.166,5.627118644,1.856008928,0.241631781
74,68,1,1,6,11,131,1286.931432919493,1292.3205220355085,stimuli/193_xc.png,l,5.3772780567305745,harmless,0.166,6.482758621,1.012923151,0.133003326
74,68,1,1,6,12,132,1292.93751942155,1300.4325941755633,stimuli/212_ya.png,l,7.483414931739389,ambig,0.166,5.677966102,1.490668422,0.194068498
74,68,1,1,6,13,133,1301.0427803821985,1318.7606390709007,stimuli/159_xa.png,l,17.706151998710993,harmless,0.166,6.389830508,1.174689235,0.152931512
74,68,1,1,6,14,134,1319.3725479616296,1322.3686000454509,stimuli/103_xb.png,l,2.9844659108239284,harmless,0.166,6.779661017,0.589207434,0.076708274
74,68,1,1,6,15,135,1323.0008404681903,1328.46460916063,stimuli/147_ya.png,l,5.45169966377216,ambig,0.166,5.883333333,1.766847875,0.22809908
74,68,1,1,6,16,136,1329.0851098102794,1333.71258272251,stimuli/110_xa.png,l,4.615152215719718,harmless,0.166,6.428571429,1.059281795,0.141552484
74,68,1,1,6,17,137,1334.341972091257,1352.5766364021983,stimuli/118_xb.png,a,18.22299976251088,harmless,0.166,6.474576271,0.953323265,0.124112118
74,68,1,1,6,18,138,1353.1939012099356,1357.1126022572935,stimuli/295_za.png,a,3.9070140496842214,awful,0.166,2.3,1.825432384,0.235662307
74,68,1,1,6,19,139,1357.728724122815,1377.7926256990286,stimuli/289_yb.png,a,20.052164560049277,ambig,0.166,5.305084746,1.714584873,0.223219937
74,68,1,1,6,20,140,1378.4232907362202,1383.2965682982795,stimuli/291_za.png,a,4.861797727582598,awful,0.166,2.593220339,1.830005126,0.238246374
74,68,1,1,6,21,141,1383.9146420664983,1397.0006695388583,stimuli/336_ya.png,l,13.074678394888906,ambig,0.166,5.033898305,1.884291705,0.245313885
74,68,1,1,6,22,142,1397.6234997898828,1405.728884418295,stimuli/340_za.png,a,8.09427067722936,awful,0.166,2.508474576,1.832398855,0.238558011
74,68,1,1,6,23,143,1406.3713695732404,1412.4566223497604,stimuli/225_ya.png,a,6.072774935302732,ambig,0.166,5.85,1.792876677,0.231459384
74,68,1,1,6,24,144,1413.0328365486312,1416.872658041695,stimuli/102_xc.png,l,3.828123861538188,harmless,0.166,6.66011236,0.937292468,0.049676401
74,68,1,1,7,1,145,1426.2919536001718,1432.240670862182,stimuli/105_xa.png,l,5.936973944306374,harmless,0.083,6.557377049,1.088187946,0.139328189
74,68,1,1,7,2,146,1432.8623491125254,1437.4246869216622,stimuli/169_xc.png,l,4.550619303750864,harmless,0.083,6.603448276,0.916508538,0.120343467
74,68,1,1,7,3,147,1438.0290099371377,1445.0966932263545,stimuli/312_yb.png,a,7.055518949720863,ambig,0.083,4.677966102,2.112692986,0.275049199
74,68,1,1,7,4,148,1445.7294228063074,1451.336623657331,stimuli/108_xb.png,l,5.595536302596884,harmless,0.083,6.568965517,1.077880782,0.141532681
74,68,1,1,7,5,149,1451.951428500539,1460.7126209256094,stimuli/228_ya.png,a,8.74961531054214,ambig,0.083,5.442622951,1.793735303,0.229664272
74,68,1,1,7,6,150,1461.326353718956,1470.024718586912,stimuli/124_xa.png,a,8.686664085660595,harmless,0.083,6.344262295,1.181598436,0.151288177
74,68,1,1,7,7,151,1470.5912894570101,1477.2646549255805,stimuli/264_xa.png,l,6.661560316981195,harmless,0.083,6.533333333,0.947193297,0.122282129
74,68,1,1,7,8,152,1477.8978275827176,1480.2727031764916,stimuli/320_za.png,a,2.363014515998657,awful,0.083,1.423728814,1.117314975,0.14546202
74,68,1,1,7,9,153,1480.8898061133623,1485.4646847791373,stimuli/166_xa.png,l,4.563466572879406,harmless,0.083,6.593220339,1.052397002,0.13701042
74,68,1,1,7,10,154,1486.0907260597523,1495.4086739152808,stimuli/196_xb.png,l,9.306122617774236,harmless,0.083,6.594366197,0.982313556,0.05213579
74,68,1,1,7,11,155,1496.0295825897847,1505.2967270183763,stimuli/342_yb.png,a,9.255230181552179,ambig,0.083,4.916666667,2.085394461,0.269223267
74,68,1,1,7,12,156,1505.8583555101686,1513.7847219897449,stimuli/358_za.png,a,7.914542029513541,awful,0.083,3.949152542,2.112554662,0.275031191
74,68,1,1,7,13,157,1514.3979498720219,1518.5366665078145,stimuli/114_xc.png,l,4.127044604283583,harmless,0.083,6.644067797,0.97843492,0.127381377
74,68,1,1,7,14,158,1519.1384448817917,1530.088693024707,stimuli/203_yb.png,l,10.938613526814152,ambig,0.083,6,1.542501327,0.200816568
74,68,1,1,7,15,159,1530.7026050181557,1534.4487091881601,stimuli/230_yb.png,a,3.734332495358103,ambig,0.083,4.98245614,1.875511626,0.248417583
74,68,1,1,7,16,160,1535.0643663149494,1543.1687375766087,stimuli/260_ya.png,a,8.092650787042658,ambig,0.083,4.966101695,2.016877936,0.262575142
74,68,1,1,7,17,161,1543.7921129110327,1560.7527322108472,stimuli/171_xa.png,a,16.948918517515267,harmless,0.083,6.465517241,1.046556882,0.137419651
74,68,1,1,7,18,162,1561.3705251665888,1566.4327674679735,stimuli/187_xc.png,l,5.050973174729734,harmless,0.083,6.224137931,1.185335891,0.155642228
74,68,1,1,7,19,163,1567.0548222354664,1573.6967630947038,stimuli/142_xa.png,l,6.6302038430731045,harmless,0.083,6.4,1.076718178,0.139003719
74,68,1,1,7,20,164,1574.2778373579858,1578.76874600492,stimuli/175_xb.png,l,4.479194473860844,harmless,0.083,6.6,1.028409995,0.13276716
74,68,1,1,7,21,165,1579.336784346655,1589.296783732254,stimuli/188_xa.png,l,9.948136732436978,harmless,0.083,6.655172414,0.806807095,0.105938962
74,68,1,1,7,22,166,1589.9361567130545,1594.0007431881313,stimuli/197_xa.png,l,4.053013692857348,harmless,0.083,6.779661017,0.55918033,0.072799078
74,68,1,1,7,23,167,1594.6444150022398,1610.0007628804524,stimuli/246_ya.png,l,15.344695539020904,ambig,0.083,5.542372881,1.715266481,0.223308675
74,68,1,1,7,24,168,1610.6123236109743,1615.0487534564963,stimuli/202_yb.png,a,4.424171770588146,ambig,0.083,5.431034483,1.892849601,0.248543329
74,68,1,1,8,1,169,1624.9515600452287,1634.120809228294,stimuli/238_xb.png,a,9.157546037688007,harmless,0.0412,6.4,1.076718178,0.139003719
74,68,1,1,8,2,170,1634.6930294309605,1642.0328125240012,stimuli/160_xb.png,l,7.327942889121914,harmless,0.0412,6.666666667,0.680644427,0.087870818
74,68,1,1,8,3,171,1642.6535065522257,1647.6168264567095,stimuli/128_xc.png,l,4.951728217634809,harmless,0.0412,6.627118644,0.98082135,0.127692063
74,68,1,1,8,4,172,1648.2353173082483,1674.3608046439222,stimuli/275_yb.png,l,26.11384799341249,ambig,0.0412,4.836065574,2.138382004,0.27379176
74,68,1,1,8,5,173,1674.95370493265,1680.2968030307275,stimuli/115_xb.png,l,5.331411100403784,harmless,0.0412,6.440677966,1.021681954,0.133011661
74,68,1,1,8,6,174,1680.8691205134492,1692.34480896678,stimuli/208_xb.png,a,11.463888815589598,harmless,0.0412,6.216666667,1.165778516,0.150501359
74,68,1,1,8,7,175,1692.9604070166097,1697.0887950309188,stimuli/294_za.png,a,4.1166636012276285,awful,0.0412,1.557377049,1.38473331,0.177296933
74,68,1,1,8,8,176,1697.702920882959,1701.3847930396332,stimuli/117_xc.png,l,3.670128051275242,harmless,0.0412,6.627118644,0.868972939,0.113130641
74,68,1,1,8,9,177,1701.961638574263,1707.2887890444545,stimuli/143_xb.png,l,5.315392580170737,harmless,0.0412,6.655172414,0.738697862,0.096995781
74,68,1,1,8,10,178,1707.8679559096854,1711.5928486948542,stimuli/194_xb.png,l,3.712982476594334,harmless,0.0412,6.586206897,1.026567825,0.134794959
74,68,1,1,8,11,179,1712.2032302492953,1715.840791930561,stimuli/132_xc.png,l,3.6260909052580246,harmless,0.0412,6.627118644,0.692280217,0.090127208
74,68,1,1,8,12,180,1716.4583915077274,1730.1448188917093,stimuli/335_yb.png,a,13.674740386308258,ambig,0.0412,5.016949153,2.046793332,0.266469795
74,68,1,1,8,13,181,1730.7507637666058,1741.4809210964231,stimuli/165_xb.png,l,10.718350208997435,harmless,0.0412,6.557377049,1.008705278,0.129151477
74,68,1,1,8,14,182,1742.0904649395998,1746.6088534304617,stimuli/237_ya.png,a,4.506879117911012,ambig,0.0412,4.305084746,2.019339575,0.26289562
74,68,1,1,8,15,183,1747.2183933351735,1762.0248595839184,stimuli/222_ya.png,l,14.794693392559566,ambig,0.0412,5.931034483,1.543089507,0.202617579
74,68,1,1,8,16,184,1762.6345282763978,1766.21693216508,stimuli/127_xb.png,l,3.5707157094693684,harmless,0.0412,6.423728814,1.162686987,0.151368953
74,68,1,1,8,17,185,1766.8127685786203,1771.0331823457564,stimuli/323_yb.png,a,4.208447138527845,ambig,0.0412,4.603448276,1.955107169,0.256718148
74,68,1,1,8,18,186,1771.6388708266568,1775.5531529175569,stimuli/185_xa.png,l,3.9026557455690636,harmless,0.0412,6.5,0.965506805,0.124646393
74,68,1,1,8,19,187,1776.1553877594924,1780.736899192263,stimuli/273_ya.png,a,4.569879967439192,ambig,0.0412,5.551724138,1.836973233,0.241206403
74,68,1,1,8,20,188,1781.3205322755166,1794.6008642565102,stimuli/174_xc.png,l,13.268641438702616,harmless,0.0412,6.533333333,1.111826512,0.143536185
74,68,1,1,8,21,189,1795.1707205931634,1806.7288863875292,stimuli/231_xb.png,l,11.54649376285306,harmless,0.0412,6.62295082,1.05141071,0.134619347
74,68,1,1,8,22,190,1807.3584970979427,1818.856898672384,stimuli/255_xb.png,l,11.486723241385334,harmless,0.0412,6.770491803,0.642740036,0.082294429
74,68,1,1,8,23,191,1819.4484216802994,1828.40891573696,stimuli/330_ya.png,a,8.948751526648266,ambig,0.0412,4.796610169,2.049219036,0.266785595
74,68,1,1,8,24,192,1829.020601710632,1863.0809850570768,stimuli/276_ya.png,a,34.04870540723641,ambig,0.0412,5.186440678,1.804922162,0.234980851
74,68,1,1,9,1,193,1872.6785886593534,1880.8809248773468,stimuli/121_xc.png,l,8.190501134078659,harmless,0.0412,6.508474576,1.006408455,0.131023221
74,68,1,1,9,2,194,1881.4881131252878,1885.432933671149,stimuli/119_xc.png,l,3.9329661634765216,harmless,0.0412,6.694915254,0.914523379,0.119060803
74,68,1,1,9,3,195,1886.0430860069937,1891.2489711747767,stimuli/123_xc.png,l,5.194205259344017,harmless,0.0412,6.491525424,1.023396666,0.133234897
74,68,1,1,9,4,196,1891.878927288475,1903.256955228724,stimuli/167_xb.png,l,11.366260597911605,harmless,0.0412,6.590163934,0.955284411,0.122311635
74,68,1,1,9,5,197,1903.8641363874303,1910.3529580423638,stimuli/256_zb.png,a,6.4771358387988585,awful,0.0412,3.051724138,2.012438634,0.264246138
74,68,1,1,9,6,198,1910.9716918971244,1914.568975302289,stimuli/304_ya.png,a,3.584960739422968,ambig,0.0412,4.034482759,2.017167697,0.264867095
74,68,1,1,9,7,199,1915.2210112321045,1918.5529717482168,stimuli/125_xc.png,l,3.3203030569166003,harmless,0.0412,6.683333333,0.999858747,0.129081209
74,68,1,1,9,8,200,1919.1163808195233,1938.4329592711656,stimuli/283_yb.png,a,19.304826075465826,ambig,0.0412,5.949152542,1.478859402,0.192531095
74,68,1,1,9,9,201,1939.0458070916793,1944.5049732952466,stimuli/144_xa.png,l,5.4474150089336035,harmless,0.0412,6.542372881,1.00553698,0.130909764
74,68,1,1,9,10,202,1945.074144339189,1948.8009898147393,stimuli/249_ya.png,a,3.7154589826714073,ambig,0.0412,5.327868852,1.859402337,0.238072074
74,68,1,1,9,11,203,1949.391894483826,1952.8890381129095,stimuli/179_xb.png,l,3.4853522621160664,harmless,0.0412,6.704918033,0.882123617,0.112944356
74,68,1,1,9,12,204,1953.498427174458,1957.313125206525,stimuli/104_xc.png,l,3.802909422029188,harmless,0.0412,6.745762712,0.756425814,0.098478253
74,68,1,1,9,13,205,1957.9587063879153,1962.6330013339575,stimuli/287_ya.png,a,4.66239920978478,ambig,0.0412,5.950819672,1.407435369,0.180203633
74,68,1,1,9,14,206,1963.253820605336,1969.449001816025,stimuli/140_xb.png,l,6.183574557679094,harmless,0.0412,6.724137931,0.790138861,0.103750315
74,68,1,1,9,15,207,1970.0614774517053,1974.4969762443689,stimuli/223_yb.png,a,4.423833850389201,ambig,0.0412,5.542372881,1.77455224,0.231027024
74,68,1,1,9,16,208,1975.119577276797,1980.9369900920065,stimuli/216_xa.png,l,5.805613177468331,harmless,0.0412,6.603448276,0.877389573,0.115206895
74,68,1,1,9,17,209,1981.5564521687375,1987.7370551554304,stimuli/170_xc.png,l,6.169043201403838,harmless,0.0412,6.583333333,1.062323432,0.137145365
74,68,1,1,9,18,210,1988.3521530203507,1992.6569657050386,stimuli/233_yb.png,a,4.292886622257356,ambig,0.0412,5.318309859,1.922973646,0.102060844
74,68,1,1,9,19,211,1993.282799428609,1999.6649899313197,stimuli/339_ya.png,a,6.370551554296981,ambig,0.0412,4.949152542,1.960152429,0.25519011
74,68,1,1,9,20,212,2000.2766298249626,2005.6330135431963,stimuli/176_xb.png,l,5.34454390816245,harmless,0.0412,6.796610169,0.517942249,0.067430337
74,68,1,1,9,21,213,2006.2187785169408,2009.761015194199,stimuli/111_xa.png,l,3.5306099380832165,harmless,0.0412,6.590163934,0.863655973,0.110579816
74,68,1,1,9,22,214,2010.3294773146445,2015.0570009936746,stimuli/149_xa.png,l,4.7156724474116345,harmless,0.0412,6.721311475,0.933294301,0.11949609
74,68,1,1,9,23,215,2015.6719015415547,2021.2330416638288,stimuli/184_xb.png,l,5.548887561188167,harmless,0.0412,6.508474576,1.194425,0.15550089
74,68,1,1,9,24,216,2021.8514017583657,2026.289073795393,stimuli/258_ya.png,a,4.425984645506105,ambig,0.0412,5.627118644,1.78014243,0.231754804
74,68,1,1,10,1,217,2035.5206160860253,2063.1770867261584,stimuli/262_ya.png,a,27.64485177788447,ambig,0.0412,5.491525424,1.7750462,0.231091332
74,68,1,1,10,2,218,2063.7800848423904,2068.1690313860126,stimuli/247_ya.png,a,4.377026782734902,ambig,0.0412,4.65,2.081598147,0.268733165
74,68,1,1,10,3,219,2068.808024698894,2075.71308960281,stimuli/241_yb.png,a,6.893275112335687,ambig,0.0412,5.508474576,1.442852555,0.187843403
74,68,1,1,10,4,220,2076.4074974961222,2089.761047095759,stimuli/139_xa.png,l,13.3416987618657,harmless,0.0412,6.724137931,0.790138861,0.103750315
74,68,1,1,10,5,221,2090.4090858786003,2098.5530469728765,stimuli/172_xb.png,l,8.132340262796788,harmless,0.0412,6.482758621,1.127664553,0.14806961
74,68,1,1,10,6,222,2099.1812197501386,2106.209125735855,stimuli/129_xa.png,l,7.015490766076255,harmless,0.0412,6.770491803,0.642740036,0.082294429
74,68,1,1,10,7,223,2106.8102652909874,2119.6650663375185,stimuli/272_xb.png,l,12.843030159576301,harmless,0.0412,6.355932203,1.029943284,0.134087194
74,68,1,1,10,8,224,2120.261180018915,2124.449152659192,stimuli/221_xb.png,l,4.1761926948565815,harmless,0.0412,6.440677966,1.133672495,0.147591588
74,68,1,1,10,9,225,2125.0419355816994,2129.3210556973645,stimuli/145_xa.png,l,4.2669640469466685,harmless,0.0412,6.661016949,0.822321556,0.107057148
74,68,1,1,10,10,226,2129.9316243288376,2134.6810399592614,stimuli/163_xa.png,l,4.737563611113728,harmless,0.0412,6.627118644,0.963082427,0.125382652
74,68,1,1,10,11,227,2135.243689300889,2141.321116349707,stimuli/120_xa.png,a,6.065599054138147,harmless,0.0412,6.440677966,1.054893138,0.137335389
74,68,1,1,10,12,228,2141.93531900179,2151.29703185548,stimuli/217_yb.png,a,9.349945511352416,ambig,0.0412,5.169491525,2.001314588,0.260548967
74,68,1,1,10,13,229,2151.9090900139854,2155.345361533262,stimuli/135_xa.png,l,3.4249263802666974,harmless,0.0412,6.508474576,1.179901828,0.153610134
74,68,1,1,10,14,230,2155.9652627487085,2160.577116107099,stimuli/152_xa.png,l,4.600120674534992,harmless,0.0412,6.576271186,0.968528743,0.126091702
74,68,1,1,10,15,231,2161.162717240746,2170.4250787988167,stimuli/250_yb.png,l,9.250654080387903,ambig,0.0412,5.950819672,1.585625318,0.203018519
74,68,1,1,10,16,232,2170.9927618911097,2176.8971391392333,stimuli/162_xa.png,l,5.892592970394617,harmless,0.0412,6.644067797,0.905209289,0.117848212
74,68,1,1,10,17,233,2177.5154307045013,2180.8090715425897,stimuli/158_xa.png,l,3.2820460004695633,harmless,0.0412,6.786885246,0.661179605,0.084655374
74,68,1,1,10,18,234,2181.429649386133,2197.6651549529524,stimuli/234_xb.png,l,16.223803602984844,harmless,0.0412,6.637931034,0.788030542,0.103473479
74,68,1,1,10,19,235,2198.271202227912,2206.081081155593,stimuli/253_ya.png,a,7.797766969757504,ambig,0.0412,5.491803279,1.849531029,0.236808182
74,68,1,1,10,20,236,2206.682925301913,2211.697123070302,stimuli/101_xa.png,l,5.0025194353365805,harmless,0.0412,6.508522727,1.13475832,0.060482822
74,68,1,1,10,21,237,2212.3047996877613,2222.8571491586845,stimuli/191_ya.png,l,10.540692799422686,ambig,0.0412,5.517241379,2.062542966,0.270825159
74,68,1,1,10,22,238,2223.442525406048,2228.7690910143574,stimuli/302_za.png,a,5.314697047451773,awful,0.0412,3.137931034,2.188071937,0.287307921
74,68,1,1,10,23,239,2229.3864373482975,2238.857173577162,stimuli/236_yb.png,a,9.458985821922397,ambig,0.0412,5.93442623,1.49297078,0.19115532
74,68,1,1,10,24,240,2239.4207161623926,2250.2011743711555,stimuli/278_xb.png,l,10.768664872564841,harmless,0.0412,6.360655738,1.140654591,0.146045855
