id,age,condition,counterbalance,block,trialinblock,trial,tstart,tend,trialstim,response,RT,trialtype,ethicfreq,norm_mean,norm_sd,norm_se
048,68,1,2,0,0,practice,3.150751581415534e-06,9.31256427068729,stimuli/prac_217_1.png,l,9.298203078680672,harmless,NA,NA,NA,NA
048,68,1,2,1,1,1,4.293358381924918,19.9517149029125,stimuli/328_za.png,a,15.646660483296728,awful,0.333,2.706896552,1.955725922,0.256799395
048,68,1,2,1,2,2,20.51254969841102,29.28770196903497,stimuli/267_ya.png,l,8.763229377742391,ambig,0.333,5.103448276,1.898195405,0.249245267
048,68,1,2,1,3,3,29.83981741309981,35.871664963284275,stimuli/165_xb.png,l,6.020119217137108,harmless,0.333,6.557377049,1.008705278,0.129151477
048,68,1,2,1,4,4,36.43457020595088,46.927705277339555,stimuli/341_zb.png,a,10.481129864754621,awful,0.333,3.603448276,2.15975677,0.283589957
048,68,1,2,1,5,5,47.48232479277067,54.49565568426624,stimuli/278_xb.png,l,7.001412724755937,harmless,0.333,6.360655738,1.140654591,0.146045855
048,68,1,2,1,6,6,55.04580150565016,61.87979354604613,stimuli/166_xa.png,l,6.8221207413007505,harmless,0.333,6.593220339,1.052397002,0.13701042
048,68,1,2,1,7,7,62.437751298217336,98.54362609857344,stimuli/347_zb.png,a,36.09412047348451,awful,0.333,3.796610169,2.147810923,0.279621165
048,68,1,2,1,8,8,99.08706866501598,190.295597788936,stimuli/373_zb.png,l,91.1966523109877,awful,0.333,2.327586207,1.858011869,0.243968911
048,68,1,2,1,9,9,190.85486704751384,198.03953935796744,stimuli/237_ya.png,l,7.172746660653502,ambig,0.333,4.305084746,2.019339575,0.26289562
048,68,1,2,1,10,10,198.58996047757682,204.3035333872831,stimuli/108_xb.png,l,5.701765019795857,harmless,0.333,6.568965517,1.077880782,0.141532681
048,68,1,2,1,11,11,204.85507184729795,211.58356678541168,stimuli/262_ya.png,l,6.716665386687964,ambig,0.333,5.491525424,1.7750462,0.231091332
048,68,1,2,1,12,12,212.1400346190203,215.55150813388173,stimuli/260_ya.png,l,3.399602609628346,ambig,0.333,4.966101695,2.016877936,0.262575142
048,68,1,2,1,13,13,216.11028350985725,220.8316037596378,stimuli/172_xb.png,l,4.709413504577242,harmless,0.333,6.482758621,1.127664553,0.14806961
048,68,1,2,1,14,14,221.3929241669539,237.54351976022008,stimuli/151_xa.png,l,16.138730201870203,harmless,0.333,6.610169492,0.947172729,0.123311386
048,68,1,2,1,15,15,238.09537999224267,241.3914909622108,stimuli/138_xc.png,l,3.2842463662673254,harmless,0.333,6.661016949,0.70978796,0.092406522
048,68,1,2,1,16,16,241.95490584132494,253.39147954067448,stimuli/301_za.png,a,11.424834732461022,awful,0.333,3.610169492,2.212947396,0.288101212
048,68,1,2,1,17,17,253.92708693948225,259.23944089654833,stimuli/318_za.png,a,5.300873746833531,awful,0.333,3.06557377,2.197489875,0.281359747
048,68,1,2,1,18,18,259.7876013414352,264.51947902081884,stimuli/202_yb.png,l,4.7201387124951,ambig,0.333,5.431034483,1.892849601,0.248543329
048,68,1,2,1,19,19,265.0702916230948,270.21547104936326,stimuli/254_ya.png,l,5.133318367181346,ambig,0.333,5.983606557,1.627798137,0.208418195
048,68,1,2,1,20,20,270.77398333637393,277.14357017248403,stimuli/302_za.png,l,6.35783526612795,awful,0.333,3.137931034,2.188071937,0.287307921
048,68,1,2,1,21,21,277.696218883706,283.07942096795887,stimuli/218_yb.png,l,5.371636015624972,ambig,0.333,5.850282486,1.552723069,0.0825263
048,68,1,2,1,22,22,283.63444378145505,289.423446819972,stimuli/349_za.png,l,5.77722783779609,awful,0.333,3.288135593,2.101320172,0.273568585
048,68,1,2,1,23,23,289.9779694493627,294.65544915155624,stimuli/177_xb.png,l,4.665815565967932,harmless,0.333,6.482758621,1.063614811,0.139659467
048,68,1,2,1,24,24,295.20305624313187,299.51144377948367,stimuli/289_yb.png,l,4.296444163483102,ambig,0.333,5.305084746,1.714584873,0.223219937
048,68,1,2,2,1,25,309.07459675116115,315.13542622971,stimuli/214_xb.png,l,6.049200394627405,harmless,0.333,6.465517241,0.940614156,0.12350869
048,68,1,2,2,2,26,315.69241945361136,326.4473981563933,stimuli/296_yb.png,a,10.743194837472402,ambig,0.333,4.229508197,2.052587332,0.262806878
048,68,1,2,2,3,27,327.00593880028464,334.5593744153739,stimuli/285_yb.png,a,7.541602519049775,ambig,0.333,4.120689655,2.119893958,0.278355714
048,68,1,2,2,4,28,335.10457983548986,347.5114307825861,stimuli/360_za.png,l,12.395065900258487,awful,0.333,3.2,2.207844259,0.285031468
048,68,1,2,2,5,29,348.0745325543103,354.4073633404332,stimuli/211_zb.png,l,6.3210087177867536,awful,0.333,3.983333333,2.127237938,0.274625237
048,68,1,2,2,6,30,354.9653955294343,367.05540622235276,stimuli/224_yb.png,l,12.078356009005802,ambig,0.333,5.881355932,1.609077116,0.209483997
048,68,1,2,2,7,31,367.60728181435843,373.24737885795184,stimuli/305_zb.png,l,5.628299393662019,awful,0.333,2.75,2.12830003,0.274762352
048,68,1,2,2,8,32,373.7944066024211,378.2394239611749,stimuli/236_yb.png,l,4.43311179507873,ambig,0.333,5.93442623,1.49297078,0.19115532
048,68,1,2,2,9,33,378.7950009156775,390.2233448139159,stimuli/368_za.png,l,11.416491109906929,awful,0.333,3.590163934,2.02794682,0.259651984
048,68,1,2,2,10,34,390.7815869227343,398.8553313916491,stimuli/269_za.png,a,8.061786523758201,awful,0.333,3.457627119,2.119873401,0.27598401
048,68,1,2,2,11,35,399.39425930409925,412.02332000163733,stimuli/247_ya.png,a,12.61714056157507,ambig,0.333,4.65,2.081598147,0.268733165
048,68,1,2,2,12,36,412.58382239131606,421.7592905262136,stimuli/291_za.png,l,9.16366418346297,awful,0.333,2.593220339,1.830005126,0.238246374
048,68,1,2,2,13,37,422.30753407257725,427.9513198756031,stimuli/261_yb.png,l,5.632062196120387,ambig,0.333,5.706896552,1.901141123,0.249632059
048,68,1,2,2,14,38,428.51511560357176,432.8712518190732,stimuli/110_xa.png,l,4.344627648388268,harmless,0.333,6.428571429,1.059281795,0.141552484
048,68,1,2,2,15,39,433.4227406545251,437.5912759224302,stimuli/117_xc.png,l,4.156636793457437,harmless,0.333,6.627118644,0.868972939,0.113130641
048,68,1,2,2,16,40,438.1425130904245,445.69529610307654,stimuli/319_ya.png,l,7.5408510613196995,ambig,0.333,4.216666667,2.108028774,0.272145344
048,68,1,2,2,17,41,446.25423334966763,450.0873577478342,stimuli/102_xc.png,l,3.8213216282601934,harmless,0.333,6.66011236,0.937292468,0.049676401
048,68,1,2,2,18,42,450.6432773481356,462.0792433434981,stimuli/133_xa.png,l,11.424091151653556,harmless,0.333,6.568965517,1.186356193,0.1557762
048,68,1,2,2,19,43,462.6284057320154,465.57528381509474,stimuli/283_yb.png,l,2.9350237193575595,ambig,0.333,5.949152542,1.478859402,0.192531095
048,68,1,2,2,20,44,466.12924482041853,470.09526971541345,stimuli/144_xa.png,l,3.9541559589852113,harmless,0.333,6.542372881,1.00553698,0.130909764
048,68,1,2,2,21,45,470.6452320046956,477.25531445629895,stimuli/308_zb.png,a,6.59816467872588,awful,0.333,1.644067797,1.471132708,0.191525165
048,68,1,2,2,22,46,477.8022988777375,482.7032309137285,stimuli/314_zb.png,a,4.889160379912937,awful,0.333,1.833333333,1.451669602,0.18740974
048,68,1,2,2,23,47,483.2557795881585,488.9512478018296,stimuli/188_xa.png,l,5.683591400767909,harmless,0.333,6.655172414,0.806807095,0.105938962
048,68,1,2,2,24,48,489.51357881739386,494.8952220600913,stimuli/208_xb.png,l,5.369966503436444,harmless,0.333,6.216666667,1.165778516,0.150501359
048,68,1,2,3,1,49,504.33044447461725,513.8072156482667,stimuli/256_zb.png,a,9.465019997529453,awful,0.333,3.051724138,2.012438634,0.264246138
048,68,1,2,3,2,50,514.3544493740774,518.1112086535722,stimuli/311_za.png,a,3.744951783446595,awful,0.333,3.116666667,1.975199339,0.254997138
048,68,1,2,3,3,51,518.6664961314527,521.8952102446929,stimuli/115_xb.png,l,3.2168282418861054,harmless,0.333,6.440677966,1.021681954,0.133011661
048,68,1,2,3,4,52,522.4486943028169,525.5271790993866,stimuli/122_xa.png,l,3.0665650544688106,harmless,0.333,6.457627119,1.039264227,0.135300678
048,68,1,2,3,5,53,526.0765391984605,530.6151792096498,stimuli/147_ya.png,l,4.52680415820214,ambig,0.333,5.883333333,1.766847875,0.22809908
048,68,1,2,3,6,54,531.172729331447,535.9352237929998,stimuli/145_xa.png,l,4.7506018948042765,harmless,0.333,6.661016949,0.822321556,0.107057148
048,68,1,2,3,7,55,536.4863254780648,539.9191867872432,stimuli/157_xc.png,l,3.4209888285549823,harmless,0.333,6.603448276,0.877389573,0.115206895
048,68,1,2,3,8,56,540.474266708392,547.8551931518014,stimuli/276_ya.png,l,7.369160301139345,ambig,0.333,5.186440678,1.804922162,0.234980851
048,68,1,2,3,9,57,548.4108303647081,555.9112125920365,stimuli/284_ya.png,l,7.488553463597782,ambig,0.333,5.948275862,1.431750417,0.18799804
048,68,1,2,3,10,58,556.4563104922418,562.9112338596897,stimuli/205_yb.png,l,6.443109963700408,ambig,0.333,5.847457627,1.52918233,0.199082582
048,68,1,2,3,11,59,563.4734798045538,569.3271460163523,stimuli/268_zb.png,a,5.84181499882834,awful,0.333,2.655737705,2.048456703,0.262278005
048,68,1,2,3,12,60,569.8812499876949,574.0632358761795,stimuli/196_xb.png,l,4.170005887979642,harmless,0.333,6.594366197,0.982313556,0.05213579
048,68,1,2,3,13,61,574.6032259906642,582.9911833686638,stimuli/189_yb.png,l,8.375998645176878,ambig,0.333,5.983333333,1.455459234,0.187898979
048,68,1,2,3,14,62,583.5499914338579,586.959199941688,stimuli/183_xb.png,l,3.397306488797767,harmless,0.333,6.448275862,1.095003225,0.143780967
048,68,1,2,3,15,63,587.5009308544686,593.5271078133082,stimuli/140_xb.png,l,6.014347013580846,harmless,0.333,6.724137931,0.790138861,0.103750315
048,68,1,2,3,16,64,594.0776065204991,596.8791330666863,stimuli/143_xb.png,l,2.7896769086364657,harmless,0.333,6.655172414,0.738697862,0.096995781
048,68,1,2,3,17,65,597.4386126388854,602.1591136894713,stimuli/232_yb.png,l,4.708767597505357,ambig,0.333,5.483333333,1.845669845,0.238274952
048,68,1,2,3,18,66,602.7045833800803,610.1354825496674,stimuli/288_yb.png,l,7.419084190449212,ambig,0.333,5.189655172,1.914459262,0.251380817
048,68,1,2,3,19,67,610.6894648226735,619.3831323735067,stimuli/343_zb.png,l,8.681799402518664,awful,0.333,3.103448276,2.141401862,0.28117984
048,68,1,2,3,20,68,619.9426966225728,631.0710899484693,stimuli/340_za.png,a,11.11659606982721,awful,0.333,2.508474576,1.832398855,0.238558011
048,68,1,2,3,21,69,631.6283513813105,635.2870993849938,stimuli/270_yb.png,l,3.6469416891632136,ambig,0.333,5.534482759,1.912246013,0.251090203
048,68,1,2,3,22,70,635.8475509685522,644.9191686703416,stimuli/303_zb.png,a,9.05978303035954,awful,0.333,3.620689655,2.158846233,0.283470398
048,68,1,2,3,23,71,645.4740004686755,652.0150669636205,stimuli/332_zb.png,l,6.5292972019233275,awful,0.333,2.694915254,2.002190501,0.260663001
048,68,1,2,3,24,72,652.5753629780957,663.2070781961083,stimuli/307_za.png,a,10.620088497147663,awful,0.333,2.93220339,2.172432347,0.282826601
048,68,1,2,4,1,73,671.8064393782697,677.8391384230054,stimuli/310_zb.png,a,6.021018760860898,awful,0.333,3.224137931,2.102989547,0.276136056
048,68,1,2,4,2,74,678.3934412864619,683.4070525961288,stimuli/362_zb.png,a,5.001941265800269,awful,0.333,1.474576271,1.222715071,0.159183944
048,68,1,2,4,3,75,683.9596843720064,698.8390639861464,stimuli/339_ya.png,a,14.867438210523687,ambig,0.333,4.949152542,1.960152429,0.25519011
048,68,1,2,4,4,76,699.3966601878928,702.8710722253891,stimuli/197_xa.png,l,3.46247575385496,harmless,0.333,6.779661017,0.55918033,0.072799078
048,68,1,2,4,5,77,703.4278019664634,705.9109845553176,stimuli/190_xc.png,l,2.4712695421185344,harmless,0.333,6.517241379,1.046990328,0.137476565
048,68,1,2,4,6,78,706.4757656853762,715.0150007975171,stimuli/230_yb.png,l,8.527408317604568,ambig,0.333,4.98245614,1.875511626,0.248417583
048,68,1,2,4,7,79,715.5718534184853,720.9510323682043,stimuli/182_xb.png,l,5.367300167592475,harmless,0.333,6.542372881,0.988241802,0.128658124
048,68,1,2,4,8,80,721.5087494805921,725.6949684233987,stimuli/233_yb.png,l,4.174443348223576,ambig,0.333,5.318309859,1.922973646,0.102060844
048,68,1,2,4,9,81,726.2460409638879,729.9830020105583,stimuli/249_ya.png,l,3.7250145230500493,ambig,0.333,5.327868852,1.859402337,0.238072074
048,68,1,2,4,10,82,730.5415316267754,734.9109884937934,stimuli/181_xa.png,l,4.357671426289016,harmless,0.333,6.666666667,0.950765377,0.122743282
048,68,1,2,4,11,83,735.4510951866105,740.1190170397167,stimuli/358_za.png,l,4.656160830840236,awful,0.333,3.949152542,2.112554662,0.275031191
048,68,1,2,4,12,84,740.6692648671742,744.5989570964011,stimuli/292_zb.png,a,3.9176622102968395,awful,0.333,2.396551724,1.955107169,0.256718148
048,68,1,2,4,13,85,745.154485214036,750.2229911404429,stimuli/357_za.png,l,5.056663378054509,awful,0.333,2.793103448,2.066937905,0.271402243
048,68,1,2,4,14,86,750.7812663322838,758.1669854848005,stimuli/352_zb.png,a,7.373776173510123,awful,0.333,2.93442623,2.135952968,0.273480754
048,68,1,2,4,15,87,758.7190469719935,764.310950290761,stimuli/213_ya.png,l,5.579876844451064,ambig,0.333,5.98245614,1.597891781,0.211645937
048,68,1,2,4,16,88,764.8532648829278,768.3109447768948,stimuli/130_xc.png,l,3.4457936287508346,harmless,0.333,6.644067797,0.960651931,0.125066229
048,68,1,2,4,17,89,768.8694759685022,773.7029701878491,stimuli/313_zb.png,a,4.821507523447508,awful,0.333,2.101694915,1.688652955,0.219843889
048,68,1,2,4,18,90,774.2480472142342,782.3269624842214,stimuli/220_yb.png,a,8.067054604762234,ambig,0.333,4.75,2.096203186,0.270618668
048,68,1,2,4,19,91,782.8869843820285,788.1109211461735,stimuli/367_zb.png,a,5.2120178097102325,awful,0.333,3.413793103,2.086165649,0.27392697
048,68,1,2,4,20,92,788.6692298148992,799.0549552689481,stimuli/342_yb.png,l,10.373987274826504,ambig,0.333,4.916666667,2.085394461,0.269223267
048,68,1,2,4,21,93,799.6064720674767,802.7750096984382,stimuli/146_xa.png,l,3.1567309226084035,harmless,0.333,6.442622951,1.162247681,0.148810567
048,68,1,2,4,22,94,803.3259361221571,806.2709773085662,stimuli/119_xc.png,l,2.93338689635857,harmless,0.333,6.694915254,0.914523379,0.119060803
048,68,1,2,4,23,95,806.8260036667052,813.7349504640442,stimuli/287_ya.png,l,6.89711488285684,ambig,0.333,5.950819672,1.407435369,0.180203633
048,68,1,2,4,24,96,814.2961168776674,817.1109428076888,stimuli/109_xb.png,l,2.8029345448012464,harmless,0.333,6.644067797,0.97843492,0.127381377
048,68,1,2,5,1,97,826.4161969071138,831.2869745359058,stimuli/271_ya.png,l,4.858902785083046,ambig,0.25,5.711864407,1.771915459,0.230683744
048,68,1,2,5,2,98,831.8464237819717,849.1269573642057,stimuli/338_zb.png,a,17.268479932565242,awful,0.25,3.310344828,2.137443107,0.28066003
048,68,1,2,5,3,99,849.6750437660958,852.4068970270455,stimuli/132_xc.png,l,2.720144226332195,harmless,0.25,6.627118644,0.692280217,0.090127208
048,68,1,2,5,4,100,852.9575146756542,871.5749258092837,stimuli/290_zb.png,l,18.605665471346583,awful,0.25,2.586206897,2.026443456,0.266085062
048,68,1,2,5,5,101,872.1311616677558,876.9508527745493,stimuli/361_za.png,a,4.808009641361423,awful,0.25,2.416666667,1.907093508,0.246204713
048,68,1,2,5,6,102,877.5063163014711,881.3028276156692,stimuli/258_ya.png,l,3.7847266611934174,ambig,0.25,5.627118644,1.78014243,0.231754804
048,68,1,2,5,7,103,881.8509837282472,887.2388572171039,stimuli/326_zb.png,a,5.37608174662455,awful,0.25,3.389830508,2.220724867,0.289113752
048,68,1,2,5,8,104,887.789500859566,892.4148507422942,stimuli/212_ya.png,l,4.613504971319344,ambig,0.25,5.677966102,1.490668422,0.194068498
048,68,1,2,5,9,105,892.9763869770977,898.1748403447564,stimuli/263_ya.png,l,5.1866167270054575,ambig,0.25,4.983050847,2.071910042,0.269739712
048,68,1,2,5,10,106,898.7277643542038,903.174823409383,stimuli/243_ya.png,l,4.435184605332324,ambig,0.25,5.830508475,1.652088985,0.215083666
048,68,1,2,5,11,107,903.7287017071212,908.6388745463337,stimuli/136_xc.png,l,4.898346832400421,harmless,0.25,6.559322034,1.038420326,0.135190811
048,68,1,2,5,12,108,909.1983415154682,912.8148019054206,stimuli/131_xb.png,l,3.604479601752246,harmless,0.25,6.525423729,1.119666394,0.145768149
048,68,1,2,5,13,109,913.3716631909774,918.1108423770056,stimuli/207_yb.png,l,4.727663923520595,ambig,0.25,5.655737705,1.662179753,0.212820309
048,68,1,2,5,14,110,918.6696571375651,922.6867874591553,stimuli/354_zb.png,a,4.005040438118158,awful,0.25,2,1.701925887,0.221571878
048,68,1,2,5,15,111,923.247031092149,935.8068596117082,stimuli/327_zb.png,l,12.547874119016342,awful,0.25,2.502808989,1.906990248,0.101070281
048,68,1,2,5,16,112,936.3586607668549,942.5507657346316,stimuli/186_xa.png,l,6.180483366915723,harmless,0.25,6.65,0.879618561,0.113558268
048,68,1,2,5,17,113,943.1096486304887,951.6227737375593,stimuli/330_ya.png,l,8.501447580114473,ambig,0.25,4.796610169,2.049219036,0.266785595
048,68,1,2,5,18,114,952.1717600770353,956.7987952257972,stimuli/174_xc.png,l,4.6151626681676134,harmless,0.25,6.533333333,1.111826512,0.143536185
048,68,1,2,5,19,115,957.3597367534821,960.5267911613046,stimuli/107_xa.png,l,3.1552197363926098,harmless,0.25,6.813559322,0.540580029,0.070377525
048,68,1,2,5,20,116,961.0797517983883,970.3747592125437,stimuli/304_ya.png,l,9.28309554894804,ambig,0.25,4.034482759,2.017167697,0.264867095
048,68,1,2,5,21,117,970.9237676073681,974.918807119946,stimuli/240_xa.png,l,3.983206022705417,harmless,0.25,6.482758621,1.096107616,0.143925981
048,68,1,2,5,22,118,975.472570020851,978.0307380866434,stimuli/184_xb.png,l,2.5464251604280435,harmless,0.25,6.508474576,1.194425,0.15550089
048,68,1,2,5,23,119,978.5822021098284,981.3187480430643,stimuli/112_xc.png,l,2.724666757247178,harmless,0.25,6.706896552,0.749470472,0.098410294
048,68,1,2,5,24,120,981.8797710968356,985.2627459320647,stimuli/255_xb.png,l,3.371065726969391,harmless,0.25,6.770491803,0.642740036,0.082294429
048,68,1,2,6,1,121,993.8461835360504,1008.5427052871673,stimuli/300_za.png,a,14.684587042866042,awful,0.166,3.75,2.12032137,0.273732312
048,68,1,2,6,2,122,1009.113610325061,1012.9027055234765,stimuli/231_xb.png,l,3.777165216335561,harmless,0.166,6.62295082,1.05141071,0.134619347
048,68,1,2,6,3,123,1013.4637108541792,1021.5347767780477,stimuli/309_ya.png,l,8.059127277170774,ambig,0.166,4.706896552,1.946734744,0.255618795
048,68,1,2,6,4,124,1022.0884754821018,1025.4306695574778,stimuli/104_xc.png,l,3.330401151586557,harmless,0.166,6.745762712,0.756425814,0.098478253
048,68,1,2,6,5,125,1025.9955333951511,1030.0947132113506,stimuli/336_ya.png,l,4.087297489430057,ambig,0.166,5.033898305,1.884291705,0.245313885
048,68,1,2,6,6,126,1030.654089595977,1033.8147062009084,stimuli/187_xc.png,l,3.1487043458910193,harmless,0.166,6.224137931,1.185335891,0.155642228
048,68,1,2,6,7,127,1034.374372849852,1037.9106938971672,stimuli/127_xb.png,l,3.5245848373451736,harmless,0.166,6.423728814,1.162686987,0.151368953
048,68,1,2,6,8,128,1038.469182947243,1049.1267238136788,stimuli/334_za.png,l,10.645623093529139,awful,0.166,3.333333333,2.214487481,0.285889104
048,68,1,2,6,9,129,1049.687790584314,1059.8386602942192,stimuli/366_za.png,a,10.138988170830999,awful,0.166,3.689655172,2.036568291,0.267414518
048,68,1,2,6,10,130,1060.3905595169635,1063.5506660916435,stimuli/179_xb.png,l,3.1482742663065437,harmless,0.166,6.704918033,0.882123617,0.112944356
048,68,1,2,6,11,131,1064.1100987961981,1067.006646541151,stimuli/116_xa.png,l,2.8846555720374454,harmless,0.166,6.63559322,0.958030802,0.050918763
048,68,1,2,6,12,132,1067.5637421649299,1070.9907729813713,stimuli/316_za.png,l,3.415088231296977,awful,0.166,2.344827586,1.802062407,0.236622386
048,68,1,2,6,13,133,1071.5485129368317,1075.5666814358847,stimuli/273_ya.png,l,4.0062554523174185,ambig,0.166,5.551724138,1.836973233,0.241206403
048,68,1,2,6,14,134,1076.1263728970953,1080.1986459582404,stimuli/201_yb.png,l,4.060343472898239,ambig,0.166,5.898305085,1.626238682,0.211718243
048,68,1,2,6,15,135,1080.7407971044304,1087.4066280303814,stimuli/222_ya.png,l,6.654022248345427,ambig,0.166,5.931034483,1.543089507,0.202617579
048,68,1,2,6,16,136,1087.9580333705526,1092.870653961203,stimuli/128_xc.png,l,4.900750079279533,harmless,0.166,6.627118644,0.98082135,0.127692063
048,68,1,2,6,17,137,1093.4274475052662,1097.2227091468521,stimuli/209_ya.png,l,3.783361197914928,ambig,0.166,5.603448276,1.825161903,0.239655499
048,68,1,2,6,18,138,1097.7726627715165,1101.1826373093936,stimuli/139_xa.png,l,3.3981272633827757,harmless,0.166,6.724137931,0.790138861,0.103750315
048,68,1,2,6,19,139,1101.7442688548763,1106.0705885828065,stimuli/238_xb.png,l,4.314472059602849,harmless,0.166,6.4,1.076718178,0.139003719
048,68,1,2,6,20,140,1106.6188400060637,1115.5666341743781,stimuli/175_xb.png,l,8.935812592419097,harmless,0.166,6.6,1.028409995,0.13276716
048,68,1,2,6,21,141,1116.1207172719005,1120.5586359545705,stimuli/251_ya.png,l,4.425995002093259,ambig,0.166,5.655172414,1.792300532,0.235340589
048,68,1,2,6,22,142,1121.1210591300332,1126.2945986022241,stimuli/228_ya.png,l,5.161648086999776,ambig,0.166,5.442622951,1.793735303,0.229664272
048,68,1,2,6,23,143,1126.8542231096653,1130.438625635812,stimuli/114_xc.png,l,3.5725536762620322,harmless,0.166,6.644067797,0.97843492,0.127381377
048,68,1,2,6,24,144,1130.9953372599557,1134.1586438314698,stimuli/149_xa.png,l,3.151408097066451,harmless,0.166,6.721311475,0.933294301,0.11949609
048,68,1,2,7,1,145,1142.6253167996765,1146.26255885532,stimuli/120_xa.png,l,3.625800048437668,harmless,0.083,6.440677966,1.054893138,0.137335389
048,68,1,2,7,2,146,1146.822883620538,1152.8468322000408,stimuli/359_za.png,a,6.012032775848638,awful,0.083,2.01754386,1.641985167,0.217486248
048,68,1,2,7,3,147,1153.4006045532296,1159.3666062113189,stimuli/282_xc.png,l,5.9540354421769734,harmless,0.083,6.55,0.998728005,0.128935231
048,68,1,2,7,4,148,1159.9311470954854,1162.8625738214469,stimuli/111_xa.png,l,2.9196030822349712,harmless,0.083,6.590163934,0.863655973,0.110579816
048,68,1,2,7,5,149,1163.417550948856,1173.342577287287,stimuli/253_ya.png,a,9.913163703953614,ambig,0.083,5.491803279,1.849531029,0.236808182
048,68,1,2,7,6,150,1173.9012872848834,1182.3665951836447,stimuli/223_yb.png,l,8.453486224258086,ambig,0.083,5.542372881,1.77455224,0.231027024
048,68,1,2,7,7,151,1182.9188193291484,1188.2945493715233,stimuli/142_xa.png,l,5.363786669506226,harmless,0.083,6.4,1.076718178,0.139003719
048,68,1,2,7,8,152,1188.8547512568475,1191.838535051269,stimuli/148_xc.png,l,2.9719077691843268,harmless,0.083,6.491525424,1.135218061,0.147792803
048,68,1,2,7,9,153,1192.4043512080098,1196.2304978407337,stimuli/170_xc.png,l,3.814252884418238,harmless,0.083,6.583333333,1.062323432,0.137145365
048,68,1,2,7,10,154,1196.793650418549,1200.7105434480764,stimuli/171_xa.png,l,3.905136339570163,harmless,0.083,6.465517241,1.046556882,0.137419651
048,68,1,2,7,11,155,1201.2632216977363,1207.6145262133796,stimuli/312_yb.png,l,6.3396415609749965,ambig,0.083,4.677966102,2.112692986,0.275049199
048,68,1,2,7,12,156,1208.1700362141128,1213.6865168871009,stimuli/141_xc.png,l,5.504851982899709,harmless,0.083,6.508474576,1.040107444,0.135410455
048,68,1,2,7,13,157,1214.2471630304644,1218.2705212351575,stimuli/153_xb.png,l,4.01137426571222,harmless,0.083,6.633333333,0.973664521,0.125699549
048,68,1,2,7,14,158,1218.8294569063582,1221.4145388164325,stimuli/162_xa.png,l,2.573220850958023,harmless,0.083,6.644067797,0.905209289,0.117848212
048,68,1,2,7,15,159,1221.9669417679252,1225.3185204002075,stimuli/155_xb.png,l,3.339671493245987,harmless,0.083,6.655737705,0.892286312,0.114245555
048,68,1,2,7,16,160,1225.8748787447112,1231.2384854267002,stimuli/204_xb.png,l,5.351875985827064,harmless,0.083,6.508474576,0.858484658,0.111765183
048,68,1,2,7,17,161,1231.7963805574109,1235.3825502694817,stimuli/137_xa.png,l,3.57437875753385,harmless,0.083,6.355932203,1.094858074,0.14253838
048,68,1,2,7,18,162,1235.9353758174693,1240.5104914604162,stimuli/206_xa.png,l,4.563184479309712,harmless,0.083,6.325842697,1.136094431,0.060212884
048,68,1,2,7,19,163,1241.05984565182,1249.0305112314818,stimuli/239_ya.png,a,7.958786009810865,ambig,0.083,5.157894737,1.925296579,0.255011762
048,68,1,2,7,20,164,1249.5919198602496,1258.8625478276226,stimuli/350_ya.png,a,9.258893332764274,ambig,0.083,4.915254237,2.02814792,0.264042369
048,68,1,2,7,21,165,1259.4196781098435,1264.078461953497,stimuli/335_yb.png,l,4.646995646035066,ambig,0.083,5.016949153,2.046793332,0.266469795
048,68,1,2,7,22,166,1264.6375697352923,1273.6304974468949,stimuli/298_za.png,a,8.980996154103195,awful,0.083,2.881355932,2.026418156,0.263817173
048,68,1,2,7,23,167,1274.186708886933,1278.0784536827414,stimuli/265_yb.png,l,3.8798569552018307,ambig,0.083,5.627118644,1.856008928,0.241631781
048,68,1,2,7,24,168,1278.6261529342446,1283.0865027086693,stimuli/219_ya.png,l,4.44844066616497,ambig,0.083,5.271186441,1.998538332,0.260187529
048,68,1,2,8,1,169,1291.6668576818483,1304.8384775497834,stimuli/275_yb.png,l,13.159861602587625,ambig,0.0412,4.836065574,2.138382004,0.27379176
048,68,1,2,8,2,170,1305.4112249981554,1309.1424099028518,stimuli/126_xa.png,l,3.71943727316102,harmless,0.0412,6.6,0.977717855,0.126222832
048,68,1,2,8,3,171,1309.691173325613,1314.0144454750116,stimuli/163_xa.png,l,4.311483557947213,harmless,0.0412,6.627118644,0.963082427,0.125382652
048,68,1,2,8,4,172,1314.5683785172878,1320.7024692160194,stimuli/217_yb.png,l,6.122256814996945,ambig,0.0412,5.169491525,2.001314588,0.260548967
048,68,1,2,8,5,173,1321.254603564681,1324.8864467825624,stimuli/159_xa.png,l,3.6199727064813487,harmless,0.0412,6.389830508,1.174689235,0.152931512
048,68,1,2,8,6,174,1325.4430556129955,1330.6864664748427,stimuli/246_ya.png,l,5.231946405459894,ambig,0.0412,5.542372881,1.715266481,0.223308675
048,68,1,2,8,7,175,1331.2403628894826,1334.8784276889346,stimuli/264_xa.png,l,3.626230521884281,harmless,0.0412,6.533333333,0.947193297,0.122282129
048,68,1,2,8,8,176,1335.4261198511813,1338.5823564973543,stimuli/113_xb.png,l,3.1444051254948135,harmless,0.0412,6.733333333,0.660422737,0.085260209
048,68,1,2,8,9,177,1339.1316374334565,1342.686392431846,stimuli/242_xb.png,l,3.5428132009110413,harmless,0.0412,6.576271186,0.913564256,0.118935936
048,68,1,2,8,10,178,1343.2749555446499,1345.758367745584,stimuli/178_xa.png,l,2.4716850494151004,harmless,0.0412,6.483333333,1.112207557,0.143585378
048,68,1,2,8,11,179,1346.3380228548485,1350.0704085952893,stimuli/274_xb.png,l,3.720485296769766,harmless,0.0412,6.491525424,1.179901828,0.153610134
048,68,1,2,8,12,180,1350.6314198336622,1354.9183534096228,stimuli/203_yb.png,l,4.275039827654837,ambig,0.0412,6,1.542501327,0.200816568
048,68,1,2,8,13,181,1355.474803520192,1361.2623725662706,stimuli/156_xc.png,l,5.775866706826491,harmless,0.0412,6.590163934,0.955284411,0.122311635
048,68,1,2,8,14,182,1361.820683991944,1365.430372597766,stimuli/345_zb.png,l,3.597825577511685,awful,0.0412,3.694915254,2.191317013,0.285285176
048,68,1,2,8,15,183,1365.976975776517,1368.934414046118,stimuli/161_xc.png,l,2.945574453595327,harmless,0.0412,6.796610169,0.609682252,0.079373868
048,68,1,2,8,16,184,1369.4943607194,1372.2623512985883,stimuli/169_xc.png,l,2.7561736308271065,harmless,0.0412,6.603448276,0.916508538,0.120343467
048,68,1,2,8,17,185,1372.8237934042409,1376.9503829165478,stimuli/325_yb.png,l,4.114783591619926,ambig,0.0412,5.131147541,1.811770863,0.231973488
048,68,1,2,8,18,186,1377.5097171596426,1382.8303749608458,stimuli/244_xb.png,l,5.308751843695063,harmless,0.0412,6.610169492,0.743174671,0.096753101
048,68,1,2,8,19,187,1383.386069675238,1388.0943429963372,stimuli/101_xa.png,l,4.696611547959037,harmless,0.0412,6.508522727,1.13475832,0.060482822
048,68,1,2,8,20,188,1388.6516698075866,1391.6783174120937,stimuli/164_xb.png,l,3.014788514643442,harmless,0.0412,6.830508475,0.460604639,0.059965616
048,68,1,2,8,21,189,1392.2311437477765,1399.9903318741126,stimuli/235_ya.png,l,7.747257750394056,ambig,0.0412,5.694915254,1.567495667,0.204070554
048,68,1,2,8,22,190,1400.5458855917386,1404.7663202793046,stimuli/286_ya.png,l,4.208596077689435,ambig,0.0412,5.06779661,1.779814082,0.231712057
048,68,1,2,8,23,191,1405.3260070143733,1408.7024085637822,stimuli/191_ya.png,l,3.3648256346350536,ambig,0.0412,5.517241379,2.062542966,0.270825159
048,68,1,2,8,24,192,1409.2645804656204,1415.8303202162788,stimuli/176_xb.png,l,6.5538156762195285,harmless,0.0412,6.796610169,0.517942249,0.067430337
048,68,1,2,9,1,193,1424.4280071601097,1427.8463745512418,stimuli/259_xc.png,l,3.4065346889547072,harmless,0.0412,6.568965517,0.993170874,0.130409725
048,68,1,2,9,2,194,1428.4045934231544,1433.4143257458927,stimuli/167_xb.png,l,4.997869294427801,harmless,0.0412,6.590163934,0.955284411,0.122311635
048,68,1,2,9,3,195,1433.9689925228304,1439.5663068885624,stimuli/198_yb.png,l,5.585232359182555,ambig,0.0412,5.101694915,1.83542643,0.238952168
048,68,1,2,9,4,196,1440.125470990286,1443.7023266438628,stimuli/121_xc.png,l,3.5652297204069328,harmless,0.0412,6.508474576,1.006408455,0.131023221
048,68,1,2,9,5,197,1444.267662308761,1448.3503325042839,stimuli/173_yb.png,l,4.0708111056592315,ambig,0.0412,5.796610169,1.242628763,0.161776485
048,68,1,2,9,6,198,1448.9093040154548,1453.8702865030791,stimuli/248_zb.png,a,4.949172628490487,awful,0.0412,3.288135593,1.991800844,0.259310383
048,68,1,2,9,7,199,1454.433585197694,1459.190280674171,stimuli/124_xa.png,l,4.744677272916306,harmless,0.0412,6.344262295,1.181598436,0.151288177
048,68,1,2,9,8,200,1459.740058643627,1463.1422496076266,stimuli/123_xc.png,l,3.390336206444772,harmless,0.0412,6.491525424,1.023396666,0.133234897
048,68,1,2,9,9,201,1463.6937987014826,1468.2622934032697,stimuli/210_yb.png,l,4.556745101057459,ambig,0.0412,5.557377049,1.76564049,0.226067099
048,68,1,2,9,10,202,1468.8196229714376,1475.3023750868742,stimuli/315_yb.png,a,6.470776447240496,ambig,0.0412,5.050847458,1.915667965,0.249398726
048,68,1,2,9,11,203,1475.8531955660728,1484.1902688588016,stimuli/272_xb.png,l,8.325136221392313,harmless,0.0412,6.355932203,1.029943284,0.134087194
048,68,1,2,9,12,204,1484.7419857309433,1487.9102634237206,stimuli/323_yb.png,l,3.1566470334364567,ambig,0.0412,4.603448276,1.955107169,0.256718148
048,68,1,2,9,13,205,1488.472187202773,1492.862260714086,stimuli/129_xa.png,l,4.378162433829857,harmless,0.0412,6.770491803,0.642740036,0.082294429
048,68,1,2,9,14,206,1493.4141162199376,1495.702278200828,stimuli/152_xa.png,l,2.2762887125718407,harmless,0.0412,6.576271186,0.968528743,0.126091702
048,68,1,2,9,15,207,1496.2587007421826,1499.3982339955692,stimuli/125_xc.png,l,3.1278801448643208,harmless,0.0412,6.683333333,0.999858747,0.129081209
048,68,1,2,9,16,208,1499.9455906012445,1502.414247370587,stimuli/103_xb.png,l,2.4568457286513876,harmless,0.0412,6.779661017,0.589207434,0.076708274
048,68,1,2,9,17,209,1502.9637831248692,1507.2622036064276,stimuli/118_xb.png,l,4.286694905400509,harmless,0.0412,6.474576271,0.953323265,0.124112118
048,68,1,2,9,18,210,1507.8228658974695,1511.4942854948458,stimuli/221_xb.png,l,3.6595234860142227,harmless,0.0412,6.440677966,1.133672495,0.147591588
048,68,1,2,9,19,211,1512.0426590103016,1518.0141953829443,stimuli/257_yb.png,l,5.959836002642987,ambig,0.0412,5.620689655,1.843219782,0.242026615
048,68,1,2,9,20,212,1518.5751499075268,1523.4461811729707,stimuli/281_ya.png,l,4.859388003067579,ambig,0.0412,5.881355932,1.543448286,0.200939852
048,68,1,2,9,21,213,1523.9965613326058,1527.0701963124156,stimuli/134_xc.png,l,3.0616762469580863,harmless,0.0412,6.516666667,0.965360505,0.124627505
048,68,1,2,9,22,214,1527.6232865247584,1531.5741964069312,stimuli/200_ya.png,l,3.9389956539089326,ambig,0.0412,5.862068966,1.444266048,0.189641423
048,68,1,2,9,23,215,1532.1223800887237,1535.9821977775136,stimuli/154_xc.png,l,3.847939300496364,harmless,0.0412,6.5,0.965506805,0.124646393
048,68,1,2,9,24,216,1536.5603688759438,1539.6142107429332,stimuli/194_xb.png,l,3.0419051895150915,harmless,0.0412,6.586206897,1.026567825,0.134794959
048,68,1,2,10,1,217,1548.0806733974896,1550.6781468768895,stimuli/216_xa.png,l,2.5857305740355514,harmless,0.0412,6.603448276,0.877389573,0.115206895
048,68,1,2,10,2,218,1551.2308798711165,1553.9022116409033,stimuli/135_xa.png,l,2.659406513819704,harmless,0.0412,6.508474576,1.179901828,0.153610134
048,68,1,2,10,3,219,1554.4494189790275,1556.9901853635092,stimuli/105_xa.png,l,2.528813559329137,harmless,0.0412,6.557377049,1.088187946,0.139328189
048,68,1,2,10,4,220,1557.5434705294902,1565.4303284870402,stimuli/279_ya.png,l,7.874970116943587,ambig,0.0412,5.31147541,1.970964092,0.252356093
048,68,1,2,10,5,221,1565.9819835254166,1570.230161496438,stimuli/168_xa.png,l,4.236381502618315,harmless,0.0412,6.474576271,1.164946827,0.151663159
048,68,1,2,10,6,222,1570.7780592462223,1677.398158377182,stimuli/226_yb.png,l,106.60828533337917,ambig,0.0412,5.683333333,1.712285287,0.22105508
048,68,1,2,10,7,223,1677.9463066128665,1707.0540179160307,stimuli/215_yb.png,a,29.095871905592503,ambig,0.0412,5.866666667,1.466769385,0.189359113
048,68,1,2,10,8,224,1707.6034918365476,1709.7340009018953,stimuli/150_xc.png,l,2.1184770771942567,harmless,0.0412,6.482758621,1.030097582,0.135258439
048,68,1,2,10,9,225,1710.2953205215163,1712.8540632083023,stimuli/180_xc.png,l,2.546867055410985,harmless,0.0412,6.672131148,0.723908638,0.092687003
048,68,1,2,10,10,226,1713.4044878724962,1715.8620181050792,stimuli/241_yb.png,l,2.445775118016172,ambig,0.0412,5.508474576,1.442852555,0.187843403
048,68,1,2,10,11,227,1716.4208927301806,1719.3100342054968,stimuli/106_xc.png,l,2.8772741146967746,harmless,0.0412,6.661016949,0.863237081,0.112383896
048,68,1,2,10,12,228,1719.8726007408113,1723.965985904244,stimuli/195_xc.png,l,4.0815304058778565,harmless,0.0412,6.637640449,1.001766915,0.05309354
048,68,1,2,10,13,229,1724.5290805867407,1726.8940157105098,stimuli/185_xa.png,l,2.3530638246738818,harmless,0.0412,6.5,0.965506805,0.124646393
048,68,1,2,10,14,230,1727.4507407254132,1729.8060266278917,stimuli/225_ya.png,l,2.3436091632174794,ambig,0.0412,5.85,1.792876677,0.231459384
048,68,1,2,10,15,231,1730.3601979468658,1734.0939999566763,stimuli/193_xc.png,l,3.722072101343656,harmless,0.0412,6.482758621,1.012923151,0.133003326
048,68,1,2,10,16,232,1734.658109973534,1743.8380581040692,stimuli/252_zb.png,a,9.168204437475652,awful,0.0412,2.711864407,1.983125776,0.258180985
048,68,1,2,10,17,233,1744.3933160434826,1748.781968165451,stimuli/250_yb.png,l,4.377194360917201,ambig,0.0412,5.950819672,1.585625318,0.203018519
048,68,1,2,10,18,234,1749.331383402925,1756.5019737580442,stimuli/234_xb.png,l,7.158650920697255,harmless,0.0412,6.637931034,0.788030542,0.103473479
048,68,1,2,10,19,235,1757.0503516058088,1764.1819957346306,stimuli/277_yb.png,a,7.119712177518522,ambig,0.0412,5.491525424,2.02886822,0.264136144
048,68,1,2,10,20,236,1764.7388160602422,1768.9499449600407,stimuli/245_yb.png,l,4.199296985316323,ambig,0.0412,4.949152542,2.096168334,0.272897873
048,68,1,2,10,21,237,1769.5038000208733,1776.1739786102262,stimuli/280_xb.png,l,6.658290354913333,harmless,0.0412,6.333333333,1.068289726,0.137915611
048,68,1,2,10,22,238,1776.7225726793113,1780.1419451648544,stimuli/158_xa.png,l,3.407513395679416,harmless,0.0412,6.786885246,0.661179605,0.084655374
048,68,1,2,10,23,239,1780.6920386047568,1783.981935870077,stimuli/227_xa.png,l,3.2781626307114493,harmless,0.0412,6.180327869,1.05685377,0.135316259
048,68,1,2,10,24,240,1784.536684173101,1787.2219706860487,stimuli/160_xb.png,l,2.6734018231218215,harmless,0.0412,6.666666667,0.680644427,0.087870818
