id,age,condition,counterbalance,block,trialinblock,trial,tstart,tend,trialstim,response,RT,trialtype,ethicfreq,norm_mean,norm_sd,norm_se
038,65,0,1,0,0,practice,9.845942258834839e-06,37.42379616107792,stimuli/prac_217_1.png,a,37.40145250316709,harmless,NA,NA,NA,NA
038,65,0,1,1,1,1,4.873337232507765,15.423752444330603,stimuli/367_zb.png,a,10.538708540378138,awful,0.333,3.413793103,2.086165649,0.27392697
038,65,0,1,1,2,2,16.030692400643602,32.991759958909824,stimuli/331_za.png,a,16.949232493061572,awful,0.333,1.983606557,1.638004917,0.209725039
038,65,0,1,1,3,3,33.612686559790745,50.663685648236424,stimuli/190_xc.png,l,17.03922113077715,harmless,0.333,6.517241379,1.046990328,0.137476565
038,65,0,1,1,4,4,51.300967088434845,67.32768676662818,stimuli/118_xb.png,l,16.01496220054105,harmless,0.333,6.474576271,0.953323265,0.124112118
038,65,0,1,1,5,5,67.97230515955016,82.02364846901037,stimuli/278_xb.png,l,14.039381031878293,harmless,0.333,6.360655738,1.140654591,0.146045855
038,65,0,1,1,6,6,82.63510504853912,118.43169867643155,stimuli/277_yb.png,l,35.7848822302185,ambig,0.333,5.491525424,2.02886822,0.264136144
038,65,0,1,1,7,7,119.06562730763108,125.03960631182417,stimuli/224_yb.png,l,5.962253821780905,ambig,0.333,5.881355932,1.609077116,0.209483997
038,65,0,1,1,8,8,125.69428510102443,152.94359537865967,stimuli/350_ya.png,a,27.237181797157973,ambig,0.333,4.915254237,2.02814792,0.264042369
038,65,0,1,1,9,9,153.56472914246842,162.1435307879001,stimuli/324_za.png,a,8.567027232376859,awful,0.333,2.491525424,1.994586478,0.259673041
038,65,0,1,1,10,10,162.78138881828636,179.99959985283203,stimuli/262_ya.png,l,17.206127058714628,ambig,0.333,5.491525424,1.7750462,0.231091332
038,65,0,1,1,11,11,180.6439866644796,191.3755910147447,stimuli/163_xa.png,l,10.719558183802292,harmless,0.333,6.627118644,0.963082427,0.125382652
038,65,0,1,1,12,12,191.98705862206407,220.55162313696928,stimuli/332_zb.png,l,28.552835000446066,awful,0.333,2.694915254,2.002190501,0.260663001
038,65,0,1,1,13,13,221.16593588585965,227.80751378950663,stimuli/188_xa.png,l,6.629533312283456,harmless,0.333,6.655172414,0.806807095,0.105938962
038,65,0,1,1,14,14,228.44434663956054,234.35151089099236,stimuli/108_xb.png,l,5.895437887636945,harmless,0.333,6.568965517,1.077880782,0.141532681
038,65,0,1,1,15,15,234.9845655784011,242.40752166649327,stimuli/102_xc.png,l,7.410984358517453,harmless,0.333,6.66011236,0.937292468,0.049676401
038,65,0,1,1,16,16,243.02436644979753,251.6874822031241,stimuli/236_yb.png,l,8.650943949818611,ambig,0.333,5.93442623,1.49297078,0.19115532
038,65,0,1,1,17,17,252.30974787962623,261.19950848049484,stimuli/271_ya.png,l,8.878074803156778,ambig,0.333,5.711864407,1.771915459,0.230683744
038,65,0,1,1,18,18,261.8455963120796,267.01548365247436,stimuli/193_xc.png,l,5.1581314380746335,harmless,0.333,6.482758621,1.012923151,0.133003326
038,65,0,1,1,19,19,267.6345690244343,275.8314667013474,stimuli/345_zb.png,l,8.185133897699416,awful,0.333,3.694915254,2.191317013,0.285285176
038,65,0,1,1,20,20,276.455279010348,321.9195152546745,stimuli/341_zb.png,a,45.45255517284386,awful,0.333,3.603448276,2.15975677,0.283589957
038,65,0,1,1,21,21,322.5392441705335,331.91141817951575,stimuli/225_ya.png,l,9.359802131773904,ambig,0.333,5.85,1.792876677,0.231459384
038,65,0,1,1,22,22,332.5260727866553,344.7833761640359,stimuli/322_za.png,l,12.245583708863705,awful,0.333,2.406779661,1.975004531,0.257123689
038,65,0,1,1,23,23,345.41598501824774,359.15138919255696,stimuli/281_ya.png,l,13.723662844393402,ambig,0.333,5.881355932,1.543448286,0.200939852
038,65,0,1,1,24,24,359.76673263590783,368.24739894410595,stimuli/290_zb.png,a,8.469013987341896,awful,0.333,2.586206897,2.026443456,0.266085062
038,65,0,1,2,1,25,393.84451520536095,437.96734309685417,stimuli/218_yb.png,a,44.11107435217127,ambig,0.333,5.850282486,1.552723069,0.0825263
038,65,0,1,2,2,26,438.5907654983457,510.85530854878016,stimuli/286_ya.png,l,72.25299706798978,ambig,0.333,5.06779661,1.779814082,0.231712057
038,65,0,1,2,3,27,511.4288318732288,518.4871978464071,stimuli/117_xc.png,l,7.046470649540424,harmless,0.333,6.627118644,0.868972939,0.113130641
038,65,0,1,2,4,28,519.1066664303653,526.9032592705917,stimuli/313_zb.png,l,7.784815670223907,awful,0.333,2.101694915,1.688652955,0.219843889
038,65,0,1,2,5,29,527.5350965808611,534.5032250061631,stimuli/321_zb.png,l,6.956001914106309,awful,0.333,2.918032787,2.177881861,0.278849198
038,65,0,1,2,6,30,535.1286631103139,545.639222312253,stimuli/308_zb.png,a,10.498845047317445,awful,0.333,1.644067797,1.471132708,0.191525165
038,65,0,1,2,7,31,546.2410426673014,552.3031990122981,stimuli/181_xa.png,l,6.0504662150051445,harmless,0.333,6.666666667,0.950765377,0.122743282
038,65,0,1,2,8,32,552.9268529950641,558.4871667327825,stimuli/162_xa.png,l,5.548596432199702,harmless,0.333,6.644067797,0.905209289,0.117848212
038,65,0,1,2,9,33,559.0502905598842,577.3671705923043,stimuli/260_ya.png,a,18.304946899646893,ambig,0.333,4.966101695,2.016877936,0.262575142
038,65,0,1,2,10,34,578.0184115020093,591.8071841406636,stimuli/304_ya.png,a,13.776644552126527,ambig,0.333,4.034482759,2.017167697,0.264867095
038,65,0,1,2,11,35,592.4126759259962,608.0951720417943,stimuli/266_zb.png,l,15.670637419680133,awful,0.333,3.491525424,1.888010094,0.245797978
038,65,0,1,2,12,36,608.6727074731607,615.2071652361192,stimuli/221_xb.png,l,6.522437984123826,harmless,0.333,6.440677966,1.133672495,0.147591588
038,65,0,1,2,13,37,615.8296105063055,622.5271412902512,stimuli/244_xb.png,l,6.68620220432058,harmless,0.333,6.610169492,0.743174671,0.096753101
038,65,0,1,2,14,38,623.0966623541899,628.1511052297428,stimuli/166_xa.png,l,5.042587724281475,harmless,0.333,6.593220339,1.052397002,0.13701042
038,65,0,1,2,15,39,628.7913133378606,636.0071262454148,stimuli/232_yb.png,l,7.203182273777202,ambig,0.333,5.483333333,1.845669845,0.238274952
038,65,0,1,2,16,40,636.6159865935333,648.8711033393629,stimuli/362_zb.png,a,12.243276560446247,awful,0.333,1.474576271,1.222715071,0.159183944
038,65,0,1,2,17,41,649.5012774388306,657.3910959349014,stimuli/141_xc.png,l,7.878068895312026,harmless,0.333,6.508474576,1.040107444,0.135410455
038,65,0,1,2,18,42,658.0058966588695,663.7510733283125,stimuli/147_ya.png,l,5.73345936415717,ambig,0.333,5.883333333,1.766847875,0.22809908
038,65,0,1,2,19,43,664.416019676486,669.775092799915,stimuli/151_xa.png,l,5.346859178505838,harmless,0.333,6.610169492,0.947172729,0.123311386
038,65,0,1,2,20,44,670.4059553418774,699.9030351724941,stimuli/327_zb.png,a,29.484993491787463,awful,0.333,2.502808989,1.906990248,0.101070281
038,65,0,1,2,21,45,700.5246395820286,722.7750790154096,stimuli/228_ya.png,l,22.238773721968755,ambig,0.333,5.442622951,1.793735303,0.229664272
038,65,0,1,2,22,46,723.3376242830418,730.6710099978372,stimuli/363_zb.png,l,7.321407683426514,awful,0.333,2.433333333,2.019956927,0.260775318
038,65,0,1,2,23,47,731.3052891518455,742.622988777468,stimuli/300_za.png,l,11.305811785161495,awful,0.333,3.75,2.12032137,0.273732312
038,65,0,1,2,24,48,743.2294604510535,754.2630243811291,stimuli/173_yb.png,l,11.021850169403479,ambig,0.333,5.796610169,1.242628763,0.161776485
038,65,0,1,3,1,49,771.0043642050587,779.9749770092312,stimuli/212_ya.png,l,8.958849812857807,ambig,0.333,5.677966102,1.490668422,0.194068498
038,65,0,1,3,2,50,780.5835218869615,794.206967525417,stimuli/126_xa.png,l,13.611508960835636,harmless,0.333,6.6,0.977717855,0.126222832
038,65,0,1,3,3,51,794.8226496761199,805.4469684707001,stimuli/172_xb.png,l,10.611935102147982,harmless,0.333,6.482758621,1.127664553,0.14806961
038,65,0,1,3,4,52,806.1151459298562,817.2389655248262,stimuli/329_zb.png,a,11.112083778949454,awful,0.333,2.406779661,1.992387617,0.259386774
038,65,0,1,3,5,53,817.8040333746467,823.8149476284161,stimuli/282_xc.png,l,5.998929133405909,harmless,0.333,6.55,0.998728005,0.128935231
038,65,0,1,3,6,54,824.4179904807825,829.9349146240856,stimuli/120_xa.png,l,5.504590469179675,harmless,0.333,6.440677966,1.054893138,0.137335389
038,65,0,1,3,7,55,830.5499488986097,838.8148838253692,stimuli/256_zb.png,a,8.25314200296998,awful,0.333,3.051724138,2.012438634,0.264246138
038,65,0,1,3,8,56,839.4101946977898,844.9108589186799,stimuli/366_za.png,a,5.488931161817163,awful,0.333,3.689655172,2.036568291,0.267414518
038,65,0,1,3,9,57,845.5224730363116,851.8629007134587,stimuli/354_zb.png,a,6.329150691162795,awful,0.333,2,1.701925887,0.221571878
038,65,0,1,3,10,58,852.4289638116024,871.5908934981562,stimuli/303_zb.png,a,19.149939446011558,awful,0.333,3.620689655,2.158846233,0.283470398
038,65,0,1,3,11,59,872.1948583435733,884.8308735697065,stimuli/330_ya.png,l,12.624258930096403,ambig,0.333,4.796610169,2.049219036,0.266785595
038,65,0,1,3,12,60,885.4547087214887,893.7988925056998,stimuli/223_yb.png,l,8.333258896367624,ambig,0.333,5.542372881,1.77455224,0.231027024
038,65,0,1,3,13,61,894.4566696796101,899.3268364535179,stimuli/156_xc.png,l,4.858226551674306,harmless,0.333,6.590163934,0.955284411,0.122311635
038,65,0,1,3,14,62,899.9771041702479,909.358839572873,stimuli/315_yb.png,l,9.369583685416728,ambig,0.333,5.050847458,1.915667965,0.249398726
038,65,0,1,3,15,63,909.9823305036407,915.7828314753715,stimuli/144_xa.png,l,5.789224773645401,harmless,0.333,6.542372881,1.00553698,0.130909764
038,65,0,1,3,16,64,916.4074996111449,935.0388012910262,stimuli/230_yb.png,a,18.61967574665323,ambig,0.333,4.98245614,1.875511626,0.248417583
038,65,0,1,3,17,65,935.6860123707447,941.2387930203695,stimuli/146_xa.png,l,5.540578126208857,harmless,0.333,6.442622951,1.162247681,0.148810567
038,65,0,1,3,18,66,941.8382361223921,951.2628506950568,stimuli/189_yb.png,l,9.41255501518026,ambig,0.333,5.983333333,1.455459234,0.187898979
038,65,0,1,3,19,67,951.8321456913836,956.670779991895,stimuli/149_xa.png,l,4.8265908907633275,harmless,0.333,6.721311475,0.933294301,0.11949609
038,65,0,1,3,20,68,957.2813669599127,992.5508212668356,stimuli/339_ya.png,a,35.25757710007019,ambig,0.333,4.949152542,1.960152429,0.25519011
038,65,0,1,3,21,69,993.1628800365143,999.3667456328403,stimuli/346_zb.png,a,6.192088820040226,awful,0.333,1.288135593,0.983499162,0.128040685
038,65,0,1,3,22,70,999.94362334162,1012.7827861830592,stimuli/369_za.png,l,12.82746798521839,awful,0.333,2.948275862,2.055565093,0.26990892
038,65,0,1,3,23,71,1013.3830555735622,1022.3907154800836,stimuli/301_za.png,a,8.995844533434138,awful,0.333,3.610169492,2.212947396,0.288101212
038,65,0,1,3,24,72,1022.9902223851532,1029.1507881837897,stimuli/241_yb.png,l,6.148846918018535,ambig,0.333,5.508474576,1.442852555,0.187843403
038,65,0,1,4,1,73,1045.4768164658453,1066.9587265390437,stimuli/252_zb.png,l,21.47011951240711,awful,0.333,2.711864407,1.983125776,0.258180985
038,65,0,1,4,2,74,1067.5895008596126,1078.0786706919316,stimuli/148_xc.png,l,10.4771004288923,harmless,0.333,6.491525424,1.135218061,0.147792803
038,65,0,1,4,3,75,1078.7165035160724,1085.4386520234402,stimuli/105_xa.png,l,6.710177565226331,harmless,0.333,6.557377049,1.088187946,0.139328189
038,65,0,1,4,4,76,1086.0895081458148,1119.9826711802743,stimuli/305_zb.png,a,33.8811877600383,awful,0.333,2.75,2.12830003,0.274762352
038,65,0,1,4,5,77,1120.6159566612914,1130.5586702192668,stimuli/342_yb.png,l,9.930626037530601,ambig,0.333,4.916666667,2.085394461,0.269223267
038,65,0,1,4,6,78,1131.172200396657,1135.4466506373137,stimuli/158_xa.png,l,4.262479298515245,harmless,0.333,6.786885246,0.661179605,0.084655374
038,65,0,1,4,7,79,1136.0597593996208,1146.2386023988947,stimuli/270_yb.png,l,10.16706937388517,ambig,0.333,5.534482759,1.912246013,0.251090203
038,65,0,1,4,8,80,1146.8779022987,1158.1745709544048,stimuli/217_yb.png,l,11.284963559592143,ambig,0.333,5.169491525,2.001314588,0.260548967
038,65,0,1,4,9,81,1158.7908903474454,1164.542632031953,stimuli/174_xc.png,l,5.740094877546653,harmless,0.333,6.533333333,1.111826512,0.143536185
038,65,0,1,4,10,82,1165.1471301445272,1180.9265985707752,stimuli/351_zb.png,l,15.767881484003738,awful,0.333,3.06779661,2.033040926,0.264679384
038,65,0,1,4,11,83,1181.5546608692966,1193.678526544245,stimuli/198_yb.png,l,12.112505587749183,ambig,0.333,5.101694915,1.83542643,0.238952168
038,65,0,1,4,12,84,1194.3007953716442,1199.2305439207703,stimuli/337_zb.png,a,4.917770517989993,awful,0.333,3.033333333,2.20143764,0.284204377
038,65,0,1,4,13,85,1199.8233357556164,1206.5025901268236,stimuli/183_xb.png,l,6.667600475018844,harmless,0.333,6.448275862,1.095003225,0.143780967
038,65,0,1,4,14,86,1207.1282637505792,1212.7665813991334,stimuli/255_xb.png,l,5.6266137338243425,harmless,0.333,6.770491803,0.642740036,0.082294429
038,65,0,1,4,15,87,1213.4215425758157,1222.1907194184605,stimuli/343_zb.png,a,8.757461900357157,awful,0.333,3.103448276,2.141401862,0.28117984
038,65,0,1,4,16,88,1222.8287471963558,1231.4944965962786,stimuli/213_ya.png,l,8.653731196420267,ambig,0.333,5.98245614,1.597891781,0.211645937
038,65,0,1,4,17,89,1232.0884664237965,1235.8225035595242,stimuli/178_xa.png,l,3.7223603965248913,harmless,0.333,6.483333333,1.112207557,0.143585378
038,65,0,1,4,18,90,1236.4332622443326,1246.2465403603856,stimuli/192_za.png,l,9.801512367790565,awful,0.333,2.68852459,2.093967396,0.268105052
038,65,0,1,4,19,91,1246.8729638666846,1252.838515358977,stimuli/153_xb.png,l,5.953897989820689,harmless,0.333,6.633333333,0.973664521,0.125699549
038,65,0,1,4,20,92,1253.4643425829709,1273.6864735642448,stimuli/289_yb.png,l,20.21035696216859,ambig,0.333,5.305084746,1.714584873,0.223219937
038,65,0,1,4,21,93,1274.298354709288,1281.0384826699737,stimuli/207_yb.png,l,6.728547319769859,ambig,0.333,5.655737705,1.662179753,0.212820309
038,65,0,1,4,22,94,1281.6295482786372,1297.5024286499247,stimuli/296_yb.png,l,15.861031521344557,ambig,0.333,4.229508197,2.052587332,0.262806878
038,65,0,1,4,23,95,1298.0896625332534,1306.126460724743,stimuli/314_zb.png,a,8.024621268035844,awful,0.333,1.833333333,1.451669602,0.18740974
038,65,0,1,4,24,96,1306.7399353699293,1329.2944910824299,stimuli/248_zb.png,l,22.542959711514413,awful,0.333,3.288135593,1.991800844,0.259310383
038,65,0,1,5,1,97,1342.0561647694558,1386.2863656503614,stimuli/291_za.png,a,44.218490664847195,awful,0.333,2.593220339,1.830005126,0.238246374
038,65,0,1,5,2,98,1386.9204124354292,1392.798328912584,stimuli/333_za.png,l,5.866489436244592,awful,0.333,3.266666667,2.185209657,0.282109354
038,65,0,1,5,3,99,1393.37068330287,1419.5183731019497,stimuli/348_za.png,l,26.135370697360486,awful,0.333,3.084745763,2.119597681,0.275948114
038,65,0,1,5,4,100,1420.135349429911,1425.9263354819268,stimuli/185_xa.png,l,5.778875688556582,harmless,0.333,6.5,0.965506805,0.124646393
038,65,0,1,5,5,101,1426.5423015954439,1445.238284959225,stimuli/292_zb.png,a,18.68448739987798,awful,0.333,2.396551724,1.955107169,0.256718148
038,65,0,1,5,6,102,1445.8546177432872,1451.0223527164198,stimuli/132_xc.png,l,5.156054689316079,harmless,0.333,6.627118644,0.692280217,0.090127208
038,65,0,1,5,7,103,1451.6544365740847,1455.5902952465694,stimuli/201_yb.png,l,3.9238471642602235,ambig,0.333,5.898305085,1.626238682,0.211718243
038,65,0,1,5,8,104,1456.2383708176203,1461.8143383490387,stimuli/246_ya.png,l,5.563245131634176,ambig,0.333,5.542372881,1.715266481,0.223308675
038,65,0,1,5,9,105,1462.3682658774778,1468.4864062166307,stimuli/200_ya.png,l,6.106154824839905,ambig,0.333,5.862068966,1.444266048,0.189641423
038,65,0,1,5,10,106,1469.1014656971674,1482.1743267700076,stimuli/334_za.png,a,13.061333207413554,awful,0.333,3.333333333,2.214487481,0.285889104
038,65,0,1,5,11,107,1482.7979023775551,1487.2462355238385,stimuli/259_xc.png,l,4.436605994822457,harmless,0.333,6.568965517,0.993170874,0.130409725
038,65,0,1,5,12,108,1487.8895821888,1512.9982757433318,stimuli/263_ya.png,l,25.096706858603284,ambig,0.333,4.983050847,2.071910042,0.269739712
038,65,0,1,5,13,109,1513.638065193314,1521.4783918489702,stimuli/160_xb.png,l,7.828580993227661,harmless,0.333,6.666666667,0.680644427,0.087870818
038,65,0,1,5,14,110,1522.1189654460177,1528.7341930987313,stimuli/231_xb.png,l,6.603577695088461,harmless,0.333,6.62295082,1.05141071,0.134619347
038,65,0,1,5,15,111,1529.3578206938691,1540.6142253153957,stimuli/328_za.png,a,11.244762934511527,awful,0.333,2.706896552,1.955725922,0.256799395
038,65,0,1,5,16,112,1541.1858569986653,1549.8942815563641,stimuli/133_xa.png,l,8.696729701478034,harmless,0.333,6.568965517,1.186356193,0.1557762
038,65,0,1,5,17,113,1550.5098632765003,1575.7342474493198,stimuli/360_za.png,a,25.212662141304463,awful,0.333,3.2,2.207844259,0.285031468
038,65,0,1,5,18,114,1576.3439392060973,1582.046159511432,stimuli/235_ya.png,l,5.690481732366607,ambig,0.333,5.694915254,1.567495667,0.204070554
038,65,0,1,5,19,115,1582.6654595294967,1589.3741326038726,stimuli/227_xa.png,l,6.69726848253049,harmless,0.333,6.180327869,1.05685377,0.135316259
038,65,0,1,5,20,116,1589.951822816627,1608.9102189191617,stimuli/319_ya.png,a,18.946660286281258,ambig,0.333,4.216666667,2.108028774,0.272145344
038,65,0,1,5,21,117,1609.5426371518988,1625.8301512566395,stimuli/285_yb.png,l,16.27597009157762,ambig,0.333,4.120689655,2.119893958,0.278355714
038,65,0,1,5,22,118,1626.459176901728,1634.5341198432725,stimuli/344_za.png,a,8.06320673157461,awful,0.333,2.711864407,2.043077863,0.265986082
038,65,0,1,5,23,119,1635.140431615524,1649.1421050662175,stimuli/336_ya.png,l,13.989796637557447,ambig,0.333,5.033898305,1.884291705,0.245313885
038,65,0,1,5,24,120,1649.7586867606733,1658.398112297291,stimuli/164_xb.png,l,8.627848834032193,harmless,0.333,6.830508475,0.460604639,0.059965616
038,65,0,1,6,1,121,1674.009796519531,1681.3980681865942,stimuli/356_za.png,a,7.376594139961526,awful,0.333,3.033333333,2.178217796,0.281206708
038,65,0,1,6,2,122,1682.0492701053154,1701.6380640116986,stimuli/170_xc.png,l,19.57677058270201,harmless,0.333,6.583333333,1.062323432,0.137145365
038,65,0,1,6,3,123,1702.2560135326348,1709.8380900055636,stimuli/268_zb.png,a,7.5705549088306725,awful,0.333,2.655737705,2.048456703,0.262278005
038,65,0,1,6,4,124,1710.4595738982316,1726.5900514561217,stimuli/253_ya.png,l,16.118857926223427,ambig,0.333,5.491803279,1.849531029,0.236808182
038,65,0,1,6,5,125,1727.1981445925776,1732.790031763725,stimuli/129_xa.png,l,5.579842186067253,harmless,0.333,6.770491803,0.642740036,0.082294429
038,65,0,1,6,6,126,1733.4599791655783,1748.5900506682228,stimuli/340_za.png,a,15.117932388326153,awful,0.333,2.508474576,1.832398855,0.238558011
038,65,0,1,6,7,127,1749.2500719754025,1756.1900510622654,stimuli/352_zb.png,a,6.927909683436155,awful,0.333,2.93442623,2.135952968,0.273480754
038,65,0,1,6,8,128,1756.8223444458563,1765.5020025088452,stimuli/283_yb.png,l,8.667924609966576,ambig,0.333,5.949152542,1.478859402,0.192531095
038,65,0,1,6,9,129,1766.144132190384,1775.7900396406185,stimuli/280_xb.png,l,9.63405544962734,harmless,0.333,6.333333333,1.068289726,0.137915611
038,65,0,1,6,10,130,1776.390247197356,1786.573998302687,stimuli/239_ya.png,l,10.172695460729301,ambig,0.333,5.157894737,1.925296579,0.255011762
038,65,0,1,6,11,131,1787.232551746536,1792.5019225580618,stimuli/220_yb.png,l,5.257706675445661,ambig,0.333,4.75,2.096203186,0.270618668
038,65,0,1,6,12,132,1793.068709938554,1801.9179520809557,stimuli/242_xb.png,l,8.837182978866622,harmless,0.333,6.576271186,0.913564256,0.118935936
038,65,0,1,6,13,133,1802.4809290035628,1806.413953167852,stimuli/130_xc.png,l,3.9211615298409015,harmless,0.333,6.644067797,0.960651931,0.125066229
038,65,0,1,6,14,134,1807.0285683902912,1812.9019406749867,stimuli/323_yb.png,l,5.861749502131715,ambig,0.333,4.603448276,1.955107169,0.256718148
038,65,0,1,6,15,135,1813.4661790856626,1818.8779357755557,stimuli/264_xa.png,l,5.3999992122408,harmless,0.333,6.533333333,0.947193297,0.122282129
038,65,0,1,6,16,136,1819.4833649394568,1827.4619692682754,stimuli/204_xb.png,l,7.966874814126641,harmless,0.333,6.508474576,0.858484658,0.111765183
038,65,0,1,6,17,137,1828.0524681329262,1833.3738683334086,stimuli/219_ya.png,l,5.309556076768786,ambig,0.333,5.271186441,1.998538332,0.260187529
038,65,0,1,6,18,138,1834.0044461248908,1840.277969252551,stimuli/364_za.png,l,6.261542733293027,awful,0.333,1.677966102,1.279017376,0.166513879
038,65,0,1,6,19,139,1840.908155561192,1865.373892751988,stimuli/365_zb.png,a,24.454083688324317,awful,0.333,2.966101695,2.165291266,0.281896912
038,65,0,1,6,20,140,1865.9436552431434,1873.4138897587545,stimuli/157_xc.png,l,7.4582875980995595,harmless,0.333,6.603448276,0.877389573,0.115206895
038,65,0,1,6,21,141,1873.993980461266,1878.5019036536105,stimuli/349_za.png,l,4.495974699500948,awful,0.333,3.288135593,2.101320172,0.273568585
038,65,0,1,6,22,142,1879.1200465527363,1887.3739057488274,stimuli/284_ya.png,l,8.242510924348608,ambig,0.333,5.948275862,1.431750417,0.18799804
038,65,0,1,6,23,143,1888.018760449253,1897.6458637332544,stimuli/335_yb.png,l,9.615304058650509,ambig,0.333,5.016949153,2.046793332,0.266469795
038,65,0,1,6,24,144,1898.2759326761588,1905.0859115461353,stimuli/318_za.png,l,6.798017380293459,awful,0.333,3.06557377,2.197489875,0.281359747
038,65,0,1,7,1,145,1920.8695838823915,1946.573814376723,stimuli/370_za.png,a,25.692486013751477,awful,0.333,2.393442623,1.882185684,0.240989182
038,65,0,1,7,2,146,1947.1590219235513,1955.1897950624116,stimuli/272_xb.png,l,8.019258270272985,harmless,0.333,6.355932203,1.029943284,0.134087194
038,65,0,1,7,3,147,1955.7986006659921,1961.0858308079187,stimuli/137_xa.png,l,5.275489599676803,harmless,0.333,6.355932203,1.094858074,0.14253838
038,65,0,1,7,4,148,1961.689589278074,1967.5417683280539,stimuli/167_xb.png,l,5.840547209139913,harmless,0.333,6.590163934,0.955284411,0.122311635
038,65,0,1,7,5,149,1968.149444382172,1984.9178559824359,stimuli/371_zb.png,l,16.756696264026687,awful,0.333,3.131147541,2.085468851,0.267016925
038,65,0,1,7,6,150,1985.5340966065414,1996.149813021766,stimuli/357_za.png,a,10.603993202093989,awful,0.333,2.793103448,2.066937905,0.271402243
038,65,0,1,7,7,151,1996.8082416164689,2002.0057863821276,stimuli/177_xb.png,l,5.185380839044228,harmless,0.333,6.482758621,1.063614811,0.139659467
038,65,0,1,7,8,152,2002.5745985235553,2007.9337602620944,stimuli/287_ya.png,l,5.346986390650272,ambig,0.333,5.950819672,1.407435369,0.180203633
038,65,0,1,7,9,153,2008.5541252391413,2025.1177858780138,stimuli/273_ya.png,l,16.55197838577442,ambig,0.333,5.551724138,1.836973233,0.241206403
038,65,0,1,7,10,154,2025.7348748457152,2031.149701169692,stimuli/203_yb.png,l,5.403106261743233,ambig,0.333,6,1.542501327,0.200816568
038,65,0,1,7,11,155,2031.7891542753205,2040.0777475172654,stimuli/245_yb.png,l,8.276861364254728,ambig,0.333,4.949152542,2.096168334,0.272897873
038,65,0,1,7,12,156,2040.695894748671,2044.4776852896903,stimuli/115_xb.png,l,3.770029124803841,harmless,0.333,6.440677966,1.021681954,0.133011661
038,65,0,1,7,13,157,2045.1227818115149,2052.653724894859,stimuli/320_za.png,a,7.5185526956338435,awful,0.333,1.423728814,1.117314975,0.14546202
038,65,0,1,7,14,158,2053.3141439862084,2057.9737170967273,stimuli/233_yb.png,l,4.647536790231243,ambig,0.333,5.318309859,1.922973646,0.102060844
038,65,0,1,7,15,159,2058.580189557979,2062.509707707446,stimuli/199_za.png,l,3.9174357489682734,awful,0.333,3.033898305,2.189048775,0.284989876
038,65,0,1,7,16,160,2063.1379035196733,2090.125725414837,stimuli/311_za.png,l,26.97550279344432,awful,0.333,3.116666667,1.975199339,0.254997138
038,65,0,1,7,17,161,2090.7553280440625,2096.077627788298,stimuli/136_xc.png,l,5.310290992958471,harmless,0.333,6.559322034,1.038420326,0.135190811
038,65,0,1,7,18,162,2096.7093268586323,2105.5417179157957,stimuli/261_yb.png,l,8.820880914805457,ambig,0.333,5.706896552,1.901141123,0.249632059
038,65,0,1,7,19,163,2106.145678428933,2110.941725005163,stimuli/215_yb.png,l,4.784474206157029,ambig,0.333,5.866666667,1.466769385,0.189359113
038,65,0,1,7,20,164,2111.5745528375264,2115.877682138933,stimuli/317_za.png,l,4.291303688427433,awful,0.333,3.65,2.03215674,0.262350307
038,65,0,1,7,21,165,2116.4751052060165,2122.965655073989,stimuli/216_xa.png,l,6.478898334782571,harmless,0.333,6.603448276,0.877389573,0.115206895
038,65,0,1,7,22,166,2123.602975110989,2128.9976199900266,stimuli/214_xb.png,l,5.382768853800371,harmless,0.333,6.465517241,0.940614156,0.12350869
038,65,0,1,7,23,167,2129.596905947663,2140.5656109631527,stimuli/310_zb.png,l,10.95679630106315,awful,0.333,3.224137931,2.102989547,0.276136056
038,65,0,1,7,24,168,2141.1669189250097,2146.2136038267054,stimuli/205_yb.png,l,5.034865984227508,ambig,0.333,5.847457627,1.52918233,0.199082582
038,65,0,1,8,1,169,2162.1408006490674,2168.621570145013,stimuli/240_xa.png,l,6.469081335002556,harmless,0.333,6.482758621,1.096107616,0.143925981
038,65,0,1,8,2,170,2169.2242837422527,2174.4776049451903,stimuli/171_xa.png,l,5.241617288207635,harmless,0.333,6.465517241,1.046556882,0.137419651
038,65,0,1,8,3,171,2175.1139076787513,2183.861586844083,stimuli/276_ya.png,l,8.736123336711898,ambig,0.333,5.186440678,1.804922162,0.234980851
038,65,0,1,8,4,172,2184.499889920233,2191.581577470526,stimuli/128_xc.png,l,7.069614208303392,harmless,0.333,6.627118644,0.98082135,0.127692063
038,65,0,1,8,5,173,2192.193364486564,2212.5655680340715,stimuli/355_zb.png,l,20.36047285143286,awful,0.333,3.183333333,2.070713188,0.267327923
038,65,0,1,8,6,174,2213.1940706521273,2224.565542827826,stimuli/159_xa.png,l,11.359767079586163,harmless,0.333,6.389830508,1.174689235,0.152931512
038,65,0,1,8,7,175,2225.1852729253005,2231.077576194424,stimuli/295_za.png,a,5.8805304314009845,awful,0.333,2.3,1.825432384,0.235662307
038,65,0,1,8,8,176,2231.706931882538,2237.9095438676886,stimuli/119_xc.png,l,6.190940365893766,harmless,0.333,6.694915254,0.914523379,0.119060803
038,65,0,1,8,9,177,2238.5323341467883,2252.693495440297,stimuli/210_yb.png,l,14.149242339190096,ambig,0.333,5.557377049,1.76564049,0.226067099
038,65,0,1,8,10,178,2253.3196767314803,2270.6375910029747,stimuli/326_zb.png,a,17.30577830807306,awful,0.333,3.389830508,2.220724867,0.289113752
038,65,0,1,8,11,179,2271.1945897408295,2278.525475716451,stimuli/267_ya.png,l,7.319123378023505,ambig,0.333,5.103448276,1.898195405,0.249245267
038,65,0,1,8,12,180,2279.1139206755906,2286.0215634496417,stimuli/275_yb.png,l,6.896078674588352,ambig,0.333,4.836065574,2.138382004,0.27379176
038,65,0,1,8,13,181,2286.649396529887,2290.085478709778,stimuli/150_xc.png,l,3.42463820357807,harmless,0.333,6.482758621,1.030097582,0.135258439
038,65,0,1,8,14,182,2290.716927688103,2295.893483231077,stimuli/368_za.png,l,5.164779554586858,awful,0.333,3.590163934,2.02794682,0.259651984
038,65,0,1,8,15,183,2296.5318264795933,2304.141510752961,stimuli/176_xb.png,l,7.597955152625218,harmless,0.333,6.796610169,0.517942249,0.067430337
038,65,0,1,8,16,184,2304.7266674938146,2334.005457127001,stimuli/361_za.png,l,29.267336992081255,awful,0.333,2.416666667,1.907093508,0.246204713
038,65,0,1,8,17,185,2334.6106866111513,2339.0614143395796,stimuli/299_za.png,a,4.439080133801326,awful,0.333,1.288135593,0.929420425,0.121000233
038,65,0,1,8,18,186,2339.6723274118267,2346.861448604148,stimuli/279_ya.png,l,7.177481080638245,ambig,0.333,5.31147541,1.970964092,0.252356093
038,65,0,1,8,19,187,2347.434691510629,2357.7014830263797,stimuli/191_ya.png,l,10.25484696147032,ambig,0.333,5.517241379,2.062542966,0.270825159
038,65,0,1,8,20,188,2358.3048425307497,2374.349454622017,stimuli/294_za.png,a,16.032940078293905,awful,0.333,1.557377049,1.38473331,0.177296933
038,65,0,1,8,21,189,2374.9535143843386,2380.6854105743114,stimuli/139_xa.png,l,5.720284041482955,harmless,0.333,6.724137931,0.790138861,0.103750315
038,65,0,1,8,22,190,2381.2621768249664,2386.197469147155,stimuli/372_zb.png,a,4.923556505935267,awful,0.333,2.796610169,2.082601664,0.271131643
038,65,0,1,8,23,191,2386.8008574023843,2390.33332821331,stimuli/312_yb.png,a,3.520814157789573,ambig,0.333,4.677966102,2.112692986,0.275049199
038,65,0,1,8,24,192,2390.9471455044113,2406.5174058168195,stimuli/325_yb.png,a,15.558562305523083,ambig,0.333,5.131147541,1.811770863,0.231973488
038,65,0,1,9,1,193,2419.985517503461,2445.813365156064,stimuli/302_za.png,l,25.816001559607685,awful,0.333,3.137931034,2.188071937,0.287307921
038,65,0,1,9,2,194,2446.4026399482973,2453.101306977216,stimuli/250_yb.png,l,6.686946966685355,ambig,0.333,5.950819672,1.585625318,0.203018519
038,65,0,1,9,3,195,2453.709584039869,2460.3253004550934,stimuli/211_zb.png,l,6.604158223606646,awful,0.333,3.983333333,2.127237938,0.274625237
038,65,0,1,9,4,196,2460.8947344790213,2470.533318367321,stimuli/135_xa.png,l,9.62661452149041,harmless,0.333,6.508474576,1.179901828,0.153610134
038,65,0,1,9,5,197,2471.200490731979,2491.8933028497268,stimuli/226_yb.png,l,20.680602505337447,ambig,0.333,5.683333333,1.712285287,0.22105508
038,65,0,1,9,6,198,2492.494798675878,2498.277261905605,stimuli/122_xa.png,l,5.770761284278706,harmless,0.333,6.457627119,1.039264227,0.135300678
038,65,0,1,9,7,199,2498.906203267863,2506.1732559034135,stimuli/257_yb.png,l,7.255113595165312,ambig,0.333,5.620689655,1.843219782,0.242026615
038,65,0,1,9,8,200,2506.783857049886,2531.7172829369083,stimuli/229_za.png,a,24.92127141286619,awful,0.333,3.406779661,2.043649913,0.266060557
038,65,0,1,9,9,201,2532.3320478207897,2538.469258959638,stimuli/123_xc.png,l,6.125496984226629,harmless,0.333,6.491525424,1.023396666,0.133234897
038,65,0,1,9,10,202,2539.086738228565,2542.7412653870415,stimuli/195_xc.png,l,3.6430437974631786,harmless,0.333,6.637640449,1.001766915,0.05309354
038,65,0,1,9,11,203,2543.330219588708,2547.4611788198818,stimuli/247_ya.png,l,4.1192182949744165,ambig,0.333,4.65,2.081598147,0.268733165
038,65,0,1,9,12,204,2548.0838978127576,2554.621237739222,stimuli/309_ya.png,l,6.526043642079458,ambig,0.333,4.706896552,1.946734744,0.255618795
038,65,0,1,9,13,205,2555.228412427474,2560.3572181097697,stimuli/237_ya.png,l,5.117110432358459,ambig,0.333,4.305084746,2.019339575,0.26289562
038,65,0,1,9,14,206,2560.9944660731126,2584.853205018444,stimuli/358_za.png,l,23.84700785530731,awful,0.333,3.949152542,2.112554662,0.275031191
038,65,0,1,9,15,207,2585.4613812565804,2594.725146461511,stimuli/338_zb.png,l,9.251912810374051,awful,0.333,3.310344828,2.137443107,0.28066003
038,65,0,1,9,16,208,2595.3684001788497,2599.3251775752287,stimuli/161_xc.png,l,3.9451199555769563,harmless,0.333,6.796610169,0.609682252,0.079373868
038,65,0,1,9,17,209,2599.945403918391,2607.581150147831,stimuli/293_zb.png,a,7.623768985737115,awful,0.333,3.677966102,2.169066842,0.28238845
038,65,0,1,9,18,210,2608.1622479141224,2613.293149249861,stimuli/110_xa.png,l,5.119081236654893,harmless,0.333,6.428571429,1.059281795,0.141552484
038,65,0,1,9,19,211,2613.914427555166,2620.9331820965745,stimuli/316_za.png,a,7.007001789985225,awful,0.333,2.344827586,1.802062407,0.236622386
038,65,0,1,9,20,212,2621.553747147089,2628.893137040548,stimuli/347_zb.png,l,7.327415012987331,awful,0.333,3.796610169,2.147810923,0.279621165
038,65,0,1,9,21,213,2629.5129596919287,2634.709144114051,stimuli/202_yb.png,l,5.184335966128856,ambig,0.333,5.431034483,1.892849601,0.248543329
038,65,0,1,9,22,214,2635.325715568615,2640.277117758058,stimuli/254_ya.png,l,4.939874324016273,ambig,0.333,5.983606557,1.627798137,0.208418195
038,65,0,1,9,23,215,2640.845831831917,2644.157161395997,stimuli/179_xb.png,l,3.2994047021493316,harmless,0.333,6.704918033,0.882123617,0.112944356
038,65,0,1,9,24,216,2644.7689468367025,2649.3011439251713,stimuli/131_xb.png,l,4.520326183177531,harmless,0.333,6.525423729,1.119666394,0.145768149
038,65,0,1,10,1,217,2659.6126396921463,2666.6771437518764,stimuli/222_ya.png,l,7.052796994335949,ambig,0.333,5.931034483,1.543089507,0.202617579
038,65,0,1,10,2,218,2667.274126105476,2670.8370754588395,stimuli/106_xc.png,l,3.5509799865540117,harmless,0.333,6.661016949,0.863237081,0.112383896
038,65,0,1,10,3,219,2671.402263431577,2677.141100759618,stimuli/258_ya.png,l,5.726815973641351,ambig,0.333,5.627118644,1.78014243,0.231754804
038,65,0,1,10,4,220,2677.74428145797,2682.565083209891,stimuli/196_xb.png,l,4.809094292577356,harmless,0.333,6.594366197,0.982313556,0.05213579
038,65,0,1,10,5,221,2683.1538519100286,2689.2130752855446,stimuli/209_ya.png,l,6.047449356177822,ambig,0.333,5.603448276,1.825161903,0.239655499
038,65,0,1,10,6,222,2689.7918458173517,2696.8451351185795,stimuli/297_za.png,a,7.041675971122459,awful,0.333,1.898305085,1.446695584,0.188343723
038,65,0,1,10,7,223,2697.464524539653,2703.4290646361187,stimuli/243_ya.png,l,5.9525719112716615,ambig,0.333,5.830508475,1.652088985,0.215083666
038,65,0,1,10,8,224,2704.006789113395,2715.0930712684058,stimuli/249_ya.png,l,11.074309243820608,ambig,0.333,5.327868852,1.859402337,0.238072074
038,65,0,1,10,9,225,2715.713151101023,2722.4530537817627,stimuli/307_za.png,l,6.727645019069314,awful,0.333,2.93220339,2.172432347,0.282826601
038,65,0,1,10,10,226,2723.0843326186296,2741.6450335064437,stimuli/359_za.png,l,18.54866181057878,awful,0.333,2.01754386,1.641985167,0.217486248
038,65,0,1,10,11,227,2742.247788063716,2761.557006220799,stimuli/269_za.png,a,19.29705659369938,awful,0.333,3.457627119,2.119873401,0.27598401
038,65,0,1,10,12,228,2762.164985536132,2766.005023896694,stimuli/143_xb.png,l,3.8282588275615126,harmless,0.333,6.655172414,0.738697862,0.096995781
038,65,0,1,10,13,229,2766.6551454965957,2772.1410712210927,stimuli/104_xc.png,l,5.474171003792435,harmless,0.333,6.745762712,0.756425814,0.098478253
038,65,0,1,10,14,230,2772.758172004251,2778.05299352319,stimuli/251_ya.png,l,5.28314989968203,ambig,0.333,5.655172414,1.792300532,0.235340589
038,65,0,1,10,15,231,2778.6863250841852,2784.148946561152,stimuli/142_xa.png,l,5.450755691621453,harmless,0.333,6.4,1.076718178,0.139003719
038,65,0,1,10,16,232,2784.769189051818,2812.3250031014904,stimuli/116_xa.png,l,27.54400615976192,harmless,0.333,6.63559322,0.958030802,0.050918763
038,65,0,1,10,17,233,2812.944953358965,2820.892974776216,stimuli/353_zb.png,a,7.936638487037271,awful,0.333,1.949152542,1.623361018,0.211343603
038,65,0,1,10,18,234,2821.5017240599263,2830.3329725705553,stimuli/298_za.png,a,8.819530811393633,awful,0.333,2.881355932,2.026418156,0.263817173
038,65,0,1,10,19,235,2830.9074742081575,2836.0610921736807,stimuli/127_xb.png,l,5.141912081744522,harmless,0.333,6.423728814,1.162686987,0.151368953
038,65,0,1,10,20,236,2836.6619609976187,2851.6689076491166,stimuli/265_yb.png,l,14.994941051118076,ambig,0.333,5.627118644,1.856008928,0.241631781
038,65,0,1,10,21,237,2852.2610535768326,2856.804947490571,stimuli/194_xb.png,l,4.532492472557351,harmless,0.333,6.586206897,1.026567825,0.134794959
038,65,0,1,10,22,238,2857.374923052499,2866.332880016882,stimuli/288_yb.png,l,8.945597690530121,ambig,0.333,5.189655172,1.914459262,0.251380817
038,65,0,1,10,23,239,2866.9917036390398,2892.2049171645194,stimuli/306_zb.png,a,25.20134577108547,awful,0.333,2.352112676,1.917055413,0.101746737
038,65,0,1,10,24,240,2892.8276365513448,2914.5169115404133,stimuli/373_zb.png,l,21.677610459038988,awful,0.333,2.327586207,1.858011869,0.243968911
