id,age,condition,counterbalance,block,trialinblock,trial,tstart,tend,trialstim,response,RT,trialtype,ethicfreq,norm_mean,norm_sd,norm_se
154,22,0,1,0,0,practice,3.937631845474243e-06,5.3769469279795885,stimuli/prac_217_1.png,l,5.355298785492778,harmless,NA,NA,NA,NA
154,22,0,1,1,1,1,4.323034126311541,11.992861539125443,stimuli/118_xb.png,l,7.659113617613912,harmless,0.333,6.474576271,0.953323265,0.124112118
154,22,0,1,1,2,2,12.549701996147633,19.272848289459944,stimuli/108_xb.png,l,6.712253298610449,harmless,0.333,6.568965517,1.077880782,0.141532681
154,22,0,1,1,3,3,19.83273002691567,31.528887623921037,stimuli/266_zb.png,a,11.685684442520142,awful,0.333,3.491525424,1.888010094,0.245797978
154,22,0,1,1,4,4,32.08155134320259,39.48090968839824,stimuli/292_zb.png,a,7.388647701591253,awful,0.333,2.396551724,1.955107169,0.256718148
154,22,0,1,1,5,5,40.0355757214129,44.86487337946892,stimuli/249_ya.png,l,4.818491702899337,ambig,0.333,5.327868852,1.859402337,0.238072074
154,22,0,1,1,6,6,45.427905490621924,50.29684887640178,stimuli/337_zb.png,a,4.858356408774853,awful,0.333,3.033333333,2.20143764,0.284204377
154,22,0,1,1,7,7,50.84836610965431,57.512898655608296,stimuli/343_zb.png,a,6.6536671202629805,awful,0.333,3.103448276,2.141401862,0.28117984
154,22,0,1,1,8,8,58.06897505000234,65.58487402647734,stimuli/207_yb.png,a,7.505109168589115,ambig,0.333,5.655737705,1.662179753,0.212820309
154,22,0,1,1,9,9,66.14921961352229,72.73687340505421,stimuli/340_za.png,a,6.5767852161079645,awful,0.333,2.508474576,1.832398855,0.238558011
154,22,0,1,1,10,10,73.28793732076883,79.77686492912471,stimuli/261_yb.png,a,6.478327633813024,ambig,0.333,5.706896552,1.901141123,0.249632059
154,22,0,1,1,11,11,80.33667459152639,85.04884675890207,stimuli/243_ya.png,a,4.701517842710018,ambig,0.333,5.830508475,1.652088985,0.215083666
154,22,0,1,1,12,12,85.60382511094213,92.18484889902174,stimuli/259_xc.png,l,6.570240676403046,harmless,0.333,6.568965517,0.993170874,0.130409725
154,22,0,1,1,13,13,92.74515677616,99.36884315125644,stimuli/277_yb.png,l,6.612794563174248,ambig,0.333,5.491525424,2.02886822,0.264136144
154,22,0,1,1,14,14,99.9150970261544,106.08083493635058,stimuli/372_zb.png,a,6.154900843277574,awful,0.333,2.796610169,2.082601664,0.271131643
154,22,0,1,1,15,15,106.63394842855632,113.57687776908278,stimuli/177_xb.png,l,6.932085577398539,harmless,0.333,6.482758621,1.063614811,0.139659467
154,22,0,1,1,16,16,114.1346185579896,123.19287390634418,stimuli/263_ya.png,a,9.047392286360264,ambig,0.333,4.983050847,2.071910042,0.269739712
154,22,0,1,1,17,17,123.74843042343855,133.84884108789265,stimuli/175_xb.png,l,10.089709078893065,harmless,0.333,6.6,1.028409995,0.13276716
154,22,0,1,1,18,18,134.40371861495078,140.44883210770786,stimuli/329_zb.png,a,6.0343618877232075,awful,0.333,2.406779661,1.992387617,0.259386774
154,22,0,1,1,19,19,141.0866051763296,149.91283831745386,stimuli/125_xc.png,l,8.815734779462218,harmless,0.333,6.683333333,0.999858747,0.129081209
154,22,0,1,1,20,20,150.46670405566692,158.51286439038813,stimuli/324_za.png,a,8.035450084134936,awful,0.333,2.491525424,1.994586478,0.259673041
154,22,0,1,1,21,21,159.07818829081953,169.36080238968134,stimuli/163_xa.png,l,10.272517459467053,harmless,0.333,6.627118644,0.963082427,0.125382652
154,22,0,1,1,22,22,169.989007756114,174.91284737735987,stimuli/109_xb.png,l,4.913225470110774,harmless,0.333,6.644067797,0.97843492,0.127381377
154,22,0,1,1,23,23,175.47055862657726,182.06479437462986,stimuli/271_ya.png,l,6.583536526188254,ambig,0.333,5.711864407,1.771915459,0.230683744
154,22,0,1,1,24,24,182.6259261779487,188.4328313227743,stimuli/267_ya.png,a,5.796129517257214,ambig,0.333,5.103448276,1.898195405,0.249245267
154,22,0,1,2,1,25,197.66736390441656,207.12882823310792,stimuli/359_za.png,a,9.45078401081264,awful,0.333,2.01754386,1.641985167,0.217486248
154,22,0,1,2,2,26,207.6907461527735,216.4648293480277,stimuli/321_zb.png,a,8.763235492631793,awful,0.333,2.918032787,2.177881861,0.278849198
154,22,0,1,2,3,27,217.0674433838576,221.7048092149198,stimuli/154_xc.png,l,4.626556726172566,harmless,0.333,6.5,0.965506805,0.124646393
154,22,0,1,2,4,28,222.26844272762537,227.35283330827951,stimuli/351_zb.png,a,5.073577143251896,awful,0.333,3.06779661,2.033040926,0.264679384
154,22,0,1,2,5,29,227.91083718650043,233.28882111236453,stimuli/328_za.png,a,5.367026340216398,awful,0.333,2.706896552,1.955725922,0.256799395
154,22,0,1,2,6,30,233.84841258265078,241.48884174972773,stimuli/319_ya.png,a,7.629600368440151,ambig,0.333,4.216666667,2.108028774,0.272145344
154,22,0,1,2,7,31,242.09973127767444,247.2888108715415,stimuli/158_xa.png,l,5.178745860233903,harmless,0.333,6.786885246,0.661179605,0.084655374
154,22,0,1,2,8,32,247.84826607257128,251.8567774798721,stimuli/179_xb.png,l,3.99768497236073,harmless,0.333,6.704918033,0.882123617,0.112944356
154,22,0,1,2,9,33,252.41099098324776,259.0808034297079,stimuli/241_yb.png,a,6.6588973961770535,ambig,0.333,5.508474576,1.442852555,0.187843403
154,22,0,1,2,10,34,259.64286589063704,274.56081278808415,stimuli/101_xa.png,l,14.90715866535902,harmless,0.333,6.508522727,1.13475832,0.060482822
154,22,0,1,2,11,35,275.11699236929417,282.07283159159124,stimuli/307_za.png,a,6.944999396800995,awful,0.333,2.93220339,2.172432347,0.282826601
154,22,0,1,2,12,36,282.6338476035744,293.8407731503248,stimuli/335_yb.png,l,11.196073906496167,ambig,0.333,5.016949153,2.046793332,0.266469795
154,22,0,1,2,13,37,294.40000819042325,303.40891580842435,stimuli/116_xa.png,l,8.998052826151252,harmless,0.333,6.63559322,0.958030802,0.050918763
154,22,0,1,2,14,38,303.9623215328902,309.8808269035071,stimuli/257_yb.png,l,5.90766042470932,ambig,0.333,5.620689655,1.843219782,0.242026615
154,22,0,1,2,15,39,310.49578131735325,320.5447777379304,stimuli/117_xc.png,l,10.038283808156848,harmless,0.333,6.627118644,0.868972939,0.113130641
154,22,0,1,2,16,40,321.1052912026644,338.4568342715502,stimuli/250_yb.png,a,17.340675674378872,ambig,0.333,5.950819672,1.585625318,0.203018519
154,22,0,1,2,17,41,339.01331908628345,350.76079482771456,stimuli/302_za.png,a,11.736999435350299,awful,0.333,3.137931034,2.188071937,0.287307921
154,22,0,1,2,18,42,351.31000412255526,363.0247957613319,stimuli/300_za.png,a,11.70393330231309,awful,0.333,3.75,2.12032137,0.273732312
154,22,0,1,2,19,43,363.5845845490694,370.3127740416676,stimuli/184_xb.png,l,6.717430405318737,harmless,0.333,6.508474576,1.194425,0.15550089
154,22,0,1,2,20,44,370.85854151658714,379.8167674448341,stimuli/345_zb.png,a,8.947525130584836,awful,0.333,3.694915254,2.191317013,0.285285176
154,22,0,1,2,21,45,380.3742030020803,386.08879653550684,stimuli/264_xa.png,l,5.703948266804218,harmless,0.333,6.533333333,0.947193297,0.122282129
154,22,0,1,2,22,46,386.6426933873445,392.8087900932878,stimuli/220_yb.png,a,6.155388426035643,ambig,0.333,4.75,2.096203186,0.270618668
154,22,0,1,2,23,47,393.36099537461996,402.58477635122836,stimuli/217_yb.png,a,9.213081359863281,ambig,0.333,5.169491525,2.001314588,0.260548967
154,22,0,1,2,24,48,403.14344898052514,408.9608012866229,stimuli/253_ya.png,a,5.8066448122262955,ambig,0.333,5.491803279,1.849531029,0.236808182
154,22,0,1,3,1,49,418.36734850518405,425.5368114132434,stimuli/215_yb.png,a,7.158973604440689,ambig,0.333,5.866666667,1.466769385,0.189359113
154,22,0,1,3,2,50,426.1009809523821,431.4567751958966,stimuli/334_za.png,a,5.344953630119562,awful,0.333,3.333333333,2.214487481,0.285889104
154,22,0,1,3,3,51,432.00583837367594,438.2247746512294,stimuli/162_xa.png,l,6.208110237494111,harmless,0.333,6.644067797,0.905209289,0.117848212
154,22,0,1,3,4,52,438.7877681646496,444.4087775684893,stimuli/366_za.png,a,5.610418884083629,awful,0.333,3.689655172,2.036568291,0.267414518
154,22,0,1,3,5,53,444.95752566866577,450.912773726508,stimuli/273_ya.png,a,5.944340489804745,ambig,0.333,5.551724138,1.836973233,0.241206403
154,22,0,1,3,6,54,451.45795200765133,458.2807760182768,stimuli/316_za.png,a,6.811948738992214,awful,0.333,2.344827586,1.802062407,0.236622386
154,22,0,1,3,7,55,458.8340553175658,478.9767351169139,stimuli/235_ya.png,a,20.1321129091084,ambig,0.333,5.694915254,1.567495667,0.204070554
154,22,0,1,3,8,56,479.5389413330704,484.44877381809056,stimuli/285_yb.png,a,4.899127354845405,ambig,0.333,4.120689655,2.119893958,0.278355714
154,22,0,1,3,9,57,485.0068229883909,490.63273459486663,stimuli/103_xb.png,l,5.6152687035501,harmless,0.333,6.779661017,0.589207434,0.076708274
154,22,0,1,3,10,58,491.17818620428443,497.1047516334802,stimuli/113_xb.png,l,5.915887080132961,harmless,0.333,6.733333333,0.660422737,0.085260209
154,22,0,1,3,11,59,497.6648712530732,501.7447605673224,stimuli/202_yb.png,a,4.069088479503989,ambig,0.333,5.431034483,1.892849601,0.248543329
154,22,0,1,3,12,60,502.2921408396214,516.2648028023541,stimuli/308_zb.png,a,13.961812684312463,awful,0.333,1.644067797,1.471132708,0.191525165
154,22,0,1,3,13,61,516.8761373776942,523.8727825973183,stimuli/151_xa.png,l,6.9857979118824005,harmless,0.333,6.610169492,0.947172729,0.123311386
154,22,0,1,3,14,62,524.4320231508464,530.8567562121898,stimuli/140_xb.png,l,6.413923168554902,harmless,0.333,6.724137931,0.790138861,0.103750315
154,22,0,1,3,15,63,531.4722084477544,539.6887702271342,stimuli/124_xa.png,l,8.20595195889473,harmless,0.333,6.344262295,1.181598436,0.151288177
154,22,0,1,3,16,64,540.2462621051818,545.4247755948454,stimuli/262_ya.png,a,5.167611043900251,ambig,0.333,5.491525424,1.7750462,0.231091332
154,22,0,1,3,17,65,545.9804601147771,559.8807567991316,stimuli/209_ya.png,a,13.889440711587667,ambig,0.333,5.603448276,1.825161903,0.239655499
154,22,0,1,3,18,66,560.4350467082113,566.9287481233478,stimuli/251_ya.png,l,6.482880100607872,ambig,0.333,5.655172414,1.792300532,0.235340589
154,22,0,1,3,19,67,567.4830766301602,571.6967495474964,stimuli/368_za.png,a,4.202890198677778,awful,0.333,3.590163934,2.02794682,0.259651984
154,22,0,1,3,20,68,572.2491170950234,578.3447330761701,stimuli/338_zb.png,a,6.084786396473646,awful,0.333,3.310344828,2.137443107,0.28066003
154,22,0,1,3,21,69,578.9652450531721,593.7767349593341,stimuli/187_xc.png,l,14.800906475633383,harmless,0.333,6.224137931,1.185335891,0.155642228
154,22,0,1,3,22,70,594.3294223099947,600.1767384260893,stimuli/269_za.png,a,5.836643675342202,awful,0.333,3.457627119,2.119873401,0.27598401
154,22,0,1,3,23,71,600.7378950417042,604.1527736801654,stimuli/130_xc.png,l,3.4044807087630033,harmless,0.333,6.644067797,0.960651931,0.125066229
154,22,0,1,3,24,72,604.7046544328332,607.680716862902,stimuli/318_za.png,a,2.964629078283906,awful,0.333,3.06557377,2.197489875,0.281359747
154,22,0,1,4,1,73,616.7452485412359,620.040755584836,stimuli/346_zb.png,a,3.2849791441112757,awful,0.333,1.288135593,0.983499162,0.128040685
154,22,0,1,4,2,74,620.5956165716052,629.168776826933,stimuli/106_xc.png,l,8.562496872618794,harmless,0.333,6.661016949,0.863237081,0.112383896
154,22,0,1,4,3,75,629.7229241654277,636.1207433603704,stimuli/344_za.png,a,6.387210164219141,awful,0.333,2.711864407,2.043077863,0.265986082
154,22,0,1,4,4,76,636.6770233735442,643.2487342767417,stimuli/294_za.png,a,6.561013650149107,awful,0.333,1.557377049,1.38473331,0.177296933
154,22,0,1,4,5,77,643.8018938470632,649.9849763475358,stimuli/309_ya.png,a,6.172501036897302,ambig,0.333,4.706896552,1.946734744,0.255618795
154,22,0,1,4,6,78,650.5359418019652,659.9367487132549,stimuli/225_ya.png,l,9.390160070732236,ambig,0.333,5.85,1.792876677,0.231459384
154,22,0,1,4,7,79,660.4901339579374,664.0247252620757,stimuli/104_xc.png,l,3.5239436756819487,harmless,0.333,6.745762712,0.756425814,0.098478253
154,22,0,1,4,8,80,664.5841343831271,672.6487385295331,stimuli/141_xc.png,l,8.053981725126505,harmless,0.333,6.508474576,1.040107444,0.135410455
154,22,0,1,4,9,81,673.2100392933935,678.1127285920084,stimuli/317_za.png,a,4.891963688656688,awful,0.333,3.65,2.03215674,0.262350307
154,22,0,1,4,10,82,678.6643482260406,681.7846934087574,stimuli/115_xb.png,l,3.1096833758056164,harmless,0.333,6.440677966,1.021681954,0.133011661
154,22,0,1,4,11,83,682.3353355154395,689.0407390445471,stimuli/232_yb.png,a,6.694813402369618,ambig,0.333,5.483333333,1.845669845,0.238274952
154,22,0,1,4,12,84,689.5881307385862,699.3606964461505,stimuli/291_za.png,a,9.762074435129762,awful,0.333,2.593220339,1.830005126,0.238246374
154,22,0,1,4,13,85,699.9171091839671,704.0807297807187,stimuli/168_xa.png,l,4.152987539768219,harmless,0.333,6.474576271,1.164946827,0.151663159
154,22,0,1,4,14,86,704.6354344096035,716.408756300807,stimuli/350_ya.png,a,11.762653388082981,ambig,0.333,4.915254237,2.02814792,0.264042369
154,22,0,1,4,15,87,716.9651225656271,720.0167167969048,stimuli/360_za.png,a,3.0411305278539658,awful,0.333,3.2,2.207844259,0.285031468
154,22,0,1,4,16,88,720.5749546177685,724.808713292703,stimuli/270_yb.png,a,4.222973199561238,ambig,0.333,5.534482759,1.912246013,0.251090203
154,22,0,1,4,17,89,725.3681354094297,739.360767731443,stimuli/238_xb.png,a,13.982045739889145,harmless,0.333,6.4,1.076718178,0.139003719
154,22,0,1,4,18,90,739.9172253701836,745.424739362672,stimuli/283_yb.png,l,5.496887631714344,ambig,0.333,5.949152542,1.478859402,0.192531095
154,22,0,1,4,19,91,745.9820051714778,749.9446953460574,stimuli/314_zb.png,a,3.9520642068237066,awful,0.333,1.833333333,1.451669602,0.18740974
154,22,0,1,4,20,92,750.4976134896278,759.1366992462426,stimuli/173_yb.png,a,8.628449549898505,ambig,0.333,5.796610169,1.242628763,0.161776485
154,22,0,1,4,21,93,759.6853429786861,769.0487167891115,stimuli/213_ya.png,a,9.352742329239845,ambig,0.333,5.98245614,1.597891781,0.211645937
154,22,0,1,4,22,94,769.6117319650948,774.5926969908178,stimuli/110_xa.png,l,4.970460757613182,harmless,0.333,6.428571429,1.059281795,0.141552484
154,22,0,1,4,23,95,775.1409866549075,785.0567213166505,stimuli/181_xa.png,l,9.905202429741621,harmless,0.333,6.666666667,0.950765377,0.122743282
154,22,0,1,4,24,96,785.6126752272248,789.4406802821904,stimuli/306_zb.png,a,3.8167379070073366,awful,0.333,2.352112676,1.917055413,0.101746737
154,22,0,1,5,1,97,798.0283836983144,800.9767103046179,stimuli/320_za.png,a,2.937848724424839,awful,0.333,1.423728814,1.117314975,0.14546202
154,22,0,1,5,2,98,801.5331970881671,806.3847104217857,stimuli/333_za.png,a,4.8408641293644905,awful,0.333,3.266666667,2.185209657,0.282109354
154,22,0,1,5,3,99,806.9400810450315,813.1127128377557,stimuli/229_za.png,a,6.162022760137916,awful,0.333,3.406779661,2.043649913,0.266060557
154,22,0,1,5,4,100,813.7217611372471,817.2246958818287,stimuli/134_xc.png,l,3.4926577247679234,harmless,0.333,6.516666667,0.965360505,0.124627505
154,22,0,1,5,5,101,817.7842267006636,825.3607362229377,stimuli/239_ya.png,a,7.565844565629959,ambig,0.333,5.157894737,1.925296579,0.255011762
154,22,0,1,5,6,102,825.9093326944858,839.7607046365738,stimuli/288_yb.png,a,13.840657753869891,ambig,0.333,5.189655172,1.914459262,0.251380817
154,22,0,1,5,7,103,840.4066378027201,845.3367214594036,stimuli/146_xa.png,l,4.919631376862526,harmless,0.333,6.442622951,1.162247681,0.148810567
154,22,0,1,5,8,104,845.8960856813937,850.088690591976,stimuli/192_za.png,a,4.182251878082752,awful,0.333,2.68852459,2.093967396,0.268105052
154,22,0,1,5,9,105,850.649026826024,857.1046819239855,stimuli/245_yb.png,a,6.44558484852314,ambig,0.333,4.949152542,2.096168334,0.272897873
154,22,0,1,5,10,106,857.692380219698,869.3687096368521,stimuli/221_xb.png,l,11.665848385542631,harmless,0.333,6.440677966,1.133672495,0.147591588
154,22,0,1,5,11,107,869.9287055879831,877.5046952348202,stimuli/223_yb.png,a,7.565362103283405,ambig,0.333,5.542372881,1.77455224,0.231027024
154,22,0,1,5,12,108,878.0538505725563,881.1207000371069,stimuli/322_za.png,a,3.056292025372386,awful,0.333,2.406779661,1.975004531,0.257123689
154,22,0,1,5,13,109,881.681032333523,886.1926907673478,stimuli/139_xa.png,l,4.501299494877458,harmless,0.333,6.724137931,0.790138861,0.103750315
154,22,0,1,5,14,110,886.7449901793152,889.7126798350364,stimuli/107_xa.png,l,2.957264157012105,harmless,0.333,6.813559322,0.540580029,0.070377525
154,22,0,1,5,15,111,890.2583248224109,894.4729016162455,stimuli/237_ya.png,a,4.203895688056946,ambig,0.333,4.305084746,2.019339575,0.26289562
154,22,0,1,5,16,112,895.0241971146315,898.2166720554233,stimuli/230_yb.png,a,3.1818418838083744,ambig,0.333,4.98245614,1.875511626,0.248417583
154,22,0,1,5,17,113,898.7743998467922,899.9846845064312,stimuli/349_za.png,a,1.1997823603451252,awful,0.333,3.288135593,2.101320172,0.273568585
154,22,0,1,5,18,114,900.5416072774678,904.6406835895032,stimuli/303_zb.png,a,4.088240031152964,awful,0.333,3.620689655,2.158846233,0.283470398
154,22,0,1,5,19,115,905.1967032719404,907.5126513205469,stimuli/353_zb.png,a,2.3053236566483974,awful,0.333,1.949152542,1.623361018,0.211343603
154,22,0,1,5,20,116,908.0718371290714,914.3766988050193,stimuli/145_xa.png,l,6.29447752982378,harmless,0.333,6.661016949,0.822321556,0.107057148
154,22,0,1,5,21,117,914.9325432255864,919.8726916182786,stimuli/218_yb.png,a,4.929492494091392,ambig,0.333,5.850282486,1.552723069,0.0825263
154,22,0,1,5,22,118,920.4982865713537,925.752681992948,stimuli/204_xb.png,a,5.244191262871027,harmless,0.333,6.508474576,0.858484658,0.111765183
154,22,0,1,5,23,119,926.306866351515,930.2086631953716,stimuli/159_xa.png,l,3.8913059663027525,harmless,0.333,6.389830508,1.174689235,0.152931512
154,22,0,1,5,24,120,930.7639574110508,936.9367046020925,stimuli/198_yb.png,l,6.162358712404966,ambig,0.333,5.101694915,1.83542643,0.238952168
154,22,0,1,6,1,121,945.9591810051352,953.9926835205406,stimuli/311_za.png,a,8.022928535938263,awful,0.333,3.116666667,1.975199339,0.254997138
154,22,0,1,6,2,122,954.5468442477286,959.3686395324767,stimuli/370_za.png,a,4.811141353100538,awful,0.333,2.393442623,1.882185684,0.240989182
154,22,0,1,6,3,123,959.922981036827,963.8646776378155,stimuli/330_ya.png,a,3.931072996929288,ambig,0.333,4.796610169,2.049219036,0.266785595
154,22,0,1,6,4,124,964.4225157070905,974.0727012287825,stimuli/299_za.png,a,9.639848243445158,awful,0.333,1.288135593,0.929420425,0.121000233
154,22,0,1,6,5,125,974.6243838761002,979.1846421286464,stimuli/126_xa.png,l,4.549575570970774,harmless,0.333,6.6,0.977717855,0.126222832
154,22,0,1,6,6,126,979.7356237322092,982.7286699842662,stimuli/310_zb.png,a,2.982446674257517,awful,0.333,3.224137931,2.102989547,0.276136056
154,22,0,1,6,7,127,983.2811056673527,990.0646644048393,stimuli/102_xc.png,l,6.772806346416473,harmless,0.333,6.66011236,0.937292468,0.049676401
154,22,0,1,6,8,128,990.6272439863533,995.6487026903778,stimuli/286_ya.png,a,5.010793745517731,ambig,0.333,5.06779661,1.779814082,0.231712057
154,22,0,1,6,9,129,996.2037830483168,1001.4246672876179,stimuli/164_xb.png,l,5.210321681573987,harmless,0.333,6.830508475,0.460604639,0.059965616
154,22,0,1,6,10,130,1001.9722180962563,1004.9046612866223,stimuli/361_za.png,a,2.9220897629857063,awful,0.333,2.416666667,1.907093508,0.246204713
154,22,0,1,6,11,131,1005.4541344568133,1008.9126803856343,stimuli/148_xc.png,l,3.4479652531445026,harmless,0.333,6.491525424,1.135218061,0.147792803
154,22,0,1,6,12,132,1009.4708481039852,1012.0166455097497,stimuli/297_za.png,a,2.5352876242250204,awful,0.333,1.898305085,1.446695584,0.188343723
154,22,0,1,6,13,133,1012.5655405148864,1021.3287066910416,stimuli/210_yb.png,l,8.75248428247869,ambig,0.333,5.557377049,1.76564049,0.226067099
154,22,0,1,6,14,134,1021.8779707308859,1037.208673041314,stimuli/255_xb.png,l,15.320039320737123,harmless,0.333,6.770491803,0.642740036,0.082294429
154,22,0,1,6,15,135,1037.7553589642048,1042.176680136472,stimuli/289_yb.png,a,4.410933481529355,ambig,0.333,5.305084746,1.714584873,0.223219937
154,22,0,1,6,16,136,1042.723208522424,1048.1126502174884,stimuli/189_yb.png,l,5.37879485450685,ambig,0.333,5.983333333,1.455459234,0.187898979
154,22,0,1,6,17,137,1048.66166061908,1052.4966580178589,stimuli/371_zb.png,a,3.8242973871529102,awful,0.333,3.131147541,2.085468851,0.267016925
154,22,0,1,6,18,138,1053.0538982283324,1090.232708286494,stimuli/339_ya.png,a,37.16826916113496,ambig,0.333,4.949152542,1.960152429,0.25519011
154,22,0,1,6,19,139,1090.799964396283,1093.8326496817172,stimuli/128_xc.png,l,3.0219911839812994,harmless,0.333,6.627118644,0.98082135,0.127692063
154,22,0,1,6,20,140,1094.3847064841539,1100.2646464463323,stimuli/193_xc.png,l,5.869318721815944,harmless,0.333,6.482758621,1.012923151,0.133003326
154,22,0,1,6,21,141,1100.8219740893692,1106.056649243459,stimuli/258_ya.png,a,5.224247291684151,ambig,0.333,5.627118644,1.78014243,0.231754804
154,22,0,1,6,22,142,1106.6027971729636,1115.936670338735,stimuli/180_xc.png,a,9.323288945481181,harmless,0.333,6.672131148,0.723908638,0.092687003
154,22,0,1,6,23,143,1116.4954784493893,1121.528683219105,stimuli/265_yb.png,a,5.02256147377193,ambig,0.333,5.627118644,1.856008928,0.241631781
154,22,0,1,6,24,144,1122.074323873967,1129.5046684537083,stimuli/256_zb.png,a,7.419696556404233,awful,0.333,3.051724138,2.012438634,0.264246138
154,22,0,1,7,1,145,1139.4909011702985,1143.4406082071364,stimuli/315_yb.png,a,3.939202768728137,ambig,0.333,5.050847458,1.915667965,0.249398726
154,22,0,1,7,2,146,1144.0434069577605,1151.1766584757715,stimuli/194_xb.png,l,7.12297410517931,harmless,0.333,6.586206897,1.026567825,0.134794959
154,22,0,1,7,3,147,1151.7335154730827,1156.8406026158482,stimuli/214_xb.png,l,5.096579723060131,harmless,0.333,6.465517241,0.940614156,0.12350869
154,22,0,1,7,4,148,1157.3893633186817,1165.2967389933765,stimuli/362_zb.png,a,7.89681863039732,awful,0.333,1.474576271,1.222715071,0.159183944
154,22,0,1,7,5,149,1165.8454902451485,1173.216601556167,stimuli/282_xc.png,l,7.360663361847401,harmless,0.333,6.55,0.998728005,0.128935231
154,22,0,1,7,6,150,1173.7640921082348,1177.2086021490395,stimuli/298_za.png,a,3.4338155444711447,awful,0.333,2.881355932,2.026418156,0.263817173
154,22,0,1,7,7,151,1177.765909312293,1180.520619219169,stimuli/363_zb.png,a,2.7440981175750494,awful,0.333,2.433333333,2.019956927,0.260775318
154,22,0,1,7,8,152,1181.0818549990654,1184.152614960447,stimuli/234_xb.png,a,3.059960702434182,harmless,0.333,6.637931034,0.788030542,0.103473479
154,22,0,1,7,9,153,1184.7077784202993,1187.7126077599823,stimuli/183_xb.png,a,2.9943223148584366,harmless,0.333,6.448275862,1.095003225,0.143780967
154,22,0,1,7,10,154,1188.2667038980871,1190.936636466533,stimuli/312_yb.png,a,2.6593010872602463,ambig,0.333,4.677966102,2.112692986,0.275049199
154,22,0,1,7,11,155,1191.485451521352,1193.6966081578285,stimuli/356_za.png,a,2.2005672957748175,awful,0.333,3.033333333,2.178217796,0.281206708
154,22,0,1,7,12,156,1194.2515416108072,1197.2886076476425,stimuli/287_ya.png,a,3.026458580046892,ambig,0.333,5.950819672,1.407435369,0.180203633
154,22,0,1,7,13,157,1197.8479210622609,1202.2166342455894,stimuli/211_zb.png,a,4.358067916706204,awful,0.333,3.983333333,2.127237938,0.274625237
154,22,0,1,7,14,158,1202.8154291547835,1210.93664473854,stimuli/197_xa.png,l,8.110803473740816,harmless,0.333,6.779661017,0.55918033,0.072799078
154,22,0,1,7,15,159,1211.4877953007817,1214.7446420192719,stimuli/355_zb.png,a,3.2463227584958076,awful,0.333,3.183333333,2.070713188,0.267327923
154,22,0,1,7,16,160,1215.2996353376657,1218.3526332341135,stimuli/144_xa.png,l,3.042378231883049,harmless,0.333,6.542372881,1.00553698,0.130909764
154,22,0,1,7,17,161,1218.9103440903127,1226.808639248833,stimuli/281_ya.png,l,7.887588452547789,ambig,0.333,5.881355932,1.543448286,0.200939852
154,22,0,1,7,18,162,1227.36298744753,1230.6646329760551,stimuli/275_yb.png,a,3.2910160161554813,ambig,0.333,4.836065574,2.138382004,0.27379176
154,22,0,1,7,19,163,1231.2231661826372,1238.3286263477057,stimuli/313_zb.png,a,7.094884216785431,awful,0.333,2.101694915,1.688652955,0.219843889
154,22,0,1,7,20,164,1238.8798509519547,1240.712633755058,stimuli/147_ya.png,a,1.8221784979104996,ambig,0.333,5.883333333,1.766847875,0.22809908
154,22,0,1,7,21,165,1241.2768320441246,1253.9206175655127,stimuli/182_xb.png,l,12.633090239018202,harmless,0.333,6.542372881,0.988241802,0.128658124
154,22,0,1,7,22,166,1254.4751969520003,1257.008624047041,stimuli/201_yb.png,a,2.5227672569453716,ambig,0.333,5.898305085,1.626238682,0.211718243
154,22,0,1,7,23,167,1257.5714832600206,1261.6486058030277,stimuli/336_ya.png,a,4.066840797662735,ambig,0.333,5.033898305,1.884291705,0.245313885
154,22,0,1,7,24,168,1262.2109447456896,1282.6246193964034,stimuli/290_zb.png,a,20.403154235333204,awful,0.333,2.586206897,2.026443456,0.266085062
154,22,0,1,8,1,169,1292.6483568940312,1297.3845883291215,stimuli/331_za.png,a,4.725713776424527,awful,0.333,1.983606557,1.638004917,0.209725039
154,22,0,1,8,2,170,1297.932652713731,1304.7526193708181,stimuli/296_yb.png,a,6.80933478102088,ambig,0.333,4.229508197,2.052587332,0.262806878
154,22,0,1,8,3,171,1305.3062153235078,1310.7046115044504,stimuli/246_ya.png,a,5.387973044067621,ambig,0.333,5.542372881,1.715266481,0.223308675
154,22,0,1,8,4,172,1311.2622124776244,1314.9365895986557,stimuli/373_zb.png,a,3.663963831961155,awful,0.333,2.327586207,1.858011869,0.243968911
154,22,0,1,8,5,173,1315.4953555688262,1319.67261229828,stimuli/191_ya.png,a,4.166558688506484,ambig,0.333,5.517241379,2.062542966,0.270825159
154,22,0,1,8,6,174,1320.231940286234,1323.776622319594,stimuli/227_xa.png,a,3.5340501591563225,harmless,0.333,6.180327869,1.05685377,0.135316259
154,22,0,1,8,7,175,1324.3238100036979,1328.448741523549,stimuli/212_ya.png,a,4.1142953131347895,ambig,0.333,5.677966102,1.490668422,0.194068498
154,22,0,1,8,8,176,1329.0468511413783,1351.3206064589322,stimuli/170_xc.png,l,22.26320300064981,harmless,0.333,6.583333333,1.062323432,0.137145365
154,22,0,1,8,9,177,1351.8717318158597,1360.4805788584054,stimuli/326_zb.png,a,8.598340805619955,awful,0.333,3.389830508,2.220724867,0.289113752
154,22,0,1,8,10,178,1361.03181803599,1366.7365870792419,stimuli/119_xc.png,l,5.694092269986868,harmless,0.333,6.694915254,0.914523379,0.119060803
154,22,0,1,8,11,179,1367.2968142181635,1370.5525932200253,stimuli/304_ya.png,a,3.245169971138239,ambig,0.333,4.034482759,2.017167697,0.264867095
154,22,0,1,8,12,180,1371.1099047157913,1373.6325865089893,stimuli/228_ya.png,a,2.511977843940258,ambig,0.333,5.442622951,1.793735303,0.229664272
154,22,0,1,8,13,181,1374.1888543125242,1379.9525935351849,stimuli/169_xc.png,l,5.753301907330751,harmless,0.333,6.603448276,0.916508538,0.120343467
154,22,0,1,8,14,182,1380.516242409125,1386.9205785747617,stimuli/357_za.png,a,6.393724771216512,awful,0.333,2.793103448,2.066937905,0.271402243
154,22,0,1,8,15,183,1387.4698973596096,1391.3205997645855,stimuli/364_za.png,a,3.8399756141006947,awful,0.333,1.677966102,1.279017376,0.166513879
154,22,0,1,8,16,184,1391.8766198381782,1398.8405801653862,stimuli/278_xb.png,l,6.953280795365572,harmless,0.333,6.360655738,1.140654591,0.146045855
154,22,0,1,8,17,185,1399.3901927601546,1403.5045656599104,stimuli/199_za.png,a,4.103576792404056,awful,0.333,3.033898305,2.189048775,0.284989876
154,22,0,1,8,18,186,1404.0641823373735,1409.824584895745,stimuli/121_xc.png,l,5.749702153727412,harmless,0.333,6.508474576,1.006408455,0.131023221
154,22,0,1,8,19,187,1410.3781142886728,1414.0646065101027,stimuli/354_zb.png,a,3.675754401832819,awful,0.333,2,1.701925887,0.221571878
154,22,0,1,8,20,188,1414.612715791911,1418.5445997193456,stimuli/325_yb.png,a,3.921204002574086,ambig,0.333,5.131147541,1.811770863,0.231973488
154,22,0,1,8,21,189,1419.170843731612,1422.6646495182067,stimuli/120_xa.png,l,3.4833389334380627,harmless,0.333,6.440677966,1.054893138,0.137335389
154,22,0,1,8,22,190,1423.223408792168,1427.2646062728018,stimuli/352_zb.png,a,4.030550245195627,awful,0.333,2.93442623,2.135952968,0.273480754
154,22,0,1,8,23,191,1427.8181132171303,1431.7765730898827,stimuli/236_yb.png,a,3.947866201400757,ambig,0.333,5.93442623,1.49297078,0.19115532
154,22,0,1,8,24,192,1432.426454167813,1453.5525983404368,stimuli/152_xa.png,l,21.115381935611367,harmless,0.333,6.576271186,0.968528743,0.126091702
154,22,0,1,9,1,193,1462.5630254149437,1466.0085657574236,stimuli/186_xa.png,l,3.4349037427455187,harmless,0.333,6.65,0.879618561,0.113558268
154,22,0,1,9,2,194,1466.5695605017245,1472.2886041030288,stimuli/224_yb.png,a,5.708431417122483,ambig,0.333,5.881355932,1.609077116,0.209483997
154,22,0,1,9,3,195,1472.835401877761,1474.4485564157367,stimuli/295_za.png,a,1.6025234498083591,awful,0.333,2.3,1.825432384,0.235662307
154,22,0,1,9,4,196,1475.0071695726365,1477.0965482145548,stimuli/341_zb.png,a,2.078757794573903,awful,0.333,3.603448276,2.15975677,0.283589957
154,22,0,1,9,5,197,1477.6481930539012,1484.3685410711914,stimuli/274_xb.png,l,6.709763403981924,harmless,0.333,6.491525424,1.179901828,0.153610134
154,22,0,1,9,6,198,1484.91547078453,1491.09654545784,stimuli/132_xc.png,l,6.1704707611352205,harmless,0.333,6.627118644,0.692280217,0.090127208
154,22,0,1,9,7,199,1491.6522587258369,1494.7765392195433,stimuli/301_za.png,a,3.1136320773512125,awful,0.333,3.610169492,2.212947396,0.288101212
154,22,0,1,9,8,200,1495.3396351318806,1506.3205777090043,stimuli/233_yb.png,a,10.970516683533788,ambig,0.333,5.318309859,1.922973646,0.102060844
154,22,0,1,9,9,201,1506.8710524309427,1512.3845607601106,stimuli/268_zb.png,a,5.502949709072709,awful,0.333,2.655737705,2.048456703,0.262278005
154,22,0,1,9,10,202,1512.9328941423446,1515.280573187396,stimuli/348_za.png,a,2.337029054760933,awful,0.333,3.084745763,2.119597681,0.275948114
154,22,0,1,9,11,203,1515.8363620750606,1518.728584913537,stimuli/161_xc.png,l,2.881629955023527,harmless,0.333,6.796610169,0.609682252,0.079373868
154,22,0,1,9,12,204,1519.2927946243435,1528.7685693502426,stimuli/327_zb.png,a,9.465062111616135,awful,0.333,2.502808989,1.906990248,0.101070281
154,22,0,1,9,13,205,1529.3715795930475,1559.5525581669062,stimuli/280_xb.png,a,30.170659018680453,harmless,0.333,6.333333333,1.068289726,0.137915611
154,22,0,1,9,14,206,1560.1064605321735,1564.0485387705266,stimuli/174_xc.png,l,3.9316684920340776,harmless,0.333,6.533333333,1.111826512,0.143536185
154,22,0,1,9,15,207,1564.611893441528,1567.904552584514,stimuli/276_ya.png,a,3.281656265258789,ambig,0.333,5.186440678,1.804922162,0.234980851
154,22,0,1,9,16,208,1568.4539064206183,1572.3205127231777,stimuli/188_xa.png,a,3.8558905385434628,harmless,0.333,6.655172414,0.806807095,0.105938962
154,22,0,1,9,17,209,1572.8755024969578,1575.488562906161,stimuli/342_yb.png,a,2.6023970264941454,ambig,0.333,4.916666667,2.085394461,0.269223267
154,22,0,1,9,18,210,1576.0468976143748,1577.464697016403,stimuli/205_yb.png,a,1.407158074900508,ambig,0.333,5.847457627,1.52918233,0.199082582
154,22,0,1,9,19,211,1578.015670740977,1579.4965351391584,stimuli/247_ya.png,a,1.4701612368226051,ambig,0.333,4.65,2.081598147,0.268733165
154,22,0,1,9,20,212,1580.0473564453423,1583.872573070228,stimuli/254_ya.png,a,3.814578842371702,ambig,0.333,5.983606557,1.627798137,0.208418195
154,22,0,1,9,21,213,1584.422171484679,1589.1205165050924,stimuli/176_xb.png,l,4.687884468585253,harmless,0.333,6.796610169,0.517942249,0.067430337
154,22,0,1,9,22,214,1589.6735571343452,1593.1605631671846,stimuli/358_za.png,a,3.4764127545058727,awful,0.333,3.949152542,2.112554662,0.275031191
154,22,0,1,9,23,215,1593.721498047933,1597.480545381084,stimuli/369_za.png,a,3.748511951416731,awful,0.333,2.948275862,2.055565093,0.26990892
154,22,0,1,9,24,216,1598.032208731398,1619.8085900191218,stimuli/226_yb.png,a,21.765838028863072,ambig,0.333,5.683333333,1.712285287,0.22105508
154,22,0,1,10,1,217,1631.3105905596167,1637.5125300157815,stimuli/131_xb.png,l,6.1914466097950935,harmless,0.333,6.525423729,1.119666394,0.145768149
154,22,0,1,10,2,218,1638.066951468587,1646.3525446187705,stimuli/248_zb.png,a,8.274969151243567,awful,0.333,3.288135593,1.991800844,0.259310383
154,22,0,1,10,3,219,1646.9791104029864,1653.9605047218502,stimuli/167_xb.png,l,6.97084042429924,harmless,0.333,6.590163934,0.955284411,0.122311635
154,22,0,1,10,4,220,1654.5057743731886,1659.232536174357,stimuli/323_yb.png,a,4.7163118831813335,ambig,0.333,4.603448276,1.955107169,0.256718148
154,22,0,1,10,5,221,1659.788293555379,1680.0645068660378,stimuli/279_ya.png,a,20.265712587162852,ambig,0.333,5.31147541,1.970964092,0.252356093
154,22,0,1,10,6,222,1680.615903582424,1688.800506722182,stimuli/156_xc.png,l,8.173970870673656,harmless,0.333,6.590163934,0.955284411,0.122311635
154,22,0,1,10,7,223,1689.3525694310665,1692.2485082093626,stimuli/165_xb.png,l,2.8853498324751854,harmless,0.333,6.557377049,1.008705278,0.129151477
154,22,0,1,10,8,224,1692.8055412564427,1695.0645238012075,stimuli/136_xc.png,l,2.248470399528742,harmless,0.333,6.559322034,1.038420326,0.135190811
154,22,0,1,10,9,225,1695.6179637908936,1699.896512215957,stimuli/222_ya.png,a,4.2678850423544645,ambig,0.333,5.931034483,1.543089507,0.202617579
154,22,0,1,10,10,226,1700.5101003795862,1704.3525438308716,stimuli/242_xb.png,l,3.8319269735366106,harmless,0.333,6.576271186,0.913564256,0.118935936
154,22,0,1,10,11,227,1704.9018787629902,1711.0164978168905,stimuli/219_ya.png,a,6.103944644331932,ambig,0.333,5.271186441,1.998538332,0.260187529
154,22,0,1,10,12,228,1711.5738959610462,1719.9925338588655,stimuli/200_ya.png,a,8.407980423420668,ambig,0.333,5.862068966,1.444266048,0.189641423
154,22,0,1,10,13,229,1720.5425532963127,1722.9365013781935,stimuli/332_zb.png,a,2.383305573835969,awful,0.333,2.694915254,2.002190501,0.260663001
154,22,0,1,10,14,230,1723.4811585992575,1728.0645261649042,stimuli/367_zb.png,a,4.5727427788078785,awful,0.333,3.413793103,2.086165649,0.27392697
154,22,0,1,10,15,231,1728.6218313593417,1735.7125132381916,stimuli/284_ya.png,a,7.080231960862875,ambig,0.333,5.948275862,1.431750417,0.18799804
154,22,0,1,10,16,232,1736.2614196650684,1742.0085649695247,stimuli/260_ya.png,a,5.736446475610137,ambig,0.333,4.966101695,2.016877936,0.262575142
154,22,0,1,10,17,233,1742.5593665838242,1762.8325307406485,stimuli/196_xb.png,l,20.26250195503235,harmless,0.333,6.594366197,0.982313556,0.05213579
154,22,0,1,10,18,234,1763.3890265803784,1767.120520049706,stimuli/347_zb.png,a,3.721044337376952,awful,0.333,3.796610169,2.147810923,0.279621165
154,22,0,1,10,19,235,1767.6708470787853,1772.6804998535663,stimuli/305_zb.png,a,4.9988452438265085,awful,0.333,2.75,2.12830003,0.274762352
154,22,0,1,10,20,236,1773.2343844939023,1780.2964944150299,stimuli/293_zb.png,a,7.051472531631589,awful,0.333,3.677966102,2.169066842,0.28238845
154,22,0,1,10,21,237,1780.845987278968,1789.3845253139734,stimuli/365_zb.png,a,8.52786717005074,awful,0.333,2.966101695,2.165291266,0.281896912
154,22,0,1,10,22,238,1789.9380814880133,1795.3525044471025,stimuli/195_xc.png,l,5.40387300401926,harmless,0.333,6.637640449,1.001766915,0.05309354
154,22,0,1,10,23,239,1795.9086730014533,1800.16852004081,stimuli/252_zb.png,a,4.249208074063063,awful,0.333,2.711864407,1.983125776,0.258180985
154,22,0,1,10,24,240,1800.7239079922438,1809.2965121380985,stimuli/203_yb.png,l,8.561995901167393,ambig,0.333,6,1.542501327,0.200816568
