id,age,condition,counterbalance,block,trialinblock,trial,tstart,tend,trialstim,response,RT,trialtype,ethicfreq,norm_mean,norm_sd,norm_se
164,19,1,2,0,0,practice,5.600042641162872e-06,7.551985000260174,stimuli/prac_217_1.png,l,7.5389604000374675,harmless,NA,NA,NA,NA
164,19,1,2,1,1,1,4.296658900100738,9.8800209001638,stimuli/162_xa.png,l,5.572178400121629,harmless,0.333,6.644067797,0.905209289,0.117848212
164,19,1,2,1,2,2,10.480082199908793,16.799969700165093,stimuli/140_xb.png,l,6.308417499996722,harmless,0.333,6.724137931,0.790138861,0.103750315
164,19,1,2,1,3,3,17.39789849985391,24.279940799809992,stimuli/108_xb.png,l,6.869837400037795,harmless,0.333,6.568965517,1.077880782,0.141532681
164,19,1,2,1,4,4,24.86976769985631,49.42390289995819,stimuli/319_ya.png,l,24.542433599941432,ambig,0.333,4.216666667,2.108028774,0.272145344
164,19,1,2,1,5,5,50.04176399996504,59.3999552000314,stimuli/284_ya.png,l,9.34678060002625,ambig,0.333,5.948275862,1.431750417,0.18799804
164,19,1,2,1,6,6,60.0096089001745,70.38393640005961,stimuli/321_zb.png,a,10.362866099923849,awful,0.333,2.918032787,2.177881861,0.278849198
164,19,1,2,1,7,7,70.98789020022377,80.90388699993491,stimuli/302_za.png,l,9.904515499714762,awful,0.333,3.137931034,2.188071937,0.287307921
164,19,1,2,1,8,8,81.52183020021766,86.999876299873,stimuli/213_ya.png,l,5.466500999871641,ambig,0.333,5.98245614,1.597891781,0.211645937
164,19,1,2,1,9,9,87.61018940014765,96.12792879994959,stimuli/279_ya.png,l,8.505974600091577,ambig,0.333,5.31147541,1.970964092,0.252356093
164,19,1,2,1,10,10,96.7469127997756,119.7918703998439,stimuli/293_zb.png,l,23.033384500071406,awful,0.333,3.677966102,2.169066842,0.28238845
164,19,1,2,1,11,11,120.4171357001178,129.98385210009292,stimuli/341_zb.png,l,9.555008800234646,awful,0.333,3.603448276,2.15975677,0.283589957
164,19,1,2,1,12,12,130.59734669979662,138.29583289986476,stimuli/278_xb.png,l,7.6874512997455895,harmless,0.333,6.360655738,1.140654591,0.146045855
164,19,1,2,1,13,13,138.90149550000206,144.16780090006068,stimuli/337_zb.png,a,5.2546518999151886,awful,0.333,3.033333333,2.20143764,0.284204377
164,19,1,2,1,14,14,144.76980349980295,153.41588000021875,stimuli/203_yb.png,l,8.634266800247133,ambig,0.333,6,1.542501327,0.200816568
164,19,1,2,1,15,15,154.0330109000206,168.35983269987628,stimuli/300_za.png,a,14.315230299718678,awful,0.333,3.75,2.12032137,0.273732312
164,19,1,2,1,16,16,169.0067485999316,178.67983260005713,stimuli/165_xb.png,l,9.66103779990226,harmless,0.333,6.557377049,1.008705278,0.129151477
164,19,1,2,1,17,17,179.28725990001112,183.38384129991755,stimuli/156_xc.png,l,4.084990100003779,harmless,0.333,6.590163934,0.955284411,0.122311635
164,19,1,2,1,18,18,184.0007370999083,197.0157932001166,stimuli/323_yb.png,a,13.003605300094932,ambig,0.333,4.603448276,1.955107169,0.256718148
164,19,1,2,1,19,19,197.6274140002206,202.31979960016906,stimuli/249_ya.png,l,4.6809038002975285,ambig,0.333,5.327868852,1.859402337,0.238072074
164,19,1,2,1,20,20,202.92260739998892,235.92782740015537,stimuli/317_za.png,a,32.99406020017341,awful,0.333,3.65,2.03215674,0.262350307
164,19,1,2,1,21,21,236.55913869990036,251.09575879992917,stimuli/253_ya.png,l,14.52501909993589,ambig,0.333,5.491803279,1.849531029,0.236808182
164,19,1,2,1,22,22,251.72786480002105,255.84775339998305,stimuli/109_xb.png,l,4.108028799761087,harmless,0.333,6.644067797,0.97843492,0.127381377
164,19,1,2,1,23,23,256.43206560006365,270.40781020000577,stimuli/365_zb.png,a,13.962956300005317,awful,0.333,2.966101695,2.165291266,0.281896912
164,19,1,2,1,24,24,271.04548959992826,277.9437561999075,stimuli/170_xc.png,l,6.8865044000558555,harmless,0.333,6.583333333,1.062323432,0.137145365
164,19,1,2,2,1,25,286.9466284001246,295.743762999773,stimuli/217_yb.png,a,8.784899999853224,ambig,0.333,5.169491525,2.001314588,0.260548967
164,19,1,2,2,2,26,296.35656830016524,306.1357308002189,stimuli/268_zb.png,a,9.767673900350928,awful,0.333,2.655737705,2.048456703,0.262278005
164,19,1,2,2,3,27,306.7669855998829,342.5357312997803,stimuli/320_za.png,l,35.75682779960334,awful,0.333,1.423728814,1.117314975,0.14546202
164,19,1,2,2,4,28,343.3834664998576,363.72776990011334,stimuli/282_xc.png,l,20.33279399992898,harmless,0.333,6.55,0.998728005,0.128935231
164,19,1,2,2,5,29,364.3351161000319,370.3996615000069,stimuli/356_za.png,a,6.053101200144738,awful,0.333,3.033333333,2.178217796,0.281206708
164,19,1,2,2,6,30,371.01822349987924,378.85569209977984,stimuli/251_ya.png,l,7.826287199743092,ambig,0.333,5.655172414,1.792300532,0.235340589
164,19,1,2,2,7,31,379.4585803002119,411.17570429993793,stimuli/371_zb.png,a,31.705558800138533,awful,0.333,3.131147541,2.085468851,0.267016925
164,19,1,2,2,8,32,411.805021900218,425.3516898001544,stimuli/309_ya.png,a,13.534719900228083,ambig,0.333,4.706896552,1.946734744,0.255618795
164,19,1,2,2,9,33,425.97114589996636,432.31165429996327,stimuli/196_xb.png,l,6.328996399883181,harmless,0.333,6.594366197,0.982313556,0.05213579
164,19,1,2,2,10,34,432.91276839980856,465.7116509000771,stimuli/192_za.png,l,32.787406200077385,awful,0.333,2.68852459,2.093967396,0.268105052
164,19,1,2,2,11,35,466.32781110005453,470.49559460021555,stimuli/153_xb.png,l,4.156291400082409,harmless,0.333,6.633333333,0.973664521,0.125699549
164,19,1,2,2,12,36,471.1423591999337,480.24759500008076,stimuli/326_zb.png,a,9.093915999867022,awful,0.333,3.389830508,2.220724867,0.289113752
164,19,1,2,2,13,37,480.8631556001492,488.0476767998189,stimuli/280_xb.png,l,7.172795299906284,harmless,0.333,6.333333333,1.068289726,0.137915611
164,19,1,2,2,14,38,488.6513772998005,515.695671599824,stimuli/220_yb.png,a,27.032728399615735,ambig,0.333,4.75,2.096203186,0.270618668
164,19,1,2,2,15,39,516.300759700127,520.3995603998192,stimuli/190_xc.png,l,4.087155799847096,harmless,0.333,6.517241379,1.046990328,0.137476565
164,19,1,2,2,16,40,521.0092620998621,525.895533700008,stimuli/183_xb.png,l,4.8747344999574125,harmless,0.333,6.448275862,1.095003225,0.143780967
164,19,1,2,2,17,41,526.5092314998619,539.0315362000838,stimuli/296_yb.png,l,12.51057399995625,ambig,0.333,4.229508197,2.052587332,0.262806878
164,19,1,2,2,18,42,539.6543259001337,550.1916192001663,stimuli/283_yb.png,l,10.525687100365758,ambig,0.333,5.949152542,1.478859402,0.192531095
164,19,1,2,2,19,43,550.8085881001316,556.4635163000785,stimuli/237_ya.png,a,5.643357899971306,ambig,0.333,4.305084746,2.019339575,0.26289562
164,19,1,2,2,20,44,557.0754169002175,566.023514200002,stimuli/359_za.png,a,8.936904300004244,awful,0.333,2.01754386,1.641985167,0.217486248
164,19,1,2,2,21,45,566.6265409998596,582.0795219000429,stimuli/218_yb.png,l,15.441135799977928,ambig,0.333,5.850282486,1.552723069,0.0825263
164,19,1,2,2,22,46,582.6914440002292,585.7515414999798,stimuli/112_xc.png,l,3.0486242999322712,harmless,0.333,6.706896552,0.749470472,0.098410294
164,19,1,2,2,23,47,586.3780600000173,594.1836223001592,stimuli/314_zb.png,a,7.793828000314534,awful,0.333,1.833333333,1.451669602,0.18740974
164,19,1,2,2,24,48,594.7446742001921,598.3674785997719,stimuli/106_xc.png,l,3.611080799717456,harmless,0.333,6.661016949,0.863237081,0.112383896
164,19,1,2,3,1,49,765.4089704998769,771.3753744000569,stimuli/223_yb.png,l,5.950834000017494,ambig,0.333,5.542372881,1.77455224,0.231027024
164,19,1,2,3,2,50,771.9806114002131,776.9354150001891,stimuli/275_yb.png,l,4.943103200290352,ambig,0.333,4.836065574,2.138382004,0.27379176
164,19,1,2,3,3,51,777.5636595999822,784.2153687002137,stimuli/285_yb.png,a,6.639982100110501,ambig,0.333,4.120689655,2.119893958,0.278355714
164,19,1,2,3,4,52,784.814834699966,789.2713850000873,stimuli/164_xb.png,l,4.444714399985969,harmless,0.333,6.830508475,0.460604639,0.059965616
164,19,1,2,3,5,53,789.8984928000718,795.7353221001104,stimuli/349_za.png,a,5.824931500013918,awful,0.333,3.288135593,2.101320172,0.273568585
164,19,1,2,3,6,54,796.3521750001237,800.3993878001347,stimuli/259_xc.png,l,4.035701800137758,harmless,0.333,6.568965517,0.993170874,0.130409725
164,19,1,2,3,7,55,801.0302571998909,813.1833488000557,stimuli/351_zb.png,l,12.14147310005501,awful,0.333,3.06779661,2.033040926,0.264679384
164,19,1,2,3,8,56,813.8305795001797,819.1273981002159,stimuli/245_yb.png,l,5.284916800446808,ambig,0.333,4.949152542,2.096168334,0.272897873
164,19,1,2,3,9,57,819.7372154998593,826.1112755001523,stimuli/308_zb.png,a,6.362424800172448,awful,0.333,1.644067797,1.471132708,0.191525165
164,19,1,2,3,10,58,826.7204351997934,832.5593722998165,stimuli/120_xa.png,l,5.827452799770981,harmless,0.333,6.440677966,1.054893138,0.137335389
164,19,1,2,3,11,59,833.1471975999884,836.9993373001926,stimuli/232_yb.png,l,3.8411916000768542,ambig,0.333,5.483333333,1.845669845,0.238274952
164,19,1,2,3,12,60,837.6265742001124,852.4313687998801,stimuli/155_xb.png,l,14.792854799889028,harmless,0.333,6.655737705,0.892286312,0.114245555
164,19,1,2,3,13,61,852.9923260998912,864.047317000106,stimuli/104_xc.png,l,11.043226799927652,harmless,0.333,6.745762712,0.756425814,0.098478253
164,19,1,2,3,14,62,864.680640600156,866.1193355000578,stimuli/269_za.png,l,1.4269735999405384,awful,0.333,3.457627119,2.119873401,0.27598401
164,19,1,2,3,15,63,866.6763339000754,879.2713224999607,stimuli/227_xa.png,l,12.583162600174546,harmless,0.333,6.180327869,1.05685377,0.135316259
164,19,1,2,3,16,64,879.8616506000981,885.8393462998793,stimuli/289_yb.png,l,5.9661535997875035,ambig,0.333,5.305084746,1.714584873,0.223219937
164,19,1,2,3,17,65,886.4423007001169,902.3192867999896,stimuli/343_zb.png,l,15.865411600098014,awful,0.333,3.103448276,2.141401862,0.28117984
164,19,1,2,3,18,66,902.9379099998623,909.7192438999191,stimuli/335_yb.png,a,6.769755399785936,ambig,0.333,5.016949153,2.046793332,0.266469795
164,19,1,2,3,19,67,910.3308907998726,915.5272245998494,stimuli/124_xa.png,l,5.185173299629241,harmless,0.333,6.344262295,1.181598436,0.151288177
164,19,1,2,3,20,68,916.1077049002051,921.6952737001702,stimuli/352_zb.png,a,5.5760441003367305,awful,0.333,2.93442623,2.135952968,0.273480754
164,19,1,2,3,21,69,922.3111605001613,929.23132729996,stimuli/328_za.png,a,6.908301900140941,awful,0.333,2.706896552,1.955725922,0.256799395
164,19,1,2,3,22,70,929.8712933999486,935.5432588998228,stimuli/175_xb.png,l,5.6600309000350535,harmless,0.333,6.6,1.028409995,0.13276716
164,19,1,2,3,23,71,936.1352701000869,960.7672545001842,stimuli/368_za.png,a,24.62040420016274,awful,0.333,3.590163934,2.02794682,0.259651984
164,19,1,2,3,24,72,961.388550600037,966.6472756997682,stimuli/201_yb.png,l,5.247395999729633,ambig,0.333,5.898305085,1.626238682,0.211718243
164,19,1,2,4,1,73,975.5885037998669,993.7832329999655,stimuli/252_zb.png,a,18.18309079995379,awful,0.333,2.711864407,1.983125776,0.258180985
164,19,1,2,4,2,74,994.3669881001115,1004.0472253998742,stimuli/246_ya.png,l,9.668737299740314,ambig,0.333,5.542372881,1.715266481,0.223308675
164,19,1,2,4,3,75,1004.7008760999888,1008.079225699883,stimuli/194_xb.png,l,3.3667983999475837,harmless,0.333,6.586206897,1.026567825,0.134794959
164,19,1,2,4,4,76,1008.7122674002312,1015.7832133998163,stimuli/345_zb.png,l,7.0589100997895,awful,0.333,3.694915254,2.191317013,0.285285176
164,19,1,2,4,5,77,1016.4037080002017,1020.6472004000098,stimuli/119_xc.png,l,4.232004799880087,harmless,0.333,6.694915254,0.914523379,0.119060803
164,19,1,2,4,6,78,1021.2426522998139,1025.9431627001613,stimuli/148_xc.png,l,4.688938200008124,harmless,0.333,6.491525424,1.135218061,0.147792803
164,19,1,2,4,7,79,1026.5750656002201,1032.7991642002016,stimuli/207_yb.png,a,6.212227000389248,ambig,0.333,5.655737705,1.662179753,0.212820309
164,19,1,2,4,8,80,1033.3899980001152,1039.663177299779,stimuli/330_ya.png,l,6.261590399779379,ambig,0.333,4.796610169,2.049219036,0.266785595
164,19,1,2,4,9,81,1040.2615958000533,1049.8951817997731,stimuli/105_xa.png,l,9.622165899723768,harmless,0.333,6.557377049,1.088187946,0.139328189
164,19,1,2,4,10,82,1050.4982567001134,1055.6631320999004,stimuli/101_xa.png,l,5.1534921997226775,harmless,0.333,6.508522727,1.13475832,0.060482822
164,19,1,2,4,11,83,1056.264598700218,1064.3991922000423,stimuli/336_ya.png,l,8.123206700198352,ambig,0.333,5.033898305,1.884291705,0.245313885
164,19,1,2,4,12,84,1065.0064611998387,1074.4071383001283,stimuli/210_yb.png,l,9.38912590034306,ambig,0.333,5.557377049,1.76564049,0.226067099
164,19,1,2,4,13,85,1075.0312439999543,1085.6791468001902,stimuli/236_yb.png,l,10.636595900170505,ambig,0.333,5.93442623,1.49297078,0.19115532
164,19,1,2,4,14,86,1086.2538971998729,1091.495108500123,stimuli/152_xa.png,l,5.229444500058889,harmless,0.333,6.576271186,0.968528743,0.126091702
164,19,1,2,4,15,87,1092.075792899821,1099.8311744001694,stimuli/338_zb.png,a,7.743931100238115,awful,0.333,3.310344828,2.137443107,0.28066003
164,19,1,2,4,16,88,1100.4200951000676,1108.4791338001378,stimuli/327_zb.png,a,8.04830150026828,awful,0.333,2.502808989,1.906990248,0.101070281
164,19,1,2,4,17,89,1109.102478099987,1115.047124700155,stimuli/240_xa.png,l,5.9327611001208425,harmless,0.333,6.482758621,1.096107616,0.143925981
164,19,1,2,4,18,90,1115.693953400012,1138.0791205000132,stimuli/290_zb.png,l,22.37340100016445,awful,0.333,2.586206897,2.026443456,0.266085062
164,19,1,2,4,19,91,1138.6947500999086,1147.5591401997954,stimuli/344_za.png,a,8.853346299845725,awful,0.333,2.711864407,2.043077863,0.265986082
164,19,1,2,4,20,92,1148.1207697000355,1154.215110400226,stimuli/121_xc.png,l,6.082515500020236,harmless,0.333,6.508474576,1.006408455,0.131023221
164,19,1,2,4,21,93,1154.7829729998484,1192.7911318000406,stimuli/262_ya.png,a,37.99641019990668,ambig,0.333,5.491525424,1.7750462,0.231091332
164,19,1,2,4,22,94,1193.406945799943,1202.9190802001394,stimuli/312_yb.png,l,9.500230700243264,ambig,0.333,4.677966102,2.112692986,0.275049199
164,19,1,2,4,23,95,1203.5392979001626,1211.4070635000244,stimuli/358_za.png,a,7.8558510998263955,awful,0.333,3.949152542,2.112554662,0.275031191
164,19,1,2,4,24,96,1212.0245317998342,1221.0790857998654,stimuli/307_za.png,a,9.042699299752712,awful,0.333,2.93220339,2.172432347,0.282826601
164,19,1,2,5,1,97,1230.1787525000982,1236.3510239999741,stimuli/160_xb.png,l,6.159664600156248,harmless,0.25,6.666666667,0.680644427,0.087870818
164,19,1,2,5,2,98,1236.9478265000507,1242.1109989001416,stimuli/188_xa.png,l,5.151828800328076,harmless,0.25,6.655172414,0.806807095,0.105938962
164,19,1,2,5,3,99,1242.7033907999285,1251.2310251998715,stimuli/222_ya.png,l,8.516597799956799,ambig,0.25,5.931034483,1.543089507,0.202617579
164,19,1,2,5,4,100,1251.8212796999142,1258.1590460999869,stimuli/310_zb.png,a,6.325946500059217,awful,0.25,3.224137931,2.102989547,0.276136056
164,19,1,2,5,5,101,1258.771906199865,1267.2630139999092,stimuli/204_xb.png,l,8.47959280014038,harmless,0.25,6.508474576,0.858484658,0.111765183
164,19,1,2,5,6,102,1267.8820401001722,1275.783033600077,stimuli/133_xa.png,l,7.889206100255251,harmless,0.25,6.568965517,1.186356193,0.1557762
164,19,1,2,5,7,103,1276.370941599831,1283.606973499991,stimuli/214_xb.png,l,7.224092800170183,harmless,0.25,6.465517241,0.940614156,0.12350869
164,19,1,2,5,8,104,1284.2236504000612,1291.350994599983,stimuli/291_za.png,a,7.115910300053656,awful,0.25,2.593220339,1.830005126,0.238246374
164,19,1,2,5,9,105,1292.0007319999859,1295.710954700131,stimuli/179_xb.png,l,3.6983373002149165,harmless,0.25,6.704918033,0.882123617,0.112944356
164,19,1,2,5,10,106,1296.3129814001732,1302.5749770998955,stimuli/239_ya.png,l,6.250045299995691,ambig,0.25,5.157894737,1.925296579,0.255011762
164,19,1,2,5,11,107,1303.1936457999982,1319.7029744000174,stimuli/250_yb.png,a,16.497291000094265,ambig,0.25,5.950819672,1.585625318,0.203018519
164,19,1,2,5,12,108,1320.3000885001384,1333.2069955999032,stimuli/266_zb.png,l,12.895383599679917,awful,0.25,3.491525424,1.888010094,0.245797978
164,19,1,2,5,13,109,1333.7914954000153,1340.214947000146,stimuli/281_ya.png,l,6.411923400126398,ambig,0.25,5.881355932,1.543448286,0.200939852
164,19,1,2,5,14,110,1340.833583700005,1345.3990365997888,stimuli/255_xb.png,l,4.553472699597478,harmless,0.25,6.770491803,0.642740036,0.082294429
164,19,1,2,5,15,111,1346.0118962000124,1352.3749076002277,stimuli/370_za.png,a,6.35151410009712,awful,0.25,2.393442623,1.882185684,0.240989182
164,19,1,2,5,16,112,1352.9716138001531,1362.0789621998556,stimuli/276_ya.png,l,9.09582499973476,ambig,0.25,5.186440678,1.804922162,0.234980851
164,19,1,2,5,17,113,1362.6690254001878,1375.7349482001737,stimuli/199_za.png,a,13.05429879995063,awful,0.25,3.033898305,2.189048775,0.284989876
164,19,1,2,5,18,114,1376.3433404997922,1384.4629473001696,stimuli/254_ya.png,l,8.108072699978948,ambig,0.25,5.983606557,1.627798137,0.208418195
164,19,1,2,5,19,115,1385.0878041000105,1396.0389554002322,stimuli/228_ya.png,l,10.938550300430506,ambig,0.25,5.442622951,1.793735303,0.229664272
164,19,1,2,5,20,116,1396.602882400155,1415.8148877997883,stimuli/127_xb.png,l,19.201374299824238,harmless,0.25,6.423728814,1.162686987,0.151368953
164,19,1,2,5,21,117,1416.438426699955,1422.5829106997699,stimuli/274_xb.png,l,6.132563999854028,harmless,0.25,6.491525424,1.179901828,0.153610134
164,19,1,2,5,22,118,1423.1336694997735,1431.8228576001711,stimuli/348_za.png,a,8.677399000152946,awful,0.25,3.084745763,2.119597681,0.275948114
164,19,1,2,5,23,119,1432.4361813999712,1438.1908936998807,stimuli/169_xc.png,l,5.742827299982309,harmless,0.25,6.603448276,0.916508538,0.120343467
164,19,1,2,5,24,120,1438.7920278999954,1447.83091579983,stimuli/288_yb.png,l,9.025849599856883,ambig,0.25,5.189655172,1.914459262,0.251380817
164,19,1,2,6,1,121,1456.6626822999679,1461.646855900064,stimuli/138_xc.png,l,4.972365600056946,harmless,0.166,6.661016949,0.70978796,0.092406522
164,19,1,2,6,2,122,1462.3015827001072,1465.8789127999917,stimuli/137_xa.png,l,3.565404700115323,harmless,0.166,6.355932203,1.094858074,0.14253838
164,19,1,2,6,3,123,1466.4783351998776,1474.1028411001898,stimuli/305_zb.png,a,7.6127777001820505,awful,0.166,2.75,2.12830003,0.274762352
164,19,1,2,6,4,124,1474.7098122001626,1479.0308309998363,stimuli/147_ya.png,l,4.309513599611819,ambig,0.166,5.883333333,1.766847875,0.22809908
164,19,1,2,6,5,125,1479.5996468998492,1485.294789200183,stimuli/221_xb.png,l,5.683478800114244,harmless,0.166,6.440677966,1.133672495,0.147591588
164,19,1,2,6,6,126,1485.865366499871,1492.9508369998075,stimuli/322_za.png,a,7.074002000037581,awful,0.166,2.406779661,1.975004531,0.257123689
164,19,1,2,6,7,127,1493.5460218000226,1508.806865700055,stimuli/206_xa.png,l,15.249384600203484,harmless,0.166,6.325842697,1.136094431,0.060212884
164,19,1,2,6,8,128,1509.4362467997707,1514.711056199856,stimuli/257_yb.png,l,5.262877699919045,ambig,0.166,5.620689655,1.843219782,0.242026615
164,19,1,2,6,9,129,1515.2865352001972,1524.0228427001275,stimuli/205_yb.png,l,8.724069400224835,ambig,0.166,5.847457627,1.52918233,0.199082582
164,19,1,2,6,10,130,1524.6694188001566,1529.8948102998547,stimuli/182_xb.png,l,5.21344990003854,harmless,0.166,6.542372881,0.988241802,0.128658124
164,19,1,2,6,11,131,1530.4904756997712,1536.7187923002057,stimuli/216_xa.png,l,6.217072300147265,harmless,0.166,6.603448276,0.877389573,0.115206895
164,19,1,2,6,12,132,1537.3131200000644,1553.6868680999614,stimuli/325_yb.png,a,16.36190819973126,ambig,0.166,5.131147541,1.811770863,0.231973488
164,19,1,2,6,13,133,1554.3105179998092,1558.766813499853,stimuli/355_zb.png,a,4.444642999675125,awful,0.166,3.183333333,2.070713188,0.267327923
164,19,1,2,6,14,134,1559.3820695998147,1565.046835000161,stimuli/132_xc.png,l,5.65339140035212,harmless,0.166,6.627118644,0.692280217,0.090127208
164,19,1,2,6,15,135,1565.6349436999299,1571.942814100068,stimuli/117_xc.png,l,6.2959811999462545,harmless,0.166,6.627118644,0.868972939,0.113130641
164,19,1,2,6,16,136,1572.5437529999763,1581.1187948998995,stimuli/154_xc.png,l,8.562959199771285,harmless,0.166,6.5,0.965506805,0.124646393
164,19,1,2,6,17,137,1581.756164399907,1594.174778799992,stimuli/333_za.png,a,12.40674819983542,awful,0.166,3.266666667,2.185209657,0.282109354
164,19,1,2,6,18,138,1594.806970300153,1608.7827685000375,stimuli/339_ya.png,a,13.964016799814999,ambig,0.166,4.949152542,1.960152429,0.25519011
164,19,1,2,6,19,139,1609.4391593998298,1615.806732099969,stimuli/226_yb.png,l,6.355660100001842,ambig,0.166,5.683333333,1.712285287,0.22105508
164,19,1,2,6,20,140,1616.3769403002225,1624.126772200223,stimuli/241_yb.png,l,7.737048300448805,ambig,0.166,5.508474576,1.442852555,0.187843403
164,19,1,2,6,21,141,1624.748493200168,1631.5027251001447,stimuli/231_xb.png,l,6.742383799981326,harmless,0.166,6.62295082,1.05141071,0.134619347
164,19,1,2,6,22,142,1632.1581761999987,1637.8547597001307,stimuli/234_xb.png,l,5.684520400129259,harmless,0.166,6.637931034,0.788030542,0.103473479
164,19,1,2,6,23,143,1638.4135718001053,1648.7667077002116,stimuli/286_ya.png,a,10.341369200032204,ambig,0.166,5.06779661,1.779814082,0.231712057
164,19,1,2,6,24,144,1649.3629262000322,1656.142692499794,stimuli/238_xb.png,l,6.76826459961012,harmless,0.166,6.4,1.076718178,0.139003719
164,19,1,2,7,1,145,1690.1215233001858,1697.8707975000143,stimuli/202_yb.png,l,7.737676599994302,ambig,0.083,5.431034483,1.892849601,0.248543329
164,19,1,2,7,2,146,1698.4340313998982,1701.9187302999198,stimuli/135_xa.png,l,3.4729784997180104,harmless,0.083,6.508474576,1.179901828,0.153610134
164,19,1,2,7,3,147,1702.5070001999848,1708.8146584997885,stimuli/331_za.png,a,6.295964799821377,awful,0.083,1.983606557,1.638004917,0.209725039
164,19,1,2,7,4,148,1709.4049879000522,1715.7107180999592,stimuli/273_ya.png,l,6.294030699878931,ambig,0.083,5.551724138,1.836973233,0.241206403
164,19,1,2,7,5,149,1716.3130173999816,1721.8386800000444,stimuli/354_zb.png,a,5.514107999857515,awful,0.083,2,1.701925887,0.221571878
164,19,1,2,7,6,150,1722.4334983001463,1727.166716199834,stimuli/260_ya.png,a,4.721746899653226,ambig,0.083,4.966101695,2.016877936,0.262575142
164,19,1,2,7,7,151,1727.7498416001908,1737.614638300147,stimuli/174_xc.png,l,9.853302200324833,harmless,0.083,6.533333333,1.111826512,0.143536185
164,19,1,2,7,8,152,1738.248822900001,1744.7746757999994,stimuli/180_xc.png,l,6.513693599961698,harmless,0.083,6.672131148,0.723908638,0.092687003
164,19,1,2,7,9,153,1745.3825866999105,1759.070628200192,stimuli/224_yb.png,l,13.676798700354993,ambig,0.083,5.881355932,1.609077116,0.209483997
164,19,1,2,7,10,154,1759.7077386002056,1766.8066583001055,stimuli/271_ya.png,l,7.087430800311267,ambig,0.083,5.711864407,1.771915459,0.230683744
164,19,1,2,7,11,155,1767.4161228998564,1771.5506497002207,stimuli/102_xc.png,l,4.1230848003178835,harmless,0.083,6.66011236,0.937292468,0.049676401
164,19,1,2,7,12,156,1772.1663851998746,1777.6066994997673,stimuli/186_xa.png,l,5.428624799940735,harmless,0.083,6.65,0.879618561,0.113558268
164,19,1,2,7,13,157,1778.1841358002275,1783.0786401000805,stimuli/163_xa.png,l,4.883041299879551,harmless,0.083,6.627118644,0.963082427,0.125382652
164,19,1,2,7,14,158,1783.6863783998415,1789.222647999879,stimuli/197_xa.png,l,5.5247114999219775,harmless,0.083,6.779661017,0.55918033,0.072799078
164,19,1,2,7,15,159,1789.8372622998431,1819.1667046002112,stimuli/264_xa.png,a,29.31740070041269,harmless,0.083,6.533333333,0.947193297,0.122282129
164,19,1,2,7,16,160,1819.7740640998818,1827.678568399977,stimuli/114_xc.png,l,7.892835199832916,harmless,0.083,6.644067797,0.97843492,0.127381377
164,19,1,2,7,17,161,1828.2922390000895,1833.0305482000113,stimuli/161_xc.png,l,4.726339099928737,harmless,0.083,6.796610169,0.609682252,0.079373868
164,19,1,2,7,18,162,1833.6333789997734,1837.8706177999265,stimuli/243_ya.png,l,4.225766399875283,ambig,0.083,5.830508475,1.652088985,0.215083666
164,19,1,2,7,19,163,1838.475299899932,1843.566605300177,stimuli/242_xb.png,l,5.078528200276196,harmless,0.083,6.576271186,0.913564256,0.118935936
164,19,1,2,7,20,164,1844.1217143000104,1849.1266151000746,stimuli/230_yb.png,a,4.993039600085467,ambig,0.083,4.98245614,1.875511626,0.248417583
164,19,1,2,7,21,165,1849.8515683999285,1856.766560500022,stimuli/212_ya.png,l,6.903115999884903,ambig,0.083,5.677966102,1.490668422,0.194068498
164,19,1,2,7,22,166,1857.3682932998054,1863.3346203002147,stimuli/177_xb.png,l,5.954689800273627,harmless,0.083,6.482758621,1.063614811,0.139659467
164,19,1,2,7,23,167,1863.9489997001365,1868.3346023000777,stimuli/185_xa.png,l,4.373967000283301,harmless,0.083,6.5,0.965506805,0.124646393
164,19,1,2,7,24,168,1868.9389760000631,1874.0065536000766,stimuli/144_xa.png,l,5.056053200270981,harmless,0.083,6.542372881,1.00553698,0.130909764
164,19,1,2,8,1,169,1896.2330629997887,1900.9025085000321,stimuli/353_zb.png,a,4.657994200009853,awful,0.0412,1.949152542,1.623361018,0.211343603
164,19,1,2,8,2,170,1901.5180517002009,1905.6465777000412,stimuli/139_xa.png,l,4.117086300160736,harmless,0.0412,6.724137931,0.790138861,0.103750315
164,19,1,2,8,3,171,1906.2321359999478,1910.6225358000956,stimuli/191_ya.png,l,4.378525299951434,ambig,0.0412,5.517241379,2.062542966,0.270825159
164,19,1,2,8,4,172,1911.1835227999836,1917.710525199771,stimuli/193_xc.png,l,6.5152664999477565,harmless,0.0412,6.482758621,1.012923151,0.133003326
164,19,1,2,8,5,173,1918.3303625998087,1923.0305467997678,stimuli/219_ya.png,l,4.6890392997302115,ambig,0.0412,5.271186441,1.998538332,0.260187529
164,19,1,2,8,6,174,1923.6396546000615,1927.8865049998276,stimuli/157_xc.png,l,4.235283199697733,harmless,0.0412,6.603448276,0.877389573,0.115206895
164,19,1,2,8,7,175,1928.4730258001946,1936.3425612999126,stimuli/172_xb.png,l,7.857968099880964,harmless,0.0412,6.482758621,1.127664553,0.14806961
164,19,1,2,8,8,176,1936.9209076999687,1948.3025698000565,stimuli/247_ya.png,l,11.369685899931937,ambig,0.0412,4.65,2.081598147,0.268733165
164,19,1,2,8,9,177,1948.9234413001686,1955.222467099782,stimuli/159_xa.png,l,6.287017399910837,harmless,0.0412,6.389830508,1.174689235,0.152931512
164,19,1,2,8,10,178,1955.8513064999133,1960.7504536998458,stimuli/173_yb.png,l,4.887238999828696,ambig,0.0412,5.796610169,1.242628763,0.161776485
164,19,1,2,8,11,179,1961.3389560999349,1965.822442600038,stimuli/158_xa.png,l,4.471813700161874,harmless,0.0412,6.786885246,0.661179605,0.084655374
164,19,1,2,8,12,180,1966.4515513000078,1972.4224740997888,stimuli/233_yb.png,a,5.95902939978987,ambig,0.0412,5.318309859,1.922973646,0.102060844
164,19,1,2,8,13,181,1973.0358806001022,1984.9264953997917,stimuli/103_xb.png,l,11.87918429961428,harmless,0.0412,6.779661017,0.589207434,0.076708274
164,19,1,2,8,14,182,1985.5485783000477,1997.2944970000535,stimuli/235_ya.png,a,11.734604000113904,ambig,0.0412,5.694915254,1.567495667,0.204070554
164,19,1,2,8,15,183,1997.9327715002,2003.758470499888,stimuli/110_xa.png,l,5.813987100031227,harmless,0.0412,6.428571429,1.059281795,0.141552484
164,19,1,2,8,16,184,2004.3434492000379,2009.8785108001903,stimuli/208_xb.png,l,5.523607300128788,harmless,0.0412,6.216666667,1.165778516,0.150501359
164,19,1,2,8,17,185,2010.461438599974,2016.694476599805,stimuli/116_xa.png,l,6.221563799772412,harmless,0.0412,6.63559322,0.958030802,0.050918763
164,19,1,2,8,18,186,2017.3160970001481,2028.9025640999898,stimuli/267_ya.png,l,11.575069400016218,ambig,0.0412,5.103448276,1.898195405,0.249245267
164,19,1,2,8,19,187,2029.5173839000054,2034.2784448000602,stimuli/136_xc.png,l,4.749488700181246,harmless,0.0412,6.559322034,1.038420326,0.135190811
164,19,1,2,8,20,188,2034.878016000148,2041.3104420998134,stimuli/244_xb.png,l,6.421637799590826,harmless,0.0412,6.610169492,0.743174671,0.096753101
164,19,1,2,8,21,189,2041.9134638998657,2048.6144373998977,stimuli/171_xa.png,l,6.6891296999529,harmless,0.0412,6.465517241,1.046556882,0.137419651
164,19,1,2,8,22,190,2049.223795699887,2052.8144402001053,stimuli/129_xa.png,l,3.578746700193733,harmless,0.0412,6.770491803,0.642740036,0.082294429
164,19,1,2,8,23,191,2053.4165762998164,2057.486420799978,stimuli/111_xa.png,l,4.057700200006366,harmless,0.0412,6.590163934,0.863655973,0.110579816
164,19,1,2,8,24,192,2058.0604783999734,2061.798436900135,stimuli/225_ya.png,l,3.726137100253254,ambig,0.0412,5.85,1.792876677,0.231459384
164,19,1,2,9,1,193,2079.197945199907,2084.9184067999013,stimuli/184_xb.png,l,5.7089990000240505,harmless,0.0412,6.508474576,1.194425,0.15550089
164,19,1,2,9,2,194,2085.522274199873,2098.7664112001657,stimuli/151_xa.png,l,13.232902400195599,harmless,0.0412,6.610169492,0.947172729,0.123311386
164,19,1,2,9,3,195,2099.36023679981,2106.0303703998215,stimuli/287_ya.png,l,6.65846769977361,ambig,0.0412,5.950819672,1.407435369,0.180203633
164,19,1,2,9,4,196,2106.6187693001702,2113.7823932999745,stimuli/362_zb.png,a,7.151115300133824,awful,0.0412,1.474576271,1.222715071,0.159183944
164,19,1,2,9,5,197,2114.347336200066,2121.5903595001437,stimuli/200_ya.png,a,7.2313415999524295,ambig,0.0412,5.862068966,1.444266048,0.189641423
164,19,1,2,9,6,198,2122.198044899851,2126.7504273001105,stimuli/107_xa.png,l,4.540572800207883,harmless,0.0412,6.813559322,0.540580029,0.070377525
164,19,1,2,9,7,199,2127.3756773001514,2134.398348900024,stimuli/122_xa.png,l,7.010585399810225,harmless,0.0412,6.457627119,1.039264227,0.135300678
164,19,1,2,9,8,200,2135.011082699988,2148.67838100018,stimuli/209_ya.png,l,13.655738800298423,ambig,0.0412,5.603448276,1.825161903,0.239655499
164,19,1,2,9,9,201,2149.306916099973,2154.430324899964,stimuli/125_xc.png,l,5.11143480008468,harmless,0.0412,6.683333333,0.999858747,0.129081209
164,19,1,2,9,10,202,2155.0789263001643,2160.1664292002097,stimuli/134_xc.png,l,5.074756800197065,harmless,0.0412,6.516666667,0.965360505,0.124627505
164,19,1,2,9,11,203,2160.7314904998057,2165.126393499784,stimuli/126_xa.png,l,4.383240799885243,harmless,0.0412,6.6,0.977717855,0.126222832
164,19,1,2,9,12,204,2165.7320500002243,2198.5903563001193,stimuli/258_ya.png,a,32.84680359996855,ambig,0.0412,5.627118644,1.78014243,0.231754804
164,19,1,2,9,13,205,2199.206809299998,2204.974288399797,stimuli/141_xc.png,l,5.755940699949861,harmless,0.0412,6.508474576,1.040107444,0.135410455
164,19,1,2,9,14,206,2205.6050065001473,2210.1582899000496,stimuli/304_ya.png,a,4.54176490008831,ambig,0.0412,4.034482759,2.017167697,0.264867095
164,19,1,2,9,15,207,2210.731426099781,2214.5023106001318,stimuli/150_xc.png,l,3.759263399988413,harmless,0.0412,6.482758621,1.030097582,0.135258439
164,19,1,2,9,16,208,2215.0864744000137,2220.8942999001592,stimuli/149_xa.png,l,5.796290900092572,harmless,0.0412,6.721311475,0.933294301,0.11949609
164,19,1,2,9,17,209,2221.4840267999098,2225.590314900037,stimuli/270_yb.png,l,4.094370199833065,ambig,0.0412,5.534482759,1.912246013,0.251090203
164,19,1,2,9,18,210,2226.2209335002117,2271.430302800145,stimuli/315_yb.png,a,45.19736579991877,ambig,0.0412,5.050847458,1.915667965,0.249398726
164,19,1,2,9,19,211,2272.0478091998957,2278.302293700166,stimuli/166_xa.png,l,6.243031400255859,harmless,0.0412,6.593220339,1.052397002,0.13701042
164,19,1,2,9,20,212,2278.9176004999317,2281.6703018997796,stimuli/195_xc.png,l,2.7412941996008158,harmless,0.0412,6.637640449,1.001766915,0.05309354
164,19,1,2,9,21,213,2282.288351499941,2287.166224199813,stimuli/178_xa.png,l,4.86635039979592,harmless,0.0412,6.483333333,1.112207557,0.143585378
164,19,1,2,9,22,214,2287.7628248999827,2291.254276299849,stimuli/215_yb.png,l,3.48000739980489,ambig,0.0412,5.866666667,1.466769385,0.189359113
164,19,1,2,9,23,215,2291.866541800089,2296.646228800062,stimuli/123_xc.png,l,4.7684062998741865,harmless,0.0412,6.491525424,1.023396666,0.133234897
164,19,1,2,9,24,216,2297.29791809991,2300.0862124999985,stimuli/115_xb.png,l,2.7764063999056816,harmless,0.0412,6.440677966,1.021681954,0.133011661
164,19,1,2,10,1,217,2318.9142697001807,2324.9982676999643,stimuli/168_xa.png,l,6.072389599867165,harmless,0.0412,6.474576271,1.164946827,0.151663159
164,19,1,2,10,2,218,2325.5971391000785,2343.038318899926,stimuli/272_xb.png,l,17.429773800075054,harmless,0.0412,6.355932203,1.029943284,0.134087194
164,19,1,2,10,3,219,2343.6166811999865,2347.198265099898,stimuli/263_ya.png,a,3.5688392999581993,ambig,0.0412,4.983050847,2.071910042,0.269739712
164,19,1,2,10,4,220,2347.8097056001425,2351.5902454000898,stimuli/113_xb.png,l,3.768819000106305,harmless,0.0412,6.733333333,0.660422737,0.085260209
164,19,1,2,10,5,221,2352.2007369999774,2361.334251999855,stimuli/167_xb.png,l,9.122053199913353,harmless,0.0412,6.590163934,0.955284411,0.122311635
164,19,1,2,10,6,222,2361.937413800042,2367.2061687000096,stimuli/189_yb.png,l,5.256953800097108,ambig,0.0412,5.983333333,1.455459234,0.187898979
164,19,1,2,10,7,223,2367.8132197000086,2380.166236099787,stimuli/311_za.png,a,12.341555899940431,awful,0.0412,3.116666667,1.975199339,0.254997138
164,19,1,2,10,8,224,2380.778212700039,2385.55814309977,stimuli/130_xc.png,l,4.767898499965668,harmless,0.0412,6.644067797,0.960651931,0.125066229
164,19,1,2,10,9,225,2386.161347299814,2392.1662058001384,stimuli/261_yb.png,a,5.9933865000493824,ambig,0.0412,5.706896552,1.901141123,0.249632059
164,19,1,2,10,10,226,2392.7349598999135,2399.67820269987,stimuli/146_xa.png,l,6.931713100057095,harmless,0.0412,6.442622951,1.162247681,0.148810567
164,19,1,2,10,11,227,2400.2738745999523,2406.014137899969,stimuli/176_xb.png,l,5.728393299970776,harmless,0.0412,6.796610169,0.517942249,0.067430337
164,19,1,2,10,12,228,2406.621692100074,2415.2781691998243,stimuli/131_xb.png,l,8.644392000045627,harmless,0.0412,6.525423729,1.119666394,0.145768149
164,19,1,2,10,13,229,2415.859383800067,2420.950220400002,stimuli/265_yb.png,l,5.079105699900538,ambig,0.0412,5.627118644,1.856008928,0.241631781
164,19,1,2,10,14,230,2421.5328740999103,2428.3182250000536,stimuli/143_xb.png,l,6.773577900137752,harmless,0.0412,6.655172414,0.738697862,0.096995781
164,19,1,2,10,15,231,2428.9366937000304,2443.28614810016,stimuli/198_yb.png,a,14.337964500300586,ambig,0.0412,5.101694915,1.83542643,0.238952168
164,19,1,2,10,16,232,2443.9177303002216,2449.5261824000627,stimuli/145_xa.png,l,5.596496100071818,harmless,0.0412,6.661016949,0.822321556,0.107057148
164,19,1,2,10,17,233,2450.1413052999415,2455.6701420000754,stimuli/118_xb.png,l,5.517325500026345,harmless,0.0412,6.474576271,0.953323265,0.124112118
164,19,1,2,10,18,234,2456.2804506001994,2463.1821257998236,stimuli/142_xa.png,l,6.890123599674553,harmless,0.0412,6.4,1.076718178,0.139003719
164,19,1,2,10,19,235,2463.794551599771,2469.1821790002286,stimuli/181_xa.png,l,5.375921600032598,harmless,0.0412,6.666666667,0.950765377,0.122743282
164,19,1,2,10,20,236,2469.7902390002273,2477.4701506001875,stimuli/277_yb.png,a,7.667875100392848,ambig,0.0412,5.491525424,2.02886822,0.264136144
164,19,1,2,10,21,237,2478.0986946998164,2510.1501334998757,stimuli/350_ya.png,l,32.03962719999254,ambig,0.0412,4.915254237,2.02814792,0.264042369
164,19,1,2,10,22,238,2510.754573700018,2515.0700767999515,stimuli/128_xc.png,l,4.303450599778444,harmless,0.0412,6.627118644,0.98082135,0.127692063
164,19,1,2,10,23,239,2515.699585800059,2524.0620122998953,stimuli/342_yb.png,a,8.35053339973092,ambig,0.0412,4.916666667,2.085394461,0.269223267
164,19,1,2,10,24,240,2524.6703877998516,2529.1580897998065,stimuli/187_xc.png,l,4.475810099858791,harmless,0.0412,6.224137931,1.185335891,0.155642228
