id,age,condition,counterbalance,block,trialinblock,trial,tstart,tend,trialstim,response,RT,trialtype,ethicfreq,norm_mean,norm_sd,norm_se
022,73,0,2,0,0,practice,6.301503162831068e-06,35.9839279356529,stimuli/prac_217_1.png,l,35.963944193616044,harmless,NA,NA,NA,NA
022,73,0,2,1,1,1,5.399377093242947,13.568051061301958,stimuli/105_xa.png,l,8.157012190320529,harmless,0.333,6.557377049,1.088187946,0.139328189
022,73,0,2,1,2,2,14.183043042605277,24.576049284252804,stimuli/142_xa.png,l,10.38087696878938,harmless,0.333,6.4,1.076718178,0.139003719
022,73,0,2,1,3,3,25.156927119591273,39.39210078987526,stimuli/111_xa.png,l,14.223303154227324,harmless,0.333,6.590163934,0.863655973,0.110579816
022,73,0,2,1,4,4,40.017023202206474,51.80803949799156,stimuli/219_ya.png,a,11.780024843814317,ambig,0.333,5.271186441,1.998538332,0.260187529
022,73,0,2,1,5,5,52.3887570379884,59.07200015435228,stimuli/313_zb.png,a,6.671582914015744,awful,0.333,2.101694915,1.688652955,0.219843889
022,73,0,2,1,6,6,59.680132915091235,67.27998545917217,stimuli/363_zb.png,a,7.588266778620891,awful,0.333,2.433333333,2.019956927,0.260775318
022,73,0,2,1,7,7,67.8435506154783,79.63997953571379,stimuli/287_ya.png,a,11.784780927118845,ambig,0.333,5.950819672,1.407435369,0.180203633
022,73,0,2,1,8,8,80.26368850882864,91.40801610355265,stimuli/276_ya.png,a,11.132510247873142,ambig,0.333,5.186440678,1.804922162,0.234980851
022,73,0,2,1,9,9,91.99764322600095,104.59999629779486,stimuli/367_zb.png,a,12.590403392736334,awful,0.333,3.413793103,2.086165649,0.27392697
022,73,0,2,1,10,10,105.23801369318971,113.84794908674667,stimuli/252_zb.png,a,8.598226354282815,awful,0.333,2.711864407,1.983125776,0.258180985
022,73,0,2,1,11,11,114.47378285852028,123.28800534369657,stimuli/152_xa.png,l,8.802796621108428,harmless,0.333,6.576271186,0.968528743,0.126091702
022,73,0,2,1,12,12,123.87871869315859,131.9599738328252,stimuli/267_ya.png,a,8.06954610045068,ambig,0.333,5.103448276,1.898195405,0.249245267
022,73,0,2,1,13,13,132.5451910624979,141.1039434216218,stimuli/369_za.png,a,8.546892083017156,awful,0.333,2.948275862,2.055565093,0.26990892
022,73,0,2,1,14,14,141.67519645032007,154.1039977723849,stimuli/266_zb.png,a,12.416779963008594,awful,0.333,3.491525424,1.888010094,0.245797978
022,73,0,2,1,15,15,154.6890460421564,160.24812647490762,stimuli/150_xc.png,l,5.547289473586716,harmless,0.333,6.482758621,1.030097582,0.135258439
022,73,0,2,1,16,16,160.89795570331626,169.47197234886698,stimuli/188_xa.png,l,8.562125255644787,harmless,0.333,6.655172414,0.806807095,0.105938962
022,73,0,2,1,17,17,170.10247240710305,178.711963148613,stimuli/224_yb.png,l,8.597798243747093,ambig,0.333,5.881355932,1.609077116,0.209483997
022,73,0,2,1,18,18,179.31331151950872,190.7999644750962,stimuli/218_yb.png,l,11.474944704037625,ambig,0.333,5.850282486,1.552723069,0.0825263
022,73,0,2,1,19,19,191.3841667638044,202.18398433434777,stimuli/181_xa.png,l,10.787958869885188,harmless,0.333,6.666666667,0.950765377,0.122743282
022,73,0,2,1,20,20,202.773117180157,209.71993459004443,stimuli/136_xc.png,l,6.9352154967491515,harmless,0.333,6.559322034,1.038420326,0.135190811
022,73,0,2,1,21,21,210.36863426835043,216.74395131430356,stimuli/241_yb.png,a,6.3634969421545975,ambig,0.333,5.508474576,1.442852555,0.187843403
022,73,0,2,1,22,22,217.37046565191122,225.70389167027315,stimuli/243_ya.png,l,8.321545656188391,ambig,0.333,5.830508475,1.652088985,0.215083666
022,73,0,2,1,23,23,226.33102592133218,233.15193591022398,stimuli/295_za.png,a,6.809146992745809,awful,0.333,2.3,1.825432384,0.235662307
022,73,0,2,1,24,24,233.78212364867795,238.54385789408116,stimuli/199_za.png,a,4.7500228430726565,awful,0.333,3.033898305,2.189048775,0.284989876
022,73,0,2,2,1,25,249.72020279912977,258.43987233086955,stimuli/209_ya.png,a,8.707907323318068,ambig,0.333,5.603448276,1.825161903,0.239655499
022,73,0,2,2,2,26,259.02276429423364,267.7679349555401,stimuli/354_zb.png,a,8.733565991278738,awful,0.333,2,1.701925887,0.221571878
022,73,0,2,2,3,27,268.3403718850459,280.3999013021821,stimuli/208_xb.png,l,12.047860944003332,harmless,0.333,6.216666667,1.165778516,0.150501359
022,73,0,2,2,4,28,281.0099729663925,290.6641738845501,stimuli/258_ya.png,a,9.642422562057618,ambig,0.333,5.627118644,1.78014243,0.231754804
022,73,0,2,2,5,29,291.24710956477793,300.2878777376027,stimuli/213_ya.png,l,9.028968942875508,ambig,0.333,5.98245614,1.597891781,0.211645937
022,73,0,2,2,6,30,300.86362297285814,308.03182550735073,stimuli/119_xc.png,l,7.156353286118247,harmless,0.333,6.694915254,0.914523379,0.119060803
022,73,0,2,2,7,31,308.6426045187982,316.10388946474995,stimuli/343_zb.png,a,7.449601506697945,awful,0.333,3.103448276,2.141401862,0.28117984
022,73,0,2,2,8,32,316.7174588745693,324.1038402339909,stimuli/114_xc.png,l,7.374612849438563,harmless,0.333,6.644067797,0.97843492,0.127381377
022,73,0,2,2,9,33,324.7041846916545,331.7678672140464,stimuli/120_xa.png,l,7.052340941387229,harmless,0.333,6.440677966,1.054893138,0.137335389
022,73,0,2,2,10,34,332.33491436211625,338.75983000034466,stimuli/317_za.png,a,6.4132696143351495,awful,0.333,3.65,2.03215674,0.262350307
022,73,0,2,2,11,35,339.35481067036744,343.35185091826133,stimuli/179_xb.png,l,3.985371774819214,harmless,0.333,6.704918033,0.882123617,0.112944356
022,73,0,2,2,12,36,343.9336231776397,354.54382559872465,stimuli/202_yb.png,l,10.598808458598796,ambig,0.333,5.431034483,1.892849601,0.248543329
022,73,0,2,2,13,37,355.2050161003717,372.8718768018298,stimuli/341_zb.png,l,17.655697138805408,awful,0.333,3.603448276,2.15975677,0.283589957
022,73,0,2,2,14,38,373.51454315445153,378.5358695172472,stimuli/312_yb.png,a,5.0095007451600395,ambig,0.333,4.677966102,2.112692986,0.275049199
022,73,0,2,2,15,39,379.14735233137617,384.54380433104234,stimuli/178_xa.png,l,5.384729963494465,harmless,0.333,6.483333333,1.112207557,0.143585378
022,73,0,2,2,16,40,385.15508549602237,393.3279618000961,stimuli/347_zb.png,a,8.161165295576211,awful,0.333,3.796610169,2.147810923,0.279621165
022,73,0,2,2,17,41,393.90435530571267,401.39982844068436,stimuli/192_za.png,l,7.48348170821555,awful,0.333,2.68852459,2.093967396,0.268105052
022,73,0,2,2,18,42,402.0003832120565,407.08781188656576,stimuli/247_ya.png,a,5.0755380723276176,ambig,0.333,4.65,2.081598147,0.268733165
022,73,0,2,2,19,43,407.6586533462396,415.9118088397663,stimuli/263_ya.png,a,8.24125425744569,ambig,0.333,4.983050847,2.071910042,0.269739712
022,73,0,2,2,20,44,416.48796091787517,423.04778768867254,stimuli/290_zb.png,a,6.548144513100851,awful,0.333,2.586206897,2.026443456,0.266085062
022,73,0,2,2,21,45,423.63754596177023,438.4637850798317,stimuli/285_yb.png,a,14.814590731053613,ambig,0.333,4.120689655,2.119893958,0.278355714
022,73,0,2,2,22,46,439.0480015469948,449.2157743955613,stimuli/362_zb.png,a,10.15605041856179,awful,0.333,1.474576271,1.222715071,0.159183944
022,73,0,2,2,23,47,449.8557436913252,456.8077618366224,stimuli/104_xc.png,l,6.940159050747752,harmless,0.333,6.745762712,0.756425814,0.098478253
022,73,0,2,2,24,48,457.41578904667404,463.19978070654906,stimuli/144_xa.png,l,5.772257808363065,harmless,0.333,6.542372881,1.00553698,0.130909764
022,73,0,2,3,1,49,478.6116344447946,487.7198132855119,stimuli/244_xb.png,l,9.097459930111654,harmless,0.333,6.610169492,0.743174671,0.096753101
022,73,0,2,3,2,50,488.3036934082629,494.5917499519419,stimuli/109_xb.png,l,6.276295516814571,harmless,0.333,6.644067797,0.97843492,0.127381377
022,73,0,2,3,3,51,495.2080920370645,504.87181102955947,stimuli/345_zb.png,l,9.652076513215434,awful,0.333,3.694915254,2.191317013,0.285285176
022,73,0,2,3,4,52,505.4351918659522,513.4957204702077,stimuli/319_ya.png,a,8.048631306679454,ambig,0.333,4.216666667,2.108028774,0.272145344
022,73,0,2,3,5,53,514.0718095329357,522.7917067076196,stimuli/235_ya.png,l,8.707697009609547,ambig,0.333,5.694915254,1.567495667,0.204070554
022,73,0,2,3,6,54,523.404308044177,529.7917839014553,stimuli/129_xa.png,l,6.375729008810595,harmless,0.333,6.770491803,0.642740036,0.082294429
022,73,0,2,3,7,55,530.3653259626008,540.1357133967103,stimuli/342_yb.png,a,9.75897771777818,ambig,0.333,4.916666667,2.085394461,0.269223267
022,73,0,2,3,8,56,540.7588599578012,551.3597018428845,stimuli/211_zb.png,a,10.588928439770825,awful,0.333,3.983333333,2.127237938,0.274625237
022,73,0,2,3,9,57,551.9477453108411,559.7596913665766,stimuli/226_yb.png,a,7.80028427799698,ambig,0.333,5.683333333,1.712285287,0.22105508
022,73,0,2,3,10,58,560.3289830425638,571.1277139922022,stimuli/275_yb.png,l,10.786789935198613,ambig,0.333,4.836065574,2.138382004,0.27379176
022,73,0,2,3,11,59,571.7044363592286,580.8876826263149,stimuli/336_ya.png,l,9.171510052517988,ambig,0.333,5.033898305,1.884291705,0.245313885
022,73,0,2,3,12,60,581.4467658160138,589.1356980367564,stimuli/279_ya.png,a,7.6769419754855335,ambig,0.333,5.31147541,1.970964092,0.252356093
022,73,0,2,3,13,61,589.7635994996526,604.3437006707536,stimuli/322_za.png,l,14.568473658000585,awful,0.333,2.406779661,1.975004531,0.257123689
022,73,0,2,3,14,62,604.9345085432869,611.7117004533648,stimuli/108_xb.png,l,6.765372987836599,harmless,0.333,6.568965517,1.077880782,0.141532681
022,73,0,2,3,15,63,612.3180333382334,621.9756465374376,stimuli/253_ya.png,a,9.6459399999585,ambig,0.333,5.491803279,1.849531029,0.236808182
022,73,0,2,3,16,64,622.5412864740356,629.1117462970433,stimuli/231_xb.png,l,6.558716912986711,harmless,0.333,6.62295082,1.05141071,0.134619347
022,73,0,2,3,17,65,629.7489803328644,637.0796380083193,stimuli/291_za.png,a,7.318871442403179,awful,0.333,2.593220339,1.830005126,0.238246374
022,73,0,2,3,18,66,637.6732114668703,642.2956384714926,stimuli/337_zb.png,a,4.6108290299307555,awful,0.333,3.033333333,2.20143764,0.284204377
022,73,0,2,3,19,67,642.8987756905262,648.22365288937,stimuli/292_zb.png,a,5.313137833436485,awful,0.333,2.396551724,1.955107169,0.256718148
022,73,0,2,3,20,68,648.7928228669916,666.1036889971583,stimuli/269_za.png,a,17.298912118771113,awful,0.333,3.457627119,2.119873401,0.27598401
022,73,0,2,3,21,69,666.7137007968267,673.3436786154052,stimuli/360_za.png,a,6.61820025020279,awful,0.333,3.2,2.207844259,0.285031468
022,73,0,2,3,22,70,673.904001632065,678.5676993568777,stimuli/153_xb.png,l,4.651772464159876,harmless,0.333,6.633333333,0.973664521,0.125699549
022,73,0,2,3,23,71,679.1595083857537,685.2316546569928,stimuli/135_xa.png,l,6.060562475002371,harmless,0.333,6.508474576,1.179901828,0.153610134
022,73,0,2,3,24,72,685.806471203512,692.0316435504938,stimuli/124_xa.png,l,6.21345464308979,harmless,0.333,6.344262295,1.181598436,0.151288177
022,73,0,2,4,1,73,703.6456257108948,710.9597040484077,stimuli/122_xa.png,l,7.3024468859657645,harmless,0.333,6.457627119,1.039264227,0.135300678
022,73,0,2,4,2,74,711.5459704835666,720.4556068693055,stimuli/318_za.png,a,8.898036441823933,awful,0.333,3.06557377,2.197489875,0.281359747
022,73,0,2,4,3,75,721.0465852770722,730.983800329559,stimuli/173_yb.png,l,9.925297668785788,ambig,0.333,5.796610169,1.242628763,0.161776485
022,73,0,2,4,4,76,731.6210709930747,743.463627935329,stimuli/286_ya.png,a,11.830482807883527,ambig,0.333,5.06779661,1.779814082,0.231712057
022,73,0,2,4,5,77,744.0619842587621,753.0236437521526,stimuli/256_zb.png,a,8.94984766037669,awful,0.333,3.051724138,2.012438634,0.264246138
022,73,0,2,4,6,78,753.5982933080522,759.5355847666506,stimuli/230_yb.png,a,5.925717902369797,ambig,0.333,4.98245614,1.875511626,0.248417583
022,73,0,2,4,7,79,760.1125024812063,779.0716263945797,stimuli/350_ya.png,a,18.947233311191667,ambig,0.333,4.915254237,2.02814792,0.264042369
022,73,0,2,4,8,80,779.6910971917096,785.7275531455525,stimuli/373_zb.png,a,6.024880428391043,awful,0.333,2.327586207,1.858011869,0.243968911
022,73,0,2,4,9,81,786.3527571577579,797.1276029276778,stimuli/234_xb.png,l,10.763155241496861,harmless,0.333,6.637931034,0.788030542,0.103473479
022,73,0,2,4,10,82,797.6892992850626,804.0315691136057,stimuli/324_za.png,a,6.330429244786501,awful,0.333,2.491525424,1.994586478,0.259673041
022,73,0,2,4,11,83,804.6482337585767,817.2315904600546,stimuli/254_ya.png,l,12.571363699331414,ambig,0.333,5.983606557,1.627798137,0.208418195
022,73,0,2,4,12,84,817.8293871284695,824.9435563656152,stimuli/101_xa.png,l,7.10199230897706,harmless,0.333,6.508522727,1.13475832,0.060482822
022,73,0,2,4,13,85,825.5093916498008,834.9275134459022,stimuli/371_zb.png,l,9.406118553946726,awful,0.333,3.131147541,2.085468851,0.267016925
022,73,0,2,4,14,86,835.5466408093343,842.3436065415735,stimuli/357_za.png,a,6.785350428312086,awful,0.333,2.793103448,2.066937905,0.271402243
022,73,0,2,4,15,87,842.9612203551806,851.5915423951228,stimuli/197_xa.png,l,8.61869019450387,harmless,0.333,6.779661017,0.55918033,0.072799078
022,73,0,2,4,16,88,852.1814637204516,867.9835549635463,stimuli/227_xa.png,l,15.790662228304427,harmless,0.333,6.180327869,1.05685377,0.135316259
022,73,0,2,4,17,89,868.5691073560738,885.0795781437191,stimuli/159_xa.png,l,16.499040985188913,harmless,0.333,6.389830508,1.174689235,0.152931512
022,73,0,2,4,18,90,885.6693045153515,890.0234889707062,stimuli/349_za.png,a,4.342120560933836,awful,0.333,3.288135593,2.101320172,0.273568585
022,73,0,2,4,19,91,890.65833393723,897.7434928776929,stimuli/123_xc.png,l,7.073069446079899,harmless,0.333,6.491525424,1.023396666,0.133234897
022,73,0,2,4,20,92,898.3431358957314,909.5674949508975,stimuli/245_yb.png,a,11.212659468234051,ambig,0.333,4.949152542,2.096168334,0.272897873
022,73,0,2,4,21,93,910.1487571797916,925.0557410132024,stimuli/239_ya.png,l,14.895270855748095,ambig,0.333,5.157894737,1.925296579,0.255011762
022,73,0,2,4,22,94,925.6204191780416,933.8314859333914,stimuli/212_ya.png,l,8.199498712900095,ambig,0.333,5.677966102,1.490668422,0.194068498
022,73,0,2,4,23,95,934.4108183172648,941.3995117885643,stimuli/183_xb.png,l,6.976795385999139,harmless,0.333,6.448275862,1.095003225,0.143780967
022,73,0,2,4,24,96,941.9689783321228,951.599457910459,stimuli/338_zb.png,a,9.618869394413196,awful,0.333,3.310344828,2.137443107,0.28066003
022,73,0,2,5,1,97,963.9454547029454,975.8794788157684,stimuli/271_ya.png,l,11.922186679788865,ambig,0.333,5.711864407,1.771915459,0.230683744
022,73,0,2,5,2,98,976.4499555741786,982.9834663482034,stimuli/351_zb.png,a,6.5218025224749,awful,0.333,3.06779661,2.033040926,0.264679384
022,73,0,2,5,3,99,983.6078157147276,994.5594522233005,stimuli/289_yb.png,a,10.940211432229262,ambig,0.333,5.305084746,1.714584873,0.223219937
022,73,0,2,5,4,100,995.1388909456437,999.9355081242393,stimuli/158_xa.png,l,4.7849829701008275,harmless,0.333,6.786885246,0.661179605,0.084655374
022,73,0,2,5,5,101,1000.5013252915232,1009.6394301207038,stimuli/250_yb.png,l,9.12641902687028,ambig,0.333,5.950819672,1.585625318,0.203018519
022,73,0,2,5,6,102,1010.234126433963,1024.935442745802,stimuli/180_xc.png,a,14.689586004940793,harmless,0.333,6.672131148,0.723908638,0.092687003
022,73,0,2,5,7,103,1025.5055303844274,1037.6154961040593,stimuli/151_xa.png,l,12.098017222073395,harmless,0.333,6.610169492,0.947172729,0.123311386
022,73,0,2,5,8,104,1038.2209771001944,1048.2714161596377,stimuli/335_yb.png,l,10.038727657112759,ambig,0.333,5.016949153,2.046793332,0.266469795
022,73,0,2,5,9,105,1048.8699650737108,1055.1354026523186,stimuli/107_xa.png,l,6.253661191731226,harmless,0.333,6.813559322,0.540580029,0.070377525
022,73,0,2,5,10,106,1055.765281615546,1065.2953907423653,stimuli/359_za.png,a,9.517951890884433,awful,0.333,2.01754386,1.641985167,0.217486248
022,73,0,2,5,11,107,1065.921111086558,1074.7753971542115,stimuli/344_za.png,a,8.84259553917218,awful,0.333,2.711864407,2.043077863,0.265986082
022,73,0,2,5,12,108,1075.3772480724729,1082.1274497216218,stimuli/302_za.png,a,6.738492609874811,awful,0.333,3.137931034,2.188071937,0.287307921
022,73,0,2,5,13,109,1082.6957327582058,1088.1833892331924,stimuli/305_zb.png,a,5.475213306955993,awful,0.333,2.75,2.12830003,0.274762352
022,73,0,2,5,14,110,1088.7578595891828,1096.0394487889716,stimuli/110_xa.png,l,7.269781305221841,harmless,0.333,6.428571429,1.059281795,0.141552484
022,73,0,2,5,15,111,1096.6731220638612,1104.3353991864715,stimuli/163_xa.png,l,7.650677178695332,harmless,0.333,6.627118644,0.963082427,0.125382652
022,73,0,2,5,16,112,1104.9365529974457,1113.2153840942774,stimuli/323_yb.png,l,8.267007448419463,ambig,0.333,4.603448276,1.955107169,0.256718148
022,73,0,2,5,17,113,1113.8373845637543,1121.6874131569639,stimuli/223_yb.png,l,7.838682679925114,ambig,0.333,5.542372881,1.77455224,0.231027024
022,73,0,2,5,18,114,1122.2589966223459,1128.2793686964433,stimuli/355_zb.png,a,6.008435785770416,awful,0.333,3.183333333,2.070713188,0.267327923
022,73,0,2,5,19,115,1128.8914729994722,1141.6233541178517,stimuli/365_zb.png,a,12.720294171362184,awful,0.333,2.966101695,2.165291266,0.281896912
022,73,0,2,5,20,116,1142.2558714549523,1148.8233841289184,stimuli/182_xb.png,l,6.555763856275007,harmless,0.333,6.542372881,0.988241802,0.128658124
022,73,0,2,5,21,117,1149.4186164665152,1158.0553873395547,stimuli/189_yb.png,l,8.625120122975204,ambig,0.333,5.983333333,1.455459234,0.187898979
022,73,0,2,5,22,118,1158.6923307171091,1168.359373769199,stimuli/272_xb.png,l,9.655143785232212,harmless,0.333,6.355932203,1.029943284,0.134087194
022,73,0,2,5,23,119,1168.9573626344209,1178.1674038149067,stimuli/236_yb.png,l,9.19826991361333,ambig,0.333,5.93442623,1.49297078,0.19115532
022,73,0,2,5,24,120,1178.746072568465,1185.5673716770834,stimuli/361_za.png,a,6.809279718785547,awful,0.333,2.416666667,1.907093508,0.246204713
022,73,0,2,6,1,121,1199.7202847190783,1214.711346385884,stimuli/167_xb.png,l,14.979680701217148,harmless,0.333,6.590163934,0.955284411,0.122311635
022,73,0,2,6,2,122,1215.3196878849412,1220.4233453744673,stimuli/320_za.png,a,5.09167512122076,awful,0.333,1.423728814,1.117314975,0.14546202
022,73,0,2,6,3,123,1221.0051715907757,1225.951376570214,stimuli/301_za.png,a,4.934042623557616,awful,0.333,3.610169492,2.212947396,0.288101212
022,73,0,2,6,4,124,1226.5486242173938,1231.0553609518684,stimuli/112_xc.png,l,4.495070230565034,harmless,0.333,6.706896552,0.749470472,0.098410294
022,73,0,2,6,5,125,1231.6329115768312,1238.9033202786231,stimuli/222_ya.png,l,7.258840659400448,ambig,0.333,5.931034483,1.543089507,0.202617579
022,73,0,2,6,6,126,1239.5080502105993,1244.9273129783105,stimuli/201_yb.png,l,5.407832965254784,ambig,0.333,5.898305085,1.626238682,0.211718243
022,73,0,2,6,7,127,1245.5216311995173,1253.5913958844612,stimuli/366_za.png,a,8.057701184414327,awful,0.333,3.689655172,2.036568291,0.267414518
022,73,0,2,6,8,128,1254.1956917982316,1263.8712986360188,stimuli/215_yb.png,l,9.664309367537498,ambig,0.333,5.866666667,1.466769385,0.189359113
022,73,0,2,6,9,129,1264.4934145022999,1271.7193142827018,stimuli/255_xb.png,l,7.214177350397222,harmless,0.333,6.770491803,0.642740036,0.082294429
022,73,0,2,6,10,130,1272.333470129117,1278.8552966762218,stimuli/164_xb.png,l,6.510147834022064,harmless,0.333,6.830508475,0.460604639,0.059965616
022,73,0,2,6,11,131,1279.4484502950218,1287.0632492918521,stimuli/225_ya.png,l,7.602657514740713,ambig,0.333,5.85,1.792876677,0.231459384
022,73,0,2,6,12,132,1287.6656488375156,1295.1752574964194,stimuli/186_xa.png,l,7.4977487766882405,harmless,0.333,6.65,0.879618561,0.113558268
022,73,0,2,6,13,133,1295.7723440606496,1304.5753064908786,stimuli/203_yb.png,l,8.791248664841987,ambig,0.333,6,1.542501327,0.200816568
022,73,0,2,6,14,134,1305.2336691788514,1315.6312621501274,stimuli/251_ya.png,l,10.385843759751879,ambig,0.333,5.655172414,1.792300532,0.235340589
022,73,0,2,6,15,135,1316.20603458595,1324.7112979428493,stimuli/328_za.png,a,8.493332582409494,awful,0.333,2.706896552,1.955725922,0.256799395
022,73,0,2,6,16,136,1325.3221785665373,1333.0953264667187,stimuli/238_xb.png,l,7.761490060889628,harmless,0.333,6.4,1.076718178,0.139003719
022,73,0,2,6,17,137,1333.6849720999016,1339.4552524079336,stimuli/331_za.png,a,5.758878074761014,awful,0.333,1.983606557,1.638004917,0.209725039
022,73,0,2,6,18,138,1340.0666891421424,1350.7592794037191,stimuli/370_za.png,a,10.680706354789436,awful,0.333,2.393442623,1.882185684,0.240989182
022,73,0,2,6,19,139,1351.3357808231376,1359.0472382736043,stimuli/296_yb.png,a,7.699753137363587,ambig,0.333,4.229508197,2.052587332,0.262806878
022,73,0,2,6,20,140,1359.6457371692522,1365.863242517691,stimuli/315_yb.png,l,6.205397737096064,ambig,0.333,5.050847458,1.915667965,0.249398726
022,73,0,2,6,21,141,1366.4381122334744,1378.7032949937275,stimuli/145_xa.png,l,12.253174004261382,harmless,0.333,6.661016949,0.822321556,0.107057148
022,73,0,2,6,22,142,1379.2681811092189,1389.831237022765,stimuli/307_za.png,a,10.55091876379447,awful,0.333,2.93220339,2.172432347,0.282826601
022,73,0,2,6,23,143,1390.3945792622399,1398.631210556312,stimuli/139_xa.png,l,8.22516525775427,harmless,0.333,6.724137931,0.790138861,0.103750315
022,73,0,2,6,24,144,1399.1935961440904,1410.295191062498,stimuli/340_za.png,a,11.0897673315485,awful,0.333,2.508474576,1.832398855,0.238558011
022,73,0,2,7,1,145,1423.2977349132998,1432.2152163159335,stimuli/232_yb.png,a,8.905733372608665,ambig,0.333,5.483333333,1.845669845,0.238274952
022,73,0,2,7,2,146,1432.7885618479922,1438.9112031047698,stimuli/128_xc.png,l,6.11099090060452,harmless,0.333,6.627118644,0.98082135,0.127692063
022,73,0,2,7,3,147,1439.5084621734568,1446.3752044059802,stimuli/147_ya.png,l,6.855157254787628,ambig,0.333,5.883333333,1.766847875,0.22809908
022,73,0,2,7,4,148,1446.9388774760882,1465.4712082877522,stimuli/330_ya.png,a,18.520481957122684,ambig,0.333,4.796610169,2.049219036,0.266785595
022,73,0,2,7,5,149,1466.0400198655552,1471.399228219525,stimuli/194_xb.png,l,5.347347290196922,harmless,0.333,6.586206897,1.026567825,0.134794959
022,73,0,2,7,6,150,1472.0209596921923,1479.4231811407371,stimuli/293_zb.png,a,7.390608901565429,awful,0.333,3.677966102,2.169066842,0.28238845
022,73,0,2,7,7,151,1480.0085440934054,1487.1191372096073,stimuli/185_xa.png,l,7.099122353771236,harmless,0.333,6.5,0.965506805,0.124646393
022,73,0,2,7,8,152,1487.7305247129989,1493.0152107232716,stimuli/106_xc.png,l,5.273465733800549,harmless,0.333,6.661016949,0.863237081,0.112383896
022,73,0,2,7,9,153,1493.5907188632991,1500.8471610010602,stimuli/288_yb.png,l,7.244679141615052,ambig,0.333,5.189655172,1.914459262,0.251380817
022,73,0,2,7,10,154,1501.426964030834,1508.775172268157,stimuli/303_zb.png,a,7.336297549016308,awful,0.333,3.620689655,2.158846233,0.283470398
022,73,0,2,7,11,155,1509.3467234382406,1517.8311121736187,stimuli/358_za.png,a,8.471983376599383,awful,0.333,3.949152542,2.112554662,0.275031191
022,73,0,2,7,12,156,1518.4387553838314,1534.151185633731,stimuli/248_zb.png,l,15.700784226006363,awful,0.333,3.288135593,1.991800844,0.259310383
022,73,0,2,7,13,157,1534.7273940317682,1540.831123595126,stimuli/154_xc.png,l,6.091815724212211,harmless,0.333,6.5,0.965506805,0.124646393
022,73,0,2,7,14,158,1541.4289923373144,1549.3671313523082,stimuli/125_xc.png,l,7.92632678814698,harmless,0.333,6.683333333,0.999858747,0.129081209
022,73,0,2,7,15,159,1549.9353706720285,1562.575115869462,stimuli/300_za.png,l,12.628277191950474,awful,0.333,3.75,2.12032137,0.273732312
022,73,0,2,7,16,160,1563.1924662000965,1573.8711245561135,stimuli/281_ya.png,l,10.666657476918772,ambig,0.333,5.881355932,1.543448286,0.200939852
022,73,0,2,7,17,161,1574.4331702548661,1581.3990990380407,stimuli/257_yb.png,l,6.953901122615207,ambig,0.333,5.620689655,1.843219782,0.242026615
022,73,0,2,7,18,162,1582.016532076348,1591.6471514699515,stimuli/210_yb.png,l,9.618876089749392,ambig,0.333,5.557377049,1.76564049,0.226067099
022,73,0,2,7,19,163,1592.2150000944966,1601.4870936691295,stimuli/200_ya.png,l,9.260205729340669,ambig,0.333,5.862068966,1.444266048,0.189641423
022,73,0,2,7,20,164,1602.0769480406889,1608.88709500822,stimuli/187_xc.png,l,6.7983174114488065,harmless,0.333,6.224137931,1.185335891,0.155642228
022,73,0,2,7,21,165,1609.466202506097,1615.8391332396423,stimuli/356_za.png,a,6.361111811303999,awful,0.333,3.033333333,2.178217796,0.281206708
022,73,0,2,7,22,166,1616.4466807453427,1635.2231408896623,stimuli/348_za.png,a,18.764452963718213,awful,0.333,3.084745763,2.119597681,0.275948114
022,73,0,2,7,23,167,1635.793748404889,1644.0310504185618,stimuli/169_xc.png,l,8.225337762269191,harmless,0.333,6.603448276,0.916508538,0.120343467
022,73,0,2,7,24,168,1644.6079626192804,1651.991073088313,stimuli/321_zb.png,a,7.371362439065706,awful,0.333,2.918032787,2.177881861,0.278849198
022,73,0,2,8,1,169,1664.076919289946,1670.5351751669077,stimuli/353_zb.png,a,6.446835132956039,awful,0.333,1.949152542,1.623361018,0.211343603
022,73,0,2,8,2,170,1671.1065341401263,1676.4790757538867,stimuli/161_xc.png,l,5.36081721453229,harmless,0.333,6.796610169,0.609682252,0.079373868
022,73,0,2,8,3,171,1677.085368466447,1687.1670631382149,stimuli/273_ya.png,l,10.06965007580584,ambig,0.333,5.551724138,1.836973233,0.241206403
022,73,0,2,8,4,172,1687.737742727215,1695.2550227169995,stimuli/149_xa.png,l,7.505370876810048,harmless,0.333,6.721311475,0.933294301,0.11949609
022,73,0,2,8,5,173,1695.8305580323795,1700.551035342156,stimuli/294_za.png,a,4.708597735268995,awful,0.333,1.557377049,1.38473331,0.177296933
022,73,0,2,8,6,174,1701.1357031567022,1706.943045941298,stimuli/298_za.png,a,5.795659345341846,awful,0.333,2.881355932,2.026418156,0.263817173
022,73,0,2,8,7,175,1707.5754211000167,1713.6390681762714,stimuli/229_za.png,a,6.052207427623216,awful,0.333,3.406779661,2.043649913,0.266060557
022,73,0,2,8,8,176,1714.2182394771953,1724.8470085826702,stimuli/268_zb.png,a,10.617012410890311,awful,0.333,2.655737705,2.048456703,0.262278005
022,73,0,2,8,9,177,1725.4211453511962,1734.1029977975995,stimuli/261_yb.png,a,8.670230447140057,ambig,0.333,5.706896552,1.901141123,0.249632059
022,73,0,2,8,10,178,1734.6986617902876,1742.1270082203555,stimuli/314_zb.png,a,7.4166141538880765,awful,0.333,1.833333333,1.451669602,0.18740974
022,73,0,2,8,11,179,1742.7100427558762,1755.5430784730124,stimuli/352_zb.png,l,12.821353459381498,awful,0.333,2.93442623,2.135952968,0.273480754
022,73,0,2,8,12,180,1756.1209571716026,1770.3991876533837,stimuli/284_ya.png,l,14.266950734599959,ambig,0.333,5.948275862,1.431750417,0.18799804
022,73,0,2,8,13,181,1770.9731176527566,1777.4469851882313,stimuli/116_xa.png,l,6.461863899487071,harmless,0.333,6.63559322,0.958030802,0.050918763
022,73,0,2,8,14,182,1778.0498069367022,1789.0790161255863,stimuli/277_yb.png,a,11.017506845004391,ambig,0.333,5.491525424,2.02886822,0.264136144
022,73,0,2,8,15,183,1789.690871911822,1798.566969954234,stimuli/220_yb.png,a,8.864549692312721,ambig,0.333,4.75,2.096203186,0.270618668
022,73,0,2,8,16,184,1799.1728077747975,1817.3509856387973,stimuli/309_ya.png,a,18.166061588097364,ambig,0.333,4.706896552,1.946734744,0.255618795
022,73,0,2,8,17,185,1817.9573744497611,1826.0149878064985,stimuli/157_xc.png,l,8.043372282059863,harmless,0.333,6.603448276,0.877389573,0.115206895
022,73,0,2,8,18,186,1826.5831731692888,1832.607041413663,stimuli/138_xc.png,l,6.011889420682564,harmless,0.333,6.661016949,0.70978796,0.092406522
022,73,0,2,8,19,187,1833.2564634053851,1844.7509377471288,stimuli/249_ya.png,a,11.482582558004651,ambig,0.333,5.327868852,1.859402337,0.238072074
022,73,0,2,8,20,188,1845.3410032200627,1851.53494397935,stimuli/117_xc.png,l,6.182369959948119,harmless,0.333,6.627118644,0.868972939,0.113130641
022,73,0,2,8,21,189,1852.121538094303,1860.2149701621966,stimuli/270_yb.png,l,8.08168679481605,ambig,0.333,5.534482759,1.912246013,0.251090203
022,73,0,2,8,22,190,1860.7820062825922,1868.062967691978,stimuli/327_zb.png,a,7.269174782501068,awful,0.333,2.502808989,1.906990248,0.101070281
022,73,0,2,8,23,191,1868.6566258274252,1882.2869277812424,stimuli/133_xa.png,l,13.618600003770553,harmless,0.333,6.568965517,1.186356193,0.1557762
022,73,0,2,8,24,192,1882.858503369731,1888.2149642545264,stimuli/130_xc.png,l,5.344592731795274,harmless,0.333,6.644067797,0.960651931,0.125066229
022,73,0,2,9,1,193,1902.275172268157,1910.5749473033939,stimuli/216_xa.png,l,8.288164457480889,harmless,0.333,6.603448276,0.877389573,0.115206895
022,73,0,2,9,2,194,1911.2503899074509,1922.550952634483,stimuli/246_ya.png,l,11.288804063224234,ambig,0.333,5.542372881,1.715266481,0.223308675
022,73,0,2,9,3,195,1923.1583162141615,1937.2549486740027,stimuli/265_yb.png,l,14.084424811706413,ambig,0.333,5.627118644,1.856008928,0.241631781
022,73,0,2,9,4,196,1937.8194803281804,1943.9748639655882,stimuli/299_za.png,a,6.143724222783931,awful,0.333,1.288135593,0.929420425,0.121000233
022,73,0,2,9,5,197,1944.569449214323,1948.7909233481041,stimuli/346_zb.png,a,4.209690657677129,awful,0.333,1.288135593,0.983499162,0.128040685
022,73,0,2,9,6,198,1949.3580287853838,1960.7189121660194,stimuli/339_ya.png,a,11.348856113909278,ambig,0.333,4.949152542,1.960152429,0.25519011
022,73,0,2,9,7,199,1961.315101549204,1970.838915442815,stimuli/237_ya.png,a,9.51164681155933,ambig,0.333,4.305084746,2.019339575,0.26289562
022,73,0,2,9,8,200,1971.465180082072,1981.478864258621,stimuli/177_xb.png,l,10.001704171299934,harmless,0.333,6.482758621,1.063614811,0.139659467
022,73,0,2,9,9,201,1982.095070860756,1990.8628951456049,stimuli/283_yb.png,l,8.756156205607112,ambig,0.333,5.949152542,1.478859402,0.192531095
022,73,0,2,9,10,202,1991.4212642926723,2000.0308798832702,stimuli/171_xa.png,l,8.597552090068348,harmless,0.333,6.465517241,1.046556882,0.137419651
022,73,0,2,9,11,203,2000.5973193271202,2006.846878219687,stimuli/308_zb.png,a,6.237680105783511,awful,0.333,1.644067797,1.471132708,0.191525165
022,73,0,2,9,12,204,2007.4192206261796,2011.470835709537,stimuli/297_za.png,a,4.0404653053265065,awful,0.333,1.898305085,1.446695584,0.188343723
022,73,0,2,9,13,205,2012.0379572944948,2023.3428692620364,stimuli/155_xb.png,l,11.292904786940198,harmless,0.333,6.655737705,0.892286312,0.114245555
022,73,0,2,9,14,206,2023.9133791034692,2029.0708292504423,stimuli/113_xb.png,l,5.14554260938894,harmless,0.333,6.733333333,0.660422737,0.085260209
022,73,0,2,9,15,207,2029.673797509633,2038.1508997015771,stimuli/274_xb.png,l,8.46530020510545,harmless,0.333,6.491525424,1.179901828,0.153610134
022,73,0,2,9,16,208,2038.7310158388573,2050.27886339213,stimuli/306_zb.png,a,11.536270846263506,awful,0.333,2.352112676,1.917055413,0.101746737
022,73,0,2,9,17,209,2050.8674590321025,2056.9268443016335,stimuli/311_za.png,a,6.0473603658610955,awful,0.333,3.116666667,1.975199339,0.254997138
022,73,0,2,9,18,210,2057.518800235004,2064.49482171383,stimuli/134_xc.png,l,6.964158839662559,harmless,0.333,6.516666667,0.965360505,0.124627505
022,73,0,2,9,19,211,2065.077779449406,2073.046790864668,stimuli/146_xa.png,l,7.95675532403402,harmless,0.333,6.442622951,1.162247681,0.148810567
022,73,0,2,9,20,212,2073.6075183610665,2079.102818203857,stimuli/364_za.png,a,5.483478951326106,awful,0.333,1.677966102,1.279017376,0.166513879
022,73,0,2,9,21,213,2079.7191638335935,2087.6548046839307,stimuli/326_zb.png,a,7.924211835546885,awful,0.333,3.389830508,2.220724867,0.289113752
022,73,0,2,9,22,214,2088.2861684462987,2092.5428031746997,stimuli/304_ya.png,a,4.2443321633618325,ambig,0.333,4.034482759,2.017167697,0.264867095
022,73,0,2,9,23,215,2093.137815746246,2104.950855905947,stimuli/198_yb.png,l,11.801219662069343,ambig,0.333,5.101694915,1.83542643,0.238952168
022,73,0,2,9,24,216,2105.598302366503,2112.718786529207,stimuli/233_yb.png,l,7.108699111209717,ambig,0.333,5.318309859,1.922973646,0.102060844
022,73,0,2,10,1,217,2121.7517088974128,2139.278812979872,stimuli/191_ya.png,l,17.51540134474635,ambig,0.333,5.517241379,2.062542966,0.270825159
022,73,0,2,10,2,218,2139.89056164003,2147.9667538903886,stimuli/368_za.png,a,8.064654140267521,awful,0.333,3.590163934,2.02794682,0.259651984
022,73,0,2,10,3,219,2148.57538289699,2154.1668039875804,stimuli/260_ya.png,a,5.579312297748402,ambig,0.333,4.966101695,2.016877936,0.262575142
022,73,0,2,10,4,220,2154.7756952955388,2162.8227760308073,stimuli/333_za.png,l,8.035638329689391,awful,0.333,3.266666667,2.185209657,0.282109354
022,73,0,2,10,5,221,2163.4254213363165,2172.5587956821546,stimuli/282_xc.png,l,9.121629860426765,harmless,0.333,6.55,0.998728005,0.128935231
022,73,0,2,10,6,222,2173.1289207361406,2181.454858562036,stimuli/262_ya.png,l,8.314376478898339,ambig,0.333,5.491525424,1.7750462,0.231091332
022,73,0,2,10,7,223,2182.024219161074,2190.7509019071585,stimuli/332_zb.png,a,8.714840980770532,awful,0.333,2.694915254,2.002190501,0.260663001
022,73,0,2,10,8,224,2191.3131870641955,2201.158788041561,stimuli/242_xb.png,l,9.83378756896127,harmless,0.333,6.576271186,0.913564256,0.118935936
022,73,0,2,10,9,225,2201.754421708116,2208.862742727215,stimuli/264_xa.png,l,7.096596226037946,harmless,0.333,6.533333333,0.947193297,0.122282129
022,73,0,2,10,10,226,2209.4365868681925,2216.710792244703,stimuli/334_za.png,a,7.262353765021544,awful,0.333,3.333333333,2.214487481,0.285889104
022,73,0,2,10,11,227,2217.290459003765,2225.0066878975485,stimuli/156_xc.png,l,7.704552543757018,harmless,0.333,6.590163934,0.955284411,0.122311635
022,73,0,2,10,12,228,2225.5890418673516,2237.006738309865,stimuli/325_yb.png,a,11.406081532419194,ambig,0.333,5.131147541,1.811770863,0.231973488
022,73,0,2,10,13,229,2237.5789964332944,2248.1907659673016,stimuli/205_yb.png,a,10.599860027199611,ambig,0.333,5.847457627,1.52918233,0.199082582
022,73,0,2,10,14,230,2248.766209910391,2254.678777691268,stimuli/372_zb.png,a,5.9008252647472546,awful,0.333,2.796610169,2.082601664,0.271131643
022,73,0,2,10,15,231,2255.255663110467,2263.390692396846,stimuli/278_xb.png,l,8.123360025580041,harmless,0.333,6.360655738,1.140654591,0.146045855
022,73,0,2,10,16,232,2263.9865446479525,2275.038883226225,stimuli/172_xb.png,l,11.0406330836704,harmless,0.333,6.482758621,1.127664553,0.14806961
022,73,0,2,10,17,233,2275.6147123506526,2282.566693474422,stimuli/316_za.png,a,6.940248059923761,awful,0.333,2.344827586,1.802062407,0.236622386
022,73,0,2,10,18,234,2283.181797701807,2289.8946856006514,stimuli/207_yb.png,a,6.7010150197311305,ambig,0.333,5.655737705,1.662179753,0.212820309
022,73,0,2,10,19,235,2290.45931453479,2299.142701404926,stimuli/329_zb.png,a,8.671600637084339,awful,0.333,2.406779661,1.992387617,0.259386774
022,73,0,2,10,20,236,2299.7072322713793,2306.2546824341407,stimuli/310_zb.png,a,6.5359033880522475,awful,0.333,3.224137931,2.102989547,0.276136056
022,73,0,2,10,21,237,2306.9185373035143,2316.006654814526,stimuli/228_ya.png,a,9.076368693378754,ambig,0.333,5.442622951,1.793735303,0.229664272
022,73,0,2,10,22,238,2316.6422697497765,2321.734675061365,stimuli/195_xc.png,l,5.080828210746404,harmless,0.333,6.637640449,1.001766915,0.05309354
022,73,0,2,10,23,239,2322.3567535122856,2330.5267464703065,stimuli/217_yb.png,l,8.157910946698394,ambig,0.333,5.169491525,2.001314588,0.260548967
022,73,0,2,10,24,240,2331.0957656049286,2339.038665035623,stimuli/175_xb.png,l,7.930883979308419,harmless,0.333,6.6,1.028409995,0.13276716
