id,age,condition,counterbalance,block,trialinblock,trial,tstart,tend,trialstim,response,RT,trialtype,ethicfreq,norm_mean,norm_sd,norm_se
002,75,0,2,0,0,practice,3.938446752727032e-06,17.65565999469254,stimuli/prac_217_1.png,a,17.63223917770665,harmless,NA,NA,NA,NA
002,75,0,2,1,1,1,5.016274094581604,15.535638695582747,stimuli/254_ya.png,a,10.507718192529865,ambig,0.333,5.983606557,1.627798137,0.208418195
002,75,0,2,1,2,2,16.084798898547888,22.631642107851803,stimuli/301_za.png,l,6.5349230780266225,awful,0.333,3.610169492,2.212947396,0.288101212
002,75,0,2,1,3,3,23.26030713657383,32.447617746074684,stimuli/184_xb.png,a,9.175415290519595,harmless,0.333,6.508474576,1.194425,0.15550089
002,75,0,2,1,4,4,33.01126910455059,41.43172174342908,stimuli/125_xc.png,a,8.408616396831349,harmless,0.333,6.683333333,0.999858747,0.129081209
002,75,0,2,1,5,5,42.02449798467569,104.63157239707652,stimuli/327_zb.png,l,62.59545320994221,awful,0.333,2.502808989,1.906990248,0.101070281
002,75,0,2,1,6,6,105.21134464407805,112.54349670314696,stimuli/251_ya.png,a,7.320795127074234,ambig,0.333,5.655172414,1.792300532,0.235340589
002,75,0,2,1,7,7,113.19119629031047,122.9354884828208,stimuli/166_xa.png,a,9.732242485973984,harmless,0.333,6.593220339,1.052397002,0.13701042
002,75,0,2,1,8,8,123.58986532851122,134.7515677025076,stimuli/344_za.png,l,11.149866131949238,awful,0.333,2.711864407,2.043077863,0.265986082
002,75,0,2,1,9,9,135.35592103551608,148.03146038739942,stimuli/234_xb.png,a,12.663887823233381,harmless,0.333,6.637931034,0.788030542,0.103473479
002,75,0,2,1,10,10,148.68725625879597,155.7994589349255,stimuli/137_xa.png,a,7.100617707474157,harmless,0.333,6.355932203,1.094858074,0.14253838
002,75,0,2,1,11,11,156.36871983634774,163.0714479261078,stimuli/193_xc.png,a,6.690532266511582,harmless,0.333,6.482758621,1.012923151,0.133003326
002,75,0,2,1,12,12,163.69408672326244,172.95147546380758,stimuli/225_ya.png,a,9.246105063823052,ambig,0.333,5.85,1.792876677,0.231459384
002,75,0,2,1,13,13,173.58082145173103,179.42341278248932,stimuli/153_xb.png,a,5.830771236331202,harmless,0.333,6.633333333,0.973664521,0.125699549
002,75,0,2,1,14,14,180.05808710760903,185.92739495553542,stimuli/277_yb.png,a,5.856777255889028,ambig,0.333,5.491525424,2.02886822,0.264136144
002,75,0,2,1,15,15,186.56757839303464,196.25540297105908,stimuli/295_za.png,l,9.675177013967186,awful,0.333,2.3,1.825432384,0.235662307
002,75,0,2,1,16,16,196.89043057570234,210.96736910345498,stimuli/310_zb.png,l,14.065072747180238,awful,0.333,3.224137931,2.102989547,0.276136056
002,75,0,2,1,17,17,211.55606667965185,215.0395594285801,stimuli/199_za.png,l,3.471743546659127,awful,0.333,3.033898305,2.189048775,0.284989876
002,75,0,2,1,18,18,215.5988099561073,219.83936927991454,stimuli/150_xc.png,a,4.2283473529387265,harmless,0.333,6.482758621,1.030097582,0.135258439
002,75,0,2,1,19,19,220.43796222715173,233.84740176110063,stimuli/173_yb.png,a,13.397958146757446,ambig,0.333,5.796610169,1.242628763,0.161776485
002,75,0,2,1,20,20,234.4691638579825,254.54330214345828,stimuli/349_za.png,l,20.062510387739167,awful,0.333,3.288135593,2.101320172,0.273568585
002,75,0,2,1,21,21,255.14091126422863,259.77532328816596,stimuli/354_zb.png,l,4.622894008993171,awful,0.333,2,1.701925887,0.221571878
002,75,0,2,1,22,22,260.40891690098215,267.4233292872086,stimuli/271_ya.png,a,7.002663183957338,ambig,0.333,5.711864407,1.771915459,0.230683744
002,75,0,2,1,23,23,268.0377567972755,277.80728267796803,stimuli/228_ya.png,a,9.758240628638305,ambig,0.333,5.442622951,1.793735303,0.229664272
002,75,0,2,1,24,24,278.4109113351442,282.2473118067719,stimuli/257_yb.png,a,3.8247761183883995,ambig,0.333,5.620689655,1.843219782,0.242026615
002,75,0,2,2,1,25,292.15556862251833,310.77528311591595,stimuli/233_yb.png,a,18.607883765129372,ambig,0.333,5.318309859,1.922973646,0.102060844
002,75,0,2,2,2,26,311.3403471985366,319.72724616061896,stimuli/215_yb.png,a,8.375064295250922,ambig,0.333,5.866666667,1.466769385,0.189359113
002,75,0,2,2,3,27,320.3730757688172,327.05521636700723,stimuli/259_xc.png,a,6.669916811981238,harmless,0.333,6.568965517,0.993170874,0.130409725
002,75,0,2,2,4,28,327.61924975563306,331.3752399504883,stimuli/294_za.png,l,3.7439621498342603,awful,0.333,1.557377049,1.38473331,0.177296933
002,75,0,2,2,5,29,332.03701203514356,338.4392426192062,stimuli/146_xa.png,a,6.391305700642988,harmless,0.333,6.442622951,1.162247681,0.148810567
002,75,0,2,2,6,30,339.0358431014465,343.855183362728,stimuli/110_xa.png,a,4.807508351514116,harmless,0.333,6.428571429,1.059281795,0.141552484
002,75,0,2,2,7,31,344.4674939524848,362.11917374341283,stimuli/284_ya.png,a,17.59393296588678,ambig,0.333,5.948275862,1.431750417,0.18799804
002,75,0,2,2,8,32,362.7790321323555,368.52718361793086,stimuli/372_zb.png,l,5.736105717602186,awful,0.333,2.796610169,2.082601664,0.271131643
002,75,0,2,2,9,33,369.16866083827335,374.2791380768176,stimuli/124_xa.png,a,5.098250695387833,harmless,0.333,6.344262295,1.181598436,0.151288177
002,75,0,2,2,10,34,374.89714485569857,381.1191209681565,stimuli/258_ya.png,a,6.210123328841291,ambig,0.333,5.627118644,1.78014243,0.231754804
002,75,0,2,2,11,35,381.73840853292495,391.6071386092808,stimuli/361_za.png,l,9.85707579087466,awful,0.333,2.416666667,1.907093508,0.246204713
002,75,0,2,2,12,36,392.1936121393228,405.879101606668,stimuli/279_ya.png,a,13.672767466399819,ambig,0.333,5.31147541,1.970964092,0.252356093
002,75,0,2,2,13,37,406.4785019373521,410.89508425537497,stimuli/129_xa.png,a,4.404970567906275,harmless,0.333,6.770491803,0.642740036,0.082294429
002,75,0,2,2,14,38,411.5023244768381,423.60711891704705,stimuli/348_za.png,l,12.092783724423498,awful,0.333,3.084745763,2.119597681,0.275948114
002,75,0,2,2,15,39,424.18114613799844,433.61502339842264,stimuli/270_yb.png,a,9.421908292220905,ambig,0.333,5.534482759,1.912246013,0.251090203
002,75,0,2,2,16,40,434.23856410197914,440.07908577413764,stimuli/305_zb.png,l,5.8289111035410315,awful,0.333,2.75,2.12830003,0.274762352
002,75,0,2,2,17,41,440.6420644442551,445.29502659640275,stimuli/332_zb.png,l,4.640988457947969,awful,0.333,2.694915254,2.002190501,0.260663001
002,75,0,2,2,18,42,445.9046893621562,459.47107164608315,stimuli/302_za.png,l,13.554438128019683,awful,0.333,3.137931034,2.188071937,0.287307921
002,75,0,2,2,19,43,460.0853979376843,467.1430049475748,stimuli/230_yb.png,l,7.045771555393003,ambig,0.333,4.98245614,1.875511626,0.248417583
002,75,0,2,2,20,44,467.7668347337749,471.87903071451,stimuli/158_xa.png,a,4.10050270461943,harmless,0.333,6.786885246,0.661179605,0.084655374
002,75,0,2,2,21,45,472.5016714808298,478.7909869219875,stimuli/179_xb.png,a,6.277680060244165,harmless,0.333,6.704918033,0.882123617,0.112944356
002,75,0,2,2,22,46,479.43311792612076,491.3109875837108,stimuli/265_yb.png,a,11.866205919883214,ambig,0.333,5.627118644,1.856008928,0.241631781
002,75,0,2,2,23,47,491.92230056249537,513.0709851576248,stimuli/204_xb.png,a,21.136461990419775,harmless,0.333,6.508474576,0.858484658,0.111765183
002,75,0,2,2,24,48,513.6893424590817,517.1429442953086,stimuli/320_za.png,l,3.4417171510867774,awful,0.333,1.423728814,1.117314975,0.14546202
002,75,0,2,3,1,49,529.0260784871643,534.79089948826,stimuli/192_za.png,l,5.753173017175868,awful,0.333,2.68852459,2.093967396,0.268105052
002,75,0,2,3,2,50,535.4252291985322,551.6789126396179,stimuli/339_ya.png,l,16.24217133386992,ambig,0.333,4.949152542,1.960152429,0.25519011
002,75,0,2,3,3,51,552.3122612803709,556.8629157335963,stimuli/357_za.png,l,4.538923367857933,awful,0.333,2.793103448,2.066937905,0.271402243
002,75,0,2,3,4,52,557.4747915178305,562.1748839927604,stimuli/186_xa.png,a,4.688677647500299,harmless,0.333,6.65,0.879618561,0.113558268
002,75,0,2,3,5,53,562.7837362242863,566.6628520094091,stimuli/346_zb.png,l,3.867565868771635,awful,0.333,1.288135593,0.983499162,0.128040685
002,75,0,2,3,6,54,567.2665090233786,571.7349037008826,stimuli/334_za.png,l,4.4567604780895635,awful,0.333,3.333333333,2.214487481,0.285889104
002,75,0,2,3,7,55,572.3647360880859,577.2149018576602,stimuli/371_zb.png,l,4.838852160610259,awful,0.333,3.131147541,2.085468851,0.267016925
002,75,0,2,3,8,56,577.8476408254355,584.2308663894655,stimuli/273_ya.png,l,6.371517715509981,ambig,0.333,5.551724138,1.836973233,0.241206403
002,75,0,2,3,9,57,584.7941428069025,590.9268593254965,stimuli/318_za.png,l,6.120645544491708,awful,0.333,3.06557377,2.197489875,0.281359747
002,75,0,2,3,10,58,591.546187062515,599.8068277862621,stimuli/115_xb.png,a,8.248670574044809,harmless,0.333,6.440677966,1.021681954,0.133011661
002,75,0,2,3,11,59,600.4097211337648,609.5828107658308,stimuli/248_zb.png,l,9.161210066988133,awful,0.333,3.288135593,1.991800844,0.259310383
002,75,0,2,3,12,60,610.2075223724823,621.5828217936214,stimuli/214_xb.png,a,11.363870809203945,harmless,0.333,6.465517241,0.940614156,0.12350869
002,75,0,2,3,13,61,622.180642409483,637.3268004849087,stimuli/309_ya.png,l,15.133156444062479,ambig,0.333,4.706896552,1.946734744,0.255618795
002,75,0,2,3,14,62,637.9024070268497,648.4227676633745,stimuli/217_yb.png,l,10.508829624741338,ambig,0.333,5.169491525,2.001314588,0.260548967
002,75,0,2,3,15,63,649.0220466896426,653.1027157231001,stimuli/116_xa.png,a,4.068977726507001,harmless,0.333,6.63559322,0.958030802,0.050918763
002,75,0,2,3,16,64,653.6724323038943,665.4147981974529,stimuli/180_xc.png,a,11.7303622670006,harmless,0.333,6.672131148,0.723908638,0.092687003
002,75,0,2,3,17,65,666.0225929535227,672.0707393978955,stimuli/297_za.png,l,6.036447654361837,awful,0.333,1.898305085,1.446695584,0.188343723
002,75,0,2,3,18,66,672.6447378682205,681.6066762345145,stimuli/189_yb.png,a,8.950130481040105,ambig,0.333,5.983333333,1.455459234,0.187898979
002,75,0,2,3,19,67,682.2187650892884,686.1506991153583,stimuli/126_xa.png,a,3.9202328730607405,harmless,0.333,6.6,0.977717855,0.126222832
002,75,0,2,3,20,68,686.7174141987925,691.3106752641033,stimuli/128_xc.png,a,4.581045943661593,harmless,0.333,6.627118644,0.98082135,0.127692063
002,75,0,2,3,21,69,691.9236825667322,733.9347283607349,stimuli/155_xb.png,a,41.99940962542314,harmless,0.333,6.655737705,0.892286312,0.114245555
002,75,0,2,3,22,70,734.5713281971402,759.2146580672124,stimuli/336_ya.png,l,24.631700396887027,ambig,0.333,5.033898305,1.884291705,0.245313885
002,75,0,2,3,23,71,759.8288752635708,767.7026252960786,stimuli/283_yb.png,a,7.861904338002205,ambig,0.333,5.949152542,1.478859402,0.192531095
002,75,0,2,3,24,72,768.3564094040776,776.3105673503596,stimuli/285_yb.png,l,7.942451673094183,ambig,0.333,4.120689655,2.119893958,0.278355714
002,75,0,2,4,1,73,789.6627606372349,804.4785984295886,stimuli/202_yb.png,a,14.80415751307737,ambig,0.333,5.431034483,1.892849601,0.248543329
002,75,0,2,4,2,74,805.1464727581479,815.2225491579156,stimuli/239_ya.png,l,10.064368551364169,ambig,0.333,5.157894737,1.925296579,0.255011762
002,75,0,2,4,3,75,815.8357518080156,819.4625657624565,stimuli/337_zb.png,l,3.615150216734037,awful,0.333,3.033333333,2.20143764,0.284204377
002,75,0,2,4,4,76,820.0814330939902,829.7025244716788,stimuli/212_ya.png,a,9.609232686343603,ambig,0.333,5.677966102,1.490668422,0.194068498
002,75,0,2,4,5,77,830.3367722620023,834.7345055228798,stimuli/328_za.png,l,4.3860065079061314,awful,0.333,2.706896552,1.955725922,0.256799395
002,75,0,2,4,6,78,835.2994829595555,845.3505174737656,stimuli/246_ya.png,a,10.039874111185782,ambig,0.333,5.542372881,1.715266481,0.223308675
002,75,0,2,4,7,79,845.9224592823302,851.1424673482543,stimuli/201_yb.png,a,5.208383712684736,ambig,0.333,5.898305085,1.626238682,0.211718243
002,75,0,2,4,8,80,851.7441055097152,855.9584721311694,stimuli/331_za.png,l,4.202149530639872,awful,0.333,1.983606557,1.638004917,0.209725039
002,75,0,2,4,9,81,856.5683727796422,866.5344740940491,stimuli/345_zb.png,a,9.954350536805578,awful,0.333,3.694915254,2.191317013,0.285285176
002,75,0,2,4,10,82,867.1580514252419,874.334476142074,stimuli/227_xa.png,a,7.164992954116315,harmless,0.333,6.180327869,1.05685377,0.135316259
002,75,0,2,4,11,83,874.9249326327117,879.0864097271115,stimuli/221_xb.png,a,4.150040211621672,harmless,0.333,6.440677966,1.133672495,0.147591588
002,75,0,2,4,12,84,879.725717252004,885.022445655195,stimuli/373_zb.png,l,5.284902794868685,awful,0.333,2.327586207,1.858011869,0.243968911
002,75,0,2,4,13,85,885.6409593133722,892.0864057886647,stimuli/278_xb.png,a,6.433735869824886,harmless,0.333,6.360655738,1.140654591,0.146045855
002,75,0,2,4,14,86,892.7155178321991,910.9984120145673,stimuli/210_yb.png,a,18.270905521931127,ambig,0.333,5.557377049,1.76564049,0.226067099
002,75,0,2,4,15,87,911.6179461267311,914.7423714074539,stimuli/161_xc.png,a,3.1121479315916076,harmless,0.333,6.796610169,0.609682252,0.079373868
002,75,0,2,4,16,88,915.3370239293436,924.6143853685353,stimuli/168_xa.png,a,9.265660680015571,harmless,0.333,6.474576271,1.164946827,0.151663159
002,75,0,2,4,17,89,925.2154311861377,934.8703373603057,stimuli/224_yb.png,a,9.643334596301429,ambig,0.333,5.881355932,1.609077116,0.209483997
002,75,0,2,4,18,90,935.4890900828177,940.6144885560498,stimuli/133_xa.png,a,5.1135393880540505,harmless,0.333,6.568965517,1.186356193,0.1557762
002,75,0,2,4,19,91,941.2405065485509,950.3423644758295,stimuli/359_za.png,l,9.090332823223434,awful,0.333,2.01754386,1.641985167,0.217486248
002,75,0,2,4,20,92,950.9763101865537,962.9103312005755,stimuli/298_za.png,l,11.922183984192088,awful,0.333,2.881355932,2.026418156,0.263817173
002,75,0,2,4,21,93,963.5476112082833,979.8623895558994,stimuli/269_za.png,a,16.302755028824322,awful,0.333,3.457627119,2.119873401,0.27598401
002,75,0,2,4,22,94,980.520364181255,985.4303310745163,stimuli/330_ya.png,l,4.898098749690689,ambig,0.333,4.796610169,2.049219036,0.266785595
002,75,0,2,4,23,95,986.0020527233137,991.0622788064647,stimuli/174_xc.png,a,5.048259478062391,harmless,0.333,6.533333333,1.111826512,0.143536185
002,75,0,2,4,24,96,991.7100611012429,995.8302840493852,stimuli/167_xb.png,a,4.108422545948997,harmless,0.333,6.590163934,0.955284411,0.122311635
002,75,0,2,5,1,97,1007.3144077389734,1014.7502825842239,stimuli/107_xa.png,a,7.4238976064370945,harmless,0.333,6.813559322,0.540580029,0.070377525
002,75,0,2,5,2,98,1015.3320138192503,1018.7662226976827,stimuli/121_xc.png,a,3.4224624329945073,harmless,0.333,6.508474576,1.006408455,0.131023221
002,75,0,2,5,3,99,1019.3998072519898,1035.6462447214872,stimuli/366_za.png,l,16.23522704804782,awful,0.333,3.689655172,2.036568291,0.267414518
002,75,0,2,5,4,100,1036.2603370688157,1054.1422172563616,stimuli/198_yb.png,l,17.870139649836347,ambig,0.333,5.101694915,1.83542643,0.238952168
002,75,0,2,5,5,101,1054.7573792883195,1083.478491697344,stimuli/342_yb.png,l,28.709532954264432,ambig,0.333,4.916666667,2.085394461,0.269223267
002,75,0,2,5,6,102,1084.0521187712438,1092.31820480444,stimuli/213_ya.png,a,8.254370307782665,ambig,0.333,5.98245614,1.597891781,0.211645937
002,75,0,2,5,7,103,1092.9209740904626,1102.526112357853,stimuli/370_za.png,l,9.59340206196066,awful,0.333,2.393442623,1.882185684,0.240989182
002,75,0,2,5,8,104,1103.1609087751713,1110.8941303613828,stimuli/268_zb.png,l,7.721048606093973,awful,0.333,2.655737705,2.048456703,0.262278005
002,75,0,2,5,9,105,1111.5440165793989,1119.798148216796,stimuli/274_xb.png,a,8.242156367748976,harmless,0.333,6.491525424,1.179901828,0.153610134
002,75,0,2,5,10,106,1120.4342844968196,1132.5261147209676,stimuli/312_yb.png,a,12.079622191842645,ambig,0.333,4.677966102,2.112692986,0.275049199
002,75,0,2,5,11,107,1133.1078435928794,1136.4780722517753,stimuli/196_xb.png,a,3.358642114792019,harmless,0.333,6.594366197,0.982313556,0.05213579
002,75,0,2,5,12,108,1137.1166822761297,1140.7741378128994,stimuli/236_yb.png,a,3.6456870360998437,ambig,0.333,5.93442623,1.49297078,0.19115532
002,75,0,2,5,13,109,1141.3832716440083,1165.7900747755775,stimuli/211_zb.png,a,24.39489993569441,awful,0.333,3.983333333,2.127237938,0.274625237
002,75,0,2,5,14,110,1166.4076676226687,1182.4620352523634,stimuli/303_zb.png,l,16.042731854948215,awful,0.333,3.620689655,2.158846233,0.283470398
002,75,0,2,5,15,111,1183.078866795986,1189.318043721607,stimuli/314_zb.png,l,6.227424572687596,awful,0.333,1.833333333,1.451669602,0.18740974
002,75,0,2,5,16,112,1189.9472455619834,1193.4700074752327,stimuli/162_xa.png,a,3.510947332601063,harmless,0.333,6.644067797,0.905209289,0.117848212
002,75,0,2,5,17,113,1194.0431753251469,1213.334140979452,stimuli/315_yb.png,a,19.278978175483644,ambig,0.333,5.050847458,1.915667965,0.249398726
002,75,0,2,5,18,114,1213.9678472320084,1217.8299508559285,stimuli/299_za.png,l,3.8495005642762408,awful,0.333,1.288135593,0.929420425,0.121000233
002,75,0,2,5,19,115,1218.4856183336815,1224.0940775072668,stimuli/197_xa.png,a,5.596669011400081,harmless,0.333,6.779661017,0.55918033,0.072799078
002,75,0,2,5,20,116,1224.6664883858757,1232.3233106189873,stimuli/219_ya.png,a,7.645078150788322,ambig,0.333,5.271186441,1.998538332,0.260187529
002,75,0,2,5,21,117,1232.8853696596343,1248.6539881200297,stimuli/358_za.png,a,15.756565603194758,awful,0.333,3.949152542,2.112554662,0.275031191
002,75,0,2,5,22,118,1249.28615049785,1253.893925561686,stimuli/156_xc.png,a,4.595918735489249,harmless,0.333,6.590163934,0.955284411,0.122311635
002,75,0,2,5,23,119,1254.5172969115665,1262.173878505011,stimuli/120_xa.png,a,7.64488437876571,harmless,0.333,6.440677966,1.054893138,0.137335389
002,75,0,2,5,24,120,1262.7478068707278,1274.0939424182288,stimuli/241_yb.png,l,11.334754984709434,ambig,0.333,5.508474576,1.442852555,0.187843403
002,75,0,2,6,1,121,1282.7962928101188,1285.933856386575,stimuli/138_xc.png,a,3.1257139436202124,harmless,0.333,6.661016949,0.70978796,0.092406522
002,75,0,2,6,2,122,1286.550337013672,1296.918130525155,stimuli/262_ya.png,a,10.356110869091935,ambig,0.333,5.491525424,1.7750462,0.231091332
002,75,0,2,6,3,123,1297.527460097568,1302.4938906668685,stimuli/141_xc.png,a,4.954665219411254,harmless,0.333,6.508474576,1.040107444,0.135410455
002,75,0,2,6,4,124,1303.112184953061,1306.0778317697113,stimuli/130_xc.png,a,2.953566390206106,harmless,0.333,6.644067797,0.960651931,0.125066229
002,75,0,2,6,5,125,1306.7016477712896,1318.4698652969673,stimuli/229_za.png,l,11.756938968901522,awful,0.333,3.406779661,2.043649913,0.266060557
002,75,0,2,6,6,126,1319.0889303389704,1327.2058091440704,stimuli/232_yb.png,l,8.10538442095276,ambig,0.333,5.483333333,1.845669845,0.238274952
002,75,0,2,6,7,127,1327.8203000631183,1331.9337941589765,stimuli/261_yb.png,l,4.101768524269573,ambig,0.333,5.706896552,1.901141123,0.249632059
002,75,0,2,6,8,128,1332.5159649257548,1343.7658154612873,stimuli/104_xc.png,a,11.2376814938616,harmless,0.333,6.745762712,0.756425814,0.098478253
002,75,0,2,6,9,129,1344.3946596898604,1348.2942176375072,stimuli/145_xa.png,a,3.8878390714526176,harmless,0.333,6.661016949,0.822321556,0.107057148
002,75,0,2,6,10,130,1348.8921642840141,1361.8218648117036,stimuli/256_zb.png,a,12.918056088266894,awful,0.333,3.051724138,2.012438634,0.264246138
002,75,0,2,6,11,131,1362.4469214270357,1370.8457448526751,stimuli/263_ya.png,l,8.387035626452416,ambig,0.333,4.983050847,2.071910042,0.269739712
002,75,0,2,6,12,132,1371.4686183817685,1377.0617573548807,stimuli/355_zb.png,l,5.58101640525274,awful,0.333,3.183333333,2.070713188,0.267327923
002,75,0,2,6,13,133,1377.6247281481046,1383.8217312981142,stimuli/367_zb.png,l,6.185389036778361,awful,0.333,3.413793103,2.086165649,0.27392697
002,75,0,2,6,14,134,1384.3929744245252,1391.9177189564798,stimuli/363_zb.png,l,7.513120572664775,awful,0.333,2.433333333,2.019956927,0.260775318
002,75,0,2,6,15,135,1392.559614440892,1412.3097757206997,stimuli/368_za.png,l,19.738473911304027,awful,0.333,3.590163934,2.02794682,0.259651984
002,75,0,2,6,16,136,1412.9439270189032,1422.7337300409563,stimuli/218_yb.png,a,9.77774937718641,ambig,0.333,5.850282486,1.552723069,0.0825263
002,75,0,2,6,17,137,1423.372222305392,1434.0456561585888,stimuli/280_xb.png,a,10.661500724963844,harmless,0.333,6.333333333,1.068289726,0.137915611
002,75,0,2,6,18,138,1434.6596291707829,1438.4936563287629,stimuli/194_xb.png,a,3.8220739436801523,harmless,0.333,6.586206897,1.026567825,0.134794959
002,75,0,2,6,19,139,1439.0732997881714,1450.1896220893832,stimuli/250_yb.png,a,11.104346243781038,ambig,0.333,5.950819672,1.585625318,0.203018519
002,75,0,2,6,20,140,1450.7956110633677,1455.5176147449529,stimuli/317_za.png,l,4.710282836225815,awful,0.333,3.65,2.03215674,0.262350307
002,75,0,2,6,21,141,1456.1205498400377,1464.261624944047,stimuli/272_xb.png,a,8.128228647867218,harmless,0.333,6.355932203,1.029943284,0.134087194
002,75,0,2,6,22,142,1464.828324273578,1473.6296271936735,stimuli/247_ya.png,a,8.789353250409476,ambig,0.333,4.65,2.081598147,0.268733165
002,75,0,2,6,23,143,1474.2031719537918,1493.6375986288767,stimuli/335_yb.png,a,19.422787355724722,ambig,0.333,5.016949153,2.046793332,0.266469795
002,75,0,2,6,24,144,1494.2044988196576,1502.877573879552,stimuli/365_zb.png,l,8.660825673723593,awful,0.333,2.966101695,2.165291266,0.281896912
002,75,0,2,7,1,145,1512.6331836194731,1519.1895834925817,stimuli/369_za.png,l,6.544560480164364,awful,0.333,2.948275862,2.055565093,0.26990892
002,75,0,2,7,2,146,1519.7844987093704,1523.6375521550654,stimuli/306_zb.png,l,3.8410313084023073,awful,0.333,2.352112676,1.917055413,0.101746737
002,75,0,2,7,3,147,1524.1978782749502,1532.6535639483482,stimuli/152_xa.png,a,8.443493394763209,harmless,0.333,6.576271186,0.968528743,0.126091702
002,75,0,2,7,4,148,1533.240938990959,1543.0535437046783,stimuli/338_zb.png,l,9.801124901860021,awful,0.333,3.310344828,2.137443107,0.28066003
002,75,0,2,7,5,149,1543.660782744526,1547.941521803732,stimuli/308_zb.png,l,4.268983555375598,awful,0.333,1.644067797,1.471132708,0.191525165
002,75,0,2,7,6,150,1548.576362331747,1565.0215055458248,stimuli/293_zb.png,a,16.433345962665044,awful,0.333,3.677966102,2.169066842,0.28238845
002,75,0,2,7,7,151,1565.591975159361,1572.6295476368396,stimuli/231_xb.png,a,7.025604690890759,harmless,0.333,6.62295082,1.05141071,0.134619347
002,75,0,2,7,8,152,1573.2141630032565,1577.3414535109187,stimuli/147_ya.png,a,4.116125772241503,ambig,0.333,5.883333333,1.766847875,0.22809908
002,75,0,2,7,9,153,1577.9088527041022,1583.5015241825022,stimuli/364_za.png,l,5.5806800610153005,awful,0.333,1.677966102,1.279017376,0.166513879
002,75,0,2,7,10,154,1584.1254327378701,1589.3494540905813,stimuli/353_zb.png,l,5.212254821206443,awful,0.333,1.949152542,1.623361018,0.211343603
002,75,0,2,7,11,155,1589.9170257882215,1621.0535110154888,stimuli/172_xb.png,a,31.124823458725587,harmless,0.333,6.482758621,1.127664553,0.14806961
002,75,0,2,7,12,156,1621.6435007991968,1633.9174113631016,stimuli/177_xb.png,a,12.262162937084213,harmless,0.333,6.482758621,1.063614811,0.139659467
002,75,0,2,7,13,157,1634.5108370558592,1641.8214075569995,stimuli/289_yb.png,a,7.298902431037277,ambig,0.333,5.305084746,1.714584873,0.223219937
002,75,0,2,7,14,158,1642.3850750630954,1652.5253569619963,stimuli/325_yb.png,l,10.128203835571185,ambig,0.333,5.131147541,1.811770863,0.231973488
002,75,0,2,7,15,159,1653.1412306730635,1659.0133430955466,stimuli/222_ya.png,a,5.85987839626614,ambig,0.333,5.931034483,1.543089507,0.202617579
002,75,0,2,7,16,160,1659.5847886585398,1662.0293986056931,stimuli/195_xc.png,a,2.4329926831414923,harmless,0.333,6.637640449,1.001766915,0.05309354
002,75,0,2,7,17,161,1662.5963165195426,1668.8133809834253,stimuli/118_xb.png,a,6.205152603331953,harmless,0.333,6.474576271,0.953323265,0.124112118
002,75,0,2,7,18,162,1669.434097813908,1674.3733624884626,stimuli/267_ya.png,a,4.927413072320633,ambig,0.333,5.103448276,1.898195405,0.249245267
002,75,0,2,7,19,163,1674.9995667698095,1681.7252785079181,stimuli/117_xc.png,a,6.7141326770652086,harmless,0.333,6.627118644,0.868972939,0.113130641
002,75,0,2,7,20,164,1682.2867727739504,1691.0452823991654,stimuli/340_za.png,l,8.746433924883604,awful,0.333,2.508474576,1.832398855,0.238558011
002,75,0,2,7,21,165,1691.6243205178762,1717.4293279497651,stimuli/237_ya.png,a,25.79332715261262,ambig,0.333,4.305084746,2.019339575,0.26289562
002,75,0,2,7,22,166,1717.9962738266913,1721.45327651978,stimuli/205_yb.png,a,3.4449825250776485,ambig,0.333,5.847457627,1.52918233,0.199082582
002,75,0,2,7,23,167,1722.028395087109,1725.0692242739024,stimuli/135_xa.png,a,3.028690471313894,harmless,0.333,6.508474576,1.179901828,0.153610134
002,75,0,2,7,24,168,1725.68690573622,1744.9252851245692,stimuli/249_ya.png,l,19.22633992182091,ambig,0.333,5.327868852,1.859402337,0.238072074
002,75,0,2,8,1,169,1754.3325096708722,1757.7572158423718,stimuli/164_xb.png,a,3.41276752948761,harmless,0.333,6.830508475,0.460604639,0.059965616
002,75,0,2,8,2,170,1758.3195316703059,1770.5172807639465,stimuli/260_ya.png,l,12.185630070278421,ambig,0.333,4.966101695,2.016877936,0.262575142
002,75,0,2,8,3,171,1771.0932606714778,1775.2691623612773,stimuli/109_xb.png,a,4.163917755591683,harmless,0.333,6.644067797,0.97843492,0.127381377
002,75,0,2,8,4,172,1775.8418493256904,1783.7652471420588,stimuli/132_xc.png,a,7.911365439067595,harmless,0.333,6.627118644,0.692280217,0.090127208
002,75,0,2,8,5,173,1784.3312273096526,1789.021172352368,stimuli/207_yb.png,l,4.678111557499506,ambig,0.333,5.655737705,1.662179753,0.212820309
002,75,0,2,8,6,174,1789.623572211247,1794.9731720247073,stimuli/282_xc.png,a,5.337704494479112,harmless,0.333,6.55,0.998728005,0.128935231
002,75,0,2,8,7,175,1795.6070661416743,1799.9411547395866,stimuli/324_za.png,l,4.322354361764155,awful,0.333,2.491525424,1.994586478,0.259673041
002,75,0,2,8,8,176,1800.596772986697,1805.6691570837284,stimuli/360_za.png,l,5.060635288711637,awful,0.333,3.2,2.207844259,0.285031468
002,75,0,2,8,9,177,1806.3070278598461,1811.149204471265,stimuli/190_xc.png,a,4.830619999556802,harmless,0.333,6.517241379,1.046990328,0.137476565
002,75,0,2,8,10,178,1811.741659334628,1816.1971476913895,stimuli/333_za.png,l,4.443894723546691,awful,0.333,3.266666667,2.185209657,0.282109354
002,75,0,2,8,11,179,1816.7629616559716,1828.4531378861284,stimuli/134_xc.png,a,11.678929180954583,harmless,0.333,6.516666667,0.965360505,0.124627505
002,75,0,2,8,12,180,1829.0580678092083,1833.6611265718238,stimuli/290_zb.png,l,4.591412354027852,awful,0.333,2.586206897,2.026443456,0.266085062
002,75,0,2,8,13,181,1834.2667614785023,1875.8931559873745,stimuli/151_xa.png,a,41.61461222358048,harmless,0.333,6.610169492,0.947172729,0.123311386
002,75,0,2,8,14,182,1876.4907391143497,1882.0130819758633,stimuli/242_xb.png,a,5.510884711169638,harmless,0.333,6.576271186,0.913564256,0.118935936
002,75,0,2,8,15,183,1882.6566765102325,1890.165020917193,stimuli/253_ya.png,a,7.496550700161606,ambig,0.333,5.491803279,1.849531029,0.236808182
002,75,0,2,8,16,184,1890.7462507867021,1899.9732389784185,stimuli/287_ya.png,a,9.215113352634944,ambig,0.333,5.950819672,1.407435369,0.180203633
002,75,0,2,8,17,185,1900.561058278894,1913.9970118934289,stimuli/351_zb.png,l,13.42417723685503,awful,0.333,3.06779661,2.033040926,0.264679384
002,75,0,2,8,18,186,1914.6381748249987,1918.4209949643118,stimuli/243_ya.png,a,3.7708007589681074,ambig,0.333,5.830508475,1.652088985,0.215083666
002,75,0,2,8,19,187,1918.9939690422034,1929.925024398719,stimuli/323_yb.png,l,10.919194695889018,ambig,0.333,4.603448276,1.955107169,0.256718148
002,75,0,2,8,20,188,1930.5116408948088,1936.2769951628288,stimuli/352_zb.png,l,5.7534368936903775,awful,0.333,2.93442623,2.135952968,0.273480754
002,75,0,2,8,21,189,1936.8913789559156,1954.348946817452,stimuli/191_ya.png,l,17.445943508297205,ambig,0.333,5.517241379,2.062542966,0.270825159
002,75,0,2,8,22,190,1954.9263079416705,1966.8769287604373,stimuli/286_ya.png,l,11.938769216649234,ambig,0.333,5.06779661,1.779814082,0.231712057
002,75,0,2,8,23,191,1967.442177950521,1973.0129575206665,stimuli/307_za.png,l,5.55889961111825,awful,0.333,2.93220339,2.172432347,0.282826601
002,75,0,2,8,24,192,1973.58092700236,1976.5328766562743,stimuli/292_zb.png,l,2.9401082918047905,awful,0.333,2.396551724,1.955107169,0.256718148
002,75,0,2,9,1,193,1985.1720892643789,1993.7649111917708,stimuli/266_zb.png,l,8.581157008069567,awful,0.333,3.491525424,1.888010094,0.245797978
002,75,0,2,9,2,194,1994.3294022290502,2001.9568672102178,stimuli/159_xa.png,a,7.615612197550945,harmless,0.333,6.389830508,1.174689235,0.152931512
002,75,0,2,9,3,195,2002.5174599636812,2006.6529542753706,stimuli/304_ya.png,l,4.123491472913884,ambig,0.333,4.034482759,2.017167697,0.264867095
002,75,0,2,9,4,196,2007.2115073023597,2012.1008784333244,stimuli/216_xa.png,a,4.877363959909417,harmless,0.333,6.603448276,0.877389573,0.115206895
002,75,0,2,9,5,197,2012.7197174079483,2023.2448731147451,stimuli/200_ya.png,a,10.51381492242217,ambig,0.333,5.862068966,1.444266048,0.189641423
002,75,0,2,9,6,198,2023.8690179775003,2030.0048651748803,stimuli/322_za.png,l,6.12414210580755,awful,0.333,2.406779661,1.975004531,0.257123689
002,75,0,2,9,7,199,2030.5696827101056,2034.6768221070524,stimuli/252_zb.png,l,4.095217296388,awful,0.333,2.711864407,1.983125776,0.258180985
002,75,0,2,9,8,200,2035.2348808577517,2041.452834231197,stimuli/220_yb.png,l,6.2058658577734604,ambig,0.333,4.75,2.096203186,0.270618668
002,75,0,2,9,9,201,2042.113106551813,2046.7167970427545,stimuli/329_zb.png,l,4.591474581626244,awful,0.333,2.406779661,1.992387617,0.259386774
002,75,0,2,9,10,202,2047.2924098861404,2053.412803369458,stimuli/300_za.png,l,6.108609228744172,awful,0.333,3.75,2.12032137,0.273732312
002,75,0,2,9,11,203,2053.9842654740205,2059.860820474918,stimuli/119_xc.png,a,5.864800678566098,harmless,0.333,6.694915254,0.914523379,0.119060803
002,75,0,2,9,12,204,2060.4452251340263,2065.708753927611,stimuli/111_xa.png,a,5.250990718603134,harmless,0.333,6.590163934,0.863655973,0.110579816
002,75,0,2,9,13,205,2066.27698177204,2068.612759573851,stimuli/112_xc.png,a,2.3237584214657545,harmless,0.333,6.706896552,0.749470472,0.098410294
002,75,0,2,9,14,206,2069.1748379128985,2076.2448250656016,stimuli/157_xc.png,a,7.0579862830927595,harmless,0.333,6.603448276,0.877389573,0.115206895
002,75,0,2,9,15,207,2076.81082374393,2086.372772901552,stimuli/245_yb.png,l,9.550053444807418,ambig,0.333,4.949152542,2.096168334,0.272897873
002,75,0,2,9,16,208,2086.9793963606935,2096.8207277794136,stimuli/350_ya.png,l,9.829573551774956,ambig,0.333,4.915254237,2.02814792,0.264042369
002,75,0,2,9,17,209,2097.458962862729,2103.0848217415623,stimuli/296_yb.png,l,5.613537025055848,ambig,0.333,4.229508197,2.052587332,0.262806878
002,75,0,2,9,18,210,2103.6540255354485,2120.3808203489752,stimuli/223_yb.png,a,16.714902251493186,ambig,0.333,5.542372881,1.77455224,0.231027024
002,75,0,2,9,19,211,2121.0154923109803,2130.8847536850953,stimuli/170_xc.png,a,9.85746648570057,harmless,0.333,6.583333333,1.062323432,0.137145365
002,75,0,2,9,20,212,2131.462223116774,2150.9727403699653,stimuli/288_yb.png,l,19.498683767975308,ambig,0.333,5.189655172,1.914459262,0.251380817
002,75,0,2,9,21,213,2151.5668021233287,2158.5166962969815,stimuli/313_zb.png,l,6.937762941117398,awful,0.333,2.101694915,1.688652955,0.219843889
002,75,0,2,9,22,214,2159.078497368726,2163.2366279569687,stimuli/356_za.png,l,4.146265595336445,awful,0.333,3.033333333,2.178217796,0.281206708
002,75,0,2,9,23,215,2163.797251824173,2168.596608359134,stimuli/169_xc.png,a,4.787464760593139,harmless,0.333,6.603448276,0.916508538,0.120343467
002,75,0,2,9,24,216,2169.1707600353984,2174.7566731231054,stimuli/343_zb.png,l,5.573956328793429,awful,0.333,3.103448276,2.141401862,0.28117984
002,75,0,2,10,1,217,2183.3713593896246,2187.100637005875,stimuli/311_za.png,l,3.7176993429893628,awful,0.333,3.116666667,1.975199339,0.254997138
002,75,0,2,10,2,218,2187.7160763052525,2196.732611913234,stimuli/235_ya.png,a,9.004849027143791,ambig,0.333,5.694915254,1.567495667,0.204070554
002,75,0,2,10,3,219,2197.320221294067,2200.612594552571,stimuli/362_zb.png,l,3.2806457177503034,awful,0.333,1.474576271,1.222715071,0.159183944
002,75,0,2,10,4,220,2201.2119724339573,2204.7246168473503,stimuli/316_za.png,l,3.5004214148502797,awful,0.333,2.344827586,1.802062407,0.236622386
002,75,0,2,10,5,221,2205.295034079463,2209.940634469618,stimuli/326_zb.png,l,4.633757058763877,awful,0.333,3.389830508,2.220724867,0.289113752
002,75,0,2,10,6,222,2210.5144561032066,2227.6766452704323,stimuli/208_xb.png,a,17.150322205154225,harmless,0.333,6.216666667,1.165778516,0.150501359
002,75,0,2,10,7,223,2228.234155000304,2235.564579652506,stimuli/341_zb.png,l,7.318172115250491,awful,0.333,3.603448276,2.15975677,0.283589957
002,75,0,2,10,8,224,2236.1363115413114,2241.7246003057808,stimuli/281_ya.png,a,5.57627923018299,ambig,0.333,5.881355932,1.543448286,0.200939852
002,75,0,2,10,9,225,2242.2818788484437,2245.9966168662068,stimuli/171_xa.png,a,3.7029746370390058,harmless,0.333,6.465517241,1.046556882,0.137419651
002,75,0,2,10,10,226,2246.583846579888,2255.308564645471,stimuli/319_ya.png,l,8.713118918589316,ambig,0.333,4.216666667,2.108028774,0.272145344
002,75,0,2,10,11,227,2255.868169634021,2268.7564970741514,stimuli/291_za.png,l,12.876314755063504,awful,0.333,2.593220339,1.830005126,0.238246374
002,75,0,2,10,12,228,2269.3700447330484,2277.7804956625914,stimuli/275_yb.png,l,8.398120017373003,ambig,0.333,4.836065574,2.138382004,0.27379176
002,75,0,2,10,13,229,2278.356501170201,2284.764511044603,stimuli/209_ya.png,l,6.395967651042156,ambig,0.333,5.603448276,1.825161903,0.239655499
002,75,0,2,10,14,230,2285.387824499281,2291.540508990409,stimuli/182_xb.png,a,6.140853762859479,harmless,0.333,6.542372881,0.988241802,0.128658124
002,75,0,2,10,15,231,2292.1353647365468,2303.204474795144,stimuli/226_yb.png,a,11.05726593954023,ambig,0.333,5.683333333,1.712285287,0.22105508
002,75,0,2,10,16,232,2303.7709346666234,2306.804456835729,stimuli/143_xb.png,a,3.0211589615792036,harmless,0.333,6.655172414,0.738697862,0.096995781
002,75,0,2,10,17,233,2307.391170217772,2321.9135875160573,stimuli/347_zb.png,l,14.510877228109166,awful,0.333,3.796610169,2.147810923,0.279621165
002,75,0,2,10,18,234,2322.482949241996,2327.8444786390755,stimuli/188_xa.png,a,5.349895591614768,harmless,0.333,6.655172414,0.806807095,0.105938962
002,75,0,2,10,19,235,2328.4176307350863,2331.844432559097,stimuli/114_xc.png,a,3.4147032806649804,harmless,0.333,6.644067797,0.97843492,0.127381377
002,75,0,2,10,20,236,2332.420335666742,2337.292502046097,stimuli/321_zb.png,l,4.860232069622725,awful,0.333,2.918032787,2.177881861,0.278849198
002,75,0,2,10,21,237,2337.887878456153,2343.444432716584,stimuli/185_xa.png,a,5.543498672312126,harmless,0.333,6.5,0.965506805,0.124646393
002,75,0,2,10,22,238,2344.0042590465164,2354.180456514354,stimuli/276_ya.png,l,10.164207625901327,ambig,0.333,5.186440678,1.804922162,0.234980851
002,75,0,2,10,23,239,2354.7495579083916,2363.764380681794,stimuli/181_xa.png,a,9.003168488037772,harmless,0.333,6.666666667,0.950765377,0.122743282
002,75,0,2,10,24,240,2364.389390429482,2369.3563893180108,stimuli/203_yb.png,a,4.955855420907028,ambig,0.333,6,1.542501327,0.200816568
