id,age,condition,counterbalance,block,trialinblock,trial,tstart,tend,trialstim,response,RT,trialtype,ethicfreq,norm_mean,norm_sd,norm_se
136,20,1,2,0,0,practice,5.5138953030109406e-06,11.60841396683827,stimuli/prac_217_1.png,l,11.594053556676954,harmless,NA,NA,NA,NA
136,20,1,2,1,1,1,4.84323435719125,12.16014444688335,stimuli/177_xb.png,l,7.304954502964392,harmless,0.333,6.482758621,1.063614811,0.139659467
136,20,1,2,1,2,2,12.721517062978819,23.12811138271354,stimuli/104_xc.png,l,10.394713563611731,harmless,0.333,6.745762712,0.756425814,0.098478253
136,20,1,2,1,3,3,23.691228736191988,34.08013464813121,stimuli/361_za.png,a,10.376994829624891,awful,0.333,2.416666667,1.907093508,0.246204713
136,20,1,2,1,4,4,34.64262775564566,39.49606705456972,stimuli/179_xb.png,l,4.841474259737879,harmless,0.333,6.704918033,0.882123617,0.112944356
136,20,1,2,1,5,5,40.05088410526514,46.512082011438906,stimuli/255_xb.png,l,6.449797248234972,harmless,0.333,6.770491803,0.642740036,0.082294429
136,20,1,2,1,6,6,47.055175844347104,69.95209415745921,stimuli/277_yb.png,a,22.885042677167803,ambig,0.333,5.491525424,2.02886822,0.264136144
136,20,1,2,1,7,7,70.50972326821648,78.93606423470192,stimuli/319_ya.png,a,8.414336542831734,ambig,0.333,4.216666667,2.108028774,0.272145344
136,20,1,2,1,8,8,79.48114895890467,91.36006024270318,stimuli/301_za.png,a,11.866859992500395,awful,0.333,3.610169492,2.212947396,0.288101212
136,20,1,2,1,9,9,91.9355494780466,100.20810779090971,stimuli/308_zb.png,a,8.260659833671525,awful,0.333,1.644067797,1.471132708,0.191525165
136,20,1,2,1,10,10,100.77698238403536,106.79205919988453,stimuli/232_yb.png,l,6.002441057236865,ambig,0.333,5.483333333,1.845669845,0.238274952
136,20,1,2,1,11,11,107.34445606730878,116.22405815683305,stimuli/217_yb.png,l,8.867663438199088,ambig,0.333,5.169491525,2.001314588,0.260548967
136,20,1,2,1,12,12,116.80684929573908,127.23202920448966,stimuli/365_zb.png,a,10.41380682005547,awful,0.333,2.966101695,2.165291266,0.281896912
136,20,1,2,1,13,13,127.7814450522419,133.42404445097782,stimuli/264_xa.png,l,5.6306426303926855,harmless,0.333,6.533333333,0.947193297,0.122282129
136,20,1,2,1,14,14,133.97186207212508,147.36006221198477,stimuli/371_zb.png,l,13.37633868237026,awful,0.333,3.131147541,2.085468851,0.267016925
136,20,1,2,1,15,15,147.91372726322152,154.21604260476306,stimuli/220_yb.png,l,6.29027429013513,ambig,0.333,4.75,2.096203186,0.270618668
136,20,1,2,1,16,16,154.76912043173797,161.14408577326685,stimuli/251_ya.png,l,6.362927047070116,ambig,0.333,5.655172414,1.792300532,0.235340589
136,20,1,2,1,17,17,161.7068852931261,168.14397707185708,stimuli/133_xa.png,l,6.4249940135050565,harmless,0.333,6.568965517,1.186356193,0.1557762
136,20,1,2,1,18,18,168.70700502232648,178.34402007982135,stimuli/302_za.png,a,9.625342251965776,awful,0.333,3.137931034,2.188071937,0.287307921
136,20,1,2,1,19,19,178.94232953572646,185.86401681881398,stimuli/310_zb.png,a,6.910230305278674,awful,0.333,3.224137931,2.102989547,0.276136056
136,20,1,2,1,20,20,186.4246297061909,193.02405571495183,stimuli/194_xb.png,l,6.587376686744392,harmless,0.333,6.586206897,1.026567825,0.134794959
136,20,1,2,1,21,21,193.5837922950741,201.85603789426386,stimuli/352_zb.png,a,8.259525951230898,awful,0.333,2.93442623,2.135952968,0.273480754
136,20,1,2,1,22,22,202.40880418918096,213.10406275698915,stimuli/284_ya.png,l,10.683241934748366,ambig,0.333,5.948275862,1.431750417,0.18799804
136,20,1,2,1,23,23,213.66183325834572,221.4159552496858,stimuli/198_yb.png,l,7.742071093991399,ambig,0.333,5.101694915,1.83542643,0.238952168
136,20,1,2,1,24,24,221.97225237335078,229.43999914941378,stimuli/122_xa.png,l,7.455745503073558,harmless,0.333,6.457627119,1.039264227,0.135300678
136,20,1,2,2,1,25,240.39749254053459,249.04799130698666,stimuli/203_yb.png,l,8.638632188783959,ambig,0.333,6,1.542501327,0.200816568
136,20,1,2,2,2,26,249.61279668402858,257.29594842833467,stimuli/235_ya.png,l,7.670873203780502,ambig,0.333,5.694915254,1.567495667,0.204070554
136,20,1,2,2,3,27,257.8382833201904,264.0559647176415,stimuli/162_xa.png,l,6.205938881263137,harmless,0.333,6.644067797,0.905209289,0.117848212
136,20,1,2,2,4,28,264.62667463277467,273.71197260101326,stimuli/343_zb.png,a,9.073453839868307,awful,0.333,3.103448276,2.141401862,0.28117984
136,20,1,2,2,5,29,274.26593933836557,282.4399420416448,stimuli/314_zb.png,a,8.162092014914379,awful,0.333,1.833333333,1.451669602,0.18740974
136,20,1,2,2,6,30,282.9909738393035,294.95998013438657,stimuli/266_zb.png,l,11.956882142461836,awful,0.333,3.491525424,1.888010094,0.245797978
136,20,1,2,2,7,31,295.5194843453355,302.35194622911513,stimuli/108_xb.png,l,6.820383416954428,harmless,0.333,6.568965517,1.077880782,0.141532681
136,20,1,2,2,8,32,302.91406085086055,309.15198002103716,stimuli/223_yb.png,l,6.225847792811692,ambig,0.333,5.542372881,1.77455224,0.231027024
136,20,1,2,2,9,33,309.70703101623803,316.1519500887953,stimuli/206_xa.png,l,6.432777984533459,harmless,0.333,6.325842697,1.136094431,0.060212884
136,20,1,2,2,10,34,316.7068971085828,323.0639428545255,stimuli/173_yb.png,l,6.344882208621129,ambig,0.333,5.796610169,1.242628763,0.161776485
136,20,1,2,2,11,35,323.6172514753416,329.23191341385245,stimuli/316_za.png,a,5.602481859503314,awful,0.333,2.344827586,1.802062407,0.236622386
136,20,1,2,2,12,36,329.78519997932017,334.84791521611623,stimuli/209_ya.png,l,5.050559182651341,ambig,0.333,5.603448276,1.825161903,0.239655499
136,20,1,2,2,13,37,335.40962299495004,341.15987190557644,stimuli/143_xb.png,l,5.738153902348131,harmless,0.333,6.655172414,0.738697862,0.096995781
136,20,1,2,2,14,38,341.7243216398638,350.2799381976947,stimuli/118_xb.png,l,8.543809057213366,harmless,0.333,6.474576271,0.953323265,0.124112118
136,20,1,2,2,15,39,350.8322574775666,358.17592073301785,stimuli/219_ya.png,l,7.331976271700114,ambig,0.333,5.271186441,1.998538332,0.260187529
136,20,1,2,2,16,40,358.7376387519762,366.34389444300905,stimuli/353_zb.png,a,7.594258750556037,awful,0.333,1.949152542,1.623361018,0.211343603
136,20,1,2,2,17,41,366.89379353960976,374.06390859000385,stimuli/197_xa.png,l,7.1582409895490855,harmless,0.333,6.779661017,0.55918033,0.072799078
136,20,1,2,2,18,42,374.61330947163515,381.56788288918324,stimuli/281_ya.png,l,6.942491406342015,ambig,0.333,5.881355932,1.543448286,0.200939852
136,20,1,2,2,19,43,382.1243497603573,388.86390220955946,stimuli/182_xb.png,l,6.727554327109829,harmless,0.333,6.542372881,0.988241802,0.128658124
136,20,1,2,2,20,44,389.41936792456545,407.8159018440638,stimuli/373_zb.png,a,18.384859144920483,awful,0.333,2.327586207,1.858011869,0.243968911
136,20,1,2,2,21,45,408.37432691734284,417.0639247377403,stimuli/268_zb.png,a,8.677759993588552,awful,0.333,2.655737705,2.048456703,0.262278005
136,20,1,2,2,22,46,417.6255053044297,428.00782729382627,stimuli/210_yb.png,l,10.370265184203163,ambig,0.333,5.557377049,1.76564049,0.226067099
136,20,1,2,2,23,47,428.563490325585,435.1918632220477,stimuli/324_za.png,a,6.6165228604804724,awful,0.333,2.491525424,1.994586478,0.259673041
136,20,1,2,2,24,48,435.751786879031,445.49600600847043,stimuli/165_xb.png,l,9.731985487509519,harmless,0.333,6.557377049,1.008705278,0.129151477
136,20,1,2,3,1,49,454.82344990130514,467.168020183919,stimuli/278_xb.png,l,12.333237366285175,harmless,0.333,6.360655738,1.140654591,0.146045855
136,20,1,2,3,2,50,467.7365474049002,479.5518580863718,stimuli/229_za.png,l,11.803279870189726,awful,0.333,3.406779661,2.043649913,0.266060557
136,20,1,2,3,3,51,480.1145969538484,489.26381650869735,stimuli/253_ya.png,a,9.13758574007079,ambig,0.333,5.491803279,1.849531029,0.236808182
136,20,1,2,3,4,52,489.85246019787155,499.35992751666345,stimuli/359_za.png,a,9.495801208773628,awful,0.333,2.01754386,1.641985167,0.217486248
136,20,1,2,3,5,53,499.9951875966508,509.0878024343401,stimuli/318_za.png,a,9.080810881452635,awful,0.333,3.06557377,2.197489875,0.281359747
136,20,1,2,3,6,54,509.64187944843434,515.1758392069023,stimuli/317_za.png,a,5.521468147402629,awful,0.333,3.65,2.03215674,0.262350307
136,20,1,2,3,7,55,515.7353024578188,521.4160718279891,stimuli/163_xa.png,l,5.668889795430005,harmless,0.333,6.627118644,0.963082427,0.125382652
136,20,1,2,3,8,56,521.969104756834,529.0558087546378,stimuli/287_ya.png,l,7.074906737077981,ambig,0.333,5.950819672,1.407435369,0.180203633
136,20,1,2,3,9,57,529.615011279704,534.9758493681438,stimuli/186_xa.png,l,5.3495024151634425,harmless,0.333,6.65,0.879618561,0.113558268
136,20,1,2,3,10,58,535.5352373945061,544.0957612725906,stimuli/233_yb.png,l,8.548546235775575,ambig,0.333,5.318309859,1.922973646,0.102060844
136,20,1,2,3,11,59,544.6432579092216,550.183770476142,stimuli/164_xb.png,l,5.528493570862338,harmless,0.333,6.830508475,0.460604639,0.059965616
136,20,1,2,3,12,60,550.7381030963734,558.3117459819186,stimuli/250_yb.png,l,7.5617345604114234,ambig,0.333,5.950819672,1.585625318,0.203018519
136,20,1,2,3,13,61,558.8686216652859,570.00775049394,stimuli/357_za.png,a,11.12710786331445,awful,0.333,2.793103448,2.066937905,0.271402243
136,20,1,2,3,14,62,570.6488331921864,577.9918265156448,stimuli/351_zb.png,a,7.331295705866069,awful,0.333,3.06779661,2.033040926,0.264679384
136,20,1,2,3,15,63,578.5434175743721,584.7837852847297,stimuli/193_xc.png,l,6.228288062149659,harmless,0.333,6.482758621,1.012923151,0.133003326
136,20,1,2,3,16,64,585.3347383129876,590.9277942581102,stimuli/125_xc.png,l,5.581036161398515,harmless,0.333,6.683333333,0.999858747,0.129081209
136,20,1,2,3,17,65,591.4900987136643,599.3117999387905,stimuli/363_zb.png,a,7.80980156455189,awful,0.333,2.433333333,2.019956927,0.260775318
136,20,1,2,3,18,66,599.8535302772652,605.2878647407051,stimuli/201_yb.png,l,5.422507270472124,ambig,0.333,5.898305085,1.626238682,0.211718243
136,20,1,2,3,19,67,605.8401166729163,621.6078038993292,stimuli/350_ya.png,l,15.755663898075,ambig,0.333,4.915254237,2.02814792,0.264042369
136,20,1,2,3,20,68,622.167696442455,630.0797112637665,stimuli/101_xa.png,l,7.899993855971843,harmless,0.333,6.508522727,1.13475832,0.060482822
136,20,1,2,3,21,69,630.6348611142021,635.623705822276,stimuli/298_za.png,a,4.976879669120535,awful,0.333,2.881355932,2.026418156,0.263817173
136,20,1,2,3,22,70,636.1705514315981,643.6957469366025,stimuli/204_xb.png,l,7.51321983220987,harmless,0.333,6.508474576,0.858484658,0.111765183
136,20,1,2,3,23,71,644.2477645305917,652.1839595220517,stimuli/273_ya.png,l,7.924105103360489,ambig,0.333,5.551724138,1.836973233,0.241206403
136,20,1,2,3,24,72,652.7468878296204,659.2557253381237,stimuli/247_ya.png,l,6.496724383439869,ambig,0.333,4.65,2.081598147,0.268733165
136,20,1,2,4,1,73,668.6014066601638,679.2317424847279,stimuli/155_xb.png,l,10.618555105524138,harmless,0.333,6.655737705,0.892286312,0.114245555
136,20,1,2,4,2,74,679.7928268054966,690.5597369738389,stimuli/296_yb.png,a,10.754815947730094,ambig,0.333,4.229508197,2.052587332,0.262806878
136,20,1,2,4,3,75,691.1203510428313,699.7597276004963,stimuli/263_ya.png,a,8.62735913717188,ambig,0.333,4.983050847,2.071910042,0.269739712
136,20,1,2,4,4,76,700.3237653719261,706.6157316239551,stimuli/349_za.png,a,6.279979945393279,awful,0.333,3.288135593,2.101320172,0.273568585
136,20,1,2,4,5,77,707.1694384228904,716.0157833753619,stimuli/262_ya.png,l,8.834596528438851,ambig,0.333,5.491525424,1.7750462,0.231091332
136,20,1,2,4,6,78,716.5751430448145,724.0397040012758,stimuli/257_yb.png,l,7.452672323444858,ambig,0.333,5.620689655,1.843219782,0.242026615
136,20,1,2,4,7,79,724.591994924238,730.7597051511984,stimuli/127_xb.png,l,6.156105163274333,harmless,0.333,6.423728814,1.162686987,0.151368953
136,20,1,2,4,8,80,731.3102954474743,738.2317456353921,stimuli/146_xa.png,l,6.90927877346985,harmless,0.333,6.442622951,1.162247681,0.148810567
136,20,1,2,4,9,81,738.7895121981855,748.0397016380448,stimuli/344_za.png,a,9.23817674536258,awful,0.333,2.711864407,2.043077863,0.265986082
136,20,1,2,4,10,82,748.6032746713609,755.9036790723912,stimuli/329_zb.png,a,7.288196359062567,awful,0.333,2.406779661,1.992387617,0.259386774
136,20,1,2,4,11,83,756.4521437820513,761.4156405667309,stimuli/102_xc.png,l,4.951512053143233,harmless,0.333,6.66011236,0.937292468,0.049676401
136,20,1,2,4,12,84,761.9699475870002,768.9516589578707,stimuli/369_za.png,a,6.970067710150033,awful,0.333,2.948275862,2.055565093,0.26990892
136,20,1,2,4,13,85,769.5087693731766,778.6956752566621,stimuli/142_xa.png,l,9.174811268923804,harmless,0.333,6.4,1.076718178,0.139003719
136,20,1,2,4,14,86,779.2540046253707,786.8716550664976,stimuli/192_za.png,a,7.60568185755983,awful,0.333,2.68852459,2.093967396,0.268105052
136,20,1,2,4,15,87,787.4378794706427,796.1596505641937,stimuli/207_yb.png,l,8.709918300621212,ambig,0.333,5.655737705,1.662179753,0.212820309
136,20,1,2,4,16,88,796.737845914904,803.1916560591199,stimuli/345_zb.png,l,6.44216766487807,awful,0.333,3.694915254,2.191317013,0.285285176
136,20,1,2,4,17,89,803.7488665115088,809.5837166768033,stimuli/138_xc.png,l,5.8228173847310245,harmless,0.333,6.661016949,0.70978796,0.092406522
136,20,1,2,4,18,90,810.1332148383372,819.6156296178233,stimuli/342_yb.png,l,9.469929863931611,ambig,0.333,4.916666667,2.085394461,0.269223267
136,20,1,2,4,19,91,820.1644602105953,825.5355847666506,stimuli/346_zb.png,a,5.358857043320313,awful,0.333,1.288135593,0.983499162,0.128040685
136,20,1,2,4,20,92,826.0885944585316,832.1996960297693,stimuli/185_xa.png,l,6.099123535212129,harmless,0.333,6.5,0.965506805,0.124646393
136,20,1,2,4,21,93,832.7629618630745,842.6636288017035,stimuli/212_ya.png,l,9.888920090161264,ambig,0.333,5.677966102,1.490668422,0.194068498
136,20,1,2,4,22,94,843.219385568751,848.1276076538488,stimuli/184_xb.png,l,4.896116049028933,harmless,0.333,6.508474576,1.194425,0.15550089
136,20,1,2,4,23,95,848.6930278243963,855.1436107952613,stimuli/200_ya.png,l,6.438218178227544,ambig,0.333,5.862068966,1.444266048,0.189641423
136,20,1,2,4,24,96,855.7073114344385,864.6956480813678,stimuli/348_za.png,a,8.975907657295465,awful,0.333,3.084745763,2.119597681,0.275948114
136,20,1,2,5,1,97,873.9891251265071,885.5596227585338,stimuli/226_yb.png,l,11.559102881932631,ambig,0.25,5.683333333,1.712285287,0.22105508
136,20,1,2,5,2,98,886.1184290747624,891.6396152283996,stimuli/261_yb.png,l,5.509113200940192,ambig,0.25,5.706896552,1.901141123,0.249632059
136,20,1,2,5,3,99,892.1935721195769,897.3195697311312,stimuli/117_xc.png,l,5.114475255366415,harmless,0.25,6.627118644,0.868972939,0.113130641
136,20,1,2,5,4,100,897.879938434111,905.3756029780488,stimuli/221_xb.png,l,7.484076415421441,harmless,0.25,6.440677966,1.133672495,0.147591588
136,20,1,2,5,5,101,905.9281022455543,912.3276089141145,stimuli/168_xa.png,l,6.388044176856056,harmless,0.25,6.474576271,1.164946827,0.151663159
136,20,1,2,5,6,102,912.8820281804074,918.3356047740672,stimuli/129_xa.png,l,5.441787209827453,harmless,0.25,6.770491803,0.642740036,0.082294429
136,20,1,2,5,7,103,918.9104512529448,927.8476824529935,stimuli/366_za.png,l,8.92570096696727,awful,0.25,3.689655172,2.036568291,0.267414518
136,20,1,2,5,8,104,928.4105516835116,937.1355739752762,stimuli/134_xc.png,l,8.713832341367379,harmless,0.25,6.516666667,0.965360505,0.124627505
136,20,1,2,5,9,105,937.6919526250567,945.5436141034588,stimuli/275_yb.png,l,7.840449078939855,ambig,0.25,4.836065574,2.138382004,0.27379176
136,20,1,2,5,10,106,946.1029552621767,961.7115358258598,stimuli/367_zb.png,l,15.5963878815528,awful,0.25,3.413793103,2.086165649,0.27392697
136,20,1,2,5,11,107,962.2689049979672,969.3115372436587,stimuli/237_ya.png,l,7.031092166202143,ambig,0.25,4.305084746,2.019339575,0.26289562
136,20,1,2,5,12,108,969.8802062491886,982.8875231188722,stimuli/325_yb.png,a,12.995568445883691,ambig,0.25,5.131147541,1.811770863,0.231973488
136,20,1,2,5,13,109,983.4376557660289,990.7035978613421,stimuli/159_xa.png,l,7.254017622210085,harmless,0.25,6.389830508,1.174689235,0.152931512
136,20,1,2,5,14,110,991.2660181075335,999.5275381007232,stimuli/222_ya.png,l,8.24990980932489,ambig,0.25,5.931034483,1.543089507,0.202617579
136,20,1,2,5,15,111,1000.078101221472,1006.1596025149338,stimuli/274_xb.png,l,6.069609509548172,harmless,0.25,6.491525424,1.179901828,0.153610134
136,20,1,2,5,16,112,1006.7201846821699,1013.447508609388,stimuli/187_xc.png,l,6.7154514419380575,harmless,0.25,6.224137931,1.185335891,0.155642228
136,20,1,2,5,17,113,1014.0426298824605,1022.2235276463907,stimuli/328_za.png,a,8.16851170361042,awful,0.25,2.706896552,1.955725922,0.256799395
136,20,1,2,5,18,114,1022.8064440281596,1028.6795000047423,stimuli/290_zb.png,a,5.861193731194362,awful,0.25,2.586206897,2.026443456,0.266085062
136,20,1,2,5,19,115,1029.2349728089757,1040.2314786079805,stimuli/189_yb.png,l,10.985025584232062,ambig,0.25,5.983333333,1.455459234,0.187898979
136,20,1,2,5,20,116,1040.7838246691972,1047.159503659699,stimuli/322_za.png,a,6.363988068187609,awful,0.25,2.406779661,1.975004531,0.257123689
136,20,1,2,5,21,117,1047.7224689885043,1054.8154599489644,stimuli/288_yb.png,l,7.08134651184082,ambig,0.25,5.189655172,1.914459262,0.251380817
136,20,1,2,5,22,118,1055.3781436781865,1062.9835088835098,stimuli/188_xa.png,l,7.594066553516313,harmless,0.25,6.655172414,0.806807095,0.105938962
136,20,1,2,5,23,119,1063.5543219863903,1068.6715222618077,stimuli/124_xa.png,l,5.10554991918616,harmless,0.25,6.344262295,1.181598436,0.151288177
136,20,1,2,5,24,120,1069.2333222005982,1089.1675601718016,stimuli/252_zb.png,a,19.922767996322364,awful,0.25,2.711864407,1.983125776,0.258180985
136,20,1,2,6,1,121,1099.46855258476,1103.7514725900255,stimuli/243_ya.png,l,4.271485870471224,ambig,0.166,5.830508475,1.652088985,0.215083666
136,20,1,2,6,2,122,1104.3163063239772,1110.0954887312837,stimuli/171_xa.png,l,5.767338672885671,harmless,0.166,6.465517241,1.046556882,0.137419651
136,20,1,2,6,3,123,1110.6601613822859,1121.1594827857334,stimuli/304_ya.png,a,10.487600154941902,ambig,0.166,4.034482759,2.017167697,0.264867095
136,20,1,2,6,4,124,1121.7108528970275,1132.5114333471283,stimuli/167_xb.png,l,10.789462573593482,harmless,0.166,6.590163934,0.955284411,0.122311635
136,20,1,2,6,5,125,1133.0729721661191,1144.543421906652,stimuli/211_zb.png,a,11.458225550828502,awful,0.166,3.983333333,2.127237938,0.274625237
136,20,1,2,6,6,126,1145.1044896859676,1153.063530104002,stimuli/234_xb.png,l,7.947969015454873,harmless,0.166,6.637931034,0.788030542,0.103473479
136,20,1,2,6,7,127,1153.6175689152442,1163.71137907519,stimuli/147_ya.png,l,10.081875840900466,ambig,0.166,5.883333333,1.766847875,0.22809908
136,20,1,2,6,8,128,1164.2736016106792,1178.2794265919365,stimuli/107_xa.png,l,13.99423645879142,harmless,0.166,6.813559322,0.540580029,0.070377525
136,20,1,2,6,9,129,1178.8366468902677,1189.783425703412,stimuli/153_xb.png,l,10.9353549182415,harmless,0.166,6.633333333,0.973664521,0.125699549
136,20,1,2,6,10,130,1190.3375677021686,1196.5036411054898,stimuli/236_yb.png,l,6.15446164412424,ambig,0.166,5.93442623,1.49297078,0.19115532
136,20,1,2,6,11,131,1197.0724767078646,1202.1434138722252,stimuli/123_xc.png,l,5.059377786470577,harmless,0.166,6.491525424,1.023396666,0.133234897
136,20,1,2,6,12,132,1202.7134349509142,1207.7755578432698,stimuli/130_xc.png,l,5.050017644185573,harmless,0.166,6.644067797,0.960651931,0.125066229
136,20,1,2,6,13,133,1208.380779688945,1215.5194189669564,stimuli/360_za.png,a,7.127425696933642,awful,0.166,3.2,2.207844259,0.285031468
136,20,1,2,6,14,134,1216.0755959677044,1221.0634013162926,stimuli/148_xc.png,l,4.975951767992228,harmless,0.166,6.491525424,1.135218061,0.147792803
136,20,1,2,6,15,135,1221.6204467474017,1226.5353713021614,stimuli/152_xa.png,l,4.902756291208789,harmless,0.166,6.576271186,0.968528743,0.126091702
136,20,1,2,6,16,136,1227.0875456468202,1239.4873780258931,stimuli/279_ya.png,l,12.3882391306106,ambig,0.166,5.31147541,1.970964092,0.252356093
136,20,1,2,6,17,137,1240.0450748780277,1246.7353390855715,stimuli/289_yb.png,l,6.6785937652457505,ambig,0.166,5.305084746,1.714584873,0.223219937
136,20,1,2,6,18,138,1247.2962493265513,1257.7354001316708,stimuli/181_xa.png,l,10.42793131642975,harmless,0.166,6.666666667,0.950765377,0.122743282
136,20,1,2,6,19,139,1258.2948984350078,1264.5833823014982,stimuli/225_ya.png,l,6.276668882695958,ambig,0.166,5.85,1.792876677,0.231459384
136,20,1,2,6,20,140,1265.150894581573,1273.6073694874067,stimuli/172_xb.png,l,8.444772562012076,harmless,0.166,6.482758621,1.127664553,0.14806961
136,20,1,2,6,21,141,1274.1647012443282,1281.0393861674238,stimuli/224_yb.png,l,6.863328376086429,ambig,0.166,5.881355932,1.609077116,0.209483997
136,20,1,2,6,22,142,1281.6010521987919,1288.0874137084465,stimuli/238_xb.png,l,6.475116814719513,harmless,0.166,6.4,1.076718178,0.139003719
136,20,1,2,6,23,143,1288.669175333809,1294.3834991951007,stimuli/299_za.png,a,5.703118157107383,awful,0.166,1.288135593,0.929420425,0.121000233
136,20,1,2,6,24,144,1294.9645452024415,1301.631374396151,stimuli/355_zb.png,a,6.654985853005201,awful,0.166,3.183333333,2.070713188,0.267327923
136,20,1,2,7,1,145,1310.8541832738556,1316.7033166552428,stimuli/240_xa.png,l,5.838367603253573,harmless,0.083,6.482758621,1.096107616,0.143925981
136,20,1,2,7,2,146,1317.269184234785,1326.5753301216755,stimuli/141_xc.png,l,9.294746410567313,harmless,0.083,6.508474576,1.040107444,0.135410455
136,20,1,2,7,3,147,1327.1410047167446,1334.6073639735114,stimuli/254_ya.png,l,7.454626980703324,ambig,0.083,5.983606557,1.627798137,0.208418195
136,20,1,2,7,4,148,1335.1682163190562,1347.0392884938046,stimuli/364_za.png,a,11.859198901802301,awful,0.083,1.677966102,1.279017376,0.166513879
136,20,1,2,7,5,149,1347.5763052841648,1353.8873131989967,stimuli/215_yb.png,l,6.299318174133077,ambig,0.083,5.866666667,1.466769385,0.189359113
136,20,1,2,7,6,150,1354.4390432853252,1365.7993276263587,stimuli/276_ya.png,l,11.348461480345577,ambig,0.083,5.186440678,1.804922162,0.234980851
136,20,1,2,7,7,151,1366.3606246239506,1370.9593224117998,stimuli/150_xc.png,l,4.586467690533027,harmless,0.083,6.482758621,1.030097582,0.135258439
136,20,1,2,7,8,152,1371.5156908214558,1378.8713092699181,stimuli/282_xc.png,l,7.344551771879196,harmless,0.083,6.55,0.998728005,0.128935231
136,20,1,2,7,9,153,1379.4371433726046,1390.815338644432,stimuli/128_xc.png,l,11.366132165072486,harmless,0.083,6.627118644,0.98082135,0.127692063
136,20,1,2,7,10,154,1391.3766309160274,1398.8793445143383,stimuli/170_xc.png,l,7.491040005348623,harmless,0.083,6.583333333,1.062323432,0.137145365
136,20,1,2,7,11,155,1399.4393926265184,1405.3193129436113,stimuli/121_xc.png,l,5.8685397452209145,harmless,0.083,6.508474576,1.006408455,0.131023221
136,20,1,2,7,12,156,1405.8748554585036,1411.9433239966165,stimuli/115_xb.png,l,6.056814243318513,harmless,0.083,6.440677966,1.021681954,0.133011661
136,20,1,2,7,13,157,1412.502941241255,1418.9672981854528,stimuli/214_xb.png,l,6.453184322919697,harmless,0.083,6.465517241,0.940614156,0.12350869
136,20,1,2,7,14,158,1419.531593926018,1425.3352956050076,stimuli/161_xc.png,l,5.791544049279764,harmless,0.083,6.796610169,0.609682252,0.079373868
136,20,1,2,7,15,159,1425.8932909923606,1437.1832840763964,stimuli/339_ya.png,l,11.278544770786539,ambig,0.083,4.949152542,1.960152429,0.25519011
136,20,1,2,7,16,160,1437.7229148221668,1445.6152519197203,stimuli/267_ya.png,l,7.880791898118332,ambig,0.083,5.103448276,1.898195405,0.249245267
136,20,1,2,7,17,161,1446.1804586257786,1453.7992941492703,stimuli/293_zb.png,a,7.607146570459008,awful,0.083,3.677966102,2.169066842,0.28238845
136,20,1,2,7,18,162,1454.3668922879733,1459.5832133416552,stimuli/230_yb.png,l,5.204364679288119,ambig,0.083,4.98245614,1.875511626,0.248417583
136,20,1,2,7,19,163,1460.1456477663014,1465.68723750161,stimuli/106_xc.png,l,5.5297515145502985,harmless,0.083,6.661016949,0.863237081,0.112383896
136,20,1,2,7,20,164,1466.246460112976,1473.1832647779956,stimuli/149_xa.png,l,6.9255367333535105,harmless,0.083,6.721311475,0.933294301,0.11949609
136,20,1,2,7,21,165,1473.74461533851,1481.7352402303368,stimuli/330_ya.png,l,7.978470412781462,ambig,0.083,4.796610169,2.049219036,0.266785595
136,20,1,2,7,22,166,1482.293398669688,1488.407304424094,stimuli/280_xb.png,l,6.1016929862089455,harmless,0.083,6.333333333,1.068289726,0.137915611
136,20,1,2,7,23,167,1488.9672107517254,1492.6392461946234,stimuli/113_xb.png,l,3.6603382190223783,harmless,0.083,6.733333333,0.660422737,0.085260209
136,20,1,2,7,24,168,1493.2001205955166,1501.519300813321,stimuli/309_ya.png,l,8.307640532264486,ambig,0.083,4.706896552,1.946734744,0.255618795
136,20,1,2,8,1,169,1510.7844843610656,1516.2072732313536,stimuli/158_xa.png,l,5.411382304504514,harmless,0.0412,6.786885246,0.661179605,0.084655374
136,20,1,2,8,2,170,1516.7649543297011,1521.2552798984107,stimuli/111_xa.png,l,4.4782285913825035,harmless,0.0412,6.590163934,0.863655973,0.110579816
136,20,1,2,8,3,171,1521.80915802042,1528.087235296145,stimuli/239_ya.png,l,6.2664970241021365,ambig,0.0412,5.157894737,1.925296579,0.255011762
136,20,1,2,8,4,172,1528.6530910602305,1533.9912322021555,stimuli/270_yb.png,l,5.326498662587255,ambig,0.0412,5.534482759,1.912246013,0.251090203
136,20,1,2,8,5,173,1534.5458932898473,1540.9512469950132,stimuli/271_ya.png,l,6.393857342656702,ambig,0.0412,5.711864407,1.771915459,0.230683744
136,20,1,2,8,6,174,1541.504154286813,1547.0712372749113,stimuli/132_xc.png,l,5.554985616821796,harmless,0.0412,6.627118644,0.692280217,0.090127208
136,20,1,2,8,7,175,1547.6268337466754,1553.055215622764,stimuli/191_ya.png,l,5.416382966330275,ambig,0.0412,5.517241379,2.062542966,0.270825159
136,20,1,2,8,8,176,1553.6109586053062,1560.2711767014116,stimuli/283_yb.png,l,6.648305044742301,ambig,0.0412,5.949152542,1.478859402,0.192531095
136,20,1,2,8,9,177,1560.8368579917587,1568.0472453627735,stimuli/176_xb.png,l,7.19783786451444,harmless,0.0412,6.796610169,0.517942249,0.067430337
136,20,1,2,8,10,178,1568.6134162037633,1574.9672119333409,stimuli/140_xb.png,l,6.342383256414905,harmless,0.0412,6.724137931,0.790138861,0.103750315
136,20,1,2,8,11,179,1575.5312241045758,1583.9513017395511,stimuli/144_xa.png,l,8.407577753067017,harmless,0.0412,6.542372881,1.00553698,0.130909764
136,20,1,2,8,12,180,1584.5241872596089,1590.135201397119,stimuli/139_xa.png,l,5.598925824742764,harmless,0.0412,6.724137931,0.790138861,0.103750315
136,20,1,2,8,13,181,1590.6915654744953,1595.815186226042,stimuli/337_zb.png,a,5.112066099885851,awful,0.0412,3.033333333,2.20143764,0.284204377
136,20,1,2,8,14,182,1596.3793441206217,1605.0071703589056,stimuli/145_xa.png,l,8.615999832982197,harmless,0.0412,6.661016949,0.822321556,0.107057148
136,20,1,2,8,15,183,1605.5609452931676,1611.519194868626,stimuli/249_ya.png,l,5.946294776396826,ambig,0.0412,5.327868852,1.859402337,0.238072074
136,20,1,2,8,16,184,1612.07726154197,1618.3671884599607,stimuli/116_xa.png,l,6.278155257226899,harmless,0.0412,6.63559322,0.958030802,0.050918763
136,20,1,2,8,17,185,1618.9246088322252,1624.1431484201457,stimuli/178_xa.png,l,5.206695853266865,harmless,0.0412,6.483333333,1.112207557,0.143585378
136,20,1,2,8,18,186,1624.7072086406406,1631.1111968820915,stimuli/175_xb.png,l,6.3917738979216665,harmless,0.0412,6.6,1.028409995,0.13276716
136,20,1,2,8,19,187,1631.67175226775,1636.9272180614062,stimuli/112_xc.png,l,5.243694920558482,harmless,0.0412,6.706896552,0.749470472,0.098410294
136,20,1,2,8,20,188,1637.4710700479336,1643.0391352877486,stimuli/126_xa.png,l,5.557264803210273,harmless,0.0412,6.6,0.977717855,0.126222832
136,20,1,2,8,21,189,1643.5966942936648,1649.1111701005138,stimuli/103_xb.png,l,5.5028333275113255,harmless,0.0412,6.779661017,0.589207434,0.076708274
136,20,1,2,8,22,190,1649.6766174463555,1654.3271835604683,stimuli/260_ya.png,l,4.638354527298361,ambig,0.0412,4.966101695,2.016877936,0.262575142
136,20,1,2,8,23,191,1654.8915998179,1661.351221946301,stimuli/265_yb.png,l,6.448190750554204,ambig,0.0412,5.627118644,1.856008928,0.241631781
136,20,1,2,8,24,192,1661.910018022405,1668.1031317051966,stimuli/131_xb.png,l,6.1815704526379704,harmless,0.0412,6.525423729,1.119666394,0.145768149
136,20,1,2,9,1,193,1677.5167549932376,1683.7511772054713,stimuli/205_yb.png,l,6.222666305489838,ambig,0.0412,5.847457627,1.52918233,0.199082582
136,20,1,2,9,2,194,1684.3057492841035,1689.3753997536842,stimuli/195_xc.png,l,5.058202550280839,harmless,0.0412,6.637640449,1.001766915,0.05309354
136,20,1,2,9,3,195,1689.9475306649692,1695.8311322596855,stimuli/174_xc.png,l,5.871319115860388,harmless,0.0412,6.533333333,1.111826512,0.143536185
136,20,1,2,9,4,196,1696.4012261999305,1702.6391150439158,stimuli/227_xa.png,l,6.225910020293668,harmless,0.0412,6.180327869,1.05685377,0.135316259
136,20,1,2,9,5,197,1703.1959836380556,1709.255118027795,stimuli/196_xb.png,l,6.046956673730165,harmless,0.0412,6.594366197,0.982313556,0.05213579
136,20,1,2,9,6,198,1709.818468538113,1716.7031685691327,stimuli/180_xc.png,l,6.872449453687295,harmless,0.0412,6.672131148,0.723908638,0.092687003
136,20,1,2,9,7,199,1717.2655848769937,1723.2070881237742,stimuli/154_xc.png,l,5.929376336978748,harmless,0.0412,6.5,0.965506805,0.124646393
136,20,1,2,9,8,200,1723.769338228507,1732.1032081113663,stimuli/272_xb.png,l,8.322084437357262,harmless,0.0412,6.355932203,1.029943284,0.134087194
136,20,1,2,9,9,201,1732.6663502771407,1740.2790638597216,stimuli/291_za.png,a,7.600787534378469,awful,0.0412,2.593220339,1.830005126,0.238246374
136,20,1,2,9,10,202,1740.8244384545833,1747.31907387916,stimuli/312_yb.png,a,6.483058717567474,ambig,0.0412,4.677966102,2.112692986,0.275049199
136,20,1,2,9,11,203,1747.8773402324878,1752.8071395601146,stimuli/105_xa.png,l,4.918323445133865,harmless,0.0412,6.557377049,1.088187946,0.139328189
136,20,1,2,9,12,204,1753.3505240513477,1758.8470908964518,stimuli/109_xb.png,l,5.485300094820559,harmless,0.0412,6.644067797,0.97843492,0.127381377
136,20,1,2,9,13,205,1759.4150033241604,1764.5751162632369,stimuli/156_xc.png,l,5.1484444660600275,harmless,0.0412,6.590163934,0.955284411,0.122311635
136,20,1,2,9,14,206,1765.129632809665,1771.7750970437191,stimuli/157_xc.png,l,6.633623256580904,harmless,0.0412,6.603448276,0.877389573,0.115206895
136,20,1,2,9,15,207,1772.3373093390837,1786.3590921694413,stimuli/336_ya.png,l,14.009796523489058,ambig,0.0412,5.033898305,1.884291705,0.245313885
136,20,1,2,9,16,208,1786.9114626492374,1803.9910715129226,stimuli/213_ya.png,l,17.06750204018317,ambig,0.0412,5.98245614,1.597891781,0.211645937
136,20,1,2,9,17,209,1804.5520494955126,1813.0790696886834,stimuli/228_ya.png,l,8.514894071267918,ambig,0.0412,5.442622951,1.793735303,0.229664272
136,20,1,2,9,18,210,1813.6295485266019,1819.6633668942377,stimuli/259_xc.png,l,6.0215236796066165,harmless,0.0412,6.568965517,0.993170874,0.130409725
136,20,1,2,9,19,211,1820.228146277601,1826.1750215827487,stimuli/208_xb.png,l,5.93549040122889,harmless,0.0412,6.216666667,1.165778516,0.150501359
136,20,1,2,9,20,212,1826.7397056552581,1833.4631151480135,stimuli/183_xb.png,l,6.711927702650428,harmless,0.0412,6.448275862,1.095003225,0.143780967
136,20,1,2,9,21,213,1834.0209364553448,1843.9111200033221,stimuli/246_ya.png,l,9.877967629116029,ambig,0.0412,5.542372881,1.715266481,0.223308675
136,20,1,2,9,22,214,1844.4730731481686,1849.7589903208427,stimuli/241_yb.png,l,5.274221918080002,ambig,0.0412,5.508474576,1.442852555,0.187843403
136,20,1,2,9,23,215,1850.3180262490641,1859.087344785221,stimuli/202_yb.png,a,8.757929693674669,ambig,0.0412,5.431034483,1.892849601,0.248543329
136,20,1,2,9,24,216,1859.6365688301157,1865.231007962022,stimuli/160_xb.png,l,5.582697797333822,harmless,0.0412,6.666666667,0.680644427,0.087870818
136,20,1,2,10,1,217,1875.0432234082837,1881.4150001732633,stimuli/242_xb.png,l,6.359969264129177,harmless,0.0412,6.576271186,0.913564256,0.118935936
136,20,1,2,10,2,218,1881.9754787590355,1891.4070263688918,stimuli/248_zb.png,a,9.419900010572746,awful,0.0412,3.288135593,1.991800844,0.259310383
136,20,1,2,10,3,219,1891.9581987692509,1896.8710099470336,stimuli/216_xa.png,l,4.901305756764486,harmless,0.0412,6.603448276,0.877389573,0.115206895
136,20,1,2,10,4,220,1897.4155870038085,1904.1270428788848,stimuli/110_xa.png,l,6.699338023783639,harmless,0.0412,6.428571429,1.059281795,0.141552484
136,20,1,2,10,5,221,1904.6812817635946,1914.5512165112887,stimuli/245_yb.png,l,9.858280059183016,ambig,0.0412,4.949152542,2.096168334,0.272897873
136,20,1,2,10,6,222,1915.0907086234074,1921.518994401209,stimuli/315_yb.png,l,6.4163786340504885,ambig,0.0412,5.050847458,1.915667965,0.249398726
136,20,1,2,10,7,223,1922.0754982938524,1925.4710216047242,stimuli/190_xc.png,l,3.3839139146730304,harmless,0.0412,6.517241379,1.046990328,0.137476565
136,20,1,2,10,8,224,1926.030449803453,1929.6149801658466,stimuli/323_yb.png,l,3.5723424064926803,ambig,0.0412,4.603448276,1.955107169,0.256718148
136,20,1,2,10,9,225,1930.1684085158631,1935.2870037935209,stimuli/258_ya.png,l,5.1068389769643545,ambig,0.0412,5.627118644,1.78014243,0.231754804
136,20,1,2,10,10,226,1935.842441151617,1941.3349821036682,stimuli/119_xc.png,l,5.481028442038223,harmless,0.0412,6.694915254,0.914523379,0.119060803
136,20,1,2,10,11,227,1941.9019193686545,1945.782964509679,stimuli/114_xc.png,l,3.869124212535098,harmless,0.0412,6.644067797,0.97843492,0.127381377
136,20,1,2,10,12,228,1946.34054911579,1951.543027666863,stimuli/231_xb.png,l,5.190641905879602,harmless,0.0412,6.62295082,1.05141071,0.134619347
136,20,1,2,10,13,229,1952.106929561356,1958.5430528731085,stimuli/151_xa.png,l,6.424914062954485,harmless,0.0412,6.610169492,0.947172729,0.123311386
136,20,1,2,10,14,230,1959.1090693264268,1964.846981407376,stimuli/166_xa.png,l,5.726381453918293,harmless,0.0412,6.593220339,1.052397002,0.13701042
136,20,1,2,10,15,231,1965.404637299478,1970.2309803927783,stimuli/169_xc.png,l,4.814840823179111,harmless,0.0412,6.603448276,0.916508538,0.120343467
136,20,1,2,10,16,232,1970.7824217900634,1980.0629862027708,stimuli/218_yb.png,l,9.269054659409449,ambig,0.0412,5.850282486,1.552723069,0.0825263
136,20,1,2,10,17,233,1980.625720344251,1987.2549813631922,stimuli/285_yb.png,a,6.617672890424728,ambig,0.0412,4.120689655,2.119893958,0.278355714
136,20,1,2,10,18,234,1987.805440115044,1995.0229899680708,stimuli/335_yb.png,l,7.205858930712566,ambig,0.0412,5.016949153,2.046793332,0.266469795
136,20,1,2,10,19,235,1995.5901363652665,2001.654990972951,stimuli/137_xa.png,l,6.053573285229504,harmless,0.0412,6.355932203,1.094858074,0.14253838
136,20,1,2,10,20,236,2002.214159627445,2006.078998008743,stimuli/135_xa.png,l,3.8530462407507002,harmless,0.0412,6.508474576,1.179901828,0.153610134
136,20,1,2,10,21,237,2006.63801936456,2013.6549929422326,stimuli/244_xb.png,l,7.00544491969049,harmless,0.0412,6.610169492,0.743174671,0.096753101
136,20,1,2,10,22,238,2014.214351824252,2022.3429602405522,stimuli/286_ya.png,l,8.116528768092394,ambig,0.0412,5.06779661,1.779814082,0.231712057
136,20,1,2,10,23,239,2022.8987347306684,2027.4709235371556,stimuli/120_xa.png,l,4.5603261673823,harmless,0.0412,6.440677966,1.054893138,0.137335389
136,20,1,2,10,24,240,2028.0249048469122,2032.9669342718553,stimuli/136_xc.png,l,4.930208927486092,harmless,0.0412,6.559322034,1.038420326,0.135190811
