id,age,condition,counterbalance,block,trialinblock,trial,tstart,tend,trialstim,response,RT,trialtype,ethicfreq,norm_mean,norm_sd,norm_se
066,63,0,1,0,0,practice,3.938563168048859e-06,25.918377860216424,stimuli/prac_217_1.png,a,25.899034920730628,harmless,NA,NA,NA,NA
066,63,0,1,1,1,1,4.794730030582286,20.143798152566887,stimuli/275_yb.png,a,15.337454796419479,ambig,0.333,4.836065574,2.138382004,0.27379176
066,63,0,1,1,2,2,20.72212892456446,28.91179118619766,stimuli/299_za.png,a,8.177903213188984,awful,0.333,1.288135593,0.929420425,0.121000233
066,63,0,1,1,3,3,29.492563407169655,35.85579973109998,stimuli/198_yb.png,l,6.351376057253219,ambig,0.333,5.101694915,1.83542643,0.238952168
066,63,0,1,1,4,4,36.46848132344894,43.911788035416976,stimuli/352_zb.png,a,7.431584291276522,awful,0.333,2.93442623,2.135952968,0.273480754
066,63,0,1,1,5,5,44.502534002647735,50.911792761529796,stimuli/182_xb.png,l,6.3976036857347935,harmless,0.333,6.542372881,0.988241802,0.128658124
066,63,0,1,1,6,6,51.471946377074346,61.47172306664288,stimuli/122_xa.png,a,9.987925481284037,harmless,0.333,6.457627119,1.039264227,0.135300678
066,63,0,1,1,7,7,62.03220160480123,68.04770691262092,stimuli/149_xa.png,l,6.003665127209388,harmless,0.333,6.721311475,0.933294301,0.11949609
066,63,0,1,1,8,8,68.61189587030094,74.3357281772187,stimuli/233_yb.png,a,5.71185546182096,ambig,0.333,5.318309859,1.922973646,0.102060844
066,63,0,1,1,9,9,74.89451632997952,80.455806190148,stimuli/205_yb.png,l,5.549355156603269,ambig,0.333,5.847457627,1.52918233,0.199082582
066,63,0,1,1,10,10,81.03411254368257,87.60765848541632,stimuli/342_yb.png,a,6.561621478176676,ambig,0.333,4.916666667,2.085394461,0.269223267
066,63,0,1,1,11,11,88.18965477857273,92.87172251520678,stimuli/106_xc.png,l,4.67045322956983,harmless,0.333,6.661016949,0.863237081,0.112383896
066,63,0,1,1,12,12,93.43308208603412,100.47170298045967,stimuli/271_ya.png,a,7.026575520285405,ambig,0.333,5.711864407,1.771915459,0.230683744
066,63,0,1,1,13,13,101.04396104707848,108.12765796552412,stimuli/300_za.png,a,7.071825230261311,awful,0.333,3.75,2.12032137,0.273732312
066,63,0,1,1,14,14,108.70669569040183,116.63969703821931,stimuli/147_ya.png,l,7.921172982547432,ambig,0.333,5.883333333,1.766847875,0.22809908
066,63,0,1,1,15,15,117.23407386813778,123.25566999835428,stimuli/148_xc.png,l,6.009752405108884,harmless,0.333,6.491525424,1.135218061,0.147792803
066,63,0,1,1,16,16,123.82404632249381,129.69564871490002,stimuli/357_za.png,a,5.859699196531437,awful,0.333,2.793103448,2.066937905,0.271402243
066,63,0,1,1,17,17,130.27202049887273,142.31963131320663,stimuli/292_zb.png,a,12.035807261359878,awful,0.333,2.396551724,1.955107169,0.256718148
066,63,0,1,1,18,18,142.8831432502484,147.27165816084016,stimuli/190_xc.png,l,4.376508133253083,harmless,0.333,6.517241379,1.046990328,0.137476565
066,63,0,1,1,19,19,147.83913691097405,153.511643257807,stimuli/348_za.png,a,5.660705944639631,awful,0.333,3.084745763,2.119597681,0.275948114
066,63,0,1,1,20,20,154.07722918584477,160.45557618432213,stimuli/119_xc.png,l,6.366516664042138,harmless,0.333,6.694915254,0.914523379,0.119060803
066,63,0,1,1,21,21,161.02830095787067,166.87956988904625,stimuli/313_zb.png,a,5.83938542753458,awful,0.333,2.101694915,1.688652955,0.219843889
066,63,0,1,1,22,22,167.44638107076753,179.18362736527342,stimuli/175_xb.png,l,11.725383270764723,harmless,0.333,6.6,1.028409995,0.13276716
066,63,0,1,1,23,23,179.77593177964445,186.71156913600862,stimuli/256_zb.png,l,6.923780634300783,awful,0.333,3.051724138,2.012438634,0.264246138
066,63,0,1,1,24,24,187.28209940192755,193.14361186360475,stimuli/237_ya.png,a,5.849613598082215,ambig,0.333,4.305084746,2.019339575,0.26289562
066,63,0,1,2,1,25,202.46530141390394,211.09549850213807,stimuli/222_ya.png,l,8.618529018131085,ambig,0.333,5.931034483,1.543089507,0.202617579
066,63,0,1,2,2,26,211.65634646755643,218.31152990902774,stimuli/212_ya.png,a,6.643414940801449,ambig,0.333,5.677966102,1.490668422,0.194068498
066,63,0,1,2,3,27,218.90327230561525,224.1995273064822,stimuli/124_xa.png,l,5.2843545619398355,harmless,0.333,6.344262295,1.181598436,0.151288177
066,63,0,1,2,4,28,224.77416813897435,229.91947944636922,stimuli/269_za.png,a,5.13338448072318,awful,0.333,3.457627119,2.119873401,0.27598401
066,63,0,1,2,5,29,230.4843623599736,234.84751637012232,stimuli/164_xb.png,l,4.351087762159295,harmless,0.333,6.830508475,0.460604639,0.059965616
066,63,0,1,2,6,30,235.40503791545052,243.61551570531446,stimuli/341_zb.png,a,8.198576956987381,awful,0.333,3.603448276,2.15975677,0.283589957
066,63,0,1,2,7,31,244.16679834236857,252.5835263832705,stimuli/344_za.png,a,8.40478112816345,awful,0.333,2.711864407,2.043077863,0.265986082
066,63,0,1,2,8,32,253.15962877683342,265.55949707492255,stimuli/171_xa.png,l,12.387766210129485,harmless,0.333,6.465517241,1.046556882,0.137419651
066,63,0,1,2,9,33,266.1158642587252,272.34342549578287,stimuli/336_ya.png,a,6.215710816439241,ambig,0.333,5.033898305,1.884291705,0.245313885
066,63,0,1,2,10,34,272.9148805111181,280.5114561810624,stimuli/219_ya.png,a,7.584792596870102,ambig,0.333,5.271186441,1.998538332,0.260187529
066,63,0,1,2,11,35,281.16051926172804,285.59138242166955,stimuli/295_za.png,a,4.418950117891654,awful,0.333,2.3,1.825432384,0.235662307
066,63,0,1,2,12,36,286.13381140935235,302.4874288418796,stimuli/228_ya.png,a,16.341419246280566,ambig,0.333,5.442622951,1.793735303,0.229664272
066,63,0,1,2,13,37,303.0600709079299,309.3754187562736,stimuli/178_xa.png,l,6.303422597120516,harmless,0.333,6.483333333,1.112207557,0.143585378
066,63,0,1,2,14,38,309.9363998414483,318.83942756894976,stimuli/188_xa.png,l,8.890991017920896,harmless,0.333,6.655172414,0.806807095,0.105938962
066,63,0,1,2,15,39,319.4058756250888,327.1914105422329,stimuli/370_za.png,a,7.773744754958898,awful,0.333,2.393442623,1.882185684,0.240989182
066,63,0,1,2,16,40,327.79340080171824,334.43948719720356,stimuli/328_za.png,a,6.633517600479536,awful,0.333,2.706896552,1.955725922,0.256799395
066,63,0,1,2,17,41,335.03363244596403,345.9193514465587,stimuli/173_yb.png,l,10.873570438940078,ambig,0.333,5.796610169,1.242628763,0.161776485
066,63,0,1,2,18,42,346.4870850146981,353.9113146329764,stimuli/118_xb.png,l,7.412117290310562,harmless,0.333,6.474576271,0.953323265,0.124112118
066,63,0,1,2,19,43,354.48688533494715,364.6793084543897,stimuli/110_xa.png,l,10.180613264907151,harmless,0.333,6.428571429,1.059281795,0.141552484
066,63,0,1,2,20,44,365.24810461793095,371.18331150116865,stimuli/191_ya.png,a,5.923584499163553,ambig,0.333,5.517241379,2.062542966,0.270825159
066,63,0,1,2,21,45,371.7324362579966,376.5593418997014,stimuli/316_za.png,a,4.815050494973548,awful,0.333,2.344827586,1.802062407,0.236622386
066,63,0,1,2,22,46,377.1343297101557,382.4872795743868,stimuli/290_zb.png,a,5.341009646770544,awful,0.333,2.586206897,2.026443456,0.266085062
066,63,0,1,2,23,47,383.0467282063328,389.45528276928235,stimuli/200_ya.png,a,6.396770702325739,ambig,0.333,5.862068966,1.444266048,0.189641423
066,63,0,1,2,24,48,390.05181275319774,396.7912893954199,stimuli/161_xc.png,l,6.727722713840194,harmless,0.333,6.796610169,0.609682252,0.079373868
066,63,0,1,3,1,49,406.18347967322916,421.5032315031858,stimuli/246_ya.png,a,15.307739145006053,ambig,0.333,5.542372881,1.715266481,0.223308675
066,63,0,1,3,2,50,422.0669651753269,426.4871976545546,stimuli/306_zb.png,a,4.408334797131829,awful,0.333,2.352112676,1.917055413,0.101746737
066,63,0,1,3,3,51,427.0533845910104,433.17519788770005,stimuli/261_yb.png,a,6.10994436533656,ambig,0.333,5.706896552,1.901141123,0.249632059
066,63,0,1,3,4,52,433.747088102391,438.75917679967824,stimuli/263_ya.png,a,5.00029262737371,ambig,0.333,4.983050847,2.071910042,0.269739712
066,63,0,1,3,5,53,439.3785053243628,443.0232238940662,stimuli/113_xb.png,l,3.63280237687286,harmless,0.333,6.733333333,0.660422737,0.085260209
066,63,0,1,3,6,54,443.6540038738167,450.2791723413393,stimuli/288_yb.png,a,6.613484249799512,ambig,0.333,5.189655172,1.914459262,0.251380817
066,63,0,1,3,7,55,450.84711267845705,456.2792983718682,stimuli/224_yb.png,a,5.420289980596863,ambig,0.333,5.881355932,1.609077116,0.209483997
066,63,0,1,3,8,56,456.93152127589565,471.9272015772294,stimuli/165_xb.png,a,14.983975603594445,harmless,0.333,6.557377049,1.008705278,0.129151477
066,63,0,1,3,9,57,472.4881767546758,477.2791589505505,stimuli/333_za.png,a,4.779187701293267,awful,0.333,3.266666667,2.185209657,0.282109354
066,63,0,1,3,10,58,477.8453376162797,481.68720624037087,stimuli/294_za.png,a,3.829882720601745,awful,0.333,1.557377049,1.38473331,0.177296933
066,63,0,1,3,11,59,482.2553710695356,487.1431108919205,stimuli/229_za.png,a,4.876133192330599,awful,0.333,3.406779661,2.043649913,0.266060557
066,63,0,1,3,12,60,487.71544615225866,493.35913639108185,stimuli/332_zb.png,a,5.632011141162366,awful,0.333,2.694915254,2.002190501,0.260663001
066,63,0,1,3,13,61,493.9240346646402,499.46311399538536,stimuli/158_xa.png,l,5.5272096117259935,harmless,0.333,6.786885246,0.661179605,0.084655374
066,63,0,1,3,14,62,500.02884919103235,506.66324073495343,stimuli/360_za.png,a,6.6229322120780125,awful,0.333,3.2,2.207844259,0.285031468
066,63,0,1,3,15,63,507.22855136496946,510.503082235693,stimuli/103_xb.png,l,3.262570961145684,harmless,0.333,6.779661017,0.589207434,0.076708274
066,63,0,1,3,16,64,511.0815469152294,517.5270784611348,stimuli/192_za.png,a,6.433707906748168,awful,0.333,2.68852459,2.093967396,0.268105052
066,63,0,1,3,17,65,518.089805463911,522.7271287945332,stimuli/251_ya.png,a,4.625711580505595,ambig,0.333,5.655172414,1.792300532,0.235340589
066,63,0,1,3,18,66,523.3604412015993,529.4630872139242,stimuli/291_za.png,a,6.090783382533118,awful,0.333,2.593220339,1.830005126,0.238246374
066,63,0,1,3,19,67,530.0425463536521,535.5671329535544,stimuli/238_xb.png,a,5.512708216323517,harmless,0.333,6.4,1.076718178,0.139003719
066,63,0,1,3,20,68,536.1513446283061,547.3750572060235,stimuli/167_xb.png,l,11.211960618617013,harmless,0.333,6.590163934,0.955284411,0.122311635
066,63,0,1,3,21,69,547.9338390573394,553.3910142547684,stimuli/287_ya.png,a,5.445261761546135,ambig,0.333,5.950819672,1.407435369,0.180203633
066,63,0,1,3,22,70,553.9652281586314,559.1273574613733,stimuli/210_yb.png,a,5.150168211548589,ambig,0.333,5.557377049,1.76564049,0.226067099
066,63,0,1,3,23,71,559.6934593270998,569.7830217883456,stimuli/272_xb.png,l,10.077726612915285,harmless,0.333,6.355932203,1.029943284,0.134087194
066,63,0,1,3,24,72,570.3443762391107,577.1750427124789,stimuli/139_xa.png,l,6.818731375969946,harmless,0.333,6.724137931,0.790138861,0.103750315
066,63,0,1,4,1,73,586.1336731695337,593.5590027986327,stimuli/277_yb.png,a,7.413549312972464,ambig,0.333,5.491525424,2.02886822,0.264136144
066,63,0,1,4,2,74,594.1318343044259,601.6230196458055,stimuli/359_za.png,a,7.47965826804284,awful,0.333,2.01754386,1.641985167,0.217486248
066,63,0,1,4,3,75,602.1885748538189,609.390985504142,stimuli/154_xc.png,l,7.1906279710819945,harmless,0.333,6.5,0.965506805,0.124646393
066,63,0,1,4,4,76,609.9985569496639,616.7749648885801,stimuli/361_za.png,a,6.764380681677721,awful,0.333,2.416666667,1.907093508,0.246204713
066,63,0,1,4,5,77,617.3348207569215,625.287007505889,stimuli/330_ya.png,a,7.9402729192515835,ambig,0.333,4.796610169,2.049219036,0.266785595
066,63,0,1,4,6,78,625.8742805424845,631.6949354604585,stimuli/121_xc.png,l,5.80915344459936,harmless,0.333,6.508474576,1.006408455,0.131023221
066,63,0,1,4,7,79,632.2793338180054,636.8630224657245,stimuli/230_yb.png,a,4.571622005896643,ambig,0.333,4.98245614,1.875511626,0.248417583
066,63,0,1,4,8,80,637.4266234119423,642.174917469616,stimuli/132_xc.png,l,4.736246714368463,harmless,0.333,6.627118644,0.692280217,0.090127208
066,63,0,1,4,9,81,642.7314473117003,652.6068810342113,stimuli/152_xa.png,l,9.863552975817584,harmless,0.333,6.576271186,0.968528743,0.126091702
066,63,0,1,4,10,82,653.2029175295029,657.934905197355,stimuli/266_zb.png,a,4.720997012220323,awful,0.333,3.491525424,1.888010094,0.245797978
066,63,0,1,4,11,83,658.5462315670447,671.4068925344618,stimuli/202_yb.png,l,12.84875974082388,ambig,0.333,5.431034483,1.892849601,0.248543329
066,63,0,1,4,12,84,671.9835155919427,677.9109266950982,stimuli/296_yb.png,a,5.915528781129979,ambig,0.333,4.229508197,2.052587332,0.262806878
066,63,0,1,4,13,85,678.4900112876203,683.7028415172826,stimuli/144_xa.png,l,5.2011129289167,harmless,0.333,6.542372881,1.00553698,0.130909764
066,63,0,1,4,14,86,684.3082440550206,691.9268482977059,stimuli/285_yb.png,a,7.606912541785277,ambig,0.333,4.120689655,2.119893958,0.278355714
066,63,0,1,4,15,87,692.4888565322617,699.158900556271,stimuli/189_yb.png,l,6.658285763347521,ambig,0.333,5.983333333,1.455459234,0.187898979
066,63,0,1,4,16,88,699.734981682268,705.1508172689937,stimuli/243_ya.png,a,5.404132858267985,ambig,0.333,5.830508475,1.652088985,0.215083666
066,63,0,1,4,17,89,705.7423627427779,709.6228719536448,stimuli/195_xc.png,l,3.868842716095969,harmless,0.333,6.637640449,1.001766915,0.05309354
066,63,0,1,4,18,90,710.2026776775019,715.3828510168241,stimuli/371_zb.png,a,5.168502118438482,awful,0.333,3.131147541,2.085468851,0.267016925
066,63,0,1,4,19,91,715.9435512900818,721.1269009942189,stimuli/274_xb.png,l,5.1714197266846895,harmless,0.333,6.491525424,1.179901828,0.153610134
066,63,0,1,4,20,92,721.694782648352,726.1268131666584,stimuli/334_za.png,a,4.420145439216867,awful,0.333,3.333333333,2.214487481,0.285889104
066,63,0,1,4,21,93,726.7302449010313,733.4467780671548,stimuli/338_zb.png,a,6.704954499029554,awful,0.333,3.310344828,2.137443107,0.28066003
066,63,0,1,4,22,94,733.9948028132785,738.3748665847816,stimuli/346_zb.png,a,4.368031788035296,awful,0.333,1.288135593,0.983499162,0.128040685
066,63,0,1,4,23,95,738.9447076207725,746.1187625685707,stimuli/193_xc.png,l,7.161965462844819,harmless,0.333,6.482758621,1.012923151,0.133003326
066,63,0,1,4,24,96,746.6950260449667,751.9587675152579,stimuli/303_zb.png,a,5.251936735818163,awful,0.333,3.620689655,2.158846233,0.283470398
066,63,0,1,5,1,97,760.6759016897995,767.27081454359,stimuli/309_ya.png,a,6.583010445581749,ambig,0.333,4.706896552,1.946734744,0.255618795
066,63,0,1,5,2,98,767.8372645688942,775.5107976712752,stimuli/150_xc.png,l,7.661688983323984,harmless,0.333,6.482758621,1.030097582,0.135258439
066,63,0,1,5,3,99,776.0854822206311,782.414815526572,stimuli/257_yb.png,a,6.317582922172733,ambig,0.333,5.620689655,1.843219782,0.242026615
066,63,0,1,5,4,100,782.9996581419837,796.3667714820476,stimuli/286_ya.png,a,13.35523968259804,ambig,0.333,5.06779661,1.779814082,0.231712057
066,63,0,1,5,5,101,796.9348075237358,809.2467139491346,stimuli/262_ya.png,a,12.30002528487239,ambig,0.333,5.491525424,1.7750462,0.231091332
066,63,0,1,5,6,102,809.8224803924095,816.1107391457772,stimuli/211_zb.png,a,6.276517821941525,awful,0.333,3.983333333,2.127237938,0.274625237
066,63,0,1,5,7,103,816.6811863102484,823.6467118223663,stimuli/340_za.png,a,6.953673516167328,awful,0.333,2.508474576,1.832398855,0.238558011
066,63,0,1,5,8,104,824.2568850120297,828.750908798771,stimuli/137_xa.png,a,4.482361624366604,harmless,0.333,6.355932203,1.094858074,0.14253838
066,63,0,1,5,9,105,829.3306999502238,835.2546341842972,stimuli/104_xc.png,l,5.912059394991957,harmless,0.333,6.745762712,0.756425814,0.098478253
066,63,0,1,5,10,106,835.8273380841129,845.1667593516177,stimuli/107_xa.png,a,9.327595265349373,harmless,0.333,6.813559322,0.540580029,0.070377525
066,63,0,1,5,11,107,845.729912495357,849.4466492796782,stimuli/311_za.png,a,3.7047701792325824,awful,0.333,3.116666667,1.975199339,0.254997138
066,63,0,1,5,12,108,850.0148617641535,861.8066206234507,stimuli/196_xb.png,a,11.779635897604749,harmless,0.333,6.594366197,0.982313556,0.05213579
066,63,0,1,5,13,109,862.3817714860197,869.2945957292104,stimuli/245_yb.png,a,6.901117576286197,ambig,0.333,4.949152542,2.096168334,0.272897873
066,63,0,1,5,14,110,869.8850022015395,874.1745842762757,stimuli/355_zb.png,a,4.277762767975219,awful,0.333,3.183333333,2.070713188,0.267327923
066,63,0,1,5,15,111,874.727111465414,881.3825835956959,stimuli/289_yb.png,a,6.643611075938679,ambig,0.333,5.305084746,1.714584873,0.223219937
066,63,0,1,5,16,112,881.9722086782567,887.1986313076923,stimuli/302_za.png,a,5.214724627090618,awful,0.333,3.137931034,2.188071937,0.287307921
066,63,0,1,5,17,113,887.7635717227822,891.8385544132907,stimuli/312_yb.png,a,4.063038140768185,ambig,0.333,4.677966102,2.112692986,0.275049199
066,63,0,1,5,18,114,892.405671219225,897.6705564172007,stimuli/138_xc.png,l,5.252972943591885,harmless,0.333,6.661016949,0.70978796,0.092406522
066,63,0,1,5,19,115,898.2424738073023,906.4625480392715,stimuli/319_ya.png,a,8.208169066929258,ambig,0.333,4.216666667,2.108028774,0.272145344
066,63,0,1,5,20,116,907.0384472084697,912.2865786079783,stimuli/321_zb.png,a,5.236369987949729,awful,0.333,2.918032787,2.177881861,0.278849198
066,63,0,1,5,21,117,912.8694488445763,919.5666359204333,stimuli/181_xa.png,l,6.685498919687234,harmless,0.333,6.666666667,0.950765377,0.122743282
066,63,0,1,5,22,118,920.1321281131823,924.3505651290761,stimuli/347_zb.png,a,4.206354226334952,awful,0.333,3.796610169,2.147810923,0.279621165
066,63,0,1,5,23,119,924.9090701068053,929.2865640356904,stimuli/156_xc.png,l,4.365922744735144,harmless,0.333,6.590163934,0.955284411,0.122311635
066,63,0,1,5,24,120,929.855103412061,934.2145316427341,stimuli/345_zb.png,a,4.347630585427396,awful,0.333,3.694915254,2.191317013,0.285285176
066,63,0,1,6,1,121,1059.5196359605761,1064.9103323820746,stimuli/249_ya.png,a,5.378769200993702,ambig,0.333,5.327868852,1.859402337,0.238072074
066,63,0,1,6,2,122,1065.5306246470427,1070.7663034360157,stimuli/102_xc.png,l,5.224343912326731,harmless,0.333,6.66011236,0.937292468,0.049676401
066,63,0,1,6,3,123,1071.3378513988573,1075.5423896030989,stimuli/220_yb.png,a,4.192767734290101,ambig,0.333,4.75,2.096203186,0.270618668
066,63,0,1,6,4,124,1076.0975126286503,1081.6862933062948,stimuli/253_ya.png,a,5.577171684475616,ambig,0.333,5.491803279,1.849531029,0.236808182
066,63,0,1,6,5,125,1082.2449140746612,1086.8623355989112,stimuli/276_ya.png,a,4.6054576761089265,ambig,0.333,5.186440678,1.804922162,0.234980851
066,63,0,1,6,6,126,1087.4209394319914,1109.766289651394,stimuli/145_xa.png,l,22.3335005864501,harmless,0.333,6.661016949,0.822321556,0.107057148
066,63,0,1,6,7,127,1110.323611123138,1119.9103221420664,stimuli/142_xa.png,a,9.574869262985885,harmless,0.333,6.4,1.076718178,0.139003719
066,63,0,1,6,8,128,1120.4775767939864,1124.7342341631884,stimuli/157_xc.png,a,4.244691551895812,harmless,0.333,6.603448276,0.877389573,0.115206895
066,63,0,1,6,9,129,1125.2870189273963,1136.670271666837,stimuli/236_yb.png,a,11.371521654073149,ambig,0.333,5.93442623,1.49297078,0.19115532
066,63,0,1,6,10,130,1137.2379398565972,1142.8701936065918,stimuli/339_ya.png,a,5.620515181566589,ambig,0.333,4.949152542,1.960152429,0.25519011
066,63,0,1,6,11,131,1143.44960824179,1148.1262436659308,stimuli/109_xb.png,l,4.664929544902407,harmless,0.333,6.644067797,0.97843492,0.127381377
066,63,0,1,6,12,132,1148.745648596785,1153.47025993024,stimuli/194_xb.png,l,4.712722709868103,harmless,0.333,6.586206897,1.026567825,0.134794959
066,63,0,1,6,13,133,1154.1203399202786,1167.9102465236792,stimuli/281_ya.png,l,13.778034521383233,ambig,0.333,5.881355932,1.543448286,0.200939852
066,63,0,1,6,14,134,1168.4824435441988,1173.5421930741286,stimuli/349_za.png,a,5.047879417077638,awful,0.333,3.288135593,2.101320172,0.273568585
066,63,0,1,6,15,135,1174.194727903814,1178.0061920406297,stimuli/305_zb.png,a,3.799996140296571,awful,0.333,2.75,2.12830003,0.274762352
066,63,0,1,6,16,136,1178.6570423927624,1184.2941944005433,stimuli/131_xb.png,l,5.625554829952307,harmless,0.333,6.525423729,1.119666394,0.145768149
066,63,0,1,6,17,137,1184.901010450325,1190.2381470194086,stimuli/329_zb.png,a,5.325061656534672,awful,0.333,2.406779661,1.992387617,0.259386774
066,63,0,1,6,18,138,1190.7961466932902,1195.5501944415737,stimuli/368_za.png,a,4.742630557855591,awful,0.333,3.590163934,2.02794682,0.259651984
066,63,0,1,6,19,139,1196.1919355384307,1202.2302110303426,stimuli/221_xb.png,l,6.026608997141011,harmless,0.333,6.440677966,1.133672495,0.147591588
066,63,0,1,6,20,140,1202.8614002156537,1205.7181699884823,stimuli/297_za.png,a,2.8450056044384837,awful,0.333,1.898305085,1.446695584,0.188343723
066,63,0,1,6,21,141,1206.3652772317873,1209.438151272945,stimuli/308_zb.png,a,3.061318217078224,awful,0.333,1.644067797,1.471132708,0.191525165
066,63,0,1,6,22,142,1210.0593466258142,1214.1821788011584,stimuli/322_za.png,a,4.1111385052790865,awful,0.333,2.406779661,1.975004531,0.257123689
066,63,0,1,6,23,143,1214.7464028111426,1219.7501545844134,stimuli/314_zb.png,a,4.991953340359032,awful,0.333,1.833333333,1.451669602,0.18740974
066,63,0,1,6,24,144,1220.3075764867244,1226.6942261445802,stimuli/239_ya.png,a,6.374734252691269,ambig,0.333,5.157894737,1.925296579,0.255011762
066,63,0,1,7,1,145,1235.7207213203656,1242.56607744738,stimuli/307_za.png,a,6.833231589873321,awful,0.333,2.93220339,2.172432347,0.282826601
066,63,0,1,7,2,146,1243.141468555783,1250.9901432258775,stimuli/170_xc.png,l,7.836826612590812,harmless,0.333,6.583333333,1.062323432,0.137145365
066,63,0,1,7,3,147,1251.5584427501308,1255.8700951451901,stimuli/143_xb.png,l,4.299752349848859,harmless,0.333,6.655172414,0.738697862,0.096995781
066,63,0,1,7,4,148,1256.4338615065208,1261.950256511569,stimuli/372_zb.png,a,5.504376806202345,awful,0.333,2.796610169,2.082601664,0.271131643
066,63,0,1,7,5,149,1262.5163099344354,1267.0381037751213,stimuli/323_yb.png,a,4.509763826499693,ambig,0.333,4.603448276,1.955107169,0.256718148
066,63,0,1,7,6,150,1267.6905346296262,1281.678047754569,stimuli/280_xb.png,l,13.975851750234142,harmless,0.333,6.333333333,1.068289726,0.137915611
066,63,0,1,7,7,151,1282.269005216891,1286.294062462286,stimuli/180_xc.png,a,4.01336318149697,harmless,0.333,6.672131148,0.723908638,0.092687003
066,63,0,1,7,8,152,1286.9622491104528,1292.5739823225886,stimuli/265_yb.png,a,5.5993337706895545,ambig,0.333,5.627118644,1.856008928,0.241631781
066,63,0,1,7,9,153,1293.1763018369675,1299.9659969452769,stimuli/254_ya.png,a,6.778002226026729,ambig,0.333,5.983606557,1.627798137,0.208418195
066,63,0,1,7,10,154,1300.530902308179,1315.1099943837617,stimuli/258_ya.png,l,14.567489383975044,ambig,0.333,5.627118644,1.78014243,0.231754804
066,63,0,1,7,11,155,1315.6637275281828,1320.6939874740783,stimuli/207_yb.png,a,5.018278768635355,ambig,0.333,5.655737705,1.662179753,0.212820309
066,63,0,1,7,12,156,1321.26144062425,1325.9340517339297,stimuli/273_ya.png,a,4.660597243229859,ambig,0.333,5.551724138,1.836973233,0.241206403
066,63,0,1,7,13,157,1326.5019081819337,1331.4379878269974,stimuli/241_yb.png,a,4.924162270734087,ambig,0.333,5.508474576,1.442852555,0.187843403
066,63,0,1,7,14,158,1331.989671004936,1335.9500221734634,stimuli/326_zb.png,a,3.9486949137644842,awful,0.333,3.389830508,2.220724867,0.289113752
066,63,0,1,7,15,159,1336.5079285060056,1344.6859770482406,stimuli/351_zb.png,a,8.166156767867506,awful,0.333,3.06779661,2.033040926,0.264679384
066,63,0,1,7,16,160,1345.2850244932342,1351.182026382885,stimuli/225_ya.png,a,5.88542164710816,ambig,0.333,5.85,1.792876677,0.231459384
066,63,0,1,7,17,161,1351.7719224313041,1354.7499848369043,stimuli/356_za.png,a,2.96630296332296,awful,0.333,3.033333333,2.178217796,0.281206708
066,63,0,1,7,18,162,1355.305830962956,1360.5739551472943,stimuli/214_xb.png,a,5.25633520365227,harmless,0.333,6.465517241,0.940614156,0.12350869
066,63,0,1,7,19,163,1361.1386872180738,1366.4139648200944,stimuli/365_zb.png,a,5.263527612085454,awful,0.333,2.966101695,2.165291266,0.281896912
066,63,0,1,7,20,164,1366.992073857109,1374.1339031753596,stimuli/255_xb.png,l,7.1299343932187185,harmless,0.333,6.770491803,0.642740036,0.082294429
066,63,0,1,7,21,165,1374.7201045581605,1379.725899602403,stimuli/129_xa.png,l,4.994111220352352,harmless,0.333,6.770491803,0.642740036,0.082294429
066,63,0,1,7,22,166,1380.2966772032669,1387.4538751650834,stimuli/268_zb.png,a,7.145354630425572,awful,0.333,2.655737705,2.048456703,0.262278005
066,63,0,1,7,23,167,1388.0060959423427,1391.3018558792537,stimuli/115_xb.png,a,3.2839760762872174,harmless,0.333,6.440677966,1.021681954,0.133011661
066,63,0,1,7,24,168,1391.8765455485554,1396.5338998670923,stimuli/353_zb.png,a,4.645478691789322,awful,0.333,1.949152542,1.623361018,0.211343603
066,63,0,1,8,1,169,1406.0428905746667,1411.4699759675423,stimuli/111_xa.png,l,5.415310590644367,harmless,0.333,6.590163934,0.863655973,0.110579816
066,63,0,1,8,2,170,1412.033157861908,1417.629897371633,stimuli/201_yb.png,a,5.584764633909799,ambig,0.333,5.898305085,1.626238682,0.211718243
066,63,0,1,8,3,171,1418.187713119667,1424.8458941200515,stimuli/213_ya.png,a,6.646566493320279,ambig,0.333,5.98245614,1.597891781,0.211645937
066,63,0,1,8,4,172,1425.422144205775,1430.4138604509644,stimuli/354_zb.png,a,4.980119461193681,awful,0.333,2,1.701925887,0.221571878
066,63,0,1,8,5,173,1430.9802899963688,1435.1738225788577,stimuli/343_zb.png,a,4.181484845234081,awful,0.333,3.103448276,2.141401862,0.28117984
066,63,0,1,8,6,174,1435.7347776702372,1441.149862193386,stimuli/369_za.png,a,5.403200625791214,awful,0.333,2.948275862,2.055565093,0.26990892
066,63,0,1,8,7,175,1441.7465229339432,1447.0378099663649,stimuli/284_ya.png,a,5.279425584129058,ambig,0.333,5.948275862,1.431750417,0.18799804
066,63,0,1,8,8,176,1447.6119096549228,1461.4937803901266,stimuli/169_xc.png,l,13.869985262281261,harmless,0.333,6.603448276,0.916508538,0.120343467
066,63,0,1,8,9,177,1462.0668422955787,1474.7658001012169,stimuli/126_xa.png,l,12.687033342081122,harmless,0.333,6.6,0.977717855,0.126222832
066,63,0,1,8,10,178,1475.3574357656762,1488.9817858219612,stimuli/244_xb.png,a,13.612418503500521,harmless,0.333,6.610169492,0.743174671,0.096753101
066,63,0,1,8,11,179,1489.606428899453,1493.0617333302507,stimuli/199_za.png,a,3.4433598811738193,awful,0.333,3.033898305,2.189048775,0.284989876
066,63,0,1,8,12,180,1493.6597945858957,1502.9497614477295,stimuli/335_yb.png,a,9.27820111811161,ambig,0.333,5.016949153,2.046793332,0.266469795
066,63,0,1,8,13,181,1503.5410808541346,1508.485721521196,stimuli/203_yb.png,a,4.932787095778622,ambig,0.333,6,1.542501327,0.200816568
066,63,0,1,8,14,182,1509.074054790195,1519.9257825515233,stimuli/133_xa.png,a,10.839790300815366,harmless,0.333,6.568965517,1.186356193,0.1557762
066,63,0,1,8,15,183,1520.4848668762716,1523.9657539426116,stimuli/301_za.png,a,3.469065396580845,awful,0.333,3.610169492,2.212947396,0.288101212
066,63,0,1,8,16,184,1524.5366871125298,1529.3897141704801,stimuli/197_xa.png,l,4.841134495916776,harmless,0.333,6.779661017,0.55918033,0.072799078
066,63,0,1,8,17,185,1529.9535344886826,1533.6136626617517,stimuli/337_zb.png,a,3.6481710203224793,awful,0.333,3.033333333,2.20143764,0.284204377
066,63,0,1,8,18,186,1534.1843792166328,1538.9256994500756,stimuli/283_yb.png,a,4.729655708069913,ambig,0.333,5.949152542,1.478859402,0.192531095
066,63,0,1,8,19,187,1539.5446427938296,1557.645672857645,stimuli/168_xa.png,a,18.08929228305351,harmless,0.333,6.474576271,1.164946827,0.151663159
066,63,0,1,8,20,188,1558.2112012841972,1561.9576875906205,stimuli/293_zb.png,a,3.734618950402364,awful,0.333,3.677966102,2.169066842,0.28238845
066,63,0,1,8,21,189,1562.5170042841928,1565.973758854554,stimuli/366_za.png,a,3.444858857546933,awful,0.333,3.689655172,2.036568291,0.267414518
066,63,0,1,8,22,190,1566.5387614973588,1571.1656368916156,stimuli/325_yb.png,a,4.615142339724116,ambig,0.333,5.131147541,1.811770863,0.231973488
066,63,0,1,8,23,191,1571.7656012092484,1577.1016031091567,stimuli/185_xa.png,l,5.324055381002836,harmless,0.333,6.5,0.965506805,0.124646393
066,63,0,1,8,24,192,1577.6999936196953,1581.2215960514732,stimuli/304_ya.png,a,3.509571629925631,ambig,0.333,4.034482759,2.017167697,0.264867095
066,63,0,1,9,1,193,1589.9267675593728,1598.6216522138566,stimuli/252_zb.png,a,8.683153569116257,awful,0.333,2.711864407,1.983125776,0.258180985
066,63,0,1,9,2,194,1599.1711424594978,1603.725645178114,stimuli/116_xa.png,l,4.542584950453602,harmless,0.333,6.63559322,0.958030802,0.050918763
066,63,0,1,9,3,195,1604.2945315324469,1609.6615802817978,stimuli/350_ya.png,a,5.355216839467175,ambig,0.333,4.915254237,2.02814792,0.264042369
066,63,0,1,9,4,196,1610.2657166060526,1615.7816130025312,stimuli/235_ya.png,a,5.503438665997237,ambig,0.333,5.694915254,1.567495667,0.204070554
066,63,0,1,9,5,197,1616.344478245126,1620.101559786126,stimuli/317_za.png,a,3.7451499882154167,awful,0.333,3.65,2.03215674,0.262350307
066,63,0,1,9,6,198,1620.7034165319055,1628.7975861990126,stimuli/223_yb.png,a,8.08248111710418,ambig,0.333,5.542372881,1.77455224,0.231027024
066,63,0,1,9,7,199,1629.3977052979171,1635.269647972891,stimuli/267_ya.png,a,5.86048452463001,ambig,0.333,5.103448276,1.898195405,0.249245267
066,63,0,1,9,8,200,1635.835059427307,1638.9575119354995,stimuli/270_yb.png,a,3.110729693551548,ambig,0.333,5.534482759,1.912246013,0.251090203
066,63,0,1,9,9,201,1639.5306955392007,1649.67755229678,stimuli/362_zb.png,a,10.13498428161256,awful,0.333,1.474576271,1.222715071,0.159183944
066,63,0,1,9,10,202,1650.2390524704242,1656.885509868618,stimuli/125_xc.png,l,6.634583740727976,harmless,0.333,6.683333333,0.999858747,0.129081209
066,63,0,1,9,11,203,1657.4416127819568,1670.8695343090221,stimuli/159_xa.png,l,13.41598485421855,harmless,0.333,6.389830508,1.174689235,0.152931512
066,63,0,1,9,12,204,1671.434753566864,1683.1735724868486,stimuli/155_xb.png,l,11.727307994384319,harmless,0.333,6.655737705,0.892286312,0.114245555
066,63,0,1,9,13,205,1683.741746768239,1697.9974659973523,stimuli/208_xb.png,l,14.24399286985863,harmless,0.333,6.216666667,1.165778516,0.150501359
066,63,0,1,9,14,206,1698.5755474650068,1703.8054847727763,stimuli/373_zb.png,a,5.218251514597796,awful,0.333,2.327586207,1.858011869,0.243968911
066,63,0,1,9,15,207,1704.3756022884045,1708.7574769619387,stimuli/324_za.png,a,4.369995502289385,awful,0.333,2.491525424,1.994586478,0.259673041
066,63,0,1,9,16,208,1709.3364686069544,1715.3094697026536,stimuli/217_yb.png,a,5.9613003365229815,ambig,0.333,5.169491525,2.001314588,0.260548967
066,63,0,1,9,17,209,1715.880471401615,1721.0054587001214,stimuli/358_za.png,a,5.113216828554869,awful,0.333,3.949152542,2.112554662,0.275031191
066,63,0,1,9,18,210,1721.6091606125701,1725.0615399520611,stimuli/112_xc.png,l,3.44016146089416,harmless,0.333,6.706896552,0.749470472,0.098410294
066,63,0,1,9,19,211,1725.6172100291587,1731.8054319974035,stimuli/215_yb.png,l,6.176534993574023,ambig,0.333,5.866666667,1.466769385,0.189359113
066,63,0,1,9,20,212,1732.4005673739593,1736.5894163444173,stimuli/331_za.png,a,4.17704738676548,awful,0.333,1.983606557,1.638004917,0.209725039
066,63,0,1,9,21,213,1737.1515372188296,1741.6854705627775,stimuli/153_xb.png,l,4.521996671217494,harmless,0.333,6.633333333,0.973664521,0.125699549
066,63,0,1,9,22,214,1742.247857676819,1748.0774123240262,stimuli/363_zb.png,a,5.81775424501393,awful,0.333,2.433333333,2.019956927,0.260775318
066,63,0,1,9,23,215,1748.6397352411877,1752.3814461695729,stimuli/209_ya.png,a,3.729919978417456,ambig,0.333,5.603448276,1.825161903,0.239655499
066,63,0,1,9,24,216,1752.9569786684588,1758.4774129542056,stimuli/105_xa.png,l,5.508543299045414,harmless,0.333,6.557377049,1.088187946,0.139328189
066,63,0,1,10,1,217,1767.1280222727219,1773.2213538363576,stimuli/226_yb.png,a,6.081535099889152,ambig,0.333,5.683333333,1.712285287,0.22105508
066,63,0,1,10,2,218,1773.787478939048,1787.0213566720486,stimuli/108_xb.png,l,13.221988321631216,harmless,0.333,6.568965517,1.077880782,0.141532681
066,63,0,1,10,3,219,1787.5773981455714,1791.9653274078155,stimuli/259_xc.png,l,4.375975654111244,harmless,0.333,6.568965517,0.993170874,0.130409725
066,63,0,1,10,4,220,1792.5668332370697,1795.0213003521785,stimuli/298_za.png,a,2.4423925963928923,awful,0.333,2.881355932,2.026418156,0.263817173
066,63,0,1,10,5,221,1795.5910661636153,1800.6133251360152,stimuli/135_xa.png,l,5.010325450333767,harmless,0.333,6.508474576,1.179901828,0.153610134
066,63,0,1,10,6,222,1801.1962583878776,1804.4693607806694,stimuli/247_ya.png,a,3.2616237624315545,ambig,0.333,4.65,2.081598147,0.268733165
066,63,0,1,10,7,223,1805.078474525595,1820.1653399320785,stimuli/218_yb.png,l,15.07504609960597,ambig,0.333,5.850282486,1.552723069,0.0825263
066,63,0,1,10,8,224,1820.7717826161534,1825.1334025976248,stimuli/279_ya.png,a,4.349441881407984,ambig,0.333,5.31147541,1.970964092,0.252356093
066,63,0,1,10,9,225,1825.713754191529,1830.6454097687965,stimuli/327_zb.png,a,4.919855962856673,awful,0.333,2.502808989,1.906990248,0.101070281
066,63,0,1,10,10,226,1831.2077145690564,1837.989278734778,stimuli/127_xb.png,a,6.76997998484876,harmless,0.333,6.423728814,1.162686987,0.151368953
066,63,0,1,10,11,227,1838.550687142415,1844.013356092386,stimuli/151_xa.png,l,5.450741729466245,harmless,0.333,6.610169492,0.947172729,0.123311386
066,63,0,1,10,12,228,1844.562651778222,1848.3573105228133,stimuli/315_yb.png,a,3.782623610459268,ambig,0.333,5.050847458,1.915667965,0.249398726
066,63,0,1,10,13,229,1848.9419483384117,1852.6292766709812,stimuli/260_ya.png,a,3.675389296724461,ambig,0.333,4.966101695,2.016877936,0.262575142
066,63,0,1,10,14,230,1853.2587857109029,1856.6452754674247,stimuli/364_za.png,a,3.374368370161392,awful,0.333,1.677966102,1.279017376,0.166513879
066,63,0,1,10,15,231,1857.2055239997571,1866.6692334897816,stimuli/248_zb.png,a,9.451892546378076,awful,0.333,3.288135593,1.991800844,0.259310383
066,63,0,1,10,16,232,1867.2343180523021,1875.3892356480937,stimuli/146_xa.png,l,8.142923815292306,harmless,0.333,6.442622951,1.162247681,0.148810567
066,63,0,1,10,17,233,1875.9539373926818,1884.909347768058,stimuli/140_xb.png,l,8.943516237894073,harmless,0.333,6.724137931,0.790138861,0.103750315
066,63,0,1,10,18,234,1885.5219757973682,1888.797217953368,stimuli/232_yb.png,a,3.2633421109057963,ambig,0.333,5.483333333,1.845669845,0.238274952
066,63,0,1,10,19,235,1889.3791914033936,1892.3412274434231,stimuli/320_za.png,a,2.950128511758521,awful,0.333,1.423728814,1.117314975,0.14546202
066,63,0,1,10,20,236,1892.958977435017,1896.1093717138283,stimuli/318_za.png,a,3.1384587875800207,awful,0.333,3.06557377,2.197489875,0.281359747
066,63,0,1,10,21,237,1896.6661185647827,1901.349202029407,stimuli/367_zb.png,a,4.670994767337106,awful,0.333,3.413793103,2.086165649,0.27392697
066,63,0,1,10,22,238,1901.922935835435,1906.6691984374775,stimuli/310_zb.png,a,4.734553178190254,awful,0.333,3.224137931,2.102989547,0.276136056
066,63,0,1,10,23,239,1907.2327174637467,1912.6612017962616,stimuli/240_xa.png,l,5.416586650419049,harmless,0.333,6.482758621,1.096107616,0.143925981
066,63,0,1,10,24,240,1913.2259945191909,1920.8612706403947,stimuli/250_yb.png,a,7.623331965296529,ambig,0.333,5.950819672,1.585625318,0.203018519
