id,age,condition,counterbalance,block,trialinblock,trial,tstart,tend,trialstim,trialintensity,response,RT,trialtype,colourfreq
044,71,0,2,Practice,1,NA,6.301328539848328e-06,3.606423075310886,"[18, 0, 236]",236,a,3.0820451942272484,colour,0.5
044,71,0,2,Practice,2,NA,4.1259074211120605,7.550476080738008,"[85, 0, 169]",169,l,2.9013593196868896,colour,0.5
044,71,0,2,Practice,3,NA,8.06402713758871,11.662421270273626,"[76, 0, 178]",178,a,3.0751379248686135,colour,0.5
044,71,0,2,Practice,4,NA,12.173353251535445,12.838415652513504,"[12, 0, 242]",242,a,0.14178177481517196,colour,0.5
044,71,0,2,Practice,5,NA,13.34567698976025,14.606432921718806,"[71, 0, 183]",183,a,0.7379550100304186,colour,0.5
044,71,0,2,Practice,6,NA,15.120391215197742,22.526421941351146,"[37, 0, 217]",217,a,6.882820598315448,colour,0.5
044,71,0,2,Practice,7,NA,23.033829789143056,24.054396816994995,"[69, 0, 185]",185,a,0.4972218107432127,colour,0.5
044,71,0,2,Practice,8,NA,24.565088158473372,25.64647129783407,"[52, 0, 202]",202,a,0.558230513241142,colour,0.5
044,71,0,2,Practice,9,NA,26.15887705050409,28.17448477074504,"[9, 0, 245]",245,a,1.4923270936124027,colour,0.5
044,71,0,2,Practice,10,NA,28.691281511448324,30.246401429641992,"[20, 0, 234]",234,a,1.0318195996806026,colour,0.5
044,71,0,2,1,1,1,6.018109823111445,7.215960290748626,"[29, 0, 225]",225,a,0.6737120449542999,colour,0.5
044,71,0,2,1,2,2,7.7220223671756685,8.48009975347668,"[70, 0, 184]",184,a,0.23483811365440488,colour,0.5
044,71,0,2,1,3,3,8.987612364348024,9.711933610029519,"[95, 0, 159]",159,l,0.20113947475329041,colour,0.5
044,71,0,2,1,4,4,10.222003856673837,12.855927617289126,"[1, 0, 253]",253,a,2.1108373003080487,colour,0.5
044,71,0,2,1,5,5,13.362595822662115,13.943916340824217,"[89, 0, 165]",165,l,0.05802019964903593,colour,0.5
044,71,0,2,1,6,6,14.45632445672527,15.039929674938321,"[36, 0, 218]",218,a,0.06038878904655576,colour,0.5
044,71,0,2,1,7,7,15.55007987190038,17.423951897304505,"[50, 0, 204]",204,a,1.3505866727791727,colour,0.5
044,71,0,2,1,8,8,17.940645056776702,19.751957414206117,"[16, 0, 238]",238,a,1.2879785620607436,colour,0.5
044,71,0,2,1,9,9,20.268840407487005,21.3919274979271,"[56, 0, 198]",198,a,0.5999112273566425,colour,0.5
044,71,0,2,1,10,10,21.909370933659375,24.135917408857495,"[33, 0, 221]",221,a,1.7031370615586638,colour,0.5
044,71,0,2,1,11,11,24.631335405632854,25.57604022603482,"[65, 0, 189]",189,a,0.42152265552431345,colour,0.5
044,71,0,2,1,12,12,26.084459470119327,26.96789683122188,"[64, 0, 190]",190,a,0.36012443946674466,colour,0.5
044,71,0,2,1,13,13,27.475084913428873,28.41593437595293,"[21, 0, 233]",233,a,0.4176184609532356,colour,0.5
044,71,0,2,1,14,14,28.928292473312467,29.903918530791998,"[46, 0, 208]",208,a,0.452363942284137,colour,0.5
044,71,0,2,1,15,15,30.4125843225047,31.439923136960715,"[53, 0, 201]",201,a,0.5039959605783224,colour,0.5
044,71,0,2,1,16,16,31.959524454548955,32.97593286354095,"[15, 0, 239]",239,a,0.49379377579316497,colour,0.5
044,71,0,2,1,17,17,33.4858215469867,34.19996423879638,"[85, 0, 169]",169,l,0.19078605342656374,colour,0.5
044,71,0,2,1,18,18,34.721392607782036,35.407971205189824,"[69, 0, 185]",185,a,0.1632077805697918,colour,0.5
044,71,0,2,1,19,19,35.92458205064759,36.91194668598473,"[5, 0, 249]",249,a,0.4641501749865711,colour,0.5
044,71,0,2,1,20,20,37.424563540145755,38.4479516861029,"[47, 0, 207]",207,a,0.5000488366931677,colour,0.5
044,71,0,2,1,21,21,38.9558069431223,40.25590532599017,"[9, 0, 245]",245,a,0.7767783720046282,colour,0.5
044,71,0,2,1,22,22,40.76937052421272,42.17595736077055,"[4, 0, 250]",250,a,0.8833794659003615,colour,0.5
044,71,0,2,1,23,23,42.6911188531667,44.263945296406746,"[13, 0, 241]",241,a,1.0496009550988674,colour,0.5
044,71,0,2,1,24,24,44.78476832434535,45.416060800198466,"[71, 0, 183]",183,l,0.10795552982017398,colour,0.5
044,71,0,2,1,25,25,45.92546977940947,47.35192378005013,"[92, 0, 162]",162,l,0.9031836143694818,colour,0.5
044,71,0,2,1,26,26,47.86292822891846,50.31194093590602,"[73, 0, 181]",181,a,1.9257116010412574,colour,0.5
044,71,0,2,1,27,27,50.833851765841246,51.887899635359645,"[76, 0, 178]",178,l,0.5307826031930745,colour,0.5
044,71,0,2,1,28,28,52.39633857225999,53.28788640210405,"[68, 0, 186]",186,a,0.3683160408399999,colour,0.5
044,71,0,2,1,29,29,53.80257291672751,54.71986960573122,"[67, 0, 187]",187,a,0.3940022783353925,colour,0.5
044,71,0,2,1,30,30,55.24008886748925,56.1119176200591,"[84, 0, 170]",170,l,0.34858987387269735,colour,0.5
044,71,0,2,1,31,31,56.630701313726604,57.496018611826,"[6, 0, 248]",248,a,0.3421823950484395,colour,0.5
044,71,0,2,1,32,32,58.00570800900459,58.903877964708954,"[28, 0, 226]",226,a,0.37495076935738325,colour,0.5
044,71,0,2,1,33,33,59.41199512919411,60.28790333773941,"[14, 0, 240]",240,a,0.3526850841008127,colour,0.5
044,71,0,2,1,34,34,60.80473749386147,61.6719188648276,"[22, 0, 232]",232,a,0.3439700617454946,colour,0.5
044,71,0,2,1,35,35,62.17969062644988,62.7119131302461,"[74, 0, 180]",180,l,0.008934394922107458,colour,0.5
044,71,0,2,1,36,36,63.22655198909342,64.1680233348161,"[58, 0, 196]",196,a,0.4185231253504753,colour,0.5
044,71,0,2,1,37,37,64.67969653382897,65.51990536693484,"[39, 0, 215]",215,a,0.3169455360621214,colour,0.5
044,71,0,2,1,38,38,66.03915143525228,67.00794465979561,"[41, 0, 213]",213,a,0.44565517036244273,colour,0.5
044,71,0,2,1,39,39,67.52341571543366,68.59189055487514,"[45, 0, 209]",209,a,0.5452446253038943,colour,0.5
044,71,0,2,1,40,40,69.10157483257353,70.87992110475898,"[77, 0, 177]",177,l,1.2550211413763463,colour,0.5
044,71,0,2,1,41,41,71.39966893335804,72.23987776599824,"[66, 0, 188]",188,a,0.3169569573365152,colour,0.5
044,71,0,2,1,42,42,72.75902931159362,73.7199956360273,"[54, 0, 200]",200,a,0.43768333503976464,colour,0.5
044,71,0,2,1,43,43,74.22779890568927,74.76795898005366,"[27, 0, 227]",227,a,0.017209491226822138,colour,0.5
044,71,0,2,1,44,44,75.27463073004037,75.84004026697949,"[83, 0, 171]",171,l,0.04210449196398258,colour,0.5
044,71,0,2,1,45,45,76.35275912703946,77.16810092236847,"[12, 0, 242]",242,a,0.2919583753682673,colour,0.5
044,71,0,2,1,46,46,77.68085483461618,78.51188154378906,"[61, 0, 193]",193,a,0.30796348582953215,colour,0.5
044,71,0,2,1,47,47,79.02463900111616,79.9198964657262,"[55, 0, 199]",199,a,0.37168066622689366,colour,0.5
044,71,0,2,1,48,48,80.43087885947898,81.2878643469885,"[48, 0, 206]",206,a,0.33156076399609447,colour,0.5
044,71,0,2,1,49,49,81.8079961752519,82.72786782868207,"[37, 0, 217]",217,a,0.3965256488882005,colour,0.5
044,71,0,2,1,50,50,83.24549479642883,84.04787551658228,"[20, 0, 234]",234,a,0.2791512939147651,colour,0.5
044,71,0,2,2,1,51,89.41658343374729,90.44786700932309,"[59, 0, 195]",195,a,0.50724085746333,colour,0.5
044,71,0,2,2,2,52,90.96589845698327,91.83993865456432,"[2, 0, 252]",252,a,0.35087496787309647,colour,0.5
044,71,0,2,2,3,53,92.35648806020617,93.16791620850563,"[26, 0, 228]",228,a,0.30066118855029345,colour,0.5
044,71,0,2,2,4,54,93.68771208589897,94.63988776970655,"[96, 0, 158]",158,l,0.4288446451537311,colour,0.5
044,71,0,2,2,5,55,95.15663331048563,96.42393417423591,"[79, 0, 175]",175,l,0.743540532886982,colour,0.5
044,71,0,2,2,6,56,96.9370350651443,97.81618974544108,"[51, 0, 203]",203,a,0.35594179574400187,colour,0.5
044,71,0,2,2,7,57,98.32767153577879,99.16791305784136,"[62, 0, 192]",192,a,0.31694632349535823,colour,0.5
044,71,0,2,2,8,58,99.68696850491688,100.71188634866849,"[38, 0, 216]",216,a,0.5015167007222772,colour,0.5
044,71,0,2,2,9,59,101.22044146992266,102.05589146260172,"[42, 0, 212]",212,a,0.3120378218591213,colour,0.5
044,71,0,2,2,10,60,102.56492274347693,103.39989460678771,"[0, 0, 254]",254,a,0.31189643079414964,colour,0.5
044,71,0,2,2,11,61,103.90876007871702,104.72787728067487,"[41, 0, 213]",213,a,0.29594055097550154,colour,0.5
044,71,0,2,2,12,62,105.23693494917825,106.05585759179667,"[56, 0, 198]",198,a,0.2957802559249103,colour,0.5
044,71,0,2,2,13,63,106.56492943875492,107.17587347142398,"[50, 0, 204]",204,a,0.08786229882389307,colour,0.5
044,71,0,2,2,14,64,107.6899136849679,108.47186955530196,"[32, 0, 222]",222,a,0.2586331027559936,colour,0.5
044,71,0,2,2,15,65,108.9867687462829,109.89586438145489,"[6, 0, 248]",248,a,0.38583667017519474,colour,0.5
044,71,0,2,2,16,66,110.40866319229826,111.22419915394858,"[18, 0, 236]",236,a,0.29219192592427135,colour,0.5
044,71,0,2,2,17,67,111.73676992766559,112.55196600034833,"[4, 0, 250]",250,a,0.2919977600686252,colour,0.5
044,71,0,2,2,18,68,113.06487272493541,113.87999120960012,"[21, 0, 233]",233,a,0.292039901483804,colour,0.5
044,71,0,2,2,19,69,114.39297946030274,115.17589710233733,"[17, 0, 237]",237,a,0.25954406801611185,colour,0.5
044,71,0,2,2,20,70,115.69197113579139,116.54388349410146,"[55, 0, 199]",199,a,0.32859707344323397,colour,0.5
044,71,0,2,2,21,71,117.05134136043489,117.8958966769278,"[29, 0, 225]",225,a,0.3212219146080315,colour,0.5
044,71,0,2,2,22,72,118.41080453293398,119.02391511201859,"[93, 0, 161]",161,l,0.08987051900476217,colour,0.5
044,71,0,2,2,23,73,119.53574151732028,120.36796866869554,"[16, 0, 238]",238,a,0.30889965733513236,colour,0.5
044,71,0,2,2,24,74,120.87950362823904,121.68793894117698,"[43, 0, 211]",211,a,0.2852192772552371,colour,0.5
044,71,0,2,2,25,75,122.2075839759782,122.99986372934654,"[9, 0, 245]",245,a,0.2693063272163272,colour,0.5
044,71,0,2,2,26,76,123.52008929289877,124.43189970776439,"[76, 0, 178]",178,l,0.38848685938864946,colour,0.5
044,71,0,2,2,27,77,124.94196680374444,125.86386794503778,"[1, 0, 253]",253,a,0.3985350504517555,colour,0.5
044,71,0,2,2,28,78,126.36848736414686,127.27987636392936,"[86, 0, 168]",168,l,0.38811349356547,colour,0.5
044,71,0,2,2,29,79,127.79026050539687,128.6878389045596,"[63, 0, 191]",191,a,0.3742355452850461,colour,0.5
044,71,0,2,2,30,80,129.19654605025426,130.19185337610543,"[71, 0, 183]",183,l,0.4720660843886435,colour,0.5
044,71,0,2,2,31,81,130.71215377002954,131.55187541572377,"[81, 0, 173]",173,l,0.31640557339414954,colour,0.5
044,71,0,2,2,32,82,132.07150745298713,133.1118774479255,"[67, 0, 187]",187,a,0.5170665252953768,colour,0.5
044,71,0,2,2,33,83,133.61840741336346,134.42386840190738,"[92, 0, 162]",162,l,0.2821331010200083,colour,0.5
044,71,0,2,2,34,84,134.93090839777142,135.81584473652765,"[15, 0, 239]",239,a,0.3618077370338142,colour,0.5
044,71,0,2,2,35,85,136.3227953291498,137.16788430698216,"[78, 0, 176]",176,l,0.32191547751426697,colour,0.5
044,71,0,2,2,36,86,137.68478187266737,138.32797519071028,"[49, 0, 205]",205,a,0.11971813207492232,colour,0.5
044,71,0,2,2,37,87,138.841226530727,139.51995380967855,"[23, 0, 231]",231,a,0.15541278198361397,colour,0.5
044,71,0,2,2,38,88,140.02871491247788,141.91183365229517,"[90, 0, 164]",164,l,1.3601945443078876,colour,0.5
044,71,0,2,2,39,89,142.41937816469,144.02383713051677,"[20, 0, 234]",234,a,1.081149194855243,colour,0.5
044,71,0,2,2,40,90,144.5306546036154,145.3678209767677,"[95, 0, 159]",159,l,0.31403580214828253,colour,0.5
044,71,0,2,2,41,91,145.8743812679313,146.55983976786956,"[91, 0, 163]",163,l,0.1621243106201291,colour,0.5
044,71,0,2,2,42,92,147.0775037575513,147.93584131775424,"[94, 0, 160]",160,l,0.335045512765646,colour,0.5
044,71,0,2,2,43,93,148.45251281559467,149.4478603140451,"[54, 0, 200]",200,a,0.47197510581463575,colour,0.5
044,71,0,2,2,44,94,149.96814534813166,150.88787246029824,"[87, 0, 167]",167,l,0.39647563034668565,colour,0.5
044,71,0,2,2,45,95,151.407432817854,152.2238419353962,"[10, 0, 244]",244,a,0.2936920849606395,colour,0.5
044,71,0,2,2,46,96,152.73597829742357,153.58384703984484,"[60, 0, 194]",194,l,0.32448020204901695,colour,0.5
044,71,0,2,2,47,97,154.09530559321865,155.19987365417182,"[25, 0, 229]",229,a,0.5812200871296227,colour,0.5
044,71,0,2,2,48,98,155.72045210376382,156.53582264948636,"[77, 0, 177]",177,l,0.29219625797122717,colour,0.5
044,71,0,2,2,49,99,157.04842374986038,157.89592227712274,"[3, 0, 251]",251,a,0.32480591302737594,colour,0.5
044,71,0,2,2,50,100,158.40779121778905,159.35987159051,"[35, 0, 219]",219,a,0.42879580799490213,colour,0.5
044,71,0,2,3,1,101,165.85772355506197,167.07989203883335,"[73, 0, 181]",181,l,0.6980655072256923,colour,0.5
044,71,0,2,3,2,102,167.59294724371284,168.56791951693594,"[60, 0, 194]",194,a,0.4513734197244048,colour,0.5
044,71,0,2,3,3,103,169.07768453285098,170.01586214452982,"[39, 0, 215]",215,a,0.41496000112965703,colour,0.5
044,71,0,2,3,4,104,170.5307526709512,171.0798475346528,"[19, 0, 235]",235,a,0.024491308722645044,colour,0.5
044,71,0,2,3,5,105,171.5944383442402,172.51184531021863,"[93, 0, 161]",161,l,0.39407474594190717,colour,0.5
044,71,0,2,3,6,106,173.03193617798388,174.0958943925798,"[74, 0, 180]",180,l,0.5408264617435634,colour,0.5
044,71,0,2,3,7,107,174.61090661771595,175.1598498504609,"[28, 0, 226]",226,a,0.025945781730115414,colour,0.5
044,71,0,2,3,8,108,175.66834943927824,176.54381654039025,"[29, 0, 225]",225,a,0.34676479222252965,colour,0.5
044,71,0,2,3,9,109,177.06428234977648,177.88784016482532,"[95, 0, 159]",159,l,0.30045560095459223,colour,0.5
044,71,0,2,3,10,110,178.40805627591908,179.27985115768388,"[23, 0, 231]",231,a,0.348455966450274,colour,0.5
044,71,0,2,3,11,111,179.79866242036223,180.39985246537253,"[87, 0, 167]",167,l,0.07797834137454629,colour,0.5
044,71,0,2,3,12,112,180.9080708483234,181.7038132948801,"[45, 0, 209]",209,a,0.2724212543107569,colour,0.5
044,71,0,2,3,13,113,182.22054465766996,182.9998790891841,"[48, 0, 206]",206,a,0.2559647960588336,colour,0.5
044,71,0,2,3,14,114,183.51860370580107,184.15182917797938,"[0, 0, 254]",254,a,0.10968845197930932,colour,0.5
044,71,0,2,3,15,115,184.65924962889403,185.23185670003295,"[8, 0, 246]",246,a,0.049209866207093,colour,0.5
044,71,0,2,3,16,116,185.7530637276359,186.72000705776736,"[58, 0, 196]",196,a,0.4437493500299752,colour,0.5
044,71,0,2,3,17,117,187.2373827523552,187.9038673308678,"[72, 0, 182]",182,l,0.14312400156632066,colour,0.5
044,71,0,2,3,18,118,188.42473801365122,196.5038399975747,"[85, 0, 169]",169,l,7.555631130002439,colour,0.5
044,71,0,2,3,19,119,197.01991166826338,198.26381138898432,"[11, 0, 243]",243,a,0.7213449524715543,colour,0.5
044,71,0,2,3,20,120,198.78543116664514,199.71186074893922,"[82, 0, 172]",172,l,0.4030308020301163,colour,0.5
044,71,0,2,3,21,121,200.222903794609,201.0397819825448,"[61, 0, 193]",193,a,0.2936050449497998,colour,0.5
044,71,0,2,3,22,122,201.55106960702688,202.49582759616897,"[25, 0, 229]",229,a,0.4215096584521234,colour,0.5
044,71,0,2,3,23,123,202.99361024377868,203.68779873242602,"[6, 0, 248]",248,a,0.1709622130729258,colour,0.5
044,71,0,2,3,24,124,204.1938549010083,204.99991295998916,"[79, 0, 175]",175,l,0.2827112665399909,colour,0.5
044,71,0,2,3,25,125,205.50642677769065,206.3198442417197,"[76, 0, 178]",178,l,0.290203791577369,colour,0.5
044,71,0,2,3,26,126,206.8345311502926,208.4158296128735,"[1, 0, 253]",253,a,1.0581686794757843,colour,0.5
044,71,0,2,3,27,127,208.92832713155076,210.00782335549593,"[90, 0, 164]",164,l,0.5562604959122837,colour,0.5
044,71,0,2,3,28,128,210.5220337100327,211.43981128465384,"[22, 0, 232]",232,a,0.3929369244724512,colour,0.5
044,71,0,2,3,29,129,211.96117900125682,212.86384588992223,"[92, 0, 162]",162,l,0.392272112891078,colour,0.5
044,71,0,2,3,30,130,213.37055702414364,214.21591972466558,"[54, 0, 200]",200,a,0.3219863697886467,colour,0.5
044,71,0,2,3,31,131,214.71750968089327,215.58386476291344,"[69, 0, 185]",185,a,0.3430236498825252,colour,0.5
044,71,0,2,3,32,132,216.09256600076333,216.98381490213796,"[3, 0, 251]",251,a,0.3679497642442584,colour,0.5
044,71,0,2,3,33,133,217.49875702243298,218.39982568379492,"[42, 0, 212]",212,a,0.37773604737594724,colour,0.5
044,71,0,2,3,34,134,218.92065973905846,219.5918444748968,"[30, 0, 224]",224,a,0.14683363633230329,colour,0.5
044,71,0,2,3,35,135,220.10933438455686,220.68783102743328,"[7, 0, 247]",247,a,0.0552683980204165,colour,0.5
044,71,0,2,3,36,136,221.2030929508619,221.9357987823896,"[2, 0, 252]",252,a,0.2098848232999444,colour,0.5
044,71,0,2,3,37,137,222.4530752277933,223.03984499815851,"[49, 0, 205]",205,a,0.06355491653084755,colour,0.5
044,71,0,2,3,38,138,223.54684324609116,224.17578525003046,"[81, 0, 173]",173,l,0.10577362356707454,colour,0.5
044,71,0,2,3,39,139,224.68738676933572,225.60798979457468,"[38, 0, 216]",216,a,0.399970225058496,colour,0.5
044,71,0,2,3,40,140,226.12565890420228,226.95178695768118,"[12, 0, 242]",242,a,0.3036760790273547,colour,0.5
044,71,0,2,3,41,141,227.46938281180337,228.3117822157219,"[89, 0, 165]",165,l,0.31913098646327853,colour,0.5
044,71,0,2,3,42,142,228.82879714714363,229.6558074154891,"[37, 0, 217]",217,a,0.3037296417169273,colour,0.5
044,71,0,2,3,43,143,230.17256240872666,231.81589672435075,"[99, 0, 155]",155,l,1.1204065750353038,colour,0.5
044,71,0,2,3,44,144,232.32878454448655,233.3597979415208,"[34, 0, 220]",220,a,0.5077820015139878,colour,0.5
044,71,0,2,3,45,145,233.87185829132795,234.74382725311443,"[52, 0, 202]",202,a,0.34874347411096096,colour,0.5
044,71,0,2,3,46,146,235.26247388822958,235.87184332497418,"[59, 0, 195]",195,a,0.097182662691921,colour,0.5
044,71,0,2,3,47,147,236.3920810976997,237.42379672219977,"[35, 0, 219]",219,a,0.5084286965429783,colour,0.5
044,71,0,2,3,48,148,237.93896963633597,238.7597756497562,"[64, 0, 190]",190,a,0.29828550992533565,colour,0.5
044,71,0,2,3,49,149,239.26702556526288,239.8478368408978,"[96, 0, 158]",158,l,0.057497960049659014,colour,0.5
044,71,0,2,3,50,150,240.35161106614396,241.24779249355197,"[66, 0, 188]",188,a,0.3784225210547447,colour,0.5
044,71,0,2,4,1,151,249.0015100054443,250.11182506615296,"[84, 0, 170]",170,l,0.5862046009860933,colour,0.5
044,71,0,2,4,2,152,250.62729375855997,251.18379489472136,"[50, 0, 204]",204,a,0.03320830035954714,colour,0.5
044,71,0,2,4,3,153,251.70535835251212,253.08779061911628,"[67, 0, 187]",187,a,0.8591382494196296,colour,0.5
044,71,0,2,4,4,154,253.59598734043539,254.20785927399993,"[85, 0, 169]",169,l,0.08828686457127333,colour,0.5
044,71,0,2,4,5,155,254.72102278657258,255.57576020155102,"[4, 0, 250]",250,a,0.33141189021989703,colour,0.5
044,71,0,2,4,6,156,256.09723268123344,256.96777867758647,"[79, 0, 175]",175,l,0.3473520162515342,colour,0.5
044,71,0,2,4,7,157,257.4891905048862,258.2557757506147,"[47, 0, 207]",207,a,0.24286469351500273,colour,0.5
044,71,0,2,4,8,158,258.77046147733927,259.5837422767654,"[74, 0, 180]",180,l,0.2898304257541895,colour,0.5
044,71,0,2,4,9,159,260.098661554046,260.9997857478447,"[41, 0, 213]",213,a,0.3778979182243347,colour,0.5
044,71,0,2,4,10,160,261.5205749049783,263.3597727352753,"[89, 0, 165]",165,l,1.3165599605999887,colour,0.5
044,71,0,2,4,11,161,263.87985808961093,264.7598063694313,"[24, 0, 230]",230,a,0.35662945080548525,colour,0.5
044,71,0,2,4,12,162,265.27050834475085,266.09578962950036,"[60, 0, 194]",194,a,0.30191755667328835,colour,0.5
044,71,0,2,4,13,163,266.614252732601,267.2077651452273,"[32, 0, 222]",222,a,0.07041334919631481,colour,0.5
044,71,0,2,4,14,164,267.7236501327716,268.41577014233917,"[20, 0, 234]",234,a,0.16880236193537712,colour,0.5
044,71,0,2,4,15,165,268.92679743422195,269.56777970166877,"[65, 0, 189]",189,a,0.11776898894459009,colour,0.5
044,71,0,2,4,16,166,270.0830176002346,270.6958414595574,"[2, 0, 252]",252,a,0.08962042676284909,colour,0.5
044,71,0,2,4,17,167,271.20928696589544,271.77579100010917,"[39, 0, 215]",215,a,0.043427026364952326,colour,0.5
044,71,0,2,4,18,168,272.28732595965266,272.96780585311353,"[38, 0, 216]",216,a,0.1570791443809867,colour,0.5
044,71,0,2,4,19,169,273.47491398407146,274.12782151205465,"[66, 0, 188]",188,a,0.12965959077700973,colour,0.5
044,71,0,2,4,20,170,274.6467497474514,275.44777327403426,"[46, 0, 208]",208,a,0.27771296817809343,colour,0.5
044,71,0,2,4,21,171,275.95930390106514,277.7198298270814,"[88, 0, 166]",166,l,1.2373161921277642,colour,0.5
044,71,0,2,4,22,172,278.2405185531825,279.135747267399,"[10, 0, 244]",244,a,0.3719662046059966,colour,0.5
044,71,0,2,4,23,173,279.64676431939006,280.51175118098035,"[63, 0, 191]",191,a,0.34177279518917203,colour,0.5
044,71,0,2,4,24,174,281.02170760557055,281.7838069461286,"[8, 0, 246]",246,a,0.23872931115329266,colour,0.5
044,71,0,2,4,25,175,282.30300457170233,284.2157743955031,"[40, 0, 214]",214,a,1.3894852590747178,colour,0.5
044,71,0,2,4,26,176,284.724904531613,285.6477548419498,"[98, 0, 156]",156,l,0.3995937085710466,colour,0.5
044,71,0,2,4,27,177,286.154331675265,286.9997766893357,"[25, 0, 229]",229,a,0.32220652932301164,colour,0.5
044,71,0,2,4,28,178,287.51368969026953,288.4237640327774,"[22, 0, 232]",232,a,0.38690714351832867,colour,0.5
044,71,0,2,4,29,179,288.933898082003,289.68775934772566,"[17, 0, 237]",237,a,0.23064483609050512,colour,0.5
044,71,0,2,4,30,180,290.1994632668793,292.63975858828053,"[58, 0, 196]",196,a,1.9169938215054572,colour,0.5
044,71,0,2,4,31,181,293.1526987897232,294.65603545261547,"[92, 0, 162]",162,l,0.9800635194405913,colour,0.5
044,71,0,2,4,32,182,295.1689303619787,296.3838497181423,"[64, 0, 190]",190,a,0.69229999743402,colour,0.5
044,71,0,2,4,33,183,296.9033183096908,297.7758299908601,"[16, 0, 238]",238,a,0.34921057522296906,colour,0.5
044,71,0,2,4,34,184,298.29386498359963,299.255797018297,"[73, 0, 181]",181,l,0.4385702763684094,colour,0.5
044,71,0,2,4,35,185,299.7625999189913,300.7837675618939,"[9, 0, 245]",245,a,0.49783739214763045,colour,0.5
044,71,0,2,4,36,186,301.2938980665058,302.09578057099134,"[81, 0, 173]",173,l,0.27857352141290903,colour,0.5
044,71,0,2,4,37,187,302.6063892049715,303.4637421509251,"[27, 0, 227]",227,a,0.33405499067157507,colour,0.5
044,71,0,2,4,38,188,303.98137305723503,304.86383171146736,"[72, 0, 182]",182,a,0.3594182739034295,colour,0.5
044,71,0,2,4,39,189,305.3719925926998,305.9117765445262,"[97, 0, 157]",157,l,0.01652695657685399,colour,0.5
044,71,0,2,4,40,190,306.41890594316646,307.4557770108804,"[91, 0, 163]",163,l,0.5136117087677121,colour,0.5
044,71,0,2,4,41,191,307.9657649435103,308.80006726877764,"[80, 0, 174]",174,l,0.3082876205444336,colour,0.5
044,71,0,2,4,42,192,309.3121551880613,310.4877856564708,"[31, 0, 223]",223,a,0.6523608700372279,colour,0.5
044,71,0,2,4,43,193,310.9872693247162,312.00777570018545,"[28, 0, 226]",226,a,0.49717612471431494,colour,0.5
044,71,0,2,4,44,194,312.51855171844363,313.8317328747362,"[34, 0, 220]",220,a,0.7898406656458974,colour,0.5
044,71,0,2,4,45,195,314.34858475392684,315.80777168273926,"[33, 0, 221]",221,a,0.9359567146748304,colour,0.5
044,71,0,2,4,46,196,316.3285864396021,316.8640648680739,"[99, 0, 155]",155,l,0.012187168002128601,colour,0.5
044,71,0,2,4,47,197,317.37549348920584,318.65573888644576,"[36, 0, 218]",218,a,0.7573594045825303,colour,0.5
044,71,0,2,4,48,198,319.1723635168746,320.3997697578743,"[53, 0, 201]",201,a,0.7042347104288638,colour,0.5
044,71,0,2,4,49,199,320.90668687364087,322.4238006602973,"[5, 0, 249]",249,a,0.9938059849664569,colour,0.5
044,71,0,2,4,50,200,322.9379050703719,323.952009874396,"[86, 0, 168]",168,l,0.4906784547492862,colour,0.5
044,71,0,2,5,1,201,330.8938368628733,332.9597564297728,"[35, 0, 219]",219,a,1.541918990202248,colour,0.5
044,71,0,2,5,2,202,333.4727643732913,334.8157718749717,"[38, 0, 216]",216,a,0.8198091895319521,colour,0.5
044,71,0,2,5,3,203,335.33280216669664,335.92774660279974,"[76, 0, 178]",178,l,0.07248025247827172,colour,0.5
044,71,0,2,5,4,204,336.44146031793207,336.99174026353285,"[56, 0, 198]",198,a,0.027113534975796938,colour,0.5
044,71,0,2,5,5,205,337.5039002560079,338.03973984112963,"[39, 0, 215]",215,a,0.012404177337884903,colour,0.5
044,71,0,2,5,6,206,338.55084393313155,340.5037521701306,"[24, 0, 230]",230,a,1.4295086693018675,colour,0.5
044,71,0,2,5,7,207,341.0221743131988,341.6957221245393,"[83, 0, 171]",171,l,0.15038297604769468,colour,0.5
044,71,0,2,5,8,208,342.2096934146248,343.0637687747367,"[77, 0, 177]",177,l,0.331207484472543,colour,0.5
044,71,0,2,5,9,209,343.58679891517386,344.6237184256315,"[34, 0, 220]",220,a,0.5136857521720231,colour,0.5
044,71,0,2,5,10,210,345.13364097941667,345.95977179007605,"[59, 0, 195]",195,a,0.3028340367600322,colour,0.5
044,71,0,2,5,11,211,346.4773751273751,347.84772223141044,"[52, 0, 202]",202,a,0.8470054315403104,colour,0.5
044,71,0,2,5,12,212,348.36799269355834,349.84773956099525,"[20, 0, 234]",234,a,0.956468210555613,colour,0.5
044,71,0,2,5,13,213,350.35416948935017,351.6717014615424,"[49, 0, 205]",205,a,0.7941272845491767,colour,0.5
044,71,0,2,5,14,214,352.1824542428367,352.88775233738124,"[13, 0, 241]",241,a,0.18207772634923458,colour,0.5
044,71,0,2,5,15,215,353.39983946830034,354.1917655481957,"[41, 0, 213]",213,a,0.26856156438589096,colour,0.5
044,71,0,2,5,16,216,354.7123885024339,355.45572266029194,"[66, 0, 188]",188,a,0.2200692854821682,colour,0.5
044,71,0,2,5,17,217,355.9650316024199,356.6478493651375,"[51, 0, 203]",203,a,0.15992783196270466,colour,0.5
044,71,0,2,5,18,218,357.1681135254912,358.0797289866023,"[90, 0, 164]",164,l,0.3886006809771061,colour,0.5
044,71,0,2,5,19,219,358.5899957623333,359.26371450256556,"[6, 0, 248]",248,a,0.15052633546292782,colour,0.5
044,71,0,2,5,20,220,359.777427429799,360.39172899955884,"[14, 0, 240]",240,a,0.09093587240204215,colour,0.5
044,71,0,2,5,21,221,360.9025034424849,361.5277149374597,"[67, 0, 187]",187,a,0.10184737341478467,colour,0.5
044,71,0,2,5,22,222,362.04316511936486,362.67173533234745,"[82, 0, 172]",172,l,0.10529155610129237,colour,0.5
044,71,0,2,5,23,223,363.1838189191185,363.8157521826215,"[86, 0, 168]",168,l,0.10873613273724914,colour,0.5
044,71,0,2,5,24,224,364.3184594796039,365.05571541329846,"[42, 0, 212]",212,a,0.21393001498654485,colour,0.5
044,71,0,2,5,25,225,365.56848547328264,366.7358093378134,"[73, 0, 181]",181,a,0.6440333919599652,colour,0.5
044,71,0,2,5,26,226,367.25591399054974,368.67974221985787,"[0, 0, 254]",254,a,0.900460169184953,colour,0.5
044,71,0,2,5,27,227,369.19355400279164,369.77579100010917,"[96, 0, 158]",158,l,0.0592836569994688,colour,0.5
044,71,0,2,5,28,228,370.2872873628512,370.85576968546957,"[98, 0, 156]",156,l,0.045211936347186565,colour,0.5
044,71,0,2,5,29,229,371.36540985200554,372.15168424276635,"[71, 0, 183]",183,a,0.273461795412004,colour,0.5
044,71,0,2,5,30,230,372.6673451317474,376.2637326195836,"[53, 0, 201]",201,a,3.0854303003288805,colour,0.5
044,71,0,2,5,31,231,376.7798799085431,377.8637131638825,"[92, 0, 162]",162,l,0.560597921255976,colour,0.5
044,71,0,2,5,32,232,378.37352465325966,378.99971485557035,"[60, 0, 194]",194,a,0.10307853575795889,colour,0.5
044,71,0,2,5,33,233,379.51428124681115,380.4316992405802,"[44, 0, 210]",210,a,0.3942200751043856,colour,0.5
044,71,0,2,5,34,234,380.9517105515115,381.7357266298495,"[64, 0, 190]",190,a,0.2607216672040522,colour,0.5
044,71,0,2,5,35,235,382.2485427702777,383.0957195251249,"[19, 0, 235]",235,a,0.323968596290797,colour,0.5
044,71,0,2,5,36,236,383.60797246545553,384.34371878765523,"[4, 0, 250]",250,a,0.21783027099445462,colour,0.5
044,71,0,2,5,37,237,384.8557204543613,386.511718491558,"[37, 0, 217]",217,a,1.135549950413406,colour,0.5
044,71,0,2,5,38,238,387.03096298500896,388.03972093667835,"[28, 0, 226]",226,a,0.4855367965064943,colour,0.5
044,71,0,2,5,39,239,388.5465301387012,390.6237030653283,"[57, 0, 197]",197,a,1.5542274634353817,colour,0.5
044,71,0,2,5,40,240,391.1430381434038,392.39172269776464,"[23, 0, 231]",231,a,0.7254090481437743,colour,0.5
044,71,0,2,5,41,241,392.9086698880419,394.4557159645483,"[27, 0, 227]",227,a,1.0237918379716575,colour,0.5
044,71,0,2,5,42,242,394.9593397411518,395.99183833086863,"[48, 0, 206]",206,a,0.5092723141424358,colour,0.5
044,71,0,2,5,43,243,396.5008018705994,398.4316992405802,"[31, 0, 223]",223,a,1.4076057164929807,colour,0.5
044,71,0,2,5,44,244,398.9382520490326,399.5596912880428,"[84, 0, 170]",170,l,0.10049136215820909,colour,0.5
044,71,0,2,5,45,245,400.07685233606026,400.7356970915571,"[47, 0, 207]",207,a,0.1359217413701117,colour,0.5
044,71,0,2,5,46,246,401.25095980241895,402.1116895833984,"[40, 0, 214]",214,a,0.3374014990404248,colour,0.5
044,71,0,2,5,47,247,402.6259901286103,403.7437102808617,"[81, 0, 173]",173,l,0.5944170765578747,colour,0.5
044,71,0,2,5,48,248,404.2509310520254,405.47969054756686,"[8, 0, 246]",246,a,0.7053981311619282,colour,0.5
044,71,0,2,5,49,249,406.00091214710847,406.59169284440577,"[88, 0, 166]",166,l,0.06736773857846856,colour,0.5
044,71,0,2,5,50,250,407.1103434180841,408.23972968012094,"[55, 0, 199]",199,a,0.6059906329028308,colour,0.5
044,71,0,2,6,1,251,414.98663877742365,416.0317424060777,"[68, 0, 186]",186,a,0.5209589046426117,colour,0.5
044,71,0,2,6,2,252,416.54994517657906,417.39973234245554,"[77, 0, 177]",177,a,0.3386952830478549,colour,0.5
044,71,0,2,6,3,253,417.9127584025264,418.80779098114,"[40, 0, 214]",214,a,0.37172477692365646,colour,0.5
044,71,0,2,6,4,254,419.31897462997586,420.2878454425372,"[0, 0, 254]",254,a,0.44548739260062575,colour,0.5
044,71,0,2,6,5,255,420.80334012862295,421.9916721279733,"[30, 0, 224]",224,a,0.6649828441441059,colour,0.5
044,71,0,2,6,6,256,422.50698800804093,425.0717201298103,"[67, 0, 187]",187,a,2.0413179816678166,colour,0.5
044,71,0,2,6,7,257,425.5852022636682,427.1437892075628,"[47, 0, 207]",207,a,1.0352570870891213,colour,0.5
044,71,0,2,6,8,258,427.66333184204996,429.42368447594345,"[13, 0, 241]",241,a,1.2370660998858511,colour,0.5
044,71,0,2,6,9,259,429.9445520080626,430.5037049087696,"[37, 0, 217]",217,a,0.03588802833110094,colour,0.5
044,71,0,2,6,10,260,431.02456850232556,432.7676758049056,"[18, 0, 236]",236,a,1.220127574633807,colour,0.5
044,71,0,2,6,11,261,433.26212375890464,434.33602776471525,"[16, 0, 238]",238,a,0.5505587887018919,colour,0.5
044,71,0,2,6,12,262,434.85437350161374,435.5280095343478,"[95, 0, 159]",159,l,0.1501974742859602,colour,0.5
044,71,0,2,6,13,263,436.04198948899284,436.68770854128525,"[44, 0, 210]",210,a,0.12809917330741882,colour,0.5
044,71,0,2,6,14,264,437.2080762833357,438.1597025520168,"[84, 0, 170]",170,l,0.42861700244247913,colour,0.5
044,71,0,2,6,15,265,438.6768746278249,439.6797036230564,"[33, 0, 221]",221,a,0.47988825803622603,colour,0.5
044,71,0,2,6,16,266,440.19252960942686,442.1916796900332,"[2, 0, 252]",252,a,1.4759155344218016,colour,0.5
044,71,0,2,6,17,267,442.69974132208154,444.4796976367943,"[88, 0, 166]",166,l,1.2566386670805514,colour,0.5
044,71,0,2,6,18,268,444.9965656637214,447.31180466525257,"[57, 0, 197]",197,a,1.7919363197870553,colour,0.5
044,71,0,2,6,19,269,447.8246720051393,449.88770507555455,"[52, 0, 202]",202,a,1.5397327519021928,colour,0.5
044,71,0,2,6,20,270,450.40282245725393,451.8796611665748,"[39, 0, 215]",215,a,0.9535139719955623,colour,0.5
044,71,0,2,6,21,271,452.38724466972053,453.41566695459187,"[76, 0, 178]",178,l,0.50515859387815,colour,0.5
044,71,0,2,6,22,272,453.93403317127377,455.59174049971625,"[50, 0, 204]",204,a,1.1343396622687578,colour,0.5
044,71,0,2,6,23,273,456.1081477268599,456.8556318390183,"[87, 0, 167]",167,l,0.22418024903163314,colour,0.5
044,71,0,2,6,24,274,457.3737428439781,458.3837378658354,"[27, 0, 227]",227,a,0.4866844634525478,colour,0.5
044,71,0,2,6,25,275,458.90500948391855,459.9836845388636,"[31, 0, 223]",223,a,0.5553518934175372,colour,0.5
044,71,0,2,6,26,276,460.49880388984457,461.2316841953434,"[98, 0, 156]",156,l,0.2096654511988163,colour,0.5
044,71,0,2,6,27,277,461.74874993320554,462.3196469251998,"[8, 0, 246]",246,a,0.047792415134608746,colour,0.5
044,71,0,2,6,28,278,462.8144237403758,464.1677799378522,"[55, 0, 199]",199,a,0.8302508327178657,colour,0.5
044,71,0,2,6,29,279,464.68938317429274,465.5276653128676,"[97, 0, 157]",157,l,0.31503183860331774,colour,0.5
044,71,0,2,6,30,280,466.04879120830446,467.30367686692625,"[70, 0, 184]",184,a,0.7316668662242591,colour,0.5
044,71,0,2,6,31,281,467.8143741157837,468.4156764065847,"[42, 0, 212]",212,a,0.07812130730599165,colour,0.5
044,71,0,2,6,32,282,468.9237463097088,469.607666447293,"[85, 0, 169]",169,l,0.16055365279316902,colour,0.5
044,71,0,2,6,33,283,470.1269389037043,472.5516879451461,"[17, 0, 237]",237,a,1.9018043661490083,colour,0.5
044,71,0,2,6,34,284,473.0656564780511,474.1116832816042,"[81, 0, 173]",173,l,0.5226953709498048,colour,0.5
044,71,0,2,6,35,285,474.6281901518814,476.11166043858975,"[64, 0, 190]",190,a,0.9602058078162372,colour,0.5
044,71,0,2,6,36,286,476.6280751489103,478.78366476809606,"[21, 0, 233]",233,a,1.6323078111745417,colour,0.5
044,71,0,2,6,37,287,479.29999046912417,480.3997756652534,"[51, 0, 203]",203,a,0.5764321023598313,colour,0.5
044,71,0,2,6,38,288,480.9090787000023,481.91196795366704,"[5, 0, 249]",249,a,0.4796554949134588,colour,0.5
044,71,0,2,6,39,289,482.4247726723552,483.68765812925994,"[48, 0, 206]",206,a,0.7403326579369605,colour,0.5
044,71,0,2,6,40,290,484.2060302537866,485.4956519412808,"[90, 0, 164]",164,l,0.7666006055660546,colour,0.5
044,71,0,2,6,41,291,486.0029105213471,486.7916614152491,"[65, 0, 189]",189,l,0.2656916091218591,colour,0.5
044,71,0,2,6,42,292,487.2997789736837,487.8716767281294,"[72, 0, 182]",182,l,0.04861003905534744,colour,0.5
044,71,0,2,6,43,293,488.37792548770085,489.0956628113054,"[25, 0, 229]",229,a,0.1945212883874774,colour,0.5
044,71,0,2,6,44,294,489.6122531769797,490.8317529610358,"[54, 0, 200]",200,a,0.6961904070340097,colour,0.5
044,71,0,2,6,45,295,491.34795656986535,491.89567021559924,"[83, 0, 171]",171,l,0.024648847058415413,colour,0.5
044,71,0,2,6,46,296,492.410413837526,493.3039277466014,"[63, 0, 191]",191,a,0.37022343650460243,colour,0.5
044,71,0,2,6,47,297,493.8166710254736,495.3040411742404,"[32, 0, 222]",222,a,0.9640816459432244,colour,0.5
044,71,0,2,6,48,298,495.81667732680216,497.3196650422178,"[35, 0, 219]",219,a,0.9797200858592987,colour,0.5
044,71,0,2,6,49,299,497.82186506548896,499.21572831552476,"[28, 0, 226]",226,a,0.8706200392916799,colour,0.5
044,71,0,2,6,50,300,499.728051754646,500.90362235857174,"[45, 0, 209]",209,a,0.652320303954184,colour,0.5
044,71,0,2,7,1,301,506.61916202213615,507.3276388463564,"[49, 0, 205]",205,a,0.18464363226667047,colour,0.5
044,71,0,2,7,2,302,507.8386700768024,508.7437260346487,"[79, 0, 175]",175,l,0.3817808451130986,colour,0.5
044,71,0,2,7,3,303,509.26060430146754,510.7276500319131,"[80, 0, 174]",174,l,0.9438541135750711,colour,0.5
044,71,0,2,7,4,304,511.24486897559837,511.88774603558704,"[55, 0, 199]",199,a,0.11963621247559786,colour,0.5
044,71,0,2,7,5,305,512.4010950494558,514.5196257364005,"[43, 0, 211]",211,a,1.5951543562114239,colour,0.5
044,71,0,2,7,6,306,515.0260099787265,516.7436519917101,"[47, 0, 207]",207,a,1.1942522916942835,colour,0.5
044,71,0,2,7,7,307,517.2617980483919,518.9677408682182,"[48, 0, 206]",206,a,1.1830398915335536,colour,0.5
044,71,0,2,7,8,308,519.4804711500183,520.7835986018181,"[33, 0, 221]",221,a,0.7798334346152842,colour,0.5
044,71,0,2,7,9,309,521.2929402333684,522.5596436327323,"[30, 0, 224]",224,a,0.74335818272084,colour,0.5
044,71,0,2,7,10,310,523.0632961597294,523.7676222417504,"[84, 0, 170]",170,l,0.18100646510720253,colour,0.5
044,71,0,2,7,11,311,524.2842452968471,526.3196461373009,"[41, 0, 213]",213,a,1.511867759283632,colour,0.5
044,71,0,2,7,12,312,526.8403285620734,529.4236297314055,"[86, 0, 168]",168,l,2.06003984156996,colour,0.5
044,71,0,2,7,13,313,529.9340571961366,532.2716308059171,"[20, 0, 234]",234,a,1.8142937715165317,colour,0.5
044,71,0,2,7,14,314,532.7778267897666,533.6796055557206,"[53, 0, 201]",201,a,0.37855642894282937,colour,0.5
044,71,0,2,7,15,315,534.1996916974895,536.0076185557991,"[56, 0, 198]",198,a,1.2846135427244008,colour,0.5
044,71,0,2,7,16,316,536.519661182072,537.7516281590797,"[34, 0, 220]",220,a,0.7086733537726104,colour,0.5
044,71,0,2,7,17,317,538.2696521240287,539.3356236787513,"[51, 0, 203]",203,a,0.5428354702889919,colour,0.5
044,71,0,2,7,18,318,539.8478466868401,540.5676721814089,"[3, 0, 251]",251,a,0.19675084948539734,colour,0.5
044,71,0,2,7,19,319,541.0765317454934,541.7756322803907,"[44, 0, 210]",210,a,0.17578682536259294,colour,0.5
044,71,0,2,7,20,320,542.2952591981739,543.1996853961609,"[73, 0, 181]",181,a,0.38120031636208296,colour,0.5
044,71,0,2,7,21,321,543.7172284750268,544.367631142959,"[91, 0, 163]",163,l,0.12716615246608853,colour,0.5
044,71,0,2,7,22,322,544.8890382442623,545.5356296650134,"[99, 0, 155]",155,l,0.12290670862421393,colour,0.5
044,71,0,2,7,23,323,546.0456219301559,546.5756329894066,"[97, 0, 157]",157,l,0.006671749986708164,colour,0.5
044,71,0,2,7,24,324,547.0925104683265,547.9115906492807,"[98, 0, 156]",156,l,0.2958413022570312,colour,0.5
044,71,0,2,7,25,325,548.4206971544772,549.2796298163012,"[61, 0, 193]",193,a,0.3356555802747607,colour,0.5
044,71,0,2,7,26,326,549.7956900652498,550.5516288680956,"[25, 0, 229]",229,a,0.23271016404032707,colour,0.5
044,71,0,2,7,27,327,551.063549796585,551.6556246713735,"[62, 0, 192]",192,a,0.0688619902357459,colour,0.5
044,71,0,2,7,28,328,552.1728369193152,552.727604739368,"[21, 0, 233]",233,a,0.031306812074035406,colour,0.5
044,71,0,2,7,29,329,553.2354265195318,553.8156556906179,"[68, 0, 186]",186,a,0.05696705589070916,colour,0.5
044,71,0,2,7,30,330,554.3291441258043,554.9196282569319,"[8, 0, 246]",246,a,0.06716727139428258,colour,0.5
044,71,0,2,7,31,331,555.4384729964659,556.6076321825385,"[78, 0, 176]",176,l,0.6459459075704217,colour,0.5
044,71,0,2,7,32,332,557.1259826454334,557.7116543734446,"[83, 0, 171]",171,l,0.0623536859638989,colour,0.5
044,71,0,2,7,33,333,558.2198534579948,559.0316203138791,"[11, 0, 243]",243,a,0.28854530677199364,colour,0.5
044,71,0,2,7,34,334,559.5480050914921,560.1356188738719,"[19, 0, 235]",235,a,0.06469903886318207,colour,0.5
044,71,0,2,7,35,335,560.6416045441292,562.159574158024,"[32, 0, 222]",222,a,0.9933873270638287,colour,0.5
044,71,0,2,7,36,336,562.674122038763,563.4956105872989,"[96, 0, 158]",158,l,0.29816814372316003,colour,0.5
044,71,0,2,7,37,337,564.0023268419318,565.0395921492018,"[50, 0, 204]",204,a,0.5138799180276692,colour,0.5
044,71,0,2,7,38,338,565.5491480324417,566.1196511788294,"[76, 0, 178]",178,l,0.04722724622115493,colour,0.5
044,71,0,2,7,39,339,566.6273492909968,568.9035845492035,"[12, 0, 242]",242,a,1.7529900781810284,colour,0.5
044,71,0,2,7,40,340,569.424146851059,570.4636365999468,"[28, 0, 226]",226,a,0.5162114859558642,colour,0.5
044,71,0,2,7,41,341,570.9887777543627,572.1916647236794,"[5, 0, 249]",249,a,0.6796681769192219,colour,0.5
044,71,0,2,7,42,342,572.7075690096244,573.9036353556439,"[9, 0, 245]",245,a,0.6727908398024738,colour,0.5
044,71,0,2,7,43,343,574.4106997698545,575.3756057349965,"[45, 0, 209]",209,a,0.4416462127119303,colour,0.5
044,71,0,2,7,44,344,575.8950349423103,576.4955948335119,"[46, 0, 208]",208,a,0.0772737511433661,colour,0.5
044,71,0,2,7,45,345,577.0043728714809,577.727613797877,"[75, 0, 179]",179,l,0.1998697156086564,colour,0.5
044,71,0,2,7,46,346,578.2387864189222,579.2316207862459,"[95, 0, 159]",159,l,0.4695820980705321,colour,0.5
044,71,0,2,7,47,347,579.7387809050269,581.023625635542,"[72, 0, 182]",182,l,0.7616755627095699,colour,0.5
044,71,0,2,7,48,348,581.5356729882769,583.2636219491251,"[10, 0, 244]",244,a,1.2045789314433932,colour,0.5
044,71,0,2,7,49,349,583.7700668438338,584.7036459106021,"[77, 0, 177]",177,l,0.41038469318300486,colour,0.5
044,71,0,2,7,50,350,585.2231467976235,586.3675878196955,"[0, 0, 254]",254,a,0.6211887528188527,colour,0.5
044,71,0,2,8,1,351,591.4110097265802,592.5435967743397,"[46, 0, 208]",208,a,0.6085069142282009,colour,0.5
044,71,0,2,8,2,352,593.0524197104387,593.6555986772291,"[31, 0, 223]",223,a,0.07981248199939728,colour,0.5
044,71,0,2,8,3,353,594.1637434111908,596.1995861469768,"[12, 0, 242]",242,a,1.512933506630361,colour,0.5
044,71,0,2,8,4,354,596.710718201939,597.4876883765683,"[91, 0, 163]",163,l,0.25374783761799335,colour,0.5
044,71,0,2,8,5,355,598.0075212754309,598.9196353461593,"[18, 0, 236]",236,a,0.38880666298791766,colour,0.5
044,71,0,2,8,6,356,599.4293538881466,600.3515760139562,"[40, 0, 214]",214,a,0.398977339733392,colour,0.5
044,71,0,2,8,7,357,600.8669450632297,601.8315678532235,"[50, 0, 204]",204,a,0.4413969083689153,colour,0.5
044,71,0,2,8,8,358,602.3512597554363,603.7675737990066,"[32, 0, 222]",222,a,0.8930149064399302,colour,0.5
044,71,0,2,8,9,359,604.288721749559,607.1755950222723,"[28, 0, 226]",226,a,2.36363990791142,colour,0.5
044,71,0,2,8,10,360,607.6963471579365,608.4716415181756,"[79, 0, 175]",175,l,0.2519192108884454,colour,0.5
044,71,0,2,8,11,361,608.9932337272912,611.6635642112233,"[86, 0, 168]",168,l,2.1462763445451856,colour,0.5
044,71,0,2,8,12,362,612.1822762247175,614.6796173709445,"[9, 0, 245]",245,a,1.9751093317754567,colour,0.5
044,71,0,2,8,13,363,615.200013469439,616.4635783107951,"[14, 0, 240]",240,a,0.74023971054703,colour,0.5
044,71,0,2,8,14,364,616.9811607743613,617.6395530006848,"[69, 0, 185]",185,a,0.1352604739367962,colour,0.5
044,71,0,2,8,15,365,618.1530890911818,619.0236098812893,"[59, 0, 195]",195,a,0.3472232283093035,colour,0.5
044,71,0,2,8,16,366,619.5442875800654,621.9115638677031,"[36, 0, 218]",218,a,1.8442611135542393,colour,0.5
044,71,0,2,8,17,367,622.4193104230799,623.5437476173975,"[66, 0, 188]",188,a,0.6009726421907544,colour,0.5
044,71,0,2,8,18,368,624.0599283832125,626.1675530825742,"[77, 0, 177]",177,l,1.5969231179915369,colour,0.5
044,71,0,2,8,19,369,626.6891118143685,627.7595728188753,"[0, 0, 254]",254,a,0.5472532394342124,colour,0.5
044,71,0,2,8,20,370,628.2696166778915,629.3915836703964,"[73, 0, 181]",181,a,0.5985902678221464,colour,0.5
044,71,0,2,8,21,371,629.9102157331072,630.471572201699,"[99, 0, 155]",155,l,0.03808450698852539,colour,0.5
044,71,0,2,8,22,372,630.9858451774344,632.9437737688422,"[37, 0, 217]",217,a,1.4344266233965755,colour,0.5
044,71,0,2,8,23,373,633.4545958670788,636.623543557711,"[44, 0, 210]",210,a,2.645530793815851,colour,0.5
044,71,0,2,8,24,374,637.1421582913026,640.4795349785127,"[56, 0, 198]",198,a,2.8141594701446593,colour,0.5
044,71,0,2,8,25,375,640.9858955899253,642.0555937150493,"[74, 0, 180]",180,l,0.5463154925964773,colour,0.5
044,71,0,2,8,26,376,642.5639731809497,644.3115841113031,"[4, 0, 250]",250,a,1.2243811106309295,colour,0.5
044,71,0,2,8,27,377,644.8296510051005,646.3036292116158,"[64, 0, 190]",190,a,0.9507483863271773,colour,0.5
044,71,0,2,8,28,378,646.8151842569932,647.3835614225827,"[10, 0, 244]",244,a,0.045365536119788885,colour,0.5
044,71,0,2,8,29,379,647.8933583400212,649.7275535394438,"[41, 0, 213]",213,a,1.3109236317686737,colour,0.5
044,71,0,2,8,30,380,650.2371102105826,650.7995836259797,"[15, 0, 239]",239,a,0.0392593489959836,colour,0.5
044,71,0,2,8,31,381,651.3152011921629,653.3755923444405,"[13, 0, 241]",241,a,1.537395276594907,colour,0.5
044,71,0,2,8,32,382,653.8933335277252,654.4955708086491,"[88, 0, 166]",166,l,0.0788680394180119,colour,0.5
044,71,0,2,8,33,383,655.0027265953831,655.5995670058765,"[94, 0, 160]",160,l,0.07347156293690205,colour,0.5
044,71,0,2,8,34,384,656.1120877615176,656.967533311341,"[55, 0, 199]",199,a,0.3321684682741761,colour,0.5
044,71,0,2,8,35,385,657.487067675218,658.3195508266799,"[7, 0, 247]",247,a,0.3094317433424294,colour,0.5
044,71,0,2,8,36,386,658.8311771582812,659.5435597528704,"[93, 0, 161]",161,l,0.18935206066817045,colour,0.5
044,71,0,2,8,37,387,660.0498715275899,661.0235496228561,"[67, 0, 187]",187,l,0.4503777767531574,colour,0.5
044,71,0,2,8,38,388,661.5355067853816,662.0718969670124,"[58, 0, 196]",196,a,0.013824386056512594,colour,0.5
044,71,0,2,8,39,389,662.5823449115269,663.5275700022466,"[78, 0, 176]",176,a,0.4225001810118556,colour,0.5
044,71,0,2,8,40,390,664.0354807912372,664.9916134448722,"[53, 0, 201]",201,a,0.4328319411724806,colour,0.5
044,71,0,2,8,41,391,665.5041621639393,666.095534811262,"[45, 0, 209]",209,a,0.06795929512009025,colour,0.5
044,71,0,2,8,42,392,666.6136340005323,668.2875106735155,"[21, 0, 233]",233,a,1.1506984466686845,colour,0.5
044,71,0,2,8,43,393,668.8011101731099,670.1035838401876,"[49, 0, 205]",205,a,0.7792556625790894,colour,0.5
044,71,0,2,8,44,394,670.6136064315215,672.439547801856,"[33, 0, 221]",221,a,1.3035331130959094,colour,0.5
044,71,0,2,8,45,395,672.9573338837363,673.6075321459211,"[57, 0, 197]",197,a,0.12722995597869158,colour,0.5
044,71,0,2,8,46,396,674.1150293969549,674.6795425401069,"[47, 0, 207]",207,a,0.04151332937180996,colour,0.5
044,71,0,2,8,47,397,675.1931774858385,676.3515890110284,"[75, 0, 179]",179,l,0.635078517254442,colour,0.5
044,71,0,2,8,48,398,676.8528737360612,677.7435389575548,"[65, 0, 189]",189,a,0.36610617116093636,colour,0.5
044,71,0,2,8,49,399,678.2622931129299,678.7915708310902,"[76, 0, 178]",178,l,0.006022692192345858,colour,0.5
044,71,0,2,8,50,400,679.3109452934004,685.5435223374516,"[43, 0, 211]",211,a,5.709621340967715,colour,0.5
044,71,0,2,9,1,401,690.2632304662839,690.8795182006434,"[97, 0, 157]",157,l,0.0923442654311657,colour,0.5
044,71,0,2,9,2,402,691.3904096153565,692.0875196531415,"[2, 0, 252]",252,a,0.17391093727201223,colour,0.5
044,71,0,2,9,3,403,692.6090874434449,693.287605590187,"[75, 0, 179]",179,l,0.15509652392938733,colour,0.5
044,71,0,2,9,4,404,693.7967164278962,694.623595545534,"[74, 0, 180]",180,l,0.30366111313924193,colour,0.5
044,71,0,2,9,5,405,695.1404726309702,696.1355609786697,"[56, 0, 198]",198,a,0.4718057522550225,colour,0.5
044,71,0,2,9,6,406,696.6560220615938,697.1835904885083,"[92, 0, 162]",162,l,0.016610058024525642,colour,0.5
044,71,0,2,9,7,407,697.6911097946577,698.7834816295654,"[62, 0, 192]",192,a,0.5690014115534723,colour,0.5
044,71,0,2,9,8,408,699.3005359456874,702.5356513266452,"[10, 0, 244]",244,a,2.7117150258272886,colour,0.5
044,71,0,2,9,9,409,703.0471803783439,703.903546740301,"[85, 0, 169]",169,l,0.33313496643677354,colour,0.5
044,71,0,2,9,10,410,704.4221981014125,705.5914990720339,"[42, 0, 212]",212,a,0.6460104980506003,colour,0.5
044,71,0,2,9,11,411,706.1097353198566,707.1115265311673,"[70, 0, 184]",184,a,0.4785621790215373,colour,0.5
044,71,0,2,9,12,412,707.6252351258881,708.151538125705,"[94, 0, 160]",160,l,0.0029924409464001656,colour,0.5
044,71,0,2,9,13,413,708.6721906182356,709.2555268397555,"[6, 0, 248]",248,a,0.06013909028843045,colour,0.5
044,71,0,2,9,14,414,709.7658928646706,710.4475909234025,"[93, 0, 161]",161,l,0.15831227554008365,colour,0.5
044,71,0,2,9,15,415,710.955334328115,711.7995087956078,"[88, 0, 166]",166,l,0.3208962045609951,colour,0.5
044,71,0,2,9,16,416,712.3147234572098,713.3035197220743,"[32, 0, 222]",222,a,0.4656660878099501,colour,0.5
044,71,0,2,9,17,417,713.8147273957729,714.9755370481871,"[4, 0, 250]",250,a,0.6377322506159544,colour,0.5
044,71,0,2,9,18,418,715.4865911216475,716.7195151443593,"[65, 0, 189]",189,a,0.707741120364517,colour,0.5
044,71,0,2,9,19,419,717.2384457420558,717.7917307321914,"[20, 0, 234]",234,a,0.02999018505215645,colour,0.5
044,71,0,2,9,20,420,718.3010010775179,719.7195245963521,"[34, 0, 220]",220,a,0.895368529483676,colour,0.5
044,71,0,2,9,21,421,720.2384083271027,721.2874760148115,"[0, 0, 254]",254,a,0.5258126617409289,colour,0.5
044,71,0,2,9,22,422,721.8009928069077,723.1754792318679,"[17, 0, 237]",237,a,0.8516311524435878,colour,0.5
044,71,0,2,9,23,423,723.6915548406541,726.4155436805449,"[35, 0, 219]",219,a,2.2008712659589946,colour,0.5
044,71,0,2,9,24,424,726.9351264876314,728.4155495883897,"[22, 0, 232]",232,a,0.9571885545738041,colour,0.5
044,71,0,2,9,25,425,728.9350319644436,730.1115115648136,"[41, 0, 213]",213,a,0.6531233554705977,colour,0.5
044,71,0,2,9,26,426,730.6225640629418,731.6636193497106,"[90, 0, 164]",164,l,0.517849097494036,colour,0.5
044,71,0,2,9,27,427,732.1866979328915,733.4235237869434,"[25, 0, 229]",229,a,0.7136161201633513,colour,0.5
044,71,0,2,9,28,428,733.9365872619674,735.4875111458823,"[54, 0, 200]",200,a,1.0276275034993887,colour,0.5
044,71,0,2,9,29,429,735.9866974600591,737.4235174851492,"[33, 0, 221]",221,a,0.9134649615734816,colour,0.5
044,71,0,2,9,30,430,737.9354407768697,738.5997981932014,"[87, 0, 167]",167,l,0.14114453177899122,colour,0.5
044,71,0,2,9,31,431,739.1073143491521,739.8154879119247,"[96, 0, 158]",158,l,0.1848819088190794,colour,0.5
044,71,0,2,9,32,432,740.3263123733923,740.8795268652029,"[86, 0, 168]",168,l,0.0305707142688334,colour,0.5
044,71,0,2,9,33,433,741.3907353263348,742.8234979505651,"[39, 0, 215]",215,a,0.9094378873705864,colour,0.5
044,71,0,2,9,34,434,743.3438912923448,745.071578739211,"[53, 0, 201]",201,a,1.2043241132050753,colour,0.5
044,71,0,2,9,35,435,745.5783087783493,747.0875539174303,"[8, 0, 246]",246,a,0.9866824937053025,colour,0.5
044,71,0,2,9,36,436,747.5938964122906,751.2555201444775,"[19, 0, 235]",235,a,3.1383521645329893,colour,0.5
044,71,0,2,9,37,437,751.7670165067539,755.0395184997469,"[7, 0, 247]",247,a,2.749234363436699,colour,0.5
044,71,0,2,9,38,438,755.5481626302935,756.5195075822994,"[89, 0, 165]",165,l,0.44824549509212375,colour,0.5
044,71,0,2,9,39,439,757.0326265902258,757.559522327967,"[52, 0, 202]",202,a,0.003668674733489752,colour,0.5
044,71,0,2,9,40,440,758.0794611717574,758.6714683049358,"[16, 0, 238]",238,a,0.06862135045230389,colour,0.5
044,71,0,2,9,41,441,759.188830608502,760.0155135910027,"[79, 0, 175]",175,l,0.3033932978287339,colour,0.5
044,71,0,2,9,42,442,760.5325864176266,763.1837752023712,"[60, 0, 194]",194,a,2.127843567635864,colour,0.5
044,71,0,2,9,43,443,763.7044812575914,764.4474826157093,"[83, 0, 171]",171,a,0.21977547649294138,colour,0.5
044,71,0,2,9,44,444,764.9544836208224,765.607477794867,"[14, 0, 240]",240,l,0.12787271197885275,colour,0.5
044,71,0,2,9,45,445,766.1283220904879,766.7435476221144,"[45, 0, 209]",209,a,0.09197405027225614,colour,0.5
044,71,0,2,9,46,446,767.2533059427515,768.2875228826888,"[23, 0, 231]",231,a,0.510847698431462,colour,0.5
044,71,0,2,9,47,447,768.8002070840448,771.1115147159435,"[1, 0, 253]",253,a,1.7879738360643387,colour,0.5
044,71,0,2,9,48,448,771.628292158246,772.5914734723046,"[76, 0, 178]",178,l,0.43993022618815303,colour,0.5
044,71,0,2,9,49,449,773.1127001917921,774.0715078469366,"[84, 0, 170]",170,l,0.43558571161702275,colour,0.5
044,71,0,2,9,50,450,774.5814654533751,776.0554763488472,"[18, 0, 236]",236,a,0.9513257639482617,colour,0.5
044,71,0,2,10,1,451,784.0554885580204,784.7754936465062,"[22, 0, 232]",232,a,0.20821885531768203,colour,0.5
044,71,0,2,10,2,452,785.2938212663867,786.3756526028737,"[71, 0, 183]",183,a,0.5585077810101211,colour,0.5
044,71,0,2,10,3,453,786.887605432421,787.8234959812835,"[96, 0, 158]",158,l,0.4124988578259945,colour,0.5
044,71,0,2,10,4,454,788.3407350112684,788.9275863072835,"[9, 0, 245]",245,a,0.06359666399657726,colour,0.5
044,71,0,2,10,5,455,789.4406848349608,790.2794892136008,"[67, 0, 187]",187,a,0.31553162913769484,colour,0.5
044,71,0,2,10,6,456,790.8000235520303,791.6554710711353,"[57, 0, 197]",197,a,0.33213892998173833,colour,0.5
044,71,0,2,10,7,457,792.1751168933697,792.9594945223071,"[70, 0, 184]",184,a,0.26117104571312666,colour,0.5
044,71,0,2,10,8,458,793.4719038195908,794.3114498099312,"[50, 0, 204]",204,a,0.3163043544627726,colour,0.5
044,71,0,2,10,9,459,794.8313071276061,795.9756118790247,"[44, 0, 210]",210,a,0.6211879653856158,colour,0.5
044,71,0,2,10,10,460,796.4888399820775,797.2795498655178,"[68, 0, 186]",186,a,0.2675761617720127,colour,0.5
044,71,0,2,10,11,461,797.7855902807787,798.8874467127025,"[40, 0, 214]",214,a,0.5785379968583584,colour,0.5
044,71,0,2,10,12,462,799.3949813791551,800.0714893364348,"[37, 0, 217]",217,a,0.15313477721065283,colour,0.5
044,71,0,2,10,13,463,800.5834374399856,801.2474722969346,"[25, 0, 229]",229,a,0.14172112243250012,colour,0.5
044,71,0,2,10,14,464,801.7560758609325,802.4155810959637,"[66, 0, 188]",188,a,0.13631243631243706,colour,0.5
044,71,0,2,10,15,465,802.9208869882859,803.4955022796057,"[99, 0, 155]",155,l,0.06360296532511711,colour,0.5
044,71,0,2,10,16,466,804.0022669769824,804.7914656740613,"[39, 0, 215]",215,a,0.2615042394027114,colour,0.5
044,71,0,2,10,17,467,805.3035386269912,806.1514317877591,"[31, 0, 223]",223,a,0.3248933465220034,colour,0.5
044,71,0,2,10,18,468,806.6628899467178,807.3034897898324,"[87, 0, 167]",167,l,0.1173483612947166,colour,0.5
044,71,0,2,10,19,469,807.8191802175716,808.5514862956479,"[59, 0, 195]",195,a,0.20898055331781507,colour,0.5
044,71,0,2,10,20,470,809.069786740467,810.023557106033,"[8, 0, 246]",246,a,0.4304377515800297,colour,0.5
044,71,0,2,10,21,471,810.5385291590355,811.7594038592651,"[2, 0, 252]",252,a,0.6974719818681479,colour,0.5
044,71,0,2,10,22,472,812.2729056850076,813.8554404298775,"[58, 0, 196]",196,a,1.0591083955951035,colour,0.5
044,71,0,2,10,23,473,814.3666985156015,815.7115118014626,"[53, 0, 201]",201,a,0.8214412871748209,colour,0.5
044,71,0,2,10,24,474,816.2135952459648,816.7834946266375,"[51, 0, 203]",203,a,0.04679716657847166,colour,0.5
044,71,0,2,10,25,475,817.2924530459568,817.9754385869019,"[7, 0, 247]",247,a,0.17307046987116337,colour,0.5
044,71,0,2,10,26,476,818.4824714935385,819.3514267462306,"[72, 0, 182]",182,a,0.3458065646700561,colour,0.5
044,71,0,2,10,27,477,819.857495911885,820.4877667520195,"[60, 0, 194]",194,a,0.1070504724048078,colour,0.5
044,71,0,2,10,28,478,820.9999314709567,821.6074277767912,"[21, 0, 233]",233,a,0.08414124278351665,colour,0.5
044,71,0,2,10,29,479,822.1256864736788,822.6954389493912,"[65, 0, 189]",189,a,0.04656676668673754,colour,0.5
044,71,0,2,10,30,480,823.2037443718873,823.743488939479,"[47, 0, 207]",207,a,0.016736482735723257,colour,0.5
044,71,0,2,10,31,481,824.2506006150506,824.7754818312824,"[49, 0, 205]",205,a,0.0015836544334888458,colour,0.5
044,71,0,2,10,32,482,825.2990212142467,826.0794702302665,"[32, 0, 222]",222,a,0.25725700519979,colour,0.5
044,71,0,2,10,33,483,826.595989309717,828.4635322308168,"[10, 0, 244]",244,a,1.3442595382221043,colour,0.5
044,71,0,2,10,34,484,828.9709306266159,829.9274508245289,"[91, 0, 163]",163,l,0.43319743033498526,colour,0.5
044,71,0,2,10,35,485,830.439681709744,831.3194326730445,"[30, 0, 224]",224,a,0.35639550630003214,colour,0.5
044,71,0,2,10,36,486,831.8178994306363,832.6234372192994,"[93, 0, 161]",161,l,0.28223471296951175,colour,0.5
044,71,0,2,10,37,487,833.11794661358,833.7675478048623,"[5, 0, 249]",249,a,0.12629496539011598,colour,0.5
044,71,0,2,10,38,488,834.274164810311,835.67156755412,"[77, 0, 177]",177,a,0.8744474342092872,colour,0.5
044,71,0,2,10,39,489,836.174444204662,837.3754407134838,"[27, 0, 227]",227,a,0.6777241532690823,colour,0.5
044,71,0,2,10,40,490,837.8932204940356,838.4234847961925,"[75, 0, 179]",179,l,0.007023060694336891,colour,0.5
044,71,0,2,10,41,491,838.9557250230573,839.5354209267534,"[23, 0, 231]",231,a,0.056804003193974495,colour,0.5
044,71,0,2,10,42,492,840.0494371154346,840.6634775651619,"[19, 0, 235]",235,a,0.09073264803737402,colour,0.5
044,71,0,2,10,43,493,841.1749711707234,842.055427512154,"[15, 0, 239]",239,a,0.35727850906550884,colour,0.5
044,71,0,2,10,44,494,842.5655276905745,844.0394665119238,"[14, 0, 240]",240,a,0.9508499982766807,colour,0.5
044,71,0,2,10,45,495,844.5498431706801,845.1994254575111,"[88, 0, 166]",166,l,0.1262134392745793,colour,0.5
044,71,0,2,10,46,496,845.7061180812307,847.0954690389335,"[33, 0, 221]",221,a,0.8667831923812628,colour,0.5
044,71,0,2,10,47,497,847.61238550907,849.7914081723429,"[0, 0, 254]",254,a,1.6560618397779763,colour,0.5
044,71,0,2,10,48,498,850.2998608937487,851.2394382338971,"[94, 0, 160]",160,l,0.4166283323429525,colour,0.5
044,71,0,2,10,49,499,851.7545355297625,852.7754298434593,"[55, 0, 199]",199,a,0.4974912013858557,colour,0.5
044,71,0,2,10,50,500,853.2859341078438,857.0554483858868,"[89, 0, 165]",165,a,3.2470319774001837,colour,0.5
044,71,0,2,11,1,501,862.4262606222183,863.3914182549343,"[57, 0, 197]",197,a,0.44115351140499115,colour,0.5
044,71,0,2,11,2,502,863.9113992401399,864.9914543312043,"[16, 0, 238]",238,a,0.5567610738798976,colour,0.5
044,71,0,2,11,3,503,865.5051144831814,866.9195250691846,"[86, 0, 168]",168,l,0.8975709159858525,colour,0.5
044,71,0,2,11,4,504,867.4364139698446,870.567411061842,"[7, 0, 247]",247,a,2.607706619426608,colour,0.5
044,71,0,2,11,5,505,871.0770169636235,873.3434545169584,"[36, 0, 218]",218,a,1.7431549578905106,colour,0.5
044,71,0,2,11,6,506,873.8582690316252,874.5113852978684,"[12, 0, 242]",242,a,0.12978562153875828,colour,0.5
044,71,0,2,11,7,507,875.0300996745937,875.7754389019683,"[22, 0, 232]",232,a,0.22204836132004857,colour,0.5
044,71,0,2,11,8,508,876.2957570194267,877.2314033834264,"[9, 0, 245]",245,a,0.41237046429887414,colour,0.5
044,71,0,2,11,9,509,877.7488846285269,881.3113655271009,"[85, 0, 169]",169,a,3.0396791892126203,colour,0.5
044,71,0,2,11,10,510,881.831495385617,884.7354505439289,"[39, 0, 215]",215,a,2.380879725795239,colour,0.5
044,71,0,2,11,11,511,885.2533059427515,886.2233752282336,"[35, 0, 219]",219,a,0.44671304104849696,colour,0.5
044,71,0,2,11,12,512,886.7353465687484,887.671438372694,"[87, 0, 167]",167,l,0.4127249256707728,colour,0.5
044,71,0,2,11,13,513,888.1884407009929,888.8234085473232,"[1, 0, 253]",253,a,0.11156749073415995,colour,0.5
044,71,0,2,11,14,514,889.3447345164604,889.8954496616498,"[33, 0, 221]",221,a,0.02745696809142828,colour,0.5
044,71,0,2,11,15,515,890.407212657854,891.0713865426369,"[91, 0, 163]",163,l,0.14088774472475052,colour,0.5
044,71,0,2,11,16,516,891.5810018968768,892.2473899829201,"[68, 0, 186]",186,a,0.14326854282990098,colour,0.5
044,71,0,2,11,17,517,892.7685666843317,893.3275210866705,"[65, 0, 189]",189,a,0.03640120942145586,colour,0.5
044,71,0,2,11,18,518,893.846658453811,894.4234402915463,"[50, 0, 204]",204,a,0.05353980837389827,colour,0.5
044,71,0,2,11,19,519,894.940357549116,895.4954061810859,"[17, 0, 237]",237,a,0.03174713207408786,colour,0.5
044,71,0,2,11,20,520,896.0029038260691,897.8234109105542,"[11, 0, 243]",243,a,1.298189805354923,colour,0.5
044,71,0,2,11,21,521,898.3318301546387,899.2393913664855,"[82, 0, 172]",172,l,0.3844519085250795,colour,0.5
044,71,0,2,11,22,522,899.7537450809032,900.5434108790942,"[2, 0, 252]",252,a,0.26640407647937536,colour,0.5
044,71,0,2,11,23,523,901.0496210413985,904.4394040480256,"[96, 0, 158]",158,l,2.8665488539263606,colour,0.5
044,71,0,2,11,24,524,904.9558274229057,905.9353990289383,"[62, 0, 192]",192,a,0.45635832706466317,colour,0.5
044,71,0,2,11,25,525,906.4558731094003,908.7997297430411,"[60, 0, 194]",194,a,1.8206433551385999,colour,0.5
044,71,0,2,11,26,526,909.3151618079282,909.9273728430271,"[0, 0, 254]",254,a,0.08909424906596541,colour,0.5
044,71,0,2,11,27,527,910.4401917401701,911.9594177226536,"[74, 0, 180]",180,l,0.9959359038621187,colour,0.5
044,71,0,2,11,28,528,912.4713870938867,913.3834318472072,"[47, 0, 207]",207,a,0.38870505010709167,colour,0.5
044,71,0,2,11,29,529,913.8933788198046,914.8714207285084,"[76, 0, 178]",178,l,0.4547490729019046,colour,0.5
044,71,0,2,11,30,530,915.3776730322279,916.2873862180859,"[80, 0, 174]",174,l,0.3864341350272298,colour,0.5
044,71,0,2,11,31,531,916.788338537328,917.7353847716004,"[41, 0, 213]",213,a,0.4236238235607743,colour,0.5
044,71,0,2,11,32,532,918.2415417651646,919.0714141116478,"[54, 0, 200]",200,a,0.30652082804590464,colour,0.5
044,71,0,2,11,33,533,919.5853231744841,921.263467955403,"[66, 0, 188]",188,a,1.1548275272361934,colour,0.5
044,71,0,2,11,34,534,921.7727658697404,922.807414858602,"[69, 0, 185]",185,a,0.5114093227311969,colour,0.5
044,71,0,2,11,35,535,923.3196099037305,924.4953990918584,"[55, 0, 199]",199,a,0.6523494482971728,colour,0.5
044,71,0,2,11,36,536,924.9947504280135,925.8878003861755,"[25, 0, 229]",229,a,0.36980832275003195,colour,0.5
044,71,0,2,11,37,537,926.4009646861814,927.2156137065031,"[27, 0, 227]",227,a,0.2984115406870842,colour,0.5
044,71,0,2,11,38,538,927.7220570258796,930.3675925461575,"[88, 0, 166]",166,a,2.1222647400572896,colour,0.5
044,71,0,2,11,39,539,930.8809096580371,934.0874452162534,"[5, 0, 249]",249,a,2.677824190352112,colour,0.5
044,71,0,2,11,40,540,934.5926014469005,935.3674117708579,"[23, 0, 231]",231,a,0.25160374073311687,colour,0.5
044,71,0,2,11,41,541,935.8740748558193,936.6157170515507,"[24, 0, 230]",230,a,0.21860654139891267,colour,0.5
044,71,0,2,11,42,542,937.1237680502236,938.0713483393192,"[75, 0, 179]",179,l,0.4242902109399438,colour,0.5
044,71,0,2,11,43,543,938.5925849052146,939.5593899958767,"[90, 0, 164]",164,l,0.44353115977719426,colour,0.5
044,71,0,2,11,44,544,940.0768999913707,940.9833982130513,"[58, 0, 196]",196,a,0.3832250782288611,colour,0.5
044,71,0,2,11,45,545,941.4999677045271,942.6793928788975,"[3, 0, 251]",251,a,0.6561059509404004,colour,0.5
044,71,0,2,11,46,546,943.1873895265162,944.4714241153561,"[52, 0, 202]",202,a,0.7607181230559945,colour,0.5
044,71,0,2,11,47,547,944.9843351724558,946.3593950369395,"[45, 0, 209]",209,a,0.8516898350790143,colour,0.5
044,71,0,2,11,48,548,946.8749488000758,947.9593984242529,"[84, 0, 170]",170,l,0.5610945611260831,colour,0.5
044,71,0,2,11,49,549,948.4686514399946,949.2954041333869,"[31, 0, 223]",223,a,0.30341535340994596,colour,0.5
044,71,0,2,11,50,550,949.8123879507184,950.6154216672294,"[38, 0, 216]",216,a,0.27975821029394865,colour,0.5
044,71,0,2,12,1,551,956.2503142892383,957.2633387735114,"[63, 0, 191]",191,a,0.48883210495114326,colour,0.5
044,71,0,2,12,2,552,957.7825210392475,958.7193820243701,"[7, 0, 247]",247,a,0.41368000162765384,colour,0.5
044,71,0,2,12,3,553,959.2356029623188,960.119391634129,"[91, 0, 163]",163,l,0.3604347901418805,colour,0.5
044,71,0,2,12,4,554,960.6262488854118,961.4393579680473,"[96, 0, 158]",158,l,0.28974181041121483,colour,0.5
044,71,0,2,12,5,555,961.9543599532917,962.895389797166,"[55, 0, 199]",199,a,0.4177114083431661,colour,0.5
044,71,0,2,12,6,556,963.4074875623919,964.2074087145738,"[94, 0, 160]",160,a,0.27659917203709483,colour,0.5
044,71,0,2,12,7,557,964.7200279315002,966.1673593102023,"[14, 0, 240]",240,a,0.9239869494922459,colour,0.5
044,71,0,2,12,8,558,966.6742744571529,967.3033995991573,"[25, 0, 229]",229,a,0.1057956786826253,colour,0.5
044,71,0,2,12,9,559,967.814997180365,968.6073860288598,"[38, 0, 216]",216,a,0.26934098545461893,colour,0.5
044,71,0,2,12,10,560,969.1296001202427,969.9993899329565,"[81, 0, 173]",173,l,0.3473272044211626,colour,0.5
044,71,0,2,12,11,561,970.5193606778048,971.4073985530995,"[65, 0, 189]",189,a,0.36468044901266694,colour,0.5
044,71,0,2,12,12,562,971.9246017429978,972.607353339903,"[40, 0, 214]",214,a,0.1594445831142366,colour,0.5
044,71,0,2,12,13,563,973.127652158495,975.6474149529822,"[56, 0, 198]",198,a,1.9964935895986855,colour,0.5
044,71,0,2,12,14,564,976.1589345522225,977.3193515404128,"[98, 0, 156]",156,l,0.6370126940310001,colour,0.5
044,71,0,2,12,15,565,977.8307774048299,978.3913832027465,"[57, 0, 197]",197,a,0.03736888896673918,colour,0.5
044,71,0,2,12,16,566,978.9088652352802,979.479392406065,"[45, 0, 209]",209,a,0.04716974450275302,colour,0.5
044,71,0,2,12,17,567,979.9870991832577,980.5354134435765,"[31, 0, 223]",223,a,0.025083258748054504,colour,0.5
044,71,0,2,12,18,568,981.049523761496,981.7036577258259,"[99, 0, 155]",155,l,0.13044176902621984,colour,0.5
044,71,0,2,12,19,569,982.2213914263994,982.9593535256572,"[12, 0, 242]",242,a,0.2146133380010724,colour,0.5
044,71,0,2,12,20,570,983.4717191061936,984.4313786500134,"[17, 0, 237]",237,a,0.4365506344474852,colour,0.5
044,71,0,2,12,21,571,984.9280971256085,986.1993305408396,"[19, 0, 235]",235,a,0.74797602603212,colour,0.5
044,71,0,2,12,22,572,986.7068888377398,988.0473796646111,"[26, 0, 228]",228,a,0.8171826312318444,colour,0.5
044,71,0,2,12,23,573,988.566240157932,989.783369383309,"[23, 0, 231]",231,a,0.6937859775498509,colour,0.5
044,71,0,2,12,24,574,990.3029490397312,991.1993844974786,"[41, 0, 213]",213,a,0.37307488080114126,colour,0.5
044,71,0,2,12,25,575,991.7091597532853,992.7433302192949,"[48, 0, 206]",206,a,0.5108677842654288,colour,0.5
044,71,0,2,12,26,576,993.256077830214,994.6473692669533,"[67, 0, 187]",187,a,0.8681065151467919,colour,0.5
044,71,0,2,12,27,577,995.1529299775138,997.439388688188,"[79, 0, 175]",175,l,1.7630894691683352,colour,0.5
044,71,0,2,12,28,578,997.9497838574462,999.3113592253067,"[59, 0, 195]",195,a,0.8383057694882154,colour,0.5
044,71,0,2,12,29,579,999.8248476604931,1000.7354017072357,"[93, 0, 161]",161,l,0.3873387989588082,colour,0.5
044,71,0,2,12,30,580,1001.2466609743424,1002.1194058125839,"[39, 0, 215]",215,a,0.3495551901869476,colour,0.5
044,71,0,2,12,31,581,1002.63724506367,1003.5753328786232,"[60, 0, 194]",194,a,0.41475165635347366,colour,0.5
044,71,0,2,12,32,582,1004.0904278112575,1004.9353427090682,"[61, 0, 193]",193,a,0.3216165485791862,colour,0.5
044,71,0,2,12,33,583,1005.4497842513956,1006.1033522589132,"[92, 0, 162]",162,l,0.1302692643366754,colour,0.5
044,71,0,2,12,34,584,1006.6230004443787,1007.567376403138,"[68, 0, 186]",186,a,0.4212855603545904,colour,0.5
044,71,0,2,12,35,585,1008.076161136385,1011.4953644336201,"[0, 0, 254]",254,a,2.895932910963893,colour,0.5
044,71,0,2,12,36,586,1012.0136156473309,1013.1273264479823,"[2, 0, 252]",252,a,0.590486494358629,colour,0.5
044,71,0,2,12,37,587,1013.6387558565475,1015.759374320507,"[1, 0, 253]",253,a,1.5978277819231153,colour,0.5
044,71,0,2,12,38,588,1016.2791591705754,1017.2393185049295,"[5, 0, 249]",249,a,0.43709768634289503,colour,0.5
044,71,0,2,12,39,589,1017.7479827213101,1019.4954924336635,"[64, 0, 190]",190,a,1.2243496030569077,colour,0.5
044,71,0,2,12,40,590,1020.0136278565042,1020.8953433232382,"[75, 0, 179]",179,l,0.35842617554590106,colour,0.5
044,71,0,2,12,41,591,1021.4057660619728,1022.7273743394762,"[16, 0, 238]",238,a,0.7983225313946605,colour,0.5
044,71,0,2,12,42,592,1023.233893671073,1024.2394807692617,"[32, 0, 222]",222,a,0.4824608596973121,colour,0.5
044,71,0,2,12,43,593,1024.7494836682454,1026.3753316183574,"[50, 0, 204]",204,a,1.10254408698529,colour,0.5
044,71,0,2,12,44,594,1026.8901520404033,1027.431370772887,"[49, 0, 205]",205,a,0.01791447540745139,colour,0.5
044,71,0,2,12,45,595,1027.9526187605225,1029.0393987707794,"[74, 0, 180]",180,l,0.56344148889184,colour,0.5
044,71,0,2,12,46,596,1029.5463714189827,1030.0793430176564,"[46, 0, 208]",208,a,0.00969215389341116,colour,0.5
044,71,0,2,12,47,597,1030.5932339634746,1031.511364030186,"[95, 0, 159]",159,l,0.39514718810096383,colour,0.5
044,71,0,2,12,48,598,1032.030781027861,1032.7993634664454,"[8, 0, 246]",246,a,0.24551173206418753,colour,0.5
044,71,0,2,12,49,599,1033.3120342772454,1034.2473289370537,"[42, 0, 212]",212,a,0.4120238795876503,colour,0.5
044,71,0,2,12,50,600,1034.765119350981,1035.87942682812,"[73, 0, 181]",181,l,0.5912501611746848,colour,0.5
044,71,0,2,13,1,601,1041.313308762852,1043.4713540109806,"[52, 0, 202]",202,a,1.6332743088714778,colour,0.5
044,71,0,2,13,2,602,1043.985992869828,1045.4633301878348,"[40, 0, 214]",214,a,0.9540192764252424,colour,0.5
044,71,0,2,13,3,603,1045.9704087805003,1047.0873266686685,"[67, 0, 187]",187,a,0.5937168188393116,colour,0.5
044,71,0,2,13,4,604,1047.5953879067674,1048.591340746265,"[18, 0, 236]",236,a,0.472728927154094,colour,0.5
044,71,0,2,13,5,605,1049.1109723900445,1050.2153336820193,"[56, 0, 198]",198,a,0.5810633366927505,colour,0.5
044,71,0,2,13,6,606,1050.7360791219398,1052.5914155766368,"[77, 0, 177]",177,l,1.3321030898950994,colour,0.5
044,71,0,2,13,7,607,1053.1111630112864,1054.0395196811296,"[10, 0, 244]",244,a,0.4051386648789048,colour,0.5
044,71,0,2,13,8,608,1054.5484135099687,1055.9754799408838,"[54, 0, 200]",200,a,0.9039890291169286,colour,0.5
044,71,0,2,13,9,609,1056.4871866167523,1057.8313087029383,"[45, 0, 209]",209,a,0.8208836014382541,colour,0.5
044,71,0,2,13,10,610,1058.346650970634,1060.119300655555,"[51, 0, 203]",203,a,1.2493395199999213,colour,0.5
044,71,0,2,13,11,611,1060.6278333277442,1061.3113588313572,"[11, 0, 243]",243,a,0.1602689023129642,colour,0.5
044,71,0,2,13,12,612,1061.83093809383,1066.9593070517294,"[53, 0, 201]",201,a,4.605117476079613,colour,0.5
044,71,0,2,13,13,613,1067.4594082701951,1070.5112990457565,"[17, 0, 237]",237,a,2.528686555568129,colour,0.5
044,71,0,2,13,14,614,1071.0217280858196,1072.34336353885,"[12, 0, 242]",242,a,0.8011810653842986,colour,0.5
044,71,0,2,13,15,615,1072.8632622100413,1074.0073117497377,"[83, 0, 171]",171,l,0.6207736395299435,colour,0.5
044,71,0,2,13,16,616,1074.51950718835,1075.1194203849882,"[87, 0, 167]",167,l,0.076535290107131,colour,0.5
044,71,0,2,13,17,617,1075.6211344022304,1077.2313108295202,"[58, 0, 196]",196,a,1.0869229761883616,colour,0.5
044,71,0,2,13,18,618,1077.7460847776383,1078.9913216051646,"[48, 0, 206]",206,a,0.721879007294774,colour,0.5
044,71,0,2,13,19,619,1079.511711008381,1083.167292356491,"[14, 0, 240]",240,a,3.1322991461493075,colour,0.5
044,71,0,2,13,20,620,1083.684773995541,1084.7833079434931,"[6, 0, 248]",248,a,0.5751855801790953,colour,0.5
044,71,0,2,13,21,621,1085.2941812416539,1086.2472891584039,"[7, 0, 247]",247,a,0.42978633055463433,colour,0.5
044,71,0,2,13,22,622,1086.7629681648687,1087.495281726122,"[93, 0, 161]",161,l,0.20901087997481227,colour,0.5
044,71,0,2,13,23,623,1088.0037698931992,1088.847325234674,"[90, 0, 164]",164,l,0.3202077616006136,colour,0.5
044,71,0,2,13,24,624,1089.3630747394636,1090.2232499849051,"[23, 0, 231]",231,a,0.33678828086704016,colour,0.5
044,71,0,2,13,25,625,1090.7380617423914,1091.567299997434,"[98, 0, 156]",156,l,0.3121260437183082,colour,0.5
044,71,0,2,13,26,626,1092.075792497024,1092.887287992984,"[68, 0, 186]",186,a,0.28815618669614196,colour,0.5
044,71,0,2,13,27,627,1093.4039583089761,1094.0073278974742,"[3, 0, 251]",251,a,0.08013149769976735,colour,0.5
044,71,0,2,13,28,628,1094.5290303830989,1095.1433374662884,"[46, 0, 208]",208,a,0.09112019231542945,colour,0.5
044,71,0,2,13,29,629,1095.6540165981278,1096.295256047044,"[95, 0, 159]",159,l,0.11796827474609017,colour,0.5
044,71,0,2,13,30,630,1096.8102347953245,1100.047341067344,"[49, 0, 205]",205,a,2.7140469872392714,colour,0.5
044,71,0,2,13,31,631,1100.5603100196458,1101.4872775953263,"[33, 0, 221]",221,a,0.40372239518910646,colour,0.5
044,71,0,2,13,32,632,1101.9991012439132,1103.5193138103932,"[72, 0, 182]",182,l,0.9971371339634061,colour,0.5
044,71,0,2,13,33,633,1104.030289114453,1105.3593115415424,"[16, 0, 238]",238,a,0.8058252963237464,colour,0.5
044,71,0,2,13,34,634,1105.8741095145233,1106.8072474738583,"[57, 0, 197]",197,a,0.40989199141040444,colour,0.5
044,71,0,2,13,35,635,1107.3271260592155,1108.9032741985284,"[75, 0, 179]",179,a,1.052808830048889,colour,0.5
044,71,0,2,13,36,636,1109.4084930508398,1110.8155997642316,"[26, 0, 228]",228,a,0.8837996991351247,colour,0.5
044,71,0,2,13,37,637,1111.328852285631,1112.3272851728834,"[85, 0, 169]",169,l,0.47511760238558054,colour,0.5
044,71,0,2,13,38,638,1112.8445041165687,1114.0472567845136,"[99, 0, 155]",155,l,0.6794732231646776,colour,0.5
044,71,0,2,13,39,639,1114.563265833538,1115.415291619487,"[79, 0, 175]",175,l,0.3287376766093075,colour,0.5
044,71,0,2,13,40,640,1115.9225939167663,1116.9192958506756,"[36, 0, 218]",218,a,0.4734512399882078,colour,0.5
044,71,0,2,13,41,641,1117.4381713103503,1118.239309052471,"[42, 0, 212]",212,a,0.27778976829722524,colour,0.5
044,71,0,2,13,42,642,1118.7506900182925,1119.3673196109012,"[13, 0, 241]",241,a,0.09331903420388699,colour,0.5
044,71,0,2,13,43,643,1119.8757727257907,1120.9032844388857,"[8, 0, 246]",246,a,0.5042011546902359,colour,0.5
044,71,0,2,13,44,644,1121.4225840703584,1122.2952977949753,"[37, 0, 217]",217,a,0.34948744904249907,colour,0.5
044,71,0,2,13,45,645,1122.8047473402694,1123.6632971838117,"[59, 0, 195]",195,a,0.3351845405995846,colour,0.5
044,71,0,2,13,46,646,1124.1672962950543,1124.7592545915395,"[28, 0, 226]",226,a,0.06860795943066478,colour,0.5
044,71,0,2,13,47,647,1125.276694482658,1125.8472996349446,"[55, 0, 199]",199,a,0.04725678451359272,colour,0.5
044,71,0,2,13,48,648,1126.3458132604137,1128.927296042908,"[92, 0, 162]",162,l,2.058208851609379,colour,0.5
044,71,0,2,13,49,649,1129.4395604049787,1130.7672725068405,"[38, 0, 216]",216,a,0.8045007926411927,colour,0.5
044,71,0,2,13,50,650,1131.2833067621104,1132.4315810864791,"[62, 0, 192]",192,a,0.6249720365740359,colour,0.5
044,71,0,2,14,1,651,1140.7368301860988,1142.6952558108605,"[75, 0, 179]",179,a,1.4343596696853638,colour,0.5
044,71,0,2,14,2,652,1143.2063807765953,1143.8393892394379,"[31, 0, 223]",223,a,0.1101669748313725,colour,0.5
044,71,0,2,14,3,653,1144.3469266626053,1146.543234829791,"[40, 0, 214]",214,a,1.672902691643685,colour,0.5
044,71,0,2,14,4,654,1147.0513405730017,1147.5992980091833,"[68, 0, 186]",186,a,0.02460316102951765,colour,0.5
044,71,0,2,14,5,655,1148.1137840561569,1150.4792336863466,"[22, 0, 232]",232,a,1.8420788133516908,colour,0.5
044,71,0,2,14,6,656,1150.9888907880522,1151.5592891713604,"[54, 0, 200]",200,a,0.047102396842092276,colour,0.5
044,71,0,2,14,7,657,1152.0669624712318,1153.4232949623838,"[59, 0, 195]",195,a,0.8333177110180259,colour,0.5
044,71,0,2,14,8,658,1153.9447851651348,1154.6552375205792,"[16, 0, 238]",238,a,0.18709374777972698,colour,0.5
044,71,0,2,14,9,659,1155.163544518873,1156.0075992569327,"[41, 0, 213]",213,a,0.32085051806643605,colour,0.5
044,71,0,2,14,10,660,1156.5228253402747,1157.2472674972378,"[85, 0, 169]",169,l,0.2011981583200395,colour,0.5
044,71,0,2,14,11,661,1157.7573117497377,1158.5032393829897,"[51, 0, 203]",203,a,0.22261746879667044,colour,0.5
044,71,0,2,14,12,662,1159.0228978078812,1160.1992943068035,"[38, 0, 216]",216,a,0.6532241799868643,colour,0.5
044,71,0,2,14,13,663,1160.710464171134,1163.4552685557865,"[52, 0, 202]",202,a,2.221654909197241,colour,0.5
044,71,0,2,14,14,664,1163.9759860327467,1165.0792370731942,"[95, 0, 159]",159,l,0.5798896756023169,colour,0.5
044,71,0,2,14,15,665,1165.5853310511447,1166.4792222646065,"[70, 0, 184]",184,l,0.3705778978765011,colour,0.5
044,71,0,2,14,16,666,1166.9929316472262,1169.0152071788907,"[91, 0, 163]",163,a,1.4992973790504038,colour,0.5
044,71,0,2,14,17,667,1169.5248745209537,1170.6232592011802,"[79, 0, 175]",175,a,0.5758074629120529,colour,0.5
044,71,0,2,14,18,668,1171.1335023459978,1172.007242038846,"[66, 0, 188]",188,a,0.3502889252267778,colour,0.5
044,71,0,2,14,19,669,1172.5267366240732,1174.7352595287375,"[78, 0, 176]",176,a,1.6851796568371356,colour,0.5
044,71,0,2,14,20,670,1175.2455511167645,1178.9112621815875,"[96, 0, 158]",158,l,3.142779386136681,colour,0.5
044,71,0,2,14,21,671,1179.4181202207692,1180.4232433685102,"[94, 0, 160]",160,l,0.4818141646683216,colour,0.5
044,71,0,2,14,22,672,1180.9337153378874,1181.8392702979036,"[58, 0, 196]",196,a,0.38229835871607065,colour,0.5
044,71,0,2,14,23,673,1182.3555637039244,1183.151243923232,"[15, 0, 239]",239,a,0.27237793151289225,colour,0.5
044,71,0,2,14,24,674,1183.6680556298234,1184.4072303809226,"[28, 0, 226]",226,a,0.21623125672340393,colour,0.5
044,71,0,2,14,25,675,1184.9201918505132,1185.7592892497778,"[35, 0, 219]",219,a,0.31573721626773477,colour,0.5
044,71,0,2,14,26,676,1186.2795120566152,1187.0552384657785,"[23, 0, 231]",231,a,0.2532610441558063,colour,0.5
044,71,0,2,14,27,677,1187.5755510693416,1189.9112200401723,"[20, 0, 234]",234,a,1.8122879141010344,colour,0.5
044,71,0,2,14,28,678,1190.4193246015348,1191.3432453852147,"[57, 0, 197]",197,a,0.40056217601522803,colour,0.5
044,71,0,2,14,29,679,1191.859070901759,1193.7832433525473,"[8, 0, 246]",246,a,1.4133255402557552,colour,0.5
044,71,0,2,14,30,680,1194.2997443154454,1195.9272590214387,"[4, 0, 250]",250,a,1.1043297844007611,colour,0.5
044,71,0,2,14,31,681,1196.4372898833826,1197.6472609592602,"[33, 0, 221]",221,a,0.6867085667327046,colour,0.5
044,71,0,2,14,32,682,1198.1559708616696,1199.64722984517,"[44, 0, 210]",210,a,0.9679373973049223,colour,0.5
044,71,0,2,14,33,683,1200.1559996125288,1200.7752734865062,"[72, 0, 182]",182,a,0.09598340140655637,colour,0.5
044,71,0,2,14,34,684,1201.2966872830875,1201.8232155628502,"[67, 0, 187]",187,a,0.0032669520005583763,colour,0.5
044,71,0,2,14,35,685,1202.3435198958032,1202.8792476281524,"[14, 0, 240]",240,a,0.012510121800005436,colour,0.5
044,71,0,2,14,36,686,1203.3903466002084,1205.0152331725694,"[53, 0, 201]",201,a,1.101560260169208,colour,0.5
044,71,0,2,14,37,687,1205.5310382093303,1206.263222983107,"[1, 0, 253]",253,a,0.20902505796402693,colour,0.5
044,71,0,2,14,38,688,1206.7823347500525,1207.4472124376334,"[60, 0, 194]",194,a,0.1418412458151579,colour,0.5
044,71,0,2,14,39,689,1207.954193356447,1208.5752163003199,"[74, 0, 180]",180,l,0.09782620705664158,colour,0.5
044,71,0,2,14,40,690,1209.0947219133377,1210.311198930256,"[27, 0, 227]",227,a,0.6931152585893869,colour,0.5
044,71,0,2,14,41,691,1210.8291000151075,1211.887321863789,"[34, 0, 220]",220,a,0.5349431918002665,colour,0.5
044,71,0,2,14,42,692,1212.4071476734243,1213.0472032213584,"[0, 0, 254]",254,a,0.11672214651480317,colour,0.5
044,71,0,2,14,43,693,1213.5635663378052,1214.5192090473138,"[21, 0, 233]",233,a,0.4324361262843013,colour,0.5
044,71,0,2,14,44,694,1215.0321752424352,1216.111171675846,"[49, 0, 205]",205,a,0.5559013085439801,colour,0.5
044,71,0,2,14,45,695,1216.614737950731,1217.3672640784644,"[84, 0, 170]",170,l,0.22912065219134092,colour,0.5
044,71,0,2,14,46,696,1217.880415381398,1218.4552338970825,"[30, 0, 224]",224,a,0.051555612590163946,colour,0.5
044,71,0,2,14,47,697,1218.9741314123385,1220.3032968053594,"[12, 0, 242]",242,a,0.805898945312947,colour,0.5
044,71,0,2,14,48,698,1220.817816723138,1222.5751981833018,"[7, 0, 247]",247,a,1.2366498047485948,colour,0.5
044,71,0,2,14,49,699,1223.0966698750854,1223.967220203951,"[64, 0, 190]",190,a,0.34729175781831145,colour,0.5
044,71,0,2,14,50,700,1224.487330764532,1225.5511857913807,"[56, 0, 198]",198,a,0.5405759760178626,colour,0.5
044,71,0,2,15,1,701,1230.8145777340978,1235.695265263319,"[36, 0, 218]",218,a,4.356797229498625,colour,0.5
044,71,0,2,15,2,702,1236.2060278905556,1237.295337967109,"[65, 0, 189]",189,a,0.5663866684772074,colour,0.5
044,71,0,2,15,3,703,1237.8154331673868,1238.775245523546,"[49, 0, 205]",205,a,0.43679324351251125,colour,0.5
044,71,0,2,15,4,704,1239.2840613708831,1241.815280355513,"[32, 0, 222]",222,a,2.0158668709918857,colour,0.5
044,71,0,2,15,5,705,1242.312766436953,1243.711224293802,"[15, 0, 239]",239,a,0.8751803813502192,colour,0.5
044,71,0,2,15,6,706,1244.2190366215073,1245.287304298021,"[38, 0, 216]",216,a,0.5452454132027924,colour,0.5
044,71,0,2,15,7,707,1245.797084279824,1246.4952872395515,"[93, 0, 161]",161,l,0.1749246963299811,colour,0.5
044,71,0,2,15,8,708,1247.0158286676742,1248.2152671222575,"[21, 0, 233]",233,a,0.6760282530449331,colour,0.5
044,71,0,2,15,9,709,1248.734821965918,1250.1512344707735,"[44, 0, 210]",210,a,0.8930913126096129,colour,0.5
044,71,0,2,15,10,710,1250.6721709258854,1251.5912623708136,"[66, 0, 188]",188,a,0.39442763151600957,colour,0.5
044,71,0,2,15,11,711,1252.1113886851817,1253.471228767652,"[99, 0, 155]",155,l,0.8366185333579779,colour,0.5
044,71,0,2,15,12,712,1253.9864792698063,1258.9992237295955,"[58, 0, 196]",196,a,4.489353163167834,colour,0.5
044,71,0,2,15,13,713,1259.5189317795448,1260.3992101028562,"[35, 0, 219]",219,a,0.356973672285676,colour,0.5
044,71,0,2,15,14,714,1260.8973602084443,1261.9271857659332,"[20, 0, 234]",234,a,0.5065831341780722,colour,0.5
044,71,0,2,15,15,715,1262.4442664701492,1263.6151731503196,"[41, 0, 213]",213,a,0.6476319618523121,colour,0.5
044,71,0,2,15,16,716,1264.1316465437412,1265.0232089464553,"[78, 0, 176]",176,l,0.3686259975656867,colour,0.5
044,71,0,2,15,17,717,1265.537968322169,1266.2872125320137,"[62, 0, 192]",192,a,0.2259726421907544,colour,0.5
044,71,0,2,15,18,718,1266.8047843617387,1267.6071808352135,"[27, 0, 227]",227,a,0.2789886351674795,colour,0.5
044,71,0,2,15,19,719,1268.1173582077026,1268.7431718935259,"[91, 0, 163]",163,l,0.10262994561344385,colour,0.5
044,71,0,2,15,20,720,1269.257918666117,1269.9593078396283,"[52, 0, 202]",202,a,0.17815580870956182,colour,0.5
044,71,0,2,15,21,721,1270.4767095278949,1271.2551861633547,"[73, 0, 181]",181,l,0.25519404001533985,colour,0.5
044,71,0,2,15,22,722,1271.7735366262496,1272.3432111204602,"[84, 0, 170]",170,l,0.046283985022455454,colour,0.5
044,71,0,2,15,23,723,1272.8516441490501,1273.4071673657745,"[59, 0, 195]",195,a,0.03252300852909684,colour,0.5
044,71,0,2,15,24,724,1273.9141971217468,1274.6951605002396,"[33, 0, 221]",221,a,0.2578032691963017,colour,0.5
044,71,0,2,15,25,725,1275.2110643922351,1275.9111873512156,"[13, 0, 241]",241,a,0.17720309551805258,colour,0.5
044,71,0,2,15,26,726,1276.429756004829,1277.1271889954805,"[87, 0, 167]",167,l,0.17405469063669443,colour,0.5
044,71,0,2,15,27,727,1277.6485960967839,1278.1911846254952,"[61, 0, 193]",193,a,0.019730892963707447,colour,0.5
044,71,0,2,15,28,728,1278.7110261893831,1279.4792943382636,"[29, 0, 225]",225,a,0.24491781182587147,colour,0.5
044,71,0,2,15,29,729,1279.9923022813164,1281.191173991654,"[94, 0, 160]",160,l,0.6756048686802387,colour,0.5
044,71,0,2,15,30,730,1281.7123573883437,1282.6391914500855,"[46, 0, 208]",208,a,0.4036759212613106,colour,0.5
044,71,0,2,15,31,731,1283.1498170192353,1283.7672536023892,"[19, 0, 235]",235,a,0.09478571638464928,colour,0.5
044,71,0,2,15,32,732,1284.274795751553,1285.0231542019174,"[77, 0, 177]",177,l,0.22496282123029232,colour,0.5
044,71,0,2,15,33,733,1285.5404503392056,1287.159172435291,"[68, 0, 186]",186,a,1.0955040911212564,colour,0.5
044,71,0,2,15,34,734,1287.6678697345778,1288.6711870990694,"[16, 0, 238]",238,a,0.4800276798196137,colour,0.5
044,71,0,2,15,35,735,1289.183560950216,1289.9511863426305,"[63, 0, 191]",191,a,0.24439793545752764,colour,0.5
044,71,0,2,15,36,736,1290.4647527593188,1291.3511672019958,"[23, 0, 231]",231,a,0.3632889916189015,colour,0.5
044,71,0,2,15,37,737,1291.8710174299777,1292.3991592964157,"[22, 0, 232]",232,a,0.004919135477393866,colour,0.5
044,71,0,2,15,38,738,1292.917889426928,1293.7191598950885,"[14, 0, 240]",240,a,0.27804301120340824,colour,0.5
044,71,0,2,15,39,739,1294.2303719008341,1295.471295721829,"[48, 0, 206]",206,a,0.7176455575972795,colour,0.5
044,71,0,2,15,40,740,1295.9679259760305,1296.8791720098816,"[92, 0, 162]",162,l,0.3879594998434186,colour,0.5
044,71,0,2,15,41,741,1297.3898381451145,1298.2392881787382,"[83, 0, 171]",171,l,0.32630646554753184,colour,0.5
044,71,0,2,15,42,742,1298.7491201483645,1299.4391582882963,"[40, 0, 214]",214,a,0.1668918151408434,colour,0.5
044,71,0,2,15,43,743,1299.9522950188257,1301.1671489966102,"[82, 0, 172]",172,a,0.6915918621234596,colour,0.5
044,71,0,2,15,44,744,1301.6878960123286,1302.6713639358059,"[90, 0, 164]",164,l,0.4602499189786613,colour,0.5
044,71,0,2,15,45,745,1303.1879369718954,1304.6391871180385,"[18, 0, 236]",236,a,0.9286953778937459,colour,0.5
044,71,0,2,15,46,746,1305.1566057414748,1305.7351811532862,"[86, 0, 168]",168,l,0.055270761251449585,colour,0.5
044,71,0,2,15,47,747,1306.2503123199567,1308.0791500331834,"[1, 0, 253]",253,a,1.3055405453778803,colour,0.5
044,71,0,2,15,48,748,1308.5940567078069,1310.2631603614427,"[34, 0, 220]",220,a,1.146101870574057,colour,0.5
044,71,0,2,15,49,749,1310.7815891997889,1311.359170938842,"[85, 0, 169]",169,l,0.05448858346790075,colour,0.5
044,71,0,2,15,50,750,1311.8753524920903,1312.5351542932913,"[72, 0, 182]",182,l,0.13654126087203622,colour,0.5
044,71,0,2,16,1,751,1317.969994848594,1318.6311743226834,"[24, 0, 230]",230,l,0.13785513117909431,colour,0.5
044,71,0,2,16,2,752,1319.1427730848081,1319.735171307344,"[47, 0, 207]",207,a,0.06918612541630864,colour,0.5
044,71,0,2,16,3,753,1320.2520822635852,1320.9191335863434,"[50, 0, 204]",204,a,0.14376085065305233,colour,0.5
044,71,0,2,16,4,754,1321.4395954571664,1322.047302864492,"[28, 0, 226]",226,a,0.08453469490632415,colour,0.5
044,71,0,2,16,5,755,1322.5644973898306,1323.2551278737374,"[5, 0, 249]",249,a,0.16739633167162538,colour,0.5
044,71,0,2,16,6,756,1323.7676742295735,1324.4791635815054,"[36, 0, 218]",218,a,0.1881756423972547,colour,0.5
044,71,0,2,16,7,757,1324.98651944194,1325.623175705783,"[0, 0, 254]",254,a,0.11331734852865338,colour,0.5
044,71,0,2,16,8,758,1326.1426951033063,1326.8951751510613,"[3, 0, 251]",251,a,0.22796786529943347,colour,0.5
044,71,0,2,16,9,759,1327.4096194505692,1328.1591681027785,"[53, 0, 201]",201,a,0.22625187830999494,colour,0.5
044,71,0,2,16,10,760,1328.6752153551206,1329.535116483923,"[43, 0, 211]",211,a,0.3365492164157331,colour,0.5
044,71,0,2,16,11,761,1330.0408166158013,1330.7671803468838,"[95, 0, 159]",159,l,0.20382038410753012,colour,0.5
044,71,0,2,16,12,762,1331.2744460161775,1331.8311547092162,"[93, 0, 161]",161,l,0.033358749467879534,colour,0.5
044,71,0,2,16,13,763,1332.3530324562453,1332.8951822402887,"[58, 0, 196]",196,a,0.01871910272166133,colour,0.5
044,71,0,2,16,14,764,1333.415612210054,1334.3031495069154,"[56, 0, 198]",198,a,0.36453590728342533,colour,0.5
044,71,0,2,16,15,765,1334.8237507995218,1335.6391989332624,"[6, 0, 248]",248,a,0.29218286741524935,colour,0.5
044,71,0,2,16,16,766,1336.151874076575,1336.7431447179988,"[18, 0, 236]",236,a,0.0679959231056273,colour,0.5
044,71,0,2,16,17,767,1337.2612915625796,1338.0791141935624,"[31, 0, 223]",223,a,0.29461171524599195,colour,0.5
044,71,0,2,16,18,768,1338.5893159843981,1339.8872139495797,"[64, 0, 190]",190,a,0.7745775608345866,colour,0.5
044,71,0,2,16,19,769,1340.4018788025714,1341.9991555945016,"[70, 0, 184]",184,a,1.0740276733413339,colour,0.5
044,71,0,2,16,20,770,1342.5112718702294,1343.119151388295,"[84, 0, 170]",170,l,0.08465718105435371,colour,0.5
044,71,0,2,16,21,771,1343.636078491807,1345.8472161395475,"[44, 0, 210]",210,a,1.6876612799242139,colour,0.5
044,71,0,2,16,22,772,1346.354961907491,1346.9671351332217,"[15, 0, 239]",239,a,0.08883076580241323,colour,0.5
044,71,0,2,16,23,773,1347.4800099562854,1348.1351561048068,"[22, 0, 232]",232,a,0.13185646338388324,colour,0.5
044,71,0,2,16,24,774,1348.6518189380877,1349.2951390747912,"[77, 0, 177]",177,a,0.120065504219383,colour,0.5
044,71,0,2,16,25,775,1349.8080146857537,1350.3431402281858,"[33, 0, 221]",221,a,0.011790565215051174,colour,0.5
044,71,0,2,16,26,776,1350.8549205535091,1351.4231299408711,"[62, 0, 192]",192,a,0.044888589065521955,colour,0.5
044,71,0,2,16,27,777,1351.9331257501617,1352.5271340147592,"[32, 0, 222]",222,a,0.07075757067650557,colour,0.5
044,71,0,2,16,28,778,1353.0424817963503,1364.8551395316608,"[35, 0, 219]",219,a,11.290123446844518,colour,0.5
044,71,0,2,16,29,779,1365.3603182118386,1370.487233878579,"[2, 0, 252]",252,a,4.603590535931289,colour,0.5
044,71,0,2,16,30,780,1371.0009668916464,1371.927119600121,"[85, 0, 169]",169,l,0.4029362788423896,colour,0.5
044,71,0,2,16,31,781,1372.4383438150398,1373.3271260592155,"[1, 0, 253]",253,a,0.36534644290804863,colour,0.5
044,71,0,2,16,32,782,1373.8446608670056,1375.9751491099596,"[11, 0, 243]",243,a,1.6072887489572167,colour,0.5
044,71,0,2,16,33,783,1376.4852662240155,1377.4711354263127,"[63, 0, 191]",191,a,0.4624846004880965,colour,0.5
044,71,0,2,16,34,784,1377.985245744232,1380.1831261441112,"[37, 0, 217]",217,a,1.6746017429977655,colour,0.5
044,71,0,2,16,35,785,1380.6966590839438,1382.3031392670237,"[12, 0, 242]",242,a,1.083186165895313,colour,0.5
044,71,0,2,16,36,786,1382.8146242080256,1383.831078696996,"[73, 0, 181]",181,a,0.4932711427100003,colour,0.5
044,71,0,2,16,37,787,1384.3458191682585,1385.439409561921,"[90, 0, 164]",164,l,0.5705956998281181,colour,0.5
044,71,0,2,16,38,788,1385.9552157805301,1386.7511035562493,"[57, 0, 197]",197,a,0.27257367270067334,colour,0.5
044,71,0,2,16,39,789,1387.2678006542847,1389.4151258100756,"[60, 0, 194]",194,a,1.6240795818157494,colour,0.5
044,71,0,2,16,40,790,1389.923962925095,1390.4791312860325,"[20, 0, 234]",234,a,0.03186055924743414,colour,0.5
044,71,0,2,16,41,791,1390.986489509698,1391.7111904229969,"[92, 0, 162]",162,l,0.20009735878556967,colour,0.5
044,71,0,2,16,42,792,1392.2220633272082,1392.9191950261593,"[97, 0, 157]",157,l,0.17370613710954785,colour,0.5
044,71,0,2,16,43,793,1393.4252618290484,1394.3111300072633,"[65, 0, 189]",189,a,0.3625832200050354,colour,0.5
044,71,0,2,16,44,794,1394.8315658844076,1395.887172990013,"[78, 0, 176]",176,a,0.532540338113904,colour,0.5
044,71,0,2,16,45,795,1396.3940251213498,1399.1111070853658,"[99, 0, 155]",155,l,2.193844267167151,colour,0.5
044,71,0,2,16,46,796,1399.627246497199,1400.6634275466204,"[91, 0, 163]",163,l,0.5128429215401411,colour,0.5
044,71,0,2,16,47,797,1401.1741330665536,1401.7671051220968,"[29, 0, 225]",225,a,0.06961423577740788,colour,0.5
044,71,0,2,16,48,798,1402.2834249157459,1402.9671296193264,"[88, 0, 166]",166,l,0.16031852643936872,colour,0.5
044,71,0,2,16,49,799,1403.4865674911998,1404.4230838608928,"[9, 0, 245]",245,a,0.4259825670160353,colour,0.5
044,71,0,2,16,50,800,1404.919311998412,1406.6390953515656,"[76, 0, 178]",178,l,1.1942452020011842,colour,0.5
