id,age,condition,counterbalance,block,trialinblock,trial,tstart,tend,trialstim,trialintensity,response,RT,trialtype,colourfreq
178,22,1,2,Practice,1,NA,5.513778887689114e-06,0.8669949496397749,"[62, 0, 192]",192,a,0.342589350650087,colour,0.5
178,22,1,2,Practice,2,NA,1.3759633944137022,2.243009150144644,"[99, 0, 155]",155,l,0.34405799920205027,colour,0.5
178,22,1,2,Practice,3,NA,2.7513222366105765,5.546943387482315,"[21, 0, 233]",233,a,2.2723833026830107,colour,0.5
178,22,1,2,Practice,4,NA,6.064087269711308,6.594928692327812,"[4, 0, 250]",250,a,0.007480694679543376,colour,0.5
178,22,1,2,Practice,5,NA,7.133517442736775,8.24293156270869,"[16, 0, 238]",238,a,0.5931122786132619,colour,0.5
178,22,1,2,Practice,6,NA,8.75175822316669,9.41091400035657,"[76, 0, 178]",178,l,0.13571273570414633,colour,0.5
178,22,1,2,Practice,7,NA,9.925122160930187,10.474965036381036,"[24, 0, 230]",230,a,0.026667648693546653,colour,0.5
178,22,1,2,Practice,8,NA,10.987565521034412,11.642939203302376,"[22, 0, 232]",232,a,0.13194442528765649,colour,0.5
178,22,1,2,Practice,9,NA,12.15959786833264,12.938941793167032,"[89, 0, 165]",165,l,0.256229744059965,colour,0.5
178,22,1,2,Practice,10,NA,13.456618547905236,14.138868222944438,"[64, 0, 190]",190,a,0.15905318048316985,colour,0.5
178,22,1,2,1,1,1,3.9769419421209022,4.520018164184876,"[38, 0, 216]",216,a,0.018988062161952257,colour,0.5
178,22,1,2,1,2,2,5.040347859845497,5.728030628641136,"[84, 0, 170]",170,l,0.16437954234424978,colour,0.5
178,22,1,2,1,3,3,6.244866130058654,6.968073731055483,"[23, 0, 231]",231,a,0.19985081150662154,colour,0.5
178,22,1,2,1,4,4,7.479335536016151,8.112015467137098,"[1, 0, 253]",253,a,0.10926642792765051,colour,0.5
178,22,1,2,1,5,5,8.620122572523542,9.319980276282877,"[30, 0, 224]",224,a,0.1765308465110138,colour,0.5
178,22,1,2,1,6,6,9.838891341700219,10.536022455547936,"[77, 0, 177]",177,l,0.17385112424381077,colour,0.5
178,22,1,2,1,7,7,11.042159941396676,11.639988515526056,"[60, 0, 194]",194,a,0.07446902780793607,colour,0.5
178,22,1,2,1,8,8,12.151620141114108,12.807981980848126,"[85, 0, 169]",169,l,0.1329467612085864,colour,0.5
178,22,1,2,1,9,9,13.323494950309396,13.975954966270365,"[86, 0, 168]",168,l,0.1290303651476279,colour,0.5
178,22,1,2,1,10,10,14.495542263728566,15.168041514465585,"[82, 0, 172]",172,l,0.14912119368091226,colour,0.5
178,22,1,2,1,11,11,15.683426484349184,16.287930339807644,"[70, 0, 184]",184,a,0.0816354340640828,colour,0.5
178,22,1,2,1,12,12,16.808233254007064,17.360050475224853,"[58, 0, 196]",196,a,0.026292314170859754,colour,0.5
178,22,1,2,1,13,13,17.87335554882884,18.519988625776023,"[32, 0, 222]",222,a,0.12322311836760491,colour,0.5
178,22,1,2,1,14,14,19.02962385036517,20.519941758248024,"[8, 0, 246]",246,a,0.9668437525397167,colour,0.5
178,22,1,2,1,15,15,21.031196867814288,21.791968237259425,"[9, 0, 245]",245,a,0.23789231409318745,colour,0.5
178,22,1,2,1,16,16,22.31249288620893,23.032012521172874,"[96, 0, 158]",158,l,0.19684222841169685,colour,0.5
178,22,1,2,1,17,17,23.54620610945858,24.271972916089,"[16, 0, 238]",238,a,0.20240489719435573,colour,0.5
178,22,1,2,1,18,18,24.78069875226356,25.4399399937829,"[78, 0, 176]",176,l,0.13597976265009493,colour,0.5
178,22,1,2,1,19,19,25.952721647219732,26.50391265458893,"[43, 0, 211]",211,a,0.027827916434034705,colour,0.5
178,22,1,2,1,20,20,27.015314668533392,27.567932970705442,"[97, 0, 157]",157,l,0.02918313757982105,colour,0.5
178,22,1,2,1,21,21,28.07783325307537,28.607948425225914,"[27, 0, 227]",227,a,0.0066933982307091355,colour,0.5
178,22,1,2,1,22,22,29.124839065014385,29.807933144038543,"[31, 0, 223]",223,a,0.15970814495813102,colour,0.5
178,22,1,2,1,23,23,30.328980819438584,30.887919154716656,"[4, 0, 250]",250,a,0.03583557601086795,colour,0.5
178,22,1,2,1,24,24,31.407211855985224,32.10402159218211,"[66, 0, 188]",188,l,0.17394289001822472,colour,0.5
178,22,1,2,1,25,25,32.62575889041182,33.27991598495282,"[91, 0, 163]",163,l,0.12896853138227016,colour,0.5
178,22,1,2,1,26,26,33.7996643652441,34.39196256583091,"[5, 0, 249]",249,a,0.06939630233682692,colour,0.5
178,22,1,2,1,27,27,34.90911865734961,35.615871014189906,"[94, 0, 160]",160,l,0.18385006475728005,colour,0.5
178,22,1,2,1,28,28,36.128244250197895,36.735967002110556,"[45, 0, 209]",209,a,0.08454122359398752,colour,0.5
178,22,1,2,1,29,29,37.25304393074475,39.471918644267134,"[53, 0, 201]",201,a,1.6958960155025125,colour,0.5
178,22,1,2,1,30,30,39.98743200756144,40.631964314496145,"[92, 0, 162]",162,l,0.12103491474408656,colour,0.5
178,22,1,2,1,31,31,41.14723703847267,41.856034239404835,"[74, 0, 180]",180,l,0.1854557713959366,colour,0.5
178,22,1,2,1,32,32,42.366039678337984,42.911948828492314,"[19, 0, 235]",235,a,0.02245941327419132,colour,0.5
178,22,1,2,1,33,33,43.42300622793846,45.103960940032266,"[42, 0, 212]",212,a,1.1697204762604088,colour,0.5
178,22,1,2,1,34,34,45.617640166543424,46.83187735348474,"[15, 0, 239]",239,a,0.6913376516895369,colour,0.5
178,22,1,2,1,35,35,47.350840800325386,48.407842795946635,"[72, 0, 182]",182,l,0.53376769204624,colour,0.5
178,22,1,2,1,36,36,48.929076760075986,49.54389266308863,"[98, 0, 156]",156,l,0.09145635669119656,colour,0.5
178,22,1,2,1,37,37,50.055983512080275,50.61587377113756,"[64, 0, 190]",190,a,0.036655955482274294,colour,0.5
178,22,1,2,1,38,38,51.13407433987595,51.80784649809357,"[47, 0, 207]",207,a,0.1503468396840617,colour,0.5
178,22,1,2,1,39,39,52.32049227494281,52.91989110969007,"[46, 0, 208]",208,a,0.0763267952715978,colour,0.5
178,22,1,2,1,40,40,53.430006825365126,53.95983842900023,"[40, 0, 214]",214,a,0.005618200986646116,colour,0.5
178,22,1,2,1,41,41,54.47948480327614,55.07183853618335,"[0, 0, 254]",254,a,0.06899615575093776,colour,0.5
178,22,1,2,1,42,42,55.58893476310186,56.83991455135401,"[33, 0, 221]",221,a,0.7276682909578085,colour,0.5
178,22,1,2,1,43,43,57.35464376909658,57.888256679987535,"[7, 0, 247]",247,a,0.010207284707576036,colour,0.5
178,22,1,2,1,44,44,58.4016550949309,58.94386485754512,"[57, 0, 197]",197,a,0.01907825260423124,colour,0.5
178,22,1,2,1,45,45,59.46421267010737,60.647905590594746,"[67, 0, 187]",187,l,0.6604590107453987,colour,0.5
178,22,1,2,1,46,46,61.1674987958977,61.78389007947408,"[63, 0, 191]",191,l,0.09299786656629294,colour,0.5
178,22,1,2,1,47,47,62.29252375580836,63.263856555335224,"[95, 0, 159]",159,l,0.4478960594860837,colour,0.5
178,22,1,2,1,48,48,63.77708601066843,64.39187907066662,"[76, 0, 178]",178,l,0.09156072558835149,colour,0.5
178,22,1,2,1,49,49,64.90212790598162,65.53579993301537,"[35, 0, 219]",219,a,0.11026561306789517,colour,0.5
178,22,1,2,1,50,50,66.04425480368081,66.66383702063467,"[20, 0, 234]",234,a,0.09621479373890907,colour,0.5
178,22,1,2,2,1,51,71.14000919240061,71.79180006531533,"[96, 0, 158]",158,l,0.13937904010526836,colour,0.5
178,22,1,2,2,2,52,72.31148306722753,73.19981694081798,"[20, 0, 234]",234,a,0.3649963825009763,colour,0.5
178,22,1,2,2,3,53,73.71782688854728,74.36778244317975,"[16, 0, 238]",238,a,0.12724782200530171,colour,0.5
178,22,1,2,2,4,54,74.87416883907281,75.49579944461584,"[6, 0, 248]",248,a,0.09606237558182329,colour,0.5
178,22,1,2,2,5,55,76.01702001795638,76.55183218733873,"[19, 0, 235]",235,a,0.011435687658376992,colour,0.5
178,22,1,2,2,6,56,77.06272141484078,77.75182832765859,"[37, 0, 217]",217,a,0.16618729149922729,colour,0.5
178,22,1,2,2,7,57,78.26671626488678,78.92782827094197,"[43, 0, 211]",211,a,0.13776545657310635,colour,0.5
178,22,1,2,2,8,58,79.4386781139765,80.14384485024493,"[18, 0, 236]",236,a,0.18223766272421926,colour,0.5
178,22,1,2,2,9,59,80.65741734474432,81.27976356691215,"[42, 0, 212]",212,a,0.09934113640338182,colour,0.5
178,22,1,2,2,10,60,81.79814451676793,82.43182245153002,"[15, 0, 239]",239,a,0.11055351397953928,colour,0.5
178,22,1,2,2,11,61,82.94026353757363,83.51187147735618,"[86, 0, 168]",168,l,0.0482980179367587,colour,0.5
178,22,1,2,2,12,62,84.0184390420327,84.62374161556363,"[69, 0, 185]",185,l,0.08179966756142676,colour,0.5
178,22,1,2,2,13,63,85.1434833004605,85.94411219237372,"[64, 0, 190]",190,l,0.27839731809217483,colour,0.5
178,22,1,2,2,14,64,86.45610576169565,87.07181372388732,"[28, 0, 226]",226,a,0.0922436531400308,colour,0.5
178,22,1,2,2,15,65,87.5812532074051,88.27182640566025,"[59, 0, 195]",195,a,0.16752557724248618,colour,0.5
178,22,1,2,2,16,66,88.78641423291992,89.44778223836329,"[74, 0, 180]",180,l,0.13814669870771468,colour,0.5
178,22,1,2,2,17,67,89.95830006990582,90.52780015044846,"[73, 0, 181]",181,l,0.0465603731572628,colour,0.5
178,22,1,2,2,18,68,91.03893080505077,91.61581390665378,"[0, 0, 254]",254,a,0.053731111693196,colour,0.5
178,22,1,2,2,19,69,92.13269509421661,92.73577323032077,"[77, 0, 177]",177,l,0.07964966690633446,colour,0.5
178,22,1,2,2,20,70,93.2421568693826,93.81575766555034,"[71, 0, 183]",183,l,0.05021683149971068,colour,0.5
178,22,1,2,2,21,71,94.33593061077408,94.87978900934104,"[90, 0, 164]",164,l,0.020450803101994097,colour,0.5
178,22,1,2,2,22,72,95.39869022858329,95.951770511223,"[46, 0, 208]",208,a,0.029917264939285815,colour,0.5
178,22,1,2,2,23,73,96.4611891208915,97.08775578765199,"[87, 0, 167]",167,l,0.10161401669029146,colour,0.5
178,22,1,2,2,24,74,97.60380005429033,98.21613906521816,"[61, 0, 193]",193,a,0.08890620933379978,colour,0.5
178,22,1,2,2,25,75,98.72890811553225,99.30368965957314,"[26, 0, 228]",228,a,0.0514365698909387,colour,0.5
178,22,1,2,2,26,76,99.82272636156995,100.37574835505802,"[32, 0, 222]",222,a,0.02968056406825781,colour,0.5
178,22,1,2,2,27,77,100.88529220758937,101.92775974189863,"[47, 0, 207]",207,a,0.5191272863885388,colour,0.5
178,22,1,2,2,28,78,102.43357033620123,103.39173571101855,"[17, 0, 237]",237,a,0.4348074038280174,colour,0.5
178,22,1,2,2,29,79,103.90292307932395,104.55975201935507,"[39, 0, 215]",215,a,0.13348120904993266,colour,0.5
178,22,1,2,2,30,80,105.07483648543712,105.6877469655592,"[13, 0, 241]",241,a,0.08961355523206294,colour,0.5
178,22,1,2,2,31,81,106.19996817735955,107.31191550928634,"[68, 0, 186]",186,l,0.5886500130873173,colour,0.5
178,22,1,2,2,32,82,107.8250398079399,108.91172748757526,"[50, 0, 204]",204,a,0.563433289877139,colour,0.5
178,22,1,2,2,33,83,109.4189216599334,110.06372965849005,"[80, 0, 174]",174,l,0.12171626696363091,colour,0.5
178,22,1,2,2,34,84,110.57528093957808,111.20773795433342,"[12, 0, 242]",242,a,0.10811128013301641,colour,0.5
178,22,1,2,2,35,85,111.71742713579442,112.65574507822748,"[95, 0, 159]",159,l,0.41501747292932123,colour,0.5
178,22,1,2,2,36,86,113.17052785889246,114.1837555419188,"[94, 0, 160]",160,l,0.48974722623825073,colour,0.5
178,22,1,2,2,37,87,114.70190609234851,115.33578567579389,"[58, 0, 196]",196,a,0.11091545759700239,colour,0.5
178,22,1,2,2,38,88,115.84262656909414,116.4156992189819,"[33, 0, 221]",221,a,0.04975012503564358,colour,0.5
178,22,1,2,2,39,89,116.93645584268961,117.46380582812708,"[34, 0, 220]",220,a,0.003957749926485121,colour,0.5
178,22,1,2,2,40,90,117.98340612254106,118.51980036776513,"[2, 0, 252]",252,a,0.013028791174292564,colour,0.5
178,22,1,2,2,41,91,119.03174549411051,119.66367475641891,"[93, 0, 161]",161,l,0.1086504542035982,colour,0.5
178,22,1,2,2,42,92,120.17216743621975,120.84769181150477,"[65, 0, 189]",189,l,0.15215301362331957,colour,0.5
178,22,1,2,2,43,93,121.3598047158448,122.16776936745737,"[49, 0, 205]",205,a,0.28509347327053547,colour,0.5
178,22,1,2,2,44,94,122.68759454751853,123.51168479479384,"[57, 0, 197]",197,a,0.3007310947868973,colour,0.5
178,22,1,2,2,45,95,124.03152100241277,124.67968850000761,"[98, 0, 156]",156,l,0.12496233847923577,colour,0.5
178,22,1,2,2,46,96,125.18913901119959,125.97565013007261,"[22, 0, 232]",232,a,0.2631665385561064,colour,0.5
178,22,1,2,2,47,97,126.48615220782813,127.29568318161182,"[55, 0, 199]",199,a,0.28643254679627717,colour,0.5
178,22,1,2,2,48,98,127.81425632780883,128.5197889462579,"[83, 0, 171]",171,l,0.18266301543917507,colour,0.5
178,22,1,2,2,49,99,129.03446775185876,129.7837522336049,"[81, 0, 173]",173,l,0.2259399015456438,colour,0.5
178,22,1,2,2,50,100,130.30012851173524,131.08773530775215,"[24, 0, 230]",230,a,0.2641984128858894,colour,0.5
178,22,1,2,3,1,101,135.56538479262963,136.26364269747864,"[97, 0, 157]",157,l,0.1741311481455341,colour,0.5
178,22,1,2,3,2,102,136.78509288246278,137.43966981605627,"[92, 0, 162]",162,l,0.13011225766967982,colour,0.5
178,22,1,2,3,3,103,137.95832606370095,138.67974048759788,"[79, 0, 175]",175,l,0.19799658854026347,colour,0.5
178,22,1,2,3,4,104,139.19286163558718,139.83969281660393,"[82, 0, 172]",172,l,0.12347202852834016,colour,0.5
178,22,1,2,3,5,105,140.3491043371614,141.5516277817078,"[71, 0, 183]",183,l,0.6792257319903001,colour,0.5
178,22,1,2,3,6,106,142.06821476691402,142.8796625849791,"[31, 0, 223]",223,a,0.2882777111371979,colour,0.5
178,22,1,2,3,7,107,143.3962582348613,144.1276345779188,"[37, 0, 217]",217,a,0.2075607239967212,colour,0.5
178,22,1,2,3,8,108,144.6469686330529,145.19164268486202,"[56, 0, 198]",198,a,0.02155632642097771,colour,0.5
178,22,1,2,3,9,109,145.70946240541525,146.4156570774503,"[22, 0, 232]",232,a,0.18283236876595765,colour,0.5
178,22,1,2,3,10,110,146.92835720500443,147.67161979456432,"[21, 0, 233]",233,a,0.2206115706358105,colour,0.5
178,22,1,2,3,11,111,148.17858671827707,148.94359979976434,"[26, 0, 228]",228,a,0.24173387954942882,colour,0.5
178,22,1,2,3,12,112,149.45978112448938,150.2235996738309,"[41, 0, 213]",213,a,0.23946218087803572,colour,0.5
178,22,1,2,3,13,113,150.74246072093956,151.38357681501657,"[93, 0, 161]",161,l,0.11804484238382429,colour,0.5
178,22,1,2,3,14,114,151.8988696250599,152.68765756266657,"[44, 0, 210]",210,a,0.2655217325082049,colour,0.5
178,22,1,2,3,15,115,153.19568708061706,154.16762758325785,"[65, 0, 189]",189,l,0.44862900534644723,colour,0.5
178,22,1,2,3,16,116,154.68008037598338,155.21559280192014,"[47, 0, 207]",207,a,0.012301753042265773,colour,0.5
178,22,1,2,3,17,117,155.72705468034837,156.27159364323597,"[35, 0, 219]",219,a,0.021205016528256238,colour,0.5
178,22,1,2,3,18,118,156.7897118984256,157.4556437813444,"[57, 0, 197]",197,a,0.14265268098097295,colour,0.5
178,22,1,2,3,19,119,157.9629824948497,158.51164029026404,"[55, 0, 199]",199,a,0.025362839689478278,colour,0.5
178,22,1,2,3,20,120,159.02553967619315,160.07956853485666,"[32, 0, 222]",222,a,0.5306890045758337,colour,0.5
178,22,1,2,3,21,121,160.58814864826854,161.23958742362447,"[13, 0, 241]",241,a,0.12818989949300885,colour,0.5
178,22,1,2,3,22,122,161.76013294642325,162.4795801138971,"[83, 0, 171]",171,l,0.19611479644663632,colour,0.5
178,22,1,2,3,23,123,162.99459762615152,163.7275686482899,"[1, 0, 253]",253,a,0.20958114962559193,colour,0.5
178,22,1,2,3,24,124,164.24469205050264,164.99956322577782,"[89, 0, 165]",165,l,0.22998154046945274,colour,0.5
178,22,1,2,3,25,125,165.51206643064506,166.079612645437,"[63, 0, 191]",191,l,0.04507872764952481,colour,0.5
178,22,1,2,3,26,126,166.590066674049,167.4556504766224,"[18, 0, 236]",236,a,0.34218999161385,colour,0.5
178,22,1,2,3,27,127,167.9651793630328,168.75160029134713,"[98, 0, 156]",156,l,0.2629759175470099,colour,0.5
178,22,1,2,3,28,128,169.26218704576604,170.0235617859289,"[72, 0, 182]",182,l,0.23794627096503973,colour,0.5
178,22,1,2,3,29,129,170.54353032552171,171.38358744885772,"[52, 0, 202]",202,a,0.3170181668829173,colour,0.5
178,22,1,2,3,30,130,171.90307904197834,172.71158680610824,"[42, 0, 212]",212,a,0.2851572762010619,colour,0.5
178,22,1,2,3,31,131,173.23133873089682,174.20753394265193,"[14, 0, 240]",240,a,0.45323659980203956,colour,0.5
178,22,1,2,3,32,132,174.71571902930737,175.43962137307972,"[78, 0, 176]",176,l,0.2004872652469203,colour,0.5
178,22,1,2,3,33,133,175.9501340846764,176.76754629355855,"[19, 0, 235]",235,a,0.29397231817711145,colour,0.5
178,22,1,2,3,34,134,177.27990692656022,178.047607213608,"[40, 0, 214]",214,a,0.24442147894296795,colour,0.5
178,22,1,2,3,35,135,178.56119191728067,179.33558166399598,"[27, 0, 227]",227,a,0.2510175973875448,colour,0.5
178,22,1,2,3,36,136,179.84253519703634,180.5995441636769,"[59, 0, 195]",195,l,0.23363996809348464,colour,0.5
178,22,1,2,3,37,137,181.10825463978108,181.99152839090675,"[62, 0, 192]",192,l,0.35987915250007063,colour,0.5
178,22,1,2,3,38,138,182.4989734427072,183.3115831039613,"[66, 0, 188]",188,l,0.300839796080254,colour,0.5
178,22,1,2,3,39,139,183.83190492272843,184.62358210829552,"[54, 0, 200]",200,a,0.26894148997962475,colour,0.5
178,22,1,2,3,40,140,185.14026794862002,185.89551563980058,"[53, 0, 201]",201,a,0.23267622897401452,colour,0.5
178,22,1,2,3,41,141,186.40594052395318,187.15948522870895,"[49, 0, 205]",205,a,0.2306282342178747,colour,0.5
178,22,1,2,3,42,142,187.671700926614,188.43957726238295,"[58, 0, 196]",196,a,0.2446881120558828,colour,0.5
178,22,1,2,3,43,143,188.95457783935126,189.7835226219613,"[7, 0, 247]",247,a,0.30561319924890995,colour,0.5
178,22,1,2,3,44,144,190.29830934095662,191.01551395421848,"[33, 0, 221]",221,a,0.19417117070406675,colour,0.5
178,22,1,2,3,45,145,191.5326984025305,192.26355486991815,"[17, 0, 237]",237,a,0.20781711721792817,colour,0.5
178,22,1,2,3,46,146,192.78243560926057,193.55147339438554,"[3, 0, 251]",251,a,0.2457629154669121,colour,0.5
178,22,1,2,3,47,147,194.065213666996,194.6875575260492,"[46, 0, 208]",208,a,0.09901424497365952,colour,0.5
178,22,1,2,3,48,148,195.20585222379304,195.9595146883512,"[84, 0, 170]",170,l,0.23060184658970684,colour,0.5
178,22,1,2,3,49,149,196.47153897746466,197.24750213569496,"[38, 0, 216]",216,a,0.25259455339983106,colour,0.5
178,22,1,2,3,50,150,197.76859195239376,198.479523400194,"[51, 0, 203]",203,a,0.18788618978578597,colour,0.5
178,22,1,2,4,1,151,203.28470238507725,203.911541592679,"[43, 0, 211]",211,a,0.10260650655254722,colour,0.5
178,22,1,2,4,2,152,204.42616289679427,204.9514751273673,"[38, 0, 216]",216,a,0.0021669360576197505,colour,0.5
178,22,1,2,4,3,153,205.4731021488551,206.07959452853538,"[81, 0, 173]",173,l,0.0830997503362596,colour,0.5
178,22,1,2,4,4,154,206.5982153301593,207.37547857116442,"[84, 0, 170]",170,l,0.2541053433669731,colour,0.5
178,22,1,2,4,5,155,207.89519071753602,208.84750237199478,"[63, 0, 191]",191,l,0.4289288711734116,colour,0.5
178,22,1,2,4,6,156,209.3640322496649,210.11149992386345,"[72, 0, 182]",182,l,0.22431844111997634,colour,0.5
178,22,1,2,4,7,157,210.62979225849267,211.4794887418393,"[67, 0, 187]",187,a,0.32641058601439,colour,0.5
178,22,1,2,4,8,158,211.99131216993555,212.67953923274763,"[40, 0, 214]",214,a,0.1648454611422494,colour,0.5
178,22,1,2,4,9,159,213.19460833875928,214.00750156852882,"[0, 0, 254]",254,a,0.28956912946887314,colour,0.5
178,22,1,2,4,10,160,214.52277862478513,215.4074221693445,"[39, 0, 215]",215,a,0.3613162934780121,colour,0.5
178,22,1,2,4,11,161,215.91346316307317,216.63941783388145,"[23, 0, 231]",231,a,0.20258764130994678,colour,0.5
178,22,1,2,4,12,162,217.14803851337638,217.80754638812505,"[97, 0, 157]",157,l,0.13646025373600423,colour,0.5
178,22,1,2,4,13,163,218.31998657784425,219.11953712173272,"[4, 0, 250]",250,a,0.2765560920815915,colour,0.5
178,22,1,2,4,14,164,219.63257713755593,220.9194945077179,"[33, 0, 221]",221,a,0.7635452207177877,colour,0.5
178,22,1,2,4,15,165,221.4309618998086,221.96744160959497,"[74, 0, 180]",180,l,0.025222630822099745,colour,0.5
178,22,1,2,4,16,166,222.4776006481843,223.1674531098688,"[42, 0, 212]",212,a,0.1665114260977134,colour,0.5
178,22,1,2,4,17,167,223.68083655869123,224.32749681093264,"[7, 0, 247]",247,a,0.12345588090829551,colour,0.5
178,22,1,2,4,18,168,224.83834232157096,225.38346378144342,"[76, 0, 178]",178,l,0.022834747680462897,colour,0.5
178,22,1,2,4,19,169,225.90089477680158,226.8314354593167,"[86, 0, 168]",168,l,0.4069582198280841,colour,0.5
178,22,1,2,4,20,170,227.33868792071007,228.14347857423127,"[61, 0, 193]",193,a,0.28182495234068483,colour,0.5
178,22,1,2,4,21,171,228.6512489421293,229.40738829865586,"[8, 0, 246]",246,a,0.23273609345778823,colour,0.5
178,22,1,2,4,22,172,229.9169809879968,230.46340528759174,"[6, 0, 248]",248,a,0.02303048875182867,colour,0.5
178,22,1,2,4,23,173,230.98089732893277,231.66341127397027,"[57, 0, 197]",197,l,0.15927609684877098,colour,0.5
178,22,1,2,4,24,174,232.1842025561491,232.8793872873066,"[50, 0, 204]",204,a,0.1717649265192449,colour,0.5
178,22,1,2,4,25,175,233.38738529756665,234.0233967647655,"[13, 0, 241]",241,a,0.11267949000466615,colour,0.5
178,22,1,2,4,26,176,234.54383476777002,235.1194209373789,"[96, 0, 158]",158,l,0.052438118029385805,colour,0.5
178,22,1,2,4,27,177,235.63753525412176,236.28746875340585,"[66, 0, 188]",188,l,0.12655268528033048,colour,0.5
178,22,1,2,4,28,178,236.7938382140128,237.71946055826265,"[93, 0, 161]",161,l,0.4022017519455403,colour,0.5
178,22,1,2,4,29,179,238.231586065609,239.01554703712463,"[41, 0, 213]",213,a,0.26116186671424657,colour,0.5
178,22,1,2,4,30,180,239.5285429423675,240.31137633521575,"[62, 0, 192]",192,l,0.25825410813558847,colour,0.5
178,22,1,2,4,31,181,240.8268341664225,241.55939165106975,"[99, 0, 155]",155,l,0.20994663785677403,colour,0.5
178,22,1,2,4,32,182,242.0770388673991,242.83944311877713,"[35, 0, 219]",219,a,0.23910338792484254,colour,0.5
178,22,1,2,4,33,183,243.35867004795,244.09543025423773,"[28, 0, 226]",226,a,0.2138579140882939,colour,0.5
178,22,1,2,4,34,184,244.6083182458533,245.39142339187674,"[53, 0, 201]",201,l,0.259581366321072,colour,0.5
178,22,1,2,4,35,185,245.9053991837427,246.93537513166666,"[25, 0, 229]",229,a,0.5065045495284721,colour,0.5
178,22,1,2,4,36,186,247.45359696808737,248.0953987465473,"[15, 0, 239]",239,a,0.11783334752544761,colour,0.5
178,22,1,2,4,37,187,248.61099796823692,249.17538987717126,"[95, 0, 159]",159,l,0.0422926670871675,colour,0.5
178,22,1,2,4,38,188,249.68802186951507,250.37534584535751,"[64, 0, 190]",190,l,0.16404713701922446,colour,0.5
178,22,1,2,4,39,189,250.89124399540015,251.5273771607317,"[79, 0, 175]",175,l,0.11285041877999902,colour,0.5
178,22,1,2,4,40,190,252.04887303186115,252.59939174563624,"[98, 0, 156]",156,l,0.027090638410300016,colour,0.5
178,22,1,2,4,41,191,253.11153694533277,254.2793539679842,"[89, 0, 165]",165,l,0.6444622024428099,colour,0.5
178,22,1,2,4,42,192,254.7990869882051,255.49533155665267,"[56, 0, 198]",198,a,0.1728960496839136,colour,0.5
178,22,1,2,4,43,193,256.0023213233799,256.63141490053385,"[29, 0, 225]",225,a,0.10566432029008865,colour,0.5
178,22,1,2,4,44,194,257.1444371934049,257.8633794513298,"[16, 0, 238]",238,a,0.19564966531470418,colour,0.5
178,22,1,2,4,45,195,258.3789014793001,258.98332932277117,"[44, 0, 210]",210,a,0.08108602021820843,colour,0.5
178,22,1,2,4,46,196,259.5039520391729,260.23934205807745,"[85, 0, 169]",169,l,0.21236366557423025,colour,0.5
178,22,1,2,4,47,197,260.75396257452667,261.54340035666246,"[45, 0, 209]",209,a,0.2658817070769146,colour,0.5
178,22,1,2,4,48,198,262.0509745895397,262.6953186384635,"[2, 0, 252]",252,a,0.12097150564659387,colour,0.5
178,22,1,2,4,49,199,263.2073232354596,263.9353329902515,"[31, 0, 223]",223,a,0.20455686713103205,colour,0.5
178,22,1,2,4,50,200,264.4418072135886,265.09533258061856,"[34, 0, 220]",220,a,0.13011028850451112,colour,0.5
178,22,1,2,5,1,201,269.5507057902869,270.1993155759992,"[75, 0, 179]",179,l,0.12301201745867729,colour,0.4
178,22,1,2,5,2,202,270.70925406122115,271.2953287209384,"[23, 0, 231]",231,a,0.0627454393543303,colour,0.4
178,22,1,2,5,3,203,271.8031164179556,272.40730480349157,"[53, 0, 201]",201,a,0.08093557122629136,colour,0.4
178,22,1,2,5,4,204,272.9281559501542,273.4553483973723,"[54, 0, 200]",200,a,0.0037454672856256366,colour,0.4
178,22,1,2,5,5,205,273.9750380946789,274.66328169894405,"[58, 0, 196]",196,a,0.1648013504454866,colour,0.4
178,22,1,2,5,6,206,275.1785938075045,275.8392765222816,"[84, 0, 170]",170,l,0.13829123985487968,colour,0.4
178,22,1,2,5,7,207,276.350290204864,277.05529310158454,"[99, 0, 155]",155,l,0.18158348591532558,colour,0.4
178,22,1,2,5,8,208,277.5635857080342,278.26330595987383,"[1, 0, 253]",253,a,0.1820108079118654,colour,0.4
178,22,1,2,5,9,209,278.77706592460163,279.4873246847419,"[77, 0, 177]",177,l,0.18689488153904676,colour,0.4
178,22,1,2,5,10,210,279.9959930195473,280.64728922303766,"[34, 0, 220]",220,a,0.1279425647808239,colour,0.4
178,22,1,2,5,11,211,281.16793281317223,281.8152677222388,"[88, 0, 166]",166,l,0.12402380560524762,colour,0.4
178,22,1,2,5,12,212,282.3242727945326,283.0072573845973,"[76, 0, 178]",178,l,0.1596600959310308,colour,0.4
178,22,1,2,5,13,213,283.5275256403256,284.3193119210191,"[40, 0, 214]",214,a,0.2685137741500512,colour,0.4
178,22,1,2,5,14,214,284.84009532630444,285.58333782979753,"[51, 0, 203]",203,a,0.2203291836194694,colour,0.4
178,22,1,2,5,15,215,286.0902381936321,286.64726007846184,"[37, 0, 217]",217,a,0.03415976488031447,colour,0.4
178,22,1,2,5,16,216,287.16836761822924,287.8952675174223,"[10, 0, 244]",244,a,0.2035163282416761,colour,0.4
178,22,1,2,5,17,217,288.4028598672012,289.07131157128606,"[4, 0, 250]",250,a,0.14540723385289311,colour,0.4
178,22,1,2,5,18,218,289.59043570701033,290.35133743903134,"[17, 0, 237]",237,a,0.23750201344955713,colour,0.4
178,22,1,2,5,19,219,290.8718404265819,291.5992787120631,"[57, 0, 197]",197,a,0.20423036953434348,colour,0.4
178,22,1,2,5,20,220,292.1062507557217,292.7752376954304,"[97, 0, 157]",157,l,0.1455828888574615,colour,0.4
178,22,1,2,5,21,221,293.2938238385832,293.9992800510954,"[20, 0, 234]",234,a,0.18207461084239185,colour,0.4
178,22,1,2,5,22,222,294.5127198197879,295.3192886841716,"[12, 0, 242]",242,a,0.2831746597075835,colour,0.4
178,22,1,2,5,23,223,295.84090467810165,296.5193119997857,"[69, 0, 185]",185,l,0.15492725872900337,colour,0.4
178,22,1,2,5,24,224,297.029873942025,297.8152535437839,"[98, 0, 156]",156,l,0.26206889224704355,colour,0.4
178,22,1,2,5,25,225,298.3269379446283,298.9992595711956,"[94, 0, 160]",160,l,0.14903494156897068,colour,0.4
178,22,1,2,5,26,226,299.5144763691351,300.2552837280091,"[19, 0, 235]",235,a,0.21770814410410821,colour,0.4
178,22,1,2,5,27,227,300.76454243669286,301.41525732469745,"[92, 0, 162]",162,l,0.12783071282319725,colour,0.4
178,22,1,2,5,28,228,301.9369394845562,302.50325414561667,"[36, 0, 218]",218,a,0.04306617903057486,colour,0.4
178,22,1,2,5,29,229,303.0149436664069,304.55924120219424,"[24, 0, 230]",230,a,1.0214062712620944,colour,0.4
178,22,1,2,5,30,230,305.0777533025248,305.8152566945646,"[55, 0, 199]",199,a,0.2141788979060948,colour,0.4
178,22,1,2,5,31,231,306.33131789648905,307.007204609341,"[66, 0, 188]",188,a,0.15275874745566398,colour,0.4
178,22,1,2,5,32,232,307.5188815271249,308.295275158016,"[42, 0, 212]",212,a,0.2565526971593499,colour,0.4
178,22,1,2,5,33,233,308.8140920944279,309.63126327015925,"[68, 0, 186]",186,l,0.2940904716961086,colour,0.4
178,22,1,2,5,34,234,310.1426093580667,310.8873256300576,"[89, 0, 165]",165,l,0.21940325375180691,colour,0.4
178,22,1,2,5,35,235,311.3945639129961,312.0632334135007,"[60, 0, 194]",194,a,0.14523433579597622,colour,0.4
178,22,1,2,5,36,236,312.5822598756058,313.63918152684346,"[72, 0, 182]",182,l,0.5335849479306489,colour,0.4
178,22,1,2,5,37,237,314.16050961986184,314.91120564274024,"[83, 0, 171]",171,l,0.2272596766706556,colour,0.4
178,22,1,2,5,38,238,315.42616171517875,316.199264376075,"[21, 0, 233]",233,a,0.24999556923285127,colour,0.4
178,22,1,2,5,39,239,316.7075601333054,317.33533511694986,"[82, 0, 172]",172,l,0.10442252655047923,colour,0.4
178,22,1,2,5,40,240,317.84824319474865,318.74318066984415,"[64, 0, 190]",190,a,0.3715692642144859,colour,0.4
178,22,1,2,5,41,241,319.25462876353413,320.2314887859393,"[95, 0, 159]",159,l,0.45348038990050554,colour,0.4
178,22,1,2,5,42,242,320.7399747703457,321.57521674293093,"[14, 0, 240]",240,a,0.3119257491780445,colour,0.4
178,22,1,2,5,43,243,322.08379843167495,322.8471636651084,"[78, 0, 176]",176,l,0.23985838901717216,colour,0.4
178,22,1,2,5,44,244,323.3652964925859,324.0551903080195,"[73, 0, 181]",181,l,0.1666134319966659,colour,0.4
178,22,1,2,5,45,245,324.56276099628303,325.1911976397969,"[8, 0, 246]",246,a,0.10516413697041571,colour,0.4
178,22,1,2,5,46,246,325.6940343094757,326.36716371239163,"[0, 0, 254]",254,a,0.1498182995710522,colour,0.4
178,22,1,2,5,47,247,326.88159360783175,328.1671407906106,"[63, 0, 191]",191,l,0.7672469712560996,colour,0.4
178,22,1,2,5,48,248,328.67362958635204,329.3512153470656,"[52, 0, 202]",202,a,0.15488748042844236,colour,0.4
178,22,1,2,5,49,249,329.851793708629,330.51114955917,"[32, 0, 222]",222,a,0.13585767068434507,colour,0.4
178,22,1,2,5,50,250,331.0238351144362,331.6151534282835,"[43, 0, 211]",211,a,0.06789850920904428,colour,0.4
178,22,1,2,6,1,251,336.1026159588946,336.68715225940105,"[60, 0, 194]",194,a,0.06033786397892982,colour,0.28
178,22,1,2,6,2,252,337.1972041721456,337.91913965321146,"[62, 0, 192]",192,a,0.19868936215061694,colour,0.28
178,22,1,2,6,3,253,338.4316995717818,338.95912753848825,"[41, 0, 213]",213,a,0.004221626091748476,colour,0.28
178,22,1,2,6,4,254,339.47858644253574,340.0790864683222,"[27, 0, 227]",227,a,0.07713890401646495,colour,0.28
178,22,1,2,6,5,255,340.58804270392284,341.54310733580496,"[52, 0, 202]",202,a,0.4303092983318493,colour,0.28
178,22,1,2,6,6,256,342.05818471265957,342.67113063891884,"[81, 0, 173]",173,l,0.08979669329710305,colour,0.28
178,22,1,2,6,7,257,343.18351765943225,343.77511560346466,"[56, 0, 198]",198,a,0.06828368979040533,colour,0.28
178,22,1,2,6,8,258,344.2928348934511,344.84717193595134,"[68, 0, 186]",186,a,0.031358344363979995,colour,0.28
178,22,1,2,6,9,259,345.3552951889578,345.9271083220374,"[42, 0, 212]",212,a,0.04837324237450957,colour,0.28
178,22,1,2,6,10,260,346.43358057620935,347.0391486013541,"[84, 0, 170]",170,l,0.0825144964037463,colour,0.28
178,22,1,2,6,11,261,347.55870714818593,348.1351302387193,"[57, 0, 197]",197,a,0.05170792911667377,colour,0.28
178,22,1,2,6,12,262,348.6538380801212,349.2230983088957,"[51, 0, 203]",203,a,0.04578252893406898,colour,0.28
178,22,1,2,6,13,263,349.7321510365,350.39108901727013,"[74, 0, 180]",180,l,0.13564617582596838,colour,0.28
178,22,1,2,6,14,264,350.9039923689561,351.439096377464,"[89, 0, 165]",165,l,0.011877187993377447,colour,0.28
178,22,1,2,6,15,265,351.95102850697003,352.5031474134885,"[54, 0, 200]",200,a,0.02910003624856472,colour,0.28
178,22,1,2,6,16,266,353.0135793868685,353.7030884155538,"[97, 0, 157]",157,l,0.16618059610482305,colour,0.28
178,22,1,2,6,17,267,354.2172276531346,354.8310888755368,"[92, 0, 162]",162,l,0.09040242701303214,colour,0.28
178,22,1,2,6,18,268,355.34221007779706,355.94309489033185,"[83, 0, 171]",171,l,0.07775527168996632,colour,0.28
178,22,1,2,6,19,269,356.45170060370583,357.11111080483533,"[39, 0, 215]",215,a,0.1360152087872848,colour,0.28
178,22,1,2,6,20,270,357.62366481579375,358.3511172796134,"[11, 0, 243]",243,a,0.20407755754422396,colour,0.28
178,22,1,2,6,21,271,358.8581637600437,359.4632067895727,"[80, 0, 174]",174,l,0.0817551629152149,colour,0.28
178,22,1,2,6,22,272,359.96905440546107,360.5991069955053,"[98, 0, 156]",156,l,0.10671982518397272,colour,0.28
178,22,1,2,6,23,273,361.1097327406751,361.66309344093315,"[4, 0, 250]",250,a,0.02997082786168903,colour,0.28
178,22,1,2,6,24,274,362.1719764213776,362.70337119628675,"[82, 0, 172]",172,l,0.007277864380739629,colour,0.28
178,22,1,2,6,25,275,363.2353098714957,363.8632967438316,"[94, 0, 160]",160,l,0.10458282148465514,colour,0.28
178,22,1,2,6,26,276,364.3759945082711,364.91910263174213,"[77, 0, 177]",177,l,0.019796232343651354,colour,0.28
178,22,1,2,6,27,277,365.43861312954687,366.5510795492446,"[93, 0, 161]",161,l,0.5891899747075513,colour,0.28
178,22,1,2,6,28,278,367.06372768920846,369.8790686666034,"[45, 0, 209]",209,a,2.291998760192655,colour,0.28
178,22,1,2,6,29,279,370.39345642051194,371.127046173322,"[72, 0, 182]",182,l,0.2102656525094062,colour,0.28
178,22,1,2,6,30,280,371.6434000021545,372.4152088817209,"[47, 0, 207]",207,a,0.24841940100304782,colour,0.28
178,22,1,2,6,31,281,372.92506465956103,373.511031011818,"[53, 0, 201]",201,a,0.0628198761260137,colour,0.28
178,22,1,2,6,32,282,374.01872379216366,375.02303954726085,"[34, 0, 220]",220,a,0.48136895848438144,colour,0.28
178,22,1,2,6,33,283,375.53439626889303,376.07148762012366,"[59, 0, 195]",195,a,0.014350929413922131,colour,0.28
178,22,1,2,6,34,284,376.5815375635866,377.1350042083068,"[55, 0, 199]",199,a,0.03042926371563226,colour,0.28
178,22,1,2,6,35,285,377.6440218836069,378.70304351719096,"[5, 0, 249]",249,a,0.5361492736265063,colour,0.28
178,22,1,2,6,36,286,379.22221373266075,380.0070809419267,"[87, 0, 167]",167,l,0.261437164619565,colour,0.28
178,22,1,2,6,37,287,380.5194935624022,381.1030105917016,"[69, 0, 185]",185,l,0.0604048176901415,colour,0.28
178,22,1,2,6,38,288,381.6130778644001,382.15099392738193,"[38, 0, 216]",216,a,0.014951149467378855,colour,0.28
178,22,1,2,6,39,289,382.6599505566992,383.8390394274611,"[20, 0, 234]",234,a,0.6555709986714646,colour,0.28
178,22,1,2,6,40,290,384.34894640522543,385.24707835831214,"[78, 0, 176]",176,l,0.3749941416317597,colour,0.28
178,22,1,2,6,41,291,385.75527092814445,386.3910732634831,"[58, 0, 196]",196,a,0.11245184752624482,colour,0.28
178,22,1,2,6,42,292,386.911659746198,387.50300878006965,"[85, 0, 169]",169,l,0.06795601069461554,colour,0.28
178,22,1,2,6,43,293,388.02107898611575,388.64699383906554,"[88, 0, 166]",166,l,0.10253640206065029,colour,0.28
178,22,1,2,6,44,294,389.16178134584334,389.72702199115884,"[50, 0, 204]",204,a,0.041828717570751905,colour,0.28
178,22,1,2,6,45,295,390.2400037179468,390.8230146561982,"[91, 0, 163]",163,l,0.0595415091374889,colour,0.28
178,22,1,2,6,46,296,391.3338172377553,391.8722685362445,"[24, 0, 230]",230,a,0.015893620788119733,colour,0.28
178,22,1,2,6,47,297,392.3808577081654,392.9670284659369,"[66, 0, 188]",188,a,0.06315740139689296,colour,0.28
178,22,1,2,6,48,298,393.4746869817609,395.2949994663941,"[73, 0, 181]",181,a,1.2978520867181942,colour,0.28
178,22,1,2,6,49,299,395.802964787581,396.34303478954826,"[79, 0, 175]",175,l,0.016742751002311707,colour,0.28
178,22,1,2,6,50,300,396.8498185753124,398.13503610971384,"[35, 0, 219]",219,a,0.7618130897171795,colour,0.28
178,22,1,2,7,1,301,402.67785200010985,403.6150939577492,"[51, 0, 203]",203,a,0.4131144132697955,colour,0.14
178,22,1,2,7,2,302,404.13530825672206,404.8638461577939,"[96, 0, 158]",158,l,0.20522758539300412,colour,0.14
178,22,1,2,7,3,303,405.37463653017767,406.07898131164256,"[86, 0, 168]",168,l,0.18150432303082198,colour,0.14
178,22,1,2,7,4,304,406.59360694815405,407.19898395834025,"[76, 0, 178]",178,l,0.09008656325750053,colour,0.14
178,22,1,2,7,5,305,407.6988376448862,408.28693942551035,"[63, 0, 191]",191,a,0.06461817305535078,colour,0.14
178,22,1,2,7,6,306,408.80851524719037,409.454981333809,"[81, 0, 173]",173,l,0.12345903168898076,colour,0.14
178,22,1,2,7,7,307,409.96936869388446,410.646914282348,"[84, 0, 170]",170,l,0.15415414073504508,colour,0.14
178,22,1,2,7,8,308,411.16518416791223,411.8630328675499,"[72, 0, 182]",182,l,0.17423433542717248,colour,0.14
178,22,1,2,7,9,309,412.3841912134085,413.05500677612145,"[97, 0, 157]",157,l,0.1582087764982134,colour,0.14
178,22,1,2,7,10,310,413.56103595450986,414.1349723067833,"[4, 0, 250]",250,a,0.05062367348000407,colour,0.14
178,22,1,2,7,11,311,414.65486877283547,415.27095128176734,"[64, 0, 190]",190,a,0.09283245156984776,colour,0.14
178,22,1,2,7,12,312,415.7799134249799,416.55095627577975,"[98, 0, 156]",156,l,0.24783454090356827,colour,0.14
178,22,1,2,7,13,313,417.06130317854695,417.6950252238894,"[95, 0, 159]",159,l,0.11035462212748826,colour,0.14
178,22,1,2,7,14,314,418.2021118764533,418.8869400556432,"[1, 0, 253]",253,a,0.16158048482611775,colour,0.14
178,22,1,2,7,15,315,419.4053032824304,420.1749881551368,"[73, 0, 181]",181,l,0.2450855018105358,colour,0.14
178,22,1,2,7,16,316,420.6878261284437,421.30293426453136,"[79, 0, 175]",175,l,0.0917107806308195,colour,0.14
178,22,1,2,7,17,317,421.81276050396264,422.390898002428,"[60, 0, 194]",194,a,0.05484057345893234,colour,0.14
178,22,1,2,7,18,318,422.9066331005888,423.5989959312137,"[62, 0, 192]",192,a,0.16888906911481172,colour,0.14
178,22,1,2,7,19,319,424.1098221435677,424.726929831435,"[53, 0, 201]",201,a,0.09385369205847383,colour,0.14
178,22,1,2,7,20,320,425.2350991643034,425.82288153655827,"[94, 0, 160]",160,l,0.06218066543806344,colour,0.14
178,22,1,2,7,21,321,426.3310288141947,426.9509079903364,"[70, 0, 184]",184,a,0.09656019590329379,colour,0.14
178,22,1,2,7,22,322,427.47184617677703,428.03092669008765,"[19, 0, 235]",235,a,0.035776499193161726,colour,0.14
178,22,1,2,7,23,323,428.5500815457199,429.5109065567376,"[61, 0, 193]",193,a,0.43744931707624346,colour,0.14
178,22,1,2,7,24,324,430.0188683333108,430.7749210438924,"[59, 0, 195]",195,a,0.23256398306693882,colour,0.14
178,22,1,2,7,25,325,431.28472247114405,431.974905762705,"[99, 0, 155]",155,l,0.1668335912982002,colour,0.14
178,22,1,2,7,26,326,432.4879107263405,433.19085263146553,"[57, 0, 197]",197,a,0.17971311532892287,colour,0.14
178,22,1,2,7,27,327,433.70665940945037,434.37490158795845,"[80, 0, 174]",174,l,0.1447822016198188,colour,0.14
178,22,1,2,7,28,328,434.8942131939111,435.7589789801277,"[50, 0, 204]",204,a,0.34124043106567115,colour,0.14
178,22,1,2,7,29,329,436.2695306823589,436.85488421155605,"[91, 0, 163]",163,l,0.06208929338026792,colour,0.14
178,22,1,2,7,30,330,437.36323943943717,438.14285196666606,"[83, 0, 171]",171,l,0.2562691285274923,colour,0.14
178,22,1,2,7,31,331,438.6602447590558,439.3029413537588,"[48, 0, 206]",206,a,0.1193287776550278,colour,0.14
178,22,1,2,7,32,332,439.8165311773773,440.4229085543193,"[85, 0, 169]",169,l,0.08335417427588254,colour,0.14
178,22,1,2,7,33,333,440.9432272223057,441.8548771223286,"[69, 0, 185]",185,a,0.388220249209553,colour,0.14
178,22,1,2,7,34,334,442.3652653788449,442.9348517113831,"[88, 0, 166]",166,l,0.046147229499183595,colour,0.14
178,22,1,2,7,35,335,443.45336814399343,443.98286773625296,"[68, 0, 186]",186,a,0.0016372143290936947,colour,0.14
178,22,1,2,7,36,336,444.50489135982934,445.37492915720213,"[75, 0, 179]",179,a,0.34701498865615577,colour,0.14
178,22,1,2,7,37,337,445.89760735142045,446.66287918924354,"[55, 0, 199]",199,a,0.24225217988714576,colour,0.14
178,22,1,2,7,38,338,447.1789628403494,447.7829117680667,"[78, 0, 176]",176,l,0.0805043107829988,colour,0.14
178,22,1,2,7,39,339,448.30404096934944,449.1189837693237,"[54, 0, 200]",200,a,0.29180026229005307,colour,0.14
178,22,1,2,7,40,340,449.6323026275495,450.30284958786797,"[38, 0, 216]",216,a,0.14734652743209153,colour,0.14
178,22,1,2,7,41,341,450.81988398113754,451.4788018758409,"[65, 0, 189]",189,a,0.13543546863365918,colour,0.14
178,22,1,2,7,42,342,451.9930092487484,452.6308749387972,"[52, 0, 202]",202,a,0.11457112815696746,colour,0.14
178,22,1,2,7,43,343,453.1494409958832,453.7428010030417,"[43, 0, 211]",211,a,0.07030805386602879,colour,0.14
178,22,1,2,7,44,344,454.2589106480591,454.84683559217956,"[26, 0, 228]",228,a,0.06455673323944211,colour,0.14
178,22,1,2,7,45,345,455.36845355527475,456.0628643806558,"[93, 0, 161]",161,l,0.17147348099388182,colour,0.14
178,22,1,2,7,46,346,456.5716040013358,457.2387855548877,"[71, 0, 183]",183,a,0.14385469630360603,colour,0.14
178,22,1,2,7,47,347,457.75916526885703,458.4468819083413,"[74, 0, 180]",180,a,0.16438860073685646,colour,0.14
178,22,1,2,7,48,348,458.9643310206011,459.6548069390701,"[90, 0, 164]",164,l,0.1676122231874615,colour,0.14
178,22,1,2,7,49,349,460.167557872599,460.90279586729594,"[58, 0, 196]",196,a,0.21181070699822158,colour,0.14
178,22,1,2,7,50,350,461.4175877063535,462.19881342339795,"[77, 0, 177]",177,l,0.2583576893666759,colour,0.14
178,22,1,2,8,1,351,466.7482207061257,467.49486012395937,"[93, 0, 161]",161,l,0.22255440871231258,colour,0.06
178,22,1,2,8,2,352,468.0147148424294,468.90274781826884,"[96, 0, 158]",158,l,0.36474629084113985,colour,0.06
178,22,1,2,8,3,353,469.42109568510205,469.99885587987956,"[86, 0, 168]",168,l,0.054809853550978005,colour,0.06
178,22,1,2,8,4,354,470.5149092049105,471.15878103359137,"[51, 0, 203]",203,a,0.12045281170867383,colour,0.06
178,22,1,2,8,5,355,471.67124249087647,472.41482370113954,"[84, 0, 170]",170,l,0.22063441365025938,colour,0.06
178,22,1,2,8,6,356,472.92144246574026,473.51880393957254,"[87, 0, 167]",167,l,0.07449738460127264,colour,0.06
178,22,1,2,8,7,357,474.03079278278165,474.55881112336647,"[76, 0, 178]",178,l,0.004813575418666005,colour,0.06
178,22,1,2,8,8,358,475.0777745702071,475.74278406775557,"[91, 0, 163]",163,l,0.14165034506004304,colour,0.06
178,22,1,2,8,9,359,476.24968561320566,476.85474833496846,"[94, 0, 160]",160,l,0.0822234449442476,colour,0.06
178,22,1,2,8,10,360,477.3748110035667,478.01476919301786,"[14, 0, 240]",240,a,0.1172551829367876,colour,0.06
178,22,1,2,8,11,361,478.5315558577422,479.15085293073207,"[83, 0, 171]",171,l,0.09599187725689262,colour,0.06
178,22,1,2,8,12,362,479.67369102616794,480.3427709132666,"[57, 0, 197]",197,a,0.1457585437456146,colour,0.06
178,22,1,2,8,13,363,480.8612857705448,481.4067624787567,"[55, 0, 199]",199,a,0.022906033671461046,colour,0.06
178,22,1,2,8,14,364,481.9238669765182,482.56680263520684,"[80, 0, 174]",174,l,0.1195367278996855,colour,0.06
178,22,1,2,8,15,365,483.08020932087675,483.74277264624834,"[56, 0, 198]",198,a,0.13934871403034776,colour,0.06
178,22,1,2,8,16,366,484.25215777917765,484.870838090661,"[88, 0, 166]",166,l,0.09519867319613695,colour,0.06
178,22,1,2,8,17,367,485.37722566816956,486.0227658248041,"[70, 0, 184]",184,a,0.1221884872065857,colour,0.06
178,22,1,2,8,18,368,486.533606609446,487.10276601393707,"[52, 0, 202]",202,a,0.045862873434089124,colour,0.06
178,22,1,2,8,19,369,487.6117935354123,488.2867263552034,"[78, 0, 176]",176,l,0.15020466153509915,colour,0.06
178,22,1,2,8,20,370,488.80092900199816,489.4228427822236,"[68, 0, 186]",186,a,0.09854675084352493,colour,0.06
178,22,1,2,8,21,371,489.941682955483,490.678840945242,"[81, 0, 173]",173,l,0.21376339113339782,colour,0.06
178,22,1,2,8,22,372,491.1917096384568,491.8307820701739,"[74, 0, 180]",180,l,0.11568610381800681,colour,0.06
178,22,1,2,8,23,373,492.34805473976303,492.93472765025217,"[90, 0, 164]",164,l,0.06357605883385986,colour,0.06
178,22,1,2,8,24,374,493.4418662904063,494.03074276447296,"[67, 0, 187]",187,a,0.06560317985713482,colour,0.06
178,22,1,2,8,25,375,494.5513260962907,495.12677442014683,"[71, 0, 183]",183,a,0.05201788537669927,colour,0.06
178,22,1,2,8,26,376,495.6451884530252,496.8147029482061,"[79, 0, 175]",175,l,0.6462128440616652,colour,0.06
178,22,1,2,8,27,377,497.3341149847256,497.9987692339346,"[12, 0, 242]",242,a,0.14128485671244562,colour,0.06
178,22,1,2,8,28,378,498.5059819170274,499.29471471637953,"[75, 0, 179]",179,l,0.2652688840171322,colour,0.06
178,22,1,2,8,29,379,499.8029746336397,500.4627664707368,"[92, 0, 162]",162,l,0.13660637033171952,colour,0.06
178,22,1,2,8,30,380,500.9763184853364,501.51874604437035,"[98, 0, 156]",156,l,0.01942838099785149,colour,0.06
178,22,1,2,8,31,381,502.0388406144921,503.15871841215994,"[72, 0, 182]",182,l,0.5964217593427747,colour,0.06
178,22,1,2,8,32,382,503.6796459647594,504.41472366452217,"[89, 0, 165]",165,l,0.2125775235472247,colour,0.06
178,22,1,2,8,33,383,504.9296947030816,505.60676964675076,"[82, 0, 172]",172,l,0.15369924961123616,colour,0.06
178,22,1,2,8,34,384,506.11729377973825,506.7826857010368,"[65, 0, 189]",189,a,0.1418681414797902,colour,0.06
178,22,1,2,8,35,385,507.29157616442535,507.8227078508353,"[59, 0, 195]",195,a,0.007559857564046979,colour,0.06
178,22,1,2,8,36,386,508.3542369269999,509.0547555029625,"[99, 0, 155]",155,l,0.17721377406269312,colour,0.06
178,22,1,2,8,37,387,509.5730116039049,510.19871850672644,"[66, 0, 188]",188,a,0.10231703042518348,colour,0.06
178,22,1,2,8,38,388,510.71375492354855,511.3106957707787,"[50, 0, 204]",204,a,0.07381288171745837,colour,0.06
178,22,1,2,8,39,389,511.8232419048436,512.3747708314331,"[54, 0, 200]",200,a,0.028253269265405834,colour,0.06
178,22,1,2,8,40,390,512.8858833691338,513.5666616386734,"[61, 0, 193]",193,a,0.15736043418291956,colour,0.06
178,22,1,2,8,41,391,514.0733926490648,514.7587021070067,"[77, 0, 177]",177,l,0.16196369612589478,colour,0.06
178,22,1,2,8,42,392,515.2796458072262,516.0386444795877,"[58, 0, 196]",196,a,0.23571750114206225,colour,0.06
178,22,1,2,8,43,393,516.5453565854114,517.1987153559458,"[64, 0, 190]",190,a,0.12997716874815524,colour,0.06
178,22,1,2,8,44,394,517.7173066191608,518.4066608666908,"[97, 0, 157]",157,l,0.16596713208127767,colour,0.06
178,22,1,2,8,45,395,518.9204168929718,519.6066983607598,"[69, 0, 185]",185,a,0.1635052061174065,colour,0.06
178,22,1,2,8,46,396,520.1236661942676,520.6947034524055,"[63, 0, 191]",191,a,0.048158596735447645,colour,0.06
178,22,1,2,8,47,397,521.2018661170732,521.9907087992178,"[73, 0, 181]",181,l,0.2653976713772863,colour,0.06
178,22,1,2,8,48,398,522.4987895169761,523.1267366110114,"[62, 0, 192]",192,a,0.10455052624456584,colour,0.06
178,22,1,2,8,49,399,523.6396301164059,524.3826977526769,"[24, 0, 230]",230,a,0.21978213277179748,colour,0.06
178,22,1,2,8,50,400,524.8897261162056,525.4708454161882,"[95, 0, 159]",159,l,0.0577329722000286,colour,0.06
178,22,1,2,9,1,401,530.3125767752063,531.0786327586975,"[68, 0, 186]",186,a,0.24075044819619507,colour,0.06
178,22,1,2,9,2,402,531.5962106583174,532.2709729432827,"[75, 0, 179]",179,l,0.15149411070160568,colour,0.06
178,22,1,2,9,3,403,532.7822335667443,533.4467027088394,"[51, 0, 203]",203,a,0.15321678936015815,colour,0.06
178,22,1,2,9,4,404,533.9578235172667,534.574624005938,"[86, 0, 168]",168,l,0.09367252327501774,colour,0.06
178,22,1,2,9,5,405,535.0829406369012,535.8226188417757,"[52, 0, 202]",202,a,0.21636158763431013,colour,0.06
178,22,1,2,9,6,406,536.3330149751855,536.974613135797,"[91, 0, 163]",163,l,0.11820671276655048,colour,0.06
178,22,1,2,9,7,407,537.4893841011217,538.030712438398,"[70, 0, 184]",184,l,0.018032987718470395,colour,0.06
178,22,1,2,9,8,408,538.5363044486148,539.286631832365,"[95, 0, 159]",159,l,0.2260210335953161,colour,0.06
178,22,1,2,9,9,409,539.8032199991867,540.4626865201863,"[79, 0, 175]",175,l,0.1361829867819324,colour,0.06
178,22,1,2,9,10,410,540.9752279280219,541.5426485062344,"[69, 0, 185]",185,a,0.04412483470514417,colour,0.06
178,22,1,2,9,11,411,542.053467629361,542.6706336062634,"[71, 0, 183]",183,a,0.09381233830936253,colour,0.06
178,22,1,2,9,12,412,543.1786048351787,543.9506114249816,"[77, 0, 177]",177,l,0.24863128969445825,colour,0.06
178,22,1,2,9,13,413,544.4599701701663,545.1986444637878,"[64, 0, 190]",190,a,0.215695989318192,colour,0.06
178,22,1,2,9,14,414,545.7121019555489,546.4706209244905,"[56, 0, 198]",198,a,0.2351739949081093,colour,0.06
178,22,1,2,9,15,415,546.9777382970788,547.5906219957396,"[83, 0, 171]",171,l,0.08937449124641716,colour,0.06
178,22,1,2,9,16,416,548.103064154624,548.774631567765,"[82, 0, 172]",172,l,0.14837091858498752,colour,0.06
178,22,1,2,9,17,417,549.2905257793609,550.0145931441803,"[93, 0, 161]",161,l,0.2010000515729189,colour,0.06
178,22,1,2,9,18,418,550.5250680466415,551.3746105363825,"[98, 0, 156]",156,l,0.32677568029612303,colour,0.06
178,22,1,2,9,19,419,551.8852736968547,552.6466161416611,"[58, 0, 196]",196,a,0.2379781723720953,colour,0.06
178,22,1,2,9,20,420,553.1664956723107,553.974613923463,"[57, 0, 197]",197,a,0.28462479752488434,colour,0.06
178,22,1,2,9,21,421,554.4947919887491,555.0626075936016,"[50, 0, 204]",204,a,0.04444345540832728,colour,0.06
178,22,1,2,9,22,422,555.572982065496,556.2466372516938,"[89, 0, 165]",165,l,0.1503145444439724,colour,0.06
178,22,1,2,9,23,423,556.7605925636599,557.4465798290912,"[53, 0, 201]",201,a,0.16263677750248462,colour,0.06
178,22,1,2,9,24,424,557.9638261110522,558.6065691795666,"[96, 0, 158]",158,l,0.11979627178516239,colour,0.06
178,22,1,2,9,25,425,559.1200853541959,559.7105269688182,"[80, 0, 174]",174,l,0.06724433251656592,colour,0.06
178,22,1,2,9,26,426,560.2295928153908,560.8146895575337,"[55, 0, 199]",199,a,0.06169662973843515,colour,0.06
178,22,1,2,9,27,427,561.3235941993771,561.8545687416336,"[63, 0, 191]",191,a,0.007715032668784261,colour,0.06
178,22,1,2,9,28,428,562.386055676383,562.934558690642,"[60, 0, 194]",194,a,0.02515961555764079,colour,0.06
178,22,1,2,9,29,429,563.4486242792336,564.046548557817,"[59, 0, 195]",195,a,0.07460529822856188,colour,0.06
178,22,1,2,9,30,430,564.5580431253184,565.1666445457377,"[67, 0, 187]",187,a,0.08532773237675428,colour,0.06
178,22,1,2,9,31,431,565.6830499683274,566.286570392549,"[54, 0, 200]",200,a,0.0801388225518167,colour,0.06
178,22,1,2,9,32,432,566.7926499831956,567.374530979665,"[84, 0, 170]",170,l,0.058644723729230464,colour,0.06
178,22,1,2,9,33,433,567.8864016693551,568.5587071481859,"[61, 0, 193]",193,a,0.14889788336586207,colour,0.06
178,22,1,2,9,34,434,569.0740192567464,569.6386151774786,"[65, 0, 189]",189,a,0.0411615438060835,colour,0.06
178,22,1,2,9,35,435,570.1522873147624,570.7185306898318,"[90, 0, 164]",164,l,0.04285822878591716,colour,0.06
178,22,1,2,9,36,436,571.2304699084489,571.8065042739036,"[99, 0, 155]",155,l,0.05311041173990816,colour,0.06
178,22,1,2,9,37,437,572.3242893359857,572.8545876462013,"[74, 0, 180]",180,a,0.006939157727174461,colour,0.06
178,22,1,2,9,38,438,573.3868055575294,574.0545010790229,"[20, 0, 234]",234,a,0.14388856710866094,colour,0.06
178,22,1,2,9,39,439,574.575161998393,575.5745629599551,"[66, 0, 188]",188,a,0.4753962968243286,colour,0.06
178,22,1,2,9,40,440,576.0916387069738,576.6385163223604,"[72, 0, 182]",182,a,0.023450327687896788,colour,0.06
178,22,1,2,9,41,441,577.1543290080735,578.398559472058,"[76, 0, 178]",178,l,0.7209796189563349,colour,0.06
178,22,1,2,9,42,442,578.9199848448625,579.4465266600018,"[73, 0, 181]",181,l,0.003931756131350994,colour,0.06
178,22,1,2,9,43,443,579.9668929832987,580.5265280306339,"[22, 0, 232]",232,a,0.036174282780848444,colour,0.06
178,22,1,2,9,44,444,581.045514320489,581.8705431006383,"[81, 0, 173]",173,l,0.30195398384239525,colour,0.06
178,22,1,2,9,45,445,582.3893765786197,583.0465379239758,"[97, 0, 157]",157,l,0.13390341110061854,colour,0.06
178,22,1,2,9,46,446,583.5613648152212,584.6225230586715,"[78, 0, 176]",176,l,0.5378294170368463,colour,0.06
178,22,1,2,9,47,447,585.1395586335566,586.0945224411553,"[92, 0, 162]",162,l,0.43190949119161814,colour,0.06
178,22,1,2,9,48,448,586.6083985902369,587.142550281249,"[88, 0, 166]",166,l,0.01111982378643006,colour,0.06
178,22,1,2,9,49,449,587.6553524147021,588.3185403784737,"[25, 0, 229]",229,a,0.13982211600523442,colour,0.06
178,22,1,2,9,50,450,588.8273146575084,589.3745140443789,"[94, 0, 160]",160,l,0.024202571948990226,colour,0.06
178,22,1,2,10,1,451,593.8590633023996,594.4385044282535,"[82, 0, 172]",172,l,0.05631394812371582,colour,0.06
178,22,1,2,10,2,452,594.9536093742354,595.7985214266228,"[72, 0, 182]",182,l,0.3213819711236283,colour,0.06
178,22,1,2,10,3,453,596.3129119374789,597.0305017312057,"[66, 0, 188]",188,a,0.19371943024452776,colour,0.06
178,22,1,2,10,4,454,597.5482261412544,598.1664220232051,"[65, 0, 189]",189,a,0.09482294495683163,colour,0.06
178,22,1,2,10,5,455,598.6732845780207,599.4704897740157,"[71, 0, 183]",183,l,0.2738235943252221,colour,0.06
178,22,1,2,10,6,456,599.9860618202947,600.5105205884902,"[90, 0, 164]",164,l,0.001283147488720715,colour,0.06
178,22,1,2,10,7,457,601.032812026795,601.5825398995075,"[56, 0, 198]",198,a,0.026426615426316857,colour,0.06
178,22,1,2,10,8,458,602.0967972907238,602.7744677282171,"[77, 0, 177]",177,l,0.1545058444608003,colour,0.06
178,22,1,2,10,9,459,603.284343198291,603.8544876094675,"[88, 0, 166]",166,l,0.04670373268891126,colour,0.06
178,22,1,2,10,10,460,604.3625383949839,605.4064639441203,"[78, 0, 176]",176,l,0.5206305932952091,colour,0.06
178,22,1,2,10,11,461,605.9251501240069,606.6944553299109,"[74, 0, 180]",180,l,0.2466715162154287,colour,0.06
178,22,1,2,10,12,462,607.206563114305,607.9664688120829,"[52, 0, 202]",202,a,0.23646501929033548,colour,0.06
178,22,1,2,10,13,463,608.4878083266085,609.2224327105796,"[29, 0, 225]",225,a,0.20988795498851687,colour,0.06
178,22,1,2,10,14,464,609.7393083843635,610.4305211871397,"[55, 0, 199]",199,a,0.16789264092221856,colour,0.06
178,22,1,2,10,15,465,610.9424990026746,611.4784812858561,"[98, 0, 156]",156,l,0.012630219920538366,colour,0.06
178,22,1,2,10,16,466,611.9895059961127,612.9824734971626,"[99, 0, 155]",155,l,0.46966545609757304,colour,0.06
178,22,1,2,10,17,467,613.4896302543348,614.262478097342,"[80, 0, 174]",174,l,0.2495761241298169,colour,0.06
178,22,1,2,10,18,468,614.7710156755056,615.5505088677164,"[96, 0, 158]",158,l,0.2565936570754275,colour,0.06
178,22,1,2,10,19,469,616.0678839370375,616.8224305838812,"[70, 0, 184]",184,l,0.2314123798860237,colour,0.06
178,22,1,2,10,20,470,617.3336274044123,617.9904559506103,"[67, 0, 187]",187,a,0.13359896873589605,colour,0.06
178,22,1,2,10,21,471,618.5056176102953,619.2544353855774,"[95, 0, 159]",159,l,0.2254731950815767,colour,0.06
178,22,1,2,10,22,472,619.7713622591691,620.5104453640524,"[61, 0, 193]",193,a,0.21594293019734323,colour,0.06
178,22,1,2,10,23,473,621.0241809104336,621.7026886626845,"[87, 0, 167]",167,l,0.15526675328146666,colour,0.06
178,22,1,2,10,24,474,622.211593698361,623.0144836552208,"[62, 0, 192]",192,a,0.27949023828841746,colour,0.06
178,22,1,2,10,25,475,623.5243914206512,624.2863860731013,"[69, 0, 185]",185,a,0.23892103764228523,colour,0.06
178,22,1,2,10,26,476,624.8056724729249,625.4464380448917,"[94, 0, 160]",160,l,0.11811179609503597,colour,0.06
178,22,1,2,10,27,477,625.9619636173593,626.6384572455427,"[84, 0, 170]",170,l,0.15313132491428405,colour,0.06
178,22,1,2,10,28,478,627.1495556049049,627.7904334226623,"[58, 0, 196]",196,a,0.11748164379969239,colour,0.06
178,22,1,2,10,29,479,628.3058743185829,629.0304658912355,"[89, 0, 165]",165,l,0.2010351037606597,colour,0.06
178,22,1,2,10,30,480,629.5403559335973,630.2464348153444,"[57, 0, 197]",197,a,0.1826263879192993,colour,0.06
178,22,1,2,10,31,481,630.7592334040673,631.3983664879343,"[64, 0, 190]",190,a,0.1158341895788908,colour,0.06
178,22,1,2,10,32,482,631.9155525115784,632.6225041541038,"[59, 0, 195]",195,a,0.18286230112425983,colour,0.06
178,22,1,2,10,33,483,633.1358084400417,633.7823946494609,"[91, 0, 163]",163,l,0.12335308734327555,colour,0.06
178,22,1,2,10,34,484,634.2921393628931,634.8863953677937,"[50, 0, 204]",204,a,0.07097759062889963,colour,0.06
178,22,1,2,10,35,485,635.4015089783352,636.0623827080708,"[93, 0, 161]",161,l,0.1377493089530617,colour,0.06
178,22,1,2,10,36,486,636.5735243902309,637.3344040670199,"[81, 0, 173]",173,l,0.23763395159039646,colour,0.06
178,22,1,2,10,37,487,637.8548558546463,638.5343761828262,"[97, 0, 157]",157,l,0.15654123621061444,colour,0.06
178,22,1,2,10,38,488,639.0425262172939,639.8383726476459,"[85, 0, 169]",169,l,0.27265899430494756,colour,0.06
178,22,1,2,10,39,489,640.3550321003422,641.1423509956803,"[60, 0, 194]",194,a,0.2639471397269517,colour,0.06
178,22,1,2,10,40,490,641.6520326939644,642.3583522149129,"[92, 0, 162]",162,l,0.18284221494104713,colour,0.06
178,22,1,2,10,41,491,642.8709519119002,643.4863916656468,"[68, 0, 186]",186,a,0.09219402854796499,colour,0.06
178,22,1,2,10,42,492,643.9972678963095,644.6542976973578,"[79, 0, 175]",175,l,0.13397863553836942,colour,0.06
178,22,1,2,10,43,493,645.1691950869281,645.9503270688001,"[1, 0, 253]",253,a,0.25808002857957035,colour,0.06
178,22,1,2,10,44,494,646.4662035573274,647.1103546221275,"[86, 0, 168]",168,l,0.12080845376476645,colour,0.06
178,22,1,2,10,45,495,647.6225443263538,648.2863841038197,"[32, 0, 222]",222,a,0.1409827775787562,colour,0.06
178,22,1,2,10,46,496,648.7945451659616,649.3185439230874,"[54, 0, 200]",200,a,0.0006411799695342779,colour,0.06
178,22,1,2,10,47,497,649.8414599997923,650.4463462788844,"[51, 0, 203]",203,a,0.08187449804972857,colour,0.06
178,22,1,2,10,48,498,650.9664211567724,651.5583700167481,"[53, 0, 201]",201,a,0.06856765213888139,colour,0.06
178,22,1,2,10,49,499,652.0759550055955,652.9103320941795,"[73, 0, 181]",181,a,0.3110195114277303,colour,0.06
178,22,1,2,10,50,500,653.4198215961223,654.0383227081038,"[76, 0, 178]",178,a,0.09402619628235698,colour,0.06
178,22,1,2,11,1,501,658.4833803257206,659.2142753899097,"[17, 0, 237]",237,a,0.20674034452531487,colour,0.06
178,22,1,2,11,2,502,659.735610966105,660.622356856009,"[29, 0, 225]",225,a,0.36341824498958886,colour,0.06
178,22,1,2,11,3,503,661.1419622704852,661.846312171896,"[72, 0, 182]",182,a,0.18828279175795615,colour,0.06
178,22,1,2,11,4,504,662.3599567400524,663.038318375824,"[55, 0, 199]",199,a,0.1549918494420126,colour,0.06
178,22,1,2,11,5,505,663.5475144630764,664.2623075623997,"[91, 0, 163]",163,l,0.19175059837289155,colour,0.06
178,22,1,2,11,6,506,664.7845418931684,665.3902855732013,"[57, 0, 197]",197,a,0.08252591791097075,colour,0.06
178,22,1,2,11,7,507,665.9095857576467,666.4783139016945,"[82, 0, 172]",172,l,0.04533393925521523,colour,0.06
178,22,1,2,11,8,508,666.9878423942719,667.5503107635304,"[93, 0, 161]",161,l,0.039456194383092225,colour,0.06
178,22,1,2,11,9,509,668.0661514122039,668.6063801338896,"[94, 0, 160]",160,l,0.017007021117024124,colour,0.06
178,22,1,2,11,10,510,669.1129882646492,669.7182782350574,"[61, 0, 193]",193,a,0.08191506413277239,colour,0.06
178,22,1,2,11,11,511,670.2381010520039,670.918278707657,"[66, 0, 188]",188,a,0.15690396749414504,colour,0.06
178,22,1,2,11,12,512,671.4256646826398,672.1023552333936,"[50, 0, 204]",204,a,0.15112744085490704,colour,0.06
178,22,1,2,11,13,513,672.6157311991556,673.3503567646258,"[99, 0, 155]",155,l,0.2111915823770687,colour,0.06
178,22,1,2,11,14,514,673.8657976605464,674.6702677241992,"[77, 0, 177]",177,l,0.2811597479740158,colour,0.06
178,22,1,2,11,15,515,675.1786855733953,675.9423008984886,"[14, 0, 240]",240,a,0.2405491933459416,colour,0.06
178,22,1,2,11,16,516,676.4598260228522,677.1102719146293,"[70, 0, 184]",184,a,0.12452280730940402,colour,0.06
178,22,1,2,11,17,517,677.6187508099247,678.2463328094454,"[63, 0, 191]",191,a,0.10418621939606965,colour,0.06
178,22,1,2,11,18,518,678.7594732558355,679.3343434148701,"[71, 0, 183]",183,a,0.0515811110381037,colour,0.06
178,22,1,2,11,19,519,679.8532930772053,680.5982791330898,"[89, 0, 165]",165,l,0.2215973649872467,colour,0.06
178,22,1,2,11,20,520,681.1048293686472,681.7422531645279,"[97, 0, 157]",157,l,0.11410166486166418,colour,0.06
178,22,1,2,11,21,521,682.2609369812999,682.902370908414,"[62, 0, 192]",192,a,0.11820080503821373,colour,0.06
178,22,1,2,11,22,522,683.4174896390177,684.0622594344895,"[88, 0, 166]",166,l,0.12223574856761843,colour,0.06
178,22,1,2,11,23,523,684.573810321861,685.1902575314743,"[59, 0, 195]",195,a,0.09314398316200823,colour,0.06
178,22,1,2,11,24,524,685.6998372238595,686.390211924212,"[96, 0, 158]",158,l,0.16704469243995845,colour,0.06
178,22,1,2,11,25,525,686.9030731343664,687.5902226368198,"[92, 0, 162]",162,l,0.1637474208837375,colour,0.06
178,22,1,2,11,26,526,688.1062952602515,688.9182046648348,"[80, 0, 174]",174,l,0.2885892427293584,colour,0.06
178,22,1,2,11,27,527,689.4345289553748,690.0783279226162,"[85, 0, 169]",169,l,0.11953357711900026,colour,0.06
178,22,1,2,11,28,528,690.5917873835424,691.1981848465512,"[51, 0, 203]",203,a,0.0830619412008673,colour,0.06
178,22,1,2,11,29,529,691.7168143127346,692.3182256961009,"[90, 0, 164]",164,l,0.07807901233900338,colour,0.06
178,22,1,2,11,30,530,692.8262926293537,693.438235825859,"[68, 0, 186]",186,a,0.08869195752777159,colour,0.06
178,22,1,2,11,31,531,693.9513573676813,694.8143031954532,"[79, 0, 175]",175,l,0.33953035541344434,colour,0.06
178,22,1,2,11,32,532,695.328022594098,695.990244455752,"[75, 0, 179]",179,l,0.13894384121522307,colour,0.06
178,22,1,2,11,33,533,696.4999915324152,697.126247455366,"[65, 0, 189]",189,a,0.10292906581889838,colour,0.06
178,22,1,2,11,34,534,697.6407411536202,698.430226197117,"[76, 0, 178]",178,l,0.26580845180433244,colour,0.06
178,22,1,2,11,35,535,698.9393923521275,699.6302534511779,"[95, 0, 159]",159,l,0.1674428697442636,colour,0.06
178,22,1,2,11,36,536,700.1426743424963,700.7661969801411,"[53, 0, 201]",201,a,0.10004139319062233,colour,0.06
178,22,1,2,11,37,537,701.283371582278,701.8782049641013,"[64, 0, 190]",190,a,0.07143208780325949,colour,0.06
178,22,1,2,11,38,538,702.3928688035812,702.9422993231565,"[74, 0, 180]",180,a,0.026192671386525035,colour,0.06
178,22,1,2,11,39,539,703.4562443951145,704.0542742242105,"[98, 0, 156]",156,l,0.07559188036248088,colour,0.06
178,22,1,2,11,40,540,704.5649515630212,705.2382164486917,"[52, 0, 202]",202,a,0.14890930498950183,colour,0.06
178,22,1,2,11,41,541,705.7537357197143,706.4142301764805,"[54, 0, 200]",200,a,0.13713412277866155,colour,0.06
178,22,1,2,11,42,542,706.9258732236922,707.5101645524846,"[86, 0, 168]",168,l,0.06165409449022263,colour,0.06
178,22,1,2,11,43,543,708.0196410574717,708.8062077084323,"[73, 0, 181]",181,a,0.26316968933679163,colour,0.06
178,22,1,2,11,44,544,709.3167066354072,710.0302382487571,"[56, 0, 198]",198,a,0.1902563498588279,colour,0.06
178,22,1,2,11,45,545,710.5511811613105,711.206167693832,"[78, 0, 176]",176,l,0.12909180496353656,colour,0.06
178,22,1,2,11,46,546,711.7257199391024,712.494192162645,"[84, 0, 170]",170,l,0.24515875708311796,colour,0.06
178,22,1,2,11,47,547,713.0070451019565,713.7422370167915,"[87, 0, 167]",167,l,0.21184654685202986,colour,0.06
178,22,1,2,11,48,548,714.257186000119,714.8941899570636,"[67, 0, 187]",187,a,0.11368615820538253,colour,0.06
178,22,1,2,11,49,549,715.4134279140271,716.0942270572996,"[81, 0, 173]",173,l,0.15837104071397334,colour,0.06
178,22,1,2,11,50,550,716.6010833105538,717.1421721898951,"[69, 0, 185]",185,l,0.018055830616503954,colour,0.06
178,22,1,2,12,1,551,721.6643970684381,722.3741138976766,"[97, 0, 157]",157,l,0.18658059311565012,colour,0.06
178,22,1,2,12,2,552,722.8852382507175,723.5501622839365,"[84, 0, 170]",170,l,0.1416739757405594,colour,0.06
178,22,1,2,12,3,553,724.0572690226836,724.6941308014793,"[79, 0, 175]",175,l,0.11380549322348088,colour,0.06
178,22,1,2,12,4,554,725.213537718053,725.9021755612921,"[67, 0, 187]",187,a,0.16546182881575078,colour,0.06
178,22,1,2,12,5,555,726.4167058870662,727.0141284069978,"[89, 0, 165]",165,l,0.0742630468448624,colour,0.06
178,22,1,2,12,6,556,727.5262779389741,728.0941506513627,"[87, 0, 167]",167,l,0.04499602026771754,colour,0.06
178,22,1,2,12,7,557,728.6044605326606,729.6222209794214,"[90, 0, 164]",164,l,0.4928956242511049,colour,0.06
178,22,1,2,12,8,558,730.1373034762219,730.8061112164287,"[69, 0, 185]",185,a,0.1454060523537919,colour,0.06
178,22,1,2,12,9,559,731.3250029834453,732.1421209900873,"[51, 0, 203]",203,a,0.293821869418025,colour,0.06
178,22,1,2,12,10,560,732.6531330972211,733.3341000186047,"[88, 0, 166]",166,l,0.15765739337075502,colour,0.06
178,22,1,2,12,11,561,733.8330825197045,734.45417434501,"[60, 0, 194]",194,a,0.09771376824937761,colour,0.06
178,22,1,2,12,12,562,734.9674057696247,735.5741053118836,"[54, 0, 200]",200,a,0.08318915322888643,colour,0.06
178,22,1,2,12,13,563,736.0925673937891,736.6781647132011,"[59, 0, 195]",195,a,0.062220837688073516,colour,0.06
178,22,1,2,12,14,564,737.1863596460316,737.7181703215465,"[72, 0, 182]",182,a,0.008368421695195138,colour,0.06
178,22,1,2,12,15,565,738.2333189842757,739.326143558952,"[64, 0, 190]",190,a,0.5694918098160997,colour,0.06
178,22,1,2,12,16,566,739.8428471223451,740.4621441954514,"[57, 0, 197]",197,a,0.09598242514766753,colour,0.06
178,22,1,2,12,17,567,740.9692316356814,741.7501166766742,"[94, 0, 160]",160,l,0.2574896547012031,colour,0.06
178,22,1,2,12,18,568,742.2662401061971,742.9820686244639,"[62, 0, 192]",192,a,0.1929640353191644,colour,0.06
178,22,1,2,12,19,569,743.5004889587872,744.18207736779,"[96, 0, 158]",158,l,0.15873180294875056,colour,0.06
178,22,1,2,12,20,570,744.7033897070214,745.2461091054138,"[53, 0, 201]",201,a,0.019268479896709323,colour,0.06
178,22,1,2,12,21,571,745.7660351097584,746.5101263495162,"[74, 0, 180]",180,a,0.220749810221605,colour,0.06
178,22,1,2,12,22,572,747.0317994509824,747.8221088123973,"[49, 0, 205]",205,a,0.2657111721346155,colour,0.06
178,22,1,2,12,23,573,748.3300954011502,749.1661002517212,"[76, 0, 178]",178,l,0.3128398637054488,colour,0.06
178,22,1,2,12,24,574,749.6739407239947,750.4380755309248,"[82, 0, 172]",172,l,0.24087687267456204,colour,0.06
178,22,1,2,12,25,575,750.95605042635,751.7901207096875,"[77, 0, 177]",177,l,0.3107442137552425,colour,0.06
178,22,1,2,12,26,576,752.2998827523552,752.838106408366,"[65, 0, 189]",189,a,0.014821968274191022,colour,0.06
178,22,1,2,12,27,577,753.3468735981733,754.1340660691494,"[56, 0, 198]",198,a,0.26400267181452364,colour,0.06
178,22,1,2,12,28,578,754.6438159026438,755.3660873336485,"[70, 0, 184]",184,a,0.19894457375630736,colour,0.06
178,22,1,2,12,29,579,755.8783176038414,756.5900595848216,"[83, 0, 171]",171,l,0.18846947443671525,colour,0.06
178,22,1,2,12,30,580,757.0971222129883,757.854156779591,"[68, 0, 186]",186,a,0.23234067298471928,colour,0.06
178,22,1,2,12,31,581,758.3642547721975,759.0540536708431,"[63, 0, 191]",191,a,0.16706241539213806,colour,0.06
178,22,1,2,12,32,582,759.5674190028803,760.3261715219123,"[80, 0, 174]",174,l,0.23539060959592462,colour,0.06
178,22,1,2,12,33,583,760.8332455715863,761.5900576156564,"[52, 0, 202]",202,a,0.23359940201044083,colour,0.06
178,22,1,2,12,34,584,762.1001843590057,762.8540583183058,"[98, 0, 156]",156,l,0.23050535458605736,colour,0.06
178,22,1,2,12,35,585,763.3659384602215,763.998065038817,"[71, 0, 183]",183,a,0.10876466927584261,colour,0.06
178,22,1,2,12,36,586,764.5165141238831,765.2460618439363,"[91, 0, 163]",163,l,0.20106976211536676,colour,0.06
178,22,1,2,12,37,587,765.7564225313254,766.4140486139804,"[95, 0, 159]",159,l,0.134350425330922,colour,0.06
178,22,1,2,12,38,588,766.9298136443831,767.66200091457,"[81, 0, 173]",173,l,0.20882260391954333,colour,0.06
178,22,1,2,12,39,589,768.1802522893995,768.7900380021892,"[78, 0, 176]",176,l,0.08684600540436804,colour,0.06
178,22,1,2,12,40,590,769.3052985169925,770.1420008672867,"[73, 0, 181]",181,l,0.31330696411896497,colour,0.06
178,22,1,2,12,41,591,770.6491631382378,771.4060736435931,"[99, 0, 155]",155,l,0.23952204536180943,colour,0.06
178,22,1,2,12,42,592,771.924527060939,772.5659924957436,"[24, 0, 230]",230,a,0.11809525464195758,colour,0.06
178,22,1,2,12,43,593,773.0746864303946,773.8061261825496,"[93, 0, 161]",161,l,0.20813888870179653,colour,0.06
178,22,1,2,12,44,594,774.32475171017,775.0300625938689,"[58, 0, 196]",196,a,0.18228177342098206,colour,0.06
178,22,1,2,12,45,595,775.5436504483223,776.2621082767146,"[75, 0, 179]",179,l,0.19517153722699732,colour,0.06
178,22,1,2,12,46,596,776.7780777127482,777.4621000847546,"[50, 0, 204]",204,a,0.1690064350841567,colour,0.06
178,22,1,2,12,47,597,777.9729971891502,778.6380334681598,"[55, 0, 199]",199,a,0.141744080116041,colour,0.06
178,22,1,2,12,48,598,779.1543483064743,779.8623743584612,"[29, 0, 225]",225,a,0.1853076855186373,colour,0.06
178,22,1,2,12,49,599,780.3731619740138,781.14199692884,"[66, 0, 188]",188,l,0.24561128509230912,colour,0.06
178,22,1,2,12,50,600,781.6544623245718,782.1900275258813,"[86, 0, 168]",168,l,0.01226670085452497,colour,0.06
178,22,1,2,13,1,601,786.5768287510145,787.2940223366022,"[69, 0, 185]",185,a,0.19309636729303747,colour,0.06
178,22,1,2,13,2,602,787.79815396911,788.4780445116339,"[62, 0, 192]",192,a,0.15683583240024745,colour,0.06
178,22,1,2,13,3,603,788.9855222525075,789.597989656846,"[59, 0, 195]",195,a,0.08936425123829395,colour,0.06
178,22,1,2,13,4,604,790.1106070769019,790.7100145762088,"[90, 0, 164]",164,l,0.07624172477517277,colour,0.06
178,22,1,2,13,5,605,791.2259347815998,791.8859696212457,"[96, 0, 158]",158,l,0.13698249240405858,colour,0.06
178,22,1,2,13,6,606,792.3979305013781,793.0219962514238,"[79, 0, 175]",175,l,0.10083538491744548,colour,0.06
178,22,1,2,13,7,607,793.538551335223,794.1100029184017,"[24, 0, 230]",230,a,0.04806367994751781,colour,0.06
178,22,1,2,13,8,608,794.6166819413193,795.1660088796634,"[70, 0, 184]",184,a,0.02430969779379666,colour,0.06
178,22,1,2,13,9,609,795.6809271429665,796.2539773436729,"[74, 0, 180]",180,a,0.04998446279205382,colour,0.06
178,22,1,2,13,10,610,796.7748040718725,797.3659715431277,"[94, 0, 160]",160,l,0.0679788535926491,colour,0.06
178,22,1,2,13,11,611,797.8841728996485,798.4779716503108,"[95, 0, 159]",159,l,0.07064203452318907,colour,0.06
178,22,1,2,13,12,612,798.9936716962839,799.5179622925352,"[86, 0, 168]",168,l,0.0013063843362033367,colour,0.06
178,22,1,2,13,13,613,800.026193065336,801.0459581839386,"[84, 0, 170]",170,l,0.49639060616027564,colour,0.06
178,22,1,2,13,14,614,801.5575374281034,802.302020150004,"[58, 0, 196]",196,a,0.22112199396360666,colour,0.06
178,22,1,2,13,15,615,802.8231225698255,803.693969325046,"[89, 0, 165]",165,l,0.34726704948116094,colour,0.06
178,22,1,2,13,16,616,804.2140245105838,804.7659543715417,"[72, 0, 182]",182,l,0.028681772761046886,colour,0.06
178,22,1,2,13,17,617,805.2766876363894,805.9258996113203,"[93, 0, 161]",161,l,0.12585321627557278,colour,0.06
178,22,1,2,13,18,618,806.4330091068987,807.157898820471,"[87, 0, 167]",167,l,0.20142540440429002,colour,0.06
178,22,1,2,13,19,619,807.6775247148471,808.4139332172927,"[73, 0, 181]",181,a,0.21300799620803446,colour,0.06
178,22,1,2,13,20,620,808.9190801825607,809.7740037785843,"[81, 0, 173]",173,l,0.3314380191732198,colour,0.06
178,22,1,2,13,21,621,810.2941897207638,811.077938015922,"[64, 0, 190]",190,a,0.26033124746754766,colour,0.06
178,22,1,2,13,22,622,811.591141083627,812.3499763102736,"[68, 0, 186]",186,a,0.23571631964296103,colour,0.06
178,22,1,2,13,23,623,812.8569203909719,813.5819294395624,"[22, 0, 232]",232,a,0.20164320070762187,colour,0.06
178,22,1,2,13,24,624,814.0913870399818,814.6299777595559,"[57, 0, 197]",197,a,0.015199665678665042,colour,0.06
178,22,1,2,13,25,625,815.1384058487602,815.9499147129245,"[65, 0, 189]",189,a,0.28811859781853855,colour,0.06
178,22,1,2,13,26,626,816.466553685721,817.197897339589,"[91, 0, 163]",163,l,0.20794117846526206,colour,0.06
178,22,1,2,13,27,627,817.7166811929783,818.3818592563039,"[66, 0, 188]",188,a,0.1417704678606242,colour,0.06
178,22,1,2,13,28,628,818.8886324082268,819.7260255629662,"[77, 0, 177]",177,a,0.3140005253953859,colour,0.06
178,22,1,2,13,29,629,820.2325395647204,820.9979086823296,"[50, 0, 204]",204,a,0.23980049381498247,colour,0.06
178,22,1,2,13,30,630,821.5159796760418,822.2219612780027,"[63, 0, 191]",191,a,0.18385912314988673,colour,0.06
178,22,1,2,13,31,631,822.7335972358705,823.4059487946797,"[53, 0, 201]",201,a,0.14901328005362302,colour,0.06
178,22,1,2,13,32,632,823.9211931617465,824.6059386334382,"[78, 0, 176]",176,l,0.16136387002188712,colour,0.06
178,22,1,2,13,33,633,825.1244995705783,825.901873482042,"[80, 0, 174]",174,l,0.2540730480104685,colour,0.06
178,22,1,2,13,34,634,826.4214005212998,827.0699673778145,"[97, 0, 157]",157,l,0.12293049145955592,colour,0.06
178,22,1,2,13,35,635,827.5803646927234,828.3258804704528,"[76, 0, 178]",178,l,0.22425345669034868,colour,0.06
178,22,1,2,13,36,636,828.8439471318852,829.4858985715546,"[67, 0, 187]",187,a,0.11854975193273276,colour,0.06
178,22,1,2,13,37,637,830.0001839257311,830.6698742728913,"[82, 0, 172]",172,l,0.1464765234850347,colour,0.06
178,22,1,2,13,38,638,831.1910830308916,831.821841785335,"[54, 0, 200]",200,a,0.10777690564282238,colour,0.06
178,22,1,2,13,39,639,832.3318094152492,832.9258968543727,"[56, 0, 198]",198,a,0.07135725731495768,colour,0.06
178,22,1,2,13,40,640,833.4410065264674,834.1018763177563,"[75, 0, 179]",179,l,0.13741650979500264,colour,0.06
178,22,1,2,13,41,641,834.613092042855,835.2858851019992,"[55, 0, 199]",199,a,0.14987225632648915,colour,0.06
178,22,1,2,13,42,642,835.8025622777641,836.4699324831599,"[98, 0, 156]",156,l,0.1442851690808311,colour,0.06
178,22,1,2,13,43,643,836.9902416989207,837.5739087831462,"[18, 0, 236]",236,a,0.06033747014589608,colour,0.06
178,22,1,2,13,44,644,838.0840556125622,838.7498618589016,"[71, 0, 183]",183,l,0.14301777549553663,colour,0.06
178,22,1,2,13,45,645,839.2717086459743,839.9578542371746,"[60, 0, 194]",194,a,0.1628289739601314,colour,0.06
178,22,1,2,13,46,646,840.4748480644776,841.1418303323444,"[61, 0, 193]",193,a,0.14390629006084055,colour,0.06
178,22,1,2,13,47,647,841.662499128608,842.2459535365924,"[99, 0, 155]",155,l,0.06022640585433692,colour,0.06
178,22,1,2,13,48,648,842.7583626124542,843.3898562820395,"[92, 0, 162]",162,l,0.10804235725663602,colour,0.06
178,22,1,2,13,49,649,843.8990980553208,844.5418505759444,"[88, 0, 166]",166,l,0.11998019739985466,colour,0.06
178,22,1,2,13,50,650,845.0554695441388,845.7099102073116,"[51, 0, 203]",203,a,0.13107954140286893,colour,0.06
178,22,1,2,14,1,651,850.1189353263471,850.8778548358241,"[13, 0, 241]",241,a,0.23504953982774168,colour,0.06
178,22,1,2,14,2,652,851.3855700652348,852.0218343810411,"[92, 0, 162]",162,l,0.11313910724129528,colour,0.06
178,22,1,2,14,3,653,852.5399132517632,853.1978039982496,"[63, 0, 191]",191,a,0.13445952034089714,colour,0.06
178,22,1,2,14,4,654,853.7044920796761,854.4618125777924,"[84, 0, 170]",170,l,0.2340464162407443,colour,0.06
178,22,1,2,14,5,655,854.9806125789182,855.8538310696604,"[51, 0, 203]",203,a,0.3499833995010704,colour,0.06
178,22,1,2,14,6,656,856.3713510739617,856.9418117428431,"[76, 0, 178]",178,l,0.04717398388311267,colour,0.06
178,22,1,2,14,7,657,857.4494997969596,858.3657592606032,"[95, 0, 159]",159,l,0.3932264148024842,colour,0.06
178,22,1,2,14,8,658,858.8870680553373,859.4138422390679,"[52, 0, 202]",202,a,0.003302785335108638,colour,0.06
178,22,1,2,14,9,659,859.9364739595912,860.6218023221008,"[58, 0, 196]",196,a,0.16256824845913798,colour,0.06
178,22,1,2,14,10,660,861.1397976975422,861.685784829082,"[86, 0, 168]",168,l,0.02255432994570583,colour,0.06
178,22,1,2,14,11,661,862.2024407371646,863.45383563824,"[71, 0, 183]",183,a,0.7279817917151377,colour,0.06
178,22,1,2,14,12,662,863.9680886971764,866.485818227171,"[55, 0, 199]",199,a,1.9942045687930658,colour,0.06
178,22,1,2,14,13,663,867.0009298684308,867.6698199221864,"[72, 0, 182]",182,a,0.14542613842058927,colour,0.06
178,22,1,2,14,14,664,868.1885356404819,868.7498268065974,"[98, 0, 156]",156,l,0.03835027711465955,colour,0.06
178,22,1,2,14,15,665,869.2665595145663,869.8537452113815,"[50, 0, 204]",204,a,0.061765946447849274,colour,0.06
178,22,1,2,14,16,666,870.3623934600037,870.9497981347376,"[65, 0, 189]",189,a,0.06399826076813042,colour,0.06
178,22,1,2,14,17,667,871.4562436074484,872.0617765804054,"[79, 0, 175]",175,l,0.08245187508873641,colour,0.06
178,22,1,2,14,18,668,872.5813174041687,873.2298204578692,"[96, 0, 158]",158,l,0.12533570372033864,colour,0.06
178,22,1,2,14,19,669,873.737719613011,874.3737495909445,"[83, 0, 171]",171,l,0.11279921897221357,colour,0.06
178,22,1,2,14,20,670,874.8940741665429,875.5257525495254,"[87, 0, 167]",167,l,0.10845707624685019,colour,0.06
178,22,1,2,14,21,671,876.0347678618273,877.3257733444916,"[75, 0, 179]",179,a,0.7675907979719341,colour,0.06
178,22,1,2,14,22,672,877.8317288738908,878.8137581137707,"[77, 0, 177]",177,l,0.4586224320810288,colour,0.06
178,22,1,2,14,23,673,879.3319252056535,880.1097882728791,"[94, 0, 160]",160,l,0.2545381791424006,colour,0.06
178,22,1,2,14,24,674,880.6290124451043,881.309745422448,"[59, 0, 195]",195,a,0.15755617513787,colour,0.06
178,22,1,2,14,25,675,881.8164579222212,882.4698068465805,"[61, 0, 193]",193,a,0.1300043441588059,colour,0.06
178,22,1,2,14,26,676,882.9883957466809,883.7577738140244,"[62, 0, 192]",192,a,0.24626743118278682,colour,0.06
178,22,1,2,14,27,677,884.2710981860291,885.1657091635279,"[53, 0, 201]",201,a,0.3713136586593464,colour,0.06
178,22,1,2,14,28,678,885.6773982904851,886.2537205566186,"[60, 0, 194]",194,a,0.052952873636968434,colour,0.06
178,22,1,2,14,29,679,886.7713602900039,887.4857749041403,"[74, 0, 180]",180,a,0.19111768924631178,colour,0.06
178,22,1,2,14,30,680,888.0071348986821,888.6617949334905,"[8, 0, 246]",246,a,0.13125047006178647,colour,0.06
178,22,1,2,14,31,681,889.1791510983603,889.8137092769612,"[67, 0, 187]",187,a,0.11124628747347742,colour,0.06
178,22,1,2,14,32,682,890.3198554273695,890.9497225164669,"[82, 0, 172]",172,l,0.10644728445913643,colour,0.06
178,22,1,2,14,33,683,891.4605396703118,892.0217225290835,"[64, 0, 190]",190,a,0.03799030277878046,colour,0.06
178,22,1,2,14,34,684,892.5408903815551,893.3257229323499,"[85, 0, 169]",169,l,0.2614962413208559,colour,0.06
178,22,1,2,14,35,685,893.8378354428569,894.469728471362,"[78, 0, 176]",176,l,0.108737887814641,colour,0.06
178,22,1,2,14,36,686,894.9784413105808,895.5657097148942,"[57, 0, 197]",197,a,0.06420384789817035,colour,0.06
178,22,1,2,14,37,687,896.0723261163803,896.7416994181694,"[68, 0, 186]",186,l,0.1460255706915632,colour,0.06
178,22,1,2,14,38,688,897.2477104797726,897.8619147412246,"[91, 0, 163]",163,l,0.09070450626313686,colour,0.06
178,22,1,2,14,39,689,898.3728685593233,898.9896647157148,"[80, 0, 174]",174,l,0.09354216046631336,colour,0.06
178,22,1,2,14,40,690,899.4979332976509,900.1258004410192,"[99, 0, 155]",155,l,0.10442292026709765,colour,0.06
178,22,1,2,14,41,691,900.638621872873,901.2296806428349,"[73, 0, 181]",181,a,0.06808794871903956,colour,0.06
178,22,1,2,14,42,692,901.7480946757132,902.5496782482369,"[66, 0, 188]",188,a,0.2783142167609185,colour,0.06
178,22,1,2,14,43,693,903.0607557337498,903.6536612436175,"[25, 0, 229]",229,a,0.06958298501558602,colour,0.06
178,22,1,2,14,44,694,904.1701052630087,904.7576619619504,"[88, 0, 166]",166,l,0.06435705372132361,colour,0.06
178,22,1,2,14,45,695,905.2640688378597,905.829693482141,"[97, 0, 157]",157,l,0.04251952189952135,colour,0.06
178,22,1,2,14,46,696,906.3421616348205,906.9096724035917,"[54, 0, 200]",200,a,0.04465770721435547,colour,0.06
178,22,1,2,14,47,697,907.4205332743004,907.9576923667919,"[90, 0, 164]",164,l,0.01267078600358218,colour,0.06
178,22,1,2,14,48,698,908.4691660605604,909.0137262910139,"[89, 0, 165]",165,l,0.02231605362612754,colour,0.06
178,22,1,2,14,49,699,909.5305850293953,911.5976789130364,"[81, 0, 173]",173,a,1.5440840717637911,colour,0.06
178,22,1,2,14,50,700,912.1088296537055,912.7416568829212,"[93, 0, 161]",161,l,0.10944799054414034,colour,0.06
178,22,1,2,15,1,701,917.2995408948045,917.8776614578674,"[97, 0, 157]",157,l,0.056272988324053586,colour,0.06
178,22,1,2,15,2,702,918.3918841906125,919.1096858731471,"[68, 0, 186]",186,a,0.19443347153719515,colour,0.06
178,22,1,2,15,3,703,919.6264237010619,920.2296487414278,"[64, 0, 190]",190,a,0.08065475977491587,colour,0.06
178,22,1,2,15,4,704,920.7394151163753,921.3736294681439,"[80, 0, 174]",174,l,0.11100367887411267,colour,0.06
178,22,1,2,15,5,705,921.8801592238015,922.4856413906673,"[66, 0, 188]",188,a,0.08157753886189312,colour,0.06
178,22,1,2,15,6,706,923.0058643543161,923.5736244269647,"[51, 0, 203]",203,a,0.04468173172790557,colour,0.06
178,22,1,2,15,7,707,924.0841009047581,924.6136599675519,"[63, 0, 191]",191,a,0.0062121194787323475,colour,0.06
178,22,1,2,15,8,708,925.1310271599796,925.7096392418025,"[91, 0, 163]",163,l,0.055231267819181085,colour,0.06
178,22,1,2,15,9,709,926.224927719566,926.877624042565,"[78, 0, 176]",176,l,0.1273470709566027,colour,0.06
178,22,1,2,15,10,710,927.3968320672866,928.0055977210868,"[74, 0, 180]",180,l,0.08573221124242991,colour,0.06
178,22,1,2,15,11,711,928.5218881409382,929.0856361130718,"[92, 0, 162]",162,l,0.039207284222356975,colour,0.06
178,22,1,2,15,12,712,929.601284171571,930.1576542425901,"[72, 0, 182]",182,a,0.03295656794216484,colour,0.06
178,22,1,2,15,13,713,930.6640292170923,931.261593521107,"[90, 0, 164]",164,l,0.07445800013374537,colour,0.06
178,22,1,2,15,14,714,931.7733854417456,932.4295964387711,"[55, 0, 199]",199,a,0.13293652120046318,colour,0.06
178,22,1,2,15,15,715,932.9458770124475,933.5495975100202,"[59, 0, 195]",195,a,0.08051376312505454,colour,0.06
178,22,1,2,15,16,716,934.0708826739574,934.6056085912278,"[21, 0, 233]",233,a,0.011382518569007516,colour,0.06
178,22,1,2,15,17,717,935.1178735197755,935.7575957960216,"[99, 0, 155]",155,l,0.11644031736068428,colour,0.06
178,22,1,2,15,18,718,936.2742568240501,936.8216113859089,"[88, 0, 166]",166,l,0.024046609178185463,colour,0.06
178,22,1,2,15,19,719,937.3366422889521,937.8701193232555,"[82, 0, 172]",172,l,0.01026596745941788,colour,0.06
178,22,1,2,15,20,720,938.3836500701727,939.069621187984,"[56, 0, 198]",198,a,0.16118663968518376,colour,0.06
178,22,1,2,15,21,721,939.5884046475403,940.165582345333,"[96, 0, 158]",158,l,0.05391621880698949,colour,0.06
178,22,1,2,15,22,722,940.6822362842504,941.3016129140742,"[75, 0, 179]",179,l,0.09613760001957417,colour,0.06
178,22,1,2,15,23,723,941.82297212095,942.5256320328917,"[61, 0, 193]",193,a,0.17998171772342175,colour,0.06
178,22,1,2,15,24,724,943.0418011484435,943.7015851086471,"[69, 0, 185]",185,a,0.13644016766920686,colour,0.06
178,22,1,2,15,25,725,944.2136751699727,944.7655731294071,"[50, 0, 204]",204,a,0.029051199438981712,colour,0.06
178,22,1,2,15,26,726,945.2763453848893,945.8295643009478,"[12, 0, 242]",242,a,0.029929080279543996,colour,0.06
178,22,1,2,15,27,727,946.3388915386749,946.9176001125015,"[54, 0, 200]",200,a,0.05551129172090441,colour,0.06
178,22,1,2,15,28,728,947.4328113966621,948.1815893936437,"[84, 0, 170]",170,l,0.22306483204010874,colour,0.06
178,22,1,2,15,29,729,948.7009856762597,949.3975390192354,"[62, 0, 192]",192,a,0.17324184568133205,colour,0.06
178,22,1,2,15,30,730,949.9041621161159,950.5255792576354,"[76, 0, 178]",178,l,0.0984258403768763,colour,0.06
178,22,1,2,15,31,731,951.044896377367,951.6696584457532,"[73, 0, 181]",181,a,0.10144466336350888,colour,0.06
178,22,1,2,15,32,732,952.1856180356117,952.7735622781329,"[95, 0, 159]",159,l,0.06463747145608068,colour,0.06
178,22,1,2,15,33,733,953.2950809922768,953.9975479202112,"[87, 0, 167]",167,l,0.17921765812207013,colour,0.06
178,22,1,2,15,34,734,954.5138852075906,955.2375232812483,"[85, 0, 169]",169,l,0.20048293296713382,colour,0.06
178,22,1,2,15,35,735,955.7483703673352,956.4055860632798,"[93, 0, 161]",161,l,0.13394752168096602,colour,0.06
178,22,1,2,15,36,736,956.9202491149772,957.9255817782832,"[77, 0, 177]",177,a,0.48188371409196407,colour,0.06
178,22,1,2,15,37,737,958.4359873639187,959.1495398511179,"[57, 0, 197]",197,a,0.1896809422178194,colour,0.06
178,22,1,2,15,38,738,959.6708514026832,960.3735782683361,"[79, 0, 175]",175,l,0.17939882690552622,colour,0.06
178,22,1,2,15,39,739,960.8897426576586,961.5335987324361,"[53, 0, 201]",201,a,0.12054733443073928,colour,0.06
178,22,1,2,15,40,740,962.0460531006102,962.6615093958098,"[83, 0, 171]",171,l,0.09215897636022419,colour,0.06
178,22,1,2,15,41,741,963.1724317063345,963.8696053554304,"[65, 0, 189]",189,a,0.17381055816076696,colour,0.06
178,22,1,2,15,42,742,964.3756396537647,964.933540207101,"[94, 0, 160]",160,l,0.03515107312705368,colour,0.06
178,22,1,2,15,43,743,965.4532417197479,966.1015667554457,"[67, 0, 187]",187,a,0.12402616871986538,colour,0.06
178,22,1,2,15,44,744,966.6106702890247,967.1975294882432,"[98, 0, 156]",156,l,0.06364695099182427,colour,0.06
178,22,1,2,15,45,745,967.7044235505164,968.3575255339965,"[60, 0, 194]",194,a,0.12969753867946565,colour,0.06
178,22,1,2,15,46,746,968.8765386053128,969.5976056578802,"[52, 0, 202]",202,a,0.19770199235063046,colour,0.06
178,22,1,2,15,47,747,970.1109170330456,970.7255037181312,"[6, 0, 248]",248,a,0.09116333583369851,colour,0.06
178,22,1,2,15,48,748,971.2361314324662,971.8135139297228,"[58, 0, 196]",196,a,0.054194667376577854,colour,0.06
178,22,1,2,15,49,749,972.3298386140959,972.9174662051955,"[71, 0, 183]",183,a,0.06444212433416396,colour,0.06
178,22,1,2,15,50,750,973.4237143615028,974.0135084947105,"[70, 0, 184]",184,a,0.06730655999854207,colour,0.06
178,22,1,2,16,1,751,978.5653832172975,979.1654728564899,"[70, 0, 184]",184,a,0.07609206368215382,colour,0.06
178,22,1,2,16,2,752,979.6755621844204,980.2136054593138,"[53, 0, 201]",201,a,0.014681759290397167,colour,0.06
178,22,1,2,16,3,753,980.7225975347683,981.2694893286098,"[28, 0, 226]",226,a,0.02399462170433253,colour,0.06
178,22,1,2,16,4,754,981.7850763410097,982.3975012101,"[84, 0, 170]",170,l,0.08920947008300573,colour,0.06
178,22,1,2,16,5,755,982.9101973992074,983.4535485251108,"[86, 0, 168]",168,l,0.020307049504481256,colour,0.06
178,22,1,2,16,6,756,983.973927451414,984.5575181297027,"[55, 0, 199]",199,a,0.06074982602149248,colour,0.06
178,22,1,2,16,7,757,985.0679879121017,985.6295181423193,"[97, 0, 157]",157,l,0.03894262027461082,colour,0.06
178,22,1,2,16,8,758,986.1460724384524,986.7014988565352,"[65, 0, 189]",189,a,0.03195895825047046,colour,0.06
178,22,1,2,16,9,759,987.2085480937967,987.8215290723601,"[98, 0, 156]",156,l,0.08935046673286706,colour,0.06
178,22,1,2,16,10,760,988.3337967578555,989.2134711581748,"[88, 0, 166]",166,l,0.35632903245277703,colour,0.06
178,22,1,2,16,11,761,989.7245679420885,990.6694461632287,"[60, 0, 194]",194,a,0.42208069178741425,colour,0.06
178,22,1,2,16,12,762,991.1778061172226,991.7734429431148,"[81, 0, 173]",173,l,0.07226034428458661,colour,0.06
178,22,1,2,16,13,763,992.2872667107731,992.893454254372,"[90, 0, 164]",164,l,0.08279806503560394,colour,0.06
178,22,1,2,16,14,764,993.4123054553056,993.9734875264112,"[94, 0, 160]",160,l,0.037909564562141895,colour,0.06
178,22,1,2,16,15,765,994.4905305842403,995.0694695576094,"[56, 0, 198]",198,a,0.05410802154801786,colour,0.06
178,22,1,2,16,16,766,995.586007312173,996.1494472974446,"[83, 0, 171]",171,l,0.040165509446524084,colour,0.06
178,22,1,2,16,17,767,996.6640686015598,997.3174080735771,"[64, 0, 190]",190,a,0.13002994400449097,colour,0.06
178,22,1,2,16,18,768,997.8347362753702,998.4694756227545,"[50, 0, 204]",204,a,0.11139319173526019,colour,0.06
178,22,1,2,16,19,769,998.9777245124569,999.613424054347,"[35, 0, 219]",219,a,0.11242545989807695,colour,0.06
178,22,1,2,16,20,770,1000.1340341677424,1000.8455615030834,"[66, 0, 188]",188,l,0.18797874334268272,colour,0.06
178,22,1,2,16,21,771,1001.3528761920752,1001.9094278257107,"[92, 0, 162]",162,l,0.03307984140701592,colour,0.06
178,22,1,2,16,22,772,1002.4128848015098,1002.9494385541184,"[62, 0, 192]",192,a,0.013744014082476497,colour,0.06
178,22,1,2,16,23,773,1003.4599024287891,1004.0134525686735,"[59, 0, 195]",195,a,0.027016595471650362,colour,0.06
178,22,1,2,16,24,774,1004.5259616812691,1005.109440113767,"[74, 0, 180]",180,a,0.06024019047617912,colour,0.06
178,22,1,2,16,25,775,1005.6196538967779,1006.1813849880127,"[95, 0, 159]",159,l,0.03832349576987326,colour,0.06
178,22,1,2,16,26,776,1006.6978640597081,1007.3094287710264,"[57, 0, 197]",197,a,0.08821894961874932,colour,0.06
178,22,1,2,16,27,777,1007.8079473224934,1008.4934064415284,"[79, 0, 175]",175,a,0.16216416331008077,colour,0.06
178,22,1,2,16,28,778,1009.0112470358144,1009.717426741845,"[68, 0, 186]",186,a,0.18285442411433905,colour,0.06
178,22,1,2,16,29,779,1010.2301426231861,1010.9093841089634,"[82, 0, 172]",172,l,0.15609855426009744,colour,0.06
178,22,1,2,16,30,780,1011.4177928997669,1011.9734946156386,"[63, 0, 191]",191,a,0.03294081415515393,colour,0.06
178,22,1,2,16,31,781,1012.4766597520793,1013.1014324541902,"[93, 0, 161]",161,l,0.09706234838813543,colour,0.06
178,22,1,2,16,32,782,1013.6217960205395,1014.205417418736,"[89, 0, 165]",165,l,0.060297297895886004,colour,0.06
178,22,1,2,16,33,783,1014.7156142665772,1015.3493725456065,"[87, 0, 167]",167,l,0.11047316947951913,colour,0.06
178,22,1,2,16,34,784,1015.8562859063968,1016.5333911761409,"[99, 0, 155]",155,l,0.15371736651286483,colour,0.06
178,22,1,2,16,35,785,1017.0452977055684,1017.7173617574153,"[67, 0, 187]",187,a,0.1487285300390795,colour,0.06
178,22,1,2,16,36,786,1018.2330019389046,1018.7974340202054,"[51, 0, 203]",203,a,0.04167669336311519,colour,0.06
178,22,1,2,16,37,787,1019.3110766190803,1019.9094274318777,"[76, 0, 178]",178,l,0.07574547990225255,colour,0.06
178,22,1,2,16,38,788,1020.4205380004132,1021.0294529215898,"[77, 0, 177]",177,l,0.08624224073719233,colour,0.06
178,22,1,2,16,39,789,1021.5456984430784,1022.1653578536352,"[52, 0, 202]",202,a,0.09532076516188681,colour,0.06
178,22,1,2,16,40,790,1022.6724964937894,1023.2214276178274,"[75, 0, 179]",179,l,0.026152499252930284,colour,0.06
178,22,1,2,16,41,791,1023.7349922354333,1024.349437136203,"[71, 0, 183]",183,l,0.09155324252787977,colour,0.06
178,22,1,2,16,42,792,1024.8591062314808,1025.453402408515,"[85, 0, 169]",169,l,0.07101658126339316,colour,0.06
178,22,1,2,16,43,793,1025.968562492868,1026.5974036152475,"[58, 0, 196]",196,a,0.10552844358608127,colour,0.06
178,22,1,2,16,44,794,1027.1090970746009,1027.9733721297234,"[78, 0, 176]",176,l,0.3407355215167627,colour,0.06
178,22,1,2,16,45,795,1028.484277504962,1029.1253333407221,"[73, 0, 181]",181,l,0.11633791751228273,colour,0.06
178,22,1,2,16,46,796,1029.642065654858,1030.2293765944196,"[44, 0, 210]",210,a,0.06393721478525549,colour,0.06
178,22,1,2,16,47,797,1030.7356038768776,1031.4693515616236,"[61, 0, 193]",193,a,0.2107847403967753,colour,0.06
178,22,1,2,16,48,798,1031.9854946833802,1032.5974556028377,"[91, 0, 163]",163,l,0.08859782852232456,colour,0.06
178,22,1,2,16,49,799,1033.1105901414994,1033.7173255237285,"[54, 0, 200]",200,a,0.08362907823175192,colour,0.06
178,22,1,2,16,50,800,1034.2364941638662,1034.8773361417698,"[69, 0, 185]",185,l,0.11737727490253747,colour,0.06
