id,age,condition,counterbalance,block,trialinblock,trial,tstart,tend,trialstim,trialintensity,response,RT,trialtype,colourfreq
67,68,0,1,Practice,1,NA,5.513778887689114e-06,2.5919902137247846,"[3, 0, 251]",251,a,1.9581811286043376,colour,0.5
67,68,0,1,Practice,2,NA,3.1003745860653,4.36798763636034,"[25, 0, 229]",229,a,0.7442696515936404,colour,0.5
67,68,0,1,Practice,3,NA,4.881551860133186,6.223989186575636,"[45, 0, 209]",209,a,0.8197382583748549,colour,0.5
67,68,0,1,Practice,4,NA,6.740906213992275,10.943996795685962,"[92, 0, 162]",162,a,3.6797184322495013,colour,0.5
67,68,0,1,Practice,5,NA,11.459692115429789,12.247943242196925,"[98, 0, 156]",156,a,0.26497350016143173,colour,0.5
67,68,0,1,Practice,6,NA,12.756797865615226,13.928059064084664,"[67, 0, 187]",187,a,0.648275017272681,colour,0.5
67,68,0,1,Practice,7,NA,14.443977300310507,15.48794853547588,"[23, 0, 231]",231,a,0.5205900273285806,colour,0.5
67,68,0,1,Practice,8,NA,16.00650002027396,17.367996300919913,"[91, 0, 163]",163,a,0.8382395278895274,colour,0.5
67,68,0,1,Practice,9,NA,17.881526260171086,18.92790270759724,"[72, 0, 182]",182,a,0.5231476576300338,colour,0.5
67,68,0,1,Practice,10,NA,19.444000143324956,20.504071768024005,"[12, 0, 242]",242,a,0.5367364967241883,colour,0.5
67,68,0,1,1,1,1,4.681594316614792,6.311915903002955,"[41, 0, 213]",213,a,1.1061763189500198,colour,0.5
67,68,0,1,1,2,2,6.823062705225311,7.5358613728312775,"[16, 0, 238]",238,a,0.18931230308953673,colour,0.5
67,68,0,1,1,3,3,8.04219735658262,8.591928380075842,"[53, 0, 201]",201,a,0.03550198918674141,colour,0.5
67,68,0,1,1,4,4,9.111215567565523,11.375897622318007,"[99, 0, 155]",155,l,1.7413355052703992,colour,0.5
67,68,0,1,1,5,5,11.89246176450979,12.575876039569266,"[29, 0, 225]",225,a,0.17251913982909173,colour,0.5
67,68,0,1,1,6,6,13.083019012119621,13.711869586841203,"[43, 0, 211]",211,a,0.10445876023732126,colour,0.5
67,68,0,1,1,7,7,14.224640606436878,25.623875129036605,"[57, 0, 197]",197,l,10.876425965572707,colour,0.5
67,68,0,1,1,8,8,26.130816058954224,26.719852827955037,"[36, 0, 218]",218,a,0.06582727760542184,colour,0.5
67,68,0,1,1,9,9,27.240258535719477,27.847877312568016,"[50, 0, 204]",204,a,0.08455500821582973,colour,0.5
67,68,0,1,1,10,10,28.365187397459522,29.375851542456076,"[62, 0, 192]",192,a,0.4873510723700747,colour,0.5
67,68,0,1,1,11,11,29.897449813317508,30.927806609426625,"[64, 0, 190]",190,a,0.5070567204384133,colour,0.5
67,68,0,1,1,12,12,31.44422581663821,32.98380469379481,"[76, 0, 178]",178,l,1.0161421371158212,colour,0.5
67,68,0,1,1,13,13,33.49111741350498,34.479848716175184,"[74, 0, 180]",180,l,0.4654690360184759,colour,0.5
67,68,0,1,1,14,14,34.991087284404784,35.86379968409892,"[65, 0, 189]",189,l,0.34964548028074205,colour,0.5
67,68,0,1,1,15,15,36.38167808752041,37.095820948597975,"[49, 0, 205]",205,a,0.18982902797870338,colour,0.5
67,68,0,1,1,16,16,37.616979688289575,38.33580300491303,"[81, 0, 173]",173,l,0.19538106280378997,colour,0.5
67,68,0,1,1,17,17,38.851435703458264,39.4398139633704,"[24, 0, 230]",230,a,0.06501083669718355,colour,0.5
67,68,0,1,1,18,18,39.96078365726862,40.67178402794525,"[21, 0, 233]",233,a,0.1875533906277269,colour,0.5
67,68,0,1,1,19,19,41.17028446251061,43.8077945105033,"[93, 0, 161]",161,l,2.114528199075721,colour,0.5
67,68,0,1,1,20,20,44.326530708698556,45.00780758622568,"[94, 0, 160]",160,l,0.15802209393586963,colour,0.5
67,68,0,1,1,21,21,45.513937588897534,49.6397537838202,"[80, 0, 174]",174,a,3.602553928270936,colour,0.5
67,68,0,1,1,22,22,50.15456137666479,51.67176472954452,"[91, 0, 163]",163,l,0.9938465635059401,colour,0.5
67,68,0,1,1,23,23,52.17344979592599,52.87176795909181,"[39, 0, 215]",215,a,0.17502202582545578,colour,0.5
67,68,0,1,1,24,24,53.39216697146185,54.559836696018465,"[55, 0, 199]",199,l,0.6443176612956449,colour,0.5
67,68,0,1,1,25,25,55.07965518068522,55.687782411579974,"[34, 0, 220]",220,a,0.08473932766355574,colour,0.5
67,68,0,1,1,26,26,56.20472503895871,56.77582413086202,"[47, 0, 207]",207,a,0.047743090079165995,colour,0.5
67,68,0,1,1,27,27,57.28280877752695,57.911765296710655,"[33, 0, 221]",221,a,0.10566983418539166,colour,0.5
67,68,0,1,1,28,28,58.423437882214785,58.95180162496399,"[22, 0, 232]",232,a,0.005189697491005063,colour,0.5
67,68,0,1,1,29,29,59.470231411629356,62.64779925241601,"[77, 0, 177]",177,l,2.666805825312622,colour,0.5
67,68,0,1,1,30,30,63.16093694185838,63.87172266689595,"[52, 0, 202]",202,a,0.1874502032296732,colour,0.5
67,68,0,1,1,31,31,64.3796938956948,65.13573006482329,"[97, 0, 157]",157,a,0.23278453631792217,colour,0.5
67,68,0,1,1,32,32,65.64537434780505,66.76773770223372,"[71, 0, 183]",183,l,0.5991451984737068,colour,0.5
67,68,0,1,1,33,33,67.28600837546401,67.98376885382459,"[27, 0, 227]",227,a,0.1745427162386477,colour,0.5
67,68,0,1,1,34,34,68.50474839401431,69.08774121536408,"[85, 0, 169]",169,l,0.059749065432697535,colour,0.5
67,68,0,1,1,35,35,69.59845596947707,70.25570474844426,"[48, 0, 206]",206,a,0.13399202621076256,colour,0.5
67,68,0,1,1,36,36,70.77028588042594,71.61572253447957,"[84, 0, 170]",170,a,0.32212870148941875,colour,0.5
67,68,0,1,1,37,37,72.12957938516047,73.37569951824844,"[32, 0, 222]",222,a,0.7226790607674047,colour,0.5
67,68,0,1,1,38,38,73.89524703740608,74.6077097550733,"[38, 0, 216]",216,a,0.18907717755064368,colour,0.5
67,68,0,1,1,39,39,75.11407055112068,75.73572872579098,"[14, 0, 240]",240,a,0.09838330512866378,colour,0.5
67,68,0,1,1,40,40,76.25463821587618,76.99972548999358,"[54, 0, 200]",200,l,0.22183524759020656,colour,0.5
67,68,0,1,1,41,41,77.52018909296021,78.12767632550094,"[1, 0, 253]",253,a,0.08414580312091857,colour,0.5
67,68,0,1,1,42,42,78.64529439725447,80.04766550264321,"[18, 0, 236]",236,a,0.8789973806124181,colour,0.5
67,68,0,1,1,43,43,80.56722483714111,81.25571813923307,"[75, 0, 179]",179,l,0.16530232143122703,colour,0.5
67,68,0,1,1,44,44,81.77024137589615,82.4876846591942,"[98, 0, 156]",156,l,0.19314441632013768,colour,0.5
67,68,0,1,1,45,45,83.0055362812709,83.54372330964543,"[4, 0, 250]",250,a,0.014892466482706368,colour,0.5
67,68,0,1,1,46,46,84.05239873356186,84.5997548707528,"[5, 0, 249]",249,a,0.02396626479458064,colour,0.5
67,68,0,1,1,47,47,85.1148578474531,86.60774598876014,"[2, 0, 252]",252,a,0.9696412346092984,colour,0.5
67,68,0,1,1,48,48,87.11487320752349,88.7036870601587,"[10, 0, 244]",244,a,1.0662400274304673,colour,0.5
67,68,0,1,1,49,49,89.22422234294936,89.92773177882191,"[88, 0, 166]",166,l,0.18081666936632246,colour,0.5
67,68,0,1,1,50,50,90.44299859518651,92.05574129731394,"[37, 0, 217]",217,a,1.0894812232581899,colour,0.5
67,68,0,1,2,1,51,101.66093556338456,103.48765630240086,"[62, 0, 192]",192,l,1.3025392377749085,colour,0.5
67,68,0,1,2,2,52,104.00545396760572,104.56762852845713,"[21, 0, 233]",233,a,0.039228158071637154,colour,0.5
67,68,0,1,2,3,53,105.08351762010716,106.35172104416415,"[72, 0, 182]",182,l,0.74512744625099,colour,0.5
67,68,0,1,2,4,54,106.86477287544403,107.7196216408629,"[69, 0, 185]",185,l,0.3315593234729022,colour,0.5
67,68,0,1,2,5,55,108.23982451832853,108.91966149793006,"[64, 0, 190]",190,l,0.15672831260599196,colour,0.5
67,68,0,1,2,6,56,109.42727708467282,109.95962338952813,"[81, 0, 173]",173,l,0.00894658628385514,colour,0.5
67,68,0,1,2,7,57,110.47413126623724,111.25563228095416,"[17, 0, 237]",237,a,0.258387227775529,colour,0.5
67,68,0,1,2,8,58,111.77106175536755,112.47963367670309,"[10, 0, 244]",244,a,0.18529783945996314,colour,0.5
67,68,0,1,2,9,59,112.98977144772653,113.64762556669302,"[26, 0, 228]",228,a,0.13463793229311705,colour,0.5
67,68,0,1,2,10,60,114.16162341390736,114.76762703177519,"[31, 0, 223]",223,a,0.08262792380992323,colour,0.5
67,68,0,1,2,11,61,115.28662986319978,115.9835928051034,"[80, 0, 174]",174,l,0.17369240464176983,colour,0.5
67,68,0,1,2,12,62,116.48976179852616,117.8316449848935,"[40, 0, 214]",214,a,0.818799331667833,colour,0.5
67,68,0,1,2,13,63,118.34913466311991,119.41561493603513,"[45, 0, 209]",209,a,0.543190437136218,colour,0.5
67,68,0,1,2,14,64,119.92719614948146,121.11160626204219,"[87, 0, 167]",167,l,0.6610166955506429,colour,0.5
67,68,0,1,2,15,65,121.6302306081634,123.35959794709925,"[60, 0, 194]",194,a,1.2058530114591122,colour,0.5
67,68,0,1,2,16,66,123.88026713731233,125.52759180625435,"[39, 0, 215]",215,a,1.1238784766755998,colour,0.5
67,68,0,1,2,17,67,126.03644367284141,127.19154067884665,"[29, 0, 225]",225,a,0.6317043766612187,colour,0.5
67,68,0,1,2,18,68,127.70846125099342,128.847576414817,"[70, 0, 184]",184,l,0.6158840110292658,colour,0.5
67,68,0,1,2,19,69,129.36462931882124,132.15158863342367,"[8, 0, 246]",246,a,2.2636470296420157,colour,0.5
67,68,0,1,2,20,70,132.66133767925203,133.27958279196173,"[93, 0, 161]",161,l,0.09469927754253149,colour,0.5
67,68,0,1,2,21,71,133.78910301369615,134.92760614224244,"[85, 0, 169]",169,l,0.6152558280155063,colour,0.5
67,68,0,1,2,22,72,135.4454372843029,136.1675480264239,"[48, 0, 206]",206,a,0.19870590360369533,colour,0.5
67,68,0,1,2,23,73,136.67971252452116,138.07953584566712,"[71, 0, 183]",183,l,0.8764732270501554,colour,0.5
67,68,0,1,2,24,74,138.58904188894667,143.65555051877163,"[27, 0, 227]",227,a,4.543259753962047,colour,0.5
67,68,0,1,2,25,75,144.16723767644726,145.8475496333558,"[14, 0, 240]",240,a,1.1570040042279288,colour,0.5
67,68,0,1,2,26,76,146.35462368291337,148.07954766100738,"[65, 0, 189]",189,l,1.2014710904331878,colour,0.5
67,68,0,1,2,27,77,148.5890032921452,150.24752537254244,"[57, 0, 197]",197,l,1.1352192477788776,colour,0.5
67,68,0,1,2,28,78,150.76087967678905,152.49558322364464,"[33, 0, 221]",221,a,1.2096827616915107,colour,0.5
67,68,0,1,2,29,79,153.01250852178782,154.15952067472972,"[76, 0, 178]",178,l,0.6236829325789586,colour,0.5
67,68,0,1,2,30,80,154.66077369300183,156.5995106868213,"[95, 0, 159]",159,l,1.4153802043292671,colour,0.5
67,68,0,1,2,31,81,157.11382479174063,159.19147608825006,"[6, 0, 248]",248,a,1.5542326734866947,colour,0.5
67,68,0,1,2,32,82,159.6961811593501,161.47151416528504,"[34, 0, 220]",220,a,1.2520644378382713,colour,0.5
67,68,0,1,2,33,83,161.99296947033145,163.8314779944485,"[83, 0, 171]",171,l,1.3151178640546277,colour,0.5
67,68,0,1,2,34,84,164.35238270403352,166.09553619846702,"[92, 0, 162]",162,l,1.2198565694270656,colour,0.5
67,68,0,1,2,35,85,166.60234597802628,168.52748586190864,"[61, 0, 193]",193,l,1.401839020429179,colour,0.5
67,68,0,1,2,36,86,169.0398531903047,170.83945257100277,"[97, 0, 157]",157,l,1.2764493599534035,colour,0.5
67,68,0,1,2,37,87,171.35233189805876,174.12744277529418,"[55, 0, 199]",199,l,2.251728094066493,colour,0.5
67,68,0,1,2,38,88,174.64923560561147,176.7834993849974,"[43, 0, 211]",211,a,1.610950312926434,colour,0.5
67,68,0,1,2,39,89,177.29174315463752,179.70346217451151,"[23, 0, 231]",231,a,1.8890108932973817,colour,0.5
67,68,0,1,2,40,90,180.21360900392756,181.43143805861473,"[4, 0, 250]",250,a,0.6944828990381211,colour,0.5
67,68,0,1,2,41,91,181.94800732075237,184.0954590048641,"[15, 0, 239]",239,a,1.6241114360745996,colour,0.5
67,68,0,1,2,42,92,184.60426400380675,186.5914297720883,"[38, 0, 216]",216,a,1.4637790465494618,colour,0.5
67,68,0,1,2,43,93,187.10425080999266,189.11146132694557,"[32, 0, 222]",222,a,1.4839171365601942,colour,0.5
67,68,0,1,2,44,94,189.61985160701443,191.61540903383866,"[56, 0, 198]",198,l,1.472192760440521,colour,0.5
67,68,0,1,2,45,95,192.1354067180073,194.3674240440596,"[22, 0, 232]",232,a,1.7085821614600718,colour,0.5
67,68,0,1,2,46,96,194.8854406871833,196.59944097616244,"[94, 0, 160]",160,l,1.1908140345476568,colour,0.5
67,68,0,1,2,47,97,197.11978485027794,198.95941386395134,"[9, 0, 245]",245,a,1.3163021564250812,colour,0.5
67,68,0,1,2,48,98,199.4791634256253,201.5033671790734,"[42, 0, 212]",212,a,1.5008670500246808,colour,0.5
67,68,0,1,2,49,99,202.01063854503445,203.8314264008077,"[90, 0, 164]",164,l,1.2983428178122267,colour,0.5
67,68,0,1,2,50,100,204.3385244748788,206.1593521089526,"[75, 0, 179]",179,l,1.297543705906719,colour,0.5
67,68,0,1,3,1,101,212.13451662799343,215.06338228692766,"[95, 0, 159]",159,l,2.4013786155264825,colour,0.5
67,68,0,1,3,2,102,215.57616590964608,217.29541536676697,"[0, 0, 254]",254,a,1.193722187075764,colour,0.5
67,68,0,1,3,3,103,217.81271363643464,219.75135847041383,"[94, 0, 160]",160,l,1.4154262841911986,colour,0.5
67,68,0,1,3,4,104,220.26586280250922,222.51932657207362,"[89, 0, 165]",165,l,1.7301660568919033,colour,0.5
67,68,0,1,3,5,105,223.03133668284863,224.34330024116207,"[80, 0, 174]",174,l,0.7885740797501057,colour,0.5
67,68,0,1,3,6,106,224.85945557209197,226.58338312187698,"[4, 0, 250]",250,a,1.2005810003029183,colour,0.5
67,68,0,1,3,7,107,227.09384227055125,229.2713663945906,"[20, 0, 234]",234,a,1.6541137716267258,colour,0.5
67,68,0,1,3,8,108,229.78135292895604,231.5113433309598,"[31, 0, 223]",223,a,1.2066678770352155,colour,0.5
67,68,0,1,3,9,109,232.03124846157152,233.86332549445797,"[36, 0, 218]",218,a,1.30916765157599,colour,0.5
67,68,0,1,3,10,110,234.37509535974823,236.09531170676928,"[49, 0, 205]",205,a,1.1969383265823126,colour,0.5
67,68,0,1,3,11,111,236.60948245204054,238.2233109852532,"[9, 0, 245]",245,a,1.090542242047377,colour,0.5
67,68,0,1,3,12,112,238.734464876703,240.71928096481133,"[7, 0, 247]",247,a,1.4614754463545978,colour,0.5
67,68,0,1,3,13,113,241.23437212617137,242.57526085351128,"[55, 0, 199]",199,l,0.8175004302756861,colour,0.5
67,68,0,1,3,14,114,243.093728055479,245.08727411506698,"[98, 0, 156]",156,l,1.4701183780562133,colour,0.5
67,68,0,1,3,15,115,245.59376054769382,247.687285379041,"[18, 0, 236]",236,a,1.57019049115479,colour,0.5
67,68,0,1,3,16,116,248.20481365418527,250.1672849379247,"[30, 0, 224]",224,a,1.439535908633843,colour,0.5
67,68,0,1,3,17,117,250.67342990683392,252.1512688312214,"[63, 0, 191]",191,l,0.9547038697637618,colour,0.5
67,68,0,1,3,18,118,252.65777771302965,254.27129392698407,"[16, 0, 238]",238,a,1.0901527291862294,colour,0.5
67,68,0,1,3,19,119,254.78278534382116,256.97528739867266,"[69, 0, 185]",185,l,1.6691125762881711,colour,0.5
67,68,0,1,3,20,120,257.4858843930997,259.87125792959705,"[43, 0, 211]",211,a,1.862852880381979,colour,0.5
67,68,0,1,3,21,121,260.39213900838513,262.0552537170006,"[90, 0, 164]",164,l,1.139804786653258,colour,0.5
67,68,0,1,3,22,122,262.55467890005093,264.4472517288523,"[39, 0, 215]",215,a,1.3692057994194329,colour,0.5
67,68,0,1,3,23,123,264.96091205079574,266.79920592939015,"[96, 0, 158]",158,l,1.314840597100556,colour,0.5
67,68,0,1,3,24,124,267.32037569675595,269.0152937946841,"[72, 0, 182]",182,l,1.1716601635562256,colour,0.5
67,68,0,1,3,25,125,269.5235048752511,270.9672344470164,"[26, 0, 228]",228,a,0.9206445355666801,colour,0.5
67,68,0,1,3,26,126,271.4766396660125,273.21519698761404,"[37, 0, 217]",217,a,1.2152363720815629,colour,0.5
67,68,0,1,3,27,127,273.72657615842763,275.9671769455308,"[97, 0, 157]",157,l,1.7172676284098998,colour,0.5
67,68,0,1,3,28,128,276.477421448566,278.39921483036596,"[76, 0, 178]",178,l,1.3993050209246576,colour,0.5
67,68,0,1,3,29,129,278.91410158609506,280.6152097481536,"[99, 0, 155]",155,l,1.1778065109392628,colour,0.5
67,68,0,1,3,30,130,281.13280497689266,282.415154531016,"[27, 0, 227]",227,a,0.7590226968750358,colour,0.5
67,68,0,1,3,31,131,282.9296631955076,284.69519457721617,"[62, 0, 192]",192,a,1.2422269737580791,colour,0.5
67,68,0,1,3,32,132,285.21085563255474,287.1271568436641,"[1, 0, 253]",253,a,1.392864471185021,colour,0.5
67,68,0,1,3,33,133,287.6483407894848,289.4391530911671,"[23, 0, 231]",231,a,1.267405493883416,colour,0.5
67,68,0,1,3,34,134,289.9453650136711,291.11915509193204,"[48, 0, 206]",206,a,0.6505069377599284,colour,0.5
67,68,0,1,3,35,135,291.632767364732,293.7511351602152,"[67, 0, 187]",187,a,1.5950677196960896,colour,0.5
67,68,0,1,3,36,136,294.25777007243596,296.7911419500597,"[14, 0, 240]",240,l,2.0100749526172876,colour,0.5
67,68,0,1,3,37,137,297.30459944182076,299.35913439141586,"[77, 0, 177]",177,a,1.5311391695868224,colour,0.5
67,68,0,1,3,38,138,299.8671623339178,301.12716708367225,"[73, 0, 181]",181,l,0.7366975848563015,colour,0.5
67,68,0,1,3,39,139,301.6483801739523,302.8311412568437,"[70, 0, 184]",184,l,0.6594972409075126,colour,0.5
67,68,0,1,3,40,140,303.3514217218617,304.4631418051431,"[46, 0, 208]",208,a,0.5882754663471133,colour,0.5
67,68,0,1,3,41,141,304.9764961093897,307.2951759089483,"[53, 0, 201]",201,a,1.795396265340969,colour,0.5
67,68,0,1,3,42,142,307.8046268139733,308.42309326771647,"[93, 0, 161]",161,l,0.09521757788024843,colour,0.5
67,68,0,1,3,43,143,308.92958718328737,310.38310065621044,"[5, 0, 249]",249,a,0.9301397481467575,colour,0.5
67,68,0,1,3,44,144,310.8983237557113,311.4791457026731,"[24, 0, 230]",230,a,0.057492332882247865,colour,0.5
67,68,0,1,3,45,145,311.9824447465362,312.9431492409203,"[78, 0, 176]",176,l,0.4373796064173803,colour,0.5
67,68,0,1,3,46,146,313.4511988449376,315.53514339309186,"[38, 0, 216]",216,l,1.5605432542506605,colour,0.5
67,68,0,1,3,47,147,316.0449298542226,317.6551944827661,"[61, 0, 193]",193,l,1.0867794456426054,colour,0.5
67,68,0,1,3,48,148,318.1708728672238,319.65508814447094,"[84, 0, 170]",170,l,0.9608998416224495,colour,0.5
67,68,0,1,3,49,149,320.17279483145103,321.71129575453233,"[33, 0, 221]",221,a,1.0152969454647973,colour,0.5
67,68,0,1,3,50,150,322.219588360982,324.00710496644024,"[88, 0, 166]",166,l,1.2645217597018927,colour,0.5
67,68,0,1,4,1,151,330.91268689429853,332.88706332910806,"[92, 0, 162]",162,l,1.4610595458652824,colour,0.5
67,68,0,1,4,2,152,333.4026491600089,334.439025091473,"[28, 0, 226]",226,a,0.5133799042087048,colour,0.5
67,68,0,1,4,3,153,334.94944840017706,336.3990269661881,"[80, 0, 174]",174,l,0.926151278312318,colour,0.5
67,68,0,1,4,4,154,336.9182129355613,338.02304309175815,"[34, 0, 220]",220,a,0.5814524929737672,colour,0.5
67,68,0,1,4,5,155,338.5445046983659,339.6630327887833,"[83, 0, 171]",171,l,0.5951953255571425,colour,0.5
67,68,0,1,4,6,156,340.17142306885216,341.7510591481114,"[30, 0, 224]",224,a,1.0562741698231548,colour,0.5
67,68,0,1,4,7,157,342.26520547491964,343.77502777590416,"[55, 0, 199]",199,l,0.9865076530259103,colour,0.5
67,68,0,1,4,8,158,344.2964397580363,345.36699632823,"[68, 0, 186]",186,l,0.5471926915924996,colour,0.5
67,68,0,1,4,9,159,345.8745252689114,347.4790149460314,"[33, 0, 221]",221,a,1.0814377238275483,colour,0.5
67,68,0,1,4,10,160,347.99952581047546,349.49498497287277,"[86, 0, 168]",168,l,0.9720736222807318,colour,0.5
67,68,0,1,4,11,161,350.01518273039255,351.56703027768526,"[35, 0, 219]",219,a,1.0284982409793884,colour,0.5
67,68,0,1,4,12,162,352.0776048229309,354.12702766247094,"[50, 0, 204]",204,a,1.5260526593774557,colour,0.5
67,68,0,1,4,13,163,354.64013896428514,356.7589974908624,"[39, 0, 215]",215,a,1.5957262287847698,colour,0.5
67,68,0,1,4,14,164,357.26514324743766,358.43897074088454,"[75, 0, 179]",179,l,0.6505191470496356,colour,0.5
67,68,0,1,4,15,165,358.9525944351917,360.6469619376585,"[90, 0, 164]",164,l,1.1709516362752765,colour,0.5
67,68,0,1,4,16,166,361.15573109674733,362.8389756245306,"[8, 0, 246]",246,a,1.1602981250034645,colour,0.5
67,68,0,1,4,17,167,363.35884333983995,365.1429508217843,"[70, 0, 184]",184,l,1.2608030738774687,colour,0.5
67,68,0,1,4,18,168,365.65373371110763,367.01494996785186,"[56, 0, 198]",198,l,0.8379083041800186,colour,0.5
67,68,0,1,4,19,169,367.523535201326,369.44694807427004,"[17, 0, 237]",237,a,1.4004562301561236,colour,0.5
67,68,0,1,4,20,170,369.96095537382644,371.52695968479384,"[74, 0, 180]",180,l,1.0426841491134837,colour,0.5
67,68,0,1,4,21,171,372.03910330915824,373.7590041861404,"[99, 0, 155]",155,l,1.1966949303168803,colour,0.5
67,68,0,1,4,22,172,374.27345022920053,375.7909036737401,"[79, 0, 175]",175,l,0.9927930276608095,colour,0.5
67,68,0,1,4,23,173,376.3040011910489,381.6869545490481,"[21, 0, 233]",233,l,4.859636346925981,colour,0.5
67,68,0,1,4,24,174,382.1950644113822,383.8309793865774,"[98, 0, 156]",156,l,1.113042221404612,colour,0.5
67,68,0,1,4,25,175,384.35082465270534,385.9109118342167,"[37, 0, 217]",217,a,1.036753628985025,colour,0.5
67,68,0,1,4,26,176,386.4289501388557,387.95092531945556,"[65, 0, 189]",189,a,0.9986676218686625,colour,0.5
67,68,0,1,4,27,177,388.46013952360954,389.74290970433503,"[45, 0, 209]",209,a,0.7594374158652499,colour,0.5
67,68,0,1,4,28,178,390.25705563731026,391.42292155115865,"[32, 0, 222]",222,a,0.6427765452535823,colour,0.5
67,68,0,1,4,29,179,391.9339021507185,393.2788860799046,"[22, 0, 232]",232,a,0.8216684934450313,colour,0.5
67,68,0,1,4,30,180,393.79330967378337,394.99908667313866,"[2, 0, 252]",252,a,0.6825249727116898,colour,0.5
67,68,0,1,4,31,181,395.51201286772266,396.9669059801381,"[25, 0, 229]",229,a,0.9315867351833731,colour,0.5
67,68,0,1,4,32,182,397.4807525908109,398.67095813469496,"[89, 0, 165]",165,l,0.6669180712196976,colour,0.5
67,68,0,1,4,33,183,399.1838878738927,400.7509287853027,"[64, 0, 190]",190,a,1.0467072773026302,colour,0.5
67,68,0,1,4,34,184,401.2591890965123,402.6868761739461,"[19, 0, 235]",235,a,0.9044425338506699,colour,0.5
67,68,0,1,4,35,185,403.19654172461014,404.4789349954808,"[41, 0, 213]",213,a,0.7589557432802394,colour,0.5
67,68,0,1,4,36,186,404.9935673272703,406.84688009659294,"[61, 0, 193]",193,a,1.3300276597728953,colour,0.5
67,68,0,1,4,37,187,407.3685197212035,408.82283033663407,"[54, 0, 200]",200,a,0.9310365334386006,colour,0.5
67,68,0,1,4,38,188,409.3372456597863,410.75883207586594,"[69, 0, 185]",185,a,0.898339509498328,colour,0.5
67,68,0,1,4,39,189,411.2747227428481,427.3748456619214,"[46, 0, 208]",208,l,15.576889009331353,colour,0.5
67,68,0,1,4,40,190,427.8840578967938,429.72682940086816,"[5, 0, 249]",249,a,1.319491908303462,colour,0.5
67,68,0,1,4,41,191,430.24338487850036,431.3268016742077,"[38, 0, 216]",216,a,0.5601462583290413,colour,0.5
67,68,0,1,4,42,192,431.83907881192863,432.98282992700115,"[49, 0, 205]",205,a,0.6205762820318341,colour,0.5
67,68,0,1,4,43,193,433.4952898089541,434.5587512588827,"[53, 0, 201]",201,a,0.5400735466973856,colour,0.5
67,68,0,1,4,44,194,435.07346157194115,436.1107862764038,"[43, 0, 211]",211,a,0.5143176495330408,colour,0.5
67,68,0,1,4,45,195,436.62031319353264,437.73480082664173,"[36, 0, 218]",218,a,0.5912489972542971,colour,0.5
67,68,0,1,4,46,196,438.2452966028359,439.30280508333817,"[6, 0, 248]",248,a,0.5341331803938374,colour,0.5
67,68,0,1,4,47,197,439.8234010182787,441.14279722212814,"[62, 0, 192]",192,l,0.7963308598846197,colour,0.5
67,68,0,1,4,48,198,441.65149785217363,442.2948970666621,"[88, 0, 166]",166,l,0.12047683622222394,colour,0.5
67,68,0,1,4,49,199,442.8077598521486,445.20676279382315,"[57, 0, 197]",197,l,1.875656392192468,colour,0.5
67,68,0,1,4,50,200,445.71399241220206,553.3266145976959,"[9, 0, 245]",245,l,107.09856053534895,colour,0.5
67,68,0,1,5,1,201,558.6721629069652,560.1904264909681,"[7, 0, 247]",247,a,0.9943601374980062,colour,0.5
67,68,0,1,5,2,202,560.7042002403177,562.3264995949576,"[93, 0, 161]",161,l,1.0990303927101195,colour,0.5
67,68,0,1,5,3,203,562.845349220559,563.5504387632245,"[64, 0, 190]",190,l,0.18223451194353402,colour,0.5
67,68,0,1,5,4,204,564.0636185940821,564.8703619318549,"[3, 0, 251]",251,a,0.2835771694080904,colour,0.5
67,68,0,1,5,5,205,565.3916116497712,565.9584674540674,"[11, 0, 243]",243,a,0.04350531636737287,colour,0.5
67,68,0,1,5,6,206,566.4697572219884,567.16643620166,"[61, 0, 193]",193,l,0.1736313586588949,colour,0.5
67,68,0,1,5,7,207,567.6729060927173,568.8864493245492,"[79, 0, 175]",175,l,0.6904325955547392,colour,0.5
67,68,0,1,5,8,208,569.4072937758174,570.8224573653424,"[50, 0, 204]",204,l,0.8919442520709708,colour,0.5
67,68,0,1,5,9,209,571.3290698283818,571.9504590068245,"[44, 0, 210]",210,a,0.09800206299405545,colour,0.5
67,68,0,1,5,10,210,572.4697611605516,573.0944090137491,"[51, 0, 203]",203,a,0.1012973653851077,colour,0.5
67,68,0,1,5,11,211,573.6102764438838,574.2144624664215,"[59, 0, 195]",195,a,0.08081347937695682,colour,0.5
67,68,0,1,5,12,212,574.7354250712087,575.3664532157127,"[94, 0, 160]",160,l,0.10773870267439634,colour,0.5
67,68,0,1,5,13,213,575.8760246373713,576.4304392673075,"[37, 0, 217]",217,a,0.03115551406517625,colour,0.5
67,68,0,1,5,14,214,576.938453425304,577.6304724290967,"[72, 0, 182]",182,a,0.1687398018548265,colour,0.5
67,68,0,1,5,15,215,578.141603083699,579.7344164337264,"[58, 0, 196]",196,l,1.0694687698269263,colour,0.5
67,68,0,1,5,16,216,580.2509498560103,581.3024076935835,"[77, 0, 177]",177,l,0.5281191649846733,colour,0.5
67,68,0,1,5,17,217,581.813499751268,582.4384343237616,"[23, 0, 231]",231,a,0.10177234257571399,colour,0.5
67,68,0,1,5,18,218,582.9540351207834,583.822466817568,"[55, 0, 199]",199,a,0.3450827843043953,colour,0.5
67,68,0,1,5,19,219,584.3197542091366,584.9983789334074,"[81, 0, 173]",173,l,0.1552706917282194,colour,0.5
67,68,0,1,5,20,220,585.5072678213473,586.1664645584533,"[31, 0, 223]",223,a,0.1359896088251844,colour,0.5
67,68,0,1,5,21,221,586.6791197876446,587.7824218247551,"[87, 0, 167]",167,l,0.5799921152647585,colour,0.5
67,68,0,1,5,22,222,588.2885014152853,589.5025050520198,"[71, 0, 183]",183,l,0.690779967000708,colour,0.5
67,68,0,1,5,23,223,590.0228642860893,591.1824495514156,"[16, 0, 238]",238,a,0.6365108628524467,colour,0.5
67,68,0,1,5,24,224,591.6948456304381,592.7984083930496,"[10, 0, 244]",244,l,0.5802902560681105,colour,0.5
67,68,0,1,5,25,225,593.3196911938721,595.230361601105,"[14, 0, 240]",240,a,1.3873959314078093,colour,0.5
67,68,0,1,5,26,226,595.7416285260115,596.8223577224417,"[29, 0, 225]",225,a,0.5574783512856811,colour,0.5
67,68,0,1,5,27,227,597.3235016457038,598.4543775691418,"[0, 0, 254]",254,a,0.6079566959524527,colour,0.5
67,68,0,1,5,28,228,598.9640541473636,600.4143762930762,"[8, 0, 246]",246,a,0.92708705435507,colour,0.5
67,68,0,1,5,29,229,600.932812775136,602.9584032573039,"[9, 0, 245]",245,a,1.5023652371019125,colour,0.5
67,68,0,1,5,30,230,603.4672929330263,604.6383552396437,"[24, 0, 230]",230,a,0.6476814927300438,colour,0.5
67,68,0,1,5,31,231,605.1547996529844,606.2863514146302,"[53, 0, 201]",201,a,0.608227661345154,colour,0.5
67,68,0,1,5,32,232,606.7959882145515,607.942378879874,"[27, 0, 227]",227,a,0.622969679068774,colour,0.5
67,68,0,1,5,33,233,608.4522456853883,609.5023888677824,"[30, 0, 224]",224,a,0.5267450392711908,colour,0.5
67,68,0,1,5,34,234,610.0148562327959,611.0144214277389,"[2, 0, 252]",252,a,0.47630529140587896,colour,0.5
67,68,0,1,5,35,235,611.5304223713465,616.1583336254116,"[68, 0, 186]",186,l,4.1047127903439105,colour,0.5
67,68,0,1,5,36,236,616.6623163844924,618.1503176952247,"[42, 0, 212]",212,a,0.964726047241129,colour,0.5
67,68,0,1,5,37,237,618.6622915721964,619.7903030598536,"[78, 0, 176]",176,l,0.6046972334152088,colour,0.5
67,68,0,1,5,38,238,620.3028854277218,622.2943606495392,"[95, 0, 159]",159,l,1.4680853494210169,colour,0.5
67,68,0,1,5,39,239,622.7904086103663,624.4622859796509,"[17, 0, 237]",237,a,1.1486497609876096,colour,0.5
67,68,0,1,5,40,240,624.9779942963505,626.822378990124,"[52, 0, 202]",202,a,1.3210361751262099,colour,0.5
67,68,0,1,5,41,241,627.3373023734894,628.5262633665698,"[67, 0, 187]",187,l,0.665656978962943,colour,0.5
67,68,0,1,5,42,242,629.0403880319791,630.7103308339138,"[66, 0, 188]",188,l,1.1468349226051942,colour,0.5
67,68,0,1,5,43,243,631.2279619026231,632.454301163205,"[74, 0, 180]",180,l,0.7033164518652484,colour,0.5
67,68,0,1,5,44,244,632.9623680963414,634.382326750434,"[73, 0, 181]",181,l,0.8967775196069852,colour,0.5
67,68,0,1,5,45,245,634.8997372658923,636.3662803177722,"[46, 0, 208]",208,a,0.943132305634208,colour,0.5
67,68,0,1,5,46,246,636.8841071274364,638.7422519829124,"[26, 0, 228]",228,a,1.3348026382736862,colour,0.5
67,68,0,1,5,47,247,639.2590961490059,640.7422673428664,"[13, 0, 241]",241,a,0.9641636363230646,colour,0.5
67,68,0,1,5,48,248,641.2547477047192,643.0062581993407,"[45, 0, 209]",209,a,1.2281643389724195,colour,0.5
67,68,0,1,5,49,249,643.522302072146,644.9182771323249,"[39, 0, 215]",215,a,0.8728037717519328,colour,0.5
67,68,0,1,5,50,250,645.4285306937527,646.9822218301706,"[88, 0, 166]",166,l,1.0303749130107462,colour,0.5
67,68,0,1,6,1,251,653.0995534190442,654.2063012073049,"[14, 0, 240]",240,a,0.5826064593857154,colour,0.5
67,68,0,1,6,2,252,654.7253418477485,656.1102128378116,"[52, 0, 202]",202,a,0.8615973019041121,colour,0.5
67,68,0,1,6,3,253,656.6315779524157,658.3182296345476,"[81, 0, 173]",173,l,1.1633118280442432,colour,0.5
67,68,0,1,6,4,254,658.8346791678341,660.6782875928329,"[68, 0, 186]",186,l,1.320267389412038,colour,0.5
67,68,0,1,6,5,255,661.1941014600452,663.238213297911,"[86, 0, 168]",168,l,1.52084878354799,colour,0.5
67,68,0,1,6,6,256,663.7564780634129,665.9021877704654,"[94, 0, 160]",160,l,1.6321699017426,colour,0.5
67,68,0,1,6,7,257,666.4184391995659,667.694276524242,"[15, 0, 239]",239,a,0.7525396120036021,colour,0.5
67,68,0,1,6,8,258,668.215306082624,669.8862543711439,"[84, 0, 170]",170,l,1.1476234004367143,colour,0.5
67,68,0,1,6,9,259,670.402880740934,672.2702285759151,"[27, 0, 227]",227,a,1.3440154639538378,colour,0.5
67,68,0,1,6,10,260,672.7778414057102,674.5661720890785,"[32, 0, 222]",222,a,1.2649794077733532,colour,0.5
67,68,0,1,6,11,261,675.0747041533468,676.7261468672659,"[93, 0, 161]",161,l,1.128158391918987,colour,0.5
67,68,0,1,6,12,262,677.2465840826044,679.1981694865972,"[78, 0, 176]",176,l,1.428252245299518,colour,0.5
67,68,0,1,6,13,263,679.7152499597287,681.0221360664582,"[26, 0, 228]",228,a,0.7835683079902083,colour,0.5
67,68,0,1,6,14,264,681.5448969681747,683.110228591715,"[67, 0, 187]",187,l,1.0419165450148284,colour,0.5
67,68,0,1,6,15,265,683.6230110328179,685.1261426925194,"[41, 0, 213]",213,a,0.9799769128439948,colour,0.5
67,68,0,1,6,16,266,685.6386305374326,687.6941174108069,"[19, 0, 235]",235,a,1.5321848284220323,colour,0.5
67,68,0,1,6,17,267,688.2011272636009,689.9181227450026,"[16, 0, 238]",238,a,1.1936367227463052,colour,0.5
67,68,0,1,6,18,268,690.4355305035133,692.0781506922795,"[17, 0, 237]",237,a,1.119274033117108,colour,0.5
67,68,0,1,6,19,269,692.5917105836561,694.2621472673491,"[28, 0, 226]",226,a,1.1470609896350652,colour,0.5
67,68,0,1,6,20,270,694.7791509407107,696.054139135289,"[59, 0, 195]",195,l,0.7514931653859094,colour,0.5
67,68,0,1,6,21,271,696.5604955989402,697.8381276759319,"[75, 0, 179]",179,l,0.7543040382442996,colour,0.5
67,68,0,1,6,22,272,698.3573502729414,699.6460923275445,"[35, 0, 219]",219,a,0.7653813267825171,colour,0.5
67,68,0,1,6,23,273,700.1543483063579,701.358244695235,"[31, 0, 223]",223,a,0.680682959035039,colour,0.5
67,68,0,1,6,24,274,701.872977851308,703.7021242826013,"[90, 0, 164]",164,l,1.3059810505947098,colour,0.5
67,68,0,1,6,25,275,704.2166908421787,707.0861043949844,"[82, 0, 172]",172,l,2.3460193480132148,colour,0.5
67,68,0,1,6,26,276,707.6073584451806,709.902079069172,"[13, 0, 241]",241,a,1.7713260254822671,colour,0.5
67,68,0,1,6,27,277,710.4199161188444,712.5821212420706,"[29, 0, 225]",225,a,1.6389924810500816,colour,0.5
67,68,0,1,6,28,278,713.0916615499882,714.9580740027595,"[21, 0, 233]",233,a,1.3431068632053211,colour,0.5
67,68,0,1,6,29,279,715.4573349523125,716.9420960990246,"[83, 0, 171]",171,l,0.9613492189673707,colour,0.5
67,68,0,1,6,30,280,717.4573664598865,719.134106635116,"[54, 0, 200]",200,a,1.1533924442483112,colour,0.5
67,68,0,1,6,31,281,719.6447725524195,721.1900350089418,"[49, 0, 205]",205,a,1.0218335933750495,colour,0.5
67,68,0,1,6,32,282,721.7073403677205,723.3260959036415,"[44, 0, 210]",210,a,1.0953731465851888,colour,0.5
67,68,0,1,6,33,283,723.8323007370345,725.1500345205422,"[92, 0, 162]",162,l,0.7944341016700491,colour,0.5
67,68,0,1,6,34,284,725.6604389246786,727.4540384684224,"[70, 0, 184]",184,a,1.2707878360524774,colour,0.5
67,68,0,1,6,35,285,727.9729290539399,729.6540885654977,"[51, 0, 203]",203,a,1.1580130354268476,colour,0.5
67,68,0,1,6,36,286,730.160432820092,731.8540177522227,"[39, 0, 215]",215,a,1.1702301119221374,colour,0.5
67,68,0,1,6,37,287,732.363567906199,734.5180237323511,"[25, 0, 229]",229,a,1.6316319091711193,colour,0.5
67,68,0,1,6,38,288,735.0385263259523,736.7660138420761,"[20, 0, 234]",234,a,1.2041799572762102,colour,0.5
67,68,0,1,6,39,289,737.272842526203,738.9420326899271,"[36, 0, 218]",218,a,1.1460302969207987,colour,0.5
67,68,0,1,6,40,290,739.460423879791,741.1980292776134,"[22, 0, 232]",232,a,1.2143454942852259,colour,0.5
67,68,0,1,6,41,291,741.7104478059337,743.4947021920234,"[4, 0, 250]",250,a,1.2609113813377917,colour,0.5
67,68,0,1,6,42,292,744.0071148126153,745.7580873146653,"[69, 0, 185]",185,l,1.2274506915127859,colour,0.5
67,68,0,1,6,43,293,746.2729433504865,748.3980033627013,"[65, 0, 189]",189,l,1.60190211457666,colour,0.5
67,68,0,1,6,44,294,748.9134789168602,750.4780287578469,"[55, 0, 199]",199,a,1.0412714267149568,colour,0.5
67,68,0,1,6,45,295,750.9915532032028,752.525991219678,"[46, 0, 208]",208,a,1.011090679327026,colour,0.5
67,68,0,1,6,46,296,753.0384759138105,754.7579573458061,"[80, 0, 174]",174,l,1.196266820654273,colour,0.5
67,68,0,1,6,47,297,755.2756868758006,757.1580331216101,"[96, 0, 158]",158,l,1.3591481759212911,colour,0.5
67,68,0,1,6,48,298,757.6663343926193,759.3339602035703,"[33, 0, 221]",221,a,1.1416314404923469,colour,0.5
67,68,0,1,6,49,299,759.8408089736477,761.8459829173516,"[74, 0, 180]",180,a,1.4817746189655736,colour,0.5
67,68,0,1,6,50,300,762.3564507305855,764.0300988275558,"[53, 0, 201]",201,a,1.1505914175650105,colour,0.5
67,68,0,1,7,1,301,769.2150154249975,774.3099238342838,"[26, 0, 228]",228,a,4.570827732561156,colour,0.5
67,68,0,1,7,2,302,774.8251930136466,776.9979319191771,"[6, 0, 248]",248,a,1.64950420812238,colour,0.5
67,68,0,1,7,3,303,777.512578823138,779.7099054810824,"[25, 0, 229]",229,a,1.674281399929896,colour,0.5
67,68,0,1,7,4,304,780.2181941490853,781.8299802014371,"[53, 0, 201]",201,a,1.088726615998894,colour,0.5
67,68,0,1,7,5,305,782.3432104444364,784.7339004966198,"[16, 0, 238]",238,a,1.8672989981714636,colour,0.5
67,68,0,1,7,6,306,785.2493945615133,787.5739316261606,"[17, 0, 237]",237,a,1.8011448291363195,colour,0.5
67,68,0,1,7,7,307,788.0931774599012,791.4779188750545,"[52, 0, 202]",202,a,2.8612999489996582,colour,0.5
67,68,0,1,7,8,308,791.9994021430612,794.7018757662736,"[23, 0, 231]",231,a,2.1791562183061615,colour,0.5
67,68,0,1,7,9,309,795.218156733783,796.5818837534171,"[94, 0, 160]",160,l,0.840732567710802,colour,0.5
67,68,0,1,7,10,310,797.0931132631376,798.949873752892,"[13, 0, 241]",241,a,1.3333859771955758,colour,0.5
67,68,0,1,7,11,311,799.4680885002017,801.4218605323695,"[21, 0, 233]",233,a,1.4284397155279294,colour,0.5
67,68,0,1,7,12,312,801.9388208828168,804.045838061138,"[3, 0, 251]",251,a,1.5838277731090784,colour,0.5
67,68,0,1,7,13,313,804.5638889687834,806.1898735323921,"[44, 0, 210]",210,a,1.102784524555318,colour,0.5
67,68,0,1,7,14,314,806.7045803009532,808.3418504971778,"[54, 0, 200]",200,a,1.113979572779499,colour,0.5
67,68,0,1,7,15,315,808.8608946822351,810.8538645463996,"[95, 0, 159]",159,l,1.4696453700307757,colour,0.5
67,68,0,1,7,16,316,811.3607759379083,813.3899862508988,"[76, 0, 178]",178,l,1.5057771175634116,colour,0.5
67,68,0,1,7,17,317,813.9083597176941,815.5898319423432,"[34, 0, 220]",220,a,1.1582103519467637,colour,0.5
67,68,0,1,7,18,318,816.1115692405729,817.9978637839667,"[36, 0, 218]",218,a,1.3629921046085656,colour,0.5
67,68,0,1,7,19,319,818.5177507976769,819.7418459285982,"[47, 0, 207]",207,a,0.7007785136811435,colour,0.5
67,68,0,1,7,20,320,820.2520790101262,822.0857715958264,"[18, 0, 236]",236,a,1.3103673039004207,colour,0.5
67,68,0,1,7,21,321,822.5957738840953,824.3177652911982,"[71, 0, 183]",183,l,1.1985550610115752,colour,0.5
67,68,0,1,7,22,322,824.8302503791638,826.9258306883276,"[90, 0, 164]",164,l,1.5722443935228512,colour,0.5
67,68,0,1,7,23,323,827.439587108558,829.8377535230247,"[38, 0, 216]",216,a,1.8750404183520004,colour,0.5
67,68,0,1,7,24,324,830.3458598407451,832.045765987481,"[46, 0, 208]",208,a,1.1772842722712085,colour,0.5
67,68,0,1,7,25,325,832.564592770068,834.3818281425629,"[56, 0, 198]",198,a,1.293975075124763,colour,0.5
67,68,0,1,7,26,326,834.892758723814,837.2297968270723,"[80, 0, 174]",174,l,1.8137305445270613,colour,0.5
67,68,0,1,7,27,327,837.7364955422236,840.0298160467064,"[68, 0, 186]",186,l,1.7699838010594249,colour,0.5
67,68,0,1,7,28,328,840.548952785437,843.1337537498912,"[75, 0, 179]",179,l,2.061465442646295,colour,0.5
67,68,0,1,7,29,329,843.6426607548492,845.2697831370169,"[24, 0, 230]",230,a,1.1036706761224195,colour,0.5
67,68,0,1,7,30,330,845.7833292438881,847.573723675916,"[65, 0, 189]",189,a,1.2670876608463004,colour,0.5
67,68,0,1,7,31,331,848.0801081026439,849.9417625122005,"[84, 0, 170]",170,l,1.3382964385673404,colour,0.5
67,68,0,1,7,32,332,850.4551987362793,851.9817488221452,"[0, 0, 254]",254,a,1.0033453206997365,colour,0.5
67,68,0,1,7,33,333,852.5020450409502,854.1577211961849,"[5, 0, 249]",249,a,1.132375685730949,colour,0.5
67,68,0,1,7,34,334,854.6738584103296,856.4137299931608,"[4, 0, 250]",250,a,1.216503371950239,colour,0.5
67,68,0,1,7,35,335,856.9238484656671,859.1097150176065,"[82, 0, 172]",172,l,1.6625243347370997,colour,0.5
67,68,0,1,7,36,336,859.6269447581144,861.3978410984855,"[27, 0, 227]",227,a,1.2475753908511251,colour,0.5
67,68,0,1,7,37,337,861.9082210841589,863.6296638649656,"[64, 0, 190]",190,l,1.1980777205899358,colour,0.5
67,68,0,1,7,38,338,864.1426164471777,866.0376563221216,"[51, 0, 203]",203,a,1.3721635765396059,colour,0.5
67,68,0,1,7,39,339,866.5488460534252,868.1656717482256,"[60, 0, 194]",194,a,1.093525619013235,colour,0.5
67,68,0,1,7,40,340,868.6738288719207,870.5576922092587,"[43, 0, 211]",211,a,1.360558535438031,colour,0.5
67,68,0,1,7,41,341,871.0644767826889,872.5417013086844,"[74, 0, 180]",180,l,0.9539882532553747,colour,0.5
67,68,0,1,7,42,342,873.0488446749514,874.8537235498661,"[30, 0, 224]",224,a,1.281612275983207,colour,0.5
67,68,0,1,7,43,343,875.3613257458201,876.7576662942301,"[72, 0, 182]",182,l,0.8729837590362877,colour,0.5
67,68,0,1,7,44,344,877.2675004105549,878.869685699814,"[93, 0, 161]",161,l,1.0788808811921626,colour,0.5
67,68,0,1,7,45,345,879.3776179379784,881.06165842677,"[32, 0, 222]",222,a,1.1607829483691603,colour,0.5
67,68,0,1,7,46,346,881.5807199410629,883.7576639311155,"[81, 0, 173]",173,l,1.6536317050922662,colour,0.5
67,68,0,1,7,47,347,884.2681624642573,886.3576610167511,"[96, 0, 158]",158,l,1.5661571229575202,colour,0.5
67,68,0,1,7,48,348,886.877552362741,889.1417133603245,"[14, 0, 240]",240,a,1.7407691560219973,colour,0.5
67,68,0,1,7,49,349,889.6609233542113,891.2537071659463,"[55, 0, 199]",199,a,1.069457742269151,colour,0.5
67,68,0,1,7,50,350,891.7702839111444,893.3895880734781,"[59, 0, 195]",195,a,1.0963431872660294,colour,0.5
67,68,0,1,8,1,351,910.5349996396108,912.2055406923173,"[4, 0, 250]",250,a,1.144236332271248,colour,0.5
67,68,0,1,8,2,352,912.7255088380771,913.9576206869679,"[34, 0, 220]",220,a,0.7088212254457176,colour,0.5
67,68,0,1,8,3,353,914.4754506474128,916.2135711947922,"[56, 0, 198]",198,a,1.2147417025407776,colour,0.5
67,68,0,1,8,4,354,916.7275127221365,918.045560400351,"[93, 0, 161]",161,l,0.7945494983578101,colour,0.5
67,68,0,1,8,5,355,918.5556615436217,920.7895504218759,"[33, 0, 221]",221,a,1.7107683958020061,colour,0.5
67,68,0,1,8,6,356,921.3056604606099,923.1815535536734,"[55, 0, 199]",199,a,1.3527253493666649,colour,0.5
67,68,0,1,8,7,357,923.6963725680253,925.4855897969101,"[6, 0, 248]",248,a,1.2659533869009465,colour,0.5
67,68,0,1,8,8,358,925.9931573343929,927.6135839553317,"[94, 0, 160]",160,l,1.0956929487874731,colour,0.5
67,68,0,1,8,9,359,928.1350884911371,930.0375409254339,"[41, 0, 213]",213,a,1.379153146292083,colour,0.5
67,68,0,1,8,10,360,930.5569769864669,932.0295080598444,"[81, 0, 173]",173,l,0.9491419886471704,colour,0.5
67,68,0,1,8,11,361,932.5413173096022,934.301489640493,"[74, 0, 180]",180,l,1.2368706797715276,colour,0.5
67,68,0,1,8,12,362,934.8225601589074,936.20556589833,"[16, 0, 238]",238,a,0.8583701348397881,colour,0.5
67,68,0,1,8,13,363,936.7144599063322,938.7335302821593,"[66, 0, 188]",188,l,1.4956919248215854,colour,0.5
67,68,0,1,8,14,364,939.2457231371664,941.5575189173687,"[49, 0, 205]",205,a,1.7883342279819772,colour,0.5
67,68,0,1,8,15,365,942.0738632939756,944.3334954662714,"[97, 0, 157]",157,l,1.7363352472893894,colour,0.5
67,68,0,1,8,16,366,944.8550657741725,946.8055350208888,"[99, 0, 155]",155,l,1.427152629592456,colour,0.5
67,68,0,1,8,17,367,947.3238817062229,949.0454450036632,"[70, 0, 184]",184,l,1.1983061507344246,colour,0.5
67,68,0,1,8,18,368,949.5582408355549,951.2534948834218,"[78, 0, 176]",176,l,1.1719697259832174,colour,0.5
67,68,0,1,8,19,369,951.7614007338416,954.3015077573946,"[61, 0, 193]",193,a,2.0168250646675006,colour,0.5
67,68,0,1,8,20,370,954.808207654045,957.3255354620051,"[17, 0, 237]",237,a,1.9939985875971615,colour,0.5
67,68,0,1,8,21,371,957.8393804973457,961.4214383303188,"[51, 0, 203]",203,a,3.058921203017235,colour,0.5
67,68,0,1,8,22,372,961.9331262757769,963.85342068295,"[31, 0, 223]",223,a,1.3969923622207716,colour,0.5
67,68,0,1,8,23,373,964.3613926994149,966.7814222456655,"[40, 0, 214]",214,a,1.8967334089102224,colour,0.5
67,68,0,1,8,24,374,967.2988756903214,969.1733970206697,"[20, 0, 234]",234,a,1.3512472484726459,colour,0.5
67,68,0,1,8,25,375,969.6894172627944,971.4854109912412,"[72, 0, 182]",182,l,1.272841738536954,colour,0.5
67,68,0,1,8,26,376,972.0019609549781,973.8774523260072,"[75, 0, 179]",179,l,1.3521377323195338,colour,0.5
67,68,0,1,8,27,377,974.3925812965026,976.2854703830089,"[73, 0, 181]",181,l,1.3694870048202574,colour,0.5
67,68,0,1,8,28,378,976.7987896350678,978.9254529908067,"[5, 0, 249]",249,a,1.6032833294011652,colour,0.5
67,68,0,1,8,29,379,979.4394031828269,981.5414059248287,"[83, 0, 171]",171,l,1.5788787150522694,colour,0.5
67,68,0,1,8,30,380,982.0487592106219,984.6053718902403,"[84, 0, 170]",170,l,2.0332149303285405,colour,0.5
67,68,0,1,8,31,381,985.1269870965043,986.9573757152539,"[64, 0, 190]",190,a,1.3071212321519852,colour,0.5
67,68,0,1,8,32,382,987.4706941796467,989.7974245678633,"[2, 0, 252]",252,a,1.8034488231642172,colour,0.5
67,68,0,1,8,33,383,990.3144010659307,992.1333500585752,"[69, 0, 185]",185,l,1.2955473049078137,colour,0.5
67,68,0,1,8,34,384,992.6424736783374,994.2773398439167,"[68, 0, 186]",186,a,1.1115168591495603,colour,0.5
67,68,0,1,8,35,385,994.7987100783503,996.9173838915303,"[48, 0, 206]",206,a,1.595293786842376,colour,0.5
67,68,0,1,8,36,386,997.4237190876156,999.9413296763087,"[23, 0, 231]",231,a,1.9942801869474351,colour,0.5
67,68,0,1,8,37,387,1000.4550002382603,1002.0853497876087,"[7, 0, 247]",247,a,1.1071853501489386,colour,0.5
67,68,0,1,8,38,388,1002.5955521492288,1004.6053202965995,"[32, 0, 222]",222,a,1.486406237934716,colour,0.5
67,68,0,1,8,39,389,1005.1267870231532,1007.0693454963621,"[91, 0, 163]",163,l,1.4192643051501364,colour,0.5
67,68,0,1,8,40,390,1007.5799235862214,1009.1093408646993,"[57, 0, 197]",197,a,1.0061365012079477,colour,0.5
67,68,0,1,8,41,391,1009.6267407463165,1011.2773894683924,"[8, 0, 246]",246,a,1.1265192084247246,colour,0.5
67,68,0,1,8,42,392,1011.7836419569794,1014.1253648482962,"[52, 0, 202]",202,a,1.8307403224753216,colour,0.5
67,68,0,1,8,43,393,1014.6463530530455,1016.5573334163055,"[27, 0, 227]",227,a,1.3876928905956447,colour,0.5
67,68,0,1,8,44,394,1017.0689748880686,1018.5573464131448,"[11, 0, 243]",243,a,0.9658347212243825,colour,0.5
67,68,0,1,8,45,395,1019.0681395424763,1020.6932938805548,"[43, 0, 211]",211,a,1.1025675159180537,colour,0.5
67,68,0,1,8,46,396,1021.2087509240955,1022.9412812334485,"[46, 0, 208]",208,a,1.209162886138074,colour,0.5
67,68,0,1,8,47,397,1023.4588201423176,1025.0612673385767,"[35, 0, 219]",219,a,1.0791195513447747,colour,0.5
67,68,0,1,8,48,398,1025.5682102376595,1027.445351426024,"[29, 0, 225]",225,a,1.3538867986062542,colour,0.5
67,68,0,1,8,49,399,1027.9588321546325,1029.5093248746125,"[87, 0, 167]",167,l,1.027219425770454,colour,0.5
67,68,0,1,8,50,400,1030.0088599404553,1031.509378437535,"[42, 0, 212]",212,a,0.9772318120812997,colour,0.5
67,68,0,1,9,1,401,1036.4491776316427,1041.5652524606558,"[40, 0, 214]",214,l,4.5919500414747745,colour,0.5
67,68,0,1,9,2,402,1042.076706068241,1043.2692321477225,"[52, 0, 202]",202,a,0.6690846133278683,colour,0.5
67,68,0,1,9,3,403,1043.7798752220115,1044.4372464867774,"[78, 0, 176]",176,l,0.13410427200142294,colour,0.5
67,68,0,1,9,4,404,1044.9517740557203,1047.4932634757133,"[13, 0, 241]",241,a,2.0185394724830985,colour,0.5
67,68,0,1,9,5,405,1048.0141847267514,1048.5412566574523,"[90, 0, 164]",164,l,0.0036576398415490985,colour,0.5
67,68,0,1,9,6,406,1049.061073566787,1050.4692267125938,"[41, 0, 213]",213,a,0.8847683934727684,colour,0.5
67,68,0,1,9,7,407,1050.9829256314551,1052.2772177518345,"[56, 0, 198]",198,a,0.7710200076689944,colour,0.5
67,68,0,1,9,8,408,1052.7954100499628,1054.9652916088235,"[0, 0, 254]",254,a,1.6464361542603,colour,0.5
67,68,0,1,9,9,409,1055.4829151944723,1057.6292329983553,"[16, 0, 238]",238,a,1.6229491990525275,colour,0.5
67,68,0,1,9,10,410,1058.1392203205032,1059.9332310386235,"[29, 0, 225]",225,a,1.2708512450335547,colour,0.5
67,68,0,1,9,11,411,1060.451671065297,1062.3731871800264,"[92, 0, 162]",162,l,1.3981514484621584,colour,0.5
67,68,0,1,9,12,412,1062.8900195307797,1064.5412093960913,"[28, 0, 226]",226,a,1.1288413194706663,colour,0.5
67,68,0,1,9,13,413,1065.0610542682698,1066.8296989960363,"[5, 0, 249]",249,a,1.2453604057664052,colour,0.5
67,68,0,1,9,14,414,1067.3422510377131,1069.285162396147,"[84, 0, 170]",170,l,1.419477375340648,colour,0.5
67,68,0,1,9,15,415,1069.7953182839556,1071.7651623488637,"[62, 0, 192]",192,a,1.4463907834142447,colour,0.5
67,68,0,1,9,16,416,1072.279707247042,1074.501174249337,"[37, 0, 217]",217,a,1.6981633820105344,colour,0.5
67,68,0,1,9,17,417,1075.0140736624599,1076.9331908663735,"[75, 0, 179]",179,l,1.3958194912411273,colour,0.5
67,68,0,1,9,18,418,1077.451569847064,1079.1411229864461,"[33, 0, 221]",221,a,1.166214072960429,colour,0.5
67,68,0,1,9,19,419,1079.6547013885574,1081.4211240418954,"[69, 0, 185]",185,l,1.24320961732883,colour,0.5
67,68,0,1,9,20,420,1081.9359237578465,1084.0771436302457,"[68, 0, 186]",186,l,1.6178973474306986,colour,0.5
67,68,0,1,9,21,421,1084.5921705948422,1086.7491525437217,"[12, 0, 242]",242,a,1.633650365518406,colour,0.5
67,68,0,1,9,22,422,1087.2640389056178,1089.5811547461199,"[79, 0, 175]",175,l,1.7937795310281217,colour,0.5
67,68,0,1,9,23,423,1090.0921085642185,1091.8051289665746,"[98, 0, 156]",156,l,1.1896112315589562,colour,0.5
67,68,0,1,9,24,424,1092.3264858103357,1094.4131077178754,"[99, 0, 155]",155,l,1.5633234072010964,colour,0.5
67,68,0,1,9,25,425,1094.9202991332859,1096.3571218426805,"[88, 0, 166]",166,l,0.913682140992023,colour,0.5
67,68,0,1,9,26,426,1096.8732846566709,1098.709126061527,"[34, 0, 220]",220,a,1.31255196291022,colour,0.5
67,68,0,1,9,27,427,1099.217074841261,1101.0690713800723,"[44, 0, 210]",210,a,1.3294400427257642,colour,0.5
67,68,0,1,9,28,428,1101.5764234843664,1103.3970601034816,"[89, 0, 165]",165,l,1.2972270544851199,colour,0.5
67,68,0,1,9,29,429,1103.904551628977,1105.4210976542672,"[43, 0, 211]",211,a,0.9932506757322699,colour,0.5
67,68,0,1,9,30,430,1105.9376755810808,1107.6850613354472,"[17, 0, 237]",237,a,1.223993125022389,colour,0.5
67,68,0,1,9,31,431,1108.2033662731992,1110.3410852560773,"[93, 0, 161]",161,l,1.614350378047675,colour,0.5
67,68,0,1,9,32,432,1110.8596012948547,1112.62104574556,"[7, 0, 247]",247,a,1.2381211381871253,colour,0.5
67,68,0,1,9,33,433,1113.140837448649,1115.0370182929328,"[19, 0, 235]",235,a,1.3728858884423971,colour,0.5
67,68,0,1,9,34,434,1115.5470934425248,1117.5890391321154,"[31, 0, 223]",223,a,1.5186318292981014,colour,0.5
67,68,0,1,9,35,435,1118.1095373934368,1119.981113156071,"[48, 0, 206]",206,a,1.3481791948433965,colour,0.5
67,68,0,1,9,36,436,1120.5001912118169,1122.3490381711163,"[11, 0, 243]",243,a,1.3255106498254463,colour,0.5
67,68,0,1,9,37,437,1122.859557184158,1124.420982651529,"[15, 0, 239]",239,a,1.0380734041100368,colour,0.5
67,68,0,1,9,38,438,1124.9376480119536,1126.717007296742,"[66, 0, 188]",188,a,1.25610450131353,colour,0.5
67,68,0,1,9,39,439,1127.2345225750469,1128.677024531411,"[21, 0, 233]",233,a,0.9192117267521098,colour,0.5
67,68,0,1,9,40,440,1129.2011627096217,1130.7170033582952,"[87, 0, 167]",167,l,0.9907347928965464,colour,0.5
67,68,0,1,9,41,441,1131.2344761012355,1133.1890807221644,"[10, 0, 244]",244,a,1.4322816749336198,colour,0.5
67,68,0,1,9,42,442,1133.703248316655,1135.2849753197515,"[39, 0, 215]",215,a,1.0583631244953722,colour,0.5
67,68,0,1,9,43,443,1135.7969405321637,1137.205007425975,"[95, 0, 159]",159,l,0.8846872614230961,colour,0.5
67,68,0,1,9,44,444,1137.7188296183012,1139.7329678713577,"[14, 0, 240]",240,a,1.4907397161005065,colour,0.5
67,68,0,1,9,45,445,1140.2501471996075,1141.7569786405656,"[86, 0, 168]",168,l,0.9838653458282351,colour,0.5
67,68,0,1,9,46,446,1142.2656883291202,1143.6610206339974,"[64, 0, 190]",190,a,0.8719928446225822,colour,0.5
67,68,0,1,9,47,447,1144.1719523967477,1146.0049809595803,"[51, 0, 203]",203,a,1.3098497914616019,colour,0.5
67,68,0,1,9,48,448,1146.5157087105326,1148.0050991130993,"[57, 0, 197]",197,a,0.9660493668634444,colour,0.5
67,68,0,1,9,49,449,1148.5156815352384,1149.796967313625,"[59, 0, 195]",195,a,0.7579352904576808,colour,0.5
67,68,0,1,9,50,450,1150.312438929337,1152.0369706376223,"[60, 0, 194]",194,a,1.2011087527498603,colour,0.5
67,68,0,1,10,1,451,1157.8429440081818,1160.5569710787386,"[97, 0, 157]",157,a,2.189804215566255,colour,0.5
67,68,0,1,10,2,452,1161.0780762555078,1161.7249192518648,"[22, 0, 232]",232,a,0.12341373937670141,colour,0.5
67,68,0,1,10,3,453,1162.2343173817499,1162.9649072160246,"[89, 0, 165]",165,l,0.2072956662159413,colour,0.5
67,68,0,1,10,4,454,1163.4843531231163,1164.564987009042,"[93, 0, 161]",161,l,0.5572467703605071,colour,0.5
67,68,0,1,10,5,455,1165.0781156399753,1166.8929816401796,"[81, 0, 173]",173,l,1.2916289396816865,colour,0.5
67,68,0,1,10,6,456,1167.3950219549006,1169.0290066950256,"[42, 0, 212]",212,a,1.1107122335815802,colour,0.5
67,68,0,1,10,7,457,1169.5355904073222,1170.5569431157783,"[58, 0, 196]",196,a,0.4964520459761843,colour,0.5
67,68,0,1,10,8,458,1171.0683671849547,1172.4609378477326,"[76, 0, 178]",178,a,0.8664695603074506,colour,0.5
67,68,0,1,10,9,459,1172.9775319221662,1174.3408863642253,"[87, 0, 167]",167,l,0.8400685447268188,colour,0.5
67,68,0,1,10,10,460,1174.8523966855137,1176.3089100768557,"[20, 0, 234]",234,a,0.9331018574303016,colour,0.5
67,68,0,1,10,11,461,1176.82114664861,1178.6049103037221,"[9, 0, 245]",245,a,1.260405290289782,colour,0.5
67,68,0,1,10,12,462,1179.105582794291,1180.7488756706007,"[79, 0, 175]",175,l,1.1202397414017469,colour,0.5
67,68,0,1,10,13,463,1181.2617943821242,1182.6369177048327,"[17, 0, 237]",237,a,0.8517342379782349,colour,0.5
67,68,0,1,10,14,464,1183.1524062559474,1184.3568591480143,"[70, 0, 184]",184,a,0.6810452966019511,colour,0.5
67,68,0,1,10,15,465,1184.8711382006295,1186.7568691516062,"[30, 0, 224]",224,a,1.3624344198033214,colour,0.5
67,68,0,1,10,16,466,1187.2774442128139,1188.356923344778,"[51, 0, 203]",203,a,0.5560825641732663,colour,0.5
67,68,0,1,10,17,467,1188.8711724651512,1190.8208898615558,"[78, 0, 176]",176,l,1.4264401636319235,colour,0.5
67,68,0,1,10,18,468,1191.3399151421618,1193.1808725954033,"[96, 0, 158]",158,l,1.3178700539283454,colour,0.5
67,68,0,1,10,19,469,1193.6992429115344,1194.996847269591,"[59, 0, 195]",195,a,0.774183765752241,colour,0.5
67,68,0,1,10,20,470,1195.5116603763308,1198.7088917236542,"[33, 0, 221]",221,a,2.6739529330516234,colour,0.5
67,68,0,1,10,21,471,1199.230510474532,1200.860919100698,"[50, 0, 204]",204,a,1.107352340593934,colour,0.5
67,68,0,1,10,22,472,1201.3711238253163,1203.052875680034,"[26, 0, 228]",228,a,1.1584620189387351,colour,0.5
67,68,0,1,10,23,473,1203.5742352807429,1205.0368205826962,"[82, 0, 172]",172,l,0.9391938541084528,colour,0.5
67,68,0,1,10,24,474,1205.542917896295,1206.684812819236,"[46, 0, 208]",208,a,0.6185148966033012,colour,0.5
67,68,0,1,10,25,475,1207.1991505548358,1209.036783561227,"[83, 0, 171]",171,l,1.3142978785326704,colour,0.5
67,68,0,1,10,26,476,1209.5429458592553,1211.1728176744655,"[47, 0, 207]",207,a,1.106482336530462,colour,0.5
67,68,0,1,10,27,477,1211.683589930064,1213.2287590451306,"[1, 0, 253]",253,a,1.0219277222640812,colour,0.5
67,68,0,1,10,28,478,1213.7460230501601,1215.5648176555987,"[19, 0, 235]",235,a,1.295428363722749,colour,0.5
67,68,0,1,10,29,479,1216.0741098410217,1217.8527590230806,"[12, 0, 242]",242,a,1.2553191740298644,colour,0.5
67,68,0,1,10,30,480,1218.3710324532585,1219.0047623754945,"[69, 0, 185]",185,a,0.11044599418528378,colour,0.5
67,68,0,1,10,31,481,1219.5116020871792,1220.860831667087,"[98, 0, 156]",156,l,0.8264864011434838,colour,0.5
67,68,0,1,10,32,482,1221.3710541147739,1222.908800824196,"[61, 0, 193]",193,a,1.0148105466505513,colour,0.5
67,68,0,1,10,33,483,1223.420271761017,1225.1247630529106,"[14, 0, 240]",240,a,1.1811474993592128,colour,0.5
67,68,0,1,10,34,484,1225.638954672031,1227.1487698837882,"[34, 0, 220]",220,a,0.9865789390169084,colour,0.5
67,68,0,1,10,35,485,1227.670264179469,1229.4127607402625,"[13, 0, 241]",241,a,1.2192189341876656,colour,0.5
67,68,0,1,10,36,486,1229.9202412380837,1231.3168421181617,"[62, 0, 192]",192,a,0.8732882014010102,colour,0.5
67,68,0,1,10,37,487,1231.8264604073483,1233.1567503679544,"[37, 0, 217]",217,a,0.8069599526934326,colour,0.5
67,68,0,1,10,38,488,1233.6701995888725,1237.7087255211081,"[63, 0, 191]",191,a,3.515153782791458,colour,0.5
67,68,0,1,10,39,489,1238.217074841261,1239.628714304301,"[38, 0, 216]",216,a,0.8882322614081204,colour,0.5
67,68,0,1,10,40,490,1240.1389103643596,1242.116806987091,"[8, 0, 246]",246,a,1.4547162759117782,colour,0.5
67,68,0,1,10,41,491,1242.6232524599181,1244.116730187321,"[27, 0, 227]",227,a,0.9701138488017023,colour,0.5
67,68,0,1,10,42,492,1244.6232847551582,1246.2047415805282,"[39, 0, 215]",215,a,1.0583650936605409,colour,0.5
67,68,0,1,10,43,493,1246.717042349046,1249.0767273359234,"[73, 0, 181]",181,l,1.8364644679240882,colour,0.5
67,68,0,1,10,44,494,1249.5920378690353,1251.4287043794757,"[75, 0, 179]",179,l,1.3133802192751318,colour,0.5
67,68,0,1,10,45,495,1251.9357492844574,1253.500699665863,"[86, 0, 168]",168,l,1.0416495179524645,colour,0.5
67,68,0,1,10,46,496,1254.003853774746,1255.548717659898,"[29, 0, 225]",225,a,1.0215354525716975,colour,0.5
67,68,0,1,10,47,497,1256.0662833503447,1257.5967667676741,"[4, 0, 250]",250,a,1.0070900003192946,colour,0.5
67,68,0,1,10,48,498,1258.1131591934245,1259.7726906988537,"[7, 0, 247]",247,a,1.1361692021600902,colour,0.5
67,68,0,1,10,49,499,1260.2850060396595,1261.7408865217585,"[23, 0, 231]",231,a,0.9325563817983493,colour,0.5
67,68,0,1,10,50,500,1262.253797750338,1264.0607439182932,"[71, 0, 183]",183,l,1.2836319138295949,colour,0.5
67,68,0,1,11,1,501,1275.284129734151,1276.3806076163892,"[27, 0, 227]",227,a,0.572326313238591,colour,0.5
67,68,0,1,11,2,502,1276.8943813657388,1278.4606798791792,"[75, 0, 179]",179,l,1.043016948387958,colour,0.5
67,68,0,1,11,3,503,1278.9724304459523,1280.3726027138764,"[50, 0, 204]",204,a,0.877134493086487,colour,0.5
67,68,0,1,11,4,504,1280.8942852675682,1283.9806007634616,"[85, 0, 169]",169,l,2.56297839875333,colour,0.5
67,68,0,1,11,5,505,1284.4880418768153,1286.4766014629276,"[33, 0, 221]",221,a,1.465336310211569,colour,0.5
67,68,0,1,11,6,506,1286.9878388496581,1289.0925843291916,"[58, 0, 196]",196,a,1.5813481240766123,colour,0.5
67,68,0,1,11,7,507,1289.6129841292277,1291.1406015354441,"[37, 0, 217]",217,a,1.0042094169184566,colour,0.5
67,68,0,1,11,8,508,1291.6598725753138,1293.7566419029608,"[72, 0, 182]",182,l,1.573468070360832,colour,0.5
67,68,0,1,11,9,509,1294.269223876996,1295.7645514950855,"[84, 0, 170]",170,l,0.9720637761056423,colour,0.5
67,68,0,1,11,10,510,1296.2848177816486,1297.6445894144708,"[9, 0, 245]",245,a,0.8363085051532835,colour,0.5
67,68,0,1,11,11,511,1298.159855836886,1300.3166207771283,"[26, 0, 228]",228,a,1.633478255243972,colour,0.5
67,68,0,1,11,12,512,1300.8316938215867,1302.0685995536624,"[43, 0, 211]",211,a,0.713586751720868,colour,0.5
67,68,0,1,11,13,513,1302.5723534886492,1304.1005565426312,"[53, 0, 201]",201,a,1.005158583750017,colour,0.5
67,68,0,1,11,14,514,1304.619275017758,1305.36457024212,"[82, 0, 172]",172,l,0.22207549307495356,colour,0.5
67,68,0,1,11,15,515,1305.884866067092,1308.068603098276,"[32, 0, 222]",222,a,1.6604184447787702,colour,0.5
67,68,0,1,11,16,516,1308.5879548763623,1310.1645678002387,"[4, 0, 250]",250,a,1.0534026448149234,colour,0.5
67,68,0,1,11,17,517,1310.6816955348477,1312.1965736260172,"[19, 0, 235]",235,a,0.9915992830647156,colour,0.5
67,68,0,1,11,18,518,1312.7129439964192,1314.6365057429066,"[39, 0, 215]",215,a,1.4002301631262526,colour,0.5
67,68,0,1,11,19,519,1315.1504141872283,1317.7485444467748,"[46, 0, 208]",208,a,2.0747955254046246,colour,0.5
67,68,0,1,11,20,520,1318.2598401225405,1321.9725753809325,"[83, 0, 171]",171,l,3.189400524366647,colour,0.5
67,68,0,1,11,21,521,1322.494181528804,1325.1885431235423,"[48, 0, 206]",206,a,2.1710768790217116,colour,0.5
67,68,0,1,11,22,522,1325.6848943451187,1327.9565482466714,"[14, 0, 240]",240,a,1.7489134797360748,colour,0.5
67,68,0,1,11,23,523,1328.466077920748,1330.54055797623,"[80, 0, 174]",174,l,1.5511130261002108,colour,0.5
67,68,0,1,11,24,524,1331.0598301975988,1332.892538564396,"[61, 0, 193]",193,a,1.309340549632907,colour,0.5
67,68,0,1,11,25,525,1333.4037574402755,1335.444490480586,"[34, 0, 220]",220,a,1.5169375074328855,colour,0.5
67,68,0,1,11,26,526,1335.9530926493462,1337.7165342887165,"[76, 0, 178]",178,l,1.2401246282970533,colour,0.5
67,68,0,1,11,27,527,1338.2342657879926,1340.0764512504684,"[98, 0, 156]",156,l,1.3187955900793895,colour,0.5
67,68,0,1,11,28,528,1340.5936211264925,1342.3724916494684,"[99, 0, 155]",155,l,1.255412515369244,colour,0.5
67,68,0,1,11,29,529,1342.8905445263954,1344.5964871376054,"[30, 0, 224]",224,a,1.18258109560702,colour,0.5
67,68,0,1,11,30,530,1345.1092798187165,1346.772483142442,"[66, 0, 188]",188,l,1.1398768603103235,colour,0.5
67,68,0,1,11,31,531,1347.2809947268106,1348.924455381115,"[86, 0, 168]",168,l,1.1199935881886631,colour,0.5
67,68,0,1,11,32,532,1349.437365821912,1351.5084399045445,"[6, 0, 248]",248,a,1.548349020886235,colour,0.5
67,68,0,1,11,33,533,1352.003079869086,1353.932455951348,"[94, 0, 160]",160,l,1.4154770901659504,colour,0.5
67,68,0,1,11,34,534,1354.446748000919,1355.5804462187225,"[0, 0, 254]",254,a,0.6105241724289954,colour,0.5
67,68,0,1,11,35,535,1356.0873556409497,1358.7084809432272,"[21, 0, 233]",233,a,2.097847675671801,colour,0.5
67,68,0,1,11,36,536,1359.2278933735797,1361.0364267375553,"[88, 0, 166]",166,l,1.2853096942417324,colour,0.5
67,68,0,1,11,37,537,1361.5560648411047,1363.428434989415,"[74, 0, 180]",180,l,1.3492886566091329,colour,0.5
67,68,0,1,11,38,538,1363.9467056626454,1365.6604570415802,"[90, 0, 164]",164,l,1.1903670204337686,colour,0.5
67,68,0,1,11,39,539,1366.1810785764828,1367.940410047886,"[20, 0, 234]",234,a,1.2360483310185373,colour,0.5
67,68,0,1,11,40,540,1368.4466629304225,1370.0044567516306,"[41, 0, 213]",213,a,1.0344590870663524,colour,0.5
67,68,0,1,11,41,541,1370.5248636410106,1371.9884359188145,"[7, 0, 247]",247,a,0.9403415188426152,colour,0.5
67,68,0,1,11,42,542,1372.509127558209,1374.0284135641996,"[51, 0, 203]",203,a,0.9960343731800094,colour,0.5
67,68,0,1,11,43,543,1374.540383896674,1376.4363768767798,"[15, 0, 239]",239,a,1.372635796898976,colour,0.5
67,68,0,1,11,44,544,1376.9466627334477,1378.6524627727922,"[17, 0, 237]",237,a,1.1825791264418513,colour,0.5
67,68,0,1,11,45,545,1379.165362973581,1380.8523990486283,"[64, 0, 190]",190,l,1.163700947072357,colour,0.5
67,68,0,1,11,46,546,1381.3684933335753,1383.1483878539875,"[3, 0, 251]",251,a,1.2569768682587892,colour,0.5
67,68,0,1,11,47,547,1383.665365927387,1385.708438014146,"[56, 0, 198]",198,a,1.519768466358073,colour,0.5
67,68,0,1,11,48,548,1386.2278224814218,1388.4604518427514,"[73, 0, 181]",181,a,1.7097396722529083,colour,0.5
67,68,0,1,11,49,549,1388.9778623582097,1393.724361173343,"[31, 0, 223]",223,a,4.223237336263992,colour,0.5
67,68,0,1,11,50,550,1394.243394330726,1395.628422858892,"[92, 0, 162]",162,l,0.8615843050647527,colour,0.5
67,68,0,1,12,1,551,1412.295778098167,1413.412247559987,"[18, 0, 236]",236,a,0.5924707048106939,colour,0.5
67,68,0,1,12,2,552,1413.9092076662928,1415.6683256736724,"[74, 0, 180]",180,l,1.2357714578974992,colour,0.5
67,68,0,1,12,3,553,1416.1747431834228,1417.380335469381,"[0, 0, 254]",254,a,0.6822815764462575,colour,0.5
67,68,0,1,12,4,554,1417.8943979073083,1419.8602889484027,"[47, 0, 207]",207,a,1.4425090455915779,colour,0.5
67,68,0,1,12,5,555,1420.378662415198,1421.988238996244,"[24, 0, 230]",230,a,1.0860618596198037,colour,0.5
67,68,0,1,12,6,556,1422.5037614180474,1424.8923180110287,"[6, 0, 248]",248,a,1.8652112249983475,colour,0.5
67,68,0,1,12,7,557,1425.41045438312,1427.2842522200663,"[80, 0, 174]",174,l,1.3504816135391593,colour,0.5
67,68,0,1,12,8,558,1427.8009451496182,1429.820311303134,"[59, 0, 195]",195,l,1.4959605273324996,colour,0.5
67,68,0,1,12,9,559,1430.3234851042507,1432.2043008677429,"[53, 0, 201]",201,a,1.357489300193265,colour,0.5
67,68,0,1,12,10,560,1432.7141026888276,1434.372273065499,"[26, 0, 228]",228,a,1.134876602445729,colour,0.5
67,68,0,1,12,11,561,1434.885931418161,1436.5482556795469,"[37, 0, 217]",217,a,1.139017490320839,colour,0.5
67,68,0,1,12,12,562,1437.0578168611974,1438.7002129520988,"[55, 0, 199]",199,a,1.1190704151522368,colour,0.5
67,68,0,1,12,13,563,1439.2140390828717,1440.6362473804038,"[45, 0, 209]",209,a,0.8989109786925837,colour,0.5
67,68,0,1,12,14,564,1441.1515724858036,1443.2682317810832,"[35, 0, 219]",219,a,1.5933761548949406,colour,0.5
67,68,0,1,12,15,565,1443.7764972121222,1445.7641990036936,"[89, 0, 165]",165,l,1.464273716090247,colour,0.5
67,68,0,1,12,16,566,1446.276498984429,1447.7882137114648,"[7, 0, 247]",247,a,0.9883603006601334,colour,0.5
67,68,0,1,12,17,567,1448.307728935266,1449.9242052894551,"[66, 0, 188]",188,l,1.0931869122432545,colour,0.5
67,68,0,1,12,18,568,1450.4327554706251,1451.9641904177843,"[51, 0, 203]",203,a,1.008127782260999,colour,0.5
67,68,0,1,12,19,569,1452.4796695166733,1454.0361833411735,"[58, 0, 196]",196,a,1.033282277872786,colour,0.5
67,68,0,1,12,20,570,1454.5576760616386,1456.4362126432825,"[21, 0, 233]",233,a,1.3551856998819858,colour,0.5
67,68,0,1,12,21,571,1456.948317670729,1465.292138575227,"[52, 0, 202]",202,a,7.820459782727994,colour,0.5
67,68,0,1,12,22,572,1465.807622794062,1467.4361374188447,"[95, 0, 159]",159,l,1.1051625615218654,colour,0.5
67,68,0,1,12,23,573,1467.9481648588553,1469.8441917096497,"[96, 0, 158]",158,l,1.3726381598971784,colour,0.5
67,68,0,1,12,24,574,1470.3545047417283,1472.0761665004538,"[13, 0, 241]",241,a,1.1985042549204081,colour,0.5
67,68,0,1,12,25,575,1472.5907019462902,1473.900118114194,"[3, 0, 251]",251,a,0.786023932392709,colour,0.5
67,68,0,1,12,26,576,1474.4188452538801,1475.6761308967834,"[94, 0, 160]",160,l,0.736947282566689,colour,0.5
67,68,0,1,12,27,577,1476.19763818942,1479.2921755966963,"[36, 0, 218]",218,a,2.5711372948717326,colour,0.5
67,68,0,1,12,28,578,1479.8069729495328,1481.6601088824682,"[9, 0, 245]",245,a,1.3297243990236893,colour,0.5
67,68,0,1,12,29,579,1482.166421629372,1483.6761411367916,"[22, 0, 232]",232,a,0.9863556288182735,colour,0.5
67,68,0,1,12,30,580,1484.1976444909815,1486.0920987180434,"[88, 0, 166]",166,l,1.3710155178559944,colour,0.5
67,68,0,1,12,31,581,1486.603859918774,1488.5561097394675,"[68, 0, 186]",186,l,1.4289497450226918,colour,0.5
67,68,0,1,12,32,582,1489.0613193260506,1490.8441346021136,"[44, 0, 210]",210,a,1.259603421553038,colour,0.5
67,68,0,1,12,33,583,1491.3580840063514,1493.9160810518079,"[43, 0, 211]",211,a,2.0346528589725494,colour,0.5
67,68,0,1,12,34,584,1494.4224579954753,1496.9801084570354,"[4, 0, 250]",250,a,2.034522496163845,colour,0.5
67,68,0,1,12,35,585,1497.5006508290535,1498.9800934909144,"[41, 0, 213]",213,a,0.9561780320946127,colour,0.5
67,68,0,1,12,36,586,1499.501578334486,1501.2520778285107,"[78, 0, 176]",176,l,1.227175393840298,colour,0.5
67,68,0,1,12,37,587,1501.7547801970504,1504.1640621031402,"[25, 0, 229]",229,a,1.8860582363558933,colour,0.5
67,68,0,1,12,38,588,1504.6766232032096,1506.2520522285486,"[90, 0, 164]",164,l,1.052024974487722,colour,0.5
67,68,0,1,12,39,589,1506.7704717753222,1508.7320990489097,"[50, 0, 204]",204,a,1.4384158130269498,colour,0.5
67,68,0,1,12,40,590,1509.2410600106232,1510.7320466674864,"[32, 0, 222]",222,a,0.967712968820706,colour,0.5
67,68,0,1,12,41,591,1511.2410021153046,1514.1163627298083,"[31, 0, 223]",223,a,2.3548099716426805,colour,0.5
67,68,0,1,12,42,592,1514.629032531171,1516.6200083574513,"[81, 0, 173]",173,l,1.467748611816205,colour,0.5
67,68,0,1,12,43,593,1517.1290169743588,1518.9560256141704,"[12, 0, 242]",242,a,1.3037455854937434,colour,0.5
67,68,0,1,12,44,594,1519.4748547597555,1521.3240672072861,"[79, 0, 175]",175,l,1.3259403348201886,colour,0.5
67,68,0,1,12,45,595,1521.8341356616002,1524.5240141169634,"[54, 0, 200]",200,l,2.1664744045119733,colour,0.5
67,68,0,1,12,46,596,1525.0372735045385,1527.4200901984004,"[98, 0, 156]",156,l,1.8595201626885682,colour,0.5
67,68,0,1,12,47,597,1527.9183740181616,1530.5160293005174,"[97, 0, 157]",157,l,2.074422554112971,colour,0.5
67,68,0,1,12,48,598,1531.0276250862516,1532.9319809741573,"[83, 0, 171]",171,l,1.3810132769867778,colour,0.5
67,68,0,1,12,49,599,1533.4494931015652,1535.3960837614723,"[56, 0, 198]",198,a,1.4232515934854746,colour,0.5
67,68,0,1,12,50,600,1535.9026347846957,1537.4520164674614,"[8, 0, 246]",246,a,1.0260300133377314,colour,0.5
67,68,0,1,13,1,601,1558.8801170822699,1560.4839695179835,"[98, 0, 156]",156,l,1.079751672805287,colour,0.5
67,68,0,1,13,2,602,1560.9903035325697,1562.7319143355126,"[85, 0, 169]",169,l,1.2183772870339453,colour,0.5
67,68,0,1,13,3,603,1563.2402691695606,1564.6358755906112,"[42, 0, 212]",212,a,0.8722905915929005,colour,0.5
67,68,0,1,13,4,604,1565.1465604124824,1566.3719024572056,"[44, 0, 210]",210,a,0.7020360613241792,colour,0.5
67,68,0,1,13,5,605,1566.8808413635707,1568.6439580806764,"[3, 0, 251]",251,a,1.2397398416651413,colour,0.5
67,68,0,1,13,6,606,1569.162123597227,1570.9158668000018,"[4, 0, 250]",250,a,1.2303584503242746,colour,0.5
67,68,0,1,13,7,607,1571.4277768741595,1573.08384490537,"[92, 0, 162]",162,l,1.1327927677193657,colour,0.5
67,68,0,1,13,8,608,1573.5995898497058,1575.3638991299085,"[39, 0, 215]",215,a,1.2409213770879433,colour,0.5
67,68,0,1,13,9,609,1575.8807740160264,1577.5238656373695,"[38, 0, 216]",216,a,1.1197293180739507,colour,0.5
67,68,0,1,13,10,610,1578.037039560615,1579.7319107908988,"[10, 0, 244]",244,a,1.1715077455155551,colour,0.5
67,68,0,1,13,11,611,1580.240189612843,1582.2758617430227,"[91, 0, 163]",163,l,1.5123637836659327,colour,0.5
67,68,0,1,13,12,612,1582.7870140591403,1584.8758103856817,"[1, 0, 253]",253,a,1.565471044741571,colour,0.5
67,68,0,1,13,13,613,1585.3964307389688,1587.1078663085354,"[64, 0, 190]",190,a,1.1881729090819135,colour,0.5
67,68,0,1,13,14,614,1587.6151743021328,1589.107809200883,"[45, 0, 209]",209,a,0.9688141597434878,colour,0.5
67,68,0,1,13,15,615,1589.6151368868304,1591.1318499024492,"[89, 0, 165]",165,l,0.9934011246077716,colour,0.5
67,68,0,1,13,16,616,1591.6463345423108,1593.3158421453554,"[26, 0, 228]",228,a,1.1461445121094584,colour,0.5
67,68,0,1,13,17,617,1593.8338099515531,1595.6038425895385,"[27, 0, 227]",227,a,1.2466478855349123,colour,0.5
67,68,0,1,13,18,618,1596.1150819454342,1598.1397882452002,"[23, 0, 231]",231,a,1.499366500065662,colour,0.5
67,68,0,1,13,19,619,1598.6484254661482,1600.859803337371,"[77, 0, 177]",177,l,1.6880431370809674,colour,0.5
67,68,0,1,13,20,620,1601.3671625308925,1603.2038191951578,"[73, 0, 181]",181,a,1.3133790377760306,colour,0.5
67,68,0,1,13,21,621,1603.711235102266,1605.2757857309189,"[93, 0, 161]",161,l,1.0412875743350014,colour,0.5
67,68,0,1,13,22,622,1605.7901439464185,1607.3878008041065,"[19, 0, 235]",235,a,1.0752232412341982,colour,0.5
67,68,0,1,13,23,623,1607.8987455638126,1609.4278485539835,"[81, 0, 173]",173,l,1.0057887360453606,colour,0.5
67,68,0,1,13,24,624,1609.947016800288,1612.5638228027383,"[54, 0, 200]",200,a,2.0934062838787213,colour,0.5
67,68,0,1,13,25,625,1613.0720456986455,1614.3557867076015,"[94, 0, 160]",160,l,0.7607225325191393,colour,0.5
67,68,0,1,13,26,626,1614.8688739849022,1616.3638073640177,"[84, 0, 170]",170,l,0.97159391886089,colour,0.5
67,68,0,1,13,27,627,1616.8844588311622,1618.5877481077332,"[59, 0, 195]",195,l,1.1798875887179747,colour,0.5
67,68,0,1,13,28,628,1619.103150800569,1624.435769173666,"[6, 0, 248]",248,a,4.8092741867294535,colour,0.5
67,68,0,1,13,29,629,1624.9488505432382,1626.5797951926943,"[75, 0, 179]",179,l,1.1199983144178987,colour,0.5
67,68,0,1,13,30,630,1627.0927178426646,1628.5877496830653,"[79, 0, 175]",175,l,0.971799899940379,colour,0.5
67,68,0,1,13,31,631,1629.1082404613262,1630.9717648476362,"[80, 0, 174]",174,l,1.3402475473703817,colour,0.5
67,68,0,1,13,32,632,1631.4709064621711,1633.0277298489818,"[5, 0, 249]",249,a,1.033678879844956,colour,0.5
67,68,0,1,13,33,633,1633.5488854378927,1634.9797378488583,"[21, 0, 233]",233,a,0.9203633300494403,colour,0.5
67,68,0,1,13,34,634,1635.4895692082355,1636.91577621561,"[18, 0, 236]",236,a,0.9027962611289695,colour,0.5
67,68,0,1,13,35,635,1637.427057712921,1639.0116940500448,"[86, 0, 168]",168,l,1.0612346493871883,colour,0.5
67,68,0,1,13,36,636,1639.5208192451391,1640.8996919736965,"[46, 0, 208]",208,a,0.8555533543694764,colour,0.5
67,68,0,1,13,37,637,1641.41136140842,1642.8036843425361,"[57, 0, 197]",197,a,0.868880286347121,colour,0.5
67,68,0,1,13,38,638,1643.317637291504,1645.0996869325172,"[43, 0, 211]",211,a,1.2586704024579376,colour,0.5
67,68,0,1,13,39,639,1645.6144787715748,1647.7556923424127,"[29, 0, 225]",225,a,1.6178244861075655,colour,0.5
67,68,0,1,13,40,640,1648.2707921683323,1650.5157087105326,"[35, 0, 219]",219,a,1.7221383112482727,colour,0.5
67,68,0,1,13,41,641,1651.0363172485959,1653.7476984674577,"[50, 0, 204]",204,a,2.1879870141856372,colour,0.5
67,68,0,1,13,42,642,1654.2550722331507,1657.9236802938394,"[78, 0, 176]",176,l,3.1453095603501424,colour,0.5
67,68,0,1,13,43,643,1658.4425511871232,1659.611668686499,"[34, 0, 220]",220,a,0.6457036024658009,colour,0.5
67,68,0,1,13,44,644,1660.1300295501715,1661.4676859903848,"[0, 0, 254]",254,a,0.8143075276166201,colour,0.5
67,68,0,1,13,45,645,1661.9738222947344,1663.0836731889285,"[66, 0, 188]",188,l,0.5864842586452141,colour,0.5
67,68,0,1,13,46,646,1663.598793100915,1665.0676121838624,"[20, 0, 234]",234,a,0.9461708208546042,colour,0.5
67,68,0,1,13,47,647,1665.5831795040285,1666.7556399609894,"[53, 0, 201]",201,a,0.649164319736883,colour,0.5
67,68,0,1,13,48,648,1667.2706393564586,1668.9076830917038,"[8, 0, 246]",246,a,1.1137814687099308,colour,0.5
67,68,0,1,13,49,649,1669.426955707022,1671.0676582637243,"[56, 0, 198]",198,a,1.1174469854449853,colour,0.5
67,68,0,1,13,50,650,1671.5831527225673,1673.0756084218156,"[63, 0, 191]",191,a,0.9691489281831309,colour,0.5
67,68,0,1,14,1,651,1685.9262272904161,1687.1796079586493,"[17, 0, 237]",237,a,0.7270196280442178,colour,0.5
67,68,0,1,14,2,652,1687.6948491750518,1689.331631003297,"[54, 0, 200]",200,a,1.113517592428252,colour,0.5
67,68,0,1,14,3,653,1689.8511166888056,1691.547642068821,"[82, 0, 172]",172,l,1.173172528971918,colour,0.5
67,68,0,1,14,4,654,1692.0541718243621,1693.6515372366412,"[62, 0, 192]",192,l,1.074050764204003,colour,0.5
67,68,0,1,14,5,655,1694.158356862259,1695.7795715674292,"[26, 0, 228]",228,a,1.097785054356791,colour,0.5
67,68,0,1,14,6,656,1696.2990229882998,1698.0835617306875,"[16, 0, 238]",238,a,1.2612914418568835,colour,0.5
67,68,0,1,14,7,657,1698.5958601360908,1700.2435786502901,"[73, 0, 181]",181,l,1.1248634834773839,colour,0.5
67,68,0,1,14,8,658,1700.751533731469,1702.4515611825045,"[1, 0, 253]",253,a,1.1765718064270914,colour,0.5
67,68,0,1,14,9,659,1702.9703603958478,1704.451584813185,"[15, 0, 239]",239,a,0.9579235538840294,colour,0.5
67,68,0,1,14,10,660,1704.9703292821068,1706.5155279356986,"[7, 0, 247]",247,a,1.021939143887721,colour,0.5
67,68,0,1,14,11,661,1707.032826992916,1708.6515947381267,"[39, 0, 215]",215,a,1.0954593986971304,colour,0.5
67,68,0,1,14,12,662,1709.157684962498,1710.7075329580111,"[9, 0, 245]",245,a,1.0266207811655477,colour,0.5
67,68,0,1,14,13,663,1711.220347300521,1712.6275339504937,"[40, 0, 214]",214,a,0.8840141800465062,colour,0.5
67,68,0,1,14,14,664,1713.1421544668265,1714.5955100078136,"[27, 0, 227]",227,a,0.9299428254598752,colour,0.5
67,68,0,1,14,15,665,1715.110956417513,1717.5795151687926,"[59, 0, 195]",195,l,1.9452870324021205,colour,0.5
67,68,0,1,14,16,666,1718.0952715345193,1719.9555262185168,"[11, 0, 243]",243,a,1.3369018329540268,colour,0.5
67,68,0,1,14,17,667,1720.4702861560509,1721.9955105591798,"[78, 0, 176]",176,l,1.0019365365151316,colour,0.5
67,68,0,1,14,18,668,1722.5170942577533,1723.9955018946202,"[72, 0, 182]",182,l,0.9550327304750681,colour,0.5
67,68,0,1,14,19,669,1724.5015448576305,1726.6914845559513,"[55, 0, 199]",199,a,1.6667821945156902,colour,0.5
67,68,0,1,14,20,670,1727.2045615932439,1728.9074826245196,"[52, 0, 202]",202,a,1.1797276876168326,colour,0.5
67,68,0,1,14,21,671,1729.4232945225667,1731.4275216624374,"[74, 0, 180]",180,l,1.4808628674363717,colour,0.5
67,68,0,1,14,22,672,1731.9389433686156,1733.8114419104531,"[5, 0, 249]",249,a,1.3493552164873108,colour,0.5
67,68,0,1,14,23,673,1734.3295735563152,1735.8354861565167,"[46, 0, 208]",208,a,0.9826865673530847,colour,0.5
67,68,0,1,14,24,674,1736.3451505256817,1738.4434696339304,"[76, 0, 178]",178,a,1.574905605171807,colour,0.5
67,68,0,1,14,25,675,1738.9545628732303,1743.5314849655842,"[50, 0, 204]",204,l,4.053725204081275,colour,0.5
67,68,0,1,14,26,676,1744.0513530747266,1745.6754960183753,"[45, 0, 209]",209,a,1.1007806403795257,colour,0.5
67,68,0,1,14,27,677,1746.1919735147385,1748.2354508680291,"[44, 0, 210]",210,a,1.5201040223473683,colour,0.5
67,68,0,1,14,28,678,1748.7544375517173,1750.1154533413937,"[87, 0, 167]",167,l,0.8377629753667861,colour,0.5
67,68,0,1,14,29,679,1750.6295299576595,1752.4674319602782,"[85, 0, 169]",169,l,1.3146480068098754,colour,0.5
67,68,0,1,14,30,680,1752.989005025127,1754.8674415701535,"[83, 0, 171]",171,l,1.3553593857213855,colour,0.5
67,68,0,1,14,31,681,1755.3795808621217,1756.6114182008896,"[64, 0, 190]",190,a,0.7086290289880708,colour,0.5
67,68,0,1,14,32,682,1757.1295273976866,1758.3234626550693,"[28, 0, 226]",226,a,0.6706745661795139,colour,0.5
67,68,0,1,14,33,683,1758.8326213269029,1760.5554157842416,"[98, 0, 156]",156,l,1.1994164001662284,colour,0.5
67,68,0,1,14,34,684,1761.0546712200157,1762.6433736145264,"[36, 0, 218]",218,a,1.065889899036847,colour,0.5
67,68,0,1,14,35,685,1763.1640585585264,1764.3554578470066,"[8, 0, 246]",246,a,0.6680988189764321,colour,0.5
67,68,0,1,14,36,686,1764.8670217312174,1766.6833551983582,"[48, 0, 206]",206,a,1.2928400133969262,colour,0.5
67,68,0,1,14,37,687,1767.1952050140826,1769.363354048226,"[56, 0, 198]",198,a,1.6447485279059038,colour,0.5
67,68,0,1,14,38,688,1769.8827160664368,1773.5074222086696,"[38, 0, 216]",216,a,3.101365894312039,colour,0.5
67,68,0,1,14,39,689,1774.0233908570372,1782.115322584752,"[79, 0, 175]",175,l,7.568673399509862,colour,0.5
67,68,0,1,14,40,690,1782.6338661926566,1784.09937343176,"[77, 0, 177]",177,l,0.9421630526194349,colour,0.5
67,68,0,1,14,41,691,1784.6181584667647,1786.0433651075,"[91, 0, 163]",163,l,0.9018112544436008,colour,0.5
67,68,0,1,14,42,692,1786.5556934451452,1788.0833411774365,"[14, 0, 240]",240,a,1.004409096436575,colour,0.5
67,68,0,1,14,43,693,1788.6025432944298,1789.9953762580408,"[41, 0, 213]",213,l,0.8694698726758361,colour,0.5
67,68,0,1,14,44,694,1790.5088034236105,1792.2673318448942,"[47, 0, 207]",207,a,1.2352279516635463,colour,0.5
67,68,0,1,14,45,695,1792.7763077726122,1794.0913460800657,"[89, 0, 165]",165,l,0.7916055058594793,colour,0.5
67,68,0,1,14,46,696,1794.6044664402725,1797.6273299386958,"[24, 0, 230]",230,a,2.499692603945732,colour,0.5
67,68,0,1,14,47,697,1798.135687923408,1799.5552779384889,"[75, 0, 179]",179,l,0.8962615825003013,colour,0.5
67,68,0,1,14,48,698,1800.073128772783,1801.2753083906136,"[32, 0, 222]",222,a,0.6791170306969434,colour,0.5
67,68,0,1,14,49,699,1801.7919603602495,1802.915294149192,"[61, 0, 193]",193,a,0.6000762484036386,colour,0.5
67,68,0,1,14,50,700,1803.4338712339522,1804.6353324782103,"[58, 0, 196]",196,a,0.6780075689312071,colour,0.5
67,68,0,1,15,1,701,1815.917402796098,1817.7232989729382,"[37, 0, 217]",217,a,1.281779266311787,colour,0.5
67,68,0,1,15,2,702,1818.2308385475772,1820.523306377232,"[22, 0, 232]",232,a,1.7696041343733668,colour,0.5
67,68,0,1,15,3,703,1821.0431540064747,1822.68324846623,"[89, 0, 165]",165,l,1.1166974981315434,colour,0.5
67,68,0,1,15,4,704,1823.1993691388052,1824.5392417457188,"[48, 0, 206]",206,a,0.8165386604378,colour,0.5
67,68,0,1,15,5,705,1825.058734914288,1826.6992287330795,"[94, 0, 160]",160,l,1.1171701123239473,colour,0.5
67,68,0,1,15,6,706,1827.2150733201997,1828.5552283140132,"[68, 0, 186]",186,a,0.8171735388459638,colour,0.5
67,68,0,1,15,7,707,1829.074381594197,1830.4912875546142,"[34, 0, 220]",220,a,0.8940198159543797,colour,0.5
67,68,0,1,15,8,708,1831.0118827018887,1832.3552475336473,"[29, 0, 225]",225,a,0.8200005592079833,colour,0.5
67,68,0,1,15,9,709,1832.871247689589,1834.8671847830992,"[92, 0, 162]",162,l,1.4728229126194492,colour,0.5
67,68,0,1,15,10,710,1835.3868059513625,1837.0511821459513,"[91, 0, 163]",163,l,1.1410225559957325,colour,0.5
67,68,0,1,15,11,711,1837.5587406250415,1839.1152237296337,"[70, 0, 184]",184,a,1.033111349097453,colour,0.5
67,68,0,1,15,12,712,1839.6244631398004,1841.0512357088737,"[17, 0, 237]",237,a,0.9034224749775603,colour,0.5
67,68,0,1,15,13,713,1841.5618705124361,1842.747199465637,"[72, 0, 182]",182,l,0.6620355729246512,colour,0.5
67,68,0,1,15,14,714,1843.2650298200315,1844.8271634209668,"[73, 0, 181]",181,l,1.0388244667556137,colour,0.5
67,68,0,1,15,15,715,1845.3430930785835,1846.7231898779282,"[81, 0, 173]",173,l,0.8566722684772685,colour,0.5
67,68,0,1,15,16,716,1847.2337522138841,1848.5631729583256,"[18, 0, 236]",236,a,0.8066161258611828,colour,0.5
67,68,0,1,15,17,717,1849.0681934992317,1850.5311372003052,"[86, 0, 168]",168,a,0.9395609177881852,colour,0.5
67,68,0,1,15,18,718,1851.0525243701413,1852.4351260245312,"[25, 0, 229]",229,a,0.8592468341812491,colour,0.5
67,68,0,1,15,19,719,1852.9431799608283,1854.451221687952,"[52, 0, 202]",202,a,0.9846999037545174,colour,0.5
67,68,0,1,15,20,720,1854.9588160070125,1856.1631145116407,"[28, 0, 226]",226,a,0.6809956720098853,colour,0.5
67,68,0,1,15,21,721,1856.6774325550068,1858.2911067008972,"[20, 0, 234]",234,a,1.0903594979317859,colour,0.5
67,68,0,1,15,22,722,1858.8025390409166,1863.1712352046743,"[95, 0, 159]",159,l,3.845418143318966,colour,0.5
67,68,0,1,15,23,723,1863.6774762718705,1865.1391273731133,"[96, 0, 158]",158,l,0.9383644162444398,colour,0.5
67,68,0,1,15,24,724,1865.6461994533893,1866.883332040161,"[79, 0, 175]",175,a,0.713747046655044,colour,0.5
67,68,0,1,15,25,725,1867.3962109733839,1868.987117719138,"[16, 0, 238]",238,a,1.0675846146186814,colour,0.5
67,68,0,1,15,26,726,1869.5055825579911,1870.9071049269987,"[69, 0, 185]",185,a,0.8874583557480946,colour,0.5
67,68,0,1,15,27,727,1871.4180678036064,1872.81113943737,"[58, 0, 196]",196,a,0.8696561614051461,colour,0.5
67,68,0,1,15,28,728,1873.3243972494965,1875.9870696699945,"[78, 0, 176]",176,l,2.1393873108318076,colour,0.5
67,68,0,1,15,29,729,1876.4962070743786,1878.6191040889826,"[85, 0, 169]",169,l,1.5995693698059767,colour,0.5
67,68,0,1,15,30,730,1879.1368304681964,1880.3071066599805,"[54, 0, 200]",200,a,0.6469753283308819,colour,0.5
67,68,0,1,15,31,731,1880.8243009544676,1882.619065492181,"[12, 0, 242]",242,a,1.2714219267945737,colour,0.5
67,68,0,1,15,32,732,1883.1368060497334,1884.6191289011622,"[23, 0, 231]",231,a,0.9590767323970795,colour,0.5
67,68,0,1,15,33,733,1885.1368032929022,1886.7311215252848,"[71, 0, 183]",183,l,1.070938599994406,colour,0.5
67,68,0,1,15,34,734,1887.2461543974932,1888.8430554664228,"[53, 0, 201]",201,a,1.0736309253843501,colour,0.5
67,68,0,1,15,35,735,1889.3555496128974,1890.8991185352206,"[40, 0, 214]",214,a,1.0205303598195314,colour,0.5
67,68,0,1,15,36,736,1891.4180008498952,1892.8190695093945,"[3, 0, 251]",251,a,0.8778032420668751,colour,0.5
67,68,0,1,15,37,737,1893.3398946621455,1895.1070475043962,"[43, 0, 211]",211,a,1.2438326803967357,colour,0.5
67,68,0,1,15,38,738,1895.6119731287472,1896.9710236311657,"[62, 0, 192]",192,a,0.8358035958372056,colour,0.5
67,68,0,1,15,39,739,1897.4869072089205,1899.5470461811638,"[41, 0, 213]",213,a,1.5368581949733198,colour,0.5
67,68,0,1,15,40,740,1900.065000202856,1901.4671019180678,"[87, 0, 167]",167,l,0.87876383040566,colour,0.5
67,68,0,1,15,41,741,1901.9869058304466,1903.7553374879062,"[5, 0, 249]",249,a,1.2451922338223085,colour,0.5
67,68,0,1,15,42,742,1904.2681478919694,1905.9550677827792,"[8, 0, 246]",246,a,1.1636056365678087,colour,0.5
67,68,0,1,15,43,743,1906.471330633387,1908.0350033811992,"[31, 0, 223]",223,a,1.04062788374722,colour,0.5
67,68,0,1,15,44,744,1908.5400948142633,1910.1710418267176,"[42, 0, 212]",212,a,1.1075756506761536,colour,0.5
67,68,0,1,15,45,745,1910.680776694091,1912.411008129362,"[84, 0, 170]",170,l,1.2069837409071624,colour,0.5
67,68,0,1,15,46,746,1912.9264301205985,1914.354988383595,"[10, 0, 244]",244,a,0.9051790243247524,colour,0.5
67,68,0,1,15,47,747,1914.8638796346495,1916.6589970575878,"[55, 0, 199]",199,a,1.2718240425456315,colour,0.5
67,68,0,1,15,48,748,1917.1764008776518,1919.0749652726809,"[30, 0, 224]",224,a,1.3752131194341928,colour,0.5
67,68,0,1,15,49,749,1919.5734196273843,1921.4750650731148,"[7, 0, 247]",247,a,1.3783741206862032,colour,0.5
67,68,0,1,15,50,750,1921.9953132427763,1930.178956538788,"[33, 0, 221]",221,l,7.6603424325585365,colour,0.5
67,68,0,1,16,1,751,1934.3267158159288,1936.0429905607598,"[82, 0, 172]",172,l,1.1920511022908613,colour,0.5
67,68,0,1,16,2,752,1936.5620059950743,1938.162930586026,"[0, 0, 254]",254,a,1.0776071859290823,colour,0.5
67,68,0,1,16,3,753,1938.6713791551301,1940.6189599416684,"[28, 0, 226]",226,a,1.4244922056095675,colour,0.5
67,68,0,1,16,4,754,1941.1400489707012,1942.8910159589723,"[34, 0, 220]",220,a,1.2275826296536252,colour,0.5
67,68,0,1,16,5,755,1943.4056896445109,1944.8509118893417,"[2, 0, 252]",252,a,0.9219962119823322,colour,0.5
67,68,0,1,16,6,756,1945.3588240414392,1946.682899519452,"[47, 0, 207]",207,a,0.8008380236569792,colour,0.5
67,68,0,1,16,7,757,1947.202535653836,1949.106979763019,"[67, 0, 187]",187,l,1.3810920459218323,colour,0.5
67,68,0,1,16,8,758,1949.624394610757,1951.730886399746,"[95, 0, 159]",159,l,1.5834421986946836,colour,0.5
67,68,0,1,16,9,759,1952.24939849996,1953.6589222269831,"[9, 0, 245]",245,a,0.8862090789480135,colour,0.5
67,68,0,1,16,10,760,1954.1713116107276,1955.874906511046,"[18, 0, 236]",236,a,1.1805019872263074,colour,0.5
67,68,0,1,16,11,761,1956.3900524168275,1958.1148747828556,"[12, 0, 242]",242,a,1.201548677869141,colour,0.5
67,68,0,1,16,12,762,1958.6243721615756,1960.618897320237,"[55, 0, 199]",199,l,1.471284553525038,colour,0.5
67,68,0,1,16,13,763,1961.140031641582,1963.0430102529936,"[23, 0, 231]",231,a,1.3801578453276306,colour,0.5
67,68,0,1,16,14,764,1963.5619130476844,1966.658843851881,"[1, 0, 253]",253,a,2.573692956008017,colour,0.5
67,68,0,1,16,15,765,1967.171238749288,1970.2268508654088,"[91, 0, 163]",163,l,2.5325172336306423,colour,0.5
67,68,0,1,16,16,766,1970.7337090878282,1972.730887187412,"[57, 0, 197]",197,a,1.473869359237142,colour,0.5
67,68,0,1,16,17,767,1973.2493063402362,1975.1468609164003,"[73, 0, 181]",181,l,1.3742123589618132,colour,0.5
67,68,0,1,16,18,768,1975.6430510553764,1977.4828769915039,"[15, 0, 239]",239,a,1.3164254298899323,colour,0.5
67,68,0,1,16,19,769,1978.002386307693,1979.858809666126,"[42, 0, 212]",212,a,1.333032698254101,colour,0.5
67,68,0,1,16,20,770,1980.3773682401516,1982.146886122413,"[78, 0, 176]",176,l,1.246190237463452,colour,0.5
67,68,0,1,16,21,771,1982.6586465353612,1984.4749473134289,"[84, 0, 170]",170,l,1.292945170076564,colour,0.5
67,68,0,1,16,22,772,1984.9867711353581,1986.5228353384882,"[48, 0, 206]",206,a,1.0128023303113878,colour,0.5
67,68,0,1,16,23,773,1987.033626498538,1988.938838211936,"[89, 0, 165]",165,l,1.3818781608715653,colour,0.5
67,68,0,1,16,24,774,1989.4554728524527,1991.1228119441075,"[85, 0, 169]",169,l,1.1442276677116752,colour,0.5
67,68,0,1,16,25,775,1991.643658364541,1993.5468878553947,"[93, 0, 161]",161,l,1.379995187278837,colour,0.5
67,68,0,1,16,26,776,1994.0653148851125,1996.066904837964,"[97, 0, 157]",157,l,1.4792902438202873,colour,0.5
67,68,0,1,16,27,777,1996.5715303522302,1998.4508258735295,"[4, 0, 250]",250,a,1.3563873214880005,colour,0.5
67,68,0,1,16,28,778,1998.96196676814,2001.22699028661,"[14, 0, 240]",240,a,1.748635818832554,colour,0.5
67,68,0,1,16,29,779,2001.736938224174,2003.5148091682931,"[33, 0, 221]",221,a,1.267609505681321,colour,0.5
67,68,0,1,16,30,780,2004.021342468448,2005.6588170703035,"[99, 0, 155]",155,l,1.114533712854609,colour,0.5
67,68,0,1,16,31,781,2006.1775304254843,2007.6907823301153,"[79, 0, 175]",175,a,0.9903429170371965,colour,0.5
67,68,0,1,16,32,782,2008.2088852252346,2011.0668217366328,"[54, 0, 200]",200,a,2.334527340484783,colour,0.5
67,68,0,1,16,33,783,2011.5836564505007,2013.1948670949787,"[76, 0, 178]",178,l,1.088417841354385,colour,0.5
67,68,0,1,16,34,784,2013.7963025029749,2015.1948131382233,"[71, 0, 183]",183,l,0.8695541555061936,colour,0.5
67,68,0,1,16,35,785,2015.7089578896994,2017.330888605211,"[70, 0, 184]",184,l,1.0995234866859391,colour,0.5
67,68,0,1,16,36,786,2017.849644101807,2019.1788828897988,"[63, 0, 191]",191,a,0.8069126912159845,colour,0.5
67,68,0,1,16,37,787,2019.6933060897281,2021.0107519724406,"[20, 0, 234]",234,a,0.7945936088217422,colour,0.5
67,68,0,1,16,38,788,2021.5213879576186,2022.9627430369146,"[11, 0, 243]",243,a,0.9185764546273276,colour,0.5
67,68,0,1,16,39,789,2023.4745570127852,2024.7948488205438,"[94, 0, 160]",160,l,0.7976451211143285,colour,0.5
67,68,0,1,16,40,790,2025.3025211209897,2029.0668284320273,"[5, 0, 249]",249,l,3.240834337309934,colour,0.5
67,68,0,1,16,41,791,2029.583746640943,2030.4908283312107,"[30, 0, 224]",224,l,0.3846405907534063,colour,0.5
67,68,0,1,16,42,792,2031.0055102874758,2033.330725159496,"[64, 0, 190]",190,l,1.8019518178189173,colour,0.5
67,68,0,1,16,43,793,2033.8494121270487,2038.0187300936086,"[37, 0, 217]",217,l,3.645937940222211,colour,0.5
67,68,0,1,16,44,794,2038.5368629209697,2039.9947169611696,"[39, 0, 215]",215,a,0.9345476628514007,colour,0.5
67,68,0,1,16,45,795,2040.5054592845263,2042.1547023731982,"[77, 0, 177]",177,l,1.1257023735670373,colour,0.5
67,68,0,1,16,46,796,2042.6618457395816,2044.3066458611283,"[80, 0, 174]",174,l,1.1214015845907852,colour,0.5
67,68,0,1,16,47,797,2044.8181164041162,2046.6187307237415,"[25, 0, 229]",229,a,1.2773185762343928,colour,0.5
67,68,0,1,16,48,798,2047.130568330409,2048.7946487471927,"[69, 0, 185]",185,l,1.1407062981743366,colour,0.5
67,68,0,1,16,49,799,2049.3024592872243,2050.826694351388,"[17, 0, 237]",237,a,1.0009089945815504,colour,0.5
67,68,0,1,16,50,800,2051.3337002657354,2053.3546859105118,"[24, 0, 230]",230,a,1.4976186153944582,colour,0.5
