id,age,condition,counterbalance,block,trialinblock,trial,tstart,tend,trialstim,trialintensity,response,RT,trialtype,colourfreq
031,63,1,2,Practice,1,NA,5.907611921429634e-06,1.6954153182450682,"[72, 0, 182]",182,a,1.1709980526939034,colour,0.5
031,63,1,2,Practice,2,NA,2.20393617474474,2.967384043848142,"[29, 0, 225]",225,a,0.24016291042789817,colour,0.5
031,63,1,2,Practice,3,NA,3.48510356573388,4.0554255426395684,"[73, 0, 181]",181,a,0.04705592314712703,colour,0.5
031,63,1,2,Practice,4,NA,4.5632776487618685,8.215545570943505,"[94, 0, 160]",160,l,3.128982569789514,colour,0.5
031,63,1,2,Practice,5,NA,8.73507757182233,9.343380867736414,"[77, 0, 177]",177,a,0.08513137116096914,colour,0.5
031,63,1,2,Practice,6,NA,9.860397768439725,15.639421456027776,"[67, 0, 187]",187,a,5.2564204761292785,colour,0.5
031,63,1,2,Practice,7,NA,16.156831021187827,16.8074522735551,"[7, 0, 247]",247,a,0.12756472453474998,colour,0.5
031,63,1,2,Practice,8,NA,17.32878848258406,21.495696051744744,"[13, 0, 241]",241,a,3.642247694544494,colour,0.5
031,63,1,2,Practice,9,NA,22.001915666507557,24.159389444161206,"[8, 0, 246]",246,a,1.634162825299427,colour,0.5
031,63,1,2,Practice,10,NA,24.67377309105359,26.015371018555015,"[1, 0, 253]",253,a,0.81819127057679,colour,0.5
031,63,1,2,1,1,1,4.4740971475839615,5.056036003865302,"[18, 0, 236]",236,a,0.057741356547921896,colour,0.5
031,63,1,2,1,2,2,5.568663491867483,6.199989445041865,"[24, 0, 230]",230,a,0.10831274837255478,colour,0.5
031,63,1,2,1,3,3,6.709193230373785,7.744026538915932,"[51, 0, 203]",203,a,0.5116566575597972,colour,0.5
031,63,1,2,1,4,4,8.256164082558826,9.551990812411532,"[79, 0, 175]",175,l,0.7724476421717554,colour,0.5
031,63,1,2,1,5,5,10.068639073288068,10.895977021427825,"[64, 0, 190]",190,a,0.3034082637168467,colour,0.5
031,63,1,2,1,6,6,11.413606352638453,12.088309314101934,"[90, 0, 164]",164,l,0.15132111683487892,colour,0.5
031,63,1,2,1,7,7,12.601151841925457,13.320010838797316,"[85, 0, 169]",169,l,0.195629570633173,colour,0.5
031,63,1,2,1,8,8,13.835515765007585,14.487991244066507,"[17, 0, 237]",237,a,0.1293634190224111,colour,0.5
031,63,1,2,1,9,9,15.007477558683604,24.08000152814202,"[68, 0, 186]",186,l,8.549305964726955,colour,0.5
031,63,1,2,1,10,10,24.586732748895884,25.23196894605644,"[14, 0, 240]",240,a,0.12224307842552662,colour,0.5
031,63,1,2,1,11,11,25.74308170261793,32.99203525390476,"[53, 0, 201]",201,l,6.72578714042902,colour,0.5
031,63,1,2,1,12,12,33.50986111420207,34.04001592728309,"[42, 0, 212]",212,a,0.007231011288240552,colour,0.5
031,63,1,2,1,13,13,34.55669018183835,35.168555026641116,"[91, 0, 163]",163,l,0.08863502461463213,colour,0.5
031,63,1,2,1,14,14,35.681685455841944,39.99995785858482,"[93, 0, 161]",161,l,3.794936638092622,colour,0.5
031,63,1,2,1,15,15,40.509871748043224,41.207995938835666,"[83, 0, 171]",171,l,0.17494399519637227,colour,0.5
031,63,1,2,1,16,16,41.728553514229134,42.279907871736214,"[8, 0, 246]",246,a,0.028393534012138844,colour,0.5
031,63,1,2,1,17,17,42.79115296038799,43.40795938973315,"[27, 0, 227]",227,a,0.09359551384113729,colour,0.5
031,63,1,2,1,18,18,43.91607537260279,49.767996789421886,"[31, 0, 223]",223,l,5.328706562751904,colour,0.5
031,63,1,2,1,19,19,50.27665785513818,50.839988673105836,"[40, 0, 214]",214,a,0.04002065327949822,colour,0.5
031,63,1,2,1,20,20,51.354763015173376,52.04799051932059,"[72, 0, 182]",182,l,0.16994215175509453,colour,0.5
031,63,1,2,1,21,21,52.55786226736382,53.207973095588386,"[38, 0, 216]",216,a,0.12714488478377461,colour,0.5
031,63,1,2,1,22,22,53.714113153517246,54.24804101046175,"[62, 0, 192]",192,a,0.010678344406187534,colour,0.5
031,63,1,2,1,23,23,54.76107258419506,55.38396196393296,"[22, 0, 232]",232,a,0.09784511127509177,colour,0.5
031,63,1,2,1,24,24,55.903452610829845,56.94393485155888,"[66, 0, 188]",188,l,0.5172024019993842,colour,0.5
031,63,1,2,1,25,25,57.45035375235602,58.06395270070061,"[82, 0, 172]",172,l,0.09030965738929808,colour,0.5
031,63,1,2,1,26,26,58.5753423308488,59.3039966695942,"[96, 0, 158]",158,l,0.2052622539922595,colour,0.5
031,63,1,2,1,27,27,59.82533327257261,60.67999388766475,"[7, 0, 247]",247,a,0.3313185488805175,colour,0.5
031,63,1,2,1,28,28,61.200314761605114,61.79191977833398,"[26, 0, 228]",228,l,0.06832872261293232,colour,0.5
031,63,1,2,1,29,29,62.30964402644895,66.40796372201294,"[58, 0, 196]",196,l,3.5749536047223955,colour,0.5
031,63,1,2,1,30,30,66.92021666257642,67.57593940128572,"[48, 0, 206]",206,a,0.13233380485326052,colour,0.5
031,63,1,2,1,31,31,68.09216191479936,73.13601232576184,"[43, 0, 211]",211,l,4.520546547835693,colour,0.5
031,63,1,2,1,32,32,73.65465896110982,76.59194411803037,"[65, 0, 189]",189,l,2.4143089735880494,colour,0.5
031,63,1,2,1,33,33,77.10781807801686,78.02395055815578,"[78, 0, 176]",176,l,0.3929605553857982,colour,0.5
031,63,1,2,1,34,34,78.54523359797895,81.50394830550067,"[20, 0, 234]",234,a,2.435451410477981,colour,0.5
031,63,1,2,1,35,35,82.01522214501165,82.77604266768321,"[12, 0, 242]",242,a,0.23751823510974646,colour,0.5
031,63,1,2,1,36,36,83.29644979420118,87.42409486346878,"[74, 0, 180]",180,l,3.604292369214818,colour,0.5
031,63,1,2,1,37,37,87.93708035722375,90.0799522974994,"[98, 0, 156]",156,l,1.6195944647770375,colour,0.5
031,63,1,2,1,38,38,90.59453089814633,92.6959576443769,"[81, 0, 173]",173,l,1.5781201261561364,colour,0.5
031,63,1,2,1,39,39,93.20455175614916,94.63192184222862,"[6, 0, 248]",248,a,0.9046526595484465,colour,0.5
031,63,1,2,1,40,40,95.14136547967792,96.82406430086121,"[32, 0, 222]",222,a,1.1594004719518125,colour,0.5
031,63,1,2,1,41,41,97.34447379037738,99.44796980312094,"[44, 0, 210]",210,a,1.5800791156943887,colour,0.5
031,63,1,2,1,42,42,99.96952577796765,101.40791724831797,"[67, 0, 187]",187,l,0.9150588563643396,colour,0.5
031,63,1,2,1,43,43,101.92257658741437,103.09594598645344,"[10, 0, 244]",244,a,0.6499682560097426,colour,0.5
031,63,1,2,1,44,44,103.61008781194687,105.159962490201,"[3, 0, 251]",251,a,1.0264436027500778,colour,0.5
031,63,1,2,1,45,45,105.67385422345251,109.37595113785937,"[15, 0, 239]",239,a,3.1788324357476085,colour,0.5
031,63,1,2,1,46,46,109.89270888804458,111.73593536834233,"[34, 0, 220]",220,a,1.320124660152942,colour,0.5
031,63,1,2,1,47,47,112.24264256446622,113.43993849703111,"[59, 0, 195]",195,l,0.6740184570662677,colour,0.5
031,63,1,2,1,48,48,113.96354207699187,114.98411422478966,"[33, 0, 221]",221,a,0.49756366899237037,colour,0.5
031,63,1,2,1,49,49,115.50330948736519,116.6399649635423,"[77, 0, 177]",177,l,0.613295293180272,colour,0.5
031,63,1,2,1,50,50,117.15967222582549,118.94411523314193,"[73, 0, 181]",181,l,1.26118601183407,colour,0.5
031,63,1,2,2,1,51,124.12760962313041,126.39196727611125,"[52, 0, 202]",202,a,1.7403239933773875,colour,0.5
031,63,1,2,2,2,52,126.90405243821442,127.92795337177813,"[47, 0, 207]",207,a,0.5004923073574901,colour,0.5
031,63,1,2,2,3,53,128.4354915828444,130.94391122087836,"[59, 0, 195]",195,a,1.9851764272898436,colour,0.5
031,63,1,2,2,4,54,131.45103943813592,132.59191812411882,"[67, 0, 187]",187,l,0.6175393767189234,colour,0.5
031,63,1,2,2,5,55,133.107575468719,134.38393715163693,"[85, 0, 169]",169,l,0.7532295365817845,colour,0.5
031,63,1,2,2,6,56,134.9042442413047,136.07193950214423,"[34, 0, 220]",220,a,0.6445193977560848,colour,0.5
031,63,1,2,2,7,57,136.59163613058627,137.98391415108927,"[35, 0, 219]",219,a,0.868833554442972,colour,0.5
031,63,1,2,2,8,58,138.49794018594548,139.92793328571133,"[3, 0, 251]",251,a,0.9067731257528067,colour,0.5
031,63,1,2,2,9,59,140.4354494411964,142.03193027037196,"[8, 0, 246]",246,a,1.073174996767193,colour,0.5
031,63,1,2,2,10,60,142.54466921673156,143.91193683980964,"[20, 0, 234]",234,a,0.8438782952725887,colour,0.5
031,63,1,2,2,11,61,144.41972435521893,146.0399107702542,"[68, 0, 186]",186,l,1.096721862675622,colour,0.5
031,63,1,2,2,12,62,146.54601301904768,147.7762088708114,"[11, 0, 243]",243,a,0.7071877669077367,colour,0.5
031,63,1,2,2,13,63,148.29596969601698,149.54390515573323,"[2, 0, 252]",252,a,0.724476421251893,colour,0.5
031,63,1,2,2,14,64,150.06162704061717,151.22395654465072,"[92, 0, 162]",162,l,0.6389740470331162,colour,0.5
031,63,1,2,2,15,65,151.73350691446103,153.01588223059662,"[49, 0, 205]",205,a,0.7591596744023263,colour,0.5
031,63,1,2,2,16,66,153.53036788362078,154.91191596584395,"[10, 0, 244]",244,a,0.8582733636721969,colour,0.5
031,63,1,2,2,17,67,155.42094606533647,156.77590718469582,"[91, 0, 163]",163,l,0.8315863639581949,colour,0.5
031,63,1,2,2,18,68,157.29599214508198,158.743907203665,"[71, 0, 183]",183,l,0.9245828383136541,colour,0.5
031,63,1,2,2,19,69,159.26471487130038,160.93587715784088,"[73, 0, 181]",181,l,1.1478340048342943,colour,0.5
031,63,1,2,2,20,70,161.4534517445136,162.5518872309476,"[13, 0, 241]",241,a,0.5751292603090405,colour,0.5
031,63,1,2,2,21,71,163.06273611076176,164.34392437525094,"[75, 0, 179]",179,l,0.7578973984345794,colour,0.5
031,63,1,2,2,22,72,164.85960653214715,166.01590664917603,"[24, 0, 230]",230,a,0.633021853864193,colour,0.5
031,63,1,2,2,23,73,166.53150649229065,168.0159641506616,"[76, 0, 178]",178,l,0.9611297706142068,colour,0.5
031,63,1,2,2,24,74,168.53146395692602,169.94388089468703,"[99, 0, 155]",155,l,0.8891284347046167,colour,0.5
031,63,1,2,2,25,75,170.45342456921935,172.92791674425825,"[77, 0, 177]",177,l,1.9512466012965888,colour,0.5
031,63,1,2,2,26,76,173.43777076923288,174.51988094835542,"[22, 0, 232]",232,a,0.558903202181682,colour,0.5
031,63,1,2,2,27,77,175.03148246766068,176.2398860368412,"[83, 0, 171]",171,l,0.6837968637701124,colour,0.5
031,63,1,2,2,28,78,176.75138318701647,177.9838468034286,"[60, 0, 194]",194,a,0.7092546701896936,colour,0.5
031,63,1,2,2,29,79,178.50141351297498,179.75986387114972,"[19, 0, 235]",235,a,0.7355403408873826,colour,0.5
031,63,1,2,2,30,80,180.26698854379356,182.26387479808182,"[38, 0, 216]",216,a,1.4735347356181592,colour,0.5
031,63,1,2,2,31,81,182.7826541592367,184.52790713426657,"[57, 0, 197]",197,a,1.2218581335619092,colour,0.5
031,63,1,2,2,32,82,185.0482961437665,186.5119240791537,"[27, 0, 227]",227,a,0.9390176851302385,colour,0.5
031,63,1,2,2,33,83,187.0183161983732,188.18385712220334,"[74, 0, 180]",180,l,0.6426569002214819,colour,0.5
031,63,1,2,2,34,84,188.69015511241741,189.78386287228204,"[55, 0, 199]",199,a,0.5704216198064387,colour,0.5
031,63,1,2,2,35,85,190.29949934314936,191.43219272932038,"[78, 0, 176]",176,l,0.6093824338167906,colour,0.5
031,63,1,2,2,36,86,191.94014802318998,193.0638168239966,"[48, 0, 206]",206,a,0.6002526916563511,colour,0.5
031,63,1,2,2,37,87,193.58079237071797,194.99216522322968,"[0, 0, 254]",254,a,0.8882324353326112,colour,0.5
031,63,1,2,2,38,88,195.50404794840142,196.9599100300111,"[9, 0, 245]",245,a,0.9324952031020075,colour,0.5
031,63,1,2,2,39,89,197.4728171483148,199.24790867813863,"[32, 0, 222]",222,a,1.251938509522006,colour,0.5
031,63,1,2,2,40,90,199.7541042685043,200.90390277677216,"[87, 0, 167]",167,l,0.6264532913919538,colour,0.5
031,63,1,2,2,41,91,201.4103169515729,203.0318983688485,"[29, 0, 225]",225,a,1.0982783418148756,colour,0.5
031,63,1,2,2,42,92,203.55094396998174,205.1198717323132,"[53, 0, 201]",201,a,1.0457215730566531,colour,0.5
031,63,1,2,2,43,93,205.6303744215984,206.96789722517133,"[65, 0, 189]",189,l,0.8142445404082537,colour,0.5
031,63,1,2,2,44,94,207.474148347741,208.8319006531965,"[37, 0, 217]",217,a,0.8345685654785484,colour,0.5
031,63,1,2,2,45,95,209.34905776311643,211.15986993629485,"[18, 0, 236]",236,a,1.2882475587539375,colour,0.5
031,63,1,2,2,46,96,211.67733306461014,212.74385521607473,"[63, 0, 191]",191,l,0.5433175375219434,colour,0.5
031,63,1,2,2,47,97,213.25531888916157,214.4798323318828,"[88, 0, 166]",166,l,0.7011063918471336,colour,0.5
031,63,1,2,2,48,98,214.9897426769603,216.1278652290348,"[21, 0, 233]",233,a,0.6148478335235268,colour,0.5
031,63,1,2,2,49,99,216.64591400627978,217.92793092271313,"[97, 0, 157]",157,l,0.7587110842578113,colour,0.5
031,63,1,2,2,50,100,218.44275725237094,219.68012858298607,"[12, 0, 242]",242,a,0.7140903105027974,colour,0.5
031,63,1,2,3,1,101,224.58266392652877,225.4318516587373,"[20, 0, 234]",234,a,0.32523008482530713,colour,0.5
031,63,1,2,3,2,102,225.94403016241267,228.7998967336025,"[14, 0, 240]",240,a,2.3326095757074654,colour,0.5
031,63,1,2,3,3,103,229.31904512853362,230.751851469744,"[0, 0, 254]",254,a,0.9100050255656242,colour,0.5
031,63,1,2,3,4,104,231.27214398700744,232.35187533684075,"[69, 0, 185]",185,l,0.5563302068039775,colour,0.5
031,63,1,2,3,5,105,232.86585371615365,234.09617874934338,"[52, 0, 202]",202,a,0.706957760732621,colour,0.5
031,63,1,2,3,6,106,234.61586553161032,235.80782997212373,"[34, 0, 220]",220,a,0.6689547803252935,colour,0.5
031,63,1,2,3,7,107,236.32022784790024,237.77598083391786,"[31, 0, 223]",223,a,0.9325145012699068,colour,0.5
031,63,1,2,3,8,108,238.28888007556088,239.85586617747322,"[91, 0, 163]",163,l,1.043444749666378,colour,0.5
031,63,1,2,3,9,109,240.3670454940293,242.1198729139287,"[77, 0, 177]",177,l,1.2294786584097892,colour,0.5
031,63,1,2,3,10,110,242.6327363154851,244.01586175058037,"[13, 0, 241]",241,a,0.8597235043998808,colour,0.5
031,63,1,2,3,11,111,244.52327314321883,245.67180858785287,"[63, 0, 191]",191,l,0.6251469044946134,colour,0.5
031,63,1,2,3,12,112,246.17954766005278,247.26381887192838,"[22, 0, 232]",232,a,0.5609448994509876,colour,0.5
031,63,1,2,3,13,113,247.7733739677351,249.2797790840268,"[6, 0, 248]",248,a,0.9831926252227277,colour,0.5
031,63,1,2,3,14,114,249.78889543563128,251.03182235662825,"[62, 0, 192]",192,l,0.7179586649872363,colour,0.5
031,63,1,2,3,15,115,251.5405629791785,252.62387241912074,"[17, 0, 237]",237,a,0.5606617240700871,colour,0.5
031,63,1,2,3,16,116,253.13430382218212,254.45590107236058,"[28, 0, 226]",226,a,0.7983934239018708,colour,0.5
031,63,1,2,3,17,117,254.96245033619925,256.6158907378558,"[12, 0, 242]",242,a,1.1302003415767103,colour,0.5
031,63,1,2,3,18,118,257.13425931776874,259.5358525819611,"[4, 0, 250]",250,a,1.8782858564518392,colour,0.5
031,63,1,2,3,19,119,260.05616400390863,261.2238698985893,"[68, 0, 186]",186,l,0.6434493183623999,colour,0.5
031,63,1,2,3,20,120,261.7449044215027,262.93578342255205,"[81, 0, 173]",173,l,0.6675711993593723,colour,0.5
031,63,1,2,3,21,121,263.4480946522672,264.7038353504613,"[1, 0, 253]",253,a,0.732465585693717,colour,0.5
031,63,1,2,3,22,122,265.21363187395036,266.4318618988618,"[74, 0, 180]",180,l,0.6948729925788939,colour,0.5
031,63,1,2,3,23,123,266.94798791990615,268.0318038458936,"[38, 0, 216]",216,a,0.560460468987003,colour,0.5
031,63,1,2,3,24,124,268.5417886276264,269.63987792353146,"[58, 0, 196]",196,l,0.5747310819569975,colour,0.5
031,63,1,2,3,25,125,270.15115963993594,271.24784684437327,"[8, 0, 246]",246,a,0.5726858400739729,colour,0.5
031,63,1,2,3,26,126,271.7616554761771,272.88781259558164,"[84, 0, 170]",170,l,0.6027725178282708,colour,0.5
031,63,1,2,3,27,127,273.40231912233867,274.5838545227889,"[95, 0, 159]",159,l,0.6583366941194981,colour,0.5
031,63,1,2,3,28,128,275.10545972851105,276.7918378585018,"[32, 0, 222]",222,a,1.163027792936191,colour,0.5
031,63,1,2,3,29,129,277.3085302300751,278.79182801232673,"[9, 0, 245]",245,a,0.959928146796301,colour,0.5
031,63,1,2,3,30,130,279.30857040244155,280.74381976993755,"[29, 0, 225]",225,a,0.9118383782915771,colour,0.5
031,63,1,2,3,31,131,281.26279054023325,282.32011481397785,"[92, 0, 162]",162,l,0.53388965385966,colour,0.5
031,63,1,2,3,32,132,282.8409988877829,283.8718137864489,"[41, 0, 213]",213,a,0.5073995769489557,colour,0.5
031,63,1,2,3,33,133,284.38785355561413,287.92783246119507,"[60, 0, 194]",194,a,3.0167037933133543,colour,0.5
031,63,1,2,3,34,134,288.4347302785609,289.5918358103372,"[98, 0, 156]",156,l,0.6338761055376381,colour,0.5
031,63,1,2,3,35,135,290.10660542640835,291.66382651240565,"[76, 0, 178]",178,l,1.0327628606464714,colour,0.5
031,63,1,2,3,36,136,292.170332059497,294.1117998601403,"[85, 0, 169]",169,l,1.4181536976248026,colour,0.5
031,63,1,2,3,37,137,294.62340886262245,295.65586964343674,"[50, 0, 204]",204,a,0.5091935454402119,colour,0.5
031,63,1,2,3,38,138,296.17033127183095,297.27180724870414,"[99, 0, 155]",155,l,0.578235523076728,colour,0.5
031,63,1,2,3,39,139,297.77965935482644,299.2558301012032,"[55, 0, 199]",199,a,0.9528916955459863,colour,0.5
031,63,1,2,3,40,140,299.7641693947371,301.43980537727475,"[40, 0, 214]",214,a,1.1527791344560683,colour,0.5
031,63,1,2,3,41,141,301.95153213944286,304.19179508672096,"[42, 0, 212]",212,a,1.7171260747127235,colour,0.5
031,63,1,2,3,42,142,304.70153410872445,306.0638684176374,"[80, 0, 174]",174,l,0.8392403656616807,colour,0.5
031,63,1,2,3,43,143,306.5779153262265,308.3037867497187,"[93, 0, 161]",161,l,1.2026668093167245,colour,0.5
031,63,1,2,3,44,144,308.81225286168046,309.93581571802497,"[30, 0, 224]",224,a,0.6006213314831257,colour,0.5
031,63,1,2,3,45,145,310.4528282864485,312.1278195430059,"[3, 0, 251]",251,a,1.151686999714002,colour,0.5
031,63,1,2,3,46,146,312.6403981940821,313.6798012969084,"[79, 0, 175]",175,l,0.5161264149937779,colour,0.5
031,63,1,2,3,47,147,314.18722489872016,315.6557892987039,"[73, 0, 181]",181,l,0.9452845614869148,colour,0.5
031,63,1,2,3,48,148,316.17289520869963,317.7518179928884,"[35, 0, 219]",219,a,1.055672483984381,colour,0.5
031,63,1,2,3,49,149,318.26660848245956,319.34377786470577,"[67, 0, 187]",187,l,0.5539261712692678,colour,0.5
031,63,1,2,3,50,150,319.8602985194884,320.90378934913315,"[18, 0, 236]",236,a,0.5201814526226372,colour,0.5
031,63,1,2,4,1,151,325.7044867714867,326.74380204686895,"[86, 0, 168]",168,l,0.5152631048113108,colour,0.5
031,63,1,2,4,2,152,327.25210431893356,328.543780306587,"[90, 0, 164]",164,l,0.7686040997505188,colour,0.5
031,63,1,2,4,3,153,329.06468682945706,330.2238608400803,"[3, 0, 251]",251,a,0.6358922028448433,colour,0.5
031,63,1,2,4,4,154,330.7364938419778,331.83982325787656,"[62, 0, 192]",192,l,0.5799826236907393,colour,0.5
031,63,1,2,4,5,155,332.3614587895572,333.0238528845366,"[49, 0, 205]",205,a,0.13907172111794353,colour,0.5
031,63,1,2,4,6,156,333.533306368161,334.92784348875284,"[8, 0, 246]",246,a,0.8712198666762561,colour,0.5
031,63,1,2,4,7,157,335.4396096356213,336.8717511650175,"[61, 0, 193]",193,a,0.9087620477657765,colour,0.5
031,63,1,2,4,8,158,337.3927344880067,338.89578836923465,"[54, 0, 200]",200,a,0.9797697102185339,colour,0.5
031,63,1,2,4,9,159,339.40824256511405,340.7278115085792,"[77, 0, 177]",177,l,0.7961020281072706,colour,0.5
031,63,1,2,4,10,160,341.23761630267836,342.4718057520222,"[50, 0, 204]",204,a,0.7107902753632516,colour,0.5
031,63,1,2,4,11,161,342.98764938581735,344.2877867592033,"[21, 0, 233]",233,a,0.776806334964931,colour,0.5
031,63,1,2,4,12,162,344.8001468258444,345.95180901302956,"[92, 0, 162]",162,l,0.6287639853544533,colour,0.5
031,63,1,2,4,13,163,346.4720014934428,347.7518148419913,"[12, 0, 242]",242,a,0.7567422483116388,colour,0.5
031,63,1,2,4,14,164,348.268951471895,351.2317850200925,"[64, 0, 190]",190,a,2.4397069157566875,colour,0.5
031,63,1,2,4,15,165,351.73893844359554,352.84778800373897,"[98, 0, 156]",156,l,0.5855275802314281,colour,0.5
031,63,1,2,4,16,166,353.3639624682255,354.39981032395735,"[2, 0, 252]",252,a,0.5125821956899017,colour,0.5
031,63,1,2,4,17,167,354.91082422505133,356.3837571640033,"[33, 0, 221]",221,a,0.9495865404605865,colour,0.5
031,63,1,2,4,18,168,356.89517475734465,359.99227392463945,"[19, 0, 235]",235,a,2.5738071193918586,colour,0.5
031,63,1,2,4,19,169,360.5058671226725,363.01574792922474,"[84, 0, 170]",170,l,1.9864725740626454,colour,0.5
031,63,1,2,4,20,170,363.5371022550389,364.9277615689207,"[14, 0, 240]",240,a,0.8673164600040764,colour,0.5
031,63,1,2,4,21,171,365.44332990422845,367.0077973615844,"[99, 0, 155]",155,l,1.0410930956713855,colour,0.5
031,63,1,2,4,22,172,367.5214500303846,369.4480883507058,"[71, 0, 183]",183,l,1.4033663587179035,colour,0.5
031,63,1,2,4,23,173,369.9590498704929,371.5917700382415,"[60, 0, 194]",194,a,1.1072174629662186,colour,0.5
031,63,1,2,4,24,174,372.1018079891801,374.8957509540487,"[34, 0, 220]",220,a,2.2707355939783156,colour,0.5
031,63,1,2,4,25,175,375.41429991531186,376.7597405973356,"[81, 0, 173]",173,l,0.8221218527760357,colour,0.5
031,63,1,2,4,26,176,377.27360200462863,378.9681004497688,"[4, 0, 250]",250,a,1.1710433452390134,colour,0.5
031,63,1,2,4,27,177,379.4767516690772,380.81578684109263,"[75, 0, 179]",179,l,0.8159420164301991,colour,0.5
031,63,1,2,4,28,178,381.32183710229583,383.00023827678524,"[57, 0, 197]",197,a,1.1551465422380716,colour,0.5
031,63,1,2,4,29,179,383.50930185313337,385.9917398695834,"[24, 0, 230]",230,a,1.9591550272889435,colour,0.5
031,63,1,2,4,30,180,386.5092821607832,389.7837978878524,"[39, 0, 215]",215,a,2.75121659017168,colour,0.5
031,63,1,2,4,31,181,390.290610634489,398.0077693986241,"[30, 0, 224]",224,a,7.193844267167151,colour,0.5
031,63,1,2,4,32,182,398.52601391705684,400.5757724107243,"[41, 0, 213]",213,a,1.5227170328143984,colour,0.5
031,63,1,2,4,33,183,401.0922280808445,403.63175327610224,"[15, 0, 239]",239,a,2.0162150303367525,colour,0.5
031,63,1,2,4,34,184,404.13917845324613,409.72780205635354,"[35, 0, 219]",219,a,5.065540687646717,colour,0.5
031,63,1,2,4,35,185,410.23404372646473,411.311785366619,"[42, 0, 212]",212,a,0.5545417524408549,colour,0.5
031,63,1,2,4,36,186,411.8278125326615,412.78372857091017,"[74, 0, 180]",180,l,0.43264250131323934,colour,0.5
031,63,1,2,4,37,187,413.29644703725353,414.59176255506463,"[58, 0, 196]",196,a,0.7718734147492796,colour,0.5
031,63,1,2,4,38,188,415.1089858310297,416.2317649340257,"[70, 0, 184]",184,l,0.59820311749354,colour,0.5
031,63,1,2,4,39,189,416.75084283039905,418.27974836411886,"[51, 0, 203]",203,a,1.0057095843367279,colour,0.5
031,63,1,2,4,40,190,418.79770852578804,420.248350573238,"[1, 0, 253]",253,a,0.9273755997419357,colour,0.5
031,63,1,2,4,41,191,420.7664320396725,422.5597550908569,"[22, 0, 232]",232,a,1.2700841727200896,colour,0.5
031,63,1,2,4,42,192,423.07888694433495,424.5597294908948,"[32, 0, 222]",222,a,0.9575016619637609,colour,0.5
031,63,1,2,4,43,193,425.07886607036926,426.3997201330494,"[7, 0, 247]",247,a,0.7975612271111459,colour,0.5
031,63,1,2,4,44,194,426.9077738884371,428.3197178172413,"[43, 0, 211]",211,a,0.8893726191017777,colour,0.5
031,63,1,2,4,45,195,428.8289905257989,430.14373997668736,"[25, 0, 229]",229,a,0.7915239632129669,colour,0.5
031,63,1,2,4,46,196,430.6581208666321,431.87975293258205,"[59, 0, 195]",195,l,0.6986322519369423,colour,0.5
031,63,1,2,4,47,197,432.3926033372991,433.4878132257145,"[45, 0, 209]",209,a,0.5720174836460501,colour,0.5
031,63,1,2,4,48,198,434.0019007003866,435.0797077191528,"[79, 0, 175]",175,l,0.5546721154823899,colour,0.5
031,63,1,2,4,49,199,435.59564469428733,436.607737733284,"[72, 0, 182]",182,l,0.48879508348181844,colour,0.5
031,63,1,2,4,50,200,437.1268959743902,438.59201264730655,"[68, 0, 186]",186,l,0.9424595048185438,colour,0.5
031,63,1,2,5,1,201,447.7991405494977,448.51970135467127,"[6, 0, 248]",248,a,0.19658582867123187,colour,0.4
031,63,1,2,5,2,202,449.03438077983446,450.1197539723944,"[44, 0, 210]",210,a,0.5621981171425432,colour,0.4
031,63,1,2,5,3,203,450.62800346896984,453.5597279155627,"[45, 0, 209]",209,a,2.4087447186466306,colour,0.4
031,63,1,2,5,4,204,454.0811696751043,455.3196949742269,"[28, 0, 226]",226,a,0.7151725990697742,colour,0.4
031,63,1,2,5,5,205,455.83113344130106,457.47972402442247,"[12, 0, 242]",242,a,1.1252437906805426,colour,0.4
031,63,1,2,5,6,206,457.9873701489996,459.9196759122424,"[52, 0, 202]",202,a,1.4089688169769943,colour,0.4
031,63,1,2,5,7,207,460.44043907523155,461.75171992508695,"[49, 0, 205]",205,a,0.7877981807105243,colour,0.4
031,63,1,2,5,8,208,462.2686336382758,463.43170357262716,"[73, 0, 181]",181,l,0.6398007296957076,colour,0.4
031,63,1,2,5,9,209,463.9405206013471,465.3517048014328,"[64, 0, 190]",190,l,0.8879315368831158,colour,0.4
031,63,1,2,5,10,210,465.8635111206677,467.2796833794564,"[92, 0, 162]",162,l,0.8928195587359369,colour,0.4
031,63,1,2,5,11,211,467.8010503083933,468.9677054223139,"[51, 0, 203]",203,a,0.6434111152775586,colour,0.4
031,63,1,2,5,12,212,469.48846819158643,470.5277704698965,"[79, 0, 175]",175,l,0.5159940829034895,colour,0.4
031,63,1,2,5,13,213,471.0353862682823,472.1836952515878,"[81, 0, 173]",173,l,0.625153600005433,colour,0.4
031,63,1,2,5,14,214,472.69160840380937,473.7676982542034,"[10, 0, 244]",244,a,0.5527087934315205,colour,0.4
031,63,1,2,5,15,215,474.2853669698816,475.56775764608756,"[88, 0, 166]",166,l,0.7591419513337314,colour,0.4
031,63,1,2,5,16,216,476.08225472061895,477.3436990955379,"[58, 0, 196]",196,a,0.7380810410249978,colour,0.4
031,63,1,2,5,17,217,477.863474492915,479.07973725767806,"[94, 0, 160]",160,l,0.6935319472104311,colour,0.4
031,63,1,2,5,18,218,479.5978868592065,480.6638670787215,"[1, 0, 253]",253,a,0.5427496116608381,colour,0.4
031,63,1,2,5,19,219,481.17594948387705,482.3037741468288,"[99, 0, 155]",155,l,0.6044136737473309,colour,0.4
031,63,1,2,5,20,220,482.81657965295017,484.0157294184901,"[38, 0, 216]",216,a,0.6759183700196445,colour,0.4
031,63,1,2,5,21,221,484.5353295544628,485.75969057902694,"[83, 0, 171]",171,l,0.7010847304482013,colour,0.4
031,63,1,2,5,22,222,486.26968678226694,487.35168314003386,"[7, 0, 247]",247,a,0.5585648885462433,colour,0.4
031,63,1,2,5,23,223,487.863467797637,489.3276872895658,"[87, 0, 167]",167,l,0.9408955427352339,colour,0.4
031,63,1,2,5,24,224,489.84782975143753,496.26367748109624,"[68, 0, 186]",186,l,5.892594278790057,colour,0.4
031,63,1,2,5,25,225,496.7740675304085,498.35170204448514,"[90, 0, 164]",164,l,1.05449173389934,colour,0.4
031,63,1,2,5,26,226,498.8676914013922,499.89573480631225,"[23, 0, 231]",231,a,0.5047793202102184,colour,0.4
031,63,1,2,5,27,227,500.4145752135664,501.60797404078767,"[22, 0, 232]",232,a,0.6700339179951698,colour,0.4
031,63,1,2,5,28,228,502.1176646198146,503.21571334963664,"[84, 0, 170]",170,l,0.5753541463054717,colour,0.4
031,63,1,2,5,29,229,503.72703563212417,504.7756555171218,"[72, 0, 182]",182,l,0.5253428034484386,colour,0.4
031,63,1,2,5,30,230,505.28955433983356,506.3677146381233,"[9, 0, 245]",245,a,0.5533775438088924,colour,0.4
031,63,1,2,5,31,231,506.8846921543591,508.08767955447547,"[56, 0, 198]",198,a,0.6798741584643722,colour,0.4
031,63,1,2,5,32,232,508.60341803124174,510.7197219133377,"[34, 0, 220]",220,a,1.5932335695251822,colour,0.4
031,63,1,2,5,33,233,511.22844678210095,514.4636621999089,"[67, 0, 187]",187,a,2.711887530051172,colour,0.4
031,63,1,2,5,34,234,514.9783585604746,516.1436474227812,"[30, 0, 224]",224,a,0.6422173681203276,colour,0.4
031,63,1,2,5,35,235,516.6502778190188,520.3437172123231,"[0, 0, 254]",254,a,3.170499837724492,colour,0.4
031,63,1,2,5,36,236,520.8545727874152,522.367655955255,"[89, 0, 165]",165,l,0.9897332245018333,colour,0.4
031,63,1,2,5,37,237,522.8858122520614,524.479692122899,"[71, 0, 183]",183,l,1.0706980999093503,colour,0.4
031,63,1,2,5,38,238,524.9951935044955,528.4796625843737,"[65, 0, 189]",189,l,2.961162853753194,colour,0.4
031,63,1,2,5,39,239,528.9951304891147,531.1036704864819,"[98, 0, 156]",156,l,1.5851234942674637,colour,0.4
031,63,1,2,5,40,240,531.6215920513496,534.8876463926863,"[85, 0, 169]",169,l,2.743268385529518,colour,0.4
031,63,1,2,5,41,241,535.4025936329272,538.5597113741096,"[91, 0, 163]",163,l,2.6338319948408753,colour,0.4
031,63,1,2,5,42,242,539.0744924114551,539.7036762365606,"[62, 0, 192]",192,a,0.10593273723497987,colour,0.4
031,63,1,2,5,43,243,540.215015060734,543.3916683471762,"[76, 0, 178]",178,l,2.6521135347429663,colour,0.4
031,63,1,2,5,44,244,543.903707429301,547.1836830424145,"[57, 0, 197]",197,a,2.756723343860358,colour,0.4
031,63,1,2,5,45,245,547.7006455922965,549.4476842647418,"[60, 0, 194]",194,a,1.223816335434094,colour,0.4
031,63,1,2,5,46,246,549.9661761184689,551.8876345772296,"[33, 0, 221]",221,a,1.39817665098235,colour,0.4
031,63,1,2,5,47,247,552.4037716260646,554.8636753545143,"[11, 0, 243]",243,a,1.9366687883157283,colour,0.4
031,63,1,2,5,48,248,555.3724628447089,557.6076546318363,"[47, 0, 207]",207,a,1.7118126994464546,colour,0.4
031,63,1,2,5,49,249,558.1223848632071,560.65568571724,"[5, 0, 249]",249,a,2.0105022953357548,colour,0.4
031,63,1,2,5,50,250,561.1705274069682,563.3756388181355,"[69, 0, 185]",185,l,1.6818217264954,colour,0.4
031,63,1,2,6,1,251,569.6696826075204,572.7036529998295,"[64, 0, 190]",190,l,2.510056855622679,colour,0.28
031,63,1,2,6,2,252,573.2186262339819,577.9436536456924,"[65, 0, 189]",189,a,4.201804287033156,colour,0.28
031,63,1,2,6,3,253,578.452956286259,580.7836576786358,"[95, 0, 159]",159,l,1.8074294307734817,colour,0.28
031,63,1,2,6,4,254,581.2966955539305,583.247672370635,"[42, 0, 212]",212,a,1.4276607441715896,colour,0.28
031,63,1,2,6,5,255,583.7654671170749,585.3597301999107,"[63, 0, 191]",191,l,1.070913139730692,colour,0.28
031,63,1,2,6,6,256,585.876035027206,587.5516347757075,"[38, 0, 216]",216,a,1.1523687469307333,colour,0.28
031,63,1,2,6,7,257,588.0634946578648,589.8156608105637,"[59, 0, 195]",195,a,1.2288012432400137,colour,0.28
031,63,1,2,6,8,258,590.329136248678,591.9996238772292,"[86, 0, 168]",168,l,1.147158165462315,colour,0.28
031,63,1,2,6,9,259,592.5166084824596,594.4636712584179,"[61, 0, 193]",193,a,1.4237514296546578,colour,0.28
031,63,1,2,6,10,260,594.9697282148991,597.015679793898,"[2, 0, 252]",252,a,1.520777341676876,colour,0.28
031,63,1,2,6,11,261,597.5340420722496,599.6396195606794,"[50, 0, 204]",204,a,1.5822779575828463,colour,0.28
031,63,1,2,6,12,262,600.1589818138164,602.5996300212573,"[57, 0, 197]",197,a,1.9171568735037,colour,0.28
031,63,1,2,6,13,263,603.1121322661638,604.5275991468225,"[84, 0, 170]",170,l,0.8920610114000738,colour,0.28
031,63,1,2,6,14,264,605.0340566446539,606.7359519097954,"[76, 0, 178]",178,l,1.1785390204750001,colour,0.28
031,63,1,2,6,15,265,607.2527880354319,608.6877034215722,"[36, 0, 218]",218,a,0.9117812707554549,colour,0.28
031,63,1,2,6,16,266,609.2058719277848,610.7276346718427,"[49, 0, 205]",205,a,0.9984580932650715,colour,0.28
031,63,1,2,6,17,267,611.2383953300305,613.76764232805,"[35, 0, 219]",219,a,2.0059439225587994,colour,0.28
031,63,1,2,6,18,268,614.2852188837714,616.359775492223,"[40, 0, 214]",214,a,1.551429582061246,colour,0.28
031,63,1,2,6,19,269,616.8789179793093,618.4796267445199,"[99, 0, 155]",155,l,1.0773824527859688,colour,0.28
031,63,1,2,6,20,270,618.9883035637904,620.719620694872,"[15, 0, 239]",239,a,1.207949464675039,colour,0.28
031,63,1,2,6,21,271,621.2394646217581,622.9116678431164,"[30, 0, 224]",224,a,1.1487583613488823,colour,0.28
031,63,1,2,6,22,272,623.4269923877437,625.287652063882,"[79, 0, 175]",175,l,1.3372400221414864,colour,0.28
031,63,1,2,6,23,273,625.8017588371877,628.0236469029915,"[97, 0, 157]",157,l,1.698556633433327,colour,0.28
031,63,1,2,6,24,274,628.5363417386543,629.967933065258,"[27, 0, 227]",227,a,0.9083662326447666,colour,0.28
031,63,1,2,6,25,275,630.4894791939296,632.1116320819128,"[52, 0, 202]",202,a,1.098861234029755,colour,0.28
031,63,1,2,6,26,276,632.6301101509016,634.4236159466673,"[56, 0, 198]",198,a,1.2705359139945358,colour,0.28
031,63,1,2,6,27,277,634.9426233447157,636.3596037751995,"[92, 0, 162]",162,l,0.8918176146689802,colour,0.28
031,63,1,2,6,28,278,636.8662625283469,638.6716471109539,"[51, 0, 203]",203,a,1.28206811635755,colour,0.28
031,63,1,2,6,29,279,639.1787666636519,640.7996044999454,"[67, 0, 187]",187,l,1.0974217269103974,colour,0.28
031,63,1,2,6,30,280,641.3194704821799,642.7116327120457,"[28, 0, 226]",226,a,0.8690178743563592,colour,0.28
031,63,1,2,6,31,281,643.2255598914344,646.2875862917863,"[53, 0, 201]",201,a,2.5385689372196794,colour,0.28
031,63,1,2,6,32,282,646.8048977891449,648.2876634853892,"[91, 0, 163]",163,l,0.9593712484929711,colour,0.28
031,63,1,2,6,33,283,648.8049312660005,650.8236318579875,"[75, 0, 179]",179,l,1.4954270548187196,colour,0.28
031,63,1,2,6,34,284,651.3362971551251,653.071605914738,"[70, 0, 184]",184,l,1.21226168400608,colour,0.28
031,63,1,2,6,35,285,653.5861486752983,655.6235912132543,"[89, 0, 165]",165,l,1.5143678931053728,colour,0.28
031,63,1,2,6,36,286,656.1342022099998,658.4956094056834,"[77, 0, 177]",177,l,1.8380674924701452,colour,0.28
031,63,1,2,6,37,287,659.0091494347434,661.3036292113829,"[82, 0, 172]",172,l,1.7710297966841608,colour,0.28
031,63,1,2,6,38,288,661.8215066655539,663.2236513141543,"[33, 0, 221]",221,a,0.878608416300267,colour,0.28
031,63,1,2,6,39,289,663.7435807054862,666.0715625917073,"[19, 0, 235]",235,a,1.8047351308632642,colour,0.28
031,63,1,2,6,40,290,666.5885542861652,669.9595957407728,"[62, 0, 192]",192,a,2.84782975143753,colour,0.28
031,63,1,2,6,41,291,670.4790470032021,674.3595754182898,"[69, 0, 185]",185,a,3.3571323920041323,colour,0.28
031,63,1,2,6,42,292,674.8696941079106,676.1676038887817,"[87, 0, 167]",167,l,0.7747201330494136,colour,0.28
031,63,1,2,6,43,293,676.6822372339666,678.327578588156,"[60, 0, 194]",194,a,1.122044974239543,colour,0.28
031,63,1,2,6,44,294,678.838438495528,680.6796559677459,"[54, 0, 200]",200,a,1.3178903721272945,colour,0.28
031,63,1,2,6,45,295,681.1989508732222,687.8718638049904,"[66, 0, 188]",188,a,6.149561413098127,colour,0.28
031,63,1,2,6,46,296,688.3917368762195,690.5278760204092,"[96, 0, 158]",158,l,1.6127537547145039,colour,0.28
031,63,1,2,6,47,297,691.0479873686563,693.5836245168466,"[78, 0, 176]",176,l,2.0122675127349794,colour,0.28
031,63,1,2,6,48,298,694.0948786640074,695.8475855670404,"[22, 0, 232]",232,a,1.2293679874856025,colour,0.28
031,63,1,2,6,49,299,696.3605143469758,698.1755619393662,"[88, 0, 166]",166,l,1.2920383259188384,colour,0.28
031,63,1,2,6,50,300,698.6884517287835,702.3435659755487,"[90, 0, 164]",164,l,3.132514974102378,colour,0.28
031,63,1,2,7,1,301,711.5343681767117,717.3117593727075,"[84, 0, 170]",170,l,5.253765560686588,colour,0.14
031,63,1,2,7,2,302,717.8319892685395,720.5355784650892,"[78, 0, 176]",176,l,2.1805637823417783,colour,0.14
031,63,1,2,7,3,303,721.0521132985596,726.1835436208639,"[77, 0, 177]",177,a,4.61023865477182,colour,0.14
031,63,1,2,7,4,304,726.6960541366134,729.86353238835,"[79, 0, 175]",175,l,2.6443047516513616,colour,0.14
031,63,1,2,7,5,305,730.383527158061,732.1035389420576,"[65, 0, 189]",189,a,1.197056868346408,colour,0.14
031,63,1,2,7,6,306,732.6179887549952,735.319552402012,"[71, 0, 183]",183,a,2.178572891280055,colour,0.14
031,63,1,2,7,7,307,735.8378398497589,739.8635402652435,"[76, 0, 178]",178,a,3.50269666290842,colour,0.14
031,63,1,2,7,8,308,740.3847736804746,743.415564160794,"[89, 0, 165]",165,l,2.5075484509579837,colour,0.14
031,63,1,2,7,9,309,743.9316137759015,746.759553914424,"[98, 0, 156]",156,l,2.304675660096109,colour,0.14
031,63,1,2,7,10,310,747.2765845996328,749.279547896469,"[69, 0, 185]",185,a,1.479781131958589,colour,0.14
031,63,1,2,7,11,311,749.7922076797113,751.6955653738696,"[80, 0, 174]",174,l,1.3799045633058995,colour,0.14
031,63,1,2,7,12,312,752.2141651413403,755.7675478050951,"[50, 0, 204]",204,a,3.030155994463712,colour,0.14
031,63,1,2,7,13,313,756.2778232451528,758.4875489550177,"[72, 0, 182]",182,l,1.686320234555751,colour,0.14
031,63,1,2,7,14,314,758.9965589682106,761.2875701440498,"[55, 0, 199]",199,a,1.7676671403460205,colour,0.14
031,63,1,2,7,15,315,761.8089544021059,763.3515389924869,"[75, 0, 179]",179,l,1.019182659452781,colour,0.14
031,63,1,2,7,16,316,763.8715093436185,767.0877803789917,"[93, 0, 161]",161,l,2.692904156865552,colour,0.14
031,63,1,2,7,17,317,767.6070603183471,771.2156881433912,"[86, 0, 168]",168,l,3.0854429034516215,colour,0.14
031,63,1,2,7,18,318,771.7321217583958,772.8715467590373,"[57, 0, 197]",197,a,0.6165614572819322,colour,0.14
031,63,1,2,7,19,319,773.388303327607,775.3435687324964,"[94, 0, 160]",160,l,1.4319221570622176,colour,0.14
031,63,1,2,7,20,320,775.8582812407985,778.1115214109886,"[6, 0, 248]",248,a,1.7299500918015838,colour,0.14
031,63,1,2,7,21,321,778.6238822652958,780.4554946231656,"[70, 0, 184]",184,l,1.308332125423476,colour,0.14
031,63,1,2,7,22,322,780.9675801792182,783.6155024056789,"[59, 0, 195]",195,a,2.1246727141551673,colour,0.14
031,63,1,2,7,23,323,784.1341029608157,788.9035774602089,"[92, 0, 162]",162,l,4.246134402463213,colour,0.14
031,63,1,2,7,24,324,789.4215273817535,791.8315394965466,"[91, 0, 163]",163,l,1.8866791070904583,colour,0.14
031,63,1,2,7,25,325,792.3434033172671,796.8235905042384,"[95, 0, 159]",159,l,3.956926253158599,colour,0.14
031,63,1,2,7,26,326,797.3446112426464,802.063547433354,"[97, 0, 157]",157,l,4.195602001389489,colour,0.14
031,63,1,2,7,27,327,802.5789231781382,804.9674836869817,"[67, 0, 187]",187,a,1.8652046581264585,colour,0.14
031,63,1,2,7,28,328,805.4851925750263,807.8395420517772,"[51, 0, 203]",203,a,1.8312189059797674,colour,0.14
031,63,1,2,7,29,329,808.3601906057447,810.703516729176,"[3, 0, 251]",251,a,1.8200907895807177,colour,0.14
031,63,1,2,7,30,330,811.2207589095924,815.3195134112611,"[99, 0, 155]",155,l,3.5755640661809593,colour,0.14
031,63,1,2,7,31,331,815.8301633987576,818.1278400230221,"[42, 0, 212]",212,a,1.774530299473554,colour,0.14
031,63,1,2,7,32,332,818.6425608019345,821.1115017188713,"[32, 0, 222]",222,a,1.9456051522865891,colour,0.14
031,63,1,2,7,33,333,821.6281310750637,824.0635623994749,"[64, 0, 190]",190,a,1.91213021799922,colour,0.14
031,63,1,2,7,34,334,824.5812437182758,826.9835317267571,"[38, 0, 216]",216,a,1.8790711853653193,colour,0.14
031,63,1,2,7,35,335,827.5031212288886,830.7275047025178,"[66, 0, 188]",188,a,2.701226908713579,colour,0.14
031,63,1,2,7,36,336,831.2387080437038,833.9114965200424,"[56, 0, 198]",198,a,2.149466102477163,colour,0.14
031,63,1,2,7,37,337,834.4260952067561,836.4394954203162,"[60, 0, 194]",194,a,1.4900246704928577,colour,0.14
031,63,1,2,7,38,338,836.9573563330341,839.1355074152816,"[68, 0, 186]",186,l,1.6549405606929213,colour,0.14
031,63,1,2,7,39,339,839.644880554406,841.3995015486144,"[17, 0, 237]",237,a,1.2313573032151908,colour,0.14
031,63,1,2,7,40,340,841.9116784769576,844.5354740959592,"[82, 0, 172]",172,l,2.1000868822447956,colour,0.14
031,63,1,2,7,41,341,845.0522795014549,847.5914789859671,"[52, 0, 202]",202,a,2.020374043378979,colour,0.14
031,63,1,2,7,42,342,848.1102453502826,850.3194897805806,"[54, 0, 200]",200,a,1.6860319394618273,colour,0.14
031,63,1,2,7,43,343,850.8301602480933,852.7915026955307,"[88, 0, 166]",166,l,1.4379889597184956,colour,0.14
031,63,1,2,7,44,344,853.2989215711132,855.9274949352257,"[35, 0, 219]",219,a,2.105564491590485,colour,0.14
031,63,1,2,7,45,345,856.439535198966,858.7994954045862,"[63, 0, 191]",191,l,1.83659529639408,colour,0.14
031,63,1,2,7,46,346,859.3145135373343,862.0234964538831,"[58, 0, 196]",196,a,2.185656604124233,colour,0.14
031,63,1,2,7,47,347,862.5343890504446,865.1918171420693,"[81, 0, 173]",173,l,2.1341037484817207,colour,0.14
031,63,1,2,7,48,348,865.7063035827596,867.7434720038436,"[61, 0, 193]",193,a,1.5138440779410303,colour,0.14
031,63,1,2,7,49,349,868.2534036166035,870.1754556009546,"[96, 0, 158]",158,l,1.3990884041413665,colour,0.14
031,63,1,2,7,50,350,870.691393363988,872.8555034454912,"[73, 0, 181]",181,l,1.640882624546066,colour,0.14
031,63,1,2,8,1,351,878.9937626621686,882.7834729650058,"[67, 0, 187]",187,l,3.278156438842416,colour,0.06
031,63,1,2,8,2,352,883.2946723676287,886.1274327863939,"[75, 0, 179]",179,a,2.309552260208875,colour,0.06
031,63,1,2,8,3,353,886.6383175060619,888.4954845565371,"[59, 0, 195]",195,a,1.3338730335235596,colour,0.06
031,63,1,2,8,4,354,889.0133627983741,890.7914613417815,"[7, 0, 247]",247,a,1.2549085018690675,colour,0.06
031,63,1,2,8,5,355,891.3101792628877,892.9114677691832,"[69, 0, 185]",185,l,1.0780039415694773,colour,0.06
031,63,1,2,8,6,356,893.421818434028,895.0474903350696,"[57, 0, 197]",197,a,1.1024235703516752,colour,0.06
031,63,1,2,8,7,357,895.5622914587148,896.8554731192999,"[84, 0, 170]",170,l,0.7697687020990998,colour,0.06
031,63,1,2,8,8,358,897.3748322217725,898.6874423015397,"[92, 0, 162]",162,l,0.789288493571803,colour,0.06
031,63,1,2,8,9,359,899.2030834986363,900.7036179474089,"[93, 0, 161]",161,l,0.9774231764022261,colour,0.06
031,63,1,2,8,10,360,901.2197837471031,902.8799845140893,"[76, 0, 178]",178,l,1.1370390821248293,colour,0.06
031,63,1,2,8,11,361,903.3916829193477,904.9675431577489,"[70, 0, 184]",184,a,1.052563464269042,colour,0.06
031,63,1,2,8,12,362,905.4867136077955,907.6954306785483,"[33, 0, 221]",221,a,1.6854789797216654,colour,0.06
031,63,1,2,8,13,363,908.2054737494327,909.2474557554815,"[78, 0, 176]",176,l,0.5186521490104496,colour,0.06
031,63,1,2,8,14,364,909.7655214678962,910.8954331201967,"[91, 0, 163]",163,l,0.6066940415184945,colour,0.06
031,63,1,2,8,15,365,911.409500508802,913.0954552544281,"[98, 0, 156]",156,l,1.1628017253242433,colour,0.06
031,63,1,2,8,16,366,913.6125111458823,916.5675934124738,"[71, 0, 183]",183,a,2.4318831665441394,colour,0.06
031,63,1,2,8,17,367,917.081261047395,918.8874467127025,"[29, 0, 225]",225,a,1.2829491498414427,colour,0.06
031,63,1,2,8,18,368,919.3937927519437,921.0474355905317,"[55, 0, 199]",199,a,1.1303531536832452,colour,0.06
031,63,1,2,8,19,369,921.565577709116,923.2554681568872,"[90, 0, 164]",164,l,1.1665590154007077,colour,0.06
031,63,1,2,8,20,370,923.768718709005,925.2874177256599,"[52, 0, 202]",202,a,0.9955723842140287,colour,0.06
031,63,1,2,8,21,371,925.8012669235468,927.4794250952546,"[73, 0, 181]",181,a,1.1549476499203593,colour,0.06
031,63,1,2,8,22,372,927.98875254835,929.8714447529055,"[63, 0, 191]",191,a,1.3718689249362797,colour,0.06
031,63,1,2,8,23,373,930.3826004385483,932.1355105661787,"[58, 0, 196]",196,a,1.22967794444412,colour,0.06
031,63,1,2,8,24,374,932.6482317894697,934.3514929125085,"[50, 0, 204]",204,a,1.1800569030456245,colour,0.06
031,63,1,2,8,25,375,934.867009260226,936.8795709758997,"[54, 0, 200]",200,a,1.4893023571930826,colour,0.06
031,63,1,2,8,26,376,937.3994507426396,940.6075459304266,"[66, 0, 188]",188,a,2.684905539965257,colour,0.06
031,63,1,2,8,27,377,941.1181258133147,942.8954449356534,"[95, 0, 159]",159,l,1.2541672836523503,colour,0.06
031,63,1,2,8,28,378,943.4150415272452,945.0874534868635,"[80, 0, 174]",174,l,1.1491317274048924,colour,0.06
031,63,1,2,8,29,379,945.6052923440002,947.6234301303048,"[72, 0, 182]",182,l,1.4947929631453007,colour,0.06
031,63,1,2,8,30,380,948.1242453912273,949.7754215728492,"[96, 0, 158]",158,l,1.1278226939029992,colour,0.06
031,63,1,2,8,31,381,950.2961154188961,952.2714870520867,"[82, 0, 172]",172,l,1.4520752530079335,colour,0.06
031,63,1,2,8,32,382,952.7823875255417,955.0874164653942,"[97, 0, 157]",157,l,1.7818046335596591,colour,0.06
031,63,1,2,8,33,383,955.5948538517114,956.9914373958018,"[56, 0, 198]",198,a,0.8731355334166437,colour,0.06
031,63,1,2,8,34,384,957.5010889840778,958.8953984619584,"[99, 0, 155]",155,l,0.871017430210486,colour,0.06
031,63,1,2,8,35,385,959.4090838199481,960.8234853474423,"[51, 0, 203]",203,a,0.8909436706453562,colour,0.06
031,63,1,2,8,36,386,961.3309715706855,962.6954291029833,"[87, 0, 167]",167,l,0.8411186167504638,colour,0.06
031,63,1,2,8,37,387,963.2060412813444,966.3834676872939,"[94, 0, 160]",160,l,2.6540693736169487,colour,0.06
031,63,1,2,8,38,388,966.8947218344547,968.3994034810457,"[64, 0, 190]",190,a,0.9817472107242793,colour,0.06
031,63,1,2,8,39,389,968.9103457021993,970.8314367027488,"[60, 0, 194]",194,a,1.3979218327440321,colour,0.06
031,63,1,2,8,40,390,971.3478569269646,973.2794372257777,"[74, 0, 180]",180,l,1.4082236604299396,colour,0.06
031,63,1,2,8,41,391,973.785285443766,975.5514587266371,"[53, 0, 201]",201,a,1.2432219118345529,colour,0.06
031,63,1,2,8,42,392,976.0582155471202,977.5034233087208,"[79, 0, 175]",175,l,0.9219334367662668,colour,0.06
031,63,1,2,8,43,393,977.998883840628,979.6313917255029,"[62, 0, 192]",192,a,1.1092508893925697,colour,0.06
031,63,1,2,8,44,394,980.139468323905,981.9514002010692,"[68, 0, 186]",186,a,1.288537823362276,colour,0.06
031,63,1,2,8,45,395,982.4675849054474,983.6714226186741,"[89, 0, 165]",165,l,0.680886342190206,colour,0.06
031,63,1,2,8,46,396,984.1863474100828,985.3034311069641,"[85, 0, 169]",169,l,0.5987446554936469,colour,0.06
031,63,1,2,8,47,397,985.8219950343482,987.1194176280405,"[86, 0, 168]",168,l,0.7742038010619581,colour,0.06
031,63,1,2,8,48,398,987.6344503329601,989.2633939122315,"[77, 0, 177]",177,l,1.1055908792186528,colour,0.06
031,63,1,2,8,49,399,989.7751537575386,991.5033795919735,"[83, 0, 171]",171,l,1.2048514729831368,colour,0.06
031,63,1,2,8,50,400,992.0251651790459,994.0315139752347,"[81, 0, 173]",173,l,1.4829764037858695,colour,0.06
031,63,1,2,9,1,401,999.5914222721476,1001.8474544163328,"[53, 0, 201]",201,a,1.7442561511415988,colour,0.06
031,63,1,2,9,2,402,1002.3617738662288,1003.9434141872916,"[71, 0, 183]",183,a,1.0587342421058565,colour,0.06
031,63,1,2,9,3,403,1004.4551783651114,1006.4074399070814,"[64, 0, 190]",190,a,1.42903172201477,colour,0.06
031,63,1,2,9,4,404,1006.9239424450789,1008.5513358465396,"[59, 0, 195]",195,a,1.1167453832458705,colour,0.06
031,63,1,2,9,5,405,1009.0677162923384,1010.8634087208193,"[70, 0, 184]",184,a,1.2724606390111148,colour,0.06
031,63,1,2,9,6,406,1011.3778530198615,1013.311397822341,"[40, 0, 214]",214,a,1.4103425515349954,colour,0.06
031,63,1,2,9,7,407,1013.8309459707234,1015.3673889276106,"[91, 0, 163]",163,l,1.0138641640078276,colour,0.06
031,63,1,2,9,8,408,1015.8777309276629,1017.6313755777664,"[81, 0, 173]",173,l,1.230406953021884,colour,0.06
031,63,1,2,9,9,409,1018.1433985121548,1020.3753647014964,"[99, 0, 155]",155,l,1.7087347938213497,colour,0.06
031,63,1,2,9,10,410,1020.8933347093407,1022.6554049050901,"[86, 0, 168]",168,l,1.238786812638864,colour,0.06
031,63,1,2,9,11,411,1023.1745119462721,1024.8313543889672,"[79, 0, 175]",175,l,1.1337106903083622,colour,0.06
031,63,1,2,9,12,412,1025.3464560168795,1026.7993957616854,"[68, 0, 186]",186,a,0.9284106269478798,colour,0.06
031,63,1,2,9,13,413,1027.3163969086017,1028.8713679530192,"[82, 0, 172]",172,l,1.0316852983087301,colour,0.06
031,63,1,2,9,14,414,1029.3789120716974,1030.79937055544,"[80, 0, 174]",174,l,0.8971459560561925,colour,0.06
031,63,1,2,9,15,415,1031.3163319239393,1033.0473402796779,"[95, 0, 159]",159,l,1.207603274146095,colour,0.06
031,63,1,2,9,16,416,1033.5692345683929,1034.911544963019,"[75, 0, 179]",179,a,0.8191530420444906,colour,0.06
031,63,1,2,9,17,417,1035.428614245262,1036.7434015055187,"[72, 0, 182]",182,a,0.7915216002147645,colour,0.06
031,63,1,2,9,18,418,1037.256691442337,1039.0873936223798,"[76, 0, 178]",178,a,1.3074270677752793,colour,0.06
031,63,1,2,9,19,419,1039.6004031407647,1041.2633742198814,"[66, 0, 188]",188,a,1.1400216773618013,colour,0.06
031,63,1,2,9,20,420,1041.7722897098865,1043.5673358372878,"[69, 0, 185]",185,a,1.2721030269749463,colour,0.06
031,63,1,2,9,21,421,1044.0847958144732,1045.7353997379541,"[83, 0, 171]",171,l,1.1274182139895856,colour,0.06
031,63,1,2,9,22,422,1046.2421884599607,1048.063393439632,"[92, 0, 162]",162,l,1.297845584107563,colour,0.06
031,63,1,2,9,23,423,1048.5703259154689,1051.0554117581341,"[85, 0, 169]",169,l,1.9616445272695273,colour,0.06
031,63,1,2,9,24,424,1051.5703251278028,1053.7353993440047,"[77, 0, 177]",177,l,1.641745934728533,colour,0.06
031,63,1,2,9,25,425,1054.2422514753416,1055.655356856063,"[63, 0, 191]",191,a,0.8897893081884831,colour,0.06
031,63,1,2,9,26,426,1056.155016573146,1057.8235550581012,"[97, 0, 157]",157,l,1.145338597241789,colour,0.06
031,63,1,2,9,27,427,1058.3424261854962,1060.0953697899822,"[98, 0, 156]",156,l,1.2295739690307528,colour,0.06
031,63,1,2,9,28,428,1060.6081615115982,1061.9993426711299,"[62, 0, 192]",192,a,0.8679533086251467,colour,0.06
031,63,1,2,9,29,429,1062.5143588345964,1064.1673514335416,"[51, 0, 203]",203,a,1.1296938557643443,colour,0.06
031,63,1,2,9,30,430,1064.6863115699962,1066.127335112542,"[27, 0, 227]",227,a,0.9181544852908701,colour,0.06
031,63,1,2,9,31,431,1066.642448555911,1067.831390228821,"[87, 0, 167]",167,l,0.6654889360070229,colour,0.06
031,63,1,2,9,32,432,1068.3456793527585,1069.807340421481,"[94, 0, 160]",160,l,0.9384615747258067,colour,0.06
031,63,1,2,9,33,433,1070.3020065661985,1071.679392484948,"[60, 0, 194]",194,a,0.8560898820869625,colour,0.06
031,63,1,2,9,34,434,1072.1910176349338,1073.879430766683,"[67, 0, 187]",187,a,1.165105724008754,colour,0.06
031,63,1,2,9,35,435,1074.3941117671784,1075.7034604090732,"[55, 0, 199]",199,a,0.7860093326307833,colour,0.06
031,63,1,2,9,36,436,1076.2221393396612,1078.0313867630903,"[58, 0, 196]",196,a,1.2858470680657774,colour,0.06
031,63,1,2,9,37,437,1078.550334296422,1080.207353182137,"[89, 0, 165]",165,l,1.1336764255538583,colour,0.06
031,63,1,2,9,38,438,1080.724116052268,1082.0473406736273,"[56, 0, 198]",198,a,0.7999380873516202,colour,0.06
031,63,1,2,9,39,439,1082.567868316779,1084.6874143385794,"[20, 0, 234]",234,a,1.5963039924390614,colour,0.06
031,63,1,2,9,40,440,1085.208549686009,1087.3833125121891,"[52, 0, 202]",202,a,1.6494420780800283,colour,0.06
031,63,1,2,9,41,441,1087.8980431372765,1090.1193325573113,"[90, 0, 164]",164,l,1.710461808135733,colour,0.06
031,63,1,2,9,42,442,1090.6356397476047,1092.3593402924016,"[65, 0, 189]",189,a,1.2004356724210083,colour,0.06
031,63,1,2,9,43,443,1092.8699768891092,1094.2795372626279,"[84, 0, 170]",170,l,0.8863786025904119,colour,0.06
031,63,1,2,9,44,444,1094.7918433721643,1096.3753517044242,"[93, 0, 161]",161,l,1.060147755080834,colour,0.06
031,63,1,2,9,45,445,1096.8868059252854,1099.02333182632,"[78, 0, 176]",176,l,1.6133271947037429,colour,0.06
031,63,1,2,9,46,446,1099.54305917467,1103.127354804892,"[73, 0, 181]",181,l,3.0610551761928946,colour,0.06
031,63,1,2,9,47,447,1103.6367885961663,1105.2233464773744,"[50, 0, 204]",204,a,1.063380442559719,colour,0.06
031,63,1,2,9,48,448,1105.7305959991645,1108.4235419037286,"[74, 0, 180]",180,l,2.169709782814607,colour,0.06
031,63,1,2,9,49,449,1108.9337543284055,1110.8793193083256,"[61, 0, 193]",193,a,1.4223457935731858,colour,0.06
031,63,1,2,9,50,450,1111.3880737153813,1113.5753049156629,"[96, 0, 158]",158,l,1.6638261186890304,colour,0.06
031,63,1,2,10,1,451,1118.3716830296908,1119.831309884321,"[75, 0, 179]",179,l,0.9356573917903006,colour,0.06
031,63,1,2,10,2,452,1120.341202506097,1121.8153449459933,"[61, 0, 193]",193,a,0.9488571379333735,colour,0.06
031,63,1,2,10,3,453,1122.3275856773835,1123.6873347817454,"[84, 0, 170]",170,l,0.8367445641197264,colour,0.06
031,63,1,2,10,4,454,1124.202579375822,1125.59931809525,"[65, 0, 189]",189,a,0.8735348931513727,colour,0.06
031,63,1,2,10,5,455,1126.1088578312192,1127.639288729988,"[96, 0, 158]",158,l,1.0070443281438202,colour,0.06
031,63,1,2,10,6,456,1128.155776695814,1129.455374894198,"[50, 0, 204]",204,a,0.7763439598493278,colour,0.06
031,63,1,2,10,7,457,1129.9682512925938,1131.535318526905,"[70, 0, 184]",184,a,1.0438531679101288,colour,0.06
031,63,1,2,10,8,458,1132.04761006427,1133.3592957877554,"[95, 0, 159]",159,l,0.7883680758532137,colour,0.06
031,63,1,2,10,9,459,1133.875727827428,1135.575392743107,"[74, 0, 180]",180,a,1.1763527819421142,colour,0.06
031,63,1,2,10,10,460,1136.0944836365525,1139.1594489151612,"[73, 0, 181]",181,a,2.5417460922617465,colour,0.06
031,63,1,2,10,11,461,1139.6726124272682,1141.519374462543,"[89, 0, 165]",165,l,1.3235294581390917,colour,0.06
031,63,1,2,10,12,462,1142.0324694456067,1143.2553157384973,"[57, 0, 197]",197,a,0.6995751189533621,colour,0.06
031,63,1,2,10,13,463,1143.766818402335,1145.7272928133607,"[68, 0, 186]",186,a,1.437473809113726,colour,0.06
031,63,1,2,10,14,464,1146.2355501870625,1147.5513382097706,"[99, 0, 155]",155,l,0.7925664733629674,colour,0.06
031,63,1,2,10,15,465,1148.0637207254767,1149.7193119197618,"[85, 0, 169]",169,l,1.1323113557882607,colour,0.06
031,63,1,2,10,16,466,1150.235558851622,1152.0233353709336,"[86, 0, 168]",168,l,1.2646136528346688,colour,0.06
031,63,1,2,10,17,467,1152.5342590813525,1154.3833353552036,"[94, 0, 160]",160,l,1.325805887579918,colour,0.06
031,63,1,2,10,18,468,1154.8953472618014,1156.1192868710496,"[51, 0, 203]",203,a,0.7006168414372951,colour,0.06
031,63,1,2,10,19,469,1156.6274867432658,1157.823301815195,"[88, 0, 166]",166,l,0.6721772274468094,colour,0.06
031,63,1,2,10,20,470,1158.3309420321602,1159.4392929836176,"[66, 0, 188]",188,a,0.5850742636248469,colour,0.06
031,63,1,2,10,21,471,1159.9559384875465,1161.2472911279183,"[53, 0, 201]",201,a,0.7681303031276911,colour,0.06
031,63,1,2,10,22,472,1161.7683697615284,1163.567304329481,"[80, 0, 174]",174,l,1.2759871354792267,colour,0.06
031,63,1,2,10,23,473,1164.0808829553425,1165.8232797598466,"[91, 0, 163]",163,l,1.2191142090596259,colour,0.06
031,63,1,2,10,24,474,1166.3321180562489,1167.4232819653116,"[63, 0, 191]",191,a,0.5678001814521849,colour,0.06
031,63,1,2,10,25,475,1167.9426253139973,1169.3272851728834,"[54, 0, 200]",200,a,0.8612957373261452,colour,0.06
031,63,1,2,10,26,476,1169.8334224738646,1172.119272298878,"[71, 0, 183]",183,a,1.7626692357007414,colour,0.06
031,63,1,2,10,27,477,1172.6302227908745,1173.8552836794406,"[90, 0, 164]",164,l,0.7016337516251951,colour,0.06
031,63,1,2,10,28,478,1174.364568990888,1175.6232946473174,"[33, 0, 221]",221,a,0.7354119471274316,colour,0.06
031,63,1,2,10,29,479,1176.1313019285444,1177.8632759947795,"[97, 0, 157]",157,l,1.208681624615565,colour,0.06
031,63,1,2,10,30,480,1178.3813243778422,1179.5432750021573,"[67, 0, 187]",187,a,0.6386250995565206,colour,0.06
031,63,1,2,10,31,481,1180.0532558455598,1183.3913930489216,"[82, 0, 172]",172,l,2.8150515309534967,colour,0.06
031,63,1,2,10,32,482,1183.9126051962376,1186.4232772393152,"[78, 0, 176]",176,a,1.9874154413118958,colour,0.06
031,63,1,2,10,33,483,1186.9293716109823,1188.6152936674189,"[69, 0, 185]",185,a,1.1626674239523709,colour,0.06
031,63,1,2,10,34,484,1189.1325216693804,1190.8312771951314,"[59, 0, 195]",195,a,1.1754835641477257,colour,0.06
031,63,1,2,10,35,485,1191.3513007157017,1192.5352964715566,"[93, 0, 161]",161,l,0.6608553389087319,colour,0.06
031,63,1,2,10,36,486,1193.054340497125,1194.1913579178508,"[64, 0, 190]",190,a,0.6137131636496633,colour,0.06
031,63,1,2,10,37,487,1194.7105606633704,1196.1675932549406,"[76, 0, 178]",178,l,0.9340764943044633,colour,0.06
031,63,1,2,10,38,488,1196.680505493423,1198.5192756070755,"[79, 0, 175]",175,a,1.3155103612225503,colour,0.06
031,63,1,2,10,39,489,1199.0259221508168,1201.0154218247626,"[72, 0, 182]",182,a,1.4661509122233838,colour,0.06
031,63,1,2,10,40,490,1201.5259308156092,1203.3032735686284,"[56, 0, 198]",198,a,1.2539750868454576,colour,0.06
031,63,1,2,10,41,491,1203.822865433991,1206.015274132602,"[43, 0, 211]",211,a,1.6684195436537266,colour,0.06
031,63,1,2,10,42,492,1206.5259386925027,1208.895293698879,"[62, 0, 192]",192,a,1.845916054211557,colour,0.06
031,63,1,2,10,43,493,1209.416580283083,1211.7592734962236,"[60, 0, 194]",194,a,1.819759171223268,colour,0.06
031,63,1,2,10,44,494,1212.2771513441112,1214.2232558927499,"[81, 0, 173]",173,l,1.4228664578404278,colour,0.06
031,63,1,2,10,45,495,1214.7303892301861,1216.8952590404078,"[77, 0, 177]",177,l,1.641658501001075,colour,0.06
031,63,1,2,10,46,496,1217.4021816700697,1219.7432601149194,"[92, 0, 162]",162,l,1.817950236843899,colour,0.06
031,63,1,2,10,47,497,1220.2614802147727,1221.9272700492293,"[48, 0, 206]",206,a,1.1424619466997683,colour,0.06
031,63,1,2,10,48,498,1222.4333849009126,1225.5432553098071,"[55, 0, 199]",199,a,2.586535037960857,colour,0.06
031,63,1,2,10,49,499,1226.052419316722,1227.8232514029369,"[83, 0, 171]",171,l,1.2476239276584238,colour,0.06
031,63,1,2,10,50,500,1228.3336469661444,1231.015597086167,"[87, 0, 167]",167,l,2.158621444599703,colour,0.06
031,63,1,2,11,1,501,1237.2638826749753,1239.4632533879485,"[98, 0, 156]",156,l,1.6752708873245865,colour,0.06
031,63,1,2,11,2,502,1239.9833974251524,1241.4472553667147,"[55, 0, 199]",199,a,0.9406076413579285,colour,0.06
031,63,1,2,11,3,503,1241.9539877688512,1243.9752357562538,"[61, 0, 193]",193,a,1.4979323090519756,colour,0.06
031,63,1,2,11,4,504,1244.48525243951,1246.2872759411111,"[66, 0, 188]",188,a,1.2787822599057108,colour,0.06
031,63,1,2,11,5,505,1246.7977423963603,1251.2632505521178,"[62, 0, 192]",192,a,3.942272034008056,colour,0.06
031,63,1,2,11,6,506,1251.782037790399,1253.463251418667,"[86, 0, 168]",168,l,1.1577687682583928,colour,0.06
031,63,1,2,11,7,507,1253.969692768762,1255.7432849272154,"[82, 0, 172]",172,l,1.2505754090379924,colour,0.06
031,63,1,2,11,8,508,1256.2508747319225,1257.9272271199152,"[71, 0, 183]",183,l,1.1536656813696027,colour,0.06
031,63,1,2,11,9,509,1258.4383981656283,1260.9432562550064,"[81, 0, 173]",173,l,1.9815762815997005,colour,0.06
031,63,1,2,11,10,510,1261.4552429558244,1263.3032144918106,"[52, 0, 202]",202,a,1.3246810636483133,colour,0.06
031,63,1,2,11,11,511,1263.814548589522,1265.815238213865,"[64, 0, 190]",190,a,1.4759218357503414,colour,0.06
031,63,1,2,11,12,512,1266.3310857859906,1268.3112457976677,"[63, 0, 191]",191,a,1.4567746224347502,colour,0.06
031,63,1,2,11,13,513,1268.8312409613281,1270.6952341492288,"[87, 0, 167]",167,l,1.3407925125211477,colour,0.06
031,63,1,2,11,14,514,1271.2062787704635,1272.8952822773717,"[73, 0, 181]",181,a,1.1661647758446634,colour,0.06
031,63,1,2,11,15,515,1273.4090976044536,1275.3592205632012,"[96, 0, 158]",158,l,1.4272129414603114,colour,0.06
031,63,1,2,11,16,516,1275.8792480221018,1278.2152423097286,"[99, 0, 155]",155,l,1.8181085628457367,colour,0.06
031,63,1,2,11,17,517,1278.733721560333,1280.4632667787373,"[90, 0, 164]",164,l,1.2063772319816053,colour,0.06
031,63,1,2,11,18,518,1280.9699007193558,1282.6232399025466,"[60, 0, 194]",194,a,1.1301767106633633,colour,0.06
031,63,1,2,11,19,519,1283.1417892577592,1284.735241805669,"[84, 0, 170]",170,l,1.0701455338858068,colour,0.06
031,63,1,2,11,20,520,1285.2387115883175,1288.2232074497733,"[77, 0, 177]",177,l,2.4634550369810313,colour,0.06
031,63,1,2,11,21,521,1288.7365635526367,1290.071195133496,"[58, 0, 196]",196,a,0.8118026959709823,colour,0.06
031,63,1,2,11,22,522,1290.5802870665211,1292.199271463789,"[4, 0, 250]",250,a,1.095603734254837,colour,0.06
031,63,1,2,11,23,523,1292.7053622910753,1294.0711785918102,"[83, 0, 171]",171,l,0.8426116867922246,colour,0.06
031,63,1,2,11,24,524,1294.5802843095735,1296.2393437109422,"[91, 0, 163]",163,l,1.1356452612672001,colour,0.06
031,63,1,2,11,25,525,1296.7533929827623,1298.375177230686,"[74, 0, 180]",180,a,1.0987986123654991,colour,0.06
031,63,1,2,11,26,526,1298.8939384750556,1300.4072032056283,"[50, 0, 204]",204,a,0.990069962805137,colour,0.06
031,63,1,2,11,27,527,1300.9252602534834,1302.6552619391587,"[78, 0, 176]",176,l,1.2067340563517064,colour,0.06
031,63,1,2,11,28,528,1303.1753134226892,1304.775200625183,"[68, 0, 186]",186,a,1.0767152777407318,colour,0.06
031,63,1,2,11,29,529,1305.2845611611847,1307.3353775250725,"[75, 0, 179]",179,a,1.5261127722915262,colour,0.06
031,63,1,2,11,30,530,1307.836312909145,1310.879251960665,"[72, 0, 182]",182,a,2.5197935143951327,colour,0.06
031,63,1,2,11,31,531,1311.3989481951576,1314.1753681672271,"[79, 0, 175]",175,a,2.2531866072677076,colour,0.06
031,63,1,2,11,32,532,1314.6958158598281,1316.8392013751436,"[20, 0, 234]",234,a,1.6201588460244238,colour,0.06
031,63,1,2,11,33,533,1317.352010032162,1319.599225541344,"[92, 0, 162]",162,l,1.72394315386191,colour,0.06
031,63,1,2,11,34,534,1320.117623659782,1321.8951964189764,"[95, 0, 159]",159,l,1.254223997471854,colour,0.06
031,63,1,2,11,35,535,1322.416614153888,1325.0234066569246,"[76, 0, 178]",178,l,2.0835516552906483,colour,0.06
031,63,1,2,11,36,536,1325.5416826831643,1327.9515199302696,"[97, 0, 157]",157,l,1.8869331376627088,colour,0.06
031,63,1,2,11,37,537,1328.4634999355767,1330.1832572948188,"[53, 0, 201]",201,a,1.1964109607506543,colour,0.06
031,63,1,2,11,38,538,1330.6979410522617,1332.3031841656193,"[94, 0, 160]",160,l,1.0824000497814268,colour,0.06
031,63,1,2,11,39,539,1332.8228906400036,1334.591250555357,"[85, 0, 169]",169,l,1.2451182797085494,colour,0.06
031,63,1,2,11,40,540,1335.104075360112,1336.6391879054718,"[65, 0, 189]",189,a,1.012354552745819,colour,0.06
031,63,1,2,11,41,541,1337.152203725418,1338.8071734309196,"[27, 0, 227]",227,a,1.1317871466744691,colour,0.06
031,63,1,2,11,42,542,1339.3241714269388,1340.9672379270196,"[80, 0, 174]",174,l,1.1197646060027182,colour,0.06
031,63,1,2,11,43,543,1341.4804510639515,1343.431209295988,"[57, 0, 197]",197,a,1.4274827258195728,colour,0.06
031,63,1,2,11,44,544,1343.94916945789,1345.1111953067593,"[93, 0, 161]",161,l,0.6388692841865122,colour,0.06
031,63,1,2,11,45,545,1345.6210497254506,1347.21514424216,"[69, 0, 185]",185,a,1.0695669741835445,colour,0.06
031,63,1,2,11,46,546,1347.7315246879589,1349.9832288592588,"[70, 0, 184]",184,a,1.7284964066930115,colour,0.06
031,63,1,2,11,47,547,1350.4971465864219,1352.5591950421222,"[59, 0, 195]",195,a,1.5386642480734736,colour,0.06
031,63,1,2,11,48,548,1353.075250958791,1355.447195501998,"[56, 0, 198]",198,a,1.8485745140351355,colour,0.06
031,63,1,2,11,49,549,1355.96646323218,1359.191255124053,"[51, 0, 203]",203,a,2.701576250139624,colour,0.06
031,63,1,2,11,50,550,1359.7122140284628,1366.631491762353,"[67, 0, 187]",187,a,6.3959848983213305,colour,0.06
031,63,1,2,12,1,551,1373.0778046555351,1377.159235450672,"[78, 0, 176]",176,l,3.557393590686843,colour,0.06
031,63,1,2,12,2,552,1377.6734926728532,1380.4552539833821,"[73, 0, 181]",181,a,2.2582561920862645,colour,0.06
031,63,1,2,12,3,553,1380.9553689863533,1382.3111670284998,"[97, 0, 157]",157,l,0.8326651081442833,colour,0.06
031,63,1,2,12,4,554,1382.8302634356078,1384.2311572297476,"[87, 0, 167]",167,l,0.8779538446106017,colour,0.06
031,63,1,2,12,5,555,1384.7397229846101,1386.0312485231552,"[93, 0, 161]",161,l,0.7679833986330777,colour,0.06
031,63,1,2,12,6,556,1386.5498904320411,1387.9431522798259,"[56, 0, 198]",198,a,0.8700028830207884,colour,0.06
031,63,1,2,12,7,557,1388.4561866105068,1389.8231887815055,"[63, 0, 191]",191,a,0.843711304711178,colour,0.06
031,63,1,2,12,8,558,1390.331117687514,1391.5831444186624,"[83, 0, 171]",171,l,0.7294506952166557,colour,0.06
031,63,1,2,12,9,559,1392.0843621902168,1393.351176260272,"[99, 0, 155]",155,l,0.7436417513526976,colour,0.06
031,63,1,2,12,10,560,1393.8655673903413,1395.6231894902885,"[79, 0, 175]",175,a,1.2343509260099381,colour,0.06
031,63,1,2,12,11,561,1396.1444000625052,1397.3039202636573,"[55, 0, 199]",199,a,0.6362769904080778,colour,0.06
031,63,1,2,12,12,562,1397.816320502432,1398.9671311948914,"[92, 0, 162]",162,l,0.6275182508397847,colour,0.06
031,63,1,2,12,13,563,1399.4880991578102,1401.1991438576952,"[84, 0, 170]",170,l,1.187709328951314,colour,0.06
031,63,1,2,12,14,564,1401.707723397296,1402.8311614044942,"[70, 0, 184]",184,a,0.6001900702249259,colour,0.06
031,63,1,2,12,15,565,1403.3482767667156,1404.4711511800997,"[50, 0, 204]",204,a,0.5996071780100465,colour,0.06
031,63,1,2,12,16,566,1404.9889987020288,1407.9831563916523,"[64, 0, 190]",190,a,2.4708156234119087,colour,0.06
031,63,1,2,12,17,567,1408.5046103603672,1410.1591574691702,"[18, 0, 236]",236,a,1.1312893256545067,colour,0.06
031,63,1,2,12,18,568,1410.6789348358288,1411.7031898370478,"[95, 0, 159]",159,l,0.501931814244017,colour,0.06
031,63,1,2,12,19,569,1412.1975145172328,1415.9511406566016,"[82, 0, 172]",172,a,3.230983149725944,colour,0.06
031,63,1,2,12,20,570,1416.462395985378,1417.967133164173,"[66, 0, 188]",188,a,0.9813498202711344,colour,0.06
031,63,1,2,12,21,571,1418.4780694777146,1419.7031650247518,"[62, 0, 192]",192,a,0.7017302440945059,colour,0.06
031,63,1,2,12,22,572,1420.212428280618,1421.6551485115197,"[57, 0, 197]",197,a,0.9194143984932452,colour,0.06
031,63,1,2,12,23,573,1422.1655444684438,1423.3271922252607,"[85, 0, 169]",169,l,0.6383340475149453,colour,0.06
031,63,1,2,12,24,574,1423.8258775675204,1424.9511816166341,"[52, 0, 202]",202,a,0.6028808255214244,colour,0.06
031,63,1,2,12,25,575,1425.4659547770862,1426.791169501841,"[86, 0, 168]",168,l,0.8019723014440387,colour,0.06
031,63,1,2,12,26,576,1427.3096038540825,1429.1431492078118,"[77, 0, 177]",177,a,1.310148149030283,colour,0.06
031,63,1,2,12,27,577,1429.6533624201547,1431.1511411292013,"[76, 0, 178]",178,a,0.974483510479331,colour,0.06
031,63,1,2,12,28,578,1431.6701055979356,1433.1910932534374,"[65, 0, 189]",189,a,0.9976731583010405,colour,0.06
031,63,1,2,12,29,579,1433.7013237948995,1435.287248765817,"[71, 0, 183]",183,a,1.0629125537816435,colour,0.06
031,63,1,2,12,30,580,1435.795080391923,1437.7991771772504,"[69, 0, 185]",185,a,1.4811548665165901,colour,0.06
031,63,1,2,12,31,581,1438.3142303621862,1439.9911451621447,"[98, 0, 156]",156,l,1.1502585203852504,colour,0.06
031,63,1,2,12,32,582,1440.5047730188817,1442.1759325484745,"[13, 0, 241]",241,a,1.1528752327430993,colour,0.06
031,63,1,2,12,33,583,1442.6874096123502,1444.1671096121427,"[51, 0, 203]",203,a,0.9566194470971823,colour,0.06
031,63,1,2,12,34,584,1444.6871284064837,1446.3591480955947,"[67, 0, 187]",187,a,1.1486303615383804,colour,0.06
031,63,1,2,12,35,585,1446.8747487263754,1448.519217317924,"[72, 0, 182]",182,a,1.1212852452881634,colour,0.06
031,63,1,2,12,36,586,1449.0309586524963,1450.2071282961406,"[81, 0, 173]",173,l,0.6529390357900411,colour,0.06
031,63,1,2,12,37,587,1450.7059829921927,1452.1031391883735,"[59, 0, 195]",195,a,0.871503829723224,colour,0.06
031,63,1,2,12,38,588,1452.614541815361,1454.0232278509066,"[54, 0, 200]",200,a,0.8852923754602671,colour,0.06
031,63,1,2,12,39,589,1454.5364626492374,1455.679163266439,"[80, 0, 174]",174,l,0.6197768154088408,colour,0.06
031,63,1,2,12,40,590,1456.1916702375747,1457.727130155079,"[44, 0, 210]",210,a,1.0122107989154756,colour,0.06
031,63,1,2,12,41,591,1458.238434714498,1460.359128797194,"[60, 0, 194]",194,a,1.5973598933778703,colour,0.06
031,63,1,2,12,42,592,1460.879124354571,1462.3591303725261,"[96, 0, 158]",158,l,0.9664805612992495,colour,0.06
031,63,1,2,12,43,593,1462.8592883048113,1464.5431024977006,"[90, 0, 164]",164,l,1.1608096526470035,colour,0.06
031,63,1,2,12,44,594,1465.0624363939278,1466.5831018832978,"[75, 0, 179]",179,a,0.9973301184363663,colour,0.06
031,63,1,2,12,45,595,1467.093682553852,1468.6311105196364,"[89, 0, 165]",165,l,1.0141623055096716,colour,0.06
031,63,1,2,12,46,596,1469.1404954739846,1470.9031139034778,"[74, 0, 180]",180,a,1.2392247694078833,colour,0.06
031,63,1,2,12,47,597,1471.4229133254848,1473.2231180467643,"[94, 0, 160]",160,l,1.2768126365263015,colour,0.06
031,63,1,2,12,48,598,1473.7355316763278,1476.6632676450536,"[91, 0, 163]",163,l,2.4046447824221104,colour,0.06
031,63,1,2,12,49,599,1477.1728975716978,1478.7751116158906,"[58, 0, 196]",196,a,1.0789542917627841,colour,0.06
031,63,1,2,12,50,600,1479.282254011836,1481.0551360659301,"[61, 0, 193]",193,a,1.2495659817941487,colour,0.06
031,63,1,2,13,1,601,1487.9389775129966,1489.3590984710027,"[72, 0, 182]",182,a,0.8960636674892157,colour,0.06
031,63,1,2,13,2,602,1489.87734180782,1491.4871350231115,"[94, 0, 160]",160,l,1.0866685518994927,colour,0.06
031,63,1,2,13,3,603,1492.0022618572693,1493.3751083076932,"[90, 0, 164]",164,l,0.849606390343979,colour,0.06
031,63,1,2,13,4,604,1493.8928207403515,1495.279124905821,"[81, 0, 173]",173,l,0.8628833300899714,colour,0.06
031,63,1,2,13,5,605,1495.7841015430167,1497.0710809179582,"[95, 0, 159]",159,l,0.7639240284916013,colour,0.06
031,63,1,2,13,6,606,1497.5810018968768,1498.855117870262,"[89, 0, 165]",165,l,0.7508042333647609,colour,0.06
031,63,1,2,13,7,607,1499.362280352274,1500.335101438919,"[70, 0, 184]",184,a,0.4494762634858489,colour,0.06
031,63,1,2,13,8,608,1500.8466297029518,1502.0790878057014,"[66, 0, 188]",188,a,0.7092708179261535,colour,0.06
031,63,1,2,13,9,609,1502.5966946876142,1503.6311176088639,"[86, 0, 168]",168,l,0.5112281534820795,colour,0.06
031,63,1,2,13,10,610,1504.1452586464584,1505.3911023905966,"[93, 0, 161]",161,l,0.7225485455710441,colour,0.06
031,63,1,2,13,11,611,1505.9109734925441,1507.2870510551147,"[64, 0, 190]",190,a,0.8528808252885938,colour,0.06
031,63,1,2,13,12,612,1507.801472905092,1509.3270811606199,"[78, 0, 176]",176,a,1.0005466581787914,colour,0.06
031,63,1,2,13,13,613,1509.83473555604,1511.2711203815416,"[60, 0, 194]",194,a,0.9130770238116384,colour,0.06
031,63,1,2,13,14,614,1511.787741466891,1516.0310551447328,"[53, 0, 201]",201,a,3.719959796173498,colour,0.06
031,63,1,2,13,15,615,1516.54032076383,1518.2710676060524,"[97, 0, 157]",157,l,1.2074922097381204,colour,0.06
031,63,1,2,13,16,616,1518.7902514471207,1520.247077663429,"[57, 0, 197]",197,a,0.9337830792646855,colour,0.06
031,63,1,2,13,17,617,1520.758922185516,1522.0390876324382,"[84, 0, 170]",170,l,0.7567713931202888,colour,0.06
031,63,1,2,13,18,618,1522.5558701946866,1523.9590927995741,"[82, 0, 172]",172,l,0.8798840832896531,colour,0.06
031,63,1,2,13,19,619,1524.4776945363265,1525.7512587315869,"[51, 0, 203]",203,a,0.7501756553538144,colour,0.06
031,63,1,2,13,20,620,1526.2602199078538,1527.6630581191275,"[68, 0, 186]",186,a,0.8919503407087177,colour,0.06
031,63,1,2,13,21,621,1528.1695699675474,1529.6150664181914,"[71, 0, 183]",183,a,0.9223280705045909,colour,0.06
031,63,1,2,13,22,622,1530.1227330230176,1532.1110743959434,"[63, 0, 191]",191,a,1.4650319959037006,colour,0.06
031,63,1,2,13,23,623,1532.6227897368371,1533.8231056800578,"[42, 0, 212]",212,a,0.6771499263122678,colour,0.06
031,63,1,2,13,24,624,1534.3415093121585,1536.2550621016417,"[52, 0, 202]",202,a,1.3902717693708837,colour,0.06
031,63,1,2,13,25,625,1536.7634013951756,1538.391091362806,"[62, 0, 192]",192,a,1.104486929019913,colour,0.06
031,63,1,2,13,26,626,1538.9039941490628,1540.031050024787,"[88, 0, 166]",166,l,0.6038402339909226,colour,0.06
031,63,1,2,13,27,627,1540.5445872968994,1541.6151278582402,"[91, 0, 163]",163,l,0.5473040458746254,colour,0.06
031,63,1,2,13,28,628,1542.1227416875772,1543.4630643418059,"[73, 0, 181]",181,a,0.8170798372011632,colour,0.06
031,63,1,2,13,29,629,1543.9821201828308,1545.4790800863411,"[37, 0, 217]",217,a,0.9737119663041085,colour,0.06
031,63,1,2,13,30,630,1545.9977483828552,1547.391068913741,"[92, 0, 162]",162,l,0.8701340337283909,colour,0.06
031,63,1,2,13,31,631,1547.9039354659617,1549.31909790379,"[67, 0, 187]",187,a,0.8919909067917615,colour,0.06
031,63,1,2,13,32,632,1549.825726330746,1551.199087537825,"[99, 0, 155]",155,l,0.8499230425804853,colour,0.06
031,63,1,2,13,33,633,1551.7072492069565,1553.2550770677626,"[54, 0, 200]",200,a,1.0245405393652618,colour,0.06
031,63,1,2,13,34,634,1553.7698998528067,1555.2710376738105,"[85, 0, 169]",169,l,0.9785157050937414,colour,0.06
031,63,1,2,13,35,635,1555.7802505176514,1557.1270913218614,"[77, 0, 177]",177,a,0.8234739257022738,colour,0.06
031,63,1,2,13,36,636,1557.6396384653635,1560.3350214883685,"[80, 0, 174]",174,a,2.172153596766293,colour,0.06
031,63,1,2,13,37,637,1560.8426624929998,1562.3670734569896,"[87, 0, 167]",167,l,1.0010826822835952,colour,0.06
031,63,1,2,13,38,638,1562.8739862407092,1564.4630970309954,"[79, 0, 175]",175,a,1.0658581270836294,colour,0.06
031,63,1,2,13,39,639,1564.9833501637913,1567.0950763747096,"[61, 0, 193]",193,a,1.588427861686796,colour,0.06
031,63,1,2,13,40,640,1567.6120188385248,1570.0950491991825,"[76, 0, 178]",178,a,1.9596965652890503,colour,0.06
031,63,1,2,13,41,641,1570.5996792519,1573.1190615913365,"[59, 0, 195]",195,a,2.001563174650073,colour,0.06
031,63,1,2,13,42,642,1573.625523421215,1575.7110691184644,"[55, 0, 199]",199,a,1.562276098644361,colour,0.06
031,63,1,2,13,43,643,1576.2192851381842,1578.5990412216634,"[69, 0, 185]",185,a,1.8566329956520349,colour,0.06
031,63,1,2,13,44,644,1579.1098196029197,1581.5350416533183,"[50, 0, 204]",204,a,1.902634199243039,colour,0.06
031,63,1,2,13,45,645,1582.0473497321364,1584.0230455002747,"[75, 0, 179]",179,a,1.4524009635206312,colour,0.06
031,63,1,2,13,46,646,1584.531704990659,1585.8791613760404,"[98, 0, 156]",156,l,0.8240804485976696,colour,0.06
031,63,1,2,13,47,647,1586.3911256275605,1587.6550153915305,"[58, 0, 196]",196,a,0.7405736916698515,colour,0.06
031,63,1,2,13,48,648,1588.1723363413475,1589.831083816709,"[56, 0, 198]",198,a,1.135551132261753,colour,0.06
031,63,1,2,13,49,649,1590.3441067261156,1592.6390764471143,"[74, 0, 180]",180,a,1.7715528241824359,colour,0.06
031,63,1,2,13,50,650,1593.1566691505723,1598.1190375667065,"[18, 0, 236]",236,a,4.439027925254777,colour,0.06
031,63,1,2,14,1,651,1605.858911000425,1609.079066538019,"[64, 0, 190]",190,a,2.6959639459382743,colour,0.06
031,63,1,2,14,2,652,1609.5942370889243,1611.455109048169,"[71, 0, 183]",183,a,1.337764625204727,colour,0.06
031,63,1,2,14,3,653,1611.9703248913866,1613.5750402510166,"[96, 0, 158]",158,l,1.0816643454600126,colour,0.06
031,63,1,2,14,4,654,1614.0953756975941,1615.4549613560084,"[98, 0, 156]",156,l,0.8364286997821182,colour,0.06
031,63,1,2,14,5,655,1615.9702587253414,1617.1431858355645,"[52, 0, 202]",202,a,0.6496988655999303,colour,0.06
031,63,1,2,14,6,656,1617.65794284828,1619.1669989414513,"[72, 0, 182]",182,a,0.9859156759921461,colour,0.06
031,63,1,2,14,7,657,1619.6734599836636,1620.8550619441085,"[87, 0, 167]",167,l,0.6583173957187682,colour,0.06
031,63,1,2,14,8,658,1621.36198063544,1622.75104251015,"[50, 0, 204]",204,a,0.8658245715778321,colour,0.06
031,63,1,2,14,9,659,1623.268258303171,1625.01499174512,"[73, 0, 181]",181,a,1.2234358803834766,colour,0.06
031,63,1,2,14,10,660,1625.5338581462856,1626.6710323174484,"[89, 0, 165]",165,l,0.6138443143572658,colour,0.06
031,63,1,2,14,11,661,1627.1901220292784,1628.5270194057375,"[69, 0, 185]",185,a,0.8059631423093379,colour,0.06
031,63,1,2,14,12,662,1629.041401477065,1630.2870644459035,"[81, 0, 173]",173,l,0.7224158195313066,colour,0.06
031,63,1,2,14,13,663,1630.8070158925839,1632.0950531377457,"[75, 0, 179]",179,l,0.770985685987398,colour,0.06
031,63,1,2,14,14,664,1632.6134343207814,1634.0470106308348,"[63, 0, 191]",191,a,0.9101767423562706,colour,0.06
031,63,1,2,14,15,665,1634.5666682682931,1635.6470270147547,"[78, 0, 176]",176,l,0.5570875725243241,colour,0.06
031,63,1,2,14,16,666,1636.1602511792444,1637.5910024323966,"[65, 0, 189]",189,a,0.9073678331915289,colour,0.06
031,63,1,2,14,17,667,1638.0887323045172,1639.942992378259,"[67, 0, 187]",187,a,1.3310897243209183,colour,0.06
031,63,1,2,14,18,668,1640.4635680709034,1641.6470018085092,"[84, 0, 170]",170,l,0.6600294439122081,colour,0.06
031,63,1,2,14,19,669,1642.1668024123646,1643.6470514331013,"[44, 0, 210]",210,a,0.956952640786767,colour,0.06
031,63,1,2,14,20,670,1644.1667929599062,1647.6790171496104,"[56, 0, 198]",198,a,2.988969163270667,colour,0.06
031,63,1,2,14,21,671,1648.1992336546537,1650.2470028325915,"[23, 0, 231]",231,a,1.5244310502894223,colour,0.06
031,63,1,2,14,22,672,1650.7493178588338,1651.9030032327864,"[92, 0, 162]",162,l,0.6303819045424461,colour,0.06
031,63,1,2,14,23,673,1652.4230543223675,1653.895067631267,"[95, 0, 159]",159,l,0.9486720303539187,colour,0.06
031,63,1,2,14,24,674,1654.4074753532186,1656.103042696137,"[77, 0, 177]",177,l,1.172194556798786,colour,0.06
031,63,1,2,14,25,675,1656.6106214732863,1658.2229778375477,"[54, 0, 200]",200,a,1.0890725874342024,colour,0.06
031,63,1,2,14,26,676,1658.7356490422972,1661.2549758495297,"[31, 0, 223]",223,a,1.9962387715931982,colour,0.06
031,63,1,2,14,27,677,1661.768064531032,1663.631206223974,"[59, 0, 195]",195,a,1.3399323530029505,colour,0.06
031,63,1,2,14,28,678,1664.142957011005,1666.2310339559335,"[68, 0, 186]",186,a,1.5651236046105623,colour,0.06
031,63,1,2,14,29,679,1666.7521303126123,1668.8150137215853,"[86, 0, 168]",168,l,1.5398859579581767,colour,0.06
031,63,1,2,14,30,680,1669.3304457864724,1670.6150553906336,"[53, 0, 201]",201,a,0.7620571991428733,colour,0.06
031,63,1,2,14,31,681,1671.130329129286,1672.4950210000388,"[70, 0, 184]",184,a,0.8414805615320802,colour,0.06
031,63,1,2,14,32,682,1673.0054831230082,1674.1429700078443,"[85, 0, 169]",169,l,0.6143539508339018,colour,0.06
031,63,1,2,14,33,683,1674.6616662675515,1675.88706862065,"[88, 0, 166]",166,l,0.7022032528184354,colour,0.06
031,63,1,2,14,34,684,1676.39602231374,1677.7110474568326,"[61, 0, 193]",193,a,0.7917370337527245,colour,0.06
031,63,1,2,14,35,685,1678.2241018738132,1679.3750582891516,"[90, 0, 164]",164,l,0.6275481830816716,colour,0.06
031,63,1,2,14,36,686,1679.8960924183484,1680.9829933394212,"[58, 0, 196]",196,a,0.5637100916355848,colour,0.06
031,63,1,2,14,37,687,1681.4897812737618,1683.0629913229495,"[60, 0, 194]",194,a,1.0498734968714416,colour,0.06
031,63,1,2,14,38,688,1683.5844326885417,1685.1910266934428,"[51, 0, 203]",203,a,1.0833039262797683,colour,0.06
031,63,1,2,14,39,689,1685.7101144359913,1687.342983477516,"[76, 0, 178]",178,l,1.1098877382464707,colour,0.06
031,63,1,2,14,40,690,1687.8506319653243,1689.5990136524197,"[94, 0, 160]",160,l,1.224981331732124,colour,0.06
031,63,1,2,14,41,691,1690.1163397221826,1691.318987627048,"[62, 0, 192]",192,a,0.6800446936395019,colour,0.06
031,63,1,2,14,42,692,1691.8363310259301,1693.0310106400866,"[80, 0, 174]",174,l,0.6715132030658424,colour,0.06
031,63,1,2,14,43,693,1693.5394763583317,1694.6869562957436,"[83, 0, 171]",171,l,0.6241961603518575,colour,0.06
031,63,1,2,14,44,694,1695.1957091274671,1697.1270078264643,"[99, 0, 155]",155,l,1.4080720297060907,colour,0.06
031,63,1,2,14,45,695,1697.6331829368137,1699.4550129496492,"[74, 0, 180]",180,a,1.29854466044344,colour,0.06
031,63,1,2,14,46,696,1699.9613585951738,1702.6949553063605,"[79, 0, 175]",175,a,2.2103495618794113,colour,0.06
031,63,1,2,14,47,697,1703.2124239483383,1705.1190218129195,"[66, 0, 188]",188,a,1.3831994782667607,colour,0.06
031,63,1,2,14,48,698,1705.6343550223392,1706.9111948341597,"[93, 0, 161]",161,l,0.7535194072406739,colour,0.06
031,63,1,2,14,49,699,1707.431266403757,1709.0630003812257,"[57, 0, 197]",197,a,1.1085277881938964,colour,0.06
031,63,1,2,14,50,700,1709.5718666405883,1711.502974324394,"[97, 0, 157]",157,l,1.4078884974587709,colour,0.06
031,63,1,2,15,1,701,1715.9940395359881,1718.0149736281019,"[65, 0, 189]",189,a,1.496753528015688,colour,0.06
031,63,1,2,15,2,702,1718.5261076523457,1720.590968167875,"[77, 0, 177]",177,a,1.5414518893230706,colour,0.06
031,63,1,2,15,3,703,1721.104279766092,1722.6789647680707,"[80, 0, 174]",174,l,1.0513941356912255,colour,0.06
031,63,1,2,15,4,704,1723.185628641164,1724.3669293094426,"[64, 0, 190]",190,a,0.662860014475882,colour,0.06
031,63,1,2,15,5,705,1724.8839647208806,1726.727007668931,"[52, 0, 202]",202,a,1.319822974037379,colour,0.06
031,63,1,2,15,6,706,1727.2464652329218,1728.5350388963707,"[95, 0, 159]",159,l,0.765206784941256,colour,0.06
031,63,1,2,15,7,707,1729.043256885372,1730.3350025836844,"[85, 0, 169]",169,l,0.7683977244887501,colour,0.06
031,63,1,2,15,8,708,1730.8558011930436,1732.238945532823,"[76, 0, 178]",178,l,0.8598873442970216,colour,0.06
031,63,1,2,15,9,709,1732.7464412082918,1733.7750245761126,"[55, 0, 199]",199,a,0.5056898919865489,colour,0.06
031,63,1,2,15,10,710,1734.293192294659,1735.6069409830961,"[50, 0, 204]",204,a,0.7904062285088003,colour,0.06
031,63,1,2,15,11,711,1736.123278499581,1737.7589761423878,"[86, 0, 168]",168,l,1.1124059888534248,colour,0.06
031,63,1,2,15,12,712,1738.2795494718011,1740.359076809371,"[68, 0, 186]",186,a,1.5565960526000708,colour,0.06
031,63,1,2,15,13,713,1740.873117022682,1742.5429693777114,"[46, 0, 208]",208,a,1.1450471512507647,colour,0.06
031,63,1,2,15,14,714,1743.0621453418862,1745.6309443165082,"[71, 0, 183]",183,a,2.0455274069681764,colour,0.06
031,63,1,2,15,15,715,1746.1403548710514,1747.2631158570293,"[99, 0, 155]",155,l,0.5995870919432491,colour,0.06
031,63,1,2,15,16,716,1747.7808948494494,1750.2149697684217,"[51, 0, 203]",203,a,1.9108002004213631,colour,0.06
031,63,1,2,15,17,717,1750.7339791357517,1751.8789723301306,"[81, 0, 173]",173,l,0.6206188581418246,colour,0.06
031,63,1,2,15,18,718,1752.3913839904126,1753.5189711642452,"[54, 0, 200]",200,a,0.6041108062490821,colour,0.06
031,63,1,2,15,19,719,1754.0320358211175,1755.1349706035107,"[63, 0, 191]",191,a,0.5796801499091089,colour,0.06
031,63,1,2,15,20,720,1755.6413832027465,1756.9429982861038,"[56, 0, 198]",198,a,0.7782497801817954,colour,0.06
031,63,1,2,15,21,721,1757.4538660703693,1759.0789472025353,"[57, 0, 197]",197,a,1.1018698227126151,colour,0.06
031,63,1,2,15,22,722,1759.594483242603,1761.1589979615528,"[98, 0, 156]",156,l,1.0411179079674184,colour,0.06
031,63,1,2,15,23,723,1761.6738605250139,1762.8309542415664,"[58, 0, 196]",196,a,0.6337071456946433,colour,0.06
031,63,1,2,15,24,724,1763.338117904961,1764.422942076344,"[83, 0, 171]",171,l,0.5615431512705982,colour,0.06
031,63,1,2,15,25,725,1764.93184023723,1766.1509709877428,"[70, 0, 184]",184,a,0.6958442165050656,colour,0.06
031,63,1,2,15,26,726,1766.6588435738813,1768.0790232149884,"[88, 0, 166]",166,l,0.897182977758348,colour,0.06
031,63,1,2,15,27,727,1768.59636700782,1771.2069613055792,"[73, 0, 181]",181,a,2.087288071634248,colour,0.06
031,63,1,2,15,28,728,1771.721373703098,1773.534953431692,"[69, 0, 185]",185,a,1.2903329730033875,colour,0.06
031,63,1,2,15,29,729,1774.0494646846782,1775.886985125253,"[61, 0, 193]",193,a,1.3142622634768486,colour,0.06
031,63,1,2,15,30,730,1776.394337440841,1778.1269247250166,"[79, 0, 175]",175,l,1.2093224115669727,colour,0.06
031,63,1,2,15,31,731,1778.6443429547362,1780.4149600011297,"[84, 0, 170]",170,l,1.2475140446331352,colour,0.06
031,63,1,2,15,32,732,1780.9256769423373,1783.1429641002323,"[91, 0, 163]",163,l,1.6940191346220672,colour,0.06
031,63,1,2,15,33,733,1783.6599207425024,1785.4629422496073,"[67, 0, 187]",187,a,1.279771994566545,colour,0.06
031,63,1,2,15,34,734,1785.9724540223833,1787.2469299710356,"[94, 0, 160]",160,l,0.7512047747150064,colour,0.06
031,63,1,2,15,35,735,1787.75372853945,1790.3269574930891,"[75, 0, 179]",179,a,2.0494182107504457,colour,0.06
031,63,1,2,15,36,736,1790.847943573026,1794.8309333676007,"[78, 0, 176]",176,a,3.4596296115778387,colour,0.06
031,63,1,2,15,37,737,1795.3479636590928,1797.278966579819,"[60, 0, 194]",194,a,1.4077963375020772,colour,0.06
031,63,1,2,15,38,738,1797.788557909662,1799.0149149450008,"[92, 0, 162]",162,l,0.7031035844702274,colour,0.06
031,63,1,2,15,39,739,1799.5229056850076,1801.3909078305587,"[96, 0, 158]",158,l,1.3446057285182178,colour,0.06
031,63,1,2,15,40,740,1801.897962398827,1803.94299474149,"[62, 0, 192]",192,a,1.5218245778232813,colour,0.06
031,63,1,2,15,41,741,1804.4604200604372,1806.1350147142075,"[53, 0, 201]",201,a,1.1513415968511254,colour,0.06
031,63,1,2,15,42,742,1806.647911986569,1808.7829235498793,"[72, 0, 182]",182,a,1.6114414604380727,colour,0.06
031,63,1,2,15,43,743,1809.3040699250996,1810.6548960562795,"[90, 0, 164]",164,l,0.8274072650820017,colour,0.06
031,63,1,2,15,44,744,1811.163455115864,1812.6229224628769,"[87, 0, 167]",167,l,0.9361449731513858,colour,0.06
031,63,1,2,15,45,745,1813.1322176204994,1814.5989301570226,"[1, 0, 253]",253,a,0.9433799227699637,colour,0.06
031,63,1,2,15,46,746,1815.1174054690637,1816.830883349292,"[82, 0, 172]",172,l,1.1909932165872306,colour,0.06
031,63,1,2,15,47,747,1817.3522853304166,1819.1990347625688,"[74, 0, 180]",180,a,1.3235007075127214,colour,0.06
031,63,1,2,15,48,748,1819.7116642196197,1821.326955130091,"[59, 0, 195]",195,a,1.0923442656639963,colour,0.06
031,63,1,2,15,49,749,1821.8365949026775,1827.1909195673652,"[3, 0, 251]",251,a,4.831229145871475,colour,0.06
031,63,1,2,15,50,750,1827.7126720712986,1830.190930594923,"[93, 0, 161]",161,l,1.9552358663640916,colour,0.06
031,63,1,2,16,1,751,1836.121277762344,1839.0149531480856,"[94, 0, 160]",160,l,2.369610612280667,colour,0.06
031,63,1,2,16,2,752,1839.5283706909977,1842.1509497200605,"[78, 0, 176]",176,a,2.0992932827211916,colour,0.06
031,63,1,2,16,3,753,1842.6702312349807,1844.5509108868428,"[96, 0, 158]",158,l,1.3576428163796663,colour,0.06
031,63,1,2,16,4,754,1845.0498033922631,1846.414891865803,"[87, 0, 167]",167,l,0.8418302966747433,colour,0.06
031,63,1,2,16,5,755,1846.9247718844563,1848.422908993205,"[79, 0, 175]",175,a,0.9749250116292387,colour,0.06
031,63,1,2,16,6,756,1848.9404126876034,1850.1909648594446,"[59, 0, 195]",195,a,0.7271908072289079,colour,0.06
031,63,1,2,16,7,757,1850.7136125753168,1851.8948726775125,"[62, 0, 192]",192,a,0.6642632875591516,colour,0.06
031,63,1,2,16,8,758,1852.4103736653924,1854.054891881533,"[5, 0, 249]",249,a,1.1212663408368826,colour,0.06
031,63,1,2,16,9,759,1854.5666580284014,1855.8949187574908,"[66, 0, 188]",188,a,0.805023032007739,colour,0.06
031,63,1,2,16,10,760,1856.410503240535,1857.982973647071,"[70, 0, 184]",184,a,1.0492854847107083,colour,0.06
031,63,1,2,16,11,761,1858.5041538930964,1860.5668974868022,"[53, 0, 201]",201,a,1.5394936874508858,colour,0.06
031,63,1,2,16,12,762,1861.0822031269781,1862.4948784275912,"[84, 0, 170]",170,l,0.8894001883454621,colour,0.06
031,63,1,2,16,13,763,1863.0041093884502,1866.0068903344218,"[91, 0, 163]",163,l,2.4796696736011654,colour,0.06
031,63,1,2,16,14,764,1866.520883286139,1867.998871237738,"[90, 0, 164]",164,l,0.9546021684072912,colour,0.06
031,63,1,2,16,15,765,1868.5052783230785,1869.8788494500332,"[83, 0, 171]",171,l,0.8503263406455517,colour,0.06
031,63,1,2,16,16,766,1870.3958454770036,1871.7988999097142,"[67, 0, 187]",187,a,0.8797033079899848,colour,0.06
031,63,1,2,16,17,767,1872.3177702492103,1874.2469059464056,"[76, 0, 178]",178,a,1.4058267138898373,colour,0.06
031,63,1,2,16,18,768,1874.755157018546,1877.15084574488,"[82, 0, 172]",172,l,1.8724218846764416,colour,0.06
031,63,1,2,16,19,769,1877.6624228456058,1879.5348900225945,"[65, 0, 189]",189,a,1.349244446028024,colour,0.06
031,63,1,2,16,20,770,1880.040458216099,1881.8548910149839,"[55, 0, 199]",199,a,1.2909855756442994,colour,0.06
031,63,1,2,16,21,771,1882.3686094561126,1883.8388685751706,"[54, 0, 200]",200,a,0.9469824312254786,colour,0.06
031,63,1,2,16,22,772,1884.3529131207615,1885.8789045885205,"[99, 0, 155]",155,l,1.002827419899404,colour,0.06
031,63,1,2,16,23,773,1886.3998284407426,1888.110932217678,"[93, 0, 161]",161,l,1.1879598151426762,colour,0.06
031,63,1,2,16,24,774,1888.6186244222336,1890.2788657553028,"[74, 0, 180]",180,a,1.1369752790778875,colour,0.06
031,63,1,2,16,25,775,1890.790555102285,1892.9358586471062,"[72, 0, 182]",182,a,1.6209024270065129,colour,0.06
031,63,1,2,16,26,776,1893.448809482623,1895.4628536342643,"[51, 0, 203]",203,a,1.4907595869153738,colour,0.06
031,63,1,2,16,27,777,1895.9800375257619,1897.5429118762258,"[69, 0, 185]",185,a,1.0395972689148039,colour,0.06
031,63,1,2,16,28,778,1898.0582872270606,1899.4628768712282,"[50, 0, 204]",204,a,0.881430322304368,colour,0.06
031,63,1,2,16,29,779,1899.9800509165507,1901.2628492233343,"[97, 0, 157]",157,l,0.7595826652832329,colour,0.06
031,63,1,2,16,30,780,1901.778124537319,1902.894907729933,"[61, 0, 193]",193,a,0.5935258034151047,colour,0.06
031,63,1,2,16,31,781,1903.390535646351,1904.7589084010106,"[95, 0, 159]",159,l,0.8450243868865073,colour,0.06
031,63,1,2,16,32,782,1905.2561707780696,1906.7828172114678,"[64, 0, 190]",190,a,1.0033130319789052,colour,0.06
031,63,1,2,16,33,783,1907.2946633091196,1908.8148569709156,"[52, 0, 202]",202,a,0.9969685678370297,colour,0.06
031,63,1,2,16,34,784,1909.3258015553001,1910.54283468239,"[81, 0, 173]",173,l,0.6937182361725718,colour,0.06
031,63,1,2,16,35,785,1911.0607475826982,1912.478874104796,"[88, 0, 166]",166,l,0.8948533788789064,colour,0.06
031,63,1,2,16,36,786,1912.9982347826008,1915.1268290204462,"[73, 0, 181]",181,a,1.6053636299911886,colour,0.06
031,63,1,2,16,37,787,1915.6389236350078,1917.1668362829369,"[63, 0, 191]",191,a,1.0046064218040556,colour,0.06
031,63,1,2,16,38,788,1917.6857200134546,1920.1268321713433,"[71, 0, 183]",183,a,1.9179359008558095,colour,0.06
031,63,1,2,16,39,789,1920.6388389579952,1922.1828402120154,"[58, 0, 196]",196,a,1.0192775763571262,colour,0.06
031,63,1,2,16,40,790,1922.7027081632987,1924.9188295372296,"[92, 0, 162]",162,l,1.7048664388712496,colour,0.06
031,63,1,2,16,41,791,1925.426771834027,1927.1188477328978,"[85, 0, 169]",169,l,1.1738865186925977,colour,0.06
031,63,1,2,16,42,792,1927.64038519701,1929.4388451809064,"[56, 0, 198]",198,a,1.287348408717662,colour,0.06
031,63,1,2,16,43,793,1929.9561129612848,1931.766818402335,"[68, 0, 186]",186,a,1.2874307224992663,colour,0.06
031,63,1,2,16,44,794,1932.2842248168308,1935.3350896236952,"[47, 0, 207]",207,a,2.527498322306201,colour,0.06
031,63,1,2,16,45,795,1935.8467364353128,1937.4788370833267,"[89, 0, 165]",165,l,1.107354915002361,colour,0.06
031,63,1,2,16,46,796,1937.9887809052598,1941.1588376662694,"[60, 0, 194]",194,a,2.6467536855489016,colour,0.06
031,63,1,2,16,47,797,1941.6759557854384,1942.9748041010462,"[86, 0, 168]",168,l,0.7756500032264739,colour,0.06
031,63,1,2,16,48,798,1943.4883382222615,1945.1188686068635,"[57, 0, 197]",197,a,1.107210767455399,colour,0.06
031,63,1,2,16,49,799,1945.6288892284501,1946.8468285952695,"[77, 0, 177]",177,l,0.6949505803640932,colour,0.06
031,63,1,2,16,50,800,1947.3633043516893,1948.686808603583,"[15, 0, 239]",239,a,0.8001472195610404,colour,0.06
