id,age,condition,counterbalance,block,trialinblock,trial,tstart,tend,trialstim,trialintensity,response,RT,trialtype,colourfreq
136,20,1,2,Practice,1,NA,6.3015613704919815e-06,2.420255653327331,"[5, 0, 249]",249,a,1.8963141534477472,colour,0.5
136,20,1,2,Practice,2,NA,2.9382674088701606,4.124277292750776,"[92, 0, 162]",162,l,0.6631691835355014,colour,0.5
136,20,1,2,Practice,3,NA,4.641419042600319,5.468234751140699,"[14, 0, 240]",240,a,0.3031951931770891,colour,0.5
136,20,1,2,Practice,4,NA,5.985229990445077,6.780239489860833,"[82, 0, 172]",172,l,0.27182339620776474,colour,0.5
136,20,1,2,Practice,5,NA,7.297813288867474,7.9402007984463125,"[44, 0, 210]",210,a,0.11926008947193623,colour,0.5
136,20,1,2,Practice,6,NA,8.442748193861917,9.148242817027494,"[20, 0, 234]",234,l,0.18237232300452888,colour,0.5
136,20,1,2,Practice,7,NA,9.661235006293282,10.588189978851005,"[61, 0, 193]",193,a,0.41671694768592715,colour,0.5
136,20,1,2,Practice,8,NA,11.101917872205377,11.78820541757159,"[84, 0, 170]",170,l,0.16362643870525062,colour,0.5
136,20,1,2,Practice,9,NA,12.304922207724303,16.78827276523225,"[15, 0, 239]",239,a,3.9580116926226765,colour,0.5
136,20,1,2,Practice,10,NA,17.30691821873188,17.964239578228444,"[96, 0, 158]",158,l,0.13453619135543704,colour,0.5
136,20,1,2,1,1,1,4.770846264669672,5.807956002652645,"[67, 0, 187]",187,a,0.5131788721773773,colour,0.5
136,20,1,2,1,2,2,6.309147386578843,7.039946610340849,"[86, 0, 168]",168,l,0.2052571342792362,colour,0.5
136,20,1,2,1,3,3,7.5613462284673005,8.503936490043998,"[48, 0, 206]",206,a,0.4193029401358217,colour,0.5
136,20,1,2,1,4,4,9.01439467468299,9.920259985607117,"[34, 0, 220]",220,a,0.39213938685134053,colour,0.5
136,20,1,2,1,5,5,10.427229089196771,11.360011405777186,"[56, 0, 198]",198,a,0.4093646320980042,colour,0.5
136,20,1,2,1,6,6,11.880617030430585,12.71194936404936,"[29, 0, 225]",225,a,0.30808912264183164,colour,0.5
136,20,1,2,1,7,7,13.224328729091212,14.104001710889861,"[44, 0, 210]",210,a,0.356691284570843,colour,0.5
136,20,1,2,1,8,8,14.614997495198622,15.455967632122338,"[8, 0, 246]",246,a,0.31817827350459993,colour,0.5
136,20,1,2,1,9,9,15.974394501186907,16.784009383060038,"[4, 0, 250]",250,a,0.2864354739431292,colour,0.5
136,20,1,2,1,10,10,17.302542984252796,18.183980396017432,"[61, 0, 193]",193,a,0.3577085887081921,colour,0.5
136,20,1,2,1,11,11,18.693198753520846,19.519980197539553,"[7, 0, 247]",247,a,0.30397146358154714,colour,0.5
136,20,1,2,1,12,12,20.03686673520133,20.72798795159906,"[57, 0, 197]",197,a,0.1683159621898085,colour,0.5
136,20,1,2,1,13,13,21.24258506274782,22.15998100093566,"[65, 0, 189]",189,a,0.39433429017663,colour,0.5
136,20,1,2,1,14,14,22.68034756113775,23.49615409458056,"[54, 0, 200]",200,a,0.2931887498125434,colour,0.5
136,20,1,2,1,15,15,24.00817702896893,24.896025070687756,"[10, 0, 244]",244,a,0.36467178468592465,colour,0.5
136,20,1,2,1,16,16,25.414535828866065,26.287891522282735,"[66, 0, 188]",188,a,0.35037990380078554,colour,0.5
136,20,1,2,1,17,17,26.80502303224057,27.640035855816677,"[2, 0, 252]",252,a,0.31171053601428866,colour,0.5
136,20,1,2,1,18,18,28.148850127356127,28.992042737081647,"[15, 0, 239]",239,a,0.3198253372684121,colour,0.5
136,20,1,2,1,19,19,29.508156942902133,30.32798661245033,"[17, 0, 237]",237,a,0.29689405229873955,colour,0.5
136,20,1,2,1,20,20,30.836327087366953,31.624042954528704,"[16, 0, 238]",238,a,0.26447383780032396,colour,0.5
136,20,1,2,1,21,21,32.133150247624144,32.88798510003835,"[26, 0, 228]",228,a,0.2320563797838986,colour,0.5
136,20,1,2,1,22,22,33.38978615752421,34.223970329156145,"[13, 0, 241]",241,a,0.31169084343127906,colour,0.5
136,20,1,2,1,23,23,34.733698717318475,35.42393102333881,"[69, 0, 185]",185,a,0.1670359626878053,colour,0.5
136,20,1,2,1,24,24,35.93681687419303,36.7520617833361,"[36, 0, 218]",218,a,0.2924420179333538,colour,0.5
136,20,1,2,1,25,25,37.26492242817767,37.96795393899083,"[9, 0, 245]",245,a,0.18027981976047158,colour,0.5
136,20,1,2,1,26,26,38.483638065168634,39.4639693996869,"[76, 0, 178]",178,a,0.4574122589547187,colour,0.5
136,20,1,2,1,27,27,39.98362585576251,40.88000341854058,"[35, 0, 219]",219,a,0.3733029179275036,colour,0.5
136,20,1,2,1,28,28,41.38990982505493,42.68004745058715,"[38, 0, 216]",216,a,0.7670263529289514,colour,0.5
136,20,1,2,1,29,29,43.1868007266894,43.75205626967363,"[81, 0, 173]",173,l,0.04260310111567378,colour,0.5
136,20,1,2,1,30,30,44.26494763419032,44.85688466299325,"[62, 0, 192]",192,a,0.06922787288203835,colour,0.5
136,20,1,2,1,31,31,45.374252086505294,46.17595105920918,"[58, 0, 196]",196,a,0.27845142944715917,colour,0.5
136,20,1,2,1,32,32,46.686818055808544,47.47208223189227,"[51, 0, 203]",203,a,0.2619457405526191,colour,0.5
136,20,1,2,1,33,33,47.983666815795004,48.87193942326121,"[83, 0, 171]",171,l,0.3656512792222202,colour,0.5
136,20,1,2,1,34,34,49.389929911121726,50.20797152025625,"[79, 0, 175]",175,l,0.29489725339226425,colour,0.5
136,20,1,2,1,35,35,50.71803073887713,51.335927727632225,"[63, 0, 191]",191,a,0.10039723291993141,colour,0.5
136,20,1,2,1,36,36,51.85360707738437,52.6240086897742,"[41, 0, 213]",213,a,0.2469153986312449,colour,0.5
136,20,1,2,1,37,37,53.13484732969664,53.919990201247856,"[14, 0, 240]",240,a,0.2598567819222808,colour,0.5
136,20,1,2,1,38,38,54.43393037747592,55.28001893614419,"[80, 0, 174]",174,l,0.3229607446119189,colour,0.5
136,20,1,2,1,39,39,55.793416392756626,56.703963350271806,"[72, 0, 182]",182,a,0.38668934698216617,colour,0.5
136,20,1,2,1,40,40,57.21528366371058,57.93595789629035,"[0, 0, 254]",254,a,0.19730656640604138,colour,0.5
136,20,1,2,1,41,41,58.44726954493672,58.975959644885734,"[39, 0, 215]",215,a,0.01796173700131476,colour,0.5
136,20,1,2,1,42,42,59.48176099546254,60.09595425706357,"[94, 0, 160]",160,l,0.09098037681542337,colour,0.5
136,20,1,2,1,43,43,60.6066995554138,61.19192584347911,"[49, 0, 205]",205,a,0.07463498343713582,colour,0.5
136,20,1,2,1,44,44,61.706535164266825,62.31993010034785,"[18, 0, 236]",236,a,0.0905451774597168,colour,0.5
136,20,1,2,1,45,45,62.83239689911716,63.567896673688665,"[92, 0, 162]",162,l,0.2125893635675311,colour,0.5
136,20,1,2,1,46,46,64.0733171752654,64.77593869250268,"[64, 0, 190]",190,a,0.17991433083079755,colour,0.5
136,20,1,2,1,47,47,65.29300679313019,66.08011928806081,"[11, 0, 243]",243,a,0.2638799180276692,colour,0.5
136,20,1,2,1,48,48,66.58978544850834,67.25602978118695,"[87, 0, 167]",167,l,0.14339260454289615,colour,0.5
136,20,1,2,1,49,49,67.77735338686034,68.69598757661879,"[70, 0, 184]",184,a,0.39593409234657884,colour,0.5
136,20,1,2,1,50,50,69.21483861771412,70.34397911978886,"[90, 0, 164]",164,l,0.6056397159118205,colour,0.5
136,20,1,2,2,1,51,75.33905565203167,76.5359384403564,"[64, 0, 190]",190,a,0.6724580395966768,colour,0.5
136,20,1,2,2,2,52,77.04305169149302,78.01593461213633,"[15, 0, 239]",239,a,0.4498445095960051,colour,0.5
136,20,1,2,2,3,53,78.52733369474299,79.46393867977895,"[52, 0, 202]",202,a,0.4132373188622296,colour,0.5
136,20,1,2,2,4,54,79.98042861465365,80.9680138034746,"[95, 0, 159]",159,l,0.46812092955224216,colour,0.5
136,20,1,2,2,5,55,81.4770494166296,82.34391649835743,"[17, 0, 237]",237,a,0.34967649495229125,colour,0.5
136,20,1,2,2,6,56,82.86280259187333,83.74391823122278,"[35, 0, 219]",219,a,0.35507375933229923,colour,0.5
136,20,1,2,2,7,57,84.24366892687976,85.15193630405702,"[51, 0, 203]",203,a,0.3854353413917124,colour,0.5
136,20,1,2,2,8,58,85.66551335458644,86.56794747989625,"[18, 0, 236]",236,a,0.378997536143288,colour,0.5
136,20,1,2,2,9,59,87.08747751149349,87.91189784905873,"[14, 0, 240]",240,a,0.3017344188410789,colour,0.5
136,20,1,2,2,10,60,88.43128845910542,89.42389124492183,"[86, 0, 168]",168,l,0.46962502715177834,colour,0.5
136,20,1,2,2,11,61,89.93115179450251,90.62389565608464,"[48, 0, 206]",206,a,0.16961841052398086,colour,0.5
136,20,1,2,2,12,62,91.13439952675253,91.98389170179144,"[99, 0, 155]",155,l,0.32624660106375813,colour,0.5
136,20,1,2,2,13,63,92.49368664994836,93.72789145912975,"[83, 0, 171]",171,a,0.7114712349139154,colour,0.5
136,20,1,2,2,14,64,94.23575262376107,95.12796565983444,"[28, 0, 226]",226,a,0.36940778186544776,colour,0.5
136,20,1,2,2,15,65,95.62975490186363,96.83188135479577,"[75, 0, 179]",179,a,0.6909026319626719,colour,0.5
136,20,1,2,2,16,66,97.34465338406153,98.21596186631359,"[94, 0, 160]",160,l,0.348202723544091,colour,0.5
136,20,1,2,2,17,67,98.73529339954257,99.3519316567108,"[25, 0, 229]",229,a,0.09216821636073291,colour,0.5
136,20,1,2,2,18,68,99.8622921674978,100.66395451244898,"[85, 0, 169]",169,l,0.27702767634764314,colour,0.5
136,20,1,2,2,19,69,101.17634844966233,101.99996100924909,"[45, 0, 209]",209,a,0.3002295333426446,colour,0.5
136,20,1,2,2,20,70,102.52010819735005,103.32794565241784,"[61, 0, 193]",193,a,0.29483305662870407,colour,0.5
136,20,1,2,2,21,71,103.83787056966685,104.70391608867794,"[84, 0, 170]",170,l,0.34349665860645473,colour,0.5
136,20,1,2,2,22,72,105.21292176959105,105.79191899066791,"[8, 0, 246]",246,a,0.05598086537793279,colour,0.5
136,20,1,2,2,23,73,106.30658935732208,107.00796947232448,"[50, 0, 204]",204,a,0.17813020874746144,colour,0.5
136,20,1,2,2,24,74,107.5252333143726,108.33590961084701,"[38, 0, 216]",216,a,0.2874437195714563,colour,0.5
136,20,1,2,2,25,75,108.85341448662803,109.62389486841857,"[66, 0, 188]",188,a,0.24754082621075213,colour,0.5
136,20,1,2,2,26,76,110.13468191423453,110.98393187415786,"[29, 0, 225]",225,a,0.326293074991554,colour,0.5
136,20,1,2,2,27,77,111.49499736912549,112.3118976126425,"[76, 0, 178]",178,a,0.2948976473417133,colour,0.5
136,20,1,2,2,28,78,112.82240424025804,113.44787370460108,"[3, 0, 251]",251,a,0.10239206254482269,colour,0.5
136,20,1,2,2,29,79,113.96308442787267,114.57587165990844,"[19, 0, 235]",235,a,0.10059730685316026,colour,0.5
136,20,1,2,2,30,80,115.09255182230845,115.8480384896975,"[5, 0, 249]",249,a,0.23254120396450162,colour,0.5
136,20,1,2,2,31,81,116.3581532407552,116.99185408488847,"[11, 0, 243]",243,a,0.12308433349244297,colour,0.5
136,20,1,2,2,32,82,117.50277464464307,118.45590225374326,"[74, 0, 180]",180,l,0.43032826273702085,colour,0.5
136,20,1,2,2,33,83,118.97148319217376,119.63189702969976,"[7, 0, 247]",247,a,0.1374081156682223,colour,0.5
136,20,1,2,2,34,84,120.14348673378117,120.67191059375182,"[12, 0, 242]",242,a,0.005359061295166612,colour,0.5
136,20,1,2,2,35,85,121.19029098912142,122.14389121346176,"[4, 0, 250]",250,a,0.4305665395222604,colour,0.5
136,20,1,2,2,36,86,122.65960881649517,123.52791501116008,"[36, 0, 218]",218,a,0.3452701468486339,colour,0.5
136,20,1,2,2,37,87,124.03462890256196,124.91992718586698,"[31, 0, 223]",223,a,0.37052669818513095,colour,0.5
136,20,1,2,2,38,88,125.42330638389103,126.26388779492117,"[6, 0, 248]",248,a,0.31714915414340794,colour,0.5
136,20,1,2,2,39,89,126.77311521093361,127.62387360073626,"[44, 0, 210]",210,a,0.3364487858489156,colour,0.5
136,20,1,2,2,40,90,128.13986847130582,129.08787372033112,"[91, 0, 163]",163,l,0.4256221977993846,colour,0.5
136,20,1,2,2,41,91,129.6031907822471,130.36798993637785,"[39, 0, 215]",215,a,0.2421912169083953,colour,0.5
136,20,1,2,2,42,92,130.8844101605937,131.70390033489093,"[80, 0, 174]",174,l,0.2964017449412495,colour,0.5
136,20,1,2,2,43,93,132.2107760971412,134.20001937728375,"[37, 0, 217]",217,a,1.4666999336332083,colour,0.5
136,20,1,2,2,44,94,134.71086116787046,135.7439150805585,"[70, 0, 184]",184,l,0.5197529483120888,colour,0.5
136,20,1,2,2,45,95,136.26464791758917,137.12791839824058,"[93, 0, 161]",161,l,0.33987091295421124,colour,0.5
136,20,1,2,2,46,96,137.63962428667583,138.31189800659195,"[59, 0, 195]",195,a,0.14938890864141285,colour,0.5
136,20,1,2,2,47,97,138.82717095757835,139.69591707806103,"[97, 0, 157]",157,l,0.34544343897141516,colour,0.5
136,20,1,2,2,48,98,140.20215638517402,140.95189920370467,"[56, 0, 198]",198,a,0.22706201951950788,colour,0.5
136,20,1,2,2,49,99,141.4677960067056,142.19990594964474,"[68, 0, 186]",186,a,0.20888957497663796,colour,0.5
136,20,1,2,2,50,100,142.72063051583245,143.57590513676405,"[79, 0, 175]",175,a,0.33241147128865123,colour,0.5
136,20,1,2,3,1,101,151.9181202207692,153.02386115514673,"[77, 0, 177]",177,l,0.5936778276227415,colour,0.5
136,20,1,2,3,2,102,153.53243715013377,154.74390129582025,"[47, 0, 207]",207,a,0.6861363083589822,colour,0.5
136,20,1,2,3,3,103,155.25403849617578,156.2238683232572,"[82, 0, 172]",172,l,0.44642789638601243,colour,0.5
136,20,1,2,3,4,104,156.72845347737893,157.8719567526132,"[49, 0, 205]",205,a,0.620749220950529,colour,0.5
136,20,1,2,3,5,105,158.38461259752512,159.69590683816932,"[39, 0, 215]",215,a,0.7880084945354611,colour,0.5
136,20,1,2,3,6,106,160.21336720930412,161.2799165362958,"[50, 0, 204]",204,a,0.5437566759064794,colour,0.5
136,20,1,2,3,7,107,161.7913620925974,162.78385420772247,"[20, 0, 234]",234,a,0.4695316858123988,colour,0.5
136,20,1,2,3,8,108,163.29134712647647,164.45591367525049,"[21, 0, 233]",233,a,0.6412937995046377,colour,0.5
136,20,1,2,3,9,109,164.96323093865067,166.05588634242304,"[4, 0, 250]",250,a,0.5696032082196325,colour,0.5
136,20,1,2,3,10,110,166.5707666289527,167.54384765401483,"[71, 0, 183]",183,l,0.4497417157981545,colour,0.5
136,20,1,2,3,11,111,168.0578685689252,168.9038996261079,"[43, 0, 211]",211,a,0.3230347877833992,colour,0.5
136,20,1,2,3,12,112,169.41719310730696,170.22383602778427,"[81, 0, 173]",173,l,0.2844256781972945,colour,0.5
136,20,1,2,3,13,113,170.72975395666435,171.52785632829182,"[59, 0, 195]",195,a,0.2753026313148439,colour,0.5
136,20,1,2,3,14,114,172.03693802119233,172.8799167724792,"[58, 0, 196]",196,a,0.31935587292537093,colour,0.5
136,20,1,2,3,15,115,173.38628880563192,174.1920254866127,"[91, 0, 163]",163,l,0.28288455912843347,colour,0.5
136,20,1,2,3,16,116,174.6871244679205,175.3839245485142,"[94, 0, 160]",160,l,0.17347810044884682,colour,0.5
136,20,1,2,3,17,117,175.8901607049629,176.69597654882818,"[3, 0, 251]",251,a,0.2821492487564683,colour,0.5
136,20,1,2,3,18,118,177.19081598566845,178.09588533407077,"[36, 0, 218]",218,a,0.3816843528766185,colour,0.5
136,20,1,2,3,19,119,178.613145631738,179.48789199488238,"[41, 0, 213]",213,a,0.3514720385428518,colour,0.5
136,20,1,2,3,20,120,179.9912164483685,181.17593648680486,"[10, 0, 244]",244,a,0.6616946244612336,colour,0.5
136,20,1,2,3,21,121,181.6946063588839,182.56786989234388,"[78, 0, 176]",176,l,0.35049727000296116,colour,0.5
136,20,1,2,3,22,122,183.08515224512666,183.83987012528814,"[52, 0, 202]",202,a,0.23183543211780488,colour,0.5
136,20,1,2,3,23,123,184.35075523890555,185.27184072555974,"[73, 0, 181]",181,l,0.4031280819326639,colour,0.5
136,20,1,2,3,24,124,185.78445757972077,186.51991127431393,"[62, 0, 192]",192,a,0.21784641896374524,colour,0.5
136,20,1,2,3,25,125,187.02591860620305,187.67190389847383,"[40, 0, 214]",214,a,0.12290907208807766,colour,0.5
136,20,1,2,3,26,126,188.17327999603003,188.95987182669342,"[31, 0, 223]",223,a,0.26375979487784207,colour,0.5
136,20,1,2,3,27,127,189.47100033704191,189.99986845557578,"[18, 0, 236]",236,a,0.0058541258331388235,colour,0.5
136,20,1,2,3,28,128,190.51794716482982,191.83185536088422,"[15, 0, 239]",239,a,0.7919564060866833,colour,0.5
136,20,1,2,3,29,129,192.3477994252462,193.3278641263023,"[86, 0, 168]",168,l,0.4690945167094469,colour,0.5
136,20,1,2,3,30,130,193.8359395430889,194.59985372563824,"[33, 0, 221]",221,a,0.2489578837994486,colour,0.5
136,20,1,2,3,31,131,195.10889406502247,195.9838956403546,"[45, 0, 209]",209,a,0.3526047393679619,colour,0.5
136,20,1,2,3,32,132,196.4995766156353,197.311889735749,"[24, 0, 230]",230,a,0.28959451196715236,colour,0.5
136,20,1,2,3,33,133,197.82763451407664,198.68785977829248,"[25, 0, 229]",229,a,0.3373857452534139,colour,0.5
136,20,1,2,3,34,134,199.20259276637807,199.94386829156429,"[22, 0, 232]",232,a,0.2176416190341115,colour,0.5
136,20,1,2,3,35,135,200.45373807032593,201.31185389589518,"[74, 0, 180]",180,l,0.34339583409018815,colour,0.5
136,20,1,2,3,36,136,201.82089699199423,202.65584955713712,"[66, 0, 188]",188,a,0.31839016266167164,colour,0.5
136,20,1,2,3,37,137,203.17358483280987,203.76786091248505,"[48, 0, 206]",206,a,0.0714452255051583,colour,0.5
136,20,1,2,3,38,138,204.28292709449306,205.0078339893371,"[84, 0, 170]",170,l,0.20146873034536839,colour,0.5
136,20,1,2,3,39,139,205.51729062362574,206.16788548859768,"[61, 0, 193]",193,a,0.13962901290506124,colour,0.5
136,20,1,2,3,40,140,206.67764341505244,207.31187713262625,"[97, 0, 157]",157,l,0.11171400151215494,colour,0.5
136,20,1,2,3,41,141,207.81783995986916,208.4318362986669,"[79, 0, 175]",175,l,0.10345347714610398,colour,0.5
136,20,1,2,3,42,142,208.946047835052,211.07999758957885,"[27, 0, 227]",227,a,1.610669128363952,colour,0.5
136,20,1,2,3,43,143,211.58661498874426,212.49588785483502,"[35, 0, 219]",219,a,0.3862025535199791,colour,0.5
136,20,1,2,3,44,144,213.00866382266395,214.0078166599851,"[9, 0, 245]",245,a,0.47582494956441224,colour,0.5
136,20,1,2,3,45,145,214.52415260113776,215.43989005405456,"[63, 0, 191]",191,a,0.39282310334965587,colour,0.5
136,20,1,2,3,46,146,215.93691179109737,216.81593138258904,"[88, 0, 166]",166,l,0.35578189441002905,colour,0.5
136,20,1,2,3,47,147,217.32743680360727,218.1278664106503,"[0, 0, 254]",254,a,0.2769760824739933,colour,0.5
136,20,1,2,3,48,148,218.63999804644845,219.31985172489658,"[65, 0, 189]",189,a,0.15763210388831794,colour,0.5
136,20,1,2,3,49,149,219.82757110497914,220.53582225576974,"[57, 0, 197]",197,a,0.18579878262244165,colour,0.5
136,20,1,2,3,50,150,221.03403892135248,221.7438370990567,"[95, 0, 159]",159,l,0.1868487757164985,colour,0.5
136,20,1,2,4,1,151,227.83514239895158,228.89583484316245,"[38, 0, 216]",216,a,0.5365331477951258,colour,0.5
136,20,1,2,4,2,152,229.40194418095052,230.30384110054,"[16, 0, 238]",238,a,0.3818044760264456,colour,0.5
136,20,1,2,4,3,153,230.821174653247,231.7678593371529,"[90, 0, 164]",164,l,0.42412046319805086,colour,0.5
136,20,1,2,4,4,154,232.2743164410349,233.18383506685495,"[46, 0, 208]",208,a,0.3866038825362921,colour,0.5
136,20,1,2,4,5,155,233.6961844994221,234.4158300065901,"[9, 0, 245]",245,l,0.19685600674711168,colour,0.5
136,20,1,2,4,6,156,234.93054566555656,235.4878191333264,"[1, 0, 253]",253,l,0.046004748204723,colour,0.5
136,20,1,2,4,7,157,235.99692760803737,236.78384711849503,"[64, 0, 190]",190,l,0.2636002872604877,colour,0.5
136,20,1,2,4,8,158,237.29372477415018,238.67980877985246,"[36, 0, 218]",218,l,0.8629364992957562,colour,0.5
136,20,1,2,4,9,159,239.2013025272172,240.07180598843843,"[83, 0, 171]",171,a,0.3471405210439116,colour,0.5
136,20,1,2,4,10,160,240.5917889426928,241.1438183519058,"[24, 0, 230]",230,l,0.028798407642170787,colour,0.5
136,20,1,2,4,11,161,241.65436515188776,242.2478271520231,"[15, 0, 239]",239,l,0.07093322579748929,colour,0.5
136,20,1,2,4,12,162,242.7637834257912,243.54377006646246,"[47, 0, 207]",207,a,0.25485572637990117,colour,0.5
136,20,1,2,4,13,163,244.06240764306858,245.05605254531838,"[88, 0, 166]",166,l,0.47074315580539405,colour,0.5
136,20,1,2,4,14,164,245.5625533661805,246.10382132953964,"[5, 0, 249]",249,a,0.017960949568077922,colour,0.5
136,20,1,2,4,15,165,246.62490862770937,247.28786946693435,"[52, 0, 202]",202,a,0.14001143723726273,colour,0.5
136,20,1,2,4,16,166,247.7968767231796,248.65590075706132,"[41, 0, 213]",213,a,0.3357737339101732,colour,0.5
136,20,1,2,4,17,167,249.17407832178287,249.89580018469132,"[68, 0, 186]",186,a,0.19874213496223092,colour,0.5
136,20,1,2,4,18,168,250.4084379125852,251.12785459519364,"[85, 0, 169]",169,l,0.1964932745322585,colour,0.5
136,20,1,2,4,19,169,251.64284988492727,252.24787677661516,"[7, 0, 247]",247,a,0.08173011778853834,colour,0.5
136,20,1,2,4,20,170,252.76912358263507,253.62384918215685,"[50, 0, 204]",204,a,0.3317104254383594,colour,0.5
136,20,1,2,4,21,171,254.14427363779396,255.00784462317824,"[40, 0, 214]",214,a,0.3413336568046361,colour,0.5
136,20,1,2,4,22,172,255.5182370354887,256.3678300350439,"[8, 0, 246]",246,a,0.3270504407119006,colour,0.5
136,20,1,2,4,23,173,256.8775080109481,257.7837856784463,"[59, 0, 195]",195,a,0.3828922782558948,colour,0.5
136,20,1,2,4,24,174,258.28697583056055,259.14383646892384,"[21, 0, 233]",233,a,0.3334614646155387,colour,0.5
136,20,1,2,4,25,175,259.66198803973384,260.5438228417188,"[51, 0, 203]",203,a,0.35835961578413844,colour,0.5
136,20,1,2,4,26,176,261.05262805498205,262.03181920573115,"[17, 0, 237]",237,a,0.4561354103498161,colour,0.5
136,20,1,2,4,27,177,262.5526449903846,263.5998521503061,"[80, 0, 174]",174,l,0.524125425843522,colour,0.5
136,20,1,2,4,28,178,264.10505958111025,264.7838246691972,"[56, 0, 198]",198,a,0.15575976017862558,colour,0.5
136,20,1,2,4,29,179,265.28016111440957,266.1358417905867,"[63, 0, 191]",191,a,0.33207867154851556,colour,0.5
136,20,1,2,4,30,180,266.6560047324747,267.40780854667537,"[53, 0, 201]",201,a,0.22641886910423636,colour,0.5
136,20,1,2,4,31,181,267.9245674784761,268.6718137077987,"[57, 0, 197]",197,a,0.2247363596688956,colour,0.5
136,20,1,2,4,32,182,269.1896647741087,269.8478427482769,"[72, 0, 182]",182,a,0.13457872648723423,colour,0.5
136,20,1,2,4,33,183,270.36180576775223,271.07982193445787,"[39, 0, 215]",215,a,0.19459218042902648,colour,0.5
136,20,1,2,4,34,184,271.596545813838,272.2559770056978,"[28, 0, 226]",226,a,0.13657473772764206,colour,0.5
136,20,1,2,4,35,185,272.7684256876819,273.56787304300815,"[49, 0, 205]",205,a,0.2766767595894635,colour,0.5
136,20,1,2,4,36,186,274.0807691337541,274.9678377544042,"[98, 0, 156]",156,l,0.3635587759781629,colour,0.5
136,20,1,2,4,37,187,275.4797736487817,276.01578022446483,"[31, 0, 223]",223,a,0.013279696693643928,colour,0.5
136,20,1,2,4,38,188,276.5295900378842,277.0558371115476,"[25, 0, 229]",229,a,0.002906189067289233,colour,0.5
136,20,1,2,4,39,189,277.57649196707644,278.47183844121173,"[60, 0, 194]",194,a,0.3723372076638043,colour,0.5
136,20,1,2,4,40,190,278.9826849580277,279.9118356213439,"[86, 0, 168]",168,l,0.40609098481945693,colour,0.5
136,20,1,2,4,41,191,280.42168846470304,281.3119362096768,"[14, 0, 240]",240,a,0.3675023552495986,colour,0.5
136,20,1,2,4,42,192,281.82799488306046,282.5838509781752,"[35, 0, 219]",219,a,0.23251796723343432,colour,0.5
136,20,1,2,4,43,193,283.0936262339819,283.90385393984616,"[54, 0, 200]",200,a,0.2872944518458098,colour,0.5
136,20,1,2,4,44,194,284.4217948031146,285.39187039015815,"[75, 0, 179]",179,l,0.4488209041301161,colour,0.5
136,20,1,2,4,45,195,285.904369878117,286.44800524925813,"[58, 0, 196]",196,a,0.01949340384453535,colour,0.5
136,20,1,2,4,46,196,286.96699492423795,287.75976107735187,"[89, 0, 165]",165,l,0.2690306350123137,colour,0.5
136,20,1,2,4,47,197,288.28048091731034,288.86381516978145,"[22, 0, 232]",232,a,0.060709773330017924,colour,0.5
136,20,1,2,4,48,198,289.3618293986656,290.3597869137302,"[99, 0, 155]",155,l,0.4751621070317924,colour,0.5
136,20,1,2,4,49,199,290.88005619402975,292.9997908677906,"[6, 0, 248]",248,a,1.596500915242359,colour,0.5
136,20,1,2,4,50,200,293.50966300978325,294.3998678254429,"[62, 0, 192]",192,a,0.36679185717366636,colour,0.5
136,20,1,2,5,1,201,299.7053524449002,300.7198073777836,"[89, 0, 165]",165,l,0.49102425132878125,colour,0.4
136,20,1,2,5,2,202,301.23728113994,302.06385542079806,"[31, 0, 223]",223,a,0.30317116854712367,colour,0.4
136,20,1,2,5,3,203,302.5811361982487,303.44776776013896,"[2, 0, 252]",252,a,0.343957458389923,colour,0.4
136,20,1,2,5,4,204,303.94520894321613,304.7837813461665,"[51, 0, 203]",203,a,0.3131153841968626,colour,0.4
136,20,1,2,5,5,205,305.2915412923321,306.20781122497283,"[55, 0, 199]",199,a,0.40457152714952826,colour,0.4
136,20,1,2,5,6,206,306.71757978526875,307.6318285006564,"[57, 0, 197]",197,a,0.4034214972052723,colour,0.4
136,20,1,2,5,7,207,308.1427179465536,309.11188335553743,"[97, 0, 157]",157,l,0.4463731518480927,colour,0.4
136,20,1,2,5,8,208,309.62757535860874,310.37585503957234,"[46, 0, 208]",208,a,0.224877750268206,colour,0.4
136,20,1,2,5,9,209,310.8900185264647,311.74380677286536,"[39, 0, 215]",215,a,0.33096054289489985,colour,0.4
136,20,1,2,5,10,210,312.2494375880342,313.09586918656714,"[83, 0, 171]",171,l,0.32372756279073656,colour,0.4
136,20,1,2,5,11,211,313.61204798310064,314.375769181177,"[70, 0, 184]",184,a,0.23773839510977268,colour,0.4
136,20,1,2,5,12,212,314.8957411078736,315.7197908363305,"[63, 0, 191]",191,a,0.30122438818216324,colour,0.4
136,20,1,2,5,13,213,316.2395138524007,316.93598546553403,"[68, 0, 186]",186,a,0.17386091873049736,colour,0.4
136,20,1,2,5,14,214,317.4410743487533,318.00784816779196,"[61, 0, 193]",193,a,0.042006030678749084,colour,0.4
136,20,1,2,5,15,215,318.51657933788374,319.0958057772368,"[82, 0, 172]",172,a,0.05628294521011412,colour,0.4
136,20,1,2,5,16,216,319.5977651607245,320.1519682055805,"[34, 0, 220]",220,a,0.04170276923105121,colour,0.4
136,20,1,2,5,17,217,320.66014759778045,322.0477971408982,"[30, 0, 224]",224,a,0.8618132506962866,colour,0.4
136,20,1,2,5,18,218,322.5686674301978,323.383833570173,"[26, 0, 228]",228,a,0.2920257227960974,colour,0.4
136,20,1,2,5,19,219,323.89696754398756,324.6477682327386,"[65, 0, 189]",189,a,0.22784656076692045,colour,0.4
136,20,1,2,5,20,220,325.163785552606,325.767764814198,"[23, 0, 231]",231,a,0.09228400699794292,colour,0.4
136,20,1,2,5,21,221,326.2806833542418,326.97576193441637,"[78, 0, 176]",176,l,0.1716955539304763,colour,0.4
136,20,1,2,5,22,222,327.48389091412537,328.05578551790677,"[73, 0, 181]",181,l,0.04933865391649306,colour,0.4
136,20,1,2,5,23,223,328.5620445171371,330.0317849412095,"[15, 0, 239]",239,a,0.9477244371082634,colour,0.4
136,20,1,2,5,24,224,330.54561602231115,331.1598281885963,"[44, 0, 210]",210,a,0.09136122604832053,colour,0.4
136,20,1,2,5,25,225,331.67067076684907,332.28000200074166,"[50, 0, 204]",204,a,0.09866982465609908,colour,0.4
136,20,1,2,5,26,226,332.79884477122687,333.5117854452692,"[95, 0, 159]",159,l,0.1900932784192264,colour,0.4
136,20,1,2,5,27,227,334.0331452849787,334.5997580210678,"[4, 0, 250]",250,a,0.04416154930368066,colour,0.4
136,20,1,2,5,28,228,335.0988186986651,335.65577551419847,"[3, 0, 251]",251,a,0.033346934244036674,colour,0.4
136,20,1,2,5,29,229,336.1646016011946,336.8877708478831,"[77, 0, 177]",177,l,0.20942126703448594,colour,0.4
136,20,1,2,5,30,230,337.4052824189421,337.99983025249094,"[87, 0, 167]",167,a,0.07184261619113386,colour,0.4
136,20,1,2,5,31,231,338.5146640650928,339.1917769697029,"[99, 0, 155]",155,l,0.1539453121367842,colour,0.4
136,20,1,2,5,32,232,339.7022524836939,340.39972682856023,"[13, 0, 241]",241,a,0.17418505414389074,colour,0.4
136,20,1,2,5,33,233,340.90582435112447,341.6157828238793,"[59, 0, 195]",195,a,0.18512924434617162,colour,0.4
136,20,1,2,5,34,234,342.1301215724088,342.88777281716466,"[18, 0, 236]",236,a,0.23418629867956042,colour,0.4
136,20,1,2,5,35,235,343.39568163710646,343.99204746307805,"[14, 0, 240]",240,a,0.07367557473480701,colour,0.4
136,20,1,2,5,36,236,344.5051156647969,345.2878013316076,"[40, 0, 214]",214,a,0.26946110860444605,colour,0.4
136,20,1,2,5,37,237,345.8082285441924,346.67194052622654,"[98, 0, 156]",156,l,0.3404707405716181,colour,0.4
136,20,1,2,5,38,238,347.18329037795775,348.12794281682,"[88, 0, 166]",166,l,0.4210504344664514,colour,0.4
136,20,1,2,5,39,239,348.6363262210507,349.4237758482341,"[21, 0, 233]",233,a,0.264560877578333,colour,0.4
136,20,1,2,5,40,240,349.92086926521733,350.60776490857825,"[37, 0, 217]",217,a,0.1637087524868548,colour,0.4
136,20,1,2,5,41,241,351.12408824660815,351.999749120092,"[62, 0, 192]",192,a,0.3529698345810175,colour,0.4
136,20,1,2,5,42,242,352.5146203483455,353.49572913488373,"[92, 0, 162]",162,l,0.4578797542490065,colour,0.4
136,20,1,2,5,43,243,354.01464319135994,354.5597578478046,"[8, 0, 246]",246,a,0.022058522328734398,colour,0.4
136,20,1,2,5,44,244,355.07700987462886,355.94377652555704,"[84, 0, 170]",170,l,0.3436668000649661,colour,0.4
136,20,1,2,5,45,245,356.45202011452056,357.31178260967135,"[72, 0, 182]",182,a,0.33726483467034996,colour,0.4
136,20,1,2,5,46,246,357.8270606806036,358.55974406329915,"[66, 0, 188]",188,a,0.2096225223504007,colour,0.4
136,20,1,2,5,47,247,359.0770130252931,359.7037384642754,"[56, 0, 198]",198,a,0.10331760044209659,colour,0.4
136,20,1,2,5,48,248,360.2176120807417,360.8157301272731,"[94, 0, 160]",160,l,0.0740182208828628,colour,0.4
136,20,1,2,5,49,249,361.3281150062103,362.24774523219094,"[96, 0, 158]",158,l,0.3970049594063312,colour,0.4
136,20,1,2,5,50,250,362.7656041753944,363.8077519906219,"[10, 0, 244]",244,a,0.5285880940500647,colour,0.4
136,20,1,2,6,1,251,368.63934977608733,369.63174342992716,"[91, 0, 163]",163,l,0.46869397535920143,colour,0.28
136,20,1,2,6,2,252,370.137374245096,370.9997313970234,"[95, 0, 159]",159,l,0.33988587907515466,colour,0.28
136,20,1,2,6,3,253,371.51236951886676,372.39175617462024,"[26, 0, 228]",228,a,0.35657273698598146,colour,0.28
136,20,1,2,6,4,254,372.9030827896204,373.8238520179875,"[64, 0, 190]",190,a,0.39696911931969225,colour,0.28
136,20,1,2,6,5,255,374.34572070650756,375.1677811194677,"[62, 0, 192]",192,a,0.2984891284722835,colour,0.28
136,20,1,2,6,6,256,375.67379475268535,376.599728876492,"[12, 0, 242]",242,a,0.40293982345610857,colour,0.28
136,20,1,2,6,7,257,377.1003554854542,378.02383949351497,"[85, 0, 169]",169,l,0.4003187788184732,colour,0.28
136,20,1,2,6,8,258,378.53793090675026,379.47979846107773,"[99, 0, 155]",155,l,0.4185077650472522,colour,0.28
136,20,1,2,6,9,259,379.99108805460855,380.9117344028782,"[68, 0, 186]",186,a,0.3981270263902843,colour,0.28
136,20,1,2,6,10,260,381.4229940639343,382.42380578047596,"[69, 0, 185]",185,a,0.4786551264114678,colour,0.28
136,20,1,2,6,11,261,382.9334498855751,383.82381696556695,"[90, 0, 164]",164,l,0.3673235489986837,colour,0.28
136,20,1,2,6,12,262,384.33258712664247,385.0157254799269,"[17, 0, 237]",237,a,0.1712863480206579,colour,0.28
136,20,1,2,6,13,263,385.5246472717263,386.1277439245023,"[55, 0, 199]",199,a,0.08034338639117777,colour,0.28
136,20,1,2,6,14,264,386.6276127737947,387.18387523898855,"[38, 0, 216]",216,a,0.0329152790363878,colour,0.28
136,20,1,2,6,15,265,387.69013463240117,389.1917545206379,"[59, 0, 195]",195,a,0.978891434147954,colour,0.28
136,20,1,2,6,16,266,389.70573998917826,390.41573902824894,"[75, 0, 179]",179,a,0.18686137883923948,colour,0.28
136,20,1,2,6,17,267,390.9141648260411,391.567764735315,"[73, 0, 181]",181,a,0.13091674726456404,colour,0.28
136,20,1,2,6,18,268,392.08588755549863,392.63177139288746,"[33, 0, 221]",221,a,0.020227532600983977,colour,0.28
136,20,1,2,6,19,269,393.14998834207654,393.7677065250464,"[80, 0, 174]",174,a,0.09490190097130835,colour,0.28
136,20,1,2,6,20,270,394.27510688989423,394.86377617903054,"[71, 0, 183]",183,a,0.06569192442111671,colour,0.28
136,20,1,2,6,21,271,395.3844566345215,395.95186769613065,"[32, 0, 222]",222,a,0.05125786503776908,colour,0.28
136,20,1,2,6,22,272,396.4709034510888,397.4077884606086,"[98, 0, 156]",156,l,0.41429518908262253,colour,0.28
136,20,1,2,6,23,273,397.9269053477328,398.6637890972197,"[39, 0, 215]",215,a,0.21363738784566522,colour,0.28
136,20,1,2,6,24,274,399.1770057785325,399.95181649620645,"[77, 0, 177]",177,a,0.2514887375291437,colour,0.28
136,20,1,2,6,25,275,400.4583114092238,401.28772177454084,"[96, 0, 158]",158,l,0.3069745386019349,colour,0.28
136,20,1,2,6,26,276,401.80321370391175,402.3597203537356,"[24, 0, 230]",230,a,0.03694707970134914,colour,0.28
136,20,1,2,6,27,277,402.8793500282336,403.47172422590666,"[76, 0, 178]",178,a,0.06981312786228955,colour,0.28
136,20,1,2,6,28,278,403.9887285234872,404.5517450524494,"[86, 0, 168]",168,a,0.0383869803044945,colour,0.28
136,20,1,2,6,29,279,405.0690238608513,405.6957036135718,"[97, 0, 157]",157,l,0.10406196932308376,colour,0.28
136,20,1,2,6,30,280,406.20987773453817,406.9279710948467,"[53, 0, 201]",201,a,0.194973029429093,colour,0.28
136,20,1,2,6,31,281,407.4441640698351,408.04776523960754,"[52, 0, 202]",202,a,0.0803894663695246,colour,0.28
136,20,1,2,6,32,282,408.55367056513205,409.2397785168141,"[67, 0, 187]",187,a,0.16321329423226416,colour,0.28
136,20,1,2,6,33,283,409.75721722655,411.15174213796854,"[61, 0, 193]",193,a,0.871223411289975,colour,0.28
136,20,1,2,6,34,284,411.65858166641556,412.36772093968466,"[15, 0, 239]",239,a,0.1860232746694237,colour,0.28
136,20,1,2,6,35,285,412.87764428160153,413.4399085647892,"[63, 0, 191]",191,a,0.03898995858617127,colour,0.28
136,20,1,2,6,36,286,413.95576165081,414.6237574161496,"[88, 0, 166]",166,l,0.14520272030495107,colour,0.28
136,20,1,2,6,37,287,415.1453476557508,415.87179212505,"[84, 0, 170]",170,l,0.20303426776081324,colour,0.28
136,20,1,2,6,38,288,416.37998608942144,417.55972515861504,"[27, 0, 227]",227,a,0.6564013352617621,colour,0.28
136,20,1,2,6,39,289,418.0674114555586,418.62375781009905,"[66, 0, 188]",188,a,0.03370336489751935,colour,0.28
136,20,1,2,6,40,290,419.1299136218149,419.68771129846573,"[56, 0, 198]",198,a,0.032310725655406713,colour,0.28
136,20,1,2,6,41,291,420.1951683771331,420.7277465239167,"[42, 0, 212]",212,a,0.009535797405987978,colour,0.28
136,20,1,2,6,42,292,421.2422321769409,421.80769724585116,"[4, 0, 250]",250,a,0.04266572231426835,colour,0.28
136,20,1,2,6,43,293,422.3202432077378,422.85572872520424,"[51, 0, 203]",203,a,0.01281259534880519,colour,0.28
136,20,1,2,6,44,294,423.36713174614124,424.1357460860163,"[81, 0, 173]",173,l,0.2441513880621642,colour,0.28
136,20,1,2,6,45,295,424.6658512742724,425.4877478473354,"[94, 0, 160]",160,l,0.2967908647842705,colour,0.28
136,20,1,2,6,46,296,425.9991473236587,426.6317284638062,"[50, 0, 204]",204,a,0.10979833523742855,colour,0.28
136,20,1,2,6,47,297,427.13971329596825,427.767755755689,"[5, 0, 249]",249,a,0.10514780250377953,colour,0.28
136,20,1,2,6,48,298,428.28049785271287,428.92770997504704,"[0, 0, 254]",254,a,0.12411266518756747,colour,0.28
136,20,1,2,6,49,299,429.43657268979587,430.26369402278215,"[87, 0, 167]",167,l,0.3042113156989217,colour,0.28
136,20,1,2,6,50,300,430.7817841535434,431.3358241461683,"[82, 0, 172]",172,l,0.031192203052341938,colour,0.28
136,20,1,2,7,1,301,435.919569573598,436.9997164309025,"[91, 0, 163]",163,l,0.55641606496647,colour,0.14
136,20,1,2,7,2,302,437.514499043813,438.4077266268432,"[76, 0, 178]",178,a,0.3701679043006152,colour,0.14
136,20,1,2,7,3,303,438.9210531911813,439.7918823629152,"[81, 0, 173]",173,a,0.34784865588881075,colour,0.14
136,20,1,2,7,4,304,440.31166366813704,441.2317027063109,"[96, 0, 158]",158,l,0.3970774270128459,colour,0.14
136,20,1,2,7,5,305,441.74903271440417,442.67976309382357,"[94, 0, 160]",160,l,0.4080373712349683,colour,0.14
136,20,1,2,7,6,306,443.18672944046557,444.03974102274515,"[15, 0, 239]",239,a,0.3300216142088175,colour,0.14
136,20,1,2,7,7,307,444.5458952591289,445.3677335428074,"[78, 0, 176]",176,a,0.2984316267538816,colour,0.14
136,20,1,2,7,8,308,445.8748113478068,446.67971504456364,"[54, 0, 200]",200,a,0.2817364982329309,colour,0.14
136,20,1,2,7,9,309,447.1937265070155,448.02370794909075,"[3, 0, 251]",251,a,0.3064243358094245,colour,0.14
136,20,1,2,7,10,310,448.5385236449074,449.39970516692847,"[28, 0, 226]",226,a,0.3389816088601947,colour,0.14
136,20,1,2,7,11,311,449.9108194988221,450.83167813019827,"[69, 0, 185]",185,a,0.39758470049127936,colour,0.14
136,20,1,2,7,12,312,451.34829448955134,452.21572477114387,"[75, 0, 179]",179,a,0.3427924623247236,colour,0.14
136,20,1,2,7,13,313,452.7124176467769,453.56769856926985,"[98, 0, 156]",156,l,0.32963800826109946,colour,0.14
136,20,1,2,7,14,314,454.0744191559497,454.8477147484664,"[56, 0, 198]",198,a,0.2561183962970972,colour,0.14
136,20,1,2,7,15,315,455.36597580835223,456.14374115807004,"[73, 0, 181]",181,a,0.2655155600514263,colour,0.14
136,20,1,2,7,16,316,456.6470467071049,457.6637347463984,"[62, 0, 192]",192,a,0.4915063187945634,colour,0.14
136,20,1,2,7,17,317,458.1826598306652,458.9836809942499,"[83, 0, 171]",171,l,0.2777610174380243,colour,0.14
136,20,1,2,7,18,318,459.49810126889497,460.287758796243,"[80, 0, 174]",174,l,0.27780827903188765,colour,0.14
136,20,1,2,7,19,319,460.7991720570717,461.67171957856044,"[95, 0, 159]",159,l,0.35285955760627985,colour,0.14
136,20,1,2,7,20,320,462.1861473361496,463.0077162294183,"[70, 0, 184]",184,a,0.3109149672091007,colour,0.14
136,20,1,2,7,21,321,463.5173831775319,464.3357363184914,"[84, 0, 170]",170,a,0.295612083747983,colour,0.14
136,20,1,2,7,22,322,464.8330097233411,465.6876990890596,"[93, 0, 161]",161,l,0.33129570563323796,colour,0.14
136,20,1,2,7,23,323,466.2080057847779,466.93571646884084,"[68, 0, 186]",186,a,0.20512204500846565,colour,0.14
136,20,1,2,7,24,324,467.44247407699004,468.24770781677216,"[97, 0, 157]",157,l,0.28126033837907016,colour,0.14
136,20,1,2,7,25,325,468.7558281319216,469.39168291934766,"[33, 0, 221]",221,a,0.11345046828500926,colour,0.14
136,20,1,2,7,26,326,469.91204475355335,470.6797252846882,"[59, 0, 195]",195,a,0.24504069215618074,colour,0.14
136,20,1,2,7,27,327,471.1934181258548,472.08769176364876,"[66, 0, 188]",188,a,0.37038373202085495,colour,0.14
136,20,1,2,7,28,328,472.6005465006456,473.87973402789794,"[99, 0, 155]",155,l,0.7565843160264194,colour,0.14
136,20,1,2,7,29,329,474.3858106767293,476.4157216991298,"[63, 0, 191]",191,a,1.5067383099813014,colour,0.14
136,20,1,2,7,30,330,476.93298593489453,477.6638402971439,"[52, 0, 202]",202,a,0.20822594477795064,colour,0.14
136,20,1,2,7,31,331,478.1830328027718,478.9836691787932,"[74, 0, 180]",180,a,0.2778555403929204,colour,0.14
136,20,1,2,7,32,332,479.49540618108585,480.33569772168994,"[72, 0, 182]",182,a,0.31647685915231705,colour,0.14
136,20,1,2,7,33,333,480.85491070733406,481.703790058149,"[61, 0, 193]",193,a,0.32552192476578057,colour,0.14
136,20,1,2,7,34,334,482.2088013535831,483.15167636587285,"[27, 0, 227]",227,a,0.4172407628502697,colour,0.14
136,20,1,2,7,35,335,483.65511424676515,484.4397285771556,"[82, 0, 172]",172,l,0.2611584425903857,colour,0.14
136,20,1,2,7,36,336,484.9526486925315,485.647710731253,"[50, 0, 204]",204,a,0.17187278461642563,colour,0.14
136,20,1,2,7,37,337,486.1562682155054,486.9116930491291,"[85, 0, 169]",169,l,0.2329122070223093,colour,0.14
136,20,1,2,7,38,338,487.4218503353186,488.0476785933133,"[65, 0, 189]",189,a,0.1026334899943322,colour,0.14
136,20,1,2,7,39,339,488.562567938352,489.2476503152866,"[67, 0, 187]",187,a,0.16213730722665787,colour,0.14
136,20,1,2,7,40,340,489.7658511167392,490.7516915681772,"[53, 0, 201]",201,a,0.46234202827326953,colour,0.14
136,20,1,2,7,41,341,491.26621227362193,492.6557061972562,"[9, 0, 245]",245,a,0.867388927610591,colour,0.14
136,20,1,2,7,42,342,493.1658945973031,494.43168663722463,"[57, 0, 197]",197,a,0.7425586751196533,colour,0.14
136,20,1,2,7,43,343,494.94699424668215,495.8717566789128,"[51, 0, 203]",203,a,0.40168896899558604,colour,0.14
136,20,1,2,7,44,344,496.3848622958176,498.1677090455778,"[92, 0, 162]",162,l,1.2599867510143667,colour,0.14
136,20,1,2,7,45,345,498.6737506419886,499.73570024222136,"[87, 0, 167]",167,l,0.5378383528441191,colour,0.14
136,20,1,2,7,46,346,500.2529388782568,501.351667386014,"[13, 0, 241]",241,a,0.5854732294101268,colour,0.14
136,20,1,2,7,47,347,501.8698484953493,502.9597166515887,"[60, 0, 194]",194,a,0.5673586803022772,colour,0.14
136,20,1,2,7,48,348,503.4806223867927,504.39169237180613,"[58, 0, 196]",196,a,0.3880296046845615,colour,0.14
136,20,1,2,7,49,349,504.9024108883459,505.8316481979564,"[88, 0, 166]",166,l,0.41456891200505197,colour,0.14
136,20,1,2,7,50,350,506.3496780702844,507.2956223238725,"[71, 0, 183]",183,a,0.42130604037083685,colour,0.14
136,20,1,2,8,1,351,512.2952607732732,513.2876485192683,"[64, 0, 190]",190,a,0.4691457166336477,colour,0.06
136,20,1,2,8,2,352,513.7959968713112,514.655903514009,"[70, 0, 184]",184,a,0.3366019919048995,colour,0.06
136,20,1,2,8,3,353,515.1715636155568,516.0716909854673,"[92, 0, 162]",162,l,0.37710825726389885,colour,0.06
136,20,1,2,8,4,354,516.5778649139684,517.6156548240688,"[99, 0, 155]",155,l,0.5139460840728134,colour,0.06
136,20,1,2,8,5,355,518.1262410085183,518.9836754803546,"[88, 0, 166]",166,l,0.3341069780290127,colour,0.06
136,20,1,2,8,6,356,519.501211469993,520.2637460103724,"[63, 0, 191]",191,a,0.23912552022375166,colour,0.06
136,20,1,2,8,7,357,520.7827935805544,521.6396593390964,"[86, 0, 168]",168,a,0.3430409790016711,colour,0.06
136,20,1,2,8,8,358,522.1483310386539,522.7837537769228,"[94, 0, 160]",160,l,0.1154311194550246,colour,0.06
136,20,1,2,8,9,359,523.3015402527526,524.0156900337897,"[73, 0, 181]",181,a,0.1912728468887508,colour,0.06
136,20,1,2,8,10,360,524.5358360402752,525.1436123705935,"[61, 0, 193]",193,a,0.09665254596620798,colour,0.06
136,20,1,2,8,11,361,525.6642593492288,526.3036847435869,"[52, 0, 202]",202,a,0.1170695184264332,colour,0.06
136,20,1,2,8,12,362,526.8196067528334,527.5442710383795,"[69, 0, 185]",185,a,0.21111953048966825,colour,0.06
136,20,1,2,8,13,363,528.0671463971958,528.6876663998701,"[54, 0, 200]",200,a,0.09723583166487515,colour,0.06
136,20,1,2,8,14,364,529.2078368249349,529.9996675939765,"[87, 0, 167]",167,l,0.2685296628624201,colour,0.06
136,20,1,2,8,15,365,530.5207958524115,531.2396387015469,"[83, 0, 171]",171,l,0.196392843965441,colour,0.06
136,20,1,2,8,16,366,531.7565768330824,532.2797357609961,"[62, 0, 192]",192,a,0.006867885356768966,colour,0.06
136,20,1,2,8,17,367,532.7984568329994,533.6477351495996,"[78, 0, 176]",176,a,0.3285415412392467,colour,0.06
136,20,1,2,8,18,368,534.1549350470304,534.8956954216119,"[90, 0, 164]",164,l,0.21789525588974357,colour,0.06
136,20,1,2,8,19,369,535.3955737233628,536.2076950403862,"[93, 0, 161]",161,l,0.2890273737721145,colour,0.06
136,20,1,2,8,20,370,536.7237387478817,537.4557017860934,"[81, 0, 173]",173,l,0.20902151335030794,colour,0.06
136,20,1,2,8,21,371,537.9737415048294,538.6397314127535,"[91, 0, 163]",163,l,0.14323033997789025,colour,0.06
136,20,1,2,8,22,372,539.1407754984684,539.7436614437029,"[71, 0, 183]",183,a,0.07882589800283313,colour,0.06
136,20,1,2,8,23,373,540.2511067071464,540.7757425571326,"[51, 0, 203]",203,a,0.0013304115273058414,colour,0.06
136,20,1,2,8,24,374,541.2979456209578,542.0157723475713,"[89, 0, 165]",165,l,0.19472805713303387,colour,0.06
136,20,1,2,8,25,375,542.5323296301067,543.3356378572062,"[10, 0, 244]",244,a,0.2799704931676388,colour,0.06
136,20,1,2,8,26,376,543.8447683870327,544.7036238550209,"[67, 0, 187]",187,a,0.3348225960507989,colour,0.06
136,20,1,2,8,27,377,545.2204599806573,546.0237114937045,"[79, 0, 175]",175,a,0.2802650898229331,colour,0.06
136,20,1,2,8,28,378,546.5329786881339,547.1918112344574,"[60, 0, 194]",194,a,0.1357669597491622,colour,0.06
136,20,1,2,8,29,379,547.7048038174398,548.5759185275529,"[96, 0, 158]",158,l,0.3477234130259603,colour,0.06
136,20,1,2,8,30,380,549.0954024789389,549.7836222324986,"[80, 0, 174]",174,l,0.1653266716748476,colour,0.06
136,20,1,2,8,31,381,550.298506063642,551.143638364505,"[76, 0, 178]",178,l,0.32254917570389807,colour,0.06
136,20,1,2,8,32,382,551.6579932605382,552.2876504885498,"[50, 0, 204]",204,a,0.1067877768073231,colour,0.06
136,20,1,2,8,33,383,552.7986403650139,553.6236223268788,"[55, 0, 199]",199,a,0.30167494784109294,colour,0.06
136,20,1,2,8,34,384,554.1424020819832,554.8796907048672,"[95, 0, 159]",159,l,0.21408597799018025,colour,0.06
136,20,1,2,8,35,385,555.3923016514163,556.0316246459261,"[77, 0, 177]",177,a,0.1160659990273416,colour,0.06
136,20,1,2,8,36,386,556.548586408142,557.3996366378851,"[84, 0, 170]",170,a,0.32788106170482934,colour,0.06
136,20,1,2,8,37,387,557.9088423922658,558.6717014617752,"[66, 0, 188]",188,a,0.23961940314620733,colour,0.06
136,20,1,2,8,38,388,559.1900869768579,559.9998341908213,"[58, 0, 196]",196,a,0.28644728916697204,colour,0.06
136,20,1,2,8,39,389,560.5182390045375,561.2956593453418,"[53, 0, 201]",201,a,0.2544855112209916,colour,0.06
136,20,1,2,8,40,390,561.8152732660528,562.7119249457028,"[59, 0, 195]",195,a,0.3742646898608655,colour,0.06
136,20,1,2,8,41,391,563.2213725214824,564.0396205058787,"[97, 0, 157]",157,l,0.2951638870872557,colour,0.06
136,20,1,2,8,42,392,564.5456365023274,565.127619075356,"[56, 0, 198]",198,a,0.07197652361355722,colour,0.06
136,20,1,2,8,43,393,565.6423737250734,566.3516303645447,"[85, 0, 169]",169,l,0.18606226542033255,colour,0.06
136,20,1,2,8,44,394,566.8611480451655,567.71166815795,"[82, 0, 172]",172,l,0.3272103420458734,colour,0.06
136,20,1,2,8,45,395,568.2205289036501,568.8156352103688,"[25, 0, 229]",229,a,0.07145152683369815,colour,0.06
136,20,1,2,8,46,396,569.3300094050355,570.1676464241464,"[98, 0, 156]",156,l,0.3151700785383582,colour,0.06
136,20,1,2,8,47,397,570.6737522173207,571.3518745491747,"[75, 0, 179]",179,a,0.15556835127063096,colour,0.06
136,20,1,2,8,48,398,571.8610539159272,572.575619598385,"[46, 0, 208]",208,a,0.19186794804409146,colour,0.06
136,20,1,2,8,49,399,573.095525752753,573.9117143168114,"[65, 0, 189]",189,a,0.29260467644780874,colour,0.06
136,20,1,2,8,50,400,574.4235434790608,575.2076584126335,"[57, 0, 197]",197,a,0.2614924239460379,colour,0.06
136,20,1,2,9,1,401,580.1104253379162,581.1356133599766,"[74, 0, 180]",180,l,0.5013441962655634,colour,0.06
136,20,1,2,9,2,402,581.6423634851817,582.5036521332804,"[91, 0, 163]",163,l,0.3378359111957252,colour,0.06
136,20,1,2,9,3,403,583.0175096020103,583.8236109842546,"[80, 0, 174]",174,l,0.2802213728427887,colour,0.06
136,20,1,2,9,4,404,584.3325973665342,584.9916465280112,"[70, 0, 184]",184,a,0.1360111441463232,colour,0.06
136,20,1,2,9,5,405,585.5045642803889,586.2476436197758,"[9, 0, 245]",245,a,0.22053796192631125,colour,0.06
136,20,1,2,9,6,406,586.754316551378,587.5196426715702,"[72, 0, 182]",182,a,0.24240980157628655,colour,0.06
136,20,1,2,9,7,407,588.0357899605297,588.8637072558049,"[58, 0, 196]",196,a,0.3046677829697728,colour,0.06
136,20,1,2,9,8,408,589.38259807555,590.2475991153624,"[65, 0, 189]",189,a,0.34230724396184087,colour,0.06
136,20,1,2,9,9,409,590.7577630970627,591.671641203342,"[77, 0, 177]",177,l,0.3911209013313055,colour,0.06
136,20,1,2,9,10,410,592.1795468723867,592.8716113497503,"[66, 0, 188]",188,a,0.1783125593792647,colour,0.06
136,20,1,2,9,11,411,593.3888078441378,593.9756540204398,"[55, 0, 199]",199,a,0.06349662691354752,colour,0.06
136,20,1,2,9,12,412,594.4826621147804,595.3356295863632,"[76, 0, 178]",178,l,0.33040679548867047,colour,0.06
136,20,1,2,9,13,413,595.8326143019367,596.4076384054497,"[63, 0, 191]",191,a,0.052201126236468554,colour,0.06
136,20,1,2,9,14,414,596.9261586158536,597.5915947766043,"[81, 0, 173]",173,l,0.1426600511185825,colour,0.06
136,20,1,2,9,15,415,598.0980743297841,600.4956074364018,"[64, 0, 190]",190,a,1.873965366743505,colour,0.06
136,20,1,2,9,16,416,601.0064673440065,601.7356825191528,"[73, 0, 181]",181,a,0.20630082581192255,colour,0.06
136,20,1,2,9,17,417,602.2563582486473,603.1596418996342,"[89, 0, 165]",165,l,0.3798198865260929,colour,0.06
136,20,1,2,9,18,418,603.6781999194063,604.5116121531464,"[90, 0, 164]",164,l,0.31089251791127026,colour,0.06
136,20,1,2,9,19,419,605.0219718762673,605.6636996939778,"[54, 0, 200]",200,a,0.118166379397735,colour,0.06
136,20,1,2,9,20,420,606.1771046337672,606.8155970075168,"[88, 0, 166]",166,l,0.124880664749071,colour,0.06
136,20,1,2,9,21,421,607.32377718715,607.9675872684456,"[96, 0, 158]",158,l,0.12042941804975271,colour,0.06
136,20,1,2,9,22,422,608.4799760857131,609.0396232628264,"[52, 0, 202]",202,a,0.0364437447860837,colour,0.06
136,20,1,2,9,23,423,609.5485958606005,610.1436903520953,"[99, 0, 155]",155,l,0.07004155870527029,colour,0.06
136,20,1,2,9,24,424,610.6604689760134,611.2476448013913,"[67, 0, 187]",187,a,0.06386802368797362,colour,0.06
136,20,1,2,9,25,425,611.7574180879164,612.4396714696195,"[19, 0, 235]",235,a,0.15961984428577125,colour,0.06
136,20,1,2,9,26,426,612.9604255740996,613.5756282629445,"[98, 0, 156]",156,l,0.09553993120789528,colour,0.06
136,20,1,2,9,27,427,614.0815564319491,614.6957433919888,"[62, 0, 192]",192,a,0.10394381545484066,colour,0.06
136,20,1,2,9,28,428,615.2097001099028,615.9596225223504,"[79, 0, 175]",175,a,0.23911606799811125,colour,0.06
136,20,1,2,9,29,429,616.4660528446548,617.2555855228566,"[69, 0, 185]",185,a,0.2669290730264038,colour,0.06
136,20,1,2,9,30,430,617.7628945154138,618.5916412505321,"[59, 0, 195]",195,a,0.3060753883328289,colour,0.06
136,20,1,2,9,31,431,619.1066889215726,619.9596367008053,"[71, 0, 183]",183,a,0.3299207896925509,colour,0.06
136,20,1,2,9,32,432,620.4660374845844,622.5677564647049,"[56, 0, 198]",198,a,1.5781201261561364,colour,0.06
136,20,1,2,9,33,433,623.0754171616863,623.6798351677135,"[82, 0, 172]",172,l,0.08163874573074281,colour,0.06
136,20,1,2,9,34,434,624.2003955000546,625.0235775860492,"[84, 0, 170]",170,l,0.30050443788059056,colour,0.06
136,20,1,2,9,35,435,625.5298251640052,626.3675878196955,"[94, 0, 160]",160,l,0.314170497469604,colour,0.06
136,20,1,2,9,36,436,626.873732997803,627.7356750362087,"[75, 0, 179]",179,l,0.3394294118043035,colour,0.06
136,20,1,2,9,37,437,628.2486294161063,629.0875795176253,"[93, 0, 161]",161,l,0.3154268660582602,colour,0.06
136,20,1,2,9,38,438,629.6080150008202,630.4316251974087,"[60, 0, 194]",194,a,0.30083723762072623,colour,0.06
136,20,1,2,9,39,439,630.9517074008472,631.735623442335,"[83, 0, 171]",171,l,0.2602982830721885,colour,0.06
136,20,1,2,9,40,440,632.2486920377705,633.0955974326935,"[95, 0, 159]",159,l,0.32365115638822317,colour,0.06
136,20,1,2,9,41,441,633.6081390623003,634.2475648506079,"[92, 0, 162]",162,l,0.1164153404533863,colour,0.06
136,20,1,2,9,42,442,634.7614743071608,635.4955404826906,"[37, 0, 217]",217,a,0.2108639245852828,colour,0.06
136,20,1,2,9,43,443,636.0114246825688,636.7836092356592,"[57, 0, 197]",197,a,0.24888462852686644,colour,0.06
136,20,1,2,9,44,444,637.2925802578684,637.9675699390937,"[68, 0, 186]",186,a,0.16432393970899284,colour,0.06
136,20,1,2,9,45,445,638.4833930928726,639.0476151842158,"[50, 0, 204]",204,a,0.04116989579051733,colour,0.06
136,20,1,2,9,46,446,639.5616743019782,640.3275998556055,"[85, 0, 169]",169,l,0.257850136840716,colour,0.06
136,20,1,2,9,47,447,640.8403510113712,641.6235876686405,"[97, 0, 157]",157,l,0.27243740228004754,colour,0.06
136,20,1,2,9,48,448,642.1404600278474,642.7356419530697,"[51, 0, 203]",203,a,0.07209782814607024,colour,0.06
136,20,1,2,9,49,449,643.2525383369066,644.183642082382,"[78, 0, 176]",176,a,0.42023359797894955,colour,0.06
136,20,1,2,9,50,450,644.6950423463713,645.4155720376875,"[86, 0, 168]",168,l,0.197423932608217,colour,0.06
136,20,1,2,10,1,451,650.3036575682927,651.639612471452,"[85, 0, 169]",169,l,0.8117518897634,colour,0.06
136,20,1,2,10,2,452,652.139505739091,652.99957110174,"[78, 0, 176]",176,l,0.3370639730710536,colour,0.06
136,20,1,2,10,3,453,653.5073806724977,654.2796180010773,"[95, 0, 159]",159,l,0.24902720074169338,colour,0.06
136,20,1,2,10,4,454,654.7888367525302,655.6235801854637,"[87, 0, 167]",167,l,0.3111315823625773,colour,0.06
136,20,1,2,10,5,455,656.1331317366567,657.0075709002558,"[91, 0, 163]",163,l,0.3511353002395481,colour,0.06
136,20,1,2,10,6,456,657.5237000721972,658.2635998935439,"[67, 0, 187]",187,a,0.21687401342205703,colour,0.06
136,20,1,2,10,7,457,658.77366462606,659.6475539805833,"[72, 0, 182]",182,a,0.35051656840369105,colour,0.06
136,20,1,2,10,8,458,660.1643723829184,661.055585837923,"[54, 0, 200]",200,a,0.36806791787967086,colour,0.06
136,20,1,2,10,9,459,661.5655402936973,662.3835897794925,"[81, 0, 173]",173,l,0.2951674317009747,colour,0.06
136,20,1,2,10,10,460,662.8906329262536,663.5435924420599,"[64, 0, 190]",190,a,0.12959736352786422,colour,0.06
136,20,1,2,10,11,461,664.0654193828814,664.8555837899912,"[52, 0, 202]",202,a,0.26738908514380455,colour,0.06
136,20,1,2,10,12,462,665.3622579029761,666.1996148973703,"[56, 0, 198]",198,a,0.3139849959407002,colour,0.06
136,20,1,2,10,13,463,666.706610388821,667.5115861592349,"[69, 0, 185]",185,a,0.2819873779080808,colour,0.06
136,20,1,2,10,14,464,668.008333385922,668.8155458073597,"[75, 0, 179]",179,a,0.2841011490672827,colour,0.06
136,20,1,2,10,15,465,669.336466902867,670.0875365883112,"[97, 0, 157]",157,l,0.22821047436445951,colour,0.06
136,20,1,2,10,16,466,670.6020411457866,671.2235867232084,"[61, 0, 193]",193,a,0.09953431645408273,colour,0.06
136,20,1,2,10,17,467,671.7415287680924,672.4075584546663,"[70, 0, 184]",184,a,0.14318937994539738,colour,0.06
136,20,1,2,10,18,468,672.9134153372142,673.6955267768353,"[93, 0, 161]",161,l,0.2588304195087403,colour,0.06
136,20,1,2,10,19,469,674.211378287524,674.8715995342936,"[98, 0, 156]",156,l,0.13507969863712788,colour,0.06
136,20,1,2,10,20,470,675.3855369538069,676.1995534575544,"[60, 0, 194]",194,a,0.30318652861751616,colour,0.06
136,20,1,2,10,21,471,676.7167471949942,677.6075605025981,"[88, 0, 166]",166,l,0.3730433734599501,colour,0.06
136,20,1,2,10,22,472,678.1174716353416,678.9036105431151,"[35, 0, 219]",219,a,0.2626393032260239,colour,0.06
136,20,1,2,10,23,473,679.4058842156082,680.1435576260556,"[96, 0, 158]",158,l,0.21407731366343796,colour,0.06
136,20,1,2,10,24,474,680.6437510042451,681.4076214700472,"[79, 0, 175]",175,a,0.2406418272294104,colour,0.06
136,20,1,2,10,25,475,681.9249317857902,682.7355686977971,"[77, 0, 177]",177,a,0.28735864860937,colour,0.06
136,20,1,2,10,26,476,683.2406154393684,684.1275903247297,"[58, 0, 196]",196,a,0.3639077234547585,colour,0.06
136,20,1,2,10,27,477,684.6470368609298,685.5355642866343,"[84, 0, 170]",170,a,0.3654110333882272,colour,0.06
136,20,1,2,10,28,478,686.0455593084916,686.719580916455,"[62, 0, 192]",192,a,0.15089970151893795,colour,0.06
136,20,1,2,10,29,479,687.2331993207335,687.9515876716468,"[50, 0, 204]",204,a,0.19473160174675286,colour,0.06
136,20,1,2,10,30,480,688.4675415821839,689.1515751474071,"[66, 0, 188]",188,a,0.1615126677788794,colour,0.06
136,20,1,2,10,31,481,689.670749536017,690.3438400921877,"[89, 0, 165]",165,a,0.1500781390350312,colour,0.06
136,20,1,2,10,32,482,690.8580807731487,691.6396195606794,"[59, 0, 195]",195,a,0.2585334596224129,colour,0.06
136,20,1,2,10,33,483,692.1549941238482,692.8155867673922,"[83, 0, 171]",171,l,0.14661268866620958,colour,0.06
136,20,1,2,10,34,484,693.3289893441834,693.8795886987355,"[74, 0, 180]",180,a,0.027589300414547324,colour,0.06
136,20,1,2,10,35,485,694.3850155018736,695.0315647814423,"[57, 0, 197]",197,a,0.13048391067422926,colour,0.06
136,20,1,2,10,36,486,695.5519695447292,696.1195594123565,"[65, 0, 189]",189,a,0.044291124446317554,colour,0.06
136,20,1,2,10,37,487,696.6301865568385,697.2475502784364,"[15, 0, 239]",239,a,0.10377840022556484,colour,0.06
136,20,1,2,10,38,488,697.7591884252615,698.5115861592349,"[80, 0, 174]",174,l,0.23544030380435288,colour,0.06
136,20,1,2,10,39,489,699.0135317582171,699.5995209258981,"[51, 0, 203]",203,a,0.06324771651998162,colour,0.06
136,20,1,2,10,40,490,700.1255336613394,700.799572598422,"[68, 0, 186]",186,a,0.15406779828481376,colour,0.06
136,20,1,2,10,41,491,701.3103395581711,701.9676081421785,"[90, 0, 164]",164,l,0.13464449881576002,colour,0.06
136,20,1,2,10,42,492,702.482269056607,703.0235366260167,"[71, 0, 183]",183,a,0.030020117526873946,colour,0.06
136,20,1,2,10,43,493,703.5209982891101,704.1115493741818,"[63, 0, 191]",191,a,0.07020067237317562,colour,0.06
136,20,1,2,10,44,494,704.6275659061503,705.3515480507631,"[76, 0, 178]",178,a,0.20128637948073447,colour,0.06
136,20,1,2,10,45,495,705.8619849677198,706.5835303876083,"[94, 0, 160]",160,l,0.20567185385152698,colour,0.06
136,20,1,2,10,46,496,707.0893793932628,707.7916917414404,"[82, 0, 172]",172,l,0.17930780770257115,colour,0.06
136,20,1,2,10,47,497,708.3080406796653,708.991644165013,"[10, 0, 244]",244,a,0.16051151137799025,colour,0.06
136,20,1,2,10,48,498,709.5112403626554,710.3435809416696,"[92, 0, 162]",162,l,0.3089961498044431,colour,0.06
136,20,1,2,10,49,499,710.8449483746663,711.6636827588081,"[86, 0, 168]",168,l,0.29517412721179426,colour,0.06
136,20,1,2,10,50,500,712.1733367098495,712.8395361439325,"[53, 0, 201]",201,a,0.14316811226308346,colour,0.06
136,20,1,2,11,1,501,717.5944667011499,718.3675224413164,"[83, 0, 171]",171,l,0.2498542768880725,colour,0.06
136,20,1,2,11,2,502,718.876487162197,719.8235172489658,"[74, 0, 180]",180,l,0.42395307892002165,colour,0.06
136,20,1,2,11,3,503,720.3295631776564,721.2155361189507,"[95, 0, 159]",159,l,0.36277384124696255,colour,0.06
136,20,1,2,11,4,504,721.735935762059,722.3115498467814,"[94, 0, 160]",160,l,0.052661925787106156,colour,0.06
136,20,1,2,11,5,505,722.8295840513892,723.4715651122387,"[55, 0, 199]",199,a,0.1185157208237797,colour,0.06
136,20,1,2,11,6,506,723.9857813746203,724.6715080833528,"[52, 0, 202]",202,a,0.1626729378476739,colour,0.06
136,20,1,2,11,7,507,725.189096454531,725.9675329176243,"[26, 0, 228]",228,a,0.25521609536372125,colour,0.06
136,20,1,2,11,8,508,726.4857679838315,727.247752715135,"[90, 0, 164]",164,l,0.23942248011007905,colour,0.06
136,20,1,2,11,9,509,727.767240605317,728.4955219719559,"[80, 0, 174]",174,l,0.2058140323497355,colour,0.06
136,20,1,2,11,10,510,729.0170594360679,729.703538390575,"[58, 0, 196]",196,a,0.16274501150473952,colour,0.06
136,20,1,2,11,11,511,730.2210074262694,730.8395708024036,"[21, 0, 233]",233,a,0.10294423438608646,colour,0.06
136,20,1,2,11,12,512,731.3544625106733,732.183495571604,"[71, 0, 183]",183,a,0.3057055671233684,colour,0.06
136,20,1,2,11,13,513,732.6992576792836,733.3995090317912,"[88, 0, 166]",166,l,0.17778559355065227,colour,0.06
136,20,1,2,11,14,514,733.9076009900309,734.687560455408,"[67, 0, 187]",187,a,0.2572987526655197,colour,0.06
136,20,1,2,11,15,515,735.2044836208224,735.887583771022,"[65, 0, 189]",189,a,0.16053041582927108,colour,0.06
136,20,1,2,11,16,516,736.4075714515056,736.9835124281235,"[11, 0, 243]",243,a,0.05350830056704581,colour,0.06
136,20,1,2,11,17,517,737.5013197776861,738.0795147346798,"[64, 0, 190]",190,a,0.05555629963055253,colour,0.06
136,20,1,2,11,18,518,738.5966820844915,739.2635908350348,"[56, 0, 198]",198,a,0.14437879459001124,colour,0.06
136,20,1,2,11,19,519,739.7840664905962,740.4636086369865,"[51, 0, 203]",203,a,0.15695626428350806,colour,0.06
136,20,1,2,11,20,520,740.9715020968579,741.655508486554,"[70, 0, 184]",184,a,0.16080453270114958,colour,0.06
136,20,1,2,11,21,521,742.1747813366819,742.9835183359683,"[77, 0, 177]",177,l,0.2863090494647622,colour,0.06
136,20,1,2,11,22,522,743.5032701026648,744.0715090285521,"[53, 0, 201]",201,a,0.046128415735438466,colour,0.06
136,20,1,2,11,23,523,744.5812484442722,745.3117010835558,"[92, 0, 162]",162,l,0.20810857857577503,colour,0.06
136,20,1,2,11,24,524,745.8310121367685,748.2155806233641,"[73, 0, 181]",181,a,1.8614832079038024,colour,0.06
136,20,1,2,11,25,525,748.7215938628651,749.3595135845244,"[99, 0, 155]",155,l,0.11486752587370574,colour,0.06
136,20,1,2,11,26,526,749.8778569584247,750.431530674221,"[61, 0, 193]",193,a,0.03023988357745111,colour,0.06
136,20,1,2,11,27,527,750.9405639243778,751.655728646554,"[98, 0, 156]",156,l,0.1920439973473549,colour,0.06
136,20,1,2,11,28,528,752.1750349735375,752.9675530036911,"[84, 0, 170]",170,l,0.2692826963029802,colour,0.06
136,20,1,2,11,29,529,753.4874737304635,754.0875153206289,"[72, 0, 182]",182,a,0.07684839772991836,colour,0.06
136,20,1,2,11,30,530,754.5967482505366,755.3275774065405,"[69, 0, 185]",185,a,0.20738508366048336,colour,0.06
136,20,1,2,11,31,531,755.8467671552207,756.7116094750818,"[60, 0, 194]",194,a,0.3413340507540852,colour,0.06
136,20,1,2,11,32,532,757.209380307002,757.9595496607944,"[75, 0, 179]",179,a,0.22650984767824411,colour,0.06
136,20,1,2,11,33,533,758.4771514227614,759.1275458200835,"[50, 0, 204]",204,a,0.1272382263559848,colour,0.06
136,20,1,2,11,34,534,759.6334594164509,760.3995850440115,"[76, 0, 178]",178,a,0.24251653370447457,colour,0.06
136,20,1,2,11,35,535,760.914632715052,761.5835103015415,"[66, 0, 188]",188,a,0.1457257478032261,colour,0.06
136,20,1,2,11,36,536,762.1051218085922,762.7435310806613,"[79, 0, 175]",175,a,0.11512076877988875,colour,0.06
136,20,1,2,11,37,537,763.2613675747998,764.6475075066555,"[54, 0, 200]",200,a,0.8633075021207333,colour,0.06
136,20,1,2,11,38,538,765.1676164916717,765.9355041857343,"[57, 0, 197]",197,a,0.24482722766697407,colour,0.06
136,20,1,2,11,39,539,766.4489729285706,767.3115679635666,"[87, 0, 167]",167,l,0.3458116848487407,colour,0.06
136,20,1,2,11,40,540,767.8062758559827,768.583533932222,"[89, 0, 165]",165,l,0.25423069298267365,colour,0.06
136,20,1,2,11,41,541,769.1032904251479,769.895518978592,"[68, 0, 186]",186,a,0.2795573486946523,colour,0.06
136,20,1,2,11,42,542,770.4057656680234,771.2155424202792,"[78, 0, 176]",176,a,0.29297567903995514,colour,0.06
136,20,1,2,11,43,543,771.727638610173,772.5595384757034,"[93, 0, 161]",161,l,0.30865389783866704,colour,0.06
136,20,1,2,11,44,544,773.0712719333824,773.8634874899872,"[85, 0, 169]",169,l,0.2687202843371779,colour,0.06
136,20,1,2,11,45,545,774.383907219395,775.1754808072001,"[82, 0, 172]",172,a,0.2658550553023815,colour,0.06
136,20,1,2,11,46,546,775.6714553078637,776.4955137011129,"[59, 0, 195]",195,a,0.30067142844200134,colour,0.06
136,20,1,2,11,47,547,777.0152607418131,777.8235341843683,"[86, 0, 168]",168,l,0.28515823162160814,colour,0.06
136,20,1,2,11,48,548,778.3433245478664,779.0635694887023,"[63, 0, 191]",191,a,0.20606018602848053,colour,0.06
136,20,1,2,11,49,549,779.5841443934478,780.3435726708267,"[97, 0, 157]",157,l,0.2360767589416355,colour,0.06
136,20,1,2,11,50,550,780.8516973184887,781.6555742588826,"[96, 0, 158]",158,l,0.280783784808591,colour,0.06
136,20,1,2,12,1,551,786.7273881242145,787.5276085990481,"[53, 0, 201]",201,a,0.2760379414539784,colour,0.06
136,20,1,2,12,2,552,788.0408871143591,788.8795241080225,"[73, 0, 181]",181,l,0.31544261961244047,colour,0.06
136,20,1,2,12,3,553,789.4001596651506,789.98350455123,"[55, 0, 199]",199,a,0.05993074597790837,colour,0.06
136,20,1,2,12,4,554,790.483988981694,791.21548137418,"[75, 0, 179]",179,l,0.20848942757584155,colour,0.06
136,20,1,2,12,5,555,791.7341102862265,793.3675196843687,"[65, 0, 189]",189,a,1.1102953685913235,colour,0.06
136,20,1,2,12,6,556,793.86529287952,794.6555065172724,"[77, 0, 177]",177,a,0.26732961437664926,colour,0.06
136,20,1,2,12,7,557,795.1621889011003,796.1035027080216,"[20, 0, 234]",234,a,0.4262279327958822,colour,0.06
136,20,1,2,12,8,558,796.6247310033068,797.5035107424483,"[62, 0, 192]",192,a,0.3526512130629271,colour,0.06
136,20,1,2,12,9,559,798.0180093925446,798.8954870770685,"[94, 0, 160]",160,l,0.36652049724943936,colour,0.06
136,20,1,2,12,10,560,799.3996705084573,800.1355298645794,"[83, 0, 171]",171,l,0.21020895894616842,colour,0.06
136,20,1,2,12,11,561,800.6518910117447,801.2715071381535,"[71, 0, 183]",183,a,0.10908862482756376,colour,0.06
136,20,1,2,12,12,562,801.7801244868897,802.6235195333138,"[92, 0, 162]",162,l,0.3270071176812053,colour,0.06
136,20,1,2,12,13,563,803.1326689678244,803.9914952912368,"[86, 0, 168]",168,l,0.33570205396972597,colour,0.06
136,20,1,2,12,14,564,804.4951194613241,805.2955069269519,"[79, 0, 175]",175,l,0.2759855599142611,colour,0.06
136,20,1,2,12,15,565,805.8112635207362,806.5516694341786,"[60, 0, 194]",194,a,0.21777670830488205,colour,0.06
136,20,1,2,12,16,566,807.0487549742684,807.9435394303873,"[81, 0, 173]",173,a,0.3715747219976038,colour,0.06
136,20,1,2,12,17,567,808.4550499711186,809.2634750443976,"[52, 0, 202]",202,a,0.2853634252678603,colour,0.06
136,20,1,2,12,18,568,809.7831547374371,810.6154961041175,"[84, 0, 170]",170,l,0.3216645976062864,colour,0.06
136,20,1,2,12,19,569,811.1176082997117,811.9994899695739,"[88, 0, 166]",166,l,0.3589188773185015,colour,0.06
136,20,1,2,12,20,570,812.5082215336151,813.2635160044301,"[61, 0, 193]",193,a,0.2412270822096616,colour,0.06
136,20,1,2,12,21,571,813.7819629595615,814.6634870173875,"[98, 0, 156]",156,l,0.35818592994473875,colour,0.06
136,20,1,2,12,22,572,815.160511511378,815.8314804194961,"[82, 0, 172]",172,a,0.14796358020976186,colour,0.06
136,20,1,2,12,23,573,816.3479384528473,816.9514521886595,"[50, 0, 204]",204,a,0.0801362234633416,colour,0.06
136,20,1,2,12,24,574,817.4573393976316,818.223477628082,"[91, 0, 163]",163,l,0.2428146752063185,colour,0.06
136,20,1,2,12,25,575,818.738654874498,819.439476515865,"[54, 0, 200]",200,l,0.18354874080978334,colour,0.06
136,20,1,2,12,26,576,819.9516951916739,820.8394711595029,"[99, 0, 155]",155,l,0.3757786334026605,colour,0.06
136,20,1,2,12,27,577,821.3472488287371,821.9834628035314,"[15, 0, 239]",239,a,0.11352766212075949,colour,0.06
136,20,1,2,12,28,578,822.5041649206541,823.3754556798376,"[58, 0, 196]",196,a,0.3479943792335689,colour,0.06
136,20,1,2,12,29,579,823.8947931206785,824.7354974115733,"[95, 0, 159]",159,l,0.3177237752825022,colour,0.06
136,20,1,2,12,30,580,825.2541255359538,825.9114882491995,"[68, 0, 186]",186,a,0.13445899751968682,colour,0.06
136,20,1,2,12,31,581,826.4213867788203,827.2314951494336,"[70, 0, 184]",184,a,0.2876189809758216,colour,0.06
136,20,1,2,12,32,582,827.7523685893975,828.4314609635621,"[51, 0, 203]",203,a,0.15608862158842385,colour,0.06
136,20,1,2,12,33,583,828.9410664718598,829.7754140896723,"[72, 0, 182]",182,a,0.3115388189908117,colour,0.06
136,20,1,2,12,34,584,830.2848246439826,831.2395252739079,"[63, 0, 191]",191,a,0.4313680159393698,colour,0.06
136,20,1,2,12,35,585,831.753782496322,832.6954401307739,"[74, 0, 180]",180,a,0.41827972838655114,colour,0.06
136,20,1,2,12,36,586,833.2081782892346,834.0475801317953,"[59, 0, 195]",195,a,0.3135769716463983,colour,0.06
136,20,1,2,12,37,587,834.5546788107604,835.2634978874121,"[89, 0, 165]",165,l,0.1862008993048221,colour,0.06
136,20,1,2,12,38,588,835.7735866445582,836.503467025701,"[87, 0, 167]",167,l,0.20730237592943013,colour,0.06
136,20,1,2,12,39,589,837.0234637646936,837.8795059912372,"[97, 0, 157]",157,l,0.33365523675456643,colour,0.06
136,20,1,2,12,40,590,838.3984054753091,839.1914685885422,"[29, 0, 225]",225,a,0.26980887446552515,colour,0.06
136,20,1,2,12,41,591,839.710884798551,840.6154913778882,"[90, 0, 164]",164,l,0.38204787275753915,colour,0.06
136,20,1,2,12,42,592,841.1328237492125,842.0074566849507,"[85, 0, 169]",169,l,0.35233337967656553,colour,0.06
136,20,1,2,12,43,593,842.5234999984968,843.1354853599332,"[67, 0, 187]",187,a,0.09582586330361664,colour,0.06
136,20,1,2,12,44,594,843.6421925560571,844.439476515865,"[93, 0, 161]",161,l,0.27444207784719765,colour,0.06
136,20,1,2,12,45,595,844.954740802059,845.7994721676223,"[96, 0, 158]",158,l,0.32194737903773785,colour,0.06
136,20,1,2,12,46,596,846.3141972790472,847.1514778675046,"[64, 0, 190]",190,a,0.31467855884693563,colour,0.06
136,20,1,2,12,47,597,847.6589436107315,848.6314693130553,"[57, 0, 197]",197,a,0.4497377772349864,colour,0.06
136,20,1,2,12,48,598,849.1433256508317,849.9994679142255,"[69, 0, 185]",185,a,0.3336705968249589,colour,0.06
136,20,1,2,12,49,599,850.5183150169905,851.4634912707843,"[66, 0, 188]",188,a,0.4225056949071586,colour,0.06
136,20,1,2,12,50,600,851.9713937891647,852.7914869417436,"[78, 0, 176]",176,a,0.2974143228493631,colour,0.06
136,20,1,2,13,1,601,857.7987982972991,858.4714784661774,"[55, 0, 199]",199,a,0.14884933992289007,colour,0.06
136,20,1,2,13,2,602,858.9872886228841,859.7914767016191,"[57, 0, 197]",197,a,0.28132926137186587,colour,0.06
136,20,1,2,13,3,603,860.2994965862017,861.1834364947863,"[88, 0, 166]",166,l,0.36081406380981207,colour,0.06
136,20,1,2,13,4,604,861.6900893400889,862.4394879373722,"[58, 0, 196]",196,a,0.22603920195251703,colour,0.06
136,20,1,2,13,5,605,862.9558061554562,863.9356577857397,"[67, 0, 187]",187,a,0.4572838651947677,colour,0.06
136,20,1,2,13,6,606,864.45576165081,865.2954368223436,"[77, 0, 177]",177,a,0.3161491793580353,colour,0.06
136,20,1,2,13,7,607,865.81509997393,866.7434936654754,"[51, 0, 203]",203,a,0.4058605849277228,colour,0.06
136,20,1,2,13,8,608,867.2526486138813,868.0396248381585,"[75, 0, 179]",179,a,0.26413552393205464,colour,0.06
136,20,1,2,13,9,609,868.5494875276927,869.4715871675871,"[63, 0, 191]",191,a,0.39959449623711407,colour,0.06
136,20,1,2,13,10,610,869.9869262846187,870.9115303908475,"[93, 0, 161]",161,l,0.4020052272826433,colour,0.06
136,20,1,2,13,11,611,871.4244768938515,872.2715280118864,"[22, 0, 232]",232,a,0.3243017899803817,colour,0.06
136,20,1,2,13,12,612,872.7838384539355,873.6074309272226,"[52, 0, 202]",202,a,0.3010822096839547,colour,0.06
136,20,1,2,13,13,613,874.1275489707477,875.0234405277297,"[47, 0, 207]",207,a,0.37325762561522424,colour,0.06
136,20,1,2,13,14,614,875.533773469273,876.3114864374511,"[86, 0, 168]",168,l,0.25517592299729586,colour,0.06
136,20,1,2,13,15,615,876.8307065123226,877.615430331789,"[82, 0, 172]",172,l,0.2619299867656082,colour,0.06
136,20,1,2,13,16,616,878.1276942999102,879.0234511615708,"[81, 0, 173]",173,l,0.3732532933354378,colour,0.06
136,20,1,2,13,17,617,879.5340180476196,880.19963498367,"[65, 0, 189]",189,a,0.14316417393274605,colour,0.06
136,20,1,2,13,18,618,880.7056608262938,881.5274490914308,"[62, 0, 192]",192,a,0.2993307770229876,colour,0.06
136,20,1,2,13,19,619,882.0339373091701,882.9034624570049,"[42, 0, 212]",212,a,0.34724213322624564,colour,0.06
136,20,1,2,13,20,620,883.4087833154481,884.2314833339769,"[98, 0, 156]",156,l,0.2993260507937521,colour,0.06
136,20,1,2,13,21,621,884.7369577924255,885.5594459217973,"[85, 0, 169]",169,l,0.2999810166656971,colour,0.06
136,20,1,2,13,22,622,886.065050349338,886.8395806485787,"[97, 0, 157]",157,l,0.2518128727097064,colour,0.06
136,20,1,2,13,23,623,887.3462665770203,888.0794552639127,"[78, 0, 176]",176,a,0.21041572815738618,colour,0.06
136,20,1,2,13,24,624,888.5962685463019,889.1194581941236,"[80, 0, 174]",174,a,0.0005336613394320011,colour,0.06
136,20,1,2,13,25,625,889.6434343522415,890.2874413563404,"[64, 0, 190]",190,a,0.12110289465636015,colour,0.06
136,20,1,2,13,26,626,890.7993792199995,891.3995988285169,"[61, 0, 193]",193,a,0.07679995452053845,colour,0.06
136,20,1,2,13,27,627,891.908886896912,892.4714855554048,"[94, 0, 160]",160,l,0.04021363775245845,colour,0.06
136,20,1,2,13,28,628,892.9868943830952,893.7435842498671,"[91, 0, 163]",163,l,0.2340945324394852,colour,0.06
136,20,1,2,13,29,629,894.252520613838,894.9674506038427,"[73, 0, 181]",181,a,0.19172655744478106,colour,0.06
136,20,1,2,13,30,630,895.4869081678335,896.0159007413313,"[54, 0, 200]",200,a,0.006428353022783995,colour,0.06
136,20,1,2,13,31,631,896.5337687430438,897.1594709705096,"[69, 0, 185]",185,l,0.102471619611606,colour,0.06
136,20,1,2,13,32,632,897.6745040691458,898.4955058242194,"[95, 0, 159]",159,l,0.29764708573929965,colour,0.06
136,20,1,2,13,33,633,899.0025115555618,899.8477080529556,"[89, 0, 165]",165,l,0.3225176678970456,colour,0.06
136,20,1,2,13,34,634,900.3618368816096,901.3595998368692,"[84, 0, 170]",170,l,0.4746619227807969,colour,0.06
136,20,1,2,13,35,635,901.8774914692622,902.5674854984973,"[70, 0, 184]",184,a,0.16718050418421626,colour,0.06
136,20,1,2,13,36,636,903.0808376630303,903.7834469710942,"[87, 0, 167]",167,l,0.1801947490312159,colour,0.06
136,20,1,2,13,37,637,904.2993827646133,906.5914612628985,"[79, 0, 175]",175,a,1.769446142250672,colour,0.06
136,20,1,2,13,38,638,907.1118262477685,907.663406278938,"[92, 0, 162]",162,l,0.028517201775684953,colour,0.06
136,20,1,2,13,39,639,908.1743299893569,908.8074136767536,"[71, 0, 183]",183,a,0.11025086394511163,colour,0.06
136,20,1,2,13,40,640,909.3149648846593,910.2475077430718,"[72, 0, 182]",182,a,0.40942370891571045,colour,0.06
136,20,1,2,13,41,641,910.7680542909075,911.57543330919,"[66, 0, 188]",188,a,0.2846903423778713,colour,0.06
136,20,1,2,13,42,642,912.0808628692757,912.9756681988947,"[53, 0, 201]",201,a,0.37174131884239614,colour,0.06
136,20,1,2,13,43,643,913.486827429384,914.3914261318278,"[76, 0, 178]",178,a,0.38203211897052824,colour,0.06
136,20,1,2,13,44,644,914.9086986386683,915.6154417532962,"[83, 0, 171]",171,l,0.18405207572504878,colour,0.06
136,20,1,2,13,45,645,916.1294906311668,916.7194332242943,"[50, 0, 204]",204,a,0.06718775117769837,colour,0.06
136,20,1,2,13,46,646,917.2388494343031,918.5194485054817,"[59, 0, 195]",195,a,0.7578946414869279,colour,0.06
136,20,1,2,13,47,647,919.0357663296163,919.9754598545842,"[90, 0, 164]",164,l,0.41718011046759784,colour,0.06
136,20,1,2,13,48,648,920.4888655820396,921.3754340182059,"[56, 0, 198]",198,a,0.36337957601062953,colour,0.06
136,20,1,2,13,49,649,921.8951298589818,922.7994095461909,"[96, 0, 158]",158,l,0.3809872455894947,colour,0.06
136,20,1,2,13,50,650,923.316997917369,924.1914079361595,"[60, 0, 194]",194,a,0.3517603336367756,colour,0.06
136,20,1,2,14,1,651,929.4099912408274,930.3274056897499,"[97, 0, 157]",157,l,0.39368601981550455,colour,0.06
136,20,1,2,14,2,652,930.848394920351,931.7114078258164,"[88, 0, 166]",166,l,0.3405668386258185,colour,0.06
136,20,1,2,14,3,653,932.2232621943112,933.0314296921715,"[70, 0, 184]",184,a,0.2856276957318187,colour,0.06
136,20,1,2,14,4,654,933.5513779881876,934.3515019707847,"[95, 0, 159]",159,l,0.2770493377465755,colour,0.06
136,20,1,2,14,5,655,934.8514243832324,935.6475717036519,"[61, 0, 193]",193,a,0.2732337585184723,colour,0.06
136,20,1,2,14,6,656,936.1639021309093,936.9434275780804,"[63, 0, 191]",191,a,0.2568430728279054,colour,0.06
136,20,1,2,14,7,657,937.4537345257122,938.0874326128978,"[4, 0, 250]",250,a,0.11123114661313593,colour,0.06
136,20,1,2,14,8,658,938.5944013227709,939.4234339897521,"[83, 0, 171]",171,l,0.30604230519384146,colour,0.06
136,20,1,2,14,9,659,939.9381445287727,940.5035052287858,"[79, 0, 175]",175,l,0.04215096589177847,colour,0.06
136,20,1,2,14,10,660,941.0162508704234,941.6474752114154,"[80, 0, 174]",174,l,0.10872077266685665,colour,0.06
136,20,1,2,14,11,661,942.1583296048921,942.703407633584,"[94, 0, 160]",160,l,0.021677279379218817,colour,0.06
136,20,1,2,14,12,662,943.2208443742711,943.815390632255,"[64, 0, 190]",190,a,0.07116401963867247,colour,0.06
136,20,1,2,14,13,663,944.3231675138231,945.007435023319,"[54, 0, 200]",200,a,0.1615504769142717,colour,0.06
136,20,1,2,14,14,664,945.5261722430587,946.3593662860803,"[67, 0, 187]",187,a,0.3104214780032635,colour,0.06
136,20,1,2,14,15,665,946.870020999806,947.5997139103711,"[25, 0, 229]",229,a,0.20734648685902357,colour,0.06
136,20,1,2,14,16,666,948.1201348213945,948.8874033896718,"[99, 0, 155]",155,l,0.24433334497734904,colour,0.06
136,20,1,2,14,17,667,949.4012510122266,950.2234024035279,"[69, 0, 185]",185,a,0.29804683942347765,colour,0.06
136,20,1,2,14,18,668,950.7293404184747,951.5594250480644,"[51, 0, 203]",203,a,0.3072411722969264,colour,0.06
136,20,1,2,14,19,669,952.0611193731893,952.9274023813196,"[57, 0, 197]",197,a,0.34305948950350285,colour,0.06
136,20,1,2,14,20,670,953.4361512747128,954.1194211726543,"[76, 0, 178]",178,a,0.16028505004942417,colour,0.06
136,20,1,2,14,21,671,954.6393836468924,955.2954210685566,"[59, 0, 195]",195,a,0.13311913376674056,colour,0.06
136,20,1,2,14,22,672,955.8111981423572,956.4714229337405,"[66, 0, 188]",188,a,0.14535120013169944,colour,0.06
136,20,1,2,14,23,673,956.9909490270074,957.6954275276512,"[55, 0, 199]",199,a,0.1815834497101605,colour,0.06
136,20,1,2,14,24,674,958.2096595438197,959.0074614109471,"[93, 0, 161]",161,l,0.27439639158546925,colour,0.06
136,20,1,2,14,25,675,959.5270107409451,960.2156306419056,"[65, 0, 189]",189,a,0.16565080685541034,colour,0.06
136,20,1,2,14,26,676,960.730103691807,961.3834302718751,"[90, 0, 164]",164,l,0.1306193934287876,colour,0.06
136,20,1,2,14,27,677,961.9020572148729,962.6394210623112,"[74, 0, 180]",180,a,0.21371773234568536,colour,0.06
136,20,1,2,14,28,678,963.1560791693628,963.911424840102,"[50, 0, 204]",204,a,0.2325215118471533,colour,0.06
136,20,1,2,14,29,679,964.4215076894034,965.1994774453342,"[52, 0, 202]",202,a,0.2551302369683981,colour,0.06
136,20,1,2,14,30,680,965.7078143756371,966.5673882185947,"[56, 0, 198]",198,a,0.3368859547190368,colour,0.06
136,20,1,2,14,31,681,967.0828360372689,967.919384859968,"[71, 0, 183]",183,a,0.3134391256608069,colour,0.06
136,20,1,2,14,32,682,968.4141793984454,969.1994636605959,"[87, 0, 167]",167,l,0.26262945705093443,colour,0.06
136,20,1,2,14,33,683,969.7046766052954,970.4554020694923,"[72, 0, 182]",182,a,0.227596468757838,colour,0.06
136,20,1,2,14,34,684,970.9702630576212,971.7914211694151,"[77, 0, 177]",177,a,0.29768883343786,colour,0.06
136,20,1,2,14,35,685,972.2989522910211,973.0874298559502,"[92, 0, 162]",162,l,0.26512998482212424,colour,0.06
136,20,1,2,14,36,686,973.5958400417585,974.3833952196874,"[84, 0, 170]",170,l,0.26391654554754496,colour,0.06
136,20,1,2,14,37,687,974.8927120387089,975.6954448567703,"[82, 0, 172]",172,l,0.27975781611166894,colour,0.06
136,20,1,2,14,38,688,976.1957646596711,976.9754405559506,"[53, 0, 201]",201,a,0.2562448207754642,colour,0.06
136,20,1,2,14,39,689,977.4920072909445,978.2713905596174,"[75, 0, 179]",179,a,0.2656498614232987,colour,0.06
136,20,1,2,14,40,690,978.7793580626603,979.5994220704306,"[96, 0, 158]",158,l,0.2971126367338002,colour,0.06
136,20,1,2,14,41,691,980.10738169658,980.9433637750335,"[98, 0, 156]",156,l,0.3127073599025607,colour,0.06
136,20,1,2,14,42,692,981.4511650749482,982.2474730846006,"[58, 0, 196]",196,a,0.273214066401124,colour,0.06
136,20,1,2,14,43,693,982.7634923735168,983.5434671989642,"[73, 0, 181]",181,a,0.25651933159679174,colour,0.06
136,20,1,2,14,44,694,984.0603883950971,984.8073805938475,"[89, 0, 165]",165,l,0.22352055716328323,colour,0.06
136,20,1,2,14,45,695,985.3260725212749,986.0073917002883,"[68, 0, 186]",186,a,0.15855724783614278,colour,0.06
136,20,1,2,14,46,696,986.5135317582171,987.2634136043489,"[78, 0, 176]",176,a,0.22697379812598228,colour,0.06
136,20,1,2,14,47,697,987.7791812259238,988.551409102045,"[3, 0, 251]",251,a,0.24905083142220974,colour,0.06
136,20,1,2,14,48,698,989.0606156443246,989.7993851278443,"[60, 0, 194]",194,a,0.2157838479615748,colour,0.06
136,20,1,2,14,49,699,990.3103458597325,991.0553558319807,"[86, 0, 168]",168,l,0.2224953763652593,colour,0.06
136,20,1,2,14,50,700,991.5603568875231,992.3993739425205,"[91, 0, 163]",163,l,0.3164827667642385,colour,0.06
136,20,1,2,15,1,701,998.028481361689,998.983393486822,"[95, 0, 159]",159,l,0.43171144975349307,colour,0.06
136,20,1,2,15,2,702,999.4996443572454,1000.2794183210935,"[50, 0, 204]",204,a,0.2571802050806582,colour,0.06
136,20,1,2,15,3,703,1000.7840188352857,1001.6793763372116,"[64, 0, 190]",190,a,0.3691726557444781,colour,0.06
136,20,1,2,15,4,704,1002.1933925256599,1003.0714200192597,"[57, 0, 197]",197,a,0.3554152238648385,colour,0.06
136,20,1,2,15,5,705,1003.5839856734965,1004.4713441645727,"[62, 0, 192]",192,a,0.3644374462310225,colour,0.06
136,20,1,2,15,6,706,1004.9875347765628,1005.9034254355356,"[61, 0, 193]",193,a,0.39365293667651713,colour,0.06
136,20,1,2,15,7,707,1006.4001399728004,1007.2873996086419,"[59, 0, 195]",195,a,0.3638360435143113,colour,0.06
136,20,1,2,15,8,708,1007.8074160399847,1008.695383023005,"[81, 0, 173]",173,l,0.3646127076353878,colour,0.06
136,20,1,2,15,9,709,1009.2136775599793,1010.0793646792881,"[73, 0, 181]",181,l,0.342260770034045,colour,0.06
136,20,1,2,15,10,710,1010.5885917015839,1011.4154464006424,"[79, 0, 175]",175,l,0.30398918641731143,colour,0.06
136,20,1,2,15,11,711,1011.9325113506056,1012.7913687878754,"[92, 0, 162]",162,l,0.33643775805830956,colour,0.06
136,20,1,2,15,12,712,1013.3073282123078,1014.1515440335497,"[76, 0, 178]",178,a,0.3210407455917448,colour,0.06
136,20,1,2,15,13,713,1014.6667697229423,1015.4634046247229,"[83, 0, 171]",171,a,0.27385130897164345,colour,0.06
136,20,1,2,15,14,714,1015.9794904736336,1016.831405982608,"[51, 0, 203]",203,a,0.32920595933683217,colour,0.06
136,20,1,2,15,15,715,1017.3385664953385,1018.1913630377967,"[69, 0, 185]",185,a,0.32982862973585725,colour,0.06
136,20,1,2,15,16,716,1018.6980296676047,1019.5833523692563,"[52, 0, 202]",202,a,0.36281913332641125,colour,0.06
136,20,1,2,15,17,717,1020.1041513723321,1020.8955599386245,"[84, 0, 170]",170,l,0.28136391984298825,colour,0.06
136,20,1,2,15,18,718,1021.4043202535249,1022.3673830199987,"[77, 0, 177]",177,l,0.4396947065833956,colour,0.06
136,20,1,2,15,19,719,1022.8624174105935,1023.68736589537,"[80, 0, 174]",174,l,0.3034862452186644,colour,0.06
136,20,1,2,15,20,720,1024.1927210185677,1024.9195112844463,"[74, 0, 180]",180,l,0.20400982396677136,colour,0.06
136,20,1,2,15,21,721,1025.4297890877351,1026.3514094171114,"[70, 0, 184]",184,a,0.39905847213231027,colour,0.06
136,20,1,2,15,22,722,1026.8677615057677,1027.5913691029418,"[88, 0, 166]",166,l,0.20103234890848398,colour,0.06
136,20,1,2,15,23,723,1028.1016374537721,1028.8793673573527,"[91, 0, 163]",163,l,0.25465959100984037,colour,0.06
136,20,1,2,15,24,724,1029.3984877893236,1030.1993455069605,"[63, 0, 191]",191,a,0.2778063097503036,colour,0.06
136,20,1,2,15,25,725,1030.71112661995,1031.4634274677373,"[86, 0, 168]",168,l,0.2289698093663901,colour,0.06
136,20,1,2,15,26,726,1031.9766409983858,1032.8633740623482,"[58, 0, 196]",196,a,0.3639364743139595,colour,0.06
136,20,1,2,15,27,727,1033.3829505676404,1034.119381787954,"[94, 0, 160]",160,l,0.213536563096568,colour,0.06
136,20,1,2,15,28,728,1034.6331758475862,1035.3753473721445,"[90, 0, 164]",164,l,0.21981564862653613,colour,0.06
136,20,1,2,15,29,729,1035.8834034905303,1036.6633302667178,"[82, 0, 172]",172,l,0.25778160779736936,colour,0.06
136,20,1,2,15,30,730,1037.1797256784048,1038.023355063051,"[72, 0, 182]",182,a,0.32049487507902086,colour,0.06
136,20,1,2,15,31,731,1038.5391502538696,1039.3354602325708,"[85, 0, 169]",169,l,0.2729994202964008,colour,0.06
136,20,1,2,15,32,732,1039.8517032261007,1040.4713638569228,"[93, 0, 161]",161,l,0.09692823817022145,colour,0.06
136,20,1,2,15,33,733,1040.9765941307414,1041.7353355409577,"[9, 0, 245]",245,a,0.23594600218348205,colour,0.06
136,20,1,2,15,34,734,1042.242290860042,1042.9833383483347,"[71, 0, 183]",183,a,0.21801616670563817,colour,0.06
136,20,1,2,15,35,735,1043.4922613215167,1044.2873803102411,"[66, 0, 188]",188,a,0.27247560513205826,colour,0.06
136,20,1,2,15,36,736,1044.8046937768813,1045.5993752027862,"[97, 0, 157]",157,l,0.2721128729172051,colour,0.06
136,20,1,2,15,37,737,1046.1172652600799,1046.8393612764776,"[78, 0, 176]",176,l,0.19858892890624702,colour,0.06
136,20,1,2,15,38,738,1047.3517859338317,1048.7353701994289,"[54, 0, 200]",200,a,0.8597491043619812,colour,0.06
136,20,1,2,15,39,739,1049.2423515121918,1050.0793973684777,"[65, 0, 189]",189,a,0.3142327251844108,colour,0.06
136,20,1,2,15,40,740,1050.586086841533,1051.4073241162114,"[68, 0, 186]",186,a,0.2984497435390949,colour,0.06
136,20,1,2,15,41,741,1051.914196333848,1053.7513284422457,"[53, 0, 201]",201,a,1.313803039258346,colour,0.06
136,20,1,2,15,42,742,1054.2578682538588,1055.0876070866361,"[75, 0, 179]",179,l,0.306321935961023,colour,0.06
136,20,1,2,15,43,743,1055.601678807754,1056.159362268867,"[55, 0, 199]",199,a,0.03412320441566408,colour,0.06
136,20,1,2,15,44,744,1056.6797193768434,1057.27934270259,"[99, 0, 155]",155,l,0.07686336361803114,colour,0.06
136,20,1,2,15,45,745,1057.7891211092938,1058.9113708832301,"[6, 0, 248]",248,a,0.599872236372903,colour,0.06
136,20,1,2,15,46,746,1059.4297914507333,1060.0714019024745,"[43, 0, 211]",211,a,0.1188351297751069,colour,0.06
136,20,1,2,15,47,747,1060.586094324477,1061.2393712801859,"[98, 0, 156]",156,l,0.13053786754608154,colour,0.06
136,20,1,2,15,48,748,1061.7579612014815,1062.3833270843606,"[67, 0, 187]",187,a,0.10266342246904969,colour,0.06
136,20,1,2,15,49,749,1062.8985610445961,1064.1113674172666,"[60, 0, 194]",194,a,0.689436343498528,colour,0.06
136,20,1,2,15,50,750,1064.6172715614084,1065.4233508883044,"[96, 0, 158]",158,l,0.2829979865346104,colour,0.06
136,20,1,2,16,1,751,1070.5540951311123,1071.7433762992732,"[72, 0, 182]",182,l,0.6662053416948766,colour,0.06
136,20,1,2,16,2,752,1072.2601722525433,1073.1593784166034,"[61, 0, 193]",193,a,0.37686170963570476,colour,0.06
136,20,1,2,16,3,753,1073.6663156186696,1074.5033598996233,"[89, 0, 165]",165,l,0.31369197461754084,colour,0.06
136,20,1,2,16,4,754,1075.0100635509007,1076.0313111445867,"[67, 0, 187]",187,a,0.49849826539866626,colour,0.06
136,20,1,2,16,5,755,1076.5413884802256,1077.5193429547362,"[35, 0, 219]",219,a,0.45548832160420716,colour,0.06
136,20,1,2,16,6,756,1078.0256949018221,1078.9593314703088,"[55, 0, 199]",199,a,0.41030395473353565,colour,0.06
136,20,1,2,16,7,757,1079.4787933663465,1080.455324481707,"[13, 0, 241]",241,a,0.4533292583655566,colour,0.06
136,20,1,2,16,8,758,1080.963189190952,1081.8313374535646,"[83, 0, 171]",171,l,0.3446888301987201,colour,0.06
136,20,1,2,16,9,759,1082.3382014001254,1083.2636514874175,"[77, 0, 177]",177,l,0.40161413815803826,colour,0.06
136,20,1,2,16,10,760,1083.7741136103868,1084.679351130966,"[66, 0, 188]",188,l,0.3911906119901687,colour,0.06
136,20,1,2,16,11,761,1085.187359987758,1086.0312981477473,"[94, 0, 160]",160,l,0.32065832149237394,colour,0.06
136,20,1,2,16,12,762,1086.546638840111,1087.375338707585,"[63, 0, 191]",191,a,0.30508132139220834,colour,0.06
136,20,1,2,16,13,763,1087.8906601015478,1088.7113652904518,"[97, 0, 157]",157,l,0.2957093636505306,colour,0.06
136,20,1,2,16,14,764,1089.216765705729,1090.0553314134013,"[69, 0, 185]",185,a,0.3206949490122497,colour,0.06
136,20,1,2,16,15,765,1090.5728351077996,1091.4633471232373,"[51, 0, 203]",203,a,0.367542527616024,colour,0.06
136,20,1,2,16,16,766,1091.979043064639,1092.7993280200753,"[98, 0, 156]",156,l,0.296901929192245,colour,0.06
136,20,1,2,16,17,767,1093.3070659108926,1094.239381126361,"[50, 0, 204]",204,a,0.4132290482521057,colour,0.06
136,20,1,2,16,18,768,1094.7558714549523,1095.5993704767898,"[64, 0, 190]",190,a,0.3202132754959166,colour,0.06
136,20,1,2,16,19,769,1096.115296030417,1096.9113251969684,"[78, 0, 176]",176,a,0.27347085368819535,colour,0.06
136,20,1,2,16,20,770,1097.4304519302677,1098.2873385625426,"[56, 0, 198]",198,a,0.3334173536859453,colour,0.06
136,20,1,2,16,21,771,1098.794780675089,1099.5353039545007,"[82, 0, 172]",172,l,0.21733087464235723,colour,0.06
136,20,1,2,16,22,772,1100.0446211674716,1100.9672985794023,"[68, 0, 186]",186,a,0.40514457295648754,colour,0.06
136,20,1,2,16,23,773,1101.4770824997686,1102.3273686680477,"[92, 0, 162]",162,l,0.32722806511446834,colour,0.06
136,20,1,2,16,24,774,1102.829621466808,1103.6793475863524,"[52, 0, 202]",202,a,0.3263151303399354,colour,0.06
136,20,1,2,16,25,775,1104.1890330452006,1105.023268023273,"[80, 0, 174]",174,l,0.31119774864055216,colour,0.06
136,20,1,2,16,26,776,1105.5326395868324,1106.383396401303,"[53, 0, 201]",201,a,0.3273497635964304,colour,0.06
136,20,1,2,16,27,777,1106.894661969971,1107.7433148594573,"[88, 0, 166]",166,l,0.3377512344159186,colour,0.06
136,20,1,2,16,28,778,1108.2571364881005,1109.0712841425557,"[87, 0, 167]",167,l,0.29271731642074883,colour,0.06
136,20,1,2,16,29,779,1109.5835410214495,1110.6073553089518,"[85, 0, 169]",169,l,0.4974238539580256,colour,0.06
136,20,1,2,16,30,780,1111.11787453969,1111.9833229882643,"[96, 0, 158]",158,l,0.3426361051388085,colour,0.06
136,20,1,2,16,31,781,1112.4927618997172,1113.5913088445086,"[79, 0, 175]",175,l,0.5743825284298509,colour,0.06
136,20,1,2,16,32,782,1114.103526338935,1114.9034660016187,"[65, 0, 189]",189,a,0.2765570303890854,colour,0.06
136,20,1,2,16,33,783,1115.4160686773248,1116.319259380689,"[59, 0, 195]",195,a,0.3850446464493871,colour,0.06
136,20,1,2,16,34,784,1116.8327927142382,1117.7993102970067,"[71, 0, 183]",183,a,0.44308965816162527,colour,0.06
136,20,1,2,16,35,785,1118.3191758852918,1119.2232925205026,"[54, 0, 200]",200,a,0.38074148586019874,colour,0.06
136,20,1,2,16,36,786,1119.7411443744786,1120.6474204668775,"[1, 0, 253]",253,a,0.39524801285006106,colour,0.06
136,20,1,2,16,37,787,1121.166136418702,1121.951282047201,"[60, 0, 194]",194,a,0.2617559067439288,colour,0.06
136,20,1,2,16,38,788,1122.4629879356362,1123.3032786885742,"[95, 0, 159]",159,l,0.3159156288020313,colour,0.06
136,20,1,2,16,39,789,1123.8232718829531,1124.687284763204,"[57, 0, 197]",197,a,0.34077990939840674,colour,0.06
136,20,1,2,16,40,790,1125.1983471075073,1125.9192749769427,"[91, 0, 163]",163,l,0.19743180950172246,colour,0.06
136,20,1,2,16,41,791,1126.4350922228768,1127.335376343457,"[81, 0, 173]",173,l,0.3864191686734557,colour,0.06
136,20,1,2,16,42,792,1127.8363558382262,1128.6232706226874,"[84, 0, 170]",170,l,0.2633525584824383,colour,0.06
136,20,1,2,16,43,793,1129.1336740625557,1129.9192793092225,"[75, 0, 179]",179,a,0.26314263837412,colour,0.06
136,20,1,2,16,44,794,1130.4305425148923,1131.2952497454826,"[62, 0, 192]",192,a,0.3408476507756859,colour,0.06
136,20,1,2,16,45,795,1131.7929741039407,1132.599285012111,"[93, 0, 161]",161,l,0.29350815899670124,colour,0.06
136,20,1,2,16,46,796,1133.1105096209794,1133.9432794919703,"[70, 0, 184]",184,a,0.30940535571426153,colour,0.06
136,20,1,2,16,47,797,1134.4541969008278,1135.247391558485,"[99, 0, 155]",155,l,0.2700046158861369,colour,0.06
136,20,1,2,16,48,798,1135.7667419963982,1136.5114723378792,"[76, 0, 178]",178,a,0.22141269384883344,colour,0.06
136,20,1,2,16,49,799,1137.0324273039587,1137.7832858881447,"[90, 0, 164]",164,l,0.22767011797986925,colour,0.06
136,20,1,2,16,50,800,1138.298021633178,1139.183318340918,"[58, 0, 196]",196,a,0.3618049800861627,colour,0.06
