id,age,condition,counterbalance,block,trialinblock,trial,tstart,tend,trialstim,trialintensity,response,RT,trialtype,colourfreq
047,72,0,2,Practice,1,NA,5.119989509694278e-06,2.710350857494632,"[89, 0, 165]",165,a,2.18593616153521,colour,0.5
047,72,0,2,Practice,2,NA,3.219836435848265,3.9902716157230316,"[12, 0, 242]",242,a,0.24705039059335832,colour,0.5
047,72,0,2,Practice,3,NA,4.501115961975302,34.21427021363343,"[74, 0, 180]",180,a,29.18975292085088,colour,0.5
047,72,0,2,Practice,4,NA,34.72231983032543,37.02236728873686,"[78, 0, 176]",176,a,1.7773467792285373,colour,0.5
047,72,0,2,Practice,5,NA,37.53498591016978,38.23028437633184,"[50, 0, 204]",204,a,0.18168932264961768,colour,0.5
047,72,0,2,Practice,6,NA,38.744476411593496,39.35025924896763,"[1, 0, 253]",253,a,0.0828387615038082,colour,0.5
047,72,0,2,Practice,7,NA,39.869159316513105,44.79829976781912,"[38, 0, 216]",216,l,4.405736757427803,colour,0.5
047,72,0,2,Practice,8,NA,45.30715322372271,47.062239052553196,"[40, 0, 214]",214,a,1.231814073282294,colour,0.5
047,72,0,2,Practice,9,NA,47.572833306738175,48.166269867055234,"[43, 0, 211]",211,a,0.07009430637117475,colour,0.5
047,72,0,2,Practice,10,NA,48.682338971237186,58.49428234407969,"[61, 0, 193]",193,a,9.288552282028832,colour,0.5
047,72,0,2,1,1,1,4.984683731992845,5.983966932704789,"[50, 0, 204]",204,a,0.4752123320940882,colour,0.5
047,72,0,2,1,2,2,6.501296343340073,7.247962931229267,"[98, 0, 156]",156,a,0.2233235462626908,colour,0.5
047,72,0,2,1,3,3,7.766983909430564,8.335976826114347,"[16, 0, 238]",238,a,0.04568295809440315,colour,0.5
047,72,0,2,1,4,4,8.846925541482051,14.207965136767598,"[79, 0, 175]",175,a,4.837649292167043,colour,0.5
047,72,0,2,1,5,5,14.722410021000542,16.08794418416801,"[97, 0, 157]",157,a,0.8422647706902353,colour,0.5
047,72,0,2,1,6,6,16.597592026984785,18.59199193403765,"[58, 0, 196]",196,a,1.4710399300529389,colour,0.5
047,72,0,2,1,7,7,19.113378349895356,19.71997093418031,"[51, 0, 203]",203,a,0.08379620057530701,colour,0.5
047,72,0,2,1,8,8,20.23843462060904,21.063957795486203,"[63, 0, 191]",191,a,0.3021399609715445,colour,0.5
047,72,0,2,1,9,9,21.58234546968015,22.288001291803084,"[69, 0, 185]",185,a,0.18037821009056643,colour,0.5
047,72,0,2,1,10,10,22.803215750667732,23.59999054769287,"[85, 0, 169]",169,a,0.27371335511270445,colour,0.5
047,72,0,2,1,11,11,24.11400968466478,24.935951226128964,"[75, 0, 179]",179,a,0.3025664959277492,colour,0.5
047,72,0,2,1,12,12,25.453870223878766,26.631980670048506,"[20, 0, 234]",234,a,0.6671306169882882,colour,0.5
047,72,0,2,1,13,13,27.14470011598314,34.799963372337515,"[67, 0, 187]",187,a,7.131922577798832,colour,0.5
047,72,0,2,1,14,14,35.31722976765013,36.031933408550685,"[62, 0, 192]",192,a,0.19137123311520554,colour,0.5
047,72,0,2,1,15,15,36.537990953351255,38.43194758699974,"[95, 0, 159]",159,l,1.3706478565873113,colour,0.5
047,72,0,2,1,16,16,38.944485863888985,39.70394101765123,"[6, 0, 248]",248,a,0.23622002587944735,colour,0.5
047,72,0,2,1,17,17,40.21005212547607,41.76796812999237,"[30, 0, 224]",224,a,1.0344394491694402,colour,0.5
047,72,0,2,1,18,18,42.2884167990851,43.415932242773124,"[70, 0, 184]",184,a,0.6041767343558604,colour,0.5
047,72,0,2,1,19,19,43.92904868524056,44.67200012602552,"[12, 0, 242]",242,a,0.21948433773650322,colour,0.5
047,72,0,2,1,20,20,45.17597186366038,45.85599384024681,"[26, 0, 228]",228,a,0.1575056172296172,colour,0.5
047,72,0,2,1,21,21,46.36345347597671,47.54394235672953,"[42, 0, 212]",212,a,0.6570737653382821,colour,0.5
047,72,0,2,1,22,22,48.05113260196231,49.47200367064215,"[18, 0, 236]",236,a,0.8975681993179023,colour,0.5
047,72,0,2,1,23,23,49.98894120473415,50.53608158908901,"[96, 0, 158]",158,l,0.02399899176089093,colour,0.5
047,72,0,2,1,24,24,51.05148233700311,52.27203714752977,"[48, 0, 206]",206,a,0.6974181440891698,colour,0.5
047,72,0,2,1,25,25,52.77680445360602,53.91992130961444,"[44, 0, 210]",210,a,0.6249698215688113,colour,0.5
047,72,0,2,1,26,26,54.4279220894241,55.071936323016416,"[39, 0, 215]",215,a,0.12068182579241693,colour,0.5
047,72,0,2,1,27,27,55.584197332471376,56.319947303432855,"[23, 0, 231]",231,a,0.212300590967061,colour,0.5
047,72,0,2,1,28,28,56.83437288922141,57.423913527221885,"[7, 0, 247]",247,a,0.06614285180694424,colour,0.5
047,72,0,2,1,29,29,57.943700535426615,58.51195026515052,"[25, 0, 229]",229,a,0.04478341437061317,colour,0.5
047,72,0,2,1,30,30,59.02202936907997,59.82398796407506,"[14, 0, 240]",240,a,0.2794863463641377,colour,0.5
047,72,0,2,1,31,31,60.334521566008334,61.14390533522237,"[88, 0, 166]",166,l,0.28587964466714766,colour,0.5
047,72,0,2,1,32,32,61.662857784263906,62.45590955724765,"[93, 0, 161]",161,l,0.2696587129466934,colour,0.5
047,72,0,2,1,33,33,62.975547691763495,63.78395157272462,"[34, 0, 220]",220,a,0.2835969146108255,colour,0.5
047,72,0,2,1,34,34,64.30733596815844,65.47206471672689,"[43, 0, 211]",211,a,0.641399097701651,colour,0.5
047,72,0,2,1,35,35,65.97388566263544,67.2799546289607,"[35, 0, 219]",219,a,0.7826924478140427,colour,0.5
047,72,0,2,1,36,36,67.77589506372169,72.87993926898343,"[32, 0, 222]",222,a,4.580646025220631,colour,0.5
047,72,0,2,1,37,37,73.40139775861462,74.15989507948689,"[29, 0, 225]",225,a,0.23525037760555279,colour,0.5
047,72,0,2,1,38,38,74.66705775550508,75.62394739795127,"[24, 0, 230]",230,a,0.4334319916961249,colour,0.5
047,72,0,2,1,39,39,76.13587324466789,77.01591609508614,"[10, 0, 244]",244,a,0.35687310091452673,colour,0.5
047,72,0,2,1,40,40,77.5265958138043,78.38396141886187,"[60, 0, 194]",194,a,0.33394576350110583,colour,0.5
047,72,0,2,1,41,41,78.90282761567505,79.5519326996291,"[65, 0, 189]",189,a,0.13499418093124405,colour,0.5
047,72,0,2,1,42,42,80.06553593547142,81.23190465780499,"[89, 0, 165]",165,l,0.6430556129780598,colour,0.5
047,72,0,2,1,43,43,81.7532182122086,82.53587482005241,"[66, 0, 188]",188,a,0.26954252844734583,colour,0.5
047,72,0,2,1,44,44,83.05618485544983,83.87196152913384,"[64, 0, 190]",190,a,0.29243560128088575,colour,0.5
047,72,0,2,1,45,45,84.38438913536083,85.8798565613688,"[53, 0, 201]",201,a,0.9709266994032077,colour,0.5
047,72,0,2,1,46,46,86.38663996392279,87.23186645477836,"[40, 0, 214]",214,a,0.322187498153653,colour,0.5
047,72,0,2,1,47,47,87.74608290847391,89.13589923849213,"[68, 0, 186]",186,a,0.8664260268997168,colour,0.5
047,72,0,2,1,48,48,89.65251972674741,90.29592468093324,"[9, 0, 245]",245,a,0.12010366021422669,colour,0.5
047,72,0,2,1,49,49,90.80888122202305,91.35992422407435,"[46, 0, 208]",208,a,0.027639308173093013,colour,0.5
047,72,0,2,1,50,50,91.87132901283621,92.60789739529719,"[71, 0, 183]",183,l,0.2138015371747315,colour,0.5
047,72,0,2,2,1,51,102.12236275951727,103.86392116782372,"[29, 0, 225]",225,a,1.217345755227143,colour,0.5
047,72,0,2,2,2,52,104.37338350927166,105.11992800499138,"[35, 0, 219]",219,a,0.22315694950520992,colour,0.5
047,72,0,2,2,3,53,105.63916677988891,106.62390801338188,"[73, 0, 181]",181,a,0.4615072871383745,colour,0.5
047,72,0,2,2,4,54,107.13924810904427,107.71194829592423,"[97, 0, 157]",157,l,0.04938313907769043,colour,0.5
047,72,0,2,2,5,55,108.2330050628807,109.40786431224842,"[38, 0, 216]",216,a,0.6514673708588816,colour,0.5
047,72,0,2,2,6,56,109.9206609519606,110.58393266811618,"[51, 0, 203]",203,a,0.1400153205904644,colour,0.5
047,72,0,2,2,7,57,111.09259865344211,111.85587568652409,"[85, 0, 169]",169,l,0.23985088999324944,colour,0.5
047,72,0,2,2,8,58,112.37397152101039,113.0718760646123,"[74, 0, 180]",180,a,0.17457410503993742,colour,0.5
047,72,0,2,2,9,59,113.5928264932154,114.1758442576247,"[40, 0, 214]",214,a,0.05962588590045925,colour,0.5
047,72,0,2,2,10,60,114.68661653008894,115.70385949157935,"[44, 0, 210]",210,a,0.4940192551148357,colour,0.5
047,72,0,2,2,11,61,116.21798851151834,117.00786194918328,"[31, 0, 223]",223,a,0.2664685622585239,colour,0.5
047,72,0,2,2,12,62,117.51504549902165,118.24788337438076,"[95, 0, 159]",159,l,0.20947514144063462,colour,0.5
047,72,0,2,2,13,63,118.76505445901421,119.53591578001215,"[13, 0, 241]",241,a,0.24748519631975796,colour,0.5
047,72,0,2,2,14,64,120.04648088960676,120.86397118623427,"[41, 0, 213]",213,a,0.294153950366308,colour,0.5
047,72,0,2,2,15,65,121.37468871414603,122.56785982240399,"[53, 0, 201]",201,a,0.6698091620346531,colour,0.5
047,72,0,2,2,16,66,123.0780318739271,124.55187953045242,"[32, 0, 222]",222,a,0.9506503378215712,colour,0.5
047,72,0,2,2,17,67,125.06244857850834,126.52798096936021,"[71, 0, 183]",183,l,0.9421854107640684,colour,0.5
047,72,0,2,2,18,68,127.04702557831479,127.77585922376602,"[14, 0, 240]",240,a,0.20553825916431379,colour,0.5
047,72,0,2,2,19,69,128.29737679027312,129.91185495448008,"[60, 0, 194]",194,a,1.091122913363506,colour,0.5
047,72,0,2,2,20,70,130.42259611313057,131.1118809483014,"[88, 0, 166]",166,l,0.16593903662578668,colour,0.5
047,72,0,2,2,21,71,131.62589575296442,132.39986963703996,"[4, 0, 250]",250,a,0.25075175310485065,colour,0.5
047,72,0,2,2,22,72,132.90715322371398,133.72783564028214,"[15, 0, 239]",239,a,0.2973665502941003,colour,0.5
047,72,0,2,2,23,73,134.23531418060884,134.91187070831074,"[8, 0, 246]",246,a,0.15319261224067304,colour,0.5
047,72,0,2,2,24,74,135.42295530046977,136.5198449035379,"[56, 0, 198]",198,a,0.5735552260448458,colour,0.5
047,72,0,2,2,25,75,137.0324528911151,137.79187338646443,"[23, 0, 231]",231,a,0.2360660321864998,colour,0.5
047,72,0,2,2,26,76,138.2982239525154,139.07985301675217,"[99, 0, 155]",155,l,0.2583352533256402,colour,0.5
047,72,0,2,2,27,77,139.59519390010973,140.8078497399547,"[65, 0, 189]",189,a,0.6883006145944819,colour,0.5
047,72,0,2,2,28,78,141.31515341276827,142.0882836792298,"[36, 0, 218]",218,a,0.2498939570359653,colour,0.5
047,72,0,2,2,29,79,142.59949508972932,143.95182045358524,"[33, 0, 221]",221,a,0.829055183698074,colour,0.5
047,72,0,2,2,30,80,144.45908946797135,145.63182667635556,"[9, 0, 245]",245,a,0.6491720377380261,colour,0.5
047,72,0,2,2,31,81,146.1468875353603,146.87186346155067,"[42, 0, 212]",212,a,0.2016104353388073,colour,0.5
047,72,0,2,2,32,82,147.38135415989382,148.08783784581465,"[69, 0, 185]",185,l,0.18297207829891704,colour,0.5
047,72,0,2,2,33,83,148.6003985719144,149.26386012173316,"[98, 0, 156]",156,l,0.14021224348107353,colour,0.5
047,72,0,2,2,34,84,149.77484585861384,150.63983946846565,"[76, 0, 178]",178,l,0.3415269006509334,colour,0.5
047,72,0,2,2,35,85,151.14998434462177,151.70382247008092,"[28, 0, 226]",226,a,0.030369053172762506,colour,0.5
047,72,0,2,2,36,86,152.21256052916578,153.0478621067159,"[79, 0, 175]",175,l,0.3118344745016657,colour,0.5
047,72,0,2,2,37,87,153.55697392544243,154.135818893963,"[18, 0, 236]",236,a,0.05550468381261453,colour,0.5
047,72,0,2,2,38,88,154.65073993772967,155.3918635403097,"[86, 0, 168]",168,l,0.217677373366314,colour,0.5
047,72,0,2,2,39,89,155.90084578377719,159.631853851708,"[16, 0, 238]",238,a,3.2076658139849314,colour,0.5
047,72,0,2,2,40,90,160.1512714325945,160.90383704236592,"[91, 0, 163]",163,l,0.2292402911989484,colour,0.5
047,72,0,2,2,41,91,161.4169779032818,162.1518350258848,"[64, 0, 190]",190,a,0.2115778839943232,colour,0.5
047,72,0,2,2,42,92,162.66709714008903,163.44787313439883,"[54, 0, 200]",200,a,0.25756725408427883,colour,0.5
047,72,0,2,2,43,93,163.96409150611726,165.13582165088155,"[10, 0, 244]",244,a,0.6484725676564267,colour,0.5
047,72,0,2,2,44,94,165.65161900148087,166.42379773657012,"[80, 0, 174]",174,l,0.24880891194334254,colour,0.5
047,72,0,2,2,45,95,166.9349185625324,167.72780176954984,"[82, 0, 172]",172,l,0.2696681652596453,colour,0.5
047,72,0,2,2,46,96,168.24740051948174,168.7918981987459,"[83, 0, 171]",171,l,0.021104225379531272,colour,0.5
047,72,0,2,2,47,97,169.30988730103127,170.61581723979907,"[72, 0, 182]",182,a,0.7825400294968858,colour,0.5
047,72,0,2,2,48,98,171.12268295612012,172.65582684964465,"[0, 0, 254]",254,a,1.009822119565797,colour,0.5
047,72,0,2,2,49,99,173.16970971597766,173.89579589336063,"[11, 0, 243]",243,a,0.20295896322932094,colour,0.5
047,72,0,2,2,50,100,174.40416255588934,174.95982379339694,"[26, 0, 228]",228,a,0.032472977254656143,colour,0.5
047,72,0,2,3,1,101,192.93949701957172,194.39190410642186,"[34, 0, 220]",220,a,0.928177892245003,colour,0.5
047,72,0,2,3,2,102,194.90923745551845,195.63980677926156,"[67, 0, 187]",187,a,0.20733143894176465,colour,0.5
047,72,0,2,3,3,103,196.15930234160624,196.70381577470107,"[14, 0, 240]",240,a,0.02119284067885019,colour,0.5
047,72,0,2,3,4,104,197.22191830456723,199.231817617896,"[10, 0, 244]",244,a,1.4866334654652746,colour,0.5
047,72,0,2,3,5,105,199.7533501505386,200.7517932782357,"[76, 0, 178]",178,l,0.4752584120578831,colour,0.5
047,72,0,2,3,6,106,201.26908291043947,202.20779972155287,"[71, 0, 183]",183,l,0.41547144323703833,colour,0.5
047,72,0,2,3,7,107,202.72549107643135,203.25579652351735,"[8, 0, 246]",246,a,0.006964768530451693,colour,0.5
047,72,0,2,3,8,108,203.77248435938964,204.3918249434355,"[27, 0, 227]",227,a,0.09608103771461174,colour,0.5
047,72,0,2,3,9,109,204.9027590865153,206.15175586288387,"[51, 0, 203]",203,a,0.7257994576793863,colour,0.5
047,72,0,2,3,10,110,206.66855752018455,207.2238052196335,"[41, 0, 213]",213,a,0.03187630092725158,colour,0.5
047,72,0,2,3,11,111,207.73113528010435,208.4477904267842,"[49, 0, 205]",205,a,0.19328965584281832,colour,0.5
047,72,0,2,3,12,112,208.9655692154338,209.94382341530581,"[72, 0, 182]",182,l,0.4548438106139656,colour,0.5
047,72,0,2,3,13,113,210.4501302644785,211.00779184463318,"[9, 0, 245]",245,a,0.03439651998633053,colour,0.5
047,72,0,2,3,14,114,211.52832125210261,212.05579179736378,"[24, 0, 230]",230,a,0.004146014369325712,colour,0.5
047,72,0,2,3,15,115,212.57532595659723,213.12783682181907,"[25, 0, 229]",229,a,0.029502198653062806,colour,0.5
047,72,0,2,3,16,116,213.63780722430965,215.80781665691757,"[16, 0, 238]",238,a,1.6466770248080138,colour,0.5
047,72,0,2,3,17,117,216.32564388858736,218.03180777175294,"[12, 0, 242]",242,a,1.1828027246228885,colour,0.5
047,72,0,2,3,18,118,218.54448940849397,219.39183833418065,"[60, 0, 194]",194,a,0.32401061020209454,colour,0.5
047,72,0,2,3,19,119,219.90395440840803,220.87178114778362,"[74, 0, 180]",180,l,0.4445797961088829,colour,0.5
047,72,0,2,3,20,120,221.38953551798477,222.02378946580575,"[44, 0, 210]",210,a,0.1092725077905925,colour,0.5
047,72,0,2,3,21,121,222.53221638673858,223.29578171491448,"[80, 0, 174]",174,l,0.24017226813884918,colour,0.5
047,72,0,2,3,22,122,223.81355814049311,224.4797506168543,"[90, 0, 164]",164,l,0.14281950244912878,colour,0.5
047,72,0,2,3,23,123,225.00118586959434,227.04778058064403,"[95, 0, 159]",159,l,1.523339103179751,colour,0.5
047,72,0,2,3,24,124,227.56394105704385,229.23178650408227,"[52, 0, 202]",202,a,1.144561482273275,colour,0.5
047,72,0,2,3,25,125,229.75154200462566,230.37577100230556,"[54, 0, 200]",200,a,0.10092809754132759,colour,0.5
047,72,0,2,3,26,126,230.89225561376952,231.63974179471552,"[88, 0, 166]",166,l,0.22408603166695684,colour,0.5
047,72,0,2,3,27,127,232.15801997978997,232.81584835362446,"[84, 0, 170]",170,l,0.13446682145877276,colour,0.5
047,72,0,2,3,28,128,233.33000494276348,233.93574721402547,"[58, 0, 196]",196,a,0.0830427736218553,colour,0.5
047,72,0,2,3,29,129,234.45505373040214,235.25574571741163,"[63, 0, 191]",191,a,0.27740368993545417,colour,0.5
047,72,0,2,3,30,130,235.76761012419593,236.3517349890608,"[11, 0, 243]",243,a,0.060764494017348625,colour,0.5
047,72,0,2,3,31,131,236.861439939501,238.15177358593792,"[65, 0, 189]",189,l,0.7669114418094978,colour,0.5
047,72,0,2,3,32,132,238.6585191792983,239.23176838718064,"[45, 0, 209]",209,a,0.049883717045304365,colour,0.5
047,72,0,2,3,33,133,239.75242697606154,240.55976274730347,"[81, 0, 173]",173,l,0.2841727171180537,colour,0.5
047,72,0,2,3,34,134,241.08058123757655,241.69579156105465,"[87, 0, 167]",167,l,0.0918889433669392,colour,0.5
047,72,0,2,3,35,135,242.2056764990266,242.8877653781965,"[53, 0, 201]",201,a,0.1587710436724592,colour,0.5
047,72,0,2,3,36,136,243.39380795686156,244.20773946314876,"[43, 0, 211]",211,a,0.2911252764315577,colour,0.5
047,72,0,2,3,37,137,244.72208312901785,245.91978818974167,"[47, 0, 207]",207,a,0.6743580806360114,colour,0.5
047,72,0,2,3,38,138,246.4408878858958,247.02373275201535,"[78, 0, 176]",176,l,0.0593789446138544,colour,0.5
047,72,0,2,3,39,139,247.53481695032679,248.31985908198112,"[36, 0, 218]",218,a,0.26176289303111844,colour,0.5
047,72,0,2,3,40,140,248.83178256562678,250.21574437833624,"[35, 0, 219]",219,a,0.8731812694750261,colour,0.5
047,72,0,2,3,41,141,250.72577346385515,251.34373952615715,"[17, 0, 237]",237,a,0.09394166749552824,colour,0.5
047,72,0,2,3,42,142,251.85144374011725,252.4479133066634,"[23, 0, 231]",231,a,0.0730658726679394,colour,0.5
047,72,0,2,3,43,143,252.96091947231616,253.59178162038734,"[37, 0, 217]",217,a,0.10749114338250365,colour,0.5
047,72,0,2,3,44,144,254.10165159220924,254.71171513923036,"[28, 0, 226]",226,a,0.0868382652697619,colour,0.5
047,72,0,2,3,45,145,255.22670195523824,255.87175633550214,"[92, 0, 162]",162,l,0.12160893873078749,colour,0.5
047,72,0,2,3,46,146,256.3831406442914,256.99977235714323,"[99, 0, 155]",155,l,0.09333593271730933,colour,0.5
047,72,0,2,3,47,147,257.50608275092964,258.1917323896778,"[38, 0, 216]",216,a,0.16223649257153738,colour,0.5
047,72,0,2,3,48,148,258.70929023085046,259.44774592221074,"[6, 0, 248]",248,a,0.21512643432652112,colour,0.5
047,72,0,2,3,49,149,259.95938780614233,260.7837507113727,"[97, 0, 157]",157,l,0.30099780824093614,colour,0.5
047,72,0,2,3,50,150,261.30321437220846,262.0077662446565,"[70, 0, 184]",184,a,0.18136676296126097,colour,0.5
047,72,0,2,4,1,151,277.69717514123477,279.11174704073346,"[65, 0, 189]",189,a,0.8903458556596888,colour,0.5
047,72,0,2,4,2,152,279.62011449095735,280.3036905317422,"[12, 0, 242]",242,a,0.16060675878543407,colour,0.5
047,72,0,2,4,3,153,280.8232833739894,281.4077276477765,"[78, 0, 176]",176,l,0.06111304752994329,colour,0.5
047,72,0,2,4,4,154,281.9170446601347,282.5997010710562,"[94, 0, 160]",160,l,0.15928422470460646,colour,0.5
047,72,0,2,4,5,155,283.12028404156445,283.66374669414654,"[58, 0, 196]",196,a,0.020193653952446766,colour,0.5
047,72,0,2,4,6,156,284.18285668149474,284.79974951408803,"[86, 0, 168]",168,l,0.09350922485464253,colour,0.5
047,72,0,2,4,7,157,285.307998022894,285.9677105548617,"[16, 0, 238]",238,a,0.13633049960481003,colour,0.5
047,72,0,2,4,8,158,286.47990579209,287.03968744399026,"[2, 0, 252]",252,a,0.03637008111400064,colour,0.5
047,72,0,2,4,9,159,287.55809835510445,288.0958577271522,"[20, 0, 234]",234,a,0.013148147059837356,colour,0.5
047,72,0,2,4,10,160,288.60626293536916,290.06373802955204,"[53, 0, 201]",201,a,0.9340513141651172,colour,0.5
047,72,0,2,4,11,161,290.5752231628576,291.3437596122967,"[23, 0, 231]",231,a,0.24547776445979252,colour,0.5
047,72,0,2,4,12,162,291.8582753887749,292.60768117397674,"[66, 0, 188]",188,l,0.22604974666319322,colour,0.5
047,72,0,2,4,13,163,293.1268573273992,293.86371282341133,"[83, 0, 171]",171,l,0.21509059437084943,colour,0.5
047,72,0,2,4,14,164,294.3759352359921,295.23175893488224,"[6, 0, 248]",248,a,0.3330375551740872,colour,0.5
047,72,0,2,4,15,165,295.75174995519046,296.4880391010083,"[3, 0, 251]",251,a,0.21352742053568363,colour,0.5
047,72,0,2,4,16,166,297.0019861641922,297.6636907680513,"[11, 0, 243]",243,a,0.13870499574113637,colour,0.5
047,72,0,2,4,17,167,298.17408770551265,299.007855647651,"[41, 0, 213]",213,a,0.31073997712519486,colour,0.5
047,72,0,2,4,18,168,299.5182604620204,300.32776711111364,"[75, 0, 179]",179,l,0.2871490095712943,colour,0.5
047,72,0,2,4,19,169,300.8337395852286,302.0557618650928,"[57, 0, 197]",197,a,0.6993105729925446,colour,0.5
047,72,0,2,4,20,170,302.56170440693677,303.70396307301417,"[21, 0, 233]",233,a,0.6193504301772919,colour,0.5
047,72,0,2,4,21,171,304.217994419203,305.4317305779841,"[26, 0, 228]",228,a,0.6904179294360802,colour,0.5
047,72,0,2,4,22,172,305.95287477869715,306.5036865932925,"[38, 0, 216]",216,a,0.02762906817952171,colour,0.5
047,72,0,2,4,23,173,307.01538873561367,309.10365902408375,"[25, 0, 229]",229,a,1.564963874494424,colour,0.5
047,72,0,2,4,24,174,309.62500684306724,310.26370022035553,"[96, 0, 158]",158,l,0.11538263101829216,colour,0.5
047,72,0,2,4,25,175,310.7813021722541,311.8957813210727,"[81, 0, 173]",173,l,0.5914752083917847,colour,0.5
047,72,0,2,4,26,176,312.40643543981423,314.5517011183256,"[63, 0, 191]",191,l,1.6218907353759278,colour,0.5
047,72,0,2,4,27,177,315.06296845492034,315.7197153282759,"[80, 0, 174]",174,l,0.13345542551542167,colour,0.5
047,72,0,2,4,28,178,316.23486440874694,316.83973549318034,"[91, 0, 163]",163,l,0.08145872595196124,colour,0.5
047,72,0,2,4,29,179,317.3461167791975,318.1356652941031,"[99, 0, 155]",155,l,0.26612985487736296,colour,0.5
047,72,0,2,4,30,180,318.6430816068023,319.3436721785256,"[36, 0, 218]",218,a,0.17709786869818345,colour,0.5
047,72,0,2,4,31,181,319.86197202512994,320.6957037334505,"[85, 0, 169]",169,l,0.3104048143723048,colour,0.5
047,72,0,2,4,32,182,321.207683537039,321.7916827651061,"[15, 0, 239]",239,a,0.06068454332125839,colour,0.5
047,72,0,2,4,33,183,322.3028169818426,322.91168284387095,"[79, 0, 175]",175,l,0.0856862663931679,colour,0.5
047,72,0,2,4,34,184,323.42785277256917,324.12767416350835,"[40, 0, 214]",214,a,0.17655357385228854,colour,0.5
047,72,0,2,4,35,185,324.6467506739573,325.43169749493245,"[10, 0, 244]",244,a,0.2616215024027042,colour,0.5
047,72,0,2,4,36,186,325.9440656304505,326.5436784800695,"[8, 0, 246]",246,a,0.07662663224618882,colour,0.5
047,72,0,2,4,37,187,327.05316523995134,329.8876972428843,"[39, 0, 215]",215,a,2.3114095149212517,colour,0.5
047,72,0,2,4,38,188,330.3847959780396,332.99969083107135,"[60, 0, 194]",194,a,2.091654211297282,colour,0.5
047,72,0,2,4,39,189,333.50997709787043,334.1036861994362,"[1, 0, 253]",253,a,0.07033258305455092,colour,0.5
047,72,0,2,4,40,190,334.61942880548304,335.3357149186777,"[61, 0, 193]",193,l,0.1930123884230852,colour,0.5
047,72,0,2,4,41,191,335.8539478114981,336.41563843382755,"[69, 0, 185]",185,a,0.03845431290392298,colour,0.5
047,72,0,2,4,42,192,336.9321805467771,337.65564292366616,"[30, 0, 224]",224,a,0.20012681833759416,colour,0.5
047,72,0,2,4,43,193,338.1666239343904,340.6796710600174,"[28, 0, 226]",226,a,1.9897414993320126,colour,0.5
047,72,0,2,4,44,194,341.1857022171462,341.8397154070408,"[89, 0, 165]",165,l,0.13087849266594276,colour,0.5
047,72,0,2,4,45,195,342.3576564601535,343.0316781964939,"[51, 0, 203]",203,a,0.15070075007679407,colour,0.5
047,72,0,2,4,46,196,343.54527001079987,344.66371282341424,"[42, 0, 212]",212,a,0.6018203551357146,colour,0.5
047,72,0,2,4,47,197,345.1793451526464,345.76766132414923,"[32, 0, 222]",222,a,0.06500581908039749,colour,0.5
047,72,0,2,4,48,198,346.2887933156453,346.84768605766294,"[98, 0, 156]",156,l,0.03549889428541064,colour,0.5
047,72,0,2,4,49,199,347.3669831217412,348.1756457593583,"[37, 0, 217]",217,a,0.28530541755026206,colour,0.5
047,72,0,2,4,50,200,348.69525593082653,350.0076717216725,"[68, 0, 186]",186,a,0.7891306445526425,colour,0.5
047,72,0,2,5,1,201,376.80603096021514,378.10364405794826,"[82, 0, 172]",172,a,0.7734650353668258,colour,0.5
047,72,0,2,5,2,202,378.6195426269114,379.27162754793244,"[17, 0, 237]",237,a,0.12900378683116287,colour,0.5
047,72,0,2,5,3,203,379.7913802915573,380.32765171430947,"[57, 0, 197]",197,a,0.012890965765109286,colour,0.5
047,72,0,2,5,4,204,380.8383613652986,381.63162423962785,"[75, 0, 179]",179,a,0.2698796604236122,colour,0.5
047,72,0,2,5,5,205,382.15106426971033,382.70361806412984,"[62, 0, 192]",192,a,0.029353718797210604,colour,0.5
047,72,0,2,5,6,206,383.21358177124057,383.783592779233,"[93, 0, 161]",161,l,0.04671798477647826,colour,0.5
047,72,0,2,5,7,207,384.29168965740246,384.83159982119105,"[34, 0, 220]",220,a,0.016466691478854045,colour,0.5
047,72,0,2,5,8,208,385.3386829403753,386.0636289342656,"[67, 0, 187]",187,a,0.20074870079406537,colour,0.5
047,72,0,2,5,9,209,386.57401090557687,387.70360427952255,"[76, 0, 178]",178,a,0.606339735299116,colour,0.5
047,72,0,2,5,10,210,388.2147341639502,388.7676294226403,"[25, 0, 229]",229,a,0.029500229415134527,colour,0.5
047,72,0,2,5,11,211,389.2773674561322,389.8396015856124,"[50, 0, 204]",204,a,0.0513440971262753,colour,0.5
047,72,0,2,5,12,212,390.35879349288007,392.6076035863516,"[60, 0, 194]",194,a,1.7254784733668203,colour,0.5
047,72,0,2,5,13,213,393.12459153270174,393.791592574431,"[9, 0, 245]",245,a,0.14353315098560415,colour,0.5
047,72,0,2,5,14,214,394.312177120315,395.583628225344,"[77, 0, 177]",177,l,0.7480355957814027,colour,0.5
047,72,0,2,5,15,215,396.09359193245473,396.7196082022274,"[53, 0, 201]",201,a,0.1025578313274309,colour,0.5
047,72,0,2,5,16,216,397.2342807293171,397.86362145119347,"[95, 0, 159]",159,l,0.10596538489335217,colour,0.5
047,72,0,2,5,17,217,398.3750616860925,399.0316096673341,"[10, 0, 244]",244,a,0.13320100115379319,colour,0.5
047,72,0,2,5,18,218,399.5496263388195,400.3276375358546,"[26, 0, 228]",228,a,0.2545629985834239,colour,0.5
047,72,0,2,5,19,219,400.8466537878994,401.5435756863153,"[90, 0, 164]",164,l,0.1735067830013577,colour,0.5
047,72,0,2,5,20,220,402.0498904124106,402.65560156985885,"[36, 0, 218]",218,a,0.08228225744096562,colour,0.5
047,72,0,2,5,21,221,403.1749915815453,403.8556082652358,"[7, 0, 247]",247,a,0.15722244211065117,colour,0.5
047,72,0,2,5,22,222,404.3625834706763,405.1035845872393,"[84, 0, 170]",170,l,0.21770769949944224,colour,0.5
047,72,0,2,5,23,223,405.6126574152295,406.27164566483407,"[2, 0, 252]",252,a,0.13563851259823423,colour,0.5
047,72,0,2,5,24,224,406.78464237818844,407.4556051144755,"[3, 0, 251]",251,a,0.14763663001940586,colour,0.5
047,72,0,2,5,25,225,407.9722185135033,408.61560889540124,"[89, 0, 165]",165,l,0.12007648484723177,colour,0.5
047,72,0,2,5,26,226,409.1286119102879,409.7915953313495,"[49, 0, 205]",205,a,0.1390972661174601,colour,0.5
047,72,0,2,5,27,227,410.3011179312016,410.91161904086766,"[65, 0, 189]",189,a,0.087119077303214,colour,0.5
047,72,0,2,5,28,228,411.42617853422416,412.0555783329619,"[85, 0, 169]",169,l,0.10598862179904245,colour,0.5
047,72,0,2,5,29,229,412.56674917734927,413.2236764320696,"[96, 0, 158]",158,l,0.14270528718770947,colour,0.5
047,72,0,2,5,30,230,413.745153038617,415.5195759068738,"[55, 0, 199]",199,l,1.2510790389351314,colour,0.5
047,72,0,2,5,31,231,416.02649794313766,416.7275973635842,"[64, 0, 190]",190,a,0.17762247125210706,colour,0.5
047,72,0,2,5,32,232,417.23721527411544,417.9836597329995,"[38, 0, 216]",216,a,0.2232877062924672,colour,0.5
047,72,0,2,5,33,233,418.50293474171485,419.3596162366739,"[59, 0, 195]",195,a,0.33334672408818733,colour,0.5
047,72,0,2,5,34,234,419.8656430615083,420.7435993170657,"[68, 0, 186]",186,a,0.3546061246888712,colour,0.5
047,72,0,2,5,35,235,421.25634633220034,421.9195408546075,"[47, 0, 207]",207,a,0.1397534131683642,colour,0.5
047,72,0,2,5,36,236,422.4283060890448,423.1275977574405,"[0, 0, 254]",254,a,0.17590766680950765,colour,0.5
047,72,0,2,5,37,237,423.6490924808895,424.2955970012554,"[12, 0, 242]",242,a,0.12321543561120052,colour,0.5
047,72,0,2,5,38,238,424.80535118241096,426.11166275774303,"[99, 0, 155]",155,l,0.7828960660699522,colour,0.5
047,72,0,2,5,39,239,426.6180550714489,427.93559164495673,"[40, 0, 214]",214,a,0.798071731129312,colour,0.5
047,72,0,2,5,40,240,428.4432383574167,429.79155122062366,"[35, 0, 219]",219,a,0.8249087754811626,colour,0.5
047,72,0,2,5,41,241,430.3055542099173,430.95155775846797,"[48, 0, 206]",206,a,0.12261245773697738,colour,0.5
047,72,0,2,5,42,242,431.46332173456904,432.0315344427945,"[46, 0, 208]",208,a,0.04969348953454755,colour,0.5
047,72,0,2,5,43,243,432.5521457701834,433.20760319250985,"[30, 0, 224]",224,a,0.13212540837412234,colour,0.5
047,72,0,2,5,44,244,433.72416224081826,435.759590636706,"[33, 0, 221]",221,a,1.5120518773619551,colour,0.5
047,72,0,2,5,45,245,436.27318323870713,436.91952982691873,"[16, 0, 238]",238,a,0.12306380498921499,colour,0.5
047,72,0,2,5,46,246,437.4294777801988,437.9675912195962,"[32, 0, 222]",222,a,0.014702656291774474,colour,0.5
047,72,0,2,5,47,247,438.4764352232014,439.5755394209991,"[44, 0, 210]",210,a,0.5805960067955311,colour,0.5
047,72,0,2,5,48,248,440.09663320946856,441.8955355613143,"[29, 0, 225]",225,a,1.2754722703102743,colour,0.5
047,72,0,2,5,49,249,442.4094582060643,443.2076386386325,"[94, 0, 160]",160,l,0.2749169477756368,colour,0.5
047,72,0,2,5,50,250,443.721942132237,444.35154870001134,"[79, 0, 175]",175,l,0.10628636919136625,colour,0.5
047,72,0,2,6,1,251,459.03691752672603,460.68765116292343,"[6, 0, 248]",248,a,1.1265379184915219,colour,0.5
047,72,0,2,6,2,252,461.1816928672488,461.85554879452684,"[2, 0, 252]",252,a,0.15058299018710386,colour,0.5
047,72,0,2,6,3,253,462.3693241409637,463.07156098799896,"[52, 0, 202]",202,a,0.17904622371133883,colour,0.5
047,72,0,2,6,4,254,463.5760313343635,465.66352417129383,"[41, 0, 213]",213,a,1.5643908289057435,colour,0.5
047,72,0,2,6,5,255,466.16996650341025,466.74352054791234,"[97, 0, 157]",157,l,0.05047015337913763,colour,0.5
047,72,0,2,6,6,256,467.26376993105805,467.89557809664984,"[55, 0, 199]",199,a,0.10848954239918385,colour,0.5
047,72,0,2,6,7,257,468.4044898417342,469.17553469484847,"[44, 0, 210]",210,a,0.24768251304340083,colour,0.5
047,72,0,2,6,8,258,469.68589658003475,470.21554194160854,"[16, 0, 238]",238,a,0.006510270512080751,colour,0.5
047,72,0,2,6,9,259,470.7371772680053,471.88753537226876,"[66, 0, 188]",188,a,0.6270552349014906,colour,0.5
047,72,0,2,6,10,260,472.393474369499,474.35957803364727,"[31, 0, 223]",223,a,1.4430311945616268,colour,0.5
047,72,0,2,6,11,261,474.87814845227695,476.27154168955167,"[24, 0, 230]",230,a,0.8700486202578759,colour,0.5
047,72,0,2,6,12,262,476.786485970224,477.3755311502464,"[22, 0, 232]",232,a,0.06586991668154951,colour,0.5
047,72,0,2,6,13,263,477.8959660347318,478.5915295591112,"[73, 0, 181]",181,l,0.17231027958041523,colour,0.5
047,72,0,2,6,14,264,479.0991561854462,479.73554044500634,"[11, 0, 243]",243,a,0.11306091022561304,colour,0.5
047,72,0,2,6,15,265,480.25547317614837,481.00749685414485,"[90, 0, 164]",164,l,0.22871056864096317,colour,0.5
047,72,0,2,6,16,266,481.52123084678897,482.175509882567,"[57, 0, 197]",197,a,0.130924178782152,colour,0.5
047,72,0,2,6,17,267,482.6930885975744,483.30349321501853,"[30, 0, 224]",224,a,0.08755073226348031,colour,0.5
047,72,0,2,6,18,268,483.81824923741806,484.375551630219,"[26, 0, 228]",228,a,0.034001886524492875,colour,0.5
047,72,0,2,6,19,269,484.8964508588688,485.45559251141094,"[88, 0, 166]",166,l,0.0358080631995108,colour,0.5
047,72,0,2,6,20,270,485.97467099108326,486.54350124947086,"[87, 0, 167]",167,a,0.04605947465461213,colour,0.5
047,72,0,2,6,21,271,487.05290884636634,489.54352645559993,"[67, 0, 187]",187,a,1.967406505937106,colour,0.5
047,72,0,2,6,22,272,490.0530947415682,491.08752985842875,"[65, 0, 189]",189,a,0.5112051089672605,colour,0.5
047,72,0,2,6,23,273,491.6001067321922,492.32749181293184,"[76, 0, 178]",178,l,0.20407945444458164,colour,0.5
047,72,0,2,6,24,274,492.8345709936548,493.63149190745025,"[70, 0, 184]",184,l,0.27357353987463284,colour,0.5
047,72,0,2,6,25,275,494.1386270142684,494.7594823291147,"[5, 0, 249]",249,a,0.09746776864631101,colour,0.5
047,72,0,2,6,26,276,495.27929454346304,495.9195247069292,"[39, 0, 215]",215,a,0.11695919561316259,colour,0.5
047,72,0,2,6,27,277,496.43574465402344,497.03947791804967,"[80, 0, 174]",174,l,0.08049065305385739,colour,0.5
047,72,0,2,6,28,278,497.5465078680427,498.3835281885258,"[61, 0, 193]",193,a,0.3136272604315309,colour,0.5
047,72,0,2,6,29,279,498.8903647602565,499.82349841378164,"[78, 0, 176]",176,l,0.4097023904469097,colour,0.5
047,72,0,2,6,30,280,500.3436568185425,500.90352826728486,"[59, 0, 195]",195,a,0.0342515847296454,colour,0.5
047,72,0,2,6,31,281,501.42425617303525,502.12745991142583,"[49, 0, 205]",205,a,0.1799339520657668,colour,0.5
047,72,0,2,6,32,282,502.64298078228603,503.1995029666432,"[93, 0, 161]",161,l,0.03312006585474592,colour,0.5
047,72,0,2,6,33,283,503.70561407446803,504.3034853380959,"[91, 0, 163]",163,l,0.07507606146100443,colour,0.5
047,72,0,2,6,34,284,504.8174300382234,505.4315226274193,"[23, 0, 231]",231,a,0.0930980498669669,colour,0.5
047,72,0,2,6,35,285,505.9401760096662,506.53549987888255,"[36, 0, 218]",218,a,0.07199855064391159,colour,0.5
047,72,0,2,6,36,286,507.0496604064829,508.04749464862107,"[71, 0, 183]",183,l,0.47451128663669806,colour,0.5
047,72,0,2,6,37,287,508.56539356021676,509.23945743807417,"[69, 0, 185]",185,l,0.15073304543329868,colour,0.5
047,72,0,2,6,38,288,509.75305082775594,510.42350510915276,"[19, 0, 235]",235,a,0.1472085196583066,colour,0.5
047,72,0,2,6,39,289,510.9405525262264,511.70345895043283,"[84, 0, 170]",170,l,0.23951021340326406,colour,0.5
047,72,0,2,6,40,290,512.2219301199366,512.9834604470525,"[81, 0, 173]",173,l,0.23819988853938412,colour,0.5
047,72,0,2,6,41,291,513.503268722925,514.071474341923,"[38, 0, 216]",216,a,0.045065801779855974,colour,0.5
047,72,0,2,6,42,292,514.581443956733,515.1995041481714,"[99, 0, 155]",155,l,0.09499284185585566,colour,0.5
047,72,0,2,6,43,293,515.7065455197007,516.3755610825174,"[42, 0, 212]",212,a,0.14608369616325945,colour,0.5
047,72,0,2,6,44,294,516.8941582826665,517.583476594722,"[47, 0, 207]",207,a,0.16603552881861106,colour,0.5
047,72,0,2,6,45,295,518.0973953010252,518.7274890560075,"[25, 0, 229]",229,a,0.10672550722665619,colour,0.5
047,72,0,2,6,46,296,519.2381179686199,519.8156045630894,"[9, 0, 245]",245,a,0.054115983642986976,colour,0.5
047,72,0,2,6,47,297,520.3318847686023,521.2394976103387,"[53, 0, 201]",201,a,0.38418315403396264,colour,0.5
047,72,0,2,6,48,298,521.7539385561104,522.4314970274427,"[35, 0, 219]",219,a,0.1543312203430105,colour,0.5
047,72,0,2,6,49,299,522.9415253252664,523.559499264491,"[37, 0, 217]",217,a,0.09464113759167958,colour,0.5
047,72,0,2,6,50,300,524.0665989251866,524.9114796194626,"[46, 0, 208]",208,a,0.32186021232337225,colour,0.5
047,72,0,2,7,1,301,541.7422964752768,542.4074507741898,"[66, 0, 188]",188,a,0.14099166424421128,colour,0.5
047,72,0,2,7,2,302,542.9152022496419,543.9274677883368,"[84, 0, 170]",170,l,0.48901583850965835,colour,0.5
047,72,0,2,7,3,303,544.4465037326736,546.839457831913,"[79, 0, 175]",175,l,1.8697658390010474,colour,0.5
047,72,0,2,7,4,304,547.3529665447713,547.9194624792872,"[52, 0, 202]",202,a,0.04338604958320502,colour,0.5
047,72,0,2,7,5,305,548.4311721046834,549.0634347683081,"[30, 0, 224]",224,a,0.10891332045139279,colour,0.5
047,72,0,2,7,6,306,549.5718774430716,551.8634560359787,"[10, 0, 244]",244,a,1.7685309356020298,colour,0.5
047,72,0,2,7,7,307,552.3846778243169,553.1755311502347,"[47, 0, 207]",207,a,0.2676390718552284,colour,0.5
047,72,0,2,7,8,308,553.6971483597299,554.3034664334991,"[51, 0, 203]",203,a,0.08291831835231278,colour,0.5
047,72,0,2,7,9,309,554.8223082118784,556.079473743288,"[13, 0, 241]",241,a,0.7338382436137181,colour,0.5
047,72,0,2,7,10,310,556.5755673840467,558.503447922747,"[48, 0, 206]",206,a,1.4049281920597423,colour,0.5
047,72,0,2,7,11,311,559.0132702392293,561.0794934355654,"[55, 0, 199]",199,a,1.5429144192748936,colour,0.5
047,72,0,2,7,12,312,561.5915846975113,563.8874759015598,"[0, 0, 254]",254,a,1.7724926301598316,colour,0.5
047,72,0,2,7,13,313,564.404309854217,565.6394401088473,"[39, 0, 215]",215,a,0.7119199390290305,colour,0.5
047,72,0,2,7,14,314,566.154500574019,566.7995017851063,"[87, 0, 167]",167,l,0.12167746789054945,colour,0.5
047,72,0,2,7,15,315,567.3108073247422,568.0394696472795,"[72, 0, 182]",182,l,0.20531573629705235,colour,0.5
047,72,0,2,7,16,316,568.5608682723687,570.6634520975203,"[77, 0, 177]",177,l,1.5764381770422915,colour,0.5
047,72,0,2,7,17,317,571.1751187937189,571.7434083018743,"[4, 0, 250]",250,a,0.04499057724024169,colour,0.5
047,72,0,2,7,18,318,572.2533085998148,572.8714830065292,"[75, 0, 179]",179,l,0.09507554945594165,colour,0.5
047,72,0,2,7,19,319,573.3784337935358,573.9194569654501,"[85, 0, 169]",169,l,0.020733222656417638,colour,0.5
047,72,0,2,7,20,320,574.4379702764563,576.5194317593268,"[61, 0, 193]",193,l,1.5581783058005385,colour,0.5
047,72,0,2,7,21,321,577.031870393228,578.615411578663,"[58, 0, 196]",196,a,1.0584081147972029,colour,0.5
047,72,0,2,7,22,322,579.1274886621541,579.8394338073267,"[88, 0, 166]",166,l,0.1886324296647217,colour,0.5
047,72,0,2,7,23,323,580.3366463639104,581.5514321216615,"[60, 0, 194]",194,a,0.6916238851699745,colour,0.5
047,72,0,2,7,24,324,582.071103733062,582.7434358710743,"[23, 0, 231]",231,a,0.1489154472219525,colour,0.5
047,72,0,2,7,25,325,583.2587787236553,583.8234444569098,"[97, 0, 157]",157,l,0.04122974401980173,colour,0.5
047,72,0,2,7,26,326,584.3370563573553,585.4554105546704,"[27, 0, 227]",227,a,0.5952750323485816,colour,0.5
047,72,0,2,7,27,327,585.9620970711549,586.7033797874319,"[86, 0, 168]",168,l,0.21798457305703778,colour,0.5
047,72,0,2,7,28,328,587.2121824372298,587.791431097663,"[32, 0, 222]",222,a,0.055840634246123955,colour,0.5
047,72,0,2,7,29,329,588.3059909848671,588.8793898541335,"[8, 0, 246]",246,a,0.05008812299638521,colour,0.5
047,72,0,2,7,30,330,589.3998617601319,591.5274335237482,"[65, 0, 189]",189,a,1.6041298666968942,colour,0.5
047,72,0,2,7,31,331,592.0407543721813,593.0874168246955,"[73, 0, 181]",181,l,0.523309564741794,colour,0.5
047,72,0,2,7,32,332,593.608776852896,594.3594141938083,"[89, 0, 165]",165,l,0.227112342545297,colour,0.5
047,72,0,2,7,33,333,594.874601477306,596.4954126814409,"[25, 0, 229]",229,a,1.0974839163245633,colour,0.5
047,72,0,2,7,34,334,597.0025304590381,597.6713896650908,"[14, 0, 240]",240,a,0.15882696976768784,colour,0.5
047,72,0,2,7,35,335,598.1924751827901,598.7594118307316,"[18, 0, 236]",236,a,0.043538467900361866,colour,0.5
047,72,0,2,7,36,336,599.2595104890934,601.7354053559102,"[37, 0, 217]",217,a,1.9526735235267552,colour,0.5
047,72,0,2,7,37,337,602.2372385110211,602.7913846238662,"[36, 0, 218]",218,a,0.031008264850242995,colour,0.5
047,72,0,2,7,38,338,603.2997658586828,604.9914169192198,"[29, 0, 225]",225,a,1.1682662712555612,colour,0.5
047,72,0,2,7,39,339,605.5031340276764,607.1594000153564,"[67, 0, 187]",187,l,1.1338075236417353,colour,0.5
047,72,0,2,7,40,340,607.6751709782839,608.3513982509321,"[1, 0, 253]",253,a,0.15283342491602525,colour,0.5
047,72,0,2,7,41,341,608.862728209002,609.4474131225434,"[94, 0, 160]",160,l,0.06193618517136201,colour,0.5
047,72,0,2,7,42,342,609.9565607812256,610.5834155486373,"[33, 0, 221]",221,a,0.10348533811338712,colour,0.5
047,72,0,2,7,43,343,611.0972602119291,611.7833828594303,"[2, 0, 252]",252,a,0.16274967360368464,colour,0.5
047,72,0,2,7,44,344,612.3005417348468,612.8554192192678,"[74, 0, 180]",180,l,0.03157619043486193,colour,0.5
047,72,0,2,7,45,345,613.3630411194608,613.9354116574395,"[41, 0, 213]",213,a,0.04889083186571952,colour,0.5
047,72,0,2,7,46,346,614.4569174085627,615.335425442041,"[3, 0, 251]",251,a,0.355144511864637,colour,0.5
047,72,0,2,7,47,347,615.8476277684822,616.5993978098122,"[19, 0, 235]",235,a,0.22839864280831534,colour,0.5
047,72,0,2,7,48,348,617.1133783498954,618.0873928000947,"[53, 0, 201]",201,a,0.4506005163275404,colour,0.5
047,72,0,2,7,49,349,618.5978263652069,620.8314245598158,"[22, 0, 232]",232,a,1.710193713035551,colour,0.5
047,72,0,2,7,50,350,621.3480092081154,622.0473989440943,"[78, 0, 176]",176,l,0.17593996215146035,colour,0.5
047,72,0,2,8,1,351,628.1134421529132,629.3513364171376,"[84, 0, 170]",170,a,0.7230445065360982,colour,0.5
047,72,0,2,8,2,352,629.8706374196772,630.5193868609058,"[19, 0, 235]",235,a,0.1242437668988714,colour,0.5
047,72,0,2,8,3,353,631.0270233333868,631.5833966440405,"[18, 0, 236]",236,a,0.03285500765196048,colour,0.5
047,72,0,2,8,4,354,632.1052474040625,632.9353573067201,"[52, 0, 202]",202,a,0.30674638104392216,colour,0.5
047,72,0,2,8,5,355,633.4518198628211,634.4393735489139,"[53, 0, 201]",201,a,0.4641712598822778,colour,0.5
047,72,0,2,8,6,356,634.9520488841372,635.5033451290074,"[32, 0, 222]",222,a,0.028009917034069076,colour,0.5
047,72,0,2,8,7,357,636.0022843054321,636.535352974417,"[70, 0, 184]",184,a,0.00982527033193037,colour,0.5
047,72,0,2,8,8,358,637.0492894037743,637.7753740057815,"[50, 0, 204]",204,a,0.20286956024938263,colour,0.5
047,72,0,2,8,9,359,638.2837367298489,639.9593590553995,"[58, 0, 196]",196,a,1.1523513576830737,colour,0.5
047,72,0,2,8,10,360,640.471388483551,641.0953709337773,"[79, 0, 175]",175,l,0.1006524055119371,colour,0.5
047,72,0,2,8,11,361,641.6121237542102,643.5033959351131,"[94, 0, 160]",160,l,1.368057139145094,colour,0.5
047,72,0,2,8,12,362,644.0167230850639,644.6073704296577,"[15, 0, 239]",239,a,0.06710738007677719,colour,0.5
047,72,0,2,8,13,363,645.1263358755969,645.6713652466569,"[0, 0, 254]",254,a,0.021668606364983134,colour,0.5
047,72,0,2,8,14,364,646.188877795561,648.2553597485676,"[1, 0, 253]",253,a,1.5434760433563497,colour,0.5
047,72,0,2,8,15,365,648.7672300630365,650.479378432603,"[2, 0, 252]",252,a,1.1887864233431173,colour,0.5
047,72,0,2,8,16,366,650.9861169367359,651.6713813943206,"[60, 0, 194]",194,a,0.16201672662282363,colour,0.5
047,72,0,2,8,17,367,652.1894457211602,652.7193376301875,"[73, 0, 181]",181,l,0.006642996537266299,colour,0.5
047,72,0,2,8,18,368,653.2362649242859,653.8873230893951,"[26, 0, 228]",228,a,0.12763674816233106,colour,0.5
047,72,0,2,8,19,369,654.4083085702732,656.2313544552744,"[87, 0, 167]",167,a,1.2996421911229845,colour,0.5
047,72,0,2,8,20,370,656.7528956525348,658.0873443570745,"[24, 0, 230]",230,a,0.811173010544735,colour,0.5
047,72,0,2,8,21,371,658.5872649971425,661.6793358972645,"[97, 0, 157]",157,a,2.569311537910835,colour,0.5
047,72,0,2,8,22,372,662.1968697138509,662.8153528956464,"[34, 0, 220]",220,a,0.09507121716160327,colour,0.5
047,72,0,2,8,23,373,663.321896052279,664.9273614499834,"[72, 0, 182]",182,l,1.0820790330326417,colour,0.5
047,72,0,2,8,24,374,665.4471244336019,667.4553321793646,"[78, 0, 176]",176,l,1.4848347718652803,colour,0.5
047,72,0,2,8,25,375,667.9629237534245,668.7433188988798,"[12, 0, 242]",242,a,0.25695443007862195,colour,0.5
047,72,0,2,8,26,376,669.2598751902697,671.9113067211729,"[76, 0, 178]",178,l,2.128055800072616,colour,0.5
047,72,0,2,8,27,377,672.4320247807773,673.0633205530321,"[33, 0, 221]",221,a,0.10793815834040288,colour,0.5
047,72,0,2,8,28,378,673.5727470545244,674.3033333136409,"[42, 0, 212]",212,a,0.20752166645252146,colour,0.5
047,72,0,2,8,29,379,674.8228643220937,675.5033754551259,"[90, 0, 164]",164,l,0.15718502676463686,colour,0.5
047,72,0,2,8,30,380,676.011684222336,676.7113138103887,"[7, 0, 247]",247,a,0.17627158027607948,colour,0.5
047,72,0,2,8,31,381,677.2305297422427,678.0552994901664,"[83, 0, 171]",171,l,0.3013743248011451,colour,0.5
047,72,0,2,8,32,382,678.5749651938822,679.3513277525344,"[74, 0, 180]",180,l,0.2532566121808486,colour,0.5
047,72,0,2,8,33,383,679.8719516830024,680.5193289655726,"[47, 0, 207]",207,a,0.12404526863247156,colour,0.5
047,72,0,2,8,34,384,681.0283171167248,681.8313119199302,"[10, 0, 244]",244,a,0.2796163154562237,colour,0.5
047,72,0,2,8,35,385,682.3425178165926,682.9753617965616,"[55, 0, 199]",199,a,0.11014211924339179,colour,0.5
047,72,0,2,8,36,386,683.4825028110645,684.199320616055,"[9, 0, 245]",245,a,0.1935236002318561,colour,0.5
047,72,0,2,8,37,387,684.7169753432827,685.4313375199126,"[27, 0, 227]",227,a,0.1910045627009822,colour,0.5
047,72,0,2,8,38,388,685.9376569721499,686.6313138891564,"[36, 0, 218]",218,a,0.17033120458654594,colour,0.5
047,72,0,2,8,39,389,687.1409093504772,687.7832966072165,"[14, 0, 240]",240,a,0.11895402442314662,colour,0.5
047,72,0,2,8,40,390,688.2971999535221,688.9033648212935,"[35, 0, 219]",219,a,0.08574967556342017,colour,0.5
047,72,0,2,8,41,391,689.4194859131094,691.2633457591583,"[82, 0, 172]",172,l,1.3206928534636972,colour,0.5
047,72,0,2,8,42,392,691.7790229867969,692.4554369423277,"[80, 0, 174]",174,l,0.15369161481794436,colour,0.5
047,72,0,2,8,43,393,692.9665766729013,693.6152961818589,"[96, 0, 158]",158,l,0.12538670731009915,colour,0.5
047,72,0,2,8,44,394,694.1229397435673,694.7913413008209,"[25, 0, 229]",229,a,0.1451624909095699,colour,0.5
047,72,0,2,8,45,395,695.3105399034685,696.6713424035988,"[3, 0, 251]",251,a,0.8375185353652341,colour,0.5
047,72,0,2,8,46,396,697.1857234848139,699.4392813890154,"[63, 0, 191]",191,l,1.7303436501242686,colour,0.5
047,72,0,2,8,47,397,699.9515077400429,701.10331480288,"[61, 0, 193]",193,l,0.6284136089379899,colour,0.5
047,72,0,2,8,48,398,701.6235484321951,702.1753389535006,"[39, 0, 215]",215,a,0.028473867336288095,colour,0.5
047,72,0,2,8,49,399,702.6860872013785,704.6312855322612,"[67, 0, 187]",187,a,1.4219899844902102,colour,0.5
047,72,0,2,8,50,400,705.1395206503075,705.8633004668955,"[6, 0, 248]",248,a,0.20061124862695578,colour,0.5
047,72,0,2,9,1,401,711.5610124199156,712.7993521237076,"[22, 0, 232]",232,a,0.7142723797878716,colour,0.5
047,72,0,2,9,2,402,713.3119589297567,713.8394917026453,"[36, 0, 218]",218,a,0.0043783833825727925,colour,0.5
047,72,0,2,9,3,403,714.3589407911932,716.6313154645468,"[11, 0, 243]",243,a,1.7490395086351782,colour,0.5
047,72,0,2,9,4,404,717.140338667974,717.7433110219717,"[96, 0, 158]",158,l,0.07958756471634842,colour,0.5
047,72,0,2,9,5,405,718.249817550939,718.975390941152,"[48, 0, 206]",206,a,0.21477354853414,colour,0.5
047,72,0,2,9,6,406,719.475082756835,720.0552616809728,"[9, 0, 245]",245,a,0.05678822717163712,colour,0.5
047,72,0,2,9,7,407,720.568849950665,723.1352879898623,"[44, 0, 210]",210,a,2.043370689600124,colour,0.5
047,72,0,2,9,8,408,723.6472457380878,724.2632831376832,"[87, 0, 167]",167,l,0.09240369978942908,colour,0.5
047,72,0,2,9,9,409,724.7733256139472,725.3912656824396,"[93, 0, 161]",161,l,0.09456866995606106,colour,0.5
047,72,0,2,9,10,410,725.8983976384916,726.591277103973,"[53, 0, 201]",201,a,0.1695789591904031,colour,0.5
047,72,0,2,9,11,411,727.1016460783721,727.9432487943413,"[10, 0, 244]",244,a,0.31828921276610345,colour,0.5
047,72,0,2,9,12,412,728.4611240751983,729.1832792779896,"[82, 0, 172]",172,l,0.19883303498500027,colour,0.5
047,72,0,2,9,13,413,729.6871816987696,731.607289691281,"[99, 0, 155]",155,l,1.3969827475957572,colour,0.5
047,72,0,2,9,14,414,732.1228109560034,732.8152823972487,"[25, 0, 229]",229,a,0.16911107041232754,colour,0.5
047,72,0,2,9,15,415,733.3273571176687,734.0872281725751,"[71, 0, 183]",183,l,0.2365941793541424,colour,0.5
047,72,0,2,9,16,416,734.6087429821491,735.2232502909465,"[55, 0, 199]",199,a,0.09122137479425874,colour,0.5
047,72,0,2,9,17,417,735.7337382067781,737.0952984661562,"[4, 0, 250]",250,a,0.8475950792781077,colour,0.5
047,72,0,2,9,18,418,737.6153682556323,738.3112819088856,"[32, 0, 222]",222,a,0.17252768242906313,colour,0.5
047,72,0,2,9,19,419,738.8186781354452,739.5672312445677,"[94, 0, 160]",160,l,0.22530695355089847,colour,0.5
047,72,0,2,9,20,420,740.0842881139251,740.7433291388734,"[95, 0, 159]",159,l,0.1359827338019386,colour,0.5
047,72,0,2,9,21,421,741.2562691384373,742.2872785848303,"[69, 0, 185]",185,l,0.5076451370841824,colour,0.5
047,72,0,2,9,22,422,742.8033169690316,743.8632488731091,"[64, 0, 190]",190,l,0.5367790899472311,colour,0.5
047,72,0,2,9,23,423,744.3815195751085,745.3592980092944,"[77, 0, 177]",177,l,0.4545433062885422,colour,0.5
047,72,0,2,9,24,424,745.8659648335015,747.8632819561462,"[89, 0, 165]",165,l,1.4739075210673036,colour,0.5
047,72,0,2,9,25,425,748.3741400869912,748.943276757389,"[8, 0, 246]",246,a,0.04578260108246468,colour,0.5
047,72,0,2,9,26,426,749.4523283176968,750.2632614761678,"[78, 0, 176]",176,l,0.28768700289947446,colour,0.5
047,72,0,2,9,27,427,750.7806220006169,751.3352998052433,"[51, 0, 203]",203,a,0.031341852227342315,colour,0.5
047,72,0,2,9,28,428,751.8430831821897,752.5752684551117,"[27, 0, 227]",227,a,0.20868863143550698,colour,0.5
047,72,0,2,9,29,429,753.0946757960046,753.7752641228144,"[47, 0, 207]",207,a,0.15735319891246036,colour,0.5
047,72,0,2,9,30,430,754.2821771006275,754.9992457853514,"[23, 0, 231]",231,a,0.19366932315460872,colour,0.5
047,72,0,2,9,31,431,755.5173053860344,756.1272338439449,"[46, 0, 208]",208,a,0.0865216132660862,colour,0.5
047,72,0,2,9,32,432,756.642403404403,757.2152564034332,"[18, 0, 236]",236,a,0.04951940970204305,colour,0.5
047,72,0,2,9,33,433,757.7362615766033,758.2952523862041,"[20, 0, 234]",234,a,0.035842721626977436,colour,0.5
047,72,0,2,9,34,434,758.8330566566729,759.3752369474532,"[84, 0, 170]",170,l,0.02135786204598844,colour,0.5
047,72,0,2,9,35,435,759.8930712683505,761.9352210360812,"[85, 0, 169]",169,l,1.517589348834008,colour,0.5
047,72,0,2,9,36,436,762.4414050053747,763.311261428913,"[7, 0, 247]",247,a,0.3444586885452736,colour,0.5
047,72,0,2,9,37,437,763.8185402894305,764.4072219498048,"[37, 0, 217]",217,a,0.06539139407686889,colour,0.5
047,72,0,2,9,38,438,764.9280053878028,765.5992564191838,"[88, 0, 166]",166,l,0.1480296880909009,colour,0.5
047,72,0,2,9,39,439,766.1156433568976,767.2952539615944,"[67, 0, 187]",187,l,0.6688170645502396,colour,0.5
047,72,0,2,9,40,440,767.8063578521978,769.7192671317898,"[80, 0, 174]",174,l,1.389619800989749,colour,0.5
047,72,0,2,9,41,441,770.2284967103915,770.8792169558437,"[1, 0, 253]",253,a,0.12737996072974056,colour,0.5
047,72,0,2,9,42,442,771.4006100670813,772.127209425511,"[15, 0, 239]",239,a,0.20325986140233,colour,0.5
047,72,0,2,9,43,443,772.635003042451,773.3352379714488,"[91, 0, 163]",163,l,0.17686431815673131,colour,0.5
047,72,0,2,9,44,444,773.8539040946052,774.6472823657532,"[35, 0, 219]",219,a,0.27002459568029735,colour,0.5
047,72,0,2,9,45,445,775.166529805254,775.8392203429103,"[61, 0, 193]",193,a,0.14932425912411418,colour,0.5
047,72,0,2,9,46,446,776.3540862482769,777.3592302678298,"[54, 0, 200]",200,a,0.4819159808830591,colour,0.5
047,72,0,2,9,47,447,777.8698489404487,778.4472390427109,"[0, 0, 254]",254,a,0.05412819285993464,colour,0.5
047,72,0,2,9,48,448,778.9636905711232,780.7912329932442,"[29, 0, 225]",225,a,1.3042600327316904,colour,0.5
047,72,0,2,9,49,449,781.3075730633136,782.3431641174975,"[70, 0, 184]",184,l,0.5121885418484453,colour,0.5
047,72,0,2,9,50,450,782.8546374354337,784.0152638865111,"[45, 0, 209]",209,a,0.637283015603316,colour,0.5
047,72,0,2,10,1,451,793.5108853061975,796.5752097720979,"[60, 0, 194]",194,a,2.5401886127365287,colour,0.5
047,72,0,2,10,2,452,797.090098520508,797.8231935771619,"[64, 0, 190]",190,a,0.209769738081377,colour,0.5
047,72,0,2,10,3,453,798.3401712835184,798.9031946799223,"[98, 0, 156]",156,l,0.03969729013624601,colour,0.5
047,72,0,2,10,4,454,799.4192586641147,800.1352253683872,"[10, 0, 244]",244,a,0.1934519202914089,colour,0.5
047,72,0,2,10,5,455,800.6528623725608,801.2152036281041,"[1, 0, 253]",253,a,0.03911715533467941,colour,0.5
047,72,0,2,10,6,456,801.7316933595575,802.3832253211294,"[81, 0, 173]",173,l,0.12661196148837917,colour,0.5
047,72,0,2,10,7,457,802.8917711834802,803.7111944751232,"[53, 0, 201]",201,a,0.2960125085373875,colour,0.5
047,72,0,2,10,8,458,804.2199888541654,806.3671642907866,"[80, 0, 174]",174,l,1.6223259349353611,colour,0.5
047,72,0,2,10,9,459,806.8764104109141,807.4871718526265,"[29, 0, 225]",225,a,0.08729945865343325,colour,0.5
047,72,0,2,10,10,460,808.0033866797312,809.8311910092889,"[42, 0, 212]",212,a,1.3045837739482522,colour,0.5
047,72,0,2,10,11,461,810.3492805422429,812.6552037856454,"[85, 0, 169]",169,l,1.7826786632067524,colour,0.5
047,72,0,2,10,12,462,813.1619753728155,813.775190079803,"[27, 0, 227]",227,a,0.08986536381416954,colour,0.5
047,72,0,2,10,13,463,814.2870816619397,814.8871982402925,"[51, 0, 203]",203,a,0.07706183182017412,colour,0.5
047,72,0,2,10,14,464,815.3964557819418,817.3192088426149,"[49, 0, 205]",205,a,1.3993099822109798,colour,0.5
047,72,0,2,10,15,465,817.834305935452,818.4551907887362,"[86, 0, 168]",168,l,0.09761939926829655,colour,0.5
047,72,0,2,10,16,466,818.9749332923675,819.783177665784,"[33, 0, 221]",221,a,0.28484973798913416,colour,0.5
047,72,0,2,10,17,467,820.3031482061197,821.0791799343424,"[52, 0, 202]",202,a,0.2529222371231299,colour,0.5
047,72,0,2,10,18,468,821.6001090952777,822.167191466142,"[16, 0, 238]",238,a,0.04366292315535247,colour,0.5
047,72,0,2,10,19,469,822.6782925998268,823.207183352919,"[41, 0, 213]",213,a,0.005482333057443611,colour,0.5
047,72,0,2,10,20,470,823.7261460419395,825.9592231786082,"[22, 0, 232]",232,a,1.709602156697656,colour,0.5
047,72,0,2,10,21,471,826.4764568847168,827.5191844241781,"[57, 0, 197]",197,a,0.5193435378751019,colour,0.5
047,72,0,2,10,22,472,828.0390868292016,828.7111428813369,"[17, 0, 237]",237,a,0.14917184082150925,colour,0.5
047,72,0,2,10,23,473,829.2268988781288,829.8152241080825,"[79, 0, 175]",175,l,0.0651361820200691,colour,0.5
047,72,0,2,10,24,474,830.3362080135703,831.1192675256461,"[6, 0, 248]",248,a,0.25978421191393863,colour,0.5
047,72,0,2,10,25,475,831.6332181334437,832.591229842481,"[63, 0, 191]",191,l,0.43468166432285216,colour,0.5
047,72,0,2,10,26,476,833.1020678871864,833.7031525384227,"[5, 0, 249]",249,a,0.07782352951471694,colour,0.5
047,72,0,2,10,27,477,834.2114817856054,834.8871620064747,"[38, 0, 216]",216,a,0.15265264968911652,colour,0.5
047,72,0,2,10,28,478,835.3990594963107,836.2951732232032,"[59, 0, 195]",195,a,0.37279667909024283,colour,0.5
047,72,0,2,10,29,479,836.8054425546288,837.4951712539769,"[4, 0, 250]",250,a,0.1664455222635297,colour,0.5
047,72,0,2,10,30,480,838.0088091482467,838.7431716005667,"[21, 0, 233]",233,a,0.21108990907669067,colour,0.5
047,72,0,2,10,31,481,839.2588145636255,840.0871533418685,"[31, 0, 223]",223,a,0.3049925858504139,colour,0.5
047,72,0,2,10,32,482,840.6220805690245,841.2151595173782,"[94, 0, 160]",160,l,0.07349752762820572,colour,0.5
047,72,0,2,10,33,483,841.72771827424,842.4791964758624,"[0, 0, 254]",254,a,0.22810522771032993,colour,0.5
047,72,0,2,10,34,484,842.9934582218266,843.631182344674,"[72, 0, 182]",182,l,0.11432476127811242,colour,0.5
047,72,0,2,10,35,485,844.1497929355828,844.7591684340441,"[3, 0, 251]",251,a,0.0863758903433336,colour,0.5
047,72,0,2,10,36,486,845.2749019816256,845.8551880318118,"[97, 0, 157]",157,l,0.05693828240328003,colour,0.5
047,72,0,2,10,37,487,846.3574634757242,847.0391750506533,"[78, 0, 176]",176,l,0.15861271767062135,colour,0.5
047,72,0,2,10,38,488,847.5479115343624,850.079190174336,"[89, 0, 165]",165,l,2.006362184503814,colour,0.5
047,72,0,2,10,39,489,850.5965648772253,851.2791456697596,"[36, 0, 218]",218,a,0.15927240933524445,colour,0.5
047,72,0,2,10,40,490,851.7997361233283,852.4791775712656,"[61, 0, 193]",193,a,0.15605508326552808,colour,0.5
047,72,0,2,10,41,491,852.9884201467794,853.7111763582216,"[77, 0, 177]",177,l,0.19942892364633735,colour,0.5
047,72,0,2,10,42,492,854.2228729867056,854.8551549487602,"[75, 0, 179]",179,l,0.10902202187571675,colour,0.5
047,72,0,2,10,43,493,855.3636086512124,856.1112401612336,"[95, 0, 159]",159,l,0.22431012991000898,colour,0.5
047,72,0,2,10,44,494,856.6293745926087,859.3831741211761,"[69, 0, 185]",185,a,2.2305742468161043,colour,0.5
047,72,0,2,10,45,495,859.882795438476,860.5511446142482,"[32, 0, 222]",222,a,0.14493996805686038,colour,0.5
047,72,0,2,10,46,496,861.0703731491667,861.8071593283239,"[15, 0, 239]",239,a,0.21372946340125054,colour,0.5
047,72,0,2,10,47,497,862.3204356721835,863.5031233938353,"[40, 0, 214]",214,a,0.6595187598577468,colour,0.5
047,72,0,2,10,48,498,864.0237839519541,866.2311839200556,"[23, 0, 231]",231,a,1.6841522371396422,colour,0.5
047,72,0,2,10,49,499,866.737173329544,867.8231348941335,"[71, 0, 183]",183,a,0.5629060303617734,colour,0.5
047,72,0,2,10,50,500,868.3310541478859,868.9191466149932,"[39, 0, 215]",215,a,0.06471988704288378,colour,0.5
047,72,0,2,11,1,501,887.3758300791815,890.3991402346874,"[82, 0, 172]",172,l,2.4990561486192746,colour,0.5
047,72,0,2,11,2,502,890.9082508718711,894.8952523862099,"[2, 0, 252]",252,a,3.4636249958130065,colour,0.5
047,72,0,2,11,3,503,895.404678100007,897.1671532631008,"[53, 0, 201]",201,a,1.2396019794687163,colour,0.5
047,72,0,2,11,4,504,897.6860627829446,900.0471464889561,"[26, 0, 228]",228,a,1.8378418827342102,colour,0.5
047,72,0,2,11,5,505,900.5613196196209,901.1590955725842,"[87, 0, 167]",167,l,0.07487283705268055,colour,0.5
047,72,0,2,11,6,506,901.6707150072907,902.2791173128644,"[7, 0, 247]",247,a,0.08509825466899201,colour,0.5
047,72,0,2,11,7,507,902.795848865615,904.6871013542404,"[9, 0, 245]",245,a,1.367963797703851,colour,0.5
047,72,0,2,11,8,508,905.20226579468,905.9430810160411,"[31, 0, 223]",223,a,0.2175363765854854,colour,0.5
047,72,0,2,11,9,509,906.45249058216,908.479109829801,"[18, 0, 236]",236,a,1.5034002674219664,colour,0.5
047,72,0,2,11,10,510,908.9995888250123,909.5590743049106,"[0, 0, 254]",254,a,0.036153859793557785,colour,0.5
047,72,0,2,11,11,511,910.0777683911147,910.9351013069681,"[58, 0, 196]",196,a,0.33405722184397746,colour,0.5
047,72,0,2,11,12,512,911.4529289325001,912.0310543447995,"[60, 0, 194]",194,a,0.05493163822393399,colour,0.5
047,72,0,2,11,13,513,912.5469233753247,914.2791129805555,"[35, 0, 219]",219,a,1.208952901943121,colour,0.5
047,72,0,2,11,14,514,914.7970138613891,915.4870655142731,"[86, 0, 168]",168,l,0.16662984208960552,colour,0.5
047,72,0,2,11,15,515,916.0003008981585,916.7830768412678,"[66, 0, 188]",188,l,0.2746786710777087,colour,0.5
047,72,0,2,11,16,516,917.2976891099679,917.9430569914402,"[10, 0, 244]",244,a,0.12202405215066392,colour,0.5
047,72,0,2,11,17,517,918.45393599612,919.2231167772406,"[69, 0, 185]",185,l,0.24596495166770183,colour,0.5
047,72,0,2,11,18,518,919.7353600636416,920.2711033392115,"[3, 0, 251]",251,a,0.012530203035566956,colour,0.5
047,72,0,2,11,19,519,920.7823312912369,921.4391088845587,"[14, 0, 240]",240,a,0.13345385012507904,colour,0.5
047,72,0,2,11,20,520,921.9543509126379,923.9590601264645,"[96, 0, 158]",158,l,1.4815674273850163,colour,0.5
047,72,0,2,11,21,521,924.4576105771121,925.2710667115607,"[36, 0, 218]",218,a,0.28997721601626836,colour,0.5
047,72,0,2,11,22,522,925.7762798510375,926.6230706972856,"[72, 0, 182]",182,l,0.32346631535619963,colour,0.5
047,72,0,2,11,23,523,927.1376112860453,927.7831623058009,"[80, 0, 174]",174,l,0.12235763952776324,colour,0.5
047,72,0,2,11,24,524,928.293940879812,928.8710777392407,"[59, 0, 195]",195,a,0.05380405779578723,colour,0.5
047,72,0,2,11,25,525,929.3877966889268,930.1590817879769,"[33, 0, 221]",221,a,0.24796135585347656,colour,0.5
047,72,0,2,11,26,526,930.6691510457604,931.4710745884804,"[61, 0, 193]",193,a,0.27864981794846244,colour,0.5
047,72,0,2,11,27,527,931.98176415333,932.5430774714332,"[97, 0, 157]",157,l,0.03794152571936138,colour,0.5
047,72,0,2,11,28,528,933.0598712518113,933.855047428864,"[37, 0, 217]",217,a,0.27169095710269175,colour,0.5
047,72,0,2,11,29,529,934.3726292946376,935.0311768308311,"[41, 0, 213]",213,a,0.13527459910255857,colour,0.5
047,72,0,2,11,30,530,935.5321175314457,936.2150712959265,"[24, 0, 230]",230,a,0.1596107228397159,colour,0.5
047,72,0,2,11,31,531,936.735377392848,937.319072178143,"[79, 0, 175]",175,l,0.060442328176577576,colour,0.5
047,72,0,2,11,32,532,937.8291575835901,938.4870863880933,"[38, 0, 216]",216,a,0.13462042128958274,colour,0.5
047,72,0,2,11,33,533,938.9989826963865,939.6150496344053,"[75, 0, 179]",179,l,0.09281014862062875,colour,0.5
047,72,0,2,11,34,534,940.12528903356,940.6950594017835,"[12, 0, 242]",242,a,0.04636312973161694,colour,0.5
047,72,0,2,11,35,535,941.2034989257809,942.1030383231555,"[19, 0, 235]",235,a,0.3769328473281348,colour,0.5
047,72,0,2,11,36,536,942.6098040026554,943.303035566234,"[55, 0, 199]",199,a,0.16976564207288902,colour,0.5
047,72,0,2,11,37,537,943.8148995791707,946.3350182055146,"[70, 0, 184]",184,a,1.9966763355769217,colour,0.5
047,72,0,2,11,38,538,946.8463635235821,947.4710489885038,"[39, 0, 215]",215,a,0.0997394710284425,colour,0.5
047,72,0,2,11,39,539,947.9886678757612,950.0071723252331,"[42, 0, 212]",212,a,1.495162589373649,colour,0.5
047,72,0,2,11,40,540,950.5201272909471,951.1270396779873,"[40, 0, 214]",214,a,0.0837741452123737,colour,0.5
047,72,0,2,11,41,541,951.6452154631697,952.6230695157428,"[64, 0, 190]",190,a,0.4545629985805135,colour,0.5
047,72,0,2,11,42,542,953.1296808076877,953.72719052092,"[5, 0, 249]",249,a,0.0742485915106954,colour,0.5
047,72,0,2,11,43,543,954.2391289707011,954.8070632299641,"[89, 0, 165]",165,l,0.044650688345427625,colour,0.5
047,72,0,2,11,44,544,955.3171943215275,956.7270633087319,"[50, 0, 204]",204,a,0.8863975518470397,colour,0.5
047,72,0,2,11,45,545,957.2412943347153,957.8470724459476,"[11, 0, 243]",243,a,0.08236417736043222,colour,0.5
047,72,0,2,11,46,546,958.3663986546162,958.9350603470084,"[84, 0, 170]",170,l,0.044508510021842085,colour,0.5
047,72,0,2,11,47,547,959.4454100229777,961.1829964967328,"[95, 0, 159]",159,l,1.2142032598640071,colour,0.5
047,72,0,2,11,48,548,961.6983216262597,962.3350134793727,"[32, 0, 222]",222,a,0.11324995619361289,colour,0.5
047,72,0,2,11,49,549,962.8548607459816,963.9830276105495,"[67, 0, 187]",187,a,0.6047812875913223,colour,0.5
047,72,0,2,11,50,550,964.4956738011824,965.0310555263422,"[52, 0, 202]",202,a,0.012104455774533562,colour,0.5
047,72,0,2,12,1,551,985.6683456311584,987.7350056024443,"[82, 0, 172]",172,l,1.5426158841873985,colour,0.5
047,72,0,2,12,2,552,988.2474899224617,988.7830220967153,"[36, 0, 218]",218,a,0.012191495698061772,colour,0.5
047,72,0,2,12,3,553,989.2944197962643,991.0870202220103,"[31, 0, 223]",223,a,1.266889977225219,colour,0.5
047,72,0,2,12,4,554,991.581357310657,993.4230128019553,"[58, 0, 196]",196,a,1.3185125233139843,colour,0.5
047,72,0,2,12,5,555,993.9408770551381,994.4870095881633,"[42, 0, 212]",212,a,0.02273632222204469,colour,0.5
047,72,0,2,12,6,556,995.0034233073966,996.5670008447923,"[71, 0, 183]",183,a,1.0402947541733738,colour,0.5
047,72,0,2,12,7,557,997.0817785287072,999.2869961974066,"[49, 0, 205]",205,a,1.6818962885881774,colour,0.5
047,72,0,2,12,8,558,999.8007258577418,1000.3911447717837,"[99, 0, 155]",155,l,0.06702782322827261,colour,0.5
047,72,0,2,12,9,559,1000.9101566915342,1001.5590735172154,"[24, 0, 230]",230,a,0.125498953362694,colour,0.5
047,72,0,2,12,10,560,1002.0665237006469,1003.7830027982709,"[38, 0, 216]",216,a,1.1931411759869661,colour,0.5
047,72,0,2,12,11,561,1004.3010312851402,1004.8390001831285,"[95, 0, 159]",159,l,0.014574656408512965,colour,0.5
047,72,0,2,12,12,562,1005.3585615177144,1005.9509866821027,"[25, 0, 229]",229,a,0.06901162436406594,colour,0.5
047,72,0,2,12,13,563,1006.4679561177036,1007.1829555367731,"[57, 0, 197]",197,a,0.19158548519772012,colour,0.5
047,72,0,2,12,14,564,1007.7025117513695,1009.7350008763024,"[41, 0, 213]",213,a,1.5092228832218098,colour,0.5
047,72,0,2,12,15,565,1010.2495670650387,1010.8949790572515,"[7, 0, 247]",247,a,0.12266680845641531,colour,0.5
047,72,0,2,12,16,566,1011.405879723432,1012.1510067682393,"[85, 0, 169]",169,l,0.2217075970984297,colour,0.5
047,72,0,2,12,17,567,1012.6716578740597,1013.4950015064533,"[52, 0, 202]",202,a,0.3000005907670129,colour,0.5
047,72,0,2,12,18,568,1014.0154749878275,1015.1829838936683,"[69, 0, 185]",185,a,0.6441351442335872,colour,0.5
047,72,0,2,12,19,569,1015.7029788524524,1016.9269806011143,"[78, 0, 176]",176,l,0.7006067194015486,colour,0.5
047,72,0,2,12,20,570,1017.4375929722155,1018.0550025304547,"[73, 0, 181]",181,a,0.09418979033944197,colour,0.5
047,72,0,2,12,21,571,1018.5627173782414,1019.262998781036,"[68, 0, 186]",186,a,0.17683596126153134,colour,0.5
047,72,0,2,12,22,572,1019.7816263073182,1020.4149732283258,"[4, 0, 250]",250,a,0.11003420549968723,colour,0.5
047,72,0,2,12,23,573,1020.9237550043035,1021.8549938658398,"[54, 0, 200]",200,a,0.40780681076284964,colour,0.5
047,72,0,2,12,24,574,1022.3614066595328,1024.2149960713868,"[37, 0, 217]",217,a,1.340005868303706,colour,0.5
047,72,0,2,12,25,575,1024.7267679244105,1025.3509409959952,"[39, 0, 215]",215,a,0.10078946384601295,colour,0.5
047,72,0,2,12,26,576,1025.8675189489004,1028.0309428864566,"[14, 0, 240]",240,a,1.6400202436780091,colour,0.5
047,72,0,2,12,27,577,1028.539660859402,1029.1429266284977,"[59, 0, 195]",195,a,0.07982150910538621,colour,0.5
047,72,0,2,12,28,578,1029.6366851577186,1030.2309385541448,"[11, 0, 243]",243,a,0.07107183155312669,colour,0.5
047,72,0,2,12,29,579,1030.7372099572094,1031.2710017270147,"[32, 0, 222]",222,a,0.010672826421796344,colour,0.5
047,72,0,2,12,30,580,1031.7841630678886,1034.0869686282094,"[72, 0, 182]",182,a,1.7783243044250412,colour,0.5
047,72,0,2,12,31,581,1034.597926008195,1035.159025468034,"[19, 0, 235]",235,a,0.03761699680762831,colour,0.5
047,72,0,2,12,32,582,1035.676146534257,1036.3029843662807,"[84, 0, 170]",170,l,0.10349912270612549,colour,0.5
047,72,0,2,12,33,583,1036.8168495095597,1037.7029721570725,"[18, 0, 236]",236,a,0.3627500674483599,colour,0.5
047,72,0,2,12,34,584,1038.2203385892062,1038.9109794353426,"[88, 0, 166]",166,l,0.1675864934513811,colour,0.5
047,72,0,2,12,35,585,1039.4234972322447,1040.2869654774404,"[51, 0, 203]",203,a,0.34017955427407287,colour,0.5
047,72,0,2,12,36,586,1040.7986282351922,1041.6710769515485,"[6, 0, 248]",248,a,0.34914033315726556,colour,0.5
047,72,0,2,12,37,587,1042.176939936544,1044.3429632561601,"[27, 0, 227]",227,a,1.642711785651045,colour,0.5
047,72,0,2,12,38,588,1044.849059004002,1045.3909415473754,"[16, 0, 238]",238,a,0.018520597150200047,colour,0.5
047,72,0,2,12,39,589,1045.9115808378265,1046.5029489201697,"[21, 0, 233]",233,a,0.06839525573013816,colour,0.5
047,72,0,2,12,40,590,1047.0210526315786,1047.7429754653713,"[43, 0, 211]",211,a,0.19861405674600974,colour,0.5
047,72,0,2,12,41,591,1048.2555511576065,1049.9349496763462,"[64, 0, 190]",190,a,1.156042086353409,colour,0.5
047,72,0,2,12,42,592,1050.4432237851288,1052.7349764578685,"[94, 0, 160]",160,l,1.7683714280719869,colour,0.5
047,72,0,2,12,43,593,1053.2559379141458,1053.9669244387187,"[75, 0, 179]",179,l,0.18758834453183226,colour,0.5
047,72,0,2,12,44,594,1054.475786953073,1055.0949676357122,"[15, 0, 239]",239,a,0.09596327781036962,colour,0.5
047,72,0,2,12,45,595,1055.614309204364,1056.3674805489427,"[87, 0, 167]",167,l,0.22979718912392855,colour,0.5
047,72,0,2,12,46,596,1056.8800842042256,1057.9509606882784,"[50, 0, 204]",204,a,0.5474928763142088,colour,0.5
047,72,0,2,12,47,597,1058.4583474625397,1059.0709249270876,"[98, 0, 156]",156,l,0.08909027535992209,colour,0.5
047,72,0,2,12,48,598,1059.5709932593309,1060.2149259668367,"[17, 0, 237]",237,a,0.12112884073576424,colour,0.5
047,72,0,2,12,49,599,1060.7273047361814,1061.422973811219,"[5, 0, 249]",249,a,0.17224056886334438,colour,0.5
047,72,0,2,12,50,600,1061.930583502195,1062.567004389406,"[96, 0, 158]",158,l,0.11302270718442742,colour,0.5
047,72,0,2,13,1,601,1082.9032120091433,1084.9269262504095,"[82, 0, 172]",172,l,1.4998068186541786,colour,0.5
047,72,0,2,13,2,602,1085.4373515447514,1086.0309208310937,"[3, 0, 251]",251,a,0.07047594292089343,colour,0.5
047,72,0,2,13,3,603,1086.5469422799215,1087.126889228908,"[77, 0, 177]",177,l,0.0558028250670759,colour,0.5
047,72,0,2,13,4,604,1087.6415660882922,1089.6709375301434,"[98, 0, 156]",156,l,1.5060240679158596,colour,0.5
047,72,0,2,13,5,605,1090.1886729957623,1091.3669665802154,"[43, 0, 211]",211,a,0.6550080442975741,colour,0.5
047,72,0,2,13,6,606,1091.8763686632592,1094.1509319375327,"[36, 0, 218]",218,a,1.751376983258524,colour,0.5
047,72,0,2,13,7,607,1094.6577649646497,1096.918896522926,"[46, 0, 208]",208,a,1.7378078150795773,colour,0.5
047,72,0,2,13,8,608,1097.4391581152886,1097.9909293381497,"[88, 0, 166]",166,l,0.028420698159607127,colour,0.5
047,72,0,2,13,9,609,1098.5017512351915,1099.102960735545,"[35, 0, 219]",219,a,0.07785424949543085,colour,0.5
047,72,0,2,13,10,610,1099.6112683212123,1100.1508996421908,"[99, 0, 155]",155,a,0.01625795323343482,colour,0.5
047,72,0,2,13,11,611,1100.6582982318214,1101.4069104178052,"[21, 0, 233]",233,a,0.22566377780458424,colour,0.5
047,72,0,2,13,12,612,1101.9239302656642,1102.9908848335908,"[71, 0, 183]",183,l,0.5436410647234879,colour,0.5
047,72,0,2,13,13,613,1103.5021726501582,1104.2148881576431,"[79, 0, 175]",175,l,0.18968360401049722,colour,0.5
047,72,0,2,13,14,614,1104.7210225023737,1105.3669279833266,"[33, 0, 221]",221,a,0.12269280226610135,colour,0.5
047,72,0,2,13,15,615,1105.877419443772,1106.550927211385,"[78, 0, 176]",176,l,0.15020017210918013,colour,0.5
047,72,0,2,13,16,616,1107.0649172037665,1107.6708823917434,"[5, 0, 249]",249,a,0.08266271246247925,colour,0.5
047,72,0,2,13,17,617,1108.1900687851594,1108.782883856853,"[94, 0, 160]",160,l,0.06956458381318953,colour,0.5
047,72,0,2,13,18,618,1109.2994799266598,1109.878916845366,"[57, 0, 197]",197,a,0.056021803291514516,colour,0.5
047,72,0,2,13,19,619,1110.3933085604222,1111.0548961921013,"[2, 0, 252]",252,a,0.13816818395571318,colour,0.5
047,72,0,2,13,20,620,1111.5653537817998,1114.1988672995649,"[19, 0, 235]",235,a,2.1102555468241917,colour,0.5
047,72,0,2,13,21,621,1114.7061473416397,1115.3428896069963,"[29, 0, 225]",225,a,0.11332951302756555,colour,0.5
047,72,0,2,13,22,622,1115.8639558262512,1116.6869079759635,"[4, 0, 250]",250,a,0.29943975439528003,colour,0.5
047,72,0,2,13,23,623,1117.2077607308165,1117.814921240686,"[83, 0, 171]",171,l,0.08375563444860745,colour,0.5
047,72,0,2,13,24,624,1118.3240818962804,1119.2229052820621,"[51, 0, 203]",203,a,0.37542717496398836,colour,0.5
047,72,0,2,13,25,625,1119.730409028518,1120.4949503065,"[80, 0, 174]",174,l,0.24120768865395803,colour,0.5
047,72,0,2,13,26,626,1121.0117476315063,1121.7428856685437,"[0, 0, 254]",254,a,0.20775049083749764,colour,0.5
047,72,0,2,13,27,627,1122.2618274837296,1123.1830280043941,"[23, 0, 231]",231,a,0.397771620657295,colour,0.5
047,72,0,2,13,28,628,1123.6994960743323,1124.2469133322593,"[97, 0, 157]",157,l,0.024063188611762598,colour,0.5
047,72,0,2,13,29,629,1124.7620517789037,1125.5269262504007,"[74, 0, 180]",180,l,0.24151528219226748,colour,0.5
047,72,0,2,13,30,630,1126.0466195233166,1126.6549288812967,"[47, 0, 207]",207,a,0.08489975640259217,colour,0.5
047,72,0,2,13,31,631,1127.1716604340472,1127.974900997011,"[68, 0, 186]",186,a,0.2799309982219711,colour,0.5
047,72,0,2,13,32,632,1128.484266452404,1129.3668448818644,"[70, 0, 184]",184,a,0.3592121509282151,colour,0.5
047,72,0,2,13,33,633,1129.8750410091889,1130.5908962551184,"[10, 0, 244]",244,a,0.19242004439001903,colour,0.5
047,72,0,2,13,34,634,1131.1095399290643,1133.4148743730475,"[7, 0, 247]",247,a,1.7820776545704575,colour,0.5
047,72,0,2,13,35,635,1133.9222670549934,1135.0948955619388,"[66, 0, 188]",188,a,0.6493996805802453,colour,0.5
047,72,0,2,13,36,636,1135.609861897974,1136.342938050031,"[61, 0, 193]",193,a,0.20989301180816256,colour,0.5
047,72,0,2,13,37,637,1136.8598617995158,1137.6548690167401,"[16, 0, 238]",238,a,0.27151096958550625,colour,0.5
047,72,0,2,13,38,638,1138.1726060577348,1138.7828554999578,"[93, 0, 161]",161,l,0.08524673452484421,colour,0.5
047,72,0,2,13,39,639,1139.2993570467806,1139.8868681975437,"[48, 0, 206]",206,l,0.06417480450181756,colour,0.5
047,72,0,2,13,40,640,1140.393104154471,1143.7669354663958,"[65, 0, 189]",189,a,2.8503397904278245,colour,0.5
047,72,0,2,13,41,641,1144.2850273624354,1144.9668854479823,"[18, 0, 236]",236,a,0.15856663772137836,colour,0.5
047,72,0,2,13,42,642,1145.4882151500642,1146.1588789574016,"[14, 0, 240]",240,a,0.1472376642486779,colour,0.5
047,72,0,2,13,43,643,1146.6758672975993,1147.2388977832306,"[85, 0, 169]",169,l,0.03979614542913623,colour,0.5
047,72,0,2,13,44,644,1147.754001571433,1148.4388674571092,"[15, 0, 239]",239,a,0.16168629002640955,colour,0.5
047,72,0,2,13,45,645,1148.9447910943563,1149.5508685283712,"[30, 0, 224]",224,a,0.08272690931335092,colour,0.5
047,72,0,2,13,46,646,1150.0699529157282,1150.8548623213574,"[45, 0, 209]",209,a,0.26187789598770905,colour,0.5
047,72,0,2,13,47,647,1151.366870481841,1152.0308660865267,"[12, 0, 242]",242,a,0.14145679610373918,colour,0.5
047,72,0,2,13,48,648,1152.538845204821,1154.302871726395,"[59, 0, 195]",195,l,1.2406366122886539,colour,0.5
047,72,0,2,13,49,649,1154.8202755738748,1155.5108640385297,"[89, 0, 165]",165,l,0.16743565052456688,colour,0.5
047,72,0,2,13,50,650,1156.023509835315,1156.742841951651,"[60, 0, 194]",194,l,0.19599183162790723,colour,0.5
047,72,0,2,14,1,651,1162.7925858534436,1165.0708792409714,"[56, 0, 198]",198,a,1.7540224452677649,colour,0.5
047,72,0,2,14,2,652,1165.5905075293413,1166.1272984346579,"[23, 0, 231]",231,a,0.013388392981141806,colour,0.5
047,72,0,2,14,3,653,1166.6374440985091,1168.5828531368752,"[8, 0, 246]",246,a,1.4223223903245525,colour,0.5
047,72,0,2,14,4,654,1169.0908452520816,1171.7031828645559,"[30, 0, 224]",224,a,2.0890930322784698,colour,0.5
047,72,0,2,14,5,655,1172.216034642668,1172.7508547437756,"[97, 0, 157]",157,l,0.011409318001824431,colour,0.5
047,72,0,2,14,6,656,1173.2630121717957,1174.5588832897047,"[61, 0, 193]",193,a,0.7725713993131649,colour,0.5
047,72,0,2,14,7,657,1175.0756912485376,1175.6388406756014,"[41, 0, 213]",213,a,0.039811505426769145,colour,0.5
047,72,0,2,14,8,658,1176.1538483654294,1176.8628483319626,"[66, 0, 188]",188,a,0.18589480774244294,colour,0.5
047,72,0,2,14,9,659,1177.3726986114925,1178.0308333973226,"[85, 0, 169]",169,l,0.13484136876650155,colour,0.5
047,72,0,2,14,10,660,1178.5446792421571,1180.8788191716158,"[25, 0, 229]",229,a,1.8108488754660357,colour,0.5
047,72,0,2,14,11,661,1181.3886470019352,1182.0788325623726,"[93, 0, 161]",161,l,0.16677398963656742,colour,0.5
047,72,0,2,14,12,662,1182.5918659033923,1183.270796927216,"[84, 0, 170]",170,l,0.15553599454869982,colour,0.5
047,72,0,2,14,13,663,1183.7794790602056,1184.4068584301713,"[65, 0, 189]",189,a,0.10401033451489639,colour,0.5
047,72,0,2,14,14,664,1184.9202344169898,1186.0868477175536,"[4, 0, 250]",250,a,0.6434872679383261,colour,0.5
047,72,0,2,14,15,665,1186.6077949953906,1187.4388154694752,"[67, 0, 187]",187,a,0.307695549345226,colour,0.5
047,72,0,2,14,16,666,1187.9437655199727,1188.518830356843,"[94, 0, 160]",160,l,0.05163475532026496,colour,0.5
047,72,0,2,14,17,667,1189.0376303875528,1189.646826686192,"[3, 0, 251]",251,a,0.08596865381696261,colour,0.5
047,72,0,2,14,18,668,1190.1609045061778,1190.790809215192,"[53, 0, 201]",201,a,0.1065537904651137,colour,0.5
047,72,0,2,14,19,669,1191.3016007861152,1191.8388296479097,"[46, 0, 208]",208,a,0.013844860208337195,colour,0.5
047,72,0,2,14,20,670,1192.3485263275943,1193.070817801039,"[74, 0, 180]",180,l,0.1988822657149285,colour,0.5
047,72,0,2,14,21,671,1193.5830476966803,1194.1588324836048,"[79, 0, 175]",175,l,0.0531309753714595,colour,0.5
047,72,0,2,14,22,672,1194.6767569951917,1195.294839241993,"[20, 0, 234]",234,a,0.09450959309469908,colour,0.5
047,72,0,2,14,23,673,1195.8019684411265,1196.5109022415709,"[15, 0, 239]",239,a,0.18546315278217662,colour,0.5
047,72,0,2,14,24,674,1197.0208041149017,1197.7588159420848,"[36, 0, 218]",218,a,0.21480466234788764,colour,0.5
047,72,0,2,14,25,675,1198.2708674255991,1198.9348295534,"[72, 0, 182]",182,l,0.14072660605597775,colour,0.5
047,72,0,2,14,26,676,1199.4313123137836,1201.6388954201539,"[80, 0, 174]",174,l,1.6830104782566195,colour,0.5
047,72,0,2,14,27,677,1202.1520543979714,1202.6867815514706,"[91, 0, 163]",163,l,0.011369933417881839,colour,0.5
047,72,0,2,14,28,678,1203.1990275948046,1204.2628022520075,"[70, 0, 184]",184,l,0.5404138925223378,colour,0.5
047,72,0,2,14,29,679,1204.7772735239123,1205.3508244176483,"[44, 0, 210]",210,a,0.05015271369484253,colour,0.5
047,72,0,2,14,30,680,1205.8711005822988,1206.5587915236392,"[29, 0, 225]",225,a,0.16444911807775497,colour,0.5
047,72,0,2,14,31,681,1207.0743403575616,1207.7747773294395,"[98, 0, 156]",156,l,0.1770112226367928,colour,0.5
047,72,0,2,14,32,682,1208.2938668368006,1210.3348382179975,"[63, 0, 191]",191,a,1.5182470712607028,colour,0.5
047,72,0,2,14,33,683,1210.8558961664967,1211.5748757908877,"[27, 0, 227]",227,a,0.1956133458588738,colour,0.5
047,72,0,2,14,34,684,1212.090379726389,1212.7427935086307,"[35, 0, 219]",219,a,0.1290333252545679,colour,0.5
047,72,0,2,14,35,685,1213.2622603202326,1213.806784387154,"[11, 0, 243]",243,a,0.02108768383914139,colour,0.5
047,72,0,2,14,36,686,1214.3248660432,1214.9747852063592,"[10, 0, 244]",244,a,0.12649853390757926,colour,0.5
047,72,0,2,14,37,687,1215.4818990455096,1216.4467857262352,"[64, 0, 190]",190,a,0.44230061065172777,colour,0.5
047,72,0,2,14,38,688,1216.9657535352599,1217.5747726033005,"[12, 0, 242]",242,a,0.08564727567136288,colour,0.5
047,72,0,2,14,39,689,1218.0909287473914,1219.6627947689412,"[33, 0, 221]",221,a,1.0486395582702244,colour,0.5
047,72,0,2,14,40,690,1220.1691008304188,1220.7187744307448,"[42, 0, 212]",212,a,0.026339223302784376,colour,0.5
047,72,0,2,14,41,691,1221.231690011875,1223.1428159578354,"[45, 0, 209]",209,a,1.387765181279974,colour,0.5
047,72,0,2,14,42,692,1223.6555964498693,1225.2787742732035,"[17, 0, 237]",237,a,1.0997260802687379,colour,0.5
047,72,0,2,14,43,693,1225.7970922367094,1226.414760551619,"[13, 0, 241]",241,a,0.09427171025890857,colour,0.5
047,72,0,2,14,44,694,1226.9221985258337,1227.5267600474908,"[73, 0, 181]",181,l,0.08128149535332341,colour,0.5
047,72,0,2,14,45,695,1228.0336395484046,1229.5588738374063,"[96, 0, 158]",158,l,1.0017880597733893,colour,0.5
047,72,0,2,14,46,696,1230.067009312479,1230.6787797870493,"[38, 0, 216]",216,a,0.08844948830665089,colour,0.5
047,72,0,2,14,47,697,1231.1922699891438,1231.9187452861515,"[54, 0, 200]",200,a,0.20327640292816795,colour,0.5
047,72,0,2,14,48,698,1232.4265298446408,1233.0547729183745,"[81, 0, 173]",173,l,0.10481850602081977,colour,0.5
047,72,0,2,14,49,699,1233.5672981983516,1234.3827779123385,"[62, 0, 192]",192,a,0.2921193431393476,colour,0.5
047,72,0,2,14,50,700,1234.8954953890498,1235.494760866699,"[48, 0, 206]",206,a,0.07594527908076998,colour,0.5
047,72,0,2,15,1,701,1250.027148576337,1252.09513580786,"[85, 0, 169]",169,l,1.543983316689264,colour,0.5
047,72,0,2,15,2,702,1252.6060746770963,1253.2707579364796,"[59, 0, 195]",195,a,0.141227971718763,colour,0.5
047,72,0,2,15,3,703,1253.7781616461143,1254.4227501068235,"[65, 0, 189]",189,a,0.1213340343820164,colour,0.5
047,72,0,2,15,4,704,1254.9345113260206,1256.9027173388604,"[46, 0, 208]",208,a,1.4449086573295062,colour,0.5
047,72,0,2,15,5,705,1257.4190404735564,1257.9667732019443,"[3, 0, 251]",251,a,0.024713034130400047,colour,0.5
047,72,0,2,15,6,706,1258.4816737657384,1260.0147369208717,"[24, 0, 230]",230,a,1.0087866990361363,colour,0.5
047,72,0,2,15,7,707,1260.5405446493096,1261.1667617804196,"[83, 0, 171]",171,l,0.11063836491666734,colour,0.5
047,72,0,2,15,8,708,1261.6741536746704,1262.454759527609,"[70, 0, 184]",184,l,0.2572868358984124,colour,0.5
047,72,0,2,15,9,709,1262.971131893035,1265.8947466882382,"[88, 0, 166]",166,l,2.400420233432669,colour,0.5
047,72,0,2,15,10,710,1266.4089485696459,1268.4387670264405,"[80, 0, 174]",174,l,1.507264288229635,colour,0.5
047,72,0,2,15,11,711,1268.9559310218465,1269.542723010236,"[11, 0, 243]",243,a,0.06347454672504682,colour,0.5
047,72,0,2,15,12,712,1270.049720664887,1270.5748045048094,"[48, 0, 206]",206,a,0.0017486752039985731,colour,0.5
047,72,0,2,15,13,713,1271.0967458493542,1272.710773454004,"[30, 0, 224]",224,a,1.0906562061281875,colour,0.5
047,72,0,2,15,14,714,1273.221882464597,1274.6307463574194,"[66, 0, 188]",188,l,0.8953126446140232,colour,0.5
047,72,0,2,15,15,715,1275.1504254518804,1275.8867240499967,"[4, 0, 250]",250,a,0.2128988426848082,colour,0.5
047,72,0,2,15,16,716,1276.4005832855764,1278.134731879647,"[67, 0, 187]",187,l,1.2108165801182622,colour,0.5
047,72,0,2,15,17,717,1278.6457940225955,1279.262744750522,"[12, 0, 242]",242,a,0.09355845557001885,colour,0.5
047,72,0,2,15,18,718,1279.7709058255714,1280.4387386695453,"[82, 0, 172]",172,l,0.1446993283025222,colour,0.5
047,72,0,2,15,19,719,1280.9584413947596,1281.6067064056988,"[9, 0, 245]",245,a,0.12480932941252831,colour,0.5
047,72,0,2,15,20,720,1282.1148434561474,1284.4707630564808,"[37, 0, 217]",217,a,1.8326238201989327,colour,0.5
047,72,0,2,15,21,721,1284.9900837512978,1285.6947218759597,"[8, 0, 246]",246,a,0.18133564914751332,colour,0.5
047,72,0,2,15,22,722,1286.2089544773335,1286.7587218129484,"[5, 0, 249]",249,a,0.026430595520650968,colour,0.5
047,72,0,2,15,23,723,1287.2713703666523,1289.7267549274984,"[28, 0, 226]",226,a,1.9319497531541856,colour,0.5
047,72,0,2,15,24,724,1290.2404302371142,1290.8547244753427,"[90, 0, 164]",164,l,0.09084052593971137,colour,0.5
047,72,0,2,15,25,725,1291.3655735477369,1292.7988413057465,"[58, 0, 196]",196,a,0.9099668578710407,colour,0.5
047,72,0,2,15,26,726,1293.3086510191642,1295.726760047488,"[25, 0, 229]",229,a,1.8949270696029998,colour,0.5
047,72,0,2,15,27,727,1296.246364705119,1296.9667452388967,"[63, 0, 191]",191,a,0.19701464909303468,colour,0.5
047,72,0,2,15,28,728,1297.4809057664825,1298.2147723669914,"[72, 0, 182]",182,l,0.2105582172953291,colour,0.5
047,72,0,2,15,29,729,1298.730966320276,1299.3827420723683,"[50, 0, 204]",204,a,0.12717949323996436,colour,0.5
047,72,0,2,15,30,730,1299.9042190727632,1300.7266942752467,"[69, 0, 185]",185,a,0.2992873360781232,colour,0.5
047,72,0,2,15,31,731,1301.2480287034705,1302.0147227424168,"[18, 0, 236]",236,a,0.2433198834914947,colour,0.5
047,72,0,2,15,32,732,1302.5294086602662,1303.158714723715,"[79, 0, 175]",175,l,0.10599610485951416,colour,0.5
047,72,0,2,15,33,733,1303.6707591180166,1304.3747001356678,"[23, 0, 231]",231,a,0.18086579114606138,colour,0.5
047,72,0,2,15,34,734,1304.8895534379699,1305.7828409276553,"[73, 0, 181]",181,l,0.3699204234580975,colour,0.5
047,72,0,2,15,35,735,1306.295931376313,1306.8707512411056,"[97, 0, 157]",157,l,0.05151817697333172,colour,0.5
047,72,0,2,15,36,736,1307.3900746928412,1307.9906942122325,"[22, 0, 232]",232,a,0.07738399764639325,colour,0.5
047,72,0,2,15,37,737,1308.4994787451287,1309.3026885881118,"[75, 0, 179]",179,a,0.2798935828759568,colour,0.5
047,72,0,2,15,38,738,1309.8120796434814,1311.750727925435,"[41, 0, 213]",213,a,1.4153391110594384,colour,0.5
047,72,0,2,15,39,739,1312.2653303479747,1313.5587564713787,"[84, 0, 170]",170,l,0.769920029619243,colour,0.5
047,72,0,2,15,40,740,1314.078059049294,1315.2066800180328,"[0, 0, 254]",254,a,0.6054071085236501,colour,0.5
047,72,0,2,15,41,741,1315.7187886091851,1316.3026956773392,"[81, 0, 173]",173,l,0.06046202046854887,colour,0.5
047,72,0,2,15,42,742,1316.8146112840768,1317.534705885817,"[35, 0, 219]",219,a,0.19684175080328714,colour,0.5
047,72,0,2,15,43,743,1318.037146351111,1318.942697804101,"[45, 0, 209]",209,a,0.3823257773910882,colour,0.5
047,72,0,2,15,44,744,1319.459254883186,1319.9907072091446,"[71, 0, 183]",183,l,0.008124644315103069,colour,0.5
047,72,0,2,15,45,745,1320.5061497047136,1321.2387032234255,"[17, 0, 237]",237,a,0.2091450986918062,colour,0.5
047,72,0,2,15,46,746,1321.7562390092353,1322.462647076769,"[20, 0, 234]",234,a,0.18305163514742162,colour,0.5
047,72,0,2,15,47,747,1322.9750931937451,1323.886685453108,"[43, 0, 211]",211,a,0.38819092855555937,colour,0.5
047,72,0,2,15,48,748,1324.3970981443854,1324.9987381181563,"[55, 0, 199]",199,a,0.07831229211296886,colour,0.5
047,72,0,2,15,49,749,1325.506582541202,1326.1987018843502,"[1, 0, 253]",253,l,0.1696447314316174,colour,0.5
047,72,0,2,15,50,750,1326.7097593011567,1327.3746851695323,"[96, 0, 158]",158,l,0.1415359591046581,colour,0.5
047,72,0,2,16,1,751,1334.568936596741,1343.7027043419512,"[45, 0, 209]",209,a,8.610011165525066,colour,0.5
047,72,0,2,16,2,752,1344.2112179089454,1344.902680317362,"[29, 0, 225]",225,a,0.16822176668210886,colour,0.5
047,72,0,2,16,3,753,1345.414439567321,1345.974691864918,"[77, 0, 177]",177,l,0.03691280058410484,colour,0.5
047,72,0,2,16,4,754,1346.4925293365814,1347.1506786947139,"[41, 0, 213]",213,a,0.13477677806804422,colour,0.5
047,72,0,2,16,5,755,1347.664509967246,1348.2466608771356,"[94, 0, 160]",160,l,0.05880117288324982,colour,0.5
047,72,0,2,16,6,756,1348.7583350564091,1349.606685138031,"[73, 0, 181]",181,l,0.32517442444805056,colour,0.5
047,72,0,2,16,7,757,1350.117856376266,1350.8706386012054,"[58, 0, 196]",196,l,0.22952504169370513,colour,0.5
047,72,0,2,16,8,758,1351.3835715115565,1353.374673354163,"[1, 0, 253]",253,a,1.4678734100889415,colour,0.5
047,72,0,2,16,9,759,1353.8837548467563,1354.646634489458,"[71, 0, 183]",183,a,0.23957283487834502,colour,0.5
047,72,0,2,16,10,760,1355.1650922682165,1355.8706886196305,"[44, 0, 210]",210,a,0.18277318619948346,colour,0.5
047,72,0,2,16,11,761,1356.3839433019602,1358.614665240937,"[81, 0, 173]",173,l,1.7073674758139532,colour,0.5
047,72,0,2,16,12,762,1359.1342230309092,1359.8546626415628,"[68, 0, 186]",186,l,0.19711035361979157,colour,0.5
047,72,0,2,16,13,763,1360.3689811013028,1363.1026488096977,"[20, 0, 234]",234,a,2.210404617449967,colour,0.5
047,72,0,2,16,14,764,1363.6192066764634,1364.5506708178,"[64, 0, 190]",190,a,0.4082731241651345,colour,0.5
047,72,0,2,16,15,765,1365.0567760179401,1365.6466679663572,"[51, 0, 203]",203,a,0.06655166370910592,colour,0.5
047,72,0,2,16,16,766,1366.1662875901093,1367.9346448397264,"[0, 0, 254]",254,a,1.2449819126341026,colour,0.5
047,72,0,2,16,17,767,1368.4476923591865,1370.2146668163186,"[96, 0, 158]",158,l,1.2439267998270225,colour,0.5
047,72,0,2,16,18,768,1370.7291113067186,1371.4306644374883,"[27, 0, 227]",227,a,0.17826089524896815,colour,0.5
047,72,0,2,16,19,769,1371.9480316573172,1373.9906453753647,"[5, 0, 249]",249,a,1.519309273295221,colour,0.5
047,72,0,2,16,20,770,1374.5121897233767,1375.1026960711897,"[2, 0, 252]",252,a,0.06728973066492472,colour,0.5
047,72,0,2,16,21,771,1375.623318820115,1376.6786509994708,"[90, 0, 164]",164,l,0.5318942208978115,colour,0.5
047,72,0,2,16,22,772,1377.1863788441697,1378.5266375614592,"[67, 0, 187]",187,l,0.8172957368224161,colour,0.5
047,72,0,2,16,23,773,1379.045519512103,1379.5907020891464,"[24, 0, 230]",230,a,0.021852138481335714,colour,0.5
047,72,0,2,16,24,774,1380.1080988473987,1380.7266320476192,"[46, 0, 208]",208,a,0.0951562878472032,colour,0.5
047,72,0,2,16,25,775,1381.2208458625537,1381.7746410588152,"[40, 0, 214]",214,a,0.030627022162661888,colour,0.5
047,72,0,2,16,26,776,1382.2834070809477,1382.862656529076,"[95, 0, 159]",159,l,0.05590325573575683,colour,0.5
047,72,0,2,16,27,777,1383.3771864839946,1384.1026094251138,"[47, 0, 207]",207,a,0.2019593826844357,colour,0.5
047,72,0,2,16,28,778,1384.6117259699822,1385.486614954716,"[83, 0, 171]",171,l,0.3516113215009682,colour,0.5
047,72,0,2,16,29,779,1386.0024363299017,1386.798632961334,"[57, 0, 197]",197,a,0.27292133127048146,colour,0.5
047,72,0,2,16,30,780,1387.3150951235875,1388.3346160889923,"[33, 0, 221]",221,a,0.4961602007097099,colour,0.5
047,72,0,2,16,31,781,1388.8464226004435,1389.3746241234476,"[48, 0, 206]",206,a,0.004863995214691386,colour,0.5
047,72,0,2,16,32,782,1389.8933115142718,1390.638639814264,"[14, 0, 240]",240,a,0.22193327071727253,colour,0.5
047,72,0,2,16,33,783,1391.159216877073,1393.4626451075455,"[26, 0, 228]",228,a,1.7801430841645924,colour,0.5
047,72,0,2,16,34,784,1393.971889258435,1394.5426615703036,"[98, 0, 156]",156,l,0.047406033336301334,colour,0.5
047,72,0,2,16,35,785,1395.0566854334174,1395.6066351196205,"[88, 0, 166]",166,l,0.02653890311194118,colour,0.5
047,72,0,2,16,36,786,1396.1192340487469,1396.8386417834845,"[22, 0, 232]",232,a,0.19610171460954007,colour,0.5
047,72,0,2,16,37,787,1397.3555671083595,1397.9426521179994,"[28, 0, 226]",226,a,0.06370652189070825,colour,0.5
047,72,0,2,16,38,788,1398.449445760547,1398.9746221542155,"[39, 0, 215]",215,a,0.0018152351403841749,colour,0.5
047,72,0,2,16,39,789,1399.4963988712261,1401.6146372778894,"[21, 0, 233]",233,a,1.5948717342835153,colour,0.5
047,72,0,2,16,40,790,1402.112401612394,1402.654589780097,"[72, 0, 182]",182,l,0.018892387553933077,colour,0.5
047,72,0,2,16,41,791,1403.1749770092429,1404.0065823442856,"[34, 0, 220]",220,a,0.30826189955405425,colour,0.5
047,72,0,2,16,42,792,1404.5188177537784,1405.2706220596883,"[87, 0, 167]",167,l,0.2408922181930393,colour,0.5
047,72,0,2,16,43,793,1405.787797082783,1406.6705830689607,"[65, 0, 189]",189,l,0.35961820591182914,colour,0.5
047,72,0,2,16,44,794,1407.1785625811026,1407.982636915549,"[60, 0, 194]",194,l,0.28079155122395605,colour,0.5
047,72,0,2,16,45,795,1408.491072107252,1411.2385894019972,"[50, 0, 204]",204,a,2.2241384131484665,colour,0.5
047,72,0,2,16,46,796,1411.757873863011,1412.2946431068121,"[93, 0, 161]",161,l,0.013502214409527369,colour,0.5
047,72,0,2,16,47,797,1412.8047734106804,1413.454639798496,"[53, 0, 201]",201,a,0.12655721692135558,colour,0.5
047,72,0,2,16,48,798,1413.9610978844576,1415.2145801702572,"[37, 0, 217]",217,a,0.7301526349328924,colour,0.5
047,72,0,2,16,49,799,1415.7268360597227,1417.9745705604146,"[8, 0, 246]",246,a,1.7242815760837402,colour,0.5
047,72,0,2,16,50,800,1418.4928341732011,1419.4945879683946,"[55, 0, 199]",199,a,0.4785206365340855,colour,0.5
