id,age,condition,counterbalance,block,trialinblock,trial,tstart,tend,trialstim,trialintensity,response,RT,trialtype,colourfreq
002,75,0,2,Practice,1,NA,5.907611921429634e-06,13.301207609358244,"[87, 0, 167]",167,a,12.767371545312926,colour,0.5
002,75,0,2,Practice,2,NA,13.813736232114024,16.325217225472443,"[36, 0, 218]",218,a,1.9883035729872063,colour,0.5
002,75,0,2,Practice,3,NA,16.837730094441213,18.949186039273627,"[37, 0, 217]",217,a,1.5919893378159031,colour,0.5
002,75,0,2,Practice,4,NA,19.4590676255757,21.269194262684323,"[85, 0, 169]",169,a,1.2868322446011007,colour,0.5
002,75,0,2,Practice,5,NA,21.776294905226678,23.125179888913408,"[57, 0, 197]",197,a,0.824384635896422,colour,0.5
002,75,0,2,Practice,6,NA,23.640980974887498,27.733257426181808,"[1, 0, 253]",253,a,3.568904865067452,colour,0.5
002,75,0,2,Practice,7,NA,28.253914628410712,31.83718225522898,"[70, 0, 184]",184,a,3.0601252587512136,colour,0.5
002,75,0,2,Practice,8,NA,32.33859379787464,33.60517331957817,"[60, 0, 194]",194,a,0.7342258924618363,colour,0.5
002,75,0,2,Practice,9,NA,34.114703989587724,35.66915472061373,"[10, 0, 244]",244,a,1.0310165233677253,colour,0.5
002,75,0,2,Practice,10,NA,36.177354192361236,37.693167093675584,"[24, 0, 230]",230,a,0.9925771917914972,colour,0.5
002,75,0,2,1,1,1,5.446935605374165,8.047971576917917,"[81, 0, 173]",173,a,2.0681892475113273,colour,0.5
002,75,0,2,1,2,2,8.558541605365463,9.919997353339568,"[37, 0, 217]",217,a,0.8380621062824503,colour,0.5
002,75,0,2,1,3,3,10.4303980282275,11.799980386393145,"[54, 0, 200]",200,a,0.8462359780678526,colour,0.5
002,75,0,2,1,4,4,12.3211933048442,13.583975761081092,"[57, 0, 197]",197,a,0.7394664022140205,colour,0.5
002,75,0,2,1,5,5,14.09053998591844,15.383961267536506,"[50, 0, 204]",204,a,0.770028427708894,colour,0.5
002,75,0,2,1,6,6,15.904914247919805,29.711992126191035,"[80, 0, 174]",174,a,13.288792020408437,colour,0.5
002,75,0,2,1,7,7,30.233303112210706,30.84794723719824,"[12, 0, 242]",242,a,0.0914123539114371,colour,0.5
002,75,0,2,1,8,8,31.35425428079907,31.959922270616516,"[9, 0, 245]",245,a,0.0823271234985441,colour,0.5
002,75,0,2,1,9,9,32.47940581291914,34.287935406086035,"[27, 0, 227]",227,a,1.2852418960537761,colour,0.5
002,75,0,2,1,10,10,34.796788661624305,35.95995377819054,"[17, 0, 237]",237,a,0.640326403430663,colour,0.5
002,75,0,2,1,11,11,36.466621190542355,39.99990705237724,"[75, 0, 179]",179,l,3.0099213648354635,colour,0.5
002,75,0,2,1,12,12,40.50877212325577,41.89587785420008,"[34, 0, 220]",220,a,0.863877504481934,colour,0.5
002,75,0,2,1,13,13,42.41501638782211,44.23994689376559,"[18, 0, 236]",236,a,1.3015648273285478,colour,0.5
002,75,0,2,1,14,14,44.7605840099277,46.18397276790347,"[97, 0, 157]",157,l,0.8972011755686253,colour,0.5
002,75,0,2,1,15,15,46.697364700143225,48.439923578174785,"[53, 0, 201]",201,a,1.2192636977415532,colour,0.5
002,75,0,2,1,16,16,48.948494052514434,49.9919820909854,"[2, 0, 252]",252,a,0.5264703634893522,colour,0.5
002,75,0,2,1,17,17,50.50723573146388,52.02391588082537,"[96, 0, 158]",158,l,1.0025627533905208,colour,0.5
002,75,0,2,1,18,18,52.54495471948758,54.07191030087415,"[14, 0, 240]",240,a,1.003491441369988,colour,0.5
002,75,0,2,1,19,19,54.58967076858971,55.751847726642154,"[39, 0, 215]",215,a,0.6385592182632536,colour,0.5
002,75,0,2,1,20,20,56.264744201209396,58.02393872383982,"[68, 0, 186]",186,l,1.2417373160133138,colour,0.5
002,75,0,2,1,21,21,58.53988474491052,60.231884874170646,"[92, 0, 162]",162,l,1.1701826577773318,colour,0.5
002,75,0,2,1,22,22,60.74213588773273,61.48790145665407,"[93, 0, 161]",161,l,0.2271051638526842,colour,0.5
002,75,0,2,1,23,23,62.011055640061386,63.11988502857275,"[79, 0, 175]",175,l,0.5915072708157822,colour,0.5
002,75,0,2,1,24,24,63.63625207054429,65.01591727032792,"[31, 0, 223]",223,a,0.8617058398667723,colour,0.5
002,75,0,2,1,25,25,65.5365008234512,66.88788751454558,"[83, 0, 171]",171,l,0.80813259689603,colour,0.5
002,75,0,2,1,26,26,67.39673525618855,68.18386997422203,"[94, 0, 160]",160,l,0.2638316609663889,colour,0.5
002,75,0,2,1,27,27,68.69361135154031,70.23986339848489,"[56, 0, 198]",198,a,1.0228473776951432,colour,0.5
002,75,0,2,1,28,28,70.75404184055515,72.25588503794279,"[43, 0, 211]",211,a,0.978357789805159,colour,0.5
002,75,0,2,1,29,29,72.7698815233307,74.90387685864698,"[60, 0, 194]",194,a,1.6106883398024365,colour,0.5
002,75,0,2,1,30,30,75.41156826948281,77.09585493244231,"[89, 0, 165]",165,l,1.1670594620518386,colour,0.5
002,75,0,2,1,31,31,77.60237662191503,78.68791004247032,"[0, 0, 254]",254,a,0.5626340552698821,colour,0.5
002,75,0,2,1,32,32,79.19626980938483,80.64787799923215,"[45, 0, 209]",209,a,0.9272133926860988,colour,0.5
002,75,0,2,1,33,33,81.16839578014333,82.34387959982269,"[24, 0, 230]",230,a,0.6522536240518093,colour,0.5
002,75,0,2,1,34,34,82.85380214604083,85.58383988437708,"[52, 0, 202]",202,a,2.2072167481528595,colour,0.5
002,75,0,2,1,35,35,86.1031784915831,87.60788888507523,"[86, 0, 168]",168,l,0.98362823179923,colour,0.5
002,75,0,2,1,36,36,88.11931592167821,89.4078393393429,"[48, 0, 206]",206,a,0.7711540386080742,colour,0.5
002,75,0,2,1,37,37,89.92833900335245,91.67185531998985,"[91, 0, 163]",163,l,1.2258381625870243,colour,0.5
002,75,0,2,1,38,38,92.18975284602493,93.7759034227347,"[84, 0, 170]",170,l,1.0682282382622361,colour,0.5
002,75,0,2,1,39,39,94.29577332758345,95.67195890133735,"[22, 0, 232]",232,a,0.858444404322654,colour,0.5
002,75,0,2,1,40,40,96.19370232988149,97.41584543290082,"[62, 0, 192]",192,a,0.6941493446938694,colour,0.5
002,75,0,2,1,41,41,97.93801854690537,100.69593582826201,"[64, 0, 190]",190,l,2.2391930733574554,colour,0.5
002,75,0,2,1,42,42,101.21864929853473,102.16780067945365,"[1, 0, 253]",253,a,0.4327961541712284,colour,0.5
002,75,0,2,1,43,43,102.68824166047852,103.25585156108718,"[7, 0, 247]",247,a,0.05055165954399854,colour,0.5
002,75,0,2,1,44,44,103.77403816988226,106.43314116285183,"[42, 0, 212]",212,a,2.1414386234246194,colour,0.5
002,75,0,2,1,45,45,106.94020360242575,108.0077934168512,"[51, 0, 203]",203,a,0.5442414651624858,colour,0.5
002,75,0,2,1,46,46,108.51850168523379,109.3118166285567,"[21, 0, 233]",233,a,0.27899786771740764,colour,0.5
002,75,0,2,1,47,47,109.8303383999737,112.52780825702939,"[40, 0, 214]",214,a,2.1744188611628488,colour,0.5
002,75,0,2,1,48,48,113.04419420368504,114.11981098551769,"[49, 0, 205]",205,a,0.5523472016211599,colour,0.5
002,75,0,2,1,49,49,114.63562309916597,115.19980969373137,"[16, 0, 238]",238,a,0.04099932813551277,colour,0.5
002,75,0,2,1,50,50,115.70574573474005,117.77582583506592,"[6, 0, 248]",248,a,1.5509636220522225,colour,0.5
002,75,0,2,2,1,51,122.69537617370952,124.33582309400663,"[34, 0, 220]",220,a,1.1222000531852245,colour,0.5
002,75,0,2,2,2,52,124.8602663341444,125.46375438838731,"[42, 0, 212]",212,a,0.07163067045621574,colour,0.5
002,75,0,2,2,3,53,125.967240315862,127.23978069098666,"[96, 0, 158]",158,l,0.7402509426465258,colour,0.5
002,75,0,2,2,4,54,127.7576876693638,132.9677956381347,"[36, 0, 218]",218,a,4.68668518261984,colour,0.5
002,75,0,2,2,5,55,133.47515070496593,134.61574295419268,"[58, 0, 196]",196,a,0.6172887983266264,colour,0.5
002,75,0,2,2,6,56,135.1315534923924,135.8638014922617,"[15, 0, 239]",239,a,0.20923126849811524,colour,0.5
002,75,0,2,2,7,57,136.38158401544206,138.17579771450255,"[95, 0, 159]",159,l,1.2705427900655195,colour,0.5
002,75,0,2,2,8,58,138.6927066881908,142.11976175487507,"[68, 0, 186]",186,l,2.9080165699124336,colour,0.5
002,75,0,2,2,9,59,142.6392575064674,144.31976600841153,"[2, 0, 252]",252,a,1.1615192358149216,colour,0.5
002,75,0,2,2,10,60,144.84101516066585,145.48781559825875,"[46, 0, 208]",208,a,0.1294645353918895,colour,0.5
002,75,0,2,2,11,61,146.00949955603573,147.48781874903943,"[77, 0, 177]",177,l,0.9611376781249419,colour,0.5
002,75,0,2,2,12,62,147.99733012053184,149.57577944011427,"[98, 0, 156]",156,l,1.059375770506449,colour,0.5
002,75,0,2,2,13,63,150.08698395383544,151.4558676299639,"[43, 0, 211]",211,a,0.8455306005198509,colour,0.5
002,75,0,2,2,14,64,151.9700574935414,152.79175334551837,"[63, 0, 191]",191,a,0.298271490377374,colour,0.5
002,75,0,2,2,15,65,153.29827149037737,153.99174893437885,"[9, 0, 245]",245,a,0.17655271664261818,colour,0.5
002,75,0,2,2,16,66,154.50223743682727,156.04781758331228,"[93, 0, 161]",161,l,1.0224692859919742,colour,0.5
002,75,0,2,2,17,67,156.57030222914182,158.64776654087473,"[80, 0, 174]",174,l,1.5506119179772213,colour,0.5
002,75,0,2,2,18,68,159.16169095248915,160.48775337066036,"[6, 0, 248]",248,a,0.8084760301280767,colour,0.5
002,75,0,2,2,19,69,161.00070301431697,161.53574542759452,"[28, 0, 226]",226,a,0.002887676004320383,colour,0.5
002,75,0,2,2,20,70,162.0499486818444,164.30374988273252,"[47, 0, 207]",207,a,1.7355102229630575,colour,0.5
002,75,0,2,2,21,71,164.81330260809045,166.4638197667664,"[73, 0, 181]",181,l,1.133463249891065,colour,0.5
002,75,0,2,2,22,72,166.98507403896656,167.65581910824403,"[76, 0, 178]",178,l,0.1416229432215914,colour,0.5
002,75,0,2,2,23,73,168.16289966460317,169.3916987584671,"[16, 0, 238]",238,a,0.7054905229015276,colour,0.5
002,75,0,2,2,24,74,169.91005787160248,170.5117267529713,"[45, 0, 209]",209,a,0.0782583043910563,colour,0.5
002,75,0,2,2,25,75,171.01954813301563,171.53575684910174,"[52, 0, 202]",202,a,0.0024540519807487726,colour,0.5
002,75,0,2,2,26,76,172.05725057946984,173.6797861889936,"[97, 0, 157]",157,l,1.0970845184056088,colour,0.5
002,75,0,2,2,27,77,174.19978488143533,175.44773944432382,"[0, 0, 254]",254,a,0.7249157761689276,colour,0.5
002,75,0,2,2,28,78,175.96553929662332,177.30373373511247,"[27, 0, 227]",227,a,0.8136550999479368,colour,0.5
002,75,0,2,2,29,79,177.8147007599473,180.26372217177413,"[17, 0, 237]",237,a,1.92567897005938,colour,0.5
002,75,0,2,2,30,80,180.78372598427814,181.39971036592033,"[13, 0, 241]",241,a,0.10287286748643965,colour,0.5
002,75,0,2,2,31,81,181.91409321373794,183.34372599993367,"[89, 0, 165]",165,l,0.9062328430591151,colour,0.5
002,75,0,2,2,32,82,183.85172736737877,185.31974198378157,"[82, 0, 172]",172,l,0.9447702422039583,colour,0.5
002,75,0,2,2,33,83,185.83620866877027,188.15172350767534,"[88, 0, 166]",166,l,1.80236000160221,colour,0.5
002,75,0,2,2,34,84,188.67032798670698,190.54369795811363,"[54, 0, 200]",200,a,1.3499369452474639,colour,0.5
002,75,0,2,2,35,85,191.06236781552434,191.79166985023767,"[62, 0, 192]",192,a,0.21723263594321907,colour,0.5
002,75,0,2,2,36,86,192.30171409482136,194.03968348982744,"[64, 0, 190]",190,a,1.2147974885301664,colour,0.5
002,75,0,2,2,37,87,194.55189664231148,195.61571105278563,"[38, 0, 216]",216,a,0.5407070947112516,colour,0.5
002,75,0,2,2,38,88,196.13021402352024,196.7116790189175,"[22, 0, 232]",232,a,0.06903050176333636,colour,0.5
002,75,0,2,2,39,89,197.22211001988035,199.03169551317114,"[67, 0, 187]",187,l,1.2636851503048092,colour,0.5
002,75,0,2,2,40,90,199.53842948540114,200.11965777957812,"[87, 0, 167]",167,l,0.0579031816450879,colour,0.5
002,75,0,2,2,41,91,200.63240695593413,202.2317174897762,"[10, 0, 244]",244,a,1.0760397721314803,colour,0.5
002,75,0,2,2,42,92,202.752021806431,203.327668914455,"[7, 0, 247]",247,a,0.05253073375206441,colour,0.5
002,75,0,2,2,43,93,203.83950200583786,204.791682453244,"[56, 0, 198]",198,a,0.42883879342116416,colour,0.5
002,75,0,2,2,44,94,205.3083929286804,207.35970431636088,"[39, 0, 215]",215,a,1.5365181526867673,colour,0.5
002,75,0,2,2,45,95,207.86846935050562,208.43170205096249,"[48, 0, 206]",206,a,0.040026529342867434,colour,0.5
002,75,0,2,2,46,96,208.94942037737928,210.80769345886074,"[60, 0, 194]",194,a,1.3348703813971952,colour,0.5
002,75,0,2,2,47,97,211.32463945401832,211.89572031598072,"[25, 0, 229]",229,a,0.04682784923352301,colour,0.5
002,75,0,2,2,48,98,212.40369647729676,214.35163441987243,"[69, 0, 185]",185,l,1.4245864424156025,colour,0.5
002,75,0,2,2,49,99,214.85798714950215,215.64768777170684,"[59, 0, 195]",195,a,0.2662888636114076,colour,0.5
002,75,0,2,2,50,100,216.15653827029746,218.05566653248388,"[24, 0, 230]",230,a,1.3761465831194073,colour,0.5
002,75,0,2,3,1,101,228.28645651589613,231.00761146016885,"[67, 0, 187]",187,l,2.194987054215744,colour,0.5
002,75,0,2,3,2,102,231.52399780065753,233.17570319154765,"[93, 0, 161]",161,l,1.1350181523011997,colour,0.5
002,75,0,2,3,3,103,233.6966955565149,235.19166457268875,"[4, 0, 250]",250,a,0.9723075336078182,colour,0.5
002,75,0,2,3,4,104,235.71240605786443,237.03964686219115,"[99, 0, 155]",155,l,0.8037770581431687,colour,0.5
002,75,0,2,3,5,105,237.56132097390946,238.815681041684,"[30, 0, 224]",224,a,0.6864748690277338,colour,0.5
002,75,0,2,3,6,106,239.32870906067546,240.60761201160494,"[90, 0, 164]",164,l,0.7474082990083843,colour,0.5
002,75,0,2,3,7,107,241.11940296145622,242.5836665922543,"[26, 0, 228]",228,a,0.947827665717341,colour,0.5
002,75,0,2,3,8,108,243.0995590504026,243.7436644025147,"[46, 0, 208]",208,a,0.12533703341614455,colour,0.5
002,75,0,2,3,9,109,244.25275081465952,244.78367320890538,"[41, 0, 213]",213,a,0.005452792509458959,colour,0.5
002,75,0,2,3,10,110,245.30179050087463,246.95962885557674,"[79, 0, 175]",175,l,1.125746238976717,colour,0.5
002,75,0,2,3,11,111,247.46933045447804,249.04764822963625,"[85, 0, 169]",169,l,1.0601244709687307,colour,0.5
002,75,0,2,3,12,112,249.56140801380388,250.52767434949055,"[73, 0, 181]",181,l,0.4487614737590775,colour,0.5
002,75,0,2,3,13,113,251.04592673049774,251.64764838723931,"[75, 0, 179]",179,l,0.08510531042702496,colour,0.5
002,75,0,2,3,14,114,252.1570416049799,253.35962633497547,"[13, 0, 241]",241,a,0.6846549084875733,colour,0.5
002,75,0,2,3,15,115,253.87732221209444,255.29564966005273,"[86, 0, 168]",168,l,0.8999624270945787,colour,0.5
002,75,0,2,3,16,116,255.81390243489295,257.1836104298709,"[98, 0, 156]",156,l,0.8526052492670715,colour,0.5
002,75,0,2,3,17,117,257.7073116649408,259.07965488091577,"[12, 0, 242]",242,a,0.8544382067630067,colour,0.5
002,75,0,2,3,18,118,259.5980301417876,260.3916396816494,"[29, 0, 225]",225,a,0.27028482127934694,colour,0.5
002,75,0,2,3,19,119,260.9105808986351,262.5915990367066,"[83, 0, 171]",171,l,1.1577513148076832,colour,0.5
002,75,0,2,3,20,120,263.0991817462491,264.31162364420015,"[58, 0, 196]",196,a,0.6889824840473011,colour,0.5
002,75,0,2,3,21,121,264.8181524229003,266.24763082165737,"[34, 0, 220]",220,a,0.9063683259300888,colour,0.5
002,75,0,2,3,22,122,266.7557137151016,268.9436347853625,"[11, 0, 243]",243,a,1.6636034668190405,colour,0.5
002,75,0,2,3,23,123,269.4604870452313,270.43964709853753,"[49, 0, 205]",205,a,0.4558652669657022,colour,0.5
002,75,0,2,3,24,124,270.96057447895873,271.56763550057076,"[10, 0, 244]",244,a,0.08377174916677177,colour,0.5
002,75,0,2,3,25,125,272.0940101596061,273.5836342970142,"[71, 0, 183]",183,l,0.9663246249547228,colour,0.5
002,75,0,2,3,26,126,274.0864506869111,275.7755887400126,"[63, 0, 191]",191,l,1.1657731622690335,colour,0.5
002,75,0,2,3,27,127,276.2897277974989,277.3676024962915,"[35, 0, 219]",219,a,0.5547929828753695,colour,0.5
002,75,0,2,3,28,128,277.8775289810728,278.4556147811236,"[17, 0, 237]",237,a,0.06051555962767452,colour,0.5
002,75,0,2,3,29,129,278.973573747091,280.9275686413748,"[7, 0, 247]",247,a,1.4359918175032362,colour,0.5
002,75,0,2,3,30,130,281.4494184080977,282.88754998880904,"[94, 0, 160]",160,l,0.9214207114418969,colour,0.5
002,75,0,2,3,31,131,283.3995610984275,284.12759061786346,"[92, 0, 162]",162,l,0.20637864468153566,colour,0.5
002,75,0,2,3,32,132,284.64080019970424,286.0476033312734,"[37, 0, 217]",217,a,0.8887819380033761,colour,0.5
002,75,0,2,3,33,133,286.5702041616896,287.1435894143069,"[42, 0, 212]",212,a,0.04654821893200278,colour,0.5
002,75,0,2,3,34,134,287.66484092967585,289.1436291927239,"[82, 0, 172]",172,l,0.9467662518145517,colour,0.5
002,75,0,2,3,35,135,289.6576178011019,290.7196205218788,"[20, 0, 234]",234,a,0.5311776063172147,colour,0.5
002,75,0,2,3,36,136,291.2308998663211,293.3755636914866,"[39, 0, 215]",215,a,1.613831621594727,colour,0.5
002,75,0,2,3,37,137,293.8850218937732,295.4636074840091,"[96, 0, 158]",158,l,1.0610870296368375,colour,0.5
002,75,0,2,3,38,138,295.97874612151645,298.1400148716057,"[24, 0, 230]",230,a,1.6290911698015407,colour,0.5
002,75,0,2,3,39,139,298.6525564912008,300.05556295101997,"[76, 0, 178]",178,l,0.8799180486239493,colour,0.5
002,75,0,2,3,40,140,300.57463531859685,305.27160341630224,"[59, 0, 195]",195,a,4.173754049697891,colour,0.5
002,75,0,2,3,41,141,305.7786760957679,306.4555505842436,"[36, 0, 218]",218,a,0.15355764678679407,colour,0.5
002,75,0,2,3,42,142,306.9662178927101,309.63956194906496,"[44, 0, 210]",210,a,2.1558951204642653,colour,0.5
002,75,0,2,3,43,143,310.14616870926693,311.7915560287656,"[84, 0, 170]",170,l,1.122112619341351,colour,0.5
002,75,0,2,3,44,144,312.30258843209594,313.951538085239,"[19, 0, 235]",235,a,1.1328555460786447,colour,0.5
002,75,0,2,3,45,145,314.4591853854945,315.87154725391883,"[70, 0, 184]",184,l,0.8890391191234812,colour,0.5
002,75,0,2,3,46,146,316.38116338837426,318.5355579571333,"[57, 0, 197]",197,a,1.6310072287451476,colour,0.5
002,75,0,2,3,47,147,319.0544074079953,320.8875460503623,"[78, 0, 176]",176,l,1.3098655175417662,colour,0.5
002,75,0,2,3,48,148,321.3982389586745,323.2794933253899,"[5, 0, 249]",249,a,1.3578626943053678,colour,0.5
002,75,0,2,3,49,149,323.7901893845992,324.40753725974355,"[56, 0, 198]",198,a,0.09393926744814962,colour,0.5
002,75,0,2,3,50,150,324.9153212243691,326.991518928553,"[45, 0, 209]",209,a,1.5529037055093795,colour,0.5
002,75,0,2,4,1,151,333.87011089897715,336.3995331353508,"[88, 0, 166]",166,l,2.0104065826162696,colour,0.5
002,75,0,2,4,2,152,336.92279326333664,337.4795030928217,"[93, 0, 161]",161,l,0.04021675686817616,colour,0.5
002,75,0,2,4,3,153,337.990631200606,339.35948139976244,"[35, 0, 219]",219,a,0.8518545795232058,colour,0.5
002,75,0,2,4,4,154,339.87236724048853,342.1355199116515,"[38, 0, 216]",216,a,1.7372904053190723,colour,0.5
002,75,0,2,4,5,155,342.6562673045555,343.4794857635861,"[1, 0, 253]",253,a,0.2981935088755563,colour,0.5
002,75,0,2,4,6,156,343.9860492007574,344.99151538393926,"[55, 0, 199]",199,a,0.4822430767817423,colour,0.5
002,75,0,2,4,7,157,345.50173764675856,347.3834701421438,"[36, 0, 218]",218,a,1.3584172290284187,colour,0.5
002,75,0,2,4,8,158,347.8831885425607,350.0555011172546,"[82, 0, 172]",172,l,1.6398711178917438,colour,0.5
002,75,0,2,4,9,159,350.571289993939,352.23953020514455,"[18, 0, 236]",236,a,1.1521354702999815,colour,0.5
002,75,0,2,4,10,160,352.75216280308086,354.4075155982282,"[78, 0, 176]",176,l,1.137830997700803,colour,0.5
002,75,0,2,4,11,161,354.9228940877365,356.40749078593217,"[69, 0, 185]",185,l,0.9534277565544471,colour,0.5
002,75,0,2,4,12,162,356.9181226481451,358.41544646723196,"[95, 0, 159]",159,l,0.9690271933795884,colour,0.5
002,75,0,2,4,13,163,358.9315775957657,359.5434959153645,"[96, 0, 158]",158,l,0.0945544543210417,colour,0.5
002,75,0,2,4,14,164,360.0585640545469,361.3674599241931,"[99, 0, 155]",155,l,0.791563905775547,colour,0.5
002,75,0,2,4,15,165,361.8847666818183,363.35145561397076,"[39, 0, 215]",215,a,0.9489993564784527,colour,0.5
002,75,0,2,4,16,166,363.86647885479033,364.39196066581644,"[23, 0, 231]",231,a,0.002642704057507217,colour,0.5
002,75,0,2,4,17,167,364.9223454608582,367.047516291379,"[54, 0, 200]",200,a,1.5936029233271256,colour,0.5
002,75,0,2,4,18,168,367.5569516506512,368.6714173636865,"[63, 0, 191]",191,a,0.6007874549832195,colour,0.5
002,75,0,2,4,19,169,369.1859561743913,369.87146848486736,"[21, 0, 233]",233,a,0.162396723870188,colour,0.5
002,75,0,2,4,20,170,370.3891962635098,371.0714483199408,"[59, 0, 195]",195,a,0.1589403348043561,colour,0.5
002,75,0,2,4,21,171,371.5923587649595,372.2234813903924,"[41, 0, 213]",213,a,0.11600407399237156,colour,0.5
002,75,0,2,4,22,172,372.74059043754824,374.3114393245196,"[97, 0, 157]",157,l,1.0457676169462502,colour,0.5
002,75,0,2,4,23,173,374.82613724889234,375.3914427588461,"[83, 0, 171]",171,l,0.04205128981266171,colour,0.5
002,75,0,2,4,24,174,375.9043285995722,377.61545111460146,"[62, 0, 192]",192,l,1.1926483990391716,colour,0.5
002,75,0,2,4,25,175,378.12394872750156,378.8635443111416,"[73, 0, 181]",181,l,0.2221946967765689,colour,0.5
002,75,0,2,4,26,176,379.3769610556774,380.8794769414235,"[43, 0, 211]",211,a,0.9791450871853158,colour,0.5
002,75,0,2,4,27,177,381.3927656862652,383.4074510075152,"[72, 0, 182]",182,l,1.4913936856901273,colour,0.5
002,75,0,2,4,28,178,383.92954180785455,384.83943190122955,"[65, 0, 189]",189,l,0.3866378423990682,colour,0.5
002,75,0,2,4,29,179,385.351507207728,386.9274528507376,"[6, 0, 248]",248,a,1.052472050767392,colour,0.5
002,75,0,2,4,30,180,387.4454216628801,389.71943856519647,"[4, 0, 250]",250,a,1.7506598883774132,colour,0.5
002,75,0,2,4,31,181,390.2264533493435,390.86346357280854,"[0, 0, 254]",254,a,0.11365911725442857,colour,0.5
002,75,0,2,4,32,182,391.3850368600106,391.95940318203066,"[15, 0, 239]",239,a,0.05115109251346439,colour,0.5
002,75,0,2,4,33,183,392.47889499517623,394.59145804005675,"[34, 0, 220]",220,a,1.5893277291906998,colour,0.5
002,75,0,2,4,34,184,395.1029957472347,396.7514475794742,"[87, 0, 167]",167,l,1.125181858194992,colour,0.5
002,75,0,2,4,35,185,397.25930716248695,398.0074417127762,"[66, 0, 188]",188,l,0.22341049823444337,colour,0.5
002,75,0,2,4,36,186,398.517070844071,400.0794626842253,"[42, 0, 212]",212,a,1.0313784674508497,colour,0.5
002,75,0,2,4,37,187,400.6005759597756,402.99940096074715,"[57, 0, 197]",197,l,1.875548725365661,colour,0.5
002,75,0,2,4,38,188,403.5081852932926,404.567422430031,"[2, 0, 252]",252,a,0.5358253782615066,colour,0.5
002,75,0,2,4,39,189,405.0864758930402,406.7114588592667,"[79, 0, 175]",175,l,1.101874862681143,colour,0.5
002,75,0,2,4,40,190,407.2273245358374,408.7994199441746,"[26, 0, 228]",228,a,1.0488376434659585,colour,0.5
002,75,0,2,4,41,191,409.32708799210377,410.29544052807614,"[52, 0, 202]",202,a,0.44250169151928276,colour,0.5
002,75,0,2,4,42,192,410.8048565889476,411.57541552674957,"[7, 0, 247]",247,a,0.2386976155685261,colour,0.5
002,75,0,2,4,43,193,412.08616160426755,412.9433957210276,"[47, 0, 207]",207,a,0.33978872548323125,colour,0.5
002,75,0,2,4,44,194,413.4620706983842,414.1274417443201,"[5, 0, 249]",249,a,0.140116483788006,colour,0.5
002,75,0,2,4,45,195,414.6449556647567,416.29537948197685,"[67, 0, 187]",187,l,1.1323793866904452,colour,0.5
002,75,0,2,4,46,196,416.80598338122945,418.2074207601836,"[14, 0, 240]",240,a,0.869153460371308,colour,0.5
002,75,0,2,4,47,197,418.72391146980226,419.76739950827323,"[30, 0, 224]",224,a,0.5112702860496938,colour,0.5
002,75,0,2,4,48,198,420.27776552469004,420.83144943846855,"[24, 0, 230]",230,a,0.030369828920811415,colour,0.5
002,75,0,2,4,49,199,421.328805946745,422.6954293429153,"[98, 0, 156]",156,l,0.8428028259659186,colour,0.5
002,75,0,2,4,50,200,423.20450709038414,425.09543154842686,"[9, 0, 245]",245,a,1.368687147158198,colour,0.5
002,75,0,2,5,1,201,430.45716889586765,435.75142276717816,"[49, 0, 205]",205,a,4.7773208731086925,colour,0.5
002,75,0,2,5,2,202,436.2677252185531,437.93538883980364,"[95, 0, 159]",159,l,1.1406694430625066,colour,0.5
002,75,0,2,5,3,203,438.4448895774549,439.39868794265203,"[69, 0, 185]",185,l,0.43284184020012617,colour,0.5
002,75,0,2,5,4,204,439.9117285646498,440.63135026814416,"[67, 0, 187]",187,l,0.19624460337217897,colour,0.5
002,75,0,2,5,5,205,441.14620573073626,442.55138779373374,"[47, 0, 207]",207,a,0.8818719167029485,colour,0.5
002,75,0,2,5,6,206,443.0681876720628,443.7273501357995,"[56, 0, 198]",198,a,0.13581726513803005,colour,0.5
002,75,0,2,5,7,207,444.24346551054623,444.8873522783397,"[44, 0, 210]",210,a,0.12051833234727383,colour,0.5
002,75,0,2,5,8,208,445.39985293801874,445.93534000287764,"[58, 0, 196]",196,a,0.012110358686186373,colour,0.5
002,75,0,2,5,9,209,446.4467725532595,448.1594263401348,"[79, 0, 175]",175,l,1.1891715299570933,colour,0.5
002,75,0,2,5,10,210,448.65558004390914,450.0153828217881,"[40, 0, 214]",214,a,0.8291667093290016,colour,0.5
002,75,0,2,5,11,211,450.5324071921641,452.02337828162126,"[99, 0, 155]",155,l,0.9677314414875582,colour,0.5
002,75,0,2,5,12,212,452.5419028098695,454.1674119537929,"[15, 0, 239]",239,a,1.102158825378865,colour,0.5
002,75,0,2,5,13,213,454.6779878899688,456.8393220183207,"[27, 0, 227]",227,a,1.6381295326864347,colour,0.5
002,75,0,2,5,14,214,457.3499593944289,457.8793434278341,"[26, 0, 228]",228,a,0.006433861912228167,colour,0.5
002,75,0,2,5,15,215,458.39694556966424,460.89537806413136,"[60, 0, 194]",194,l,1.9868817903334275,colour,0.5
002,75,0,2,5,16,216,461.41392425401136,462.63128882821184,"[55, 0, 199]",199,a,0.694274193723686,colour,0.5
002,75,0,2,5,17,217,463.14837345690466,463.96733090037014,"[10, 0, 244]",244,a,0.29563666321337223,colour,0.5
002,75,0,2,5,18,218,464.4796058865031,465.0633354941383,"[48, 0, 206]",206,a,0.06039464904461056,colour,0.5
002,75,0,2,5,19,219,465.57346008333843,466.1033100360073,"[57, 0, 197]",197,a,0.006401172722689807,colour,0.5
002,75,0,2,5,20,220,466.6184459166834,468.44734481093474,"[41, 0, 213]",213,a,1.305758495349437,colour,0.5
002,75,0,2,5,21,221,468.9621998796938,470.6873303017346,"[83, 0, 171]",171,l,1.2051628433400765,colour,0.5
002,75,0,2,5,22,222,471.1991669377312,472.98338798596524,"[8, 0, 246]",246,a,1.261155086220242,colour,0.5
002,75,0,2,5,23,223,473.4940139404498,474.90333138243295,"[89, 0, 165]",165,l,0.8983413586392999,colour,0.5
002,75,0,2,5,24,224,475.41930733574554,476.6792997897137,"[37, 0, 217]",217,a,0.7367870705202222,colour,0.5
002,75,0,2,5,25,225,477.1850601756014,477.8393235937692,"[46, 0, 208]",208,a,0.13107497012242675,colour,0.5
002,75,0,2,5,26,226,478.35695921245497,479.8233251911588,"[90, 0, 164]",164,l,0.942747057415545,colour,0.5
002,75,0,2,5,27,227,480.3361452596728,481.6953178845579,"[11, 0, 243]",243,a,0.83607161056716,colour,0.5
002,75,0,2,5,28,228,482.20164540817495,482.76734515756834,"[0, 0, 254]",254,a,0.042929565417580307,colour,0.5
002,75,0,2,5,29,229,483.2798123403918,483.85533420555294,"[16, 0, 238]",238,a,0.05216918350197375,colour,0.5
002,75,0,2,5,30,230,484.36978282558266,485.91127249144483,"[78, 0, 176]",176,l,1.0181424979818985,colour,0.5
002,75,0,2,5,31,231,486.4325165237533,488.2393068947131,"[45, 0, 209]",209,a,1.2834727416047826,colour,0.5
002,75,0,2,5,32,232,488.7484555343399,490.1753377028508,"[68, 0, 186]",186,l,0.9036543358815834,colour,0.5
002,75,0,2,5,33,233,490.68800968537107,491.32731917954516,"[75, 0, 179]",179,l,0.11602179706096649,colour,0.5
002,75,0,2,5,34,234,491.84436087915674,494.3592939293012,"[76, 0, 178]",178,l,1.9915602824185044,colour,0.5
002,75,0,2,5,35,235,494.86788567132317,495.4873232912505,"[72, 0, 182]",182,l,0.09631021798122674,colour,0.5
002,75,0,2,5,36,236,496.0084499574732,497.7192786638625,"[81, 0, 173]",173,l,1.1874472739873454,colour,0.5
002,75,0,2,5,37,237,498.22747537866235,500.00733773747925,"[6, 0, 248]",248,a,1.2565923847723752,colour,0.5
002,75,0,2,5,38,238,500.5151469083503,501.03933178575244,"[31, 0, 223]",223,a,0.0007191620534285903,colour,0.5
002,75,0,2,5,39,239,501.56212756969035,504.27130645676516,"[19, 0, 235]",235,a,2.1857584639219567,colour,0.5
002,75,0,2,5,40,240,504.7841588205192,508.3672874198528,"[84, 0, 170]",170,l,3.059871622128412,colour,0.5
002,75,0,2,5,41,241,508.8781595278997,510.43929145589937,"[53, 0, 201]",201,l,1.0493327073054388,colour,0.5
002,75,0,2,5,42,242,510.94914862385485,512.8312733893981,"[35, 0, 219]",219,a,1.3656100312946364,colour,0.5
002,75,0,2,5,43,243,513.348801488406,515.0392916135024,"[93, 0, 161]",161,l,1.1671886433614418,colour,0.5
002,75,0,2,5,44,244,515.5466368341586,517.1672874985961,"[38, 0, 216]",216,a,1.0975338963326067,colour,0.5
002,75,0,2,5,45,245,517.6874547569314,519.0633000481175,"[82, 0, 172]",172,l,0.852492609526962,colour,0.5
002,75,0,2,5,46,246,519.5800967756659,520.3352457162691,"[77, 0, 177]",177,l,0.2112564225681126,colour,0.5
002,75,0,2,5,47,247,520.851578099886,522.2152783739148,"[9, 0, 245]",245,a,0.8404247860889882,colour,0.5
002,75,0,2,5,48,248,522.7268003273057,523.5672834025463,"[14, 0, 240]",240,a,0.3171808058395982,colour,0.5
002,75,0,2,5,49,249,524.0861738134408,525.8872262476943,"[94, 0, 160]",160,l,1.2901279446668923,colour,0.5
002,75,0,2,5,50,250,526.3998442733428,527.8073185178218,"[30, 0, 224]",224,a,0.8841223504859954,colour,0.5
002,75,0,2,6,1,251,534.1499405686045,537.1432117164368,"[67, 0, 187]",187,l,2.4607765218243003,colour,0.5
002,75,0,2,6,2,252,537.652518288116,538.4792266131844,"[96, 0, 158]",158,l,0.2942172436742112,colour,0.5
002,75,0,2,6,3,253,538.9923192228889,540.8472765181214,"[59, 0, 195]",195,l,1.3403901276178658,colour,0.5
002,75,0,2,6,4,254,541.350394200068,542.7672372438246,"[39, 0, 215]",215,a,0.8934411314548925,colour,0.5
002,75,0,2,6,5,255,543.2880315044895,545.0392545920331,"[84, 0, 170]",170,l,1.2278794643934816,colour,0.5
002,75,0,2,6,6,256,545.5525283706374,546.1592148450436,"[91, 0, 163]",163,l,0.08353071555029601,colour,0.5
002,75,0,2,6,7,257,546.6776613920229,548.0712624248117,"[17, 0, 237]",237,a,0.8703322403598577,colour,0.5
002,75,0,2,6,8,258,548.5854026637971,550.8152229993138,"[63, 0, 191]",191,l,1.7065877767745405,colour,0.5
002,75,0,2,6,9,259,551.3244263834786,551.9591897177743,"[76, 0, 178]",178,l,0.11143507109954953,colour,0.5
002,75,0,2,6,10,260,552.480701958877,553.8791902218945,"[34, 0, 220]",220,a,0.8751277044648305,colour,0.5
002,75,0,2,6,11,261,554.3987982193939,554.9591818408808,"[28, 0, 226]",226,a,0.04545411583967507,colour,0.5
002,75,0,2,6,12,262,555.469339119154,556.0232002633857,"[14, 0, 240]",240,a,0.030775489867664874,colour,0.5
002,75,0,2,6,13,263,556.5319270944456,558.9671706052031,"[13, 0, 241]",241,a,1.9119101276155561,colour,0.5
002,75,0,2,6,14,264,559.4778320059413,560.0952027241001,"[23, 0, 231]",231,a,0.10150937386788428,colour,0.5
002,75,0,2,6,15,265,560.6043186746538,562.1512032377068,"[74, 0, 180]",180,l,1.0193972901906818,colour,0.5
002,75,0,2,6,16,266,562.6633159593912,564.2471818376798,"[85, 0, 169]",169,l,1.0655792326433584,colour,0.5
002,75,0,2,6,17,267,564.7695219422458,565.8552168394672,"[86, 0, 168]",168,l,0.5677595619345084,colour,0.5
002,75,0,2,6,18,268,566.3722223052755,568.047219725675,"[15, 0, 239]",239,a,1.1574551430530846,colour,0.5
002,75,0,2,6,19,269,568.5595837208675,570.1033962882357,"[1, 0, 253]",253,a,1.0271993718342856,colour,0.5
002,75,0,2,6,20,270,570.6163549902849,572.2552178634796,"[47, 0, 207]",207,a,1.1202922648517415,colour,0.5
002,75,0,2,6,21,271,572.767948922934,574.4072434508707,"[92, 0, 162]",162,l,1.1160052554914728,colour,0.5
002,75,0,2,6,22,272,574.912580452743,575.9672123527853,"[70, 0, 184]",184,l,0.531332781421952,colour,0.5
002,75,0,2,6,23,273,576.4750924158143,578.0472390240757,"[5, 0, 249]",249,a,1.0486277237068862,colour,0.5
002,75,0,2,6,24,274,578.5567657555221,580.4552150277887,"[98, 0, 156]",156,l,1.3750639014178887,colour,0.5
002,75,0,2,6,25,275,580.9790537150111,582.4071934324456,"[45, 0, 209]",209,a,0.91078648599796,colour,0.5
002,75,0,2,6,26,276,582.9274741184199,583.4871905653272,"[4, 0, 250]",250,a,0.03558355709537864,colour,0.5
002,75,0,2,6,27,277,584.0003607624676,585.4311648455914,"[97, 0, 157]",157,l,0.9019997904542834,colour,0.5
002,75,0,2,6,28,278,585.9453448629938,586.7031534429407,"[72, 0, 182]",182,l,0.23966056806966662,colour,0.5
002,75,0,2,6,29,279,587.2141712739831,588.7194054821739,"[36, 0, 218]",218,a,0.9868002644507214,colour,0.5
002,75,0,2,6,30,280,589.2432055723621,590.9431542936945,"[65, 0, 189]",189,l,1.180566791095771,colour,0.5
002,75,0,2,6,31,281,591.4604252114659,592.9111448854674,"[87, 0, 167]",167,l,0.9273303647059947,colour,0.5
002,75,0,2,6,32,282,593.427290192456,595.8396170086926,"[62, 0, 192]",192,a,1.8890993774402887,colour,0.5
002,75,0,2,6,33,283,596.3523130158428,598.3991987603949,"[69, 0, 185]",185,l,1.5237670071655884,colour,0.5
002,75,0,2,6,34,284,598.9150412001181,600.399128655903,"[27, 0, 227]",227,a,0.9610478813992813,colour,0.5
002,75,0,2,6,35,285,600.913061732077,601.4951596374158,"[16, 0, 238]",238,a,0.056995367631316185,colour,0.5
002,75,0,2,6,36,286,602.0170838410268,604.1352906934917,"[31, 0, 223]",223,a,1.5854192053666338,colour,0.5
002,75,0,2,6,37,287,604.64592019259,605.3111762356712,"[37, 0, 217]",217,a,0.14654798270203173,colour,0.5
002,75,0,2,6,38,288,605.8227824718924,607.0311527939048,"[3, 0, 251]",251,a,0.689522446366027,colour,0.5
002,75,0,2,6,39,289,607.5519978605444,609.2231434708228,"[93, 0, 161]",161,l,1.1526667680591345,colour,0.5
002,75,0,2,6,40,290,609.74228397361,610.599124638713,"[71, 0, 183]",183,l,0.34562512359116226,colour,0.5
002,75,0,2,6,41,291,611.1167196913157,614.367144847638,"[48, 0, 206]",206,a,2.71748469711747,colour,0.5
002,75,0,2,6,42,292,614.878116598702,615.6790890822886,"[46, 0, 208]",208,a,0.28352709219325334,colour,0.5
002,75,0,2,6,43,293,616.1934868963435,616.8231865575071,"[51, 0, 203]",203,a,0.11174502747599036,colour,0.5
002,75,0,2,6,44,294,617.3392219815869,617.9191549175885,"[30, 0, 224]",224,a,0.06194561312440783,colour,0.5
002,75,0,2,6,45,295,618.4378913347609,618.991127839894,"[22, 0, 232]",232,a,0.03602387651335448,colour,0.5
002,75,0,2,6,46,296,619.5025647225557,620.8151497440413,"[88, 0, 166]",166,l,0.7841324330074713,colour,0.5
002,75,0,2,6,47,297,621.3292864382965,622.9591278840089,"[26, 0, 228]",228,a,1.111998270265758,colour,0.5
002,75,0,2,6,48,298,623.4806247651577,624.7351006235695,"[82, 0, 172]",172,l,0.7363660496193916,colour,0.5
002,75,0,2,6,49,299,625.2499734153971,626.1111018775264,"[61, 0, 193]",193,l,0.3353741099126637,colour,0.5
002,75,0,2,6,50,300,626.6350937706884,628.0791188570438,"[38, 0, 216]",216,a,0.9249196357559413,colour,0.5
002,75,0,2,7,1,301,634.4239342340734,636.0951117457589,"[88, 0, 166]",166,l,1.152031101169996,colour,0.5
002,75,0,2,7,2,302,636.6096513441298,637.1351221274817,"[89, 0, 165]",165,l,0.006994304130785167,colour,0.5
002,75,0,2,7,3,303,637.6577505271416,639.0470936950296,"[37, 0, 217]",217,a,0.8716429584892467,colour,0.5
002,75,0,2,7,4,304,639.5642090437468,640.5830726731801,"[1, 0, 253]",253,a,0.4920206880196929,colour,0.5
002,75,0,2,7,5,305,641.101015097578,642.4550641849637,"[56, 0, 198]",198,a,0.8249919458758086,colour,0.5
002,75,0,2,7,6,306,642.9661509388825,643.6551164876437,"[18, 0, 236]",236,a,0.17276274028699845,colour,0.5
002,75,0,2,7,7,307,644.1640493000159,646.0870788706234,"[49, 0, 205]",205,a,1.3996694058878347,colour,0.5
002,75,0,2,7,8,308,646.5994314444251,647.6071378214983,"[58, 0, 196]",196,a,0.48432888311799616,colour,0.5
002,75,0,2,7,9,309,648.1151521857828,648.7110996720148,"[12, 0, 242]",242,a,0.07290082261897624,colour,0.5
002,75,0,2,7,10,310,649.2121453321306,650.7351116512436,"[87, 0, 167]",167,l,0.9995829175459221,colour,0.5
002,75,0,2,7,11,311,651.2768592860084,652.8151009071153,"[36, 0, 218]",218,a,1.0139716730918735,colour,0.5
002,75,0,2,7,12,312,653.3225642814068,653.8631051732227,"[40, 0, 214]",214,a,0.01708974875509739,colour,0.5
002,75,0,2,7,13,313,654.369564635097,656.2390375043033,"[50, 0, 204]",204,a,1.3463482240913436,colour,0.5
002,75,0,2,7,14,314,656.7506382267457,657.3431458653649,"[48, 0, 206]",206,a,0.06937708589248359,colour,0.5
002,75,0,2,7,15,315,657.8600863466272,659.3110683219275,"[84, 0, 170]",170,l,0.9279561854200438,colour,0.5
002,75,0,2,7,16,316,659.8235981261823,661.247072348604,"[10, 0, 244]",244,a,0.9000589193310589,colour,0.5
002,75,0,2,7,17,317,661.766666561598,662.3270155244973,"[6, 0, 248]",248,a,0.02819501340854913,colour,0.5
002,75,0,2,7,18,318,662.8469133925391,664.4710539228981,"[65, 0, 189]",189,l,1.1071653907420114,colour,0.5
002,75,0,2,7,19,319,664.992054952425,665.9750384589424,"[11, 0, 243]",243,a,0.4517999925883487,colour,0.5
002,75,0,2,7,20,320,666.4909415509319,668.1830046953401,"[32, 0, 222]",222,a,1.1750253833597526,colour,0.5
002,75,0,2,7,21,321,668.7042302169139,670.2630916249473,"[71, 0, 183]",183,l,1.0403896550415084,colour,0.5
002,75,0,2,7,22,322,670.7682112241164,672.5350235085934,"[95, 0, 159]",159,l,1.2489202722208574,colour,0.5
002,75,0,2,7,23,323,673.0514003967401,675.8950476277387,"[14, 0, 240]",240,a,2.3204174290876836,colour,0.5
002,75,0,2,7,24,324,676.4150734954746,677.8710277716164,"[7, 0, 247]",247,a,0.9326827266486362,colour,0.5
002,75,0,2,7,25,325,678.3839392121881,679.5030460018897,"[24, 0, 230]",230,a,0.5957812833366916,colour,0.5
002,75,0,2,7,26,326,680.010432182462,682.2550051868893,"[68, 0, 186]",186,l,1.7212419842835516,colour,0.5
002,75,0,2,7,27,327,682.7756170969224,684.4629982047481,"[3, 0, 251]",251,a,1.1640662353020161,colour,0.5
002,75,0,2,7,28,328,684.9788961766753,685.9189859577455,"[45, 0, 209]",209,a,0.42564155475702137,colour,0.5
002,75,0,2,7,29,329,686.4261700955685,687.2069831977133,"[55, 0, 199]",199,a,0.25740094983484596,colour,0.5
002,75,0,2,7,30,330,687.7232155445963,688.3270001645433,"[34, 0, 220]",220,a,0.08048353216145188,colour,0.5
002,75,0,2,7,31,331,688.8331733007217,689.4390153702116,"[46, 0, 208]",208,a,0.09251669712830335,colour,0.5
002,75,0,2,7,32,332,689.9500383210834,691.6549987278413,"[94, 0, 160]",160,l,1.1816258420003578,colour,0.5
002,75,0,2,7,33,333,692.1668578130193,693.8070507028606,"[38, 0, 216]",216,a,1.1168429651297629,colour,0.5
002,75,0,2,7,34,334,694.3232550866669,696.2310294414638,"[92, 0, 162]",162,l,1.3897803365252912,colour,0.5
002,75,0,2,7,35,335,696.7491680011153,697.4391524284147,"[96, 0, 158]",158,l,0.16659275500569493,colour,0.5
002,75,0,2,7,36,336,697.9523525579134,698.5510167911416,"[93, 0, 161]",161,l,0.07548090512864292,colour,0.5
002,75,0,2,7,37,337,699.0615627950756,700.6790398516459,"[21, 0, 233]",233,a,1.0973290966358036,colour,0.5
002,75,0,2,7,38,338,701.1878454517573,702.9910561599536,"[86, 0, 168]",168,l,1.257404494448565,colour,0.5
002,75,0,2,7,39,339,703.506444495637,704.3030078776646,"[75, 0, 179]",179,l,0.27927080274093896,colour,0.5
002,75,0,2,7,40,340,704.8172843871871,706.3670345708961,"[13, 0, 241]",241,a,1.016708112321794,colour,0.5
002,75,0,2,7,41,341,706.8783020999981,709.0870579968905,"[61, 0, 193]",193,l,1.6906539648771286,colour,0.5
002,75,0,2,7,42,342,709.5960876952158,712.1030244979775,"[62, 0, 192]",192,l,1.9896780942799523,colour,0.5
002,75,0,2,7,43,343,712.6173128228402,714.2389717320912,"[59, 0, 195]",195,l,1.098388935206458,colour,0.5
002,75,0,2,7,44,344,714.7588369108271,715.7830210005632,"[60, 0, 194]",194,l,0.5015789270401001,colour,0.5
002,75,0,2,7,45,345,716.2855451571522,717.8869863956934,"[2, 0, 252]",252,a,1.0783666119677946,colour,0.5
002,75,0,2,7,46,346,718.3840999013046,720.7430551233701,"[82, 0, 172]",172,l,1.835635623545386,colour,0.5
002,75,0,2,7,47,347,721.2597600849112,721.791257099947,"[97, 0, 157]",157,l,0.013210763223469257,colour,0.5
002,75,0,2,7,48,348,722.307008561329,724.6789961347822,"[99, 0, 155]",155,l,1.8401872972026467,colour,0.5
002,75,0,2,7,49,349,725.1886374752503,726.7830001267139,"[20, 0, 234]",234,a,1.077126392046921,colour,0.5
002,75,0,2,7,50,350,727.2928490239428,729.1190201435238,"[26, 0, 228]",228,a,1.2940959391416982,colour,0.5
002,75,0,2,8,1,351,759.5748692628695,771.630898921052,"[65, 0, 189]",189,a,11.531872743740678,colour,0.5
002,75,0,2,8,2,352,772.1541574735893,773.4628961987328,"[2, 0, 252]",252,a,0.7857751629780978,colour,0.5
002,75,0,2,8,3,353,773.9838476037839,775.8869548881194,"[13, 0, 241]",241,a,1.3719099857844412,colour,0.5
002,75,0,2,8,4,354,776.3993496033363,778.8789109853096,"[49, 0, 205]",205,a,1.9622042120900005,colour,0.5
002,75,0,2,8,5,355,779.4006095153745,782.2069190008333,"[79, 0, 175]",175,l,2.2729062576545402,colour,0.5
002,75,0,2,8,6,356,782.7287392292637,783.4068854452344,"[96, 0, 158]",158,l,0.14649245038162917,colour,0.5
002,75,0,2,8,7,357,783.9174728029175,785.7188915136503,"[25, 0, 229]",229,a,1.276853772229515,colour,0.5
002,75,0,2,8,8,358,786.2305209868355,787.2788852278609,"[60, 0, 194]",194,a,0.5314316366566345,colour,0.5
002,75,0,2,8,9,359,787.791778157698,788.3669089342002,"[56, 0, 198]",198,a,0.05707019823603332,colour,0.5
002,75,0,2,8,10,360,788.8886334580602,789.5669147630688,"[29, 0, 225]",225,a,0.16009469621349126,colour,0.5
002,75,0,2,8,11,361,790.0801101664547,790.6228896767134,"[21, 0, 233]",233,a,0.023637038189917803,colour,0.5
002,75,0,2,8,12,362,791.1331682594027,792.1268474312965,"[57, 0, 197]",197,a,0.4702209396054968,colour,0.5
002,75,0,2,8,13,363,792.6422912991839,794.4628851710586,"[48, 0, 206]",206,a,1.2917080532060936,colour,0.5
002,75,0,2,8,14,364,794.9744685643818,797.6789102763869,"[83, 0, 171]",171,l,2.185284667648375,colour,0.5
002,75,0,2,8,15,365,798.1928760417504,799.1909087828826,"[67, 0, 187]",187,l,0.47998043370898813,colour,0.5
002,75,0,2,8,16,366,799.7093773852102,801.5428578854771,"[38, 0, 216]",216,a,1.315842124633491,colour,0.5
002,75,0,2,8,17,367,802.0656902970513,803.0389655092731,"[9, 0, 245]",245,a,0.41443467792123556,colour,0.5
002,75,0,2,8,18,368,803.5581891136244,805.5589311186923,"[77, 0, 177]",177,l,1.4776138154556975,colour,0.5
002,75,0,2,8,19,369,806.0740386424586,807.83885649289,"[37, 0, 217]",217,a,1.2413722211495042,colour,0.5
002,75,0,2,8,20,370,808.3570344370091,809.4388503488153,"[12, 0, 242]",242,a,0.5585290023591369,colour,0.5
002,75,0,2,8,21,371,809.9494042296428,811.9108475320973,"[63, 0, 191]",191,l,1.4384119987953454,colour,0.5
002,75,0,2,8,22,372,812.4314377806149,813.1908477368997,"[99, 0, 155]",155,l,0.23054698074702173,colour,0.5
002,75,0,2,8,23,373,813.7083616573364,815.4308418921428,"[18, 0, 236]",236,a,1.1904397128382698,colour,0.5
002,75,0,2,8,24,374,815.9503136192216,818.2788111848058,"[61, 0, 193]",193,a,1.7950884301681072,colour,0.5
002,75,0,2,8,25,375,818.8017420578981,819.7188178644283,"[36, 0, 218]",218,a,0.3984394260914996,colour,0.5
002,75,0,2,8,26,376,820.240995704662,821.7428274806589,"[82, 0, 172]",172,l,0.9839960836106911,colour,0.5
002,75,0,2,8,27,377,822.258531680447,823.9589053612435,"[35, 0, 219]",219,a,1.1556918962160125,colour,0.5
002,75,0,2,8,28,378,824.4760281930212,827.9668716763845,"[44, 0, 210]",210,a,2.9674923771526664,colour,0.5
002,75,0,2,8,29,379,828.4879022443201,829.1748103435384,"[0, 0, 254]",254,a,0.16358338063582778,colour,0.5
002,75,0,2,8,30,380,829.6953655398684,831.2308470909484,"[76, 0, 178]",178,l,1.012115872465074,colour,0.5
002,75,0,2,8,31,381,831.7299987474689,833.2868239737581,"[16, 0, 238]",238,a,1.036225919262506,colour,0.5
002,75,0,2,8,32,382,833.7936012690188,834.3908622304443,"[51, 0, 203]",203,a,0.07386219978798181,colour,0.5
002,75,0,2,8,33,383,834.8988060964039,836.7427979421336,"[28, 0, 226]",226,a,1.3206596440868452,colour,0.5
002,75,0,2,8,34,384,837.250900134095,839.0227851500968,"[62, 0, 192]",192,a,1.2485575404716656,colour,0.5
002,75,0,2,8,35,385,839.5409095312934,840.1027866151417,"[52, 0, 202]",202,a,0.03857363294810057,colour,0.5
002,75,0,2,8,36,386,840.6190185681917,841.9748277515173,"[92, 0, 162]",162,l,0.832630975288339,colour,0.5
002,75,0,2,8,37,387,842.4857699641725,843.9907926772721,"[19, 0, 235]",235,a,0.9881322502624243,colour,0.5
002,75,0,2,8,38,388,844.510241167387,846.2468104412546,"[64, 0, 190]",190,l,1.2133422290207818,colour,0.5
002,75,0,2,8,39,389,846.7603744841181,847.4388405027566,"[91, 0, 163]",163,l,0.1535919114248827,colour,0.5
002,75,0,2,8,40,390,847.9465252183145,848.5508108099457,"[74, 0, 180]",180,l,0.08092424541246146,colour,0.5
002,75,0,2,8,41,391,849.071610978106,850.6628362555057,"[32, 0, 222]",222,a,1.0658521676668897,colour,0.5
002,75,0,2,8,42,392,851.1844028473133,851.8147913444554,"[26, 0, 228]",228,a,0.10708189546130598,colour,0.5
002,75,0,2,8,43,393,852.3148405752145,852.8948188034119,"[5, 0, 249]",249,a,0.06089798372704536,colour,0.5
002,75,0,2,8,44,394,853.4073060723022,855.8307791132247,"[59, 0, 195]",195,a,1.9064218889689073,colour,0.5
002,75,0,2,8,45,395,856.3524323510937,859.3748260186985,"[50, 0, 204]",204,a,2.4907855881610885,colour,0.5
002,75,0,2,8,46,396,859.8960330294212,860.5747743460815,"[23, 0, 231]",231,a,0.14696624665521085,colour,0.5
002,75,0,2,8,47,397,861.0854459868278,863.638770319405,"[72, 0, 182]",182,l,2.0221912309061736,colour,0.5
002,75,0,2,8,48,398,864.1543630609522,866.2388122245902,"[42, 0, 212]",212,a,1.5624721846543252,colour,0.5
002,75,0,2,8,49,399,866.7483310791431,867.870781224221,"[31, 0, 223]",223,a,0.5991569340694696,colour,0.5
002,75,0,2,8,50,400,868.3793619385688,870.3107890853425,"[81, 0, 173]",173,l,1.4081374804954976,colour,0.5
002,75,0,2,9,1,401,876.8264227869222,882.9347913759993,"[10, 0, 244]",244,l,5.5909373762551695,colour,0.5
002,75,0,2,9,2,402,883.454469084274,884.3027156442404,"[80, 0, 174]",174,l,0.3242211900651455,colour,0.5
002,75,0,2,9,3,403,884.8200956571382,885.4307320092339,"[88, 0, 166]",166,l,0.09325397608336061,colour,0.5
002,75,0,2,9,4,404,885.9487469013548,887.7187579999445,"[12, 0, 242]",242,a,1.251760686864145,colour,0.5
002,75,0,2,9,5,405,888.2393549438566,890.1427398893284,"[65, 0, 189]",189,l,1.3856540160486475,colour,0.5
002,75,0,2,9,6,406,890.6532051549293,892.0307841544272,"[17, 0, 237]",237,a,0.8596747780684382,colour,0.5
002,75,0,2,9,7,407,892.5516819964396,894.9907788926503,"[33, 0, 221]",221,a,1.921929953736253,colour,0.5
002,75,0,2,9,8,408,895.5086110404227,897.6707312846556,"[60, 0, 194]",194,l,1.6386332613183185,colour,0.5
002,75,0,2,9,9,409,898.179953573388,899.2308352756081,"[76, 0, 178]",178,l,0.5259859333746135,colour,0.5
002,75,0,2,9,10,410,899.7441279587802,900.85475919093,"[81, 0, 173]",173,l,0.5872214428381994,colour,0.5
002,75,0,2,9,11,411,901.369028217392,902.7427589514991,"[83, 0, 171]",171,l,0.8506072706077248,colour,0.5
002,75,0,2,9,12,412,903.2562832159456,905.2707424698165,"[44, 0, 210]",210,a,1.4850783713627607,colour,0.5
002,75,0,2,9,13,413,905.7799710602267,907.2227551389951,"[58, 0, 196]",196,a,0.9258109084330499,colour,0.5
002,75,0,2,9,14,414,907.7381371732336,908.9107033845503,"[37, 0, 217]",217,a,0.654902235721238,colour,0.5
002,75,0,2,9,15,415,909.4245131870266,909.9667326488998,"[45, 0, 209]",209,a,0.017073207302019,colour,0.5
002,75,0,2,9,16,416,910.4827208115021,911.598700466915,"[52, 0, 202]",202,a,0.5842904438031837,colour,0.5
002,75,0,2,9,17,417,912.123419005191,914.3747673355974,"[69, 0, 185]",185,l,1.727948387269862,colour,0.5
002,75,0,2,9,18,418,914.8860151724657,916.7027233635308,"[99, 0, 155]",155,l,1.2935989060206339,colour,0.5
002,75,0,2,9,19,419,917.2227618343895,918.9586737799691,"[7, 0, 247]",247,a,1.212625036132522,colour,0.5
002,75,0,2,9,20,420,919.4644424366998,921.6467567207292,"[64, 0, 190]",190,a,1.6589895654469728,colour,0.5
002,75,0,2,9,21,421,922.1677609010367,922.8147338429699,"[55, 0, 199]",199,a,0.12991115625482053,colour,0.5
002,75,0,2,9,22,422,923.3247737553902,924.3826785124838,"[67, 0, 187]",187,a,0.5409981466364115,colour,0.5
002,75,0,2,9,23,423,924.8971428863006,925.6066659945063,"[50, 0, 204]",204,a,0.19260822690557688,colour,0.5
002,75,0,2,9,24,424,926.1174703610595,926.670759641449,"[34, 0, 220]",220,a,0.02078362670727074,colour,0.5
002,75,0,2,9,25,425,927.1988589504035,927.8387017115019,"[4, 0, 250]",250,a,0.12207165942527354,colour,0.5
002,75,0,2,9,26,426,928.3620630577207,928.9586895337561,"[48, 0, 206]",206,a,0.07917832769453526,colour,0.5
002,75,0,2,9,27,427,929.4754539660644,930.0387339281151,"[30, 0, 224]",224,a,0.045348171377554536,colour,0.5
002,75,0,2,9,28,428,930.5567507894011,932.2306856142823,"[98, 0, 156]",156,l,1.1566835994599387,colour,0.5
002,75,0,2,9,29,429,932.7496492804494,933.686680456507,"[75, 0, 179]",179,l,0.4192781912861392,colour,0.5
002,75,0,2,9,30,430,934.2110929766204,935.6866765180603,"[13, 0, 241]",241,a,0.9524644102202728,colour,0.5
002,75,0,2,9,31,431,936.1956329609966,937.8386642961996,"[95, 0, 159]",159,l,1.1196762904291973,colour,0.5
002,75,0,2,9,32,432,938.3468842479633,939.8627668599365,"[56, 0, 198]",198,a,0.9925578933907673,colour,0.5
002,75,0,2,9,33,433,940.3835430035833,941.3986666749697,"[24, 0, 230]",230,a,0.4917847743490711,colour,0.5
002,75,0,2,9,34,434,941.9154842764838,942.4706640157383,"[3, 0, 251]",251,a,0.03188022680114955,colour,0.5
002,75,0,2,9,35,435,942.9780490148114,944.6226301324787,"[31, 0, 223]",223,a,1.122446206631139,colour,0.5
002,75,0,2,9,36,436,945.1345226945123,946.534639902995,"[66, 0, 188]",188,l,0.8768287237035111,colour,0.5
002,75,0,2,9,37,437,947.0419063544832,948.4306272463873,"[93, 0, 161]",161,l,0.8652488749939948,colour,0.5
002,75,0,2,9,38,438,948.9366696256911,950.3907263536239,"[18, 0, 236]",236,a,0.9350245326058939,colour,0.5
002,75,0,2,9,39,439,950.9013231636491,951.7026375052519,"[11, 0, 243]",243,a,0.27808926592115313,colour,0.5
002,75,0,2,9,40,440,952.2139294527005,953.7426620654296,"[68, 0, 186]",186,l,1.0002315811580047,colour,0.5
002,75,0,2,9,41,441,954.2520899416413,955.5186749772402,"[8, 0, 246]",246,a,0.7364074033685029,colour,0.5
002,75,0,2,9,42,442,956.0291626920225,956.5592012967682,"[16, 0, 238]",238,a,0.0136510826414451,colour,0.5
002,75,0,2,9,43,443,957.0797364069149,957.6066825359594,"[6, 0, 248]",248,a,0.00786824757233262,colour,0.5
002,75,0,2,9,44,444,958.1319205565378,959.1666561641032,"[42, 0, 212]",212,a,0.5176466464763507,colour,0.5
002,75,0,2,9,45,445,959.6810165627394,961.1907165863086,"[77, 0, 177]",177,l,0.9798366801114753,colour,0.5
002,75,0,2,9,46,446,961.7080902977614,963.0466120218625,"[25, 0, 229]",229,a,0.8216698581818491,colour,0.5
002,75,0,2,9,47,447,963.5565763157792,964.9586095832055,"[70, 0, 184]",184,l,0.8796974951401353,colour,0.5
002,75,0,2,9,48,448,965.4661249450874,966.4786212724866,"[14, 0, 240]",240,a,0.4891928763827309,colour,0.5
002,75,0,2,9,49,449,966.9974573326763,968.3426437121816,"[71, 0, 183]",183,l,0.8330815345980227,colour,0.5
002,75,0,2,9,50,450,968.8640728519531,969.9026961094933,"[15, 0, 239]",239,a,0.5153324096463621,colour,0.5
002,75,0,2,10,1,451,977.3099872156745,979.2546424551401,"[63, 0, 191]",191,l,1.4206936724949628,colour,0.5
002,75,0,2,10,2,452,979.7695325760869,980.574669977068,"[94, 0, 160]",160,l,0.28191232529934496,colour,0.5
002,75,0,2,10,3,453,981.0821069637313,982.5586101345252,"[16, 0, 238]",238,a,0.9532194121275097,colour,0.5
002,75,0,2,10,4,454,983.0665859020082,983.8705976922065,"[56, 0, 198]",198,a,0.2779207000276074,colour,0.5
002,75,0,2,10,5,455,984.3988458748208,986.7346232826822,"[87, 0, 167]",167,l,1.8180720785167068,colour,0.5
002,75,0,2,10,6,456,987.2533423707355,990.614595682011,"[97, 0, 157]",157,l,2.82933448755648,colour,0.5
002,75,0,2,10,7,457,991.1343360117171,992.6626227911329,"[32, 0, 222]",222,a,1.0114349134964868,colour,0.5
002,75,0,2,10,8,458,993.1824962407118,993.7825909211533,"[40, 0, 214]",214,a,0.0843258899403736,colour,0.5
002,75,0,2,10,9,459,994.2934740569908,994.8545823541936,"[7, 0, 247]",247,a,0.011990235769189894,colour,0.5
002,75,0,2,10,10,460,995.3669648602372,997.0946028971812,"[90, 0, 164]",164,l,1.2043814535718411,colour,0.5
002,75,0,2,10,11,461,997.6014987400267,998.2465780723142,"[75, 0, 179]",179,l,0.12191254575736821,colour,0.5
002,75,0,2,10,12,462,998.7459557963302,999.9425966083072,"[4, 0, 250]",250,a,0.6740722769172862,colour,0.5
002,75,0,2,10,13,463,1000.4463854030473,1002.1985486000776,"[34, 0, 220]",220,a,1.2286919677862898,colour,0.5
002,75,0,2,10,14,464,1002.7123710056767,1004.2945878523169,"[99, 0, 155]",155,l,1.0588614080334082,colour,0.5
002,75,0,2,10,15,465,1004.8062574977521,1006.1345884667244,"[25, 0, 229]",229,a,0.8113637061323971,colour,0.5
002,75,0,2,10,16,466,1006.6484222938307,1008.3425590354018,"[70, 0, 184]",184,l,1.1625589882023633,colour,0.5
002,75,0,2,10,17,467,1008.85934749234,1009.4866143692052,"[88, 0, 166]",166,l,0.11016610043589026,colour,0.5
002,75,0,2,10,18,468,1010.0056505029788,1011.4305539911147,"[36, 0, 218]",218,a,0.8929244061000645,colour,0.5
002,75,0,2,10,19,469,1011.9547715577064,1014.6865465489682,"[67, 0, 187]",187,l,2.2127199529204518,colour,0.5
002,75,0,2,10,20,470,1015.2002728561638,1016.7425498194061,"[12, 0, 242]",242,a,1.0158904888667166,colour,0.5
002,75,0,2,10,21,471,1017.2506626452086,1019.0305801423965,"[74, 0, 180]",180,l,1.2567349568707868,colour,0.5
002,75,0,2,10,22,472,1019.54868443741,1022.4546033856459,"[45, 0, 209]",209,a,2.382554451120086,colour,0.5
002,75,0,2,10,23,473,1022.97084282164,1025.9185416998807,"[18, 0, 236]",236,a,2.4239271448459476,colour,0.5
002,75,0,2,10,24,474,1026.4412102717906,1031.0705456257565,"[3, 0, 251]",251,a,4.112628423143178,colour,0.5
002,75,0,2,10,25,475,1031.5912004649872,1032.9746363426093,"[22, 0, 232]",232,a,0.8650153245544061,colour,0.5
002,75,0,2,10,26,476,1033.4876167062903,1037.23857552337,"[61, 0, 193]",193,l,3.2286982693476602,colour,0.5
002,75,0,2,10,27,477,1037.7529386789538,1038.430551628,"[82, 0, 172]",172,l,0.1542295473627746,colour,0.5
002,75,0,2,10,28,478,1038.9320817182306,1040.9745268535335,"[30, 0, 224]",224,a,1.52554010017775,colour,0.5
002,75,0,2,10,29,479,1041.492585068685,1044.3025029675337,"[66, 0, 188]",188,l,2.2866691924864426,colour,0.5
002,75,0,2,10,30,480,1044.8184143302497,1047.5105235546362,"[73, 0, 181]",181,l,2.1749080172739923,colour,0.5
002,75,0,2,10,31,481,1048.0249576024944,1048.862524644821,"[98, 0, 156]",156,l,0.31419545609969646,colour,0.5
002,75,0,2,10,32,482,1049.379724670318,1051.2305119283265,"[49, 0, 205]",205,a,1.3223299433011562,colour,0.5
002,75,0,2,10,33,483,1051.745263021905,1052.7424974379828,"[42, 0, 212]",212,a,0.4739234821172431,colour,0.5
002,75,0,2,10,34,484,1053.26096682786,1054.9345377393765,"[89, 0, 165]",165,l,1.1502725805621594,colour,0.5
002,75,0,2,10,35,485,1055.4490962424316,1056.7985337915597,"[5, 0, 249]",249,a,0.8260541475610808,colour,0.5
002,75,0,2,10,36,486,1057.3086579868104,1058.8624880171847,"[78, 0, 176]",176,l,1.0338486671680585,colour,0.5
002,75,0,2,10,37,487,1059.3747866341146,1061.0945343681378,"[68, 0, 186]",186,l,1.2008396000601351,colour,0.5
002,75,0,2,10,38,488,1061.6072902397718,1063.0385216453578,"[29, 0, 225]",225,a,0.9078377640107647,colour,0.5
002,75,0,2,10,39,489,1063.5344205310103,1065.5185087744612,"[93, 0, 161]",161,l,1.4608529278775677,colour,0.5
002,75,0,2,10,40,490,1066.0391573121306,1067.566544154426,"[21, 0, 233]",233,a,1.0040995390154421,colour,0.5
002,75,0,2,10,41,491,1068.0863132347586,1069.7344838613644,"[65, 0, 189]",189,l,1.12505385838449,colour,0.5
002,75,0,2,10,42,492,1070.2464780355804,1071.7105069344398,"[1, 0, 253]",253,a,0.9407896447228268,colour,0.5
002,75,0,2,10,43,493,1072.2308975032065,1073.0464962312253,"[2, 0, 252]",252,a,0.29131617688108236,colour,0.5
002,75,0,2,10,44,494,1073.5600055295508,1074.1745027501602,"[27, 0, 227]",227,a,0.09111303137615323,colour,0.5
002,75,0,2,10,45,495,1074.6979964285856,1076.1984686494106,"[62, 0, 192]",192,l,0.9708739354973659,colour,0.5
002,75,0,2,10,46,496,1076.7211959043052,1078.3905881138053,"[48, 0, 206]",206,l,1.137266616919078,colour,0.5
002,75,0,2,10,47,497,1078.901346794446,1080.2785524282372,"[96, 0, 158]",158,l,0.8601934727048501,colour,0.5
002,75,0,2,10,48,498,1080.802619545837,1082.318450564053,"[6, 0, 248]",248,a,0.9986573803471401,colour,0.5
002,75,0,2,10,49,499,1082.834243379184,1084.454459631932,"[60, 0, 194]",194,l,1.101922124158591,colour,0.5
002,75,0,2,10,50,500,1084.967184389825,1085.8384606780019,"[38, 0, 216]",216,a,0.35082939942367375,colour,0.5
002,75,0,2,11,1,501,1092.3805391431088,1094.9184794722823,"[18, 0, 236]",236,a,2.0183721099747345,colour,0.5
002,75,0,2,11,2,502,1095.4276123582385,1097.510497954674,"[60, 0, 194]",194,l,1.5656422479078174,colour,0.5
002,75,0,2,11,3,503,1098.0311957231024,1098.9344873271184,"[29, 0, 225]",225,a,0.3859572771470994,colour,0.5
002,75,0,2,11,4,504,1099.4546463147271,1100.102473114035,"[4, 0, 250]",250,a,0.12706759094726294,colour,0.5
002,75,0,2,11,5,505,1100.6174987179693,1102.9424213470193,"[7, 0, 247]",247,a,1.7913795860949904,colour,0.5
002,75,0,2,11,6,506,1103.454298549099,1105.1664990197169,"[58, 0, 196]",196,l,1.18064752954524,colour,0.5
002,75,0,2,11,7,507,1105.6804695111932,1107.4304382004775,"[84, 0, 170]",170,l,1.230400470085442,colour,0.5
002,75,0,2,11,8,508,1107.9407734969864,1109.4864158709534,"[16, 0, 238]",238,a,1.0285538067109883,colour,0.5
002,75,0,2,11,9,509,1109.999549834407,1112.0464674804825,"[71, 0, 183]",183,l,1.5294391716597602,colour,0.5
002,75,0,2,11,10,510,1112.5587219867157,1114.1344636176946,"[74, 0, 180]",180,l,1.0571316381683573,colour,0.5
002,75,0,2,11,11,511,1114.6320410732878,1116.1904787035892,"[31, 0, 223]",223,a,1.039653163868934,colour,0.5
002,75,0,2,11,12,512,1116.7000412750058,1118.3584231366403,"[81, 0, 173]",173,l,1.1351079491432756,colour,0.5
002,75,0,2,11,13,513,1118.8764159734128,1119.6864185491577,"[86, 0, 168]",168,l,0.286814127699472,colour,0.5
002,75,0,2,11,14,514,1120.1957621424226,1120.9425914883614,"[77, 0, 177]",177,l,0.21970047254581004,colour,0.5
002,75,0,2,11,15,515,1121.461442514672,1122.9984332821332,"[39, 0, 215]",215,a,1.01352583989501,colour,0.5
002,75,0,2,11,16,516,1123.5083900929894,1124.2544037846383,"[19, 0, 235]",235,a,0.22250504710245878,colour,0.5
002,75,0,2,11,17,517,1124.766292014392,1125.9104020927334,"[52, 0, 202]",202,a,0.6264303488424048,colour,0.5
002,75,0,2,11,18,518,1126.4161904415814,1126.9425288668135,"[10, 0, 244]",244,a,0.010025733849033713,colour,0.5
002,75,0,2,11,19,519,1127.4564264969667,1128.5983905104222,"[64, 0, 190]",190,a,0.61853216891177,colour,0.5
002,75,0,2,11,20,520,1129.107046055491,1129.6624357145047,"[40, 0, 214]",214,a,0.03520507144276053,colour,0.5
002,75,0,2,11,21,521,1130.1739423078252,1131.582386987866,"[92, 0, 162]",162,l,0.8851313828490674,colour,0.5
002,75,0,2,11,22,522,1132.0959856892005,1133.7744099601405,"[59, 0, 195]",195,a,1.1551409061066806,colour,0.5
002,75,0,2,11,23,523,1134.2836539105047,1135.0704440135742,"[63, 0, 191]",191,a,0.27389835473150015,colour,0.5
002,75,0,2,11,24,524,1135.5943382330006,1136.1344096608227,"[56, 0, 198]",198,a,0.021187712321989238,colour,0.5
002,75,0,2,11,25,525,1136.6536659542471,1138.6463955643121,"[67, 0, 187]",187,a,1.4695128051098436,colour,0.5
002,75,0,2,11,26,526,1139.1646223453572,1141.1984146925388,"[8, 0, 246]",246,a,1.5228517099749297,colour,0.5
002,75,0,2,11,27,527,1141.7180829485878,1143.0544121342245,"[98, 0, 156]",156,l,0.8131261653034016,colour,0.5
002,75,0,2,11,28,528,1143.5644477141323,1144.8543523483677,"[48, 0, 206]",206,a,0.7646843366092071,colour,0.5
002,75,0,2,11,29,529,1145.3733321622713,1147.1663757460192,"[9, 0, 245]",245,a,1.2639486331027001,colour,0.5
002,75,0,2,11,30,530,1147.6755661333445,1149.5344347093487,"[95, 0, 159]",159,l,1.328709848341532,colour,0.5
002,75,0,2,11,31,531,1150.0541328976396,1152.638384350692,"[5, 0, 249]",249,l,2.052120740409009,colour,0.5
002,75,0,2,11,32,532,1153.1530035060132,1155.438382854103,"[15, 0, 239]",239,a,1.7573781067039818,colour,0.5
002,75,0,2,11,33,533,1155.9613046686864,1157.6944010119187,"[93, 0, 161]",161,l,1.2158061270602047,colour,0.5
002,75,0,2,11,34,534,1158.2039466480492,1159.5183547807392,"[89, 0, 165]",165,l,0.7838303532917053,colour,0.5
002,75,0,2,11,35,535,1160.0376626680372,1160.942345334799,"[70, 0, 184]",184,l,0.38711518328636885,colour,0.5
002,75,0,2,11,36,536,1161.4600242766319,1163.4703513022978,"[32, 0, 222]",222,a,1.4926520223962143,colour,0.5
002,75,0,2,11,37,537,1163.991318067303,1165.5183457223466,"[24, 0, 230]",230,a,1.0064303172985092,colour,0.5
002,75,0,2,11,38,538,1166.0360699563753,1168.0783618857386,"[80, 0, 174]",174,l,1.5253057619556785,colour,0.5
002,75,0,2,11,39,539,1168.597396050347,1170.4063620243687,"[0, 0, 254]",254,a,1.2917946992674842,colour,0.5
002,75,0,2,11,40,540,1170.918626376777,1171.6623585207853,"[12, 0, 242]",242,a,0.2248527609044686,colour,0.5
002,75,0,2,11,41,541,1172.1722389255883,1172.8864606118295,"[45, 0, 209]",209,a,0.19547581672668457,colour,0.5
002,75,0,2,11,42,542,1173.410180357634,1174.7423371428158,"[51, 0, 203]",203,a,0.8145199848804623,colour,0.5
002,75,0,2,11,43,543,1175.2555672045564,1177.1183399722213,"[85, 0, 169]",169,l,1.3452080411370844,colour,0.5
002,75,0,2,11,44,544,1177.6341918641701,1179.3343828005018,"[25, 0, 229]",229,a,1.1769965805578977,colour,0.5
002,75,0,2,11,45,545,1179.8555594851496,1181.262381915236,"[35, 0, 219]",219,a,0.8845894514815882,colour,0.5
002,75,0,2,11,46,546,1181.7765193972737,1182.862324571237,"[3, 0, 251]",251,a,0.5626364182680845,colour,0.5
002,75,0,2,11,47,547,1183.3580395310419,1185.2142937598983,"[82, 0, 172]",172,l,1.3329224210465327,colour,0.5
002,75,0,2,11,48,548,1185.7312456626678,1187.078367793467,"[27, 0, 227]",227,a,0.8240774363512173,colour,0.5
002,75,0,2,11,49,549,1187.5924052387709,1188.3503433939768,"[21, 0, 233]",233,a,0.2262745435582474,colour,0.5
002,75,0,2,11,50,550,1188.8598535838537,1191.030341865844,"[79, 0, 175]",175,l,1.6513595944270492,colour,0.5
002,75,0,2,12,1,551,1195.74790493818,1197.6223150559235,"[25, 0, 229]",229,a,1.3539620473748073,colour,0.5
002,75,0,2,12,2,552,1198.1373048198875,1199.0543766880874,"[35, 0, 219]",219,a,0.3986430444056168,colour,0.5
002,75,0,2,12,3,553,1199.5762776548509,1200.6063225610415,"[49, 0, 205]",205,a,0.5118035529740155,colour,0.5
002,75,0,2,12,4,554,1201.1235832388047,1202.3743451331975,"[95, 0, 159]",159,l,0.7331506940536201,colour,0.5
002,75,0,2,12,5,555,1202.88756495493,1204.4543280875077,"[53, 0, 201]",201,a,1.0486466282745823,colour,0.5
002,75,0,2,12,6,556,1204.9708101324504,1205.4943195646629,"[14, 0, 240]",240,a,0.009510583826340735,colour,0.5
002,75,0,2,12,7,557,1206.0179743259214,1206.5742958236951,"[12, 0, 242]",242,a,0.03153049189131707,colour,0.5
002,75,0,2,12,8,558,1207.092656512279,1208.5103022134863,"[82, 0, 172]",172,l,0.8958817927632481,colour,0.5
002,75,0,2,12,9,559,1209.031133889337,1211.9262961262139,"[89, 0, 165]",165,l,2.3640854550758377,colour,0.5
002,75,0,2,12,10,560,1212.4366964071523,1213.2702718243236,"[77, 0, 177]",177,l,0.31665896042250097,colour,0.5
002,75,0,2,12,11,561,1213.781536596478,1215.2223199396394,"[63, 0, 191]",191,l,0.9218889938201755,colour,0.5
002,75,0,2,12,12,562,1215.736109262216,1219.1344785838155,"[61, 0, 193]",193,l,2.8365233514923602,colour,0.5
002,75,0,2,12,13,563,1219.6474861227907,1220.2862639253726,"[97, 0, 157]",157,l,0.11329323460813612,colour,0.5
002,75,0,2,12,14,564,1220.8076855819672,1221.7902720920974,"[70, 0, 184]",184,l,0.4592897545080632,colour,0.5
002,75,0,2,12,15,565,1222.3078387879068,1223.0462678007316,"[68, 0, 186]",186,l,0.21870404307264835,colour,0.5
002,75,0,2,12,16,566,1223.5543585711857,1224.1182954676915,"[86, 0, 168]",168,l,0.04067007324192673,colour,0.5
002,75,0,2,12,17,567,1224.632557798759,1226.0383117255988,"[8, 0, 246]",246,a,0.8804686447838321,colour,0.5
002,75,0,2,12,18,568,1226.575918073766,1227.7022657149937,"[55, 0, 199]",199,a,0.6092192956712097,colour,0.5
002,75,0,2,12,19,569,1228.21613971435,1229.9902932810364,"[34, 0, 220]",220,a,1.2551776913460344,colour,0.5
002,75,0,2,12,20,570,1230.507556715631,1231.0783701565815,"[36, 0, 218]",218,a,0.053307791240513325,colour,0.5
002,75,0,2,12,21,571,1231.5987567869015,1234.2063014509622,"[1, 0, 253]",253,a,2.0894895996898413,colour,0.5
002,75,0,2,12,22,572,1234.7234676057706,1235.9903397548478,"[15, 0, 239]",239,a,0.7395837682997808,colour,0.5
002,75,0,2,12,23,573,1236.5018384712748,1238.038313300931,"[11, 0, 243]",243,a,1.0078264999901876,colour,0.5
002,75,0,2,12,24,574,1238.5518509561662,1241.326698478777,"[93, 0, 161]",161,l,2.243421005900018,colour,0.5
002,75,0,2,12,25,575,1241.8437988613732,1243.7422745213844,"[43, 0, 211]",211,a,1.3803036235040054,colour,0.5
002,75,0,2,12,26,576,1244.2624315397115,1246.094311451423,"[76, 0, 178]",178,l,1.3124282708158717,colour,0.5
002,75,0,2,12,27,577,1246.6131876838626,1248.2463291619206,"[52, 0, 202]",202,a,1.1063776995288208,colour,0.5
002,75,0,2,12,28,578,1248.757698303205,1250.3423030357808,"[54, 0, 200]",200,a,1.061393047682941,colour,0.5
002,75,0,2,12,29,579,1250.855260556331,1252.3502441447927,"[47, 0, 207]",207,a,0.9719790662638843,colour,0.5
002,75,0,2,12,30,580,1252.8677915422013,1254.5342279404867,"[92, 0, 162]",162,l,1.1431955688167363,colour,0.5
002,75,0,2,12,31,581,1255.055466852733,1256.390280520427,"[38, 0, 216]",216,a,0.8114093922777101,colour,0.5
002,75,0,2,12,32,582,1256.9052659521112,1257.5262442961102,"[42, 0, 212]",212,a,0.10366567864548415,colour,0.5
002,75,0,2,12,33,583,1258.048678923631,1258.6142215286382,"[20, 0, 234]",234,a,0.03639133449178189,colour,0.5
002,75,0,2,12,34,584,1259.1273901504464,1259.6782415265916,"[7, 0, 247]",247,a,0.03299599152524024,colour,0.5
002,75,0,2,12,35,585,1260.1939953509718,1262.0542545958888,"[73, 0, 181]",181,l,1.3431403515860438,colour,0.5
002,75,0,2,12,36,586,1262.5666032312438,1264.0942330762045,"[45, 0, 209]",209,a,0.9954065786441788,colour,0.5
002,75,0,2,12,37,587,1264.6086356163723,1265.3262069595512,"[59, 0, 195]",195,a,0.2007454710546881,colour,0.5
002,75,0,2,12,38,588,1265.8408186316956,1266.9422685349127,"[56, 0, 198]",198,a,0.584416474448517,colour,0.5
002,75,0,2,12,39,589,1267.443352004164,1268.7262489434797,"[22, 0, 232]",232,a,0.7595257469220087,colour,0.5
002,75,0,2,12,40,590,1269.2278763134964,1269.7587140309624,"[21, 0, 233]",233,a,0.007474401965737343,colour,0.5
002,75,0,2,12,41,591,1270.2905233656056,1271.9502301239409,"[62, 0, 192]",192,l,1.13638322125189,colour,0.5
002,75,0,2,12,42,592,1272.4706904033665,1273.1501697867643,"[85, 0, 169]",169,l,0.15615151391830295,colour,0.5
002,75,0,2,12,43,593,1273.6666037825635,1274.222218327457,"[79, 0, 175]",175,l,0.03228903852868825,colour,0.5
002,75,0,2,12,44,594,1274.7291996347485,1275.9902192380978,"[33, 0, 221]",221,a,0.7376472293399274,colour,0.5
002,75,0,2,12,45,595,1276.50056674378,1277.1422479761532,"[30, 0, 224]",224,a,0.11877044546417892,colour,0.5
002,75,0,2,12,46,596,1277.663159208838,1278.25423718791,"[39, 0, 215]",215,a,0.07369205832947046,colour,0.5
002,75,0,2,12,47,597,1278.7731110573513,1282.0462678007316,"[4, 0, 250]",250,a,2.741126855253242,colour,0.5
002,75,0,2,12,48,598,1282.5689265264664,1285.4142255458282,"[98, 0, 156]",156,l,2.32631644862704,colour,0.5
002,75,0,2,12,49,599,1285.9213254007045,1287.7342199847335,"[48, 0, 206]",206,a,1.2924307599896565,colour,0.5
002,75,0,2,12,50,600,1288.2467068599071,1289.9342356597772,"[66, 0, 188]",188,l,1.1671598926186562,colour,0.5
002,75,0,2,13,1,601,1294.632731484715,1296.3822303161724,"[76, 0, 178]",178,l,1.2233872613869607,colour,0.5
002,75,0,2,13,2,602,1296.8962665798608,1298.2061730573187,"[23, 0, 231]",231,a,0.7844230910995975,colour,0.5
002,75,0,2,13,3,603,1298.7266581490403,1299.5742028760724,"[12, 0, 242]",242,a,0.32423024834133685,colour,0.5
002,75,0,2,13,4,604,1300.0894813289633,1301.4781852853484,"[25, 0, 229]",229,a,0.8777196023147553,colour,0.5
002,75,0,2,13,5,605,1301.9853324017022,1302.7981746043079,"[46, 0, 208]",208,a,0.28959113312885165,colour,0.5
002,75,0,2,13,6,606,1303.3137582874624,1304.6781513359165,"[75, 0, 179]",179,l,0.8410931421676651,colour,0.5
002,75,0,2,13,7,607,1305.199107466964,1305.9741365525406,"[96, 0, 158]",158,l,0.25204583106096834,colour,0.5
002,75,0,2,13,8,608,1306.4755075291032,1307.0141977403546,"[82, 0, 172]",172,l,0.020921078859828413,colour,0.5
002,75,0,2,13,9,609,1307.5262289360398,1308.382238980732,"[95, 0, 159]",159,l,0.3318038994912058,colour,0.5
002,75,0,2,13,10,610,1308.900129023823,1310.214177181595,"[7, 0, 247]",247,a,0.7909999188268557,colour,0.5
002,75,0,2,13,11,611,1310.7280917470343,1311.990150315105,"[72, 0, 182]",182,l,0.7387334555387497,colour,0.5
002,75,0,2,13,12,612,1312.4996041851118,1313.6301439190283,"[93, 0, 161]",161,l,0.607293784385547,colour,0.5
002,75,0,2,13,13,613,1314.1404697631951,1314.790184264537,"[74, 0, 180]",180,l,0.1264598872512579,colour,0.5
002,75,0,2,13,14,614,1315.2850772684906,1315.82214247284,"[70, 0, 184]",184,l,0.014618367538787425,colour,0.5
002,75,0,2,13,15,615,1316.3321906558704,1317.6701223992277,"[1, 0, 253]",253,a,0.8179129647323862,colour,0.5
002,75,0,2,13,16,616,1318.1887107306393,1318.7581524071284,"[39, 0, 215]",215,a,0.04381532419938594,colour,0.5
002,75,0,2,13,17,617,1319.269262791844,1321.1821252381196,"[2, 0, 252]",252,a,1.3896763613447547,colour,0.5
002,75,0,2,13,18,618,1321.699907367467,1322.734157363302,"[36, 0, 218]",218,a,0.5108532034792006,colour,0.5
002,75,0,2,13,19,619,1323.2368205473758,1324.8941008228576,"[99, 0, 155]",155,l,1.1340370828984305,colour,0.5
002,75,0,2,13,20,620,1325.4121834563557,1326.590141414199,"[18, 0, 236]",236,a,0.6546033069025725,colour,0.5
002,75,0,2,13,21,621,1327.1049039291684,1328.8941350873793,"[88, 0, 166]",166,l,1.2610597754828632,colour,0.5
002,75,0,2,13,22,622,1329.4095663522603,1330.8141710376367,"[24, 0, 230]",230,a,0.8808975425781682,colour,0.5
002,75,0,2,13,23,623,1331.3292348445393,1331.9021864732495,"[52, 0, 202]",202,a,0.04077916836831719,colour,0.5
002,75,0,2,13,24,624,1332.4266391657293,1334.558103649062,"[62, 0, 192]",192,a,1.6146590911084786,colour,0.5
002,75,0,2,13,25,625,1335.079985711258,1336.5101088352967,"[79, 0, 175]",175,l,0.9111661532660946,colour,0.5
002,75,0,2,13,26,626,1337.0210857063066,1337.6381354402984,"[85, 0, 169]",169,l,0.08814658620394766,colour,0.5
002,75,0,2,13,27,627,1338.1605204433436,1339.8541298256023,"[87, 0, 167]",167,l,1.1746902207378298,colour,0.5
002,75,0,2,13,28,628,1340.3750036429847,1341.9501379641006,"[38, 0, 216]",216,a,1.0552486623637378,colour,0.5
002,75,0,2,13,29,629,1342.4654231122695,1344.3021158173215,"[65, 0, 189]",189,l,1.3131950882961974,colour,0.5
002,75,0,2,13,30,630,1344.8253629483515,1345.934129321482,"[19, 0, 235]",235,a,0.591034262208268,colour,0.5
002,75,0,2,13,31,631,1346.455300886184,1347.526127323974,"[40, 0, 214]",214,a,0.5461153825744987,colour,0.5
002,75,0,2,13,32,632,1348.0394109487534,1348.622107499279,"[41, 0, 213]",213,a,0.05934308120049536,colour,0.5
002,75,0,2,13,33,633,1349.1333108316176,1350.398094811244,"[86, 0, 168]",168,l,0.7414505964843556,colour,0.5
002,75,0,2,13,34,634,1350.914704068331,1353.1101074174512,"[89, 0, 165]",165,l,1.6721841811668128,colour,0.5
002,75,0,2,13,35,635,1353.6219645333476,1356.5660616934765,"[14, 0, 240]",240,a,2.4207547184778377,colour,0.5
002,75,0,2,13,36,636,1357.0749866288388,1357.7341195541667,"[45, 0, 209]",209,a,0.13672389765270054,colour,0.5
002,75,0,2,13,37,637,1358.253509361297,1358.8781189618167,"[11, 0, 243]",243,a,0.10127109731547534,colour,0.5
002,75,0,2,13,38,638,1359.3887378271902,1361.3101026124787,"[49, 0, 205]",205,a,1.4013294652104378,colour,0.5
002,75,0,2,13,39,639,1361.8198861313285,1365.3260998334736,"[29, 0, 225]",225,a,2.983179247821681,colour,0.5
002,75,0,2,13,40,640,1365.8399821035564,1368.342098236084,"[0, 0, 254]",254,a,1.981665305327624,colour,0.5
002,75,0,2,13,41,641,1368.8576819192385,1369.5260674593737,"[33, 0, 221]",221,a,0.1450104092946276,colour,0.5
002,75,0,2,13,42,642,1370.044119766797,1372.1660508234054,"[68, 0, 186]",186,l,1.5985504118725657,colour,0.5
002,75,0,2,13,43,643,1372.673874566448,1375.0060545884771,"[5, 0, 249]",249,a,1.8087946511805058,colour,0.5
002,75,0,2,13,44,644,1375.5179558151867,1376.2620329679921,"[9, 0, 245]",245,a,0.22089185554068536,colour,0.5
002,75,0,2,13,45,645,1376.783665725845,1378.2860725163482,"[94, 0, 160]",160,l,0.9802636087406427,colour,0.5
002,75,0,2,13,46,646,1378.800545161008,1380.4140400446486,"[34, 0, 220]",220,a,1.0901713465573266,colour,0.5
002,75,0,2,13,47,647,1380.9257230807561,1382.574094568612,"[90, 0, 164]",164,l,1.1251109660370275,colour,0.5
002,75,0,2,13,48,648,1383.0908420655178,1385.4701098749647,"[59, 0, 195]",195,l,1.855941515415907,colour,0.5
002,75,0,2,13,49,649,1385.9901184135815,1386.6220594501356,"[71, 0, 183]",183,l,0.1086978439707309,colour,0.5
002,75,0,2,13,50,650,1387.129544879892,1388.4061253231484,"[64, 0, 190]",190,l,0.7585206527728587,colour,0.5
002,75,0,2,14,1,651,1393.997766501503,1395.7100583441788,"[88, 0, 166]",166,l,1.19455106719397,colour,0.5
002,75,0,2,14,2,652,1396.2301980333868,1397.7420850816416,"[48, 0, 206]",206,a,0.9916618946008384,colour,0.5
002,75,0,2,14,3,653,1398.264336964814,1399.0380446983036,"[9, 0, 245]",245,a,0.2554183310130611,colour,0.5
002,75,0,2,14,4,654,1399.5490219631465,1400.7340100650908,"[25, 0, 229]",229,a,0.6584271539468318,colour,0.5
002,75,0,2,14,5,655,1401.2438940145075,1403.0140559559222,"[70, 0, 184]",184,l,1.2384014436975121,colour,0.5
002,75,0,2,14,6,656,1403.5246578860097,1405.2620365126058,"[36, 0, 218]",218,a,1.2202723363880068,colour,0.5
002,75,0,2,14,7,657,1405.7827858747914,1406.3419796884991,"[20, 0, 234]",234,a,0.04068070696666837,colour,0.5
002,75,0,2,14,8,658,1406.862294638995,1408.6780343637802,"[93, 0, 161]",161,l,1.2994565718108788,colour,0.5
002,75,0,2,14,9,659,1409.194646771648,1411.0780558676925,"[21, 0, 233]",233,a,1.360518001485616,colour,0.5
002,75,0,2,14,10,660,1411.5780893446645,1413.3740556566045,"[94, 0, 160]",160,l,1.271996868075803,colour,0.5
002,75,0,2,14,11,661,1413.8943024717737,1416.3340405487688,"[58, 0, 196]",196,l,1.916485038236715,colour,0.5
002,75,0,2,14,12,662,1416.8569024987519,1417.4140026292298,"[91, 0, 163]",163,l,0.03857363294810057,colour,0.5
002,75,0,2,14,13,663,1417.9258774683112,1418.7740488037234,"[76, 0, 178]",178,l,0.322676133713685,colour,0.5
002,75,0,2,14,14,664,1419.2923697138904,1420.9260196465766,"[45, 0, 209]",209,a,1.10167006298434,colour,0.5
002,75,0,2,14,15,665,1421.4371367265703,1422.1500555715756,"[19, 0, 235]",235,a,0.19525368779432029,colour,0.5
002,75,0,2,14,16,666,1422.65890961478,1424.5340455899714,"[84, 0, 170]",170,l,1.3561927890405059,colour,0.5
002,75,0,2,14,17,667,1425.0554593696725,1426.8379778233357,"[75, 0, 179]",179,l,1.2655811231816188,colour,0.5
002,75,0,2,14,18,668,1427.355910795508,1428.6301537652034,"[0, 0, 254]",254,a,0.7550910454010591,colour,0.5
002,75,0,2,14,19,669,1429.1508680750849,1429.9339769032085,"[52, 0, 202]",202,a,0.2573552636895329,colour,0.5
002,75,0,2,14,20,670,1430.4502147639869,1431.869974234607,"[85, 0, 169]",169,l,0.8967836992815137,colour,0.5
002,75,0,2,14,21,671,1432.388781150221,1433.0060049640015,"[81, 0, 173]",173,l,0.09386679984163493,colour,0.5
002,75,0,2,14,22,672,1433.513819648535,1434.8780138050206,"[16, 0, 238]",238,a,0.8408406870439649,colour,0.5
002,75,0,2,14,23,673,1435.3889812238049,1436.053984811646,"[32, 0, 222]",222,a,0.14161349087953568,colour,0.5
002,75,0,2,14,24,674,1436.560994475847,1437.974078263389,"[86, 0, 168]",168,l,0.8897523735649884,colour,0.5
002,75,0,2,14,25,675,1438.4862205235986,1439.869963600766,"[10, 0, 244]",244,a,0.8656750159570947,colour,0.5
002,75,0,2,14,26,676,1440.392666437081,1440.9499788504327,"[43, 0, 211]",211,a,0.026002081111073494,colour,0.5
002,75,0,2,14,27,677,1441.4718613064615,1443.5180207997328,"[23, 0, 231]",231,a,1.5288397386902943,colour,0.5
002,75,0,2,14,28,678,1444.0415227488847,1447.437979950104,"[97, 0, 157]",157,l,2.8783123401226476,colour,0.5
002,75,0,2,14,29,679,1447.9594465050614,1451.8139843548415,"[4, 0, 250]",250,a,3.336867572623305,colour,0.5
002,75,0,2,14,30,680,1452.3297925299266,1452.8620575439418,"[46, 0, 208]",208,a,0.010183666017837822,colour,0.5
002,75,0,2,14,31,681,1453.3752844549017,1454.7179403764894,"[65, 0, 189]",189,a,0.8191464893752709,colour,0.5
002,75,0,2,14,32,682,1455.2350718728267,1455.9419896921609,"[5, 0, 249]",249,a,0.19515168166253716,colour,0.5
002,75,0,2,14,33,683,1456.4591723885387,1457.045938152005,"[72, 0, 182]",182,a,0.06342686642892659,colour,0.5
002,75,0,2,14,34,684,1457.5530151637504,1458.8379179587355,"[47, 0, 207]",207,a,0.76643931271974,colour,0.5
002,75,0,2,14,35,685,1459.3509006854147,1459.9979378243443,"[37, 0, 217]",217,a,0.12366200797259808,colour,0.5
002,75,0,2,14,36,686,1460.5072668453213,1461.0940211872803,"[53, 0, 201]",201,a,0.06347609718795866,colour,0.5
002,75,0,2,14,37,687,1461.6011226174887,1464.2699449324282,"[26, 0, 228]",228,a,2.1455909376963973,colour,0.5
002,75,0,2,14,38,688,1464.7769766519777,1467.2379701826721,"[61, 0, 193]",193,l,1.9377251319820061,colour,0.5
002,75,0,2,14,39,689,1467.7504369716626,1469.5259103149874,"[40, 0, 214]",214,a,1.241617586929351,colour,0.5
002,75,0,2,14,40,690,1470.0285301760305,1470.5899933282053,"[39, 0, 215]",215,a,0.038194359629414976,colour,0.5
002,75,0,2,14,41,691,1471.1079562326195,1472.173979723244,"[57, 0, 197]",197,a,0.5425239044707268,colour,0.5
002,75,0,2,14,42,692,1472.688249931205,1473.2139266958693,"[56, 0, 198]",198,a,0.011181670823134482,colour,0.5
002,75,0,2,14,43,693,1473.7263694602298,1475.2619502603775,"[92, 0, 162]",162,l,1.0122942845337093,colour,0.5
002,75,0,2,14,44,694,1475.7739786992315,1476.3019397683674,"[98, 0, 156]",156,l,0.0046611628495156765,colour,0.5
002,75,0,2,14,45,695,1476.8209124929272,1478.245920744026,"[12, 0, 242]",242,a,0.9017579692881554,colour,0.5
002,75,0,2,14,46,696,1478.7783708655043,1479.6539412523853,"[55, 0, 199]",199,a,0.35698599403258413,colour,0.5
002,75,0,2,14,47,697,1480.1628283786122,1481.0860379367368,"[60, 0, 194]",194,a,0.4014306835597381,colour,0.5
002,75,0,2,14,48,698,1481.604896839941,1482.1899828518508,"[38, 0, 216]",216,a,0.053293218836188316,colour,0.5
002,75,0,2,14,49,699,1482.699931392097,1484.1659058881924,"[89, 0, 165]",165,l,0.9330332492245361,colour,0.5
002,75,0,2,14,50,700,1484.6817629002035,1486.2219383032061,"[11, 0, 243]",243,a,1.0209380141459405,colour,0.5
002,75,0,2,15,1,701,1491.2303756577894,1492.837910475675,"[67, 0, 187]",187,l,1.0887818591436371,colour,0.5
002,75,0,2,15,2,702,1493.3520904930774,1495.1579608406173,"[52, 0, 202]",202,a,1.2881713196402416,colour,0.5
002,75,0,2,15,3,703,1495.6746429592604,1496.749923790805,"[59, 0, 195]",195,a,0.5444242095109075,colour,0.5
002,75,0,2,15,4,704,1497.2620191833703,1498.3179291124688,"[50, 0, 204]",204,a,0.5325603982200846,colour,0.5
002,75,0,2,15,5,705,1498.8321607236285,1500.3498778684298,"[79, 0, 175]",175,l,0.9865871939109638,colour,0.5
002,75,0,2,15,6,706,1500.8605073676445,1502.8059246982448,"[60, 0, 194]",194,a,1.4223482178058475,colour,0.5
002,75,0,2,15,7,707,1503.32670674962,1503.9739601096371,"[35, 0, 219]",219,a,0.1301892112242058,colour,0.5
002,75,0,2,15,8,708,1504.4851098789368,1505.0059013825376,"[47, 0, 207]",207,a,0.003105078707449138,colour,0.5
002,75,0,2,15,9,709,1505.5205154177966,1506.0538922579726,"[18, 0, 236]",236,a,0.015714439912699163,colour,0.5
002,75,0,2,15,10,710,1506.5717326764716,1511.5659313305514,"[41, 0, 213]",213,l,4.474995923694223,colour,0.5
002,75,0,2,15,11,711,1512.0725806260016,1514.5178833475802,"[49, 0, 205]",205,a,1.9228562786011025,colour,0.5
002,75,0,2,15,12,712,1515.0366079495288,1515.7978827647166,"[46, 0, 208]",208,a,0.23804816417396069,colour,0.5
002,75,0,2,15,13,713,1516.3192965444177,1516.933872928028,"[23, 0, 231]",231,a,0.09131940640509129,colour,0.5
002,75,0,2,15,14,714,1517.444468950387,1518.8138902257197,"[93, 0, 161]",161,l,0.846144212060608,colour,0.5
002,75,0,2,15,15,715,1519.3342851268826,1521.1739474278875,"[21, 0, 233]",233,a,1.3210554589750245,colour,0.5
002,75,0,2,15,16,716,1521.693174970569,1523.2698767972179,"[74, 0, 180]",180,l,1.0587247437797487,colour,0.5
002,75,0,2,15,17,717,1523.7901677230839,1525.117877203622,"[29, 0, 225]",225,a,0.8104042982449755,colour,0.5
002,75,0,2,15,18,718,1525.6401499606436,1527.4378499810118,"[69, 0, 185]",185,l,1.2810281418496743,colour,0.5
002,75,0,2,15,19,719,1527.9569975730265,1529.3498447854072,"[66, 0, 188]",188,l,0.8712046083528548,colour,0.5
002,75,0,2,15,20,720,1529.8646600757493,1531.445826929994,"[13, 0, 241]",241,a,1.0557433323701844,colour,0.5
002,75,0,2,15,21,721,1531.9608210262377,1532.7179033549037,"[48, 0, 206]",206,a,0.23381983768194914,colour,0.5
002,75,0,2,15,22,722,1533.226486038533,1534.9418616923504,"[96, 0, 158]",158,l,1.189645326230675,colour,0.5
002,75,0,2,15,23,723,1535.461243228754,1537.157869468443,"[42, 0, 212]",212,a,1.1732148750452325,colour,0.5
002,75,0,2,15,24,724,1537.6652001168113,1538.4059201296186,"[11, 0, 243]",243,a,0.2174516140948981,colour,0.5
002,75,0,2,15,25,725,1538.9152570274891,1540.9978716582991,"[82, 0, 172]",172,l,1.55325737898238,colour,0.5
002,75,0,2,15,26,726,1541.5125656441087,1542.1818404877558,"[72, 0, 182]",182,l,0.15139267744962126,colour,0.5
002,75,0,2,15,27,727,1542.7035677685635,1544.1498169010738,"[12, 0, 242]",242,a,0.9285760984057561,colour,0.5
002,75,0,2,15,28,728,1544.6698132305173,1546.3418449932942,"[98, 0, 156]",156,l,1.1546383590903133,colour,0.5
002,75,0,2,15,29,729,1546.8634497881867,1548.12581476802,"[34, 0, 220]",220,a,0.7429160958854482,colour,0.5
002,75,0,2,15,30,730,1548.6312132098246,1550.7499312738655,"[26, 0, 228]",228,a,1.601466050837189,colour,0.5
002,75,0,2,15,31,731,1551.2626016810536,1554.9658189270413,"[19, 0, 235]",235,l,3.179824785911478,colour,0.5
002,75,0,2,15,32,732,1555.484073671163,1558.4698137030937,"[76, 0, 178]",178,l,2.4624846301740035,colour,0.5
002,75,0,2,15,33,733,1558.9870156978723,1561.453812149819,"[7, 0, 247]",247,a,1.9409869613591582,colour,0.5
002,75,0,2,15,34,734,1561.970220939489,1565.5658253860893,"[87, 0, 167]",167,l,3.078248064382933,colour,0.5
002,75,0,2,15,35,735,1566.0883305120515,1567.0459263366647,"[61, 0, 193]",193,l,0.4403698053210974,colour,0.5
002,75,0,2,15,36,736,1567.559085112298,1568.1018587149447,"[71, 0, 183]",183,l,0.017406400642357767,colour,0.5
002,75,0,2,15,37,737,1568.605057528941,1569.3097745390842,"[91, 0, 163]",163,l,0.18641067226417363,colour,0.5
002,75,0,2,15,38,738,1569.8208841361338,1571.3898480779026,"[14, 0, 240]",240,a,1.0517064147861674,colour,0.5
002,75,0,2,15,39,739,1571.9076439918717,1573.0378359600436,"[33, 0, 221]",221,a,0.5998355300398543,colour,0.5
002,75,0,2,15,40,740,1573.5471834918717,1575.3257989354897,"[68, 0, 186]",186,l,1.2609605264151469,colour,0.5
002,75,0,2,15,41,741,1575.8396536363289,1576.421764144674,"[63, 0, 191]",191,l,0.06458122783806175,colour,0.5
002,75,0,2,15,42,742,1576.9360189927975,1578.2057906332193,"[25, 0, 229]",229,a,0.7520029018633068,colour,0.5
002,75,0,2,15,43,743,1578.718910812051,1580.2378118567867,"[77, 0, 177]",177,l,0.9999637661967427,colour,0.5
002,75,0,2,15,44,744,1580.7537858409341,1581.277879346162,"[95, 0, 159]",159,l,0.0008058081148192286,colour,0.5
002,75,0,2,15,45,745,1581.8007282993058,1583.101805545739,"[45, 0, 209]",209,a,0.7778301154030487,colour,0.5
002,75,0,2,15,46,746,1583.6133247421822,1584.3177660603542,"[3, 0, 251]",251,a,0.17834707722067833,colour,0.5
002,75,0,2,15,47,747,1584.8372314858716,1589.533799830242,"[27, 0, 227]",227,l,4.173254259629175,colour,0.5
002,75,0,2,15,48,748,1590.0463666560827,1591.5818222133676,"[55, 0, 199]",199,l,1.0157219229731709,colour,0.5
002,75,0,2,15,49,749,1592.0960128644947,1593.5497643621638,"[43, 0, 211]",211,a,0.9357153378659859,colour,0.5
002,75,0,2,15,50,750,1594.058934663306,1595.44581157004,"[81, 0, 173]",173,l,0.8565645792987198,colour,0.5
002,75,0,2,16,1,751,1600.1922352549154,1602.1577556470875,"[83, 0, 171]",171,l,1.4446666608564556,colour,0.5
002,75,0,2,16,2,752,1602.6720920212101,1604.2457458765712,"[14, 0, 240]",240,a,1.056788598652929,colour,0.5
002,75,0,2,16,3,753,1604.7587479017675,1606.341833177954,"[16, 0, 238]",238,a,1.0631149406544864,colour,0.5
002,75,0,2,16,4,754,1606.8632107238518,1607.525728358305,"[32, 0, 222]",222,a,0.1442431980976835,colour,0.5
002,75,0,2,16,5,755,1608.0381246489706,1609.1978278625757,"[0, 0, 254]",254,a,0.6458327588625252,colour,0.5
002,75,0,2,16,6,756,1609.7146631871583,1611.1818629369373,"[99, 0, 155]",155,l,0.9467280488461256,colour,0.5
002,75,0,2,16,7,757,1611.6970354452496,1613.4937910238514,"[28, 0, 226]",226,a,1.2788694739574566,colour,0.5
002,75,0,2,16,8,758,1614.0044933845056,1614.5577499757055,"[3, 0, 251]",251,a,0.0363188668852672,colour,0.5
002,75,0,2,16,9,759,1615.0694574303925,1618.6057054050034,"[12, 0, 242]",242,l,3.0036446473095566,colour,0.5
002,75,0,2,16,10,760,1619.1088522314094,1620.293781256536,"[71, 0, 183]",183,l,0.6651985414791852,colour,0.5
002,75,0,2,16,11,761,1620.804247309803,1623.6937484097434,"[27, 0, 227]",227,a,2.36611218447797,colour,0.5
002,75,0,2,16,12,762,1624.209595969529,1625.6457122421125,"[82, 0, 172]",172,l,0.9102177729364485,colour,0.5
002,75,0,2,16,13,763,1626.1654053104576,1627.5737507413141,"[19, 0, 235]",235,a,0.8850073216017336,colour,0.5
002,75,0,2,16,14,764,1628.0874589317245,1628.7257428518496,"[37, 0, 217]",217,a,0.11497377383057028,colour,0.5
002,75,0,2,16,15,765,1629.2315997299738,1630.5737842182862,"[70, 0, 184]",184,l,0.8254310837946832,colour,0.5
002,75,0,2,16,16,766,1631.08817966911,1633.093719107681,"[58, 0, 196]",196,l,1.4823021535994485,colour,0.5
002,75,0,2,16,17,767,1633.5940786887659,1634.245704916655,"[67, 0, 187]",187,l,0.12839012453332543,colour,0.5
002,75,0,2,16,18,768,1634.7538244377356,1635.7576864878647,"[94, 0, 160]",160,l,0.48890655068680644,colour,0.5
002,75,0,2,16,19,769,1636.276836049161,1638.2057063502725,"[10, 0, 244]",244,a,1.4054865057114512,colour,0.5
002,75,0,2,16,20,770,1638.7151511618868,1640.5097252295818,"[89, 0, 165]",165,l,1.2732945893658325,colour,0.5
002,75,0,2,16,21,771,1641.0286400589393,1642.6856737870257,"[90, 0, 164]",164,l,1.1336432372918352,colour,0.5
002,75,0,2,16,22,772,1643.200789581635,1643.7658938365057,"[75, 0, 179]",179,l,0.04218874184880406,colour,0.5
002,75,0,2,16,23,773,1644.2669123212108,1645.8296905239113,"[29, 0, 225]",225,a,1.039396770298481,colour,0.5
002,75,0,2,16,24,774,1646.342067910009,1646.9977239661384,"[20, 0, 234]",234,a,0.13223130081314594,colour,0.5
002,75,0,2,16,25,775,1647.5140484728618,1648.1497487658635,"[4, 0, 250]",250,a,0.11237439280375838,colour,0.5
002,75,0,2,16,26,776,1648.657308238442,1649.2297010002658,"[30, 0, 224]",224,a,0.04904323094524443,colour,0.5
002,75,0,2,16,27,777,1649.751797708217,1651.2616792946355,"[91, 0, 163]",163,l,0.9791442995192483,colour,0.5
002,75,0,2,16,28,778,1651.7758786104387,1653.5736952091102,"[25, 0, 229]",229,a,1.2653747480362654,colour,0.5
002,75,0,2,16,29,779,1654.097076641512,1655.9257455299376,"[76, 0, 178]",178,l,1.3117595210205764,colour,0.5
002,75,0,2,16,30,780,1656.4377692426788,1657.3256799940718,"[80, 0, 174]",174,l,0.35596554004587233,colour,0.5
002,75,0,2,16,31,781,1657.8443833283382,1659.3497030009748,"[18, 0, 236]",236,a,0.9879739242605865,colour,0.5
002,75,0,2,16,32,782,1659.8703873786144,1660.5497151314048,"[34, 0, 220]",220,a,0.15099331794772297,colour,0.5
002,75,0,2,16,33,783,1661.064901424339,1662.3416547658853,"[79, 0, 175]",175,l,0.7583725668955594,colour,0.5
002,75,0,2,16,34,784,1662.8595924642868,1663.4856447213097,"[64, 0, 190]",190,l,0.09678165125660598,colour,0.5
002,75,0,2,16,35,785,1663.9997424249304,1664.5736774860416,"[62, 0, 192]",192,l,0.04331710946280509,colour,0.5
002,75,0,2,16,36,786,1665.0964807531564,1666.565638309461,"[44, 0, 210]",210,a,0.9519075124990195,colour,0.5
002,75,0,2,16,37,787,1667.0780038801022,1667.717693041428,"[52, 0, 202]",202,a,0.12138361111283302,colour,0.5
002,75,0,2,16,38,788,1668.2377007922623,1668.8297066716477,"[22, 0, 232]",232,a,0.054614964756183326,colour,0.5
002,75,0,2,16,39,789,1669.3332871220773,1672.4376932304585,"[26, 0, 228]",228,l,2.57911098015029,colour,0.5
002,75,0,2,16,40,790,1672.956598607474,1674.973637943971,"[46, 0, 208]",208,l,1.4934735844144598,colour,0.5
002,75,0,2,16,41,791,1675.4862673911266,1676.6536620158004,"[15, 0, 239]",239,a,0.6443014872493222,colour,0.5
002,75,0,2,16,42,792,1677.1750360170845,1678.8456672650063,"[65, 0, 189]",189,a,1.1471454463899136,colour,0.5
002,75,0,2,16,43,793,1679.3503815969452,1680.2936548320577,"[1, 0, 253]",253,a,0.4261322864331305,colour,0.5
002,75,0,2,16,44,794,1680.811733133276,1682.2536448441679,"[96, 0, 158]",158,l,0.9248593774391338,colour,0.5
002,75,0,2,16,45,795,1682.7769203321077,1685.0696433255216,"[51, 0, 203]",203,a,1.7747778120683506,colour,0.5
002,75,0,2,16,46,796,1685.5912461511325,1686.133644024958,"[42, 0, 212]",212,a,0.025206119054928422,colour,0.5
002,75,0,2,16,47,797,1686.6574594752165,1688.1897016461007,"[98, 0, 156]",156,l,0.9998078033095226,colour,0.5
002,75,0,2,16,48,798,1688.7005209788913,1689.2456525351154,"[85, 0, 169]",169,l,0.023683118051849306,colour,0.5
002,75,0,2,16,49,799,1689.7523006490665,1691.5256688876543,"[57, 0, 197]",197,a,1.2503243319224566,colour,0.5
002,75,0,2,16,50,800,1692.0362790883519,1693.405646406929,"[88, 0, 166]",166,l,0.8459224769612774,colour,0.5
