id,age,condition,counterbalance,block,trialinblock,trial,tstart,tend,trialstim,trialintensity,response,RT,trialtype,colourfreq
121,22,0,2,Practice,1,NA,6.3015613704919815e-06,0.5526312058791518,"[31, 0, 223]",223,a,0.028241903404705226,colour,0.5
121,22,0,2,Practice,2,NA,1.0634001347934827,1.696663809940219,"[96, 0, 158]",158,l,0.11002637189812958,colour,0.5
121,22,0,2,Practice,3,NA,2.203900334890932,4.368620089953765,"[89, 0, 165]",165,l,1.6418353377375752,colour,0.5
121,22,0,2,Practice,4,NA,4.875799507251941,5.4566352010006085,"[60, 0, 194]",194,a,0.05749244603794068,colour,0.5
121,22,0,2,Practice,5,NA,5.969934196211398,7.832559951231815,"[37, 0, 217]",217,l,1.3400977683486417,colour,0.5
121,22,0,2,Practice,6,NA,8.34447497187648,8.968564006267115,"[95, 0, 159]",159,l,0.10078359581530094,colour,0.5
121,22,0,2,Practice,7,NA,9.485151221044362,10.064626177190803,"[43, 0, 211]",211,a,0.05619551136624068,colour,0.5
121,22,0,2,Practice,8,NA,10.578903091838583,14.592655403772369,"[73, 0, 181]",181,a,3.4904295441228896,colour,0.5
121,22,0,2,Practice,9,NA,15.11007639032323,18.16863734042272,"[45, 0, 209]",209,a,2.5351286930963397,colour,0.5
121,22,0,2,Practice,10,NA,18.688250473351218,22.13665153773036,"[26, 0, 228]",228,a,2.9253146040719002,colour,0.5
121,22,0,2,1,1,1,4.142287866678089,4.70407165796496,"[92, 0, 162]",162,l,0.037625282420776784,colour,0.5
121,22,0,2,1,2,2,5.221205530920997,6.888003216939978,"[32, 0, 222]",222,a,1.1437183150555938,colour,0.5
121,22,0,2,1,3,3,7.408650589408353,8.503990840748884,"[69, 0, 185]",185,a,0.5719603759935126,colour,0.5
121,22,0,2,1,4,4,9.01813739235513,10.999932258506306,"[4, 0, 250]",250,a,1.4586816243827343,colour,0.5
121,22,0,2,1,5,5,11.518026721663773,12.479986325721256,"[27, 0, 227]",227,a,0.4386573162628338,colour,0.5
121,22,0,2,1,6,6,12.986713607911952,14.047952316352166,"[50, 0, 204]",204,a,0.5379580822773278,colour,0.5
121,22,0,2,1,7,7,14.56491210940294,15.19192348048091,"[22, 0, 232]",232,a,0.10408796311821789,colour,0.5
121,22,0,2,1,8,8,15.705567878554575,16.247950819670223,"[6, 0, 248]",248,a,0.019213773193769157,colour,0.5
121,22,0,2,1,9,9,16.768050352460705,17.503984933020547,"[1, 0, 253]",253,a,0.21262914210092276,colour,0.5
121,22,0,2,1,10,10,18.017983398633078,18.60791732708458,"[11, 0, 243]",243,a,0.06660249608103186,colour,0.5
121,22,0,2,1,11,11,19.12737134634517,20.199973297305405,"[73, 0, 181]",181,a,0.5492748509859666,colour,0.5
121,22,0,2,1,12,12,20.721115733962506,21.815962496446446,"[80, 0, 174]",174,a,0.571702406858094,colour,0.5
121,22,0,2,1,13,13,22.33054739853833,24.103961144806817,"[28, 0, 226]",226,a,1.2506415750831366,colour,0.5
121,22,0,2,1,14,14,24.60245192714501,25.14393335499335,"[5, 0, 249]",249,a,0.018078315537422895,colour,0.5
121,22,0,2,1,15,15,25.664906831807457,26.383912339340895,"[23, 0, 231]",231,a,0.19564217363949865,colour,0.5
121,22,0,2,1,16,16,26.899303444079123,27.647995875682682,"[52, 0, 202]",202,a,0.22534721461124718,colour,0.5
121,22,0,2,1,17,17,28.15589878789615,28.88791302626487,"[15, 0, 239]",239,a,0.20873833820223808,colour,0.5
121,22,0,2,1,18,18,29.405884609441273,30.127898312173784,"[37, 0, 217]",217,a,0.19867084885481745,colour,0.5
121,22,0,2,1,19,19,30.64028476632666,31.319926555617712,"[63, 0, 191]",191,a,0.1563229599269107,colour,0.5
121,22,0,2,1,20,20,31.827687289449386,32.439942829310894,"[2, 0, 252]",252,a,0.0895448086084798,colour,0.5
121,22,0,2,1,21,21,32.952742427936755,33.50392388692126,"[25, 0, 229]",229,a,0.027837423607707024,colour,0.5
121,22,0,2,1,22,22,34.00488605245482,34.72790248692036,"[34, 0, 220]",220,a,0.19990713114384562,colour,0.5
121,22,0,2,1,23,23,35.239222800242715,35.80006884422619,"[16, 0, 238]",238,a,0.037240101024508476,colour,0.5
121,22,0,2,1,24,24,36.31738821871113,37.863946320372634,"[53, 0, 201]",201,a,1.0218931070994586,colour,0.5
121,22,0,2,1,25,25,38.381524451542646,38.91992049035616,"[99, 0, 155]",155,l,0.015129590989090502,colour,0.5
121,22,0,2,1,26,26,39.42835706390906,41.57596500124782,"[88, 0, 166]",166,l,1.6242631142958999,colour,0.5
121,22,0,2,1,27,27,42.084659543819726,42.703921996522695,"[87, 0, 167]",167,l,0.0960279064020142,colour,0.5
121,22,0,2,1,28,28,43.22525072237477,43.97597106650937,"[14, 0, 240]",240,a,0.22739442565944046,colour,0.5
121,22,0,2,1,29,29,44.4908229962457,45.223930156906135,"[68, 0, 186]",186,a,0.20984268211759627,colour,0.5
121,22,0,2,1,30,30,45.7408820730634,46.487930197967216,"[9, 0, 245]",245,a,0.22379861248191446,colour,0.5
121,22,0,2,1,31,31,47.00644213776104,47.59994943020865,"[31, 0, 223]",223,a,0.07022509083617479,colour,0.5
121,22,0,2,1,32,32,48.11579739616718,48.78392509999685,"[96, 0, 158]",158,l,0.14484392676968127,colour,0.5
121,22,0,2,1,33,33,49.30334406695329,49.919995321077295,"[90, 0, 164]",164,l,0.0936368677066639,colour,0.5
121,22,0,2,1,34,34,50.42840471921954,51.08796115417499,"[74, 0, 180]",180,a,0.13661924237385392,colour,0.5
121,22,0,2,1,35,35,51.60018928232603,52.23991478746757,"[75, 0, 179]",179,a,0.11645905731711537,colour,0.5
121,22,0,2,1,36,36,52.756427959306166,53.335969475330785,"[61, 0, 193]",193,a,0.05625931441318244,colour,0.5
121,22,0,2,1,37,37,53.85015186702367,54.76798339863308,"[70, 0, 184]",184,a,0.39452451770193875,colour,0.5
121,22,0,2,1,38,38,55.287619768525474,55.86393529269844,"[49, 0, 205]",205,a,0.0531751069938764,colour,0.5
121,22,0,2,1,39,39,56.38211876503192,56.98394723411184,"[36, 0, 218]",218,a,0.07956750993616879,colour,0.5
121,22,0,2,1,40,40,57.49078558082692,58.207912049489096,"[54, 0, 200]",200,a,0.19378400861751288,colour,0.5
121,22,0,2,1,41,41,58.725174316205084,59.35192102286965,"[66, 0, 188]",188,a,0.10345387121196836,colour,0.5
121,22,0,2,1,42,42,59.86574737774208,61.391920802299865,"[59, 0, 195]",195,a,1.0032074811169878,colour,0.5
121,22,0,2,1,43,43,61.91262173780706,63.27988857310265,"[48, 0, 206]",206,a,0.8440031444188207,colour,0.5
121,22,0,2,1,44,44,63.78761386091355,64.51188548223581,"[19, 0, 235]",235,a,0.20098626893013716,colour,0.5
121,22,0,2,1,45,45,65.02212271920871,65.55188447399996,"[10, 0, 244]",244,a,0.007140032714232802,colour,0.5
121,22,0,2,1,46,46,66.07148854853585,66.75997217872646,"[93, 0, 161]",161,l,0.16546018526423723,colour,0.5
121,22,0,2,1,47,47,67.27465396700427,67.84000324527733,"[57, 0, 197]",197,a,0.04200091050006449,colour,0.5
121,22,0,2,1,48,48,68.3527339209104,69.06392710073851,"[85, 0, 169]",169,l,0.1878385106101632,colour,0.5
121,22,0,2,1,49,49,69.57141489931382,70.57592325366568,"[44, 0, 210]",210,a,0.48133761109784245,colour,0.5
121,22,0,2,1,50,50,71.08710257010534,71.61592066998128,"[51, 0, 203]",203,a,0.005570950568653643,colour,0.5
121,22,0,2,2,1,51,76.46127037366387,77.44790954468772,"[11, 0, 243]",243,a,0.46258109295740724,colour,0.5
121,22,0,2,2,2,52,77.96222466230392,78.5919256072957,"[13, 0, 241]",241,a,0.10661684779915959,colour,0.5
121,22,0,2,2,3,53,79.10269256704487,81.09589636186138,"[60, 0, 194]",194,a,1.4699519192799926,colour,0.5
121,22,0,2,2,4,54,81.60267090552952,82.16794102080166,"[76, 0, 178]",178,l,0.04190126759931445,colour,0.5
121,22,0,2,2,5,55,82.68078197317664,83.31194566190243,"[3, 0, 251]",251,a,0.10772473632823676,colour,0.5
121,22,0,2,2,6,56,83.82143104705028,85.46393946744502,"[19, 0, 235]",235,a,1.119375092559494,colour,0.5
121,22,0,2,2,7,57,85.97760592098348,86.59189331182279,"[71, 0, 183]",183,a,0.09088427852839231,colour,0.5
121,22,0,2,2,8,58,87.10269611165859,87.7039133318467,"[98, 0, 156]",156,l,0.07786688324995339,colour,0.5
121,22,0,2,2,9,59,88.20589398301672,88.84789000987075,"[33, 0, 221]",221,a,0.1187662067823112,colour,0.5
121,22,0,2,2,10,60,89.34961899346672,89.90386851213407,"[55, 0, 199]",199,a,0.031218590680509806,colour,0.5
121,22,0,2,2,11,61,90.41218338732142,91.03192278731149,"[1, 0, 253]",253,a,0.09684671205468476,colour,0.5
121,22,0,2,2,12,62,91.55275054113008,92.23187914921436,"[79, 0, 175]",175,a,0.15588224644307047,colour,0.5
121,22,0,2,2,13,63,92.74026924883947,94.1118865062017,"[89, 0, 165]",165,l,0.8482984281145036,colour,0.5
121,22,0,2,2,14,64,94.63088602735661,95.18390477751382,"[95, 0, 159]",159,l,0.029707010136917233,colour,0.5
121,22,0,2,2,15,65,95.69343466730788,96.35187061061151,"[42, 0, 212]",212,a,0.13516831398010254,colour,0.5
121,22,0,2,2,16,66,96.85587681131437,97.47987723036204,"[57, 0, 197]",197,a,0.10066898667719215,colour,0.5
121,22,0,2,2,17,67,97.99652864201926,98.61591082380619,"[17, 0, 237]",237,a,0.09376014152076095,colour,0.5
121,22,0,2,2,18,68,99.12391810526606,100.27990708383732,"[5, 0, 249]",249,a,0.6328213860979304,colour,0.5
121,22,0,2,2,19,69,100.7957865576027,101.40789519285318,"[69, 0, 185]",185,a,0.088905596639961,colour,0.5
121,22,0,2,2,20,70,101.92073417606298,102.52790240815375,"[94, 0, 160]",160,l,0.08393998735118657,colour,0.5
121,22,0,2,2,21,71,103.04582594218664,103.91192384285387,"[81, 0, 173]",173,a,0.34287320054136217,colour,0.5
121,22,0,2,2,22,72,104.42077080369927,105.35190841986332,"[38, 0, 216]",216,a,0.40799916826654226,colour,0.5
121,22,0,2,2,23,73,105.85825170215685,106.53588684648275,"[64, 0, 190]",190,a,0.15429465344641358,colour,0.5
121,22,0,2,2,24,74,107.0457810437074,107.72790681920014,"[65, 0, 189]",189,a,0.15883924148511142,colour,0.5
121,22,0,2,2,25,75,108.2489496129565,109.05590130854398,"[26, 0, 228]",228,a,0.28387980768457055,colour,0.5
121,22,0,2,2,26,76,109.57839266757946,110.15991522860713,"[36, 0, 218]",218,a,0.058187977876514196,colour,0.5
121,22,0,2,2,27,77,110.67213902447838,111.3758345595561,"[37, 0, 217]",217,a,0.1804909211350605,colour,0.5
121,22,0,2,2,28,78,111.89083260600455,112.48794437642209,"[16, 0, 238]",238,a,0.07376340264454484,colour,0.5
121,22,0,2,2,29,79,113.00025599985383,113.5999088640092,"[99, 0, 155]",155,l,0.0766443854663521,colour,0.5
121,22,0,2,2,30,80,114.11249460431281,114.7358751099091,"[96, 0, 158]",158,l,0.10021842701826245,colour,0.5
121,22,0,2,2,31,81,115.25314131507184,115.88785867544357,"[21, 0, 233]",233,a,0.11140995263122022,colour,0.5
121,22,0,2,2,32,82,116.39370098593645,117.14385970577132,"[9, 0, 245]",245,a,0.22653741692192852,colour,0.5
121,22,0,2,2,33,83,117.65933233662508,118.19991185725667,"[45, 0, 209]",209,a,0.017137417569756508,colour,0.5
121,22,0,2,2,34,84,118.70621063513681,119.38388201326597,"[54, 0, 200]",200,a,0.1543123765150085,colour,0.5
121,22,0,2,2,35,85,119.89368365670089,120.61587734695058,"[67, 0, 187]",187,a,0.1988146025687456,colour,0.5
121,22,0,2,2,36,86,121.12800543825142,121.67988203524146,"[39, 0, 215]",215,a,0.02888820448424667,colour,0.5
121,22,0,2,2,37,87,122.19054580747616,122.85586460214108,"[87, 0, 167]",167,l,0.14196254999842495,colour,0.5
121,22,0,2,2,38,88,123.3624300135998,124.03986626572441,"[18, 0, 236]",236,a,0.1541654720203951,colour,0.5
121,22,0,2,2,39,89,124.5529175318079,125.24786693055648,"[66, 0, 188]",188,a,0.1716514432337135,colour,0.5
121,22,0,2,2,40,90,125.7560805871617,126.42385973734781,"[85, 0, 169]",169,l,0.14451782230753452,colour,0.5
121,22,0,2,2,41,91,126.94367924553808,127.68788419675548,"[31, 0, 223]",223,a,0.22098418953828514,colour,0.5
121,22,0,2,2,42,92,128.19675400073174,128.82387998094782,"[15, 0, 239]",239,a,0.10371184023097157,colour,0.5
121,22,0,2,2,43,93,129.3373731422471,129.9438706546789,"[24, 0, 230]",230,a,0.08326099696569145,colour,0.5
121,22,0,2,2,44,94,130.46241528377868,131.03189639968332,"[50, 0, 204]",204,a,0.046225301921367645,colour,0.5
121,22,0,2,2,45,95,131.5408953850856,132.1839079282945,"[47, 0, 207]",207,a,0.12041523959487677,colour,0.5
121,22,0,2,2,46,96,132.69710531120654,133.3598991597537,"[44, 0, 210]",210,a,0.13940609619021416,colour,0.5
121,22,0,2,2,47,97,133.86894855741411,134.6878767135786,"[82, 0, 172]",172,a,0.30481468758080155,colour,0.5
121,22,0,2,2,48,98,135.20344741211738,135.9279462825507,"[75, 0, 179]",179,a,0.20124975184444338,colour,0.5
121,22,0,2,2,49,99,136.4371276187012,137.0638294268865,"[61, 0, 193]",193,a,0.10346214193850756,colour,0.5
121,22,0,2,2,50,100,137.5796324944822,138.20785809261724,"[14, 0, 240]",240,a,0.1056657099397853,colour,0.5
121,22,0,2,3,1,101,143.21946551953442,144.0559225762263,"[92, 0, 162]",162,l,0.3115888375323266,colour,0.5
121,22,0,2,3,2,102,144.5650160846999,145.2318374015158,"[16, 0, 238]",238,a,0.14367302285972983,colour,0.5
121,22,0,2,3,3,103,145.75247768475674,146.39187275315635,"[90, 0, 164]",164,l,0.1162125098053366,colour,0.5
121,22,0,2,3,4,104,146.90855488483794,147.55185178481042,"[43, 0, 211]",211,a,0.11987842770759016,colour,0.5
121,22,0,2,3,5,105,148.0649451924255,148.79193198750727,"[68, 0, 186]",186,a,0.2045860206708312,colour,0.5
121,22,0,2,3,6,106,149.2992295586737,149.93589448707644,"[69, 0, 185]",185,a,0.11329056683462113,colour,0.5
121,22,0,2,3,7,107,150.45547414326575,151.07985619897954,"[1, 0, 253]",253,a,0.1011758663225919,colour,0.5
121,22,0,2,3,8,108,151.59615314938128,152.15185477794148,"[3, 0, 251]",251,a,0.0298086223192513,colour,0.5
121,22,0,2,3,9,109,152.66111488325987,153.41588632657658,"[81, 0, 173]",173,a,0.23138447862584144,colour,0.5
121,22,0,2,3,10,110,153.92681948945392,154.5278795650229,"[31, 0, 223]",223,a,0.07777511712629348,colour,0.5
121,22,0,2,3,11,111,155.0361751416931,156.3278653078014,"[73, 0, 181]",181,a,0.7681425123009831,colour,0.5
121,22,0,2,3,12,112,156.84889707388356,157.39988633606117,"[91, 0, 163]",163,l,0.0276180513901636,colour,0.5
121,22,0,2,3,13,113,157.91128384321928,159.1118443646701,"[57, 0, 197]",197,a,0.6771511075785384,colour,0.5
121,22,0,2,3,14,114,159.63004201545846,160.38384735479485,"[49, 0, 205]",205,a,0.23045894072856754,colour,0.5
121,22,0,2,3,15,115,160.8956745477626,161.51185515604448,"[48, 0, 206]",206,a,0.09281924355309457,colour,0.5
121,22,0,2,3,16,116,162.02080491080415,162.68785741517786,"[56, 0, 198]",198,a,0.1442507947795093,colour,0.5
121,22,0,2,3,17,117,163.20822043088265,163.83188647474162,"[67, 0, 187]",187,a,0.10030074079986662,colour,0.5
121,22,0,2,3,18,118,164.3419846841134,164.9438682916807,"[4, 0, 250]",250,a,0.0788538611959666,colour,0.5
121,22,0,2,3,19,119,165.44832032592967,166.055861530127,"[44, 0, 210]",210,a,0.0843684917781502,colour,0.5
121,22,0,2,3,20,120,166.5732994520804,167.1918777943356,"[70, 0, 184]",184,a,0.09519846679177135,colour,0.5
121,22,0,2,3,21,121,167.69837113202084,168.30384858360048,"[21, 0, 233]",233,a,0.08220627764239907,colour,0.5
121,22,0,2,3,22,122,168.8269362252904,169.5918633795809,"[26, 0, 228]",228,a,0.24160084186587483,colour,0.5
121,22,0,2,3,23,123,170.1081922315061,170.7438560036244,"[8, 0, 246]",246,a,0.1123122536810115,colour,0.5
121,22,0,2,3,24,124,171.26439191761892,171.88783071248326,"[9, 0, 245]",245,a,0.10013178084045649,colour,0.5
121,22,0,2,3,25,125,172.40510203759186,173.5918555026874,"[78, 0, 176]",176,a,0.6637564079137519,colour,0.5
121,22,0,2,3,26,126,174.10816466226242,174.855830337503,"[33, 0, 221]",221,a,0.22466664877720177,colour,0.5
121,22,0,2,3,27,127,175.3737940437859,175.98387319105677,"[63, 0, 191]",191,a,0.08679773332551122,colour,0.5
121,22,0,2,3,28,128,176.49879364995286,177.32786333863623,"[88, 0, 166]",166,l,0.3047418261412531,colour,0.5
121,22,0,2,3,29,129,177.8424159453716,178.39989066834096,"[98, 0, 156]",156,l,0.03408106288406998,colour,0.5
121,22,0,2,3,30,130,178.9214722433826,180.27185214706697,"[65, 0, 189]",189,a,0.8272627235855907,colour,0.5
121,22,0,2,3,31,131,180.78083971107844,181.49588627938647,"[83, 0, 171]",171,l,0.19162652071099728,colour,0.5
121,22,0,2,3,32,132,182.01529461250175,183.11185342317913,"[0, 0, 254]",254,a,0.5733356858836487,colour,0.5
121,22,0,2,3,33,133,183.62457504030317,184.20788841869216,"[38, 0, 216]",216,a,0.060618401039391756,colour,0.5
121,22,0,2,3,34,134,184.71836511406582,185.87983170174994,"[58, 0, 196]",196,a,0.6365499254316092,colour,0.5
121,22,0,2,3,35,135,186.3916411717655,187.15188628563192,"[96, 0, 158]",158,l,0.23687508469447494,colour,0.5
121,22,0,2,3,36,136,187.67302202701103,188.21587128168903,"[59, 0, 195]",195,a,0.019566265284083784,colour,0.5
121,22,0,2,3,37,137,188.73549268546049,189.3598904950777,"[20, 0, 234]",234,a,0.10106322646606714,colour,0.5
121,22,0,2,3,38,138,189.87612049165182,190.52784096822143,"[11, 0, 243]",243,a,0.12835399189498276,colour,0.5
121,22,0,2,3,39,139,191.04806928848848,191.59187165030744,"[30, 0, 224]",224,a,0.02065367391332984,colour,0.5
121,22,0,2,3,40,140,192.11047890095506,193.02386115514673,"[79, 0, 175]",175,a,0.3899763850495219,colour,0.5
121,22,0,2,3,41,141,193.53234223322943,194.11986031068955,"[51, 0, 203]",203,a,0.06453795568086207,colour,0.5
121,22,0,2,3,42,142,194.6260326639749,195.25591083965264,"[28, 0, 226]",226,a,0.10718949977308512,colour,0.5
121,22,0,2,3,43,143,195.76675578090362,196.39185266697314,"[95, 0, 159]",159,l,0.10180798906367272,colour,0.5
121,22,0,2,3,44,144,196.9073741347529,197.50385378231294,"[7, 0, 247]",247,a,0.0731761782662943,colour,0.5
121,22,0,2,3,45,145,198.00482697563712,198.64776547579095,"[17, 0, 237]",237,a,0.11988787993323058,colour,0.5
121,22,0,2,3,46,146,199.16097782494035,199.76787784788758,"[47, 0, 207]",207,a,0.0834421660983935,colour,0.5
121,22,0,2,3,47,147,200.2869864642853,200.98390981869306,"[80, 0, 174]",174,l,0.17364075884688646,colour,0.5
121,22,0,2,3,48,148,201.490068387473,202.1758136069402,"[27, 0, 227]",227,a,0.1624070918187499,colour,0.5
121,22,0,2,3,49,149,202.69331454427447,203.59186141041573,"[40, 0, 214]",214,a,0.3756017966661602,colour,0.5
121,22,0,2,3,50,150,204.0994409751147,205.9358306840295,"[89, 0, 165]",165,a,1.3254337031394243,colour,0.5
121,22,0,2,4,1,151,210.6339300624095,211.32776566478424,"[73, 0, 181]",181,a,0.16971726587507874,colour,0.5
121,22,0,2,4,2,152,211.83786308660638,212.6158241777448,"[10, 0, 244]",244,a,0.254769867984578,colour,0.5
121,22,0,2,4,3,153,213.13469727430493,213.67179637856316,"[58, 0, 196]",196,a,0.013745222706347704,colour,0.5
121,22,0,2,4,4,154,214.1815271297237,214.72782135463785,"[4, 0, 250]",250,a,0.02296436799224466,colour,0.5
121,22,0,2,4,5,155,215.24413327116054,215.88787521701306,"[86, 0, 168]",168,l,0.12046565185301006,colour,0.5
121,22,0,2,4,6,156,216.3891646686243,216.93586455483455,"[36, 0, 218]",218,a,0.023386964690871537,colour,0.5
121,22,0,2,4,7,157,217.4535419351887,218.11176402017009,"[53, 0, 201]",201,a,0.1349450034322217,colour,0.5
121,22,0,2,4,8,158,218.6253654890461,219.3678201888688,"[37, 0, 217]",217,a,0.2190496182302013,colour,0.5
121,22,0,2,4,9,159,219.87535800598562,220.55992444464937,"[17, 0, 237]",237,a,0.16122043400537223,colour,0.5
121,22,0,2,4,10,160,221.07854666130152,221.81578447809443,"[85, 0, 169]",169,l,0.21400878438726068,colour,0.5
121,22,0,2,4,11,161,222.32852578745224,222.88788033707533,"[57, 0, 197]",197,a,0.036055412609130144,colour,0.5
121,22,0,2,4,12,162,223.40662779670674,224.15987308707554,"[93, 0, 161]",161,l,0.22991149488370866,colour,0.5
121,22,0,2,4,13,163,224.67148760333657,225.19981457735412,"[21, 0, 233]",233,a,0.005642236676067114,colour,0.5
121,22,0,2,4,14,164,225.70596290600952,227.31984936178196,"[81, 0, 173]",173,l,1.090607404941693,colour,0.5
121,22,0,2,4,15,165,227.8308471153723,228.55184627091512,"[27, 0, 227]",227,a,0.19757004943676293,colour,0.5
121,22,0,2,4,16,166,229.0652208845131,229.71977035631426,"[99, 0, 155]",155,l,0.131513423868455,colour,0.5
121,22,0,2,4,17,167,230.23713069071528,230.89613534754608,"[9, 0, 245]",245,a,0.13575435674283653,colour,0.5
121,22,0,2,4,18,168,231.40975532715674,232.0558481393382,"[47, 0, 207]",207,a,0.1227672875393182,colour,0.5
121,22,0,2,4,19,169,232.56595501338597,233.15987899480388,"[49, 0, 205]",205,a,0.0706012137234211,colour,0.5
121,22,0,2,4,20,170,233.67534177948255,234.3598337812582,"[98, 0, 156]",156,l,0.16184625518508255,colour,0.5
121,22,0,2,4,21,171,234.87845914869104,235.5597980200546,"[90, 0, 164]",164,l,0.15797278052195907,colour,0.5
121,22,0,2,4,22,172,236.06589239183813,236.59183029655833,"[48, 0, 206]",206,a,0.00252809701487422,colour,0.5
121,22,0,2,4,23,173,237.11283173644915,238.43988257087767,"[75, 0, 179]",179,a,0.8041506633162498,colour,0.5
121,22,0,2,4,24,174,238.9577308803564,239.54383426334243,"[14, 0, 240]",240,a,0.062699876842089,colour,0.5
121,22,0,2,4,25,175,240.03905848774593,240.79181698453613,"[24, 0, 230]",230,a,0.22952119365800172,colour,0.5
121,22,0,2,4,26,176,241.30475206614938,242.0477837502258,"[59, 0, 195]",195,a,0.22000745160039514,colour,0.5
121,22,0,2,4,27,177,242.5546902322676,243.22379506775178,"[11, 0, 243]",243,a,0.14600537833757699,colour,0.5
121,22,0,2,4,28,178,243.74256064440124,244.2798090162687,"[0, 0, 254]",254,a,0.013912607217207551,colour,0.5
121,22,0,2,4,29,179,244.78941255516838,245.8158719118219,"[42, 0, 212]",212,a,0.5031046873191372,colour,0.5
121,22,0,2,4,30,180,246.33624477370176,246.9758458235301,"[74, 0, 180]",180,a,0.11692182638216764,colour,0.5
121,22,0,2,4,31,181,247.4925224413164,248.0238217705628,"[84, 0, 170]",170,l,0.007885189144872129,colour,0.5
121,22,0,2,4,32,182,248.5394247644581,249.2318929338362,"[70, 0, 184]",184,a,0.16917218314483762,colour,0.5
121,22,0,2,4,33,183,249.74258388136514,250.4478071447229,"[64, 0, 190]",190,a,0.18198202177882195,colour,0.5
121,22,0,2,4,34,184,250.9612597398227,251.55990790307987,"[89, 0, 165]",165,l,0.07525332167278975,colour,0.5
121,22,0,2,4,35,185,252.07148973003495,253.21583819866646,"[15, 0, 239]",239,a,0.6211859961040318,colour,0.5
121,22,0,2,4,36,186,253.72770241321996,254.3357827924192,"[23, 0, 231]",231,a,0.08458983316086233,colour,0.5
121,22,0,2,4,37,187,254.85365906497464,255.49579372559674,"[87, 0, 167]",167,l,0.11568672547582537,colour,0.5
121,22,0,2,4,38,188,256.0056761074811,257.79182052914985,"[38, 0, 216]",216,a,1.2639055179897696,colour,0.5
121,22,0,2,4,39,189,258.30169857875444,258.9917698018253,"[34, 0, 220]",220,a,0.16669134772382677,colour,0.5
121,22,0,2,4,40,190,259.50480767711997,260.2158673432423,"[3, 0, 251]",251,a,0.1879925043322146,colour,0.5
121,22,0,2,4,41,191,260.7236304401886,261.34379204304423,"[30, 0, 224]",224,a,0.09757887152954936,colour,0.5
121,22,0,2,4,42,192,261.86420744028874,262.39180737466086,"[43, 0, 211]",211,a,0.004654471063986421,colour,0.5
121,22,0,2,4,43,193,262.91100696951617,263.47183292743284,"[52, 0, 202]",202,a,0.03753509162925184,colour,0.5
121,22,0,2,4,44,194,263.9892306771362,264.5358376157237,"[28, 0, 226]",226,a,0.023332220036536455,colour,0.5
121,22,0,2,4,45,195,265.05149968655314,265.59194726881105,"[5, 0, 249]",249,a,0.016634476371109486,colour,0.5
121,22,0,2,4,46,196,266.09874347399455,266.7037522488972,"[97, 0, 157]",157,l,0.08188686857465655,colour,0.5
121,22,0,2,4,47,197,267.2234614803456,267.879825794138,"[67, 0, 187]",187,a,0.13283280772157013,colour,0.5
121,22,0,2,4,48,198,268.3955390647752,269.03183929191437,"[96, 0, 158]",158,l,0.11312554543837905,colour,0.5
121,22,0,2,4,49,199,269.55226768611465,270.2158476510085,"[78, 0, 176]",176,a,0.14027373876888305,colour,0.5
121,22,0,2,4,50,200,270.724155436852,271.5198143883608,"[61, 0, 193]",193,a,0.27300257107708603,colour,0.5
121,22,0,2,5,1,201,276.5983386003645,277.28778636537027,"[66, 0, 188]",188,a,0.16534596995916218,colour,0.5
121,22,0,2,5,2,202,277.8022917106282,278.3437782584224,"[60, 0, 194]",194,a,0.01824569993186742,colour,0.5
121,22,0,2,5,3,203,278.8646958091995,279.4637992583448,"[3, 0, 251]",251,a,0.07570230611599982,colour,0.5
121,22,0,2,5,4,204,279.9741321998881,280.9997885047924,"[71, 0, 183]",183,a,0.5024048232007772,colour,0.5
121,22,0,2,5,5,205,281.52100262150634,282.68779479363,"[82, 0, 172]",172,a,0.6435922842938453,colour,0.5
121,22,0,2,5,6,206,283.20849179069046,283.9118521629134,"[27, 0, 227]",227,a,0.17880368523765355,colour,0.5
121,22,0,2,5,7,207,284.4288253466366,285.2558304950362,"[67, 0, 187]",187,a,0.30378084210678935,colour,0.5
121,22,0,2,5,8,208,285.7726449589245,286.9438359963242,"[96, 0, 158]",158,l,0.6479265588568524,colour,0.5
121,22,0,2,5,9,209,287.4601636666339,288.0797514360165,"[0, 0, 254]",254,a,0.09716966573614627,colour,0.5
121,22,0,2,5,10,210,288.6007721743081,289.2157775464002,"[93, 0, 161]",161,l,0.09177121962420642,colour,0.5
121,22,0,2,5,11,211,289.7257012820337,290.38383317634,"[53, 0, 201]",201,a,0.13555310142692178,colour,0.5
121,22,0,2,5,12,212,290.8975835189922,291.751802632818,"[18, 0, 236]",236,a,0.33091564453206956,colour,0.5
121,22,0,2,5,13,213,292.2726016358938,292.86376751435455,"[68, 0, 186]",186,l,0.06784350459929556,colour,0.5
121,22,0,2,5,14,214,293.38199352205265,294.0397729241522,"[30, 0, 224]",224,a,0.13486111408565193,colour,0.5
121,22,0,2,5,15,215,294.5538229836384,296.45581206306815,"[51, 0, 203]",203,a,1.3786926993634552,colour,0.5
121,22,0,2,5,16,216,296.975618180586,297.62401341600344,"[98, 0, 156]",156,l,0.12500472622923553,colour,0.5
121,22,0,2,5,17,217,298.1320494482061,299.1758281792281,"[88, 0, 166]",166,a,0.5204878648510203,colour,0.5
121,22,0,2,5,18,218,299.69447678362485,300.2958598128753,"[14, 0, 240]",240,a,0.07802048313897103,colour,0.5
121,22,0,2,5,19,219,300.8038974205265,303.4320848155767,"[28, 0, 226]",226,a,2.1033412313554436,colour,0.5
121,22,0,2,5,20,220,303.9446142357774,304.9041032443056,"[34, 0, 220]",220,a,0.4367798527237028,colour,0.5
121,22,0,2,5,21,221,305.4017606488196,305.9287284605671,"[45, 0, 209]",209,a,0.0029408475384116173,colour,0.5
121,22,0,2,5,22,222,306.44860586419236,306.9757902912097,"[69, 0, 185]",185,a,0.0024686262477189302,colour,0.5
121,22,0,2,5,23,223,307.49697526334785,308.0397937980015,"[75, 0, 179]",179,a,0.019713169895112514,colour,0.5
121,22,0,2,5,24,224,308.5595502910437,309.2718080363702,"[19, 0, 235]",235,a,0.1892492666374892,colour,0.5
121,22,0,2,5,25,225,309.7782478110166,310.37584164878353,"[4, 0, 250]",250,a,0.07431202998850495,colour,0.5
121,22,0,2,5,26,226,310.88765033101663,311.56777773227077,"[37, 0, 217]",217,a,0.15693342115264386,colour,0.5
121,22,0,2,5,27,227,312.0752265402116,312.64782100811135,"[43, 0, 211]",211,a,0.04922325711231679,colour,0.5
121,22,0,2,5,28,228,313.16907017701305,313.76788848172873,"[42, 0, 212]",212,a,0.07593467517290264,colour,0.5
121,22,0,2,5,29,229,314.2782485986827,314.89576395077165,"[9, 0, 245]",245,a,0.09393185831140727,colour,0.5
121,22,0,2,5,30,230,315.3933024138678,316.06383730378,"[2, 0, 252]",252,a,0.1469348546816036,colour,0.5
121,22,0,2,5,31,231,316.5809861429734,317.67983162298333,"[57, 0, 197]",197,a,0.5878969572950155,colour,0.5
121,22,0,2,5,32,232,318.1932991843205,318.7998876752099,"[99, 0, 155]",155,l,0.08385885518509895,colour,0.5
121,22,0,2,5,33,233,319.3184004026698,320.77579966478515,"[91, 0, 163]",163,l,0.9344561618054286,colour,0.5
121,22,0,2,5,34,234,321.28781275311485,322.11179237707984,"[94, 0, 160]",160,l,0.30066394549794495,colour,0.5
121,22,0,2,5,35,235,322.6313259531744,323.3998087483924,"[32, 0, 222]",222,a,0.2419300969922915,colour,0.5
121,22,0,2,5,36,236,323.91690284293145,325.5278354543261,"[49, 0, 205]",205,a,1.0877717143157497,colour,0.5
121,22,0,2,5,37,237,326.0429047869984,326.82382011634763,"[76, 0, 178]",178,a,0.25780838914215565,colour,0.5
121,22,0,2,5,38,238,327.3397460639244,327.87183426646516,"[64, 0, 190]",190,a,0.009056880720891058,colour,0.5
121,22,0,2,5,39,239,328.38679214078,329.0797723098658,"[97, 0, 157]",157,l,0.16966015833895653,colour,0.5
121,22,0,2,5,40,240,329.58998000842985,330.14377896743827,"[48, 0, 206]",206,a,0.030508880503475666,colour,0.5
121,22,0,2,5,41,241,330.64227644517086,331.2798101977678,"[33, 0, 221]",221,a,0.11426376015879214,colour,0.5
121,22,0,2,5,42,242,331.79839578678366,332.40778727910947,"[77, 0, 177]",177,a,0.08602737076580524,colour,0.5
121,22,0,2,5,43,243,332.9267182709882,333.6158099992899,"[8, 0, 246]",246,a,0.16586742200888693,colour,0.5
121,22,0,2,5,44,244,334.12975608336274,334.7917866584612,"[5, 0, 249]",249,a,0.13871725962962955,colour,0.5
121,22,0,2,5,45,245,335.3016048433492,336.0077642784454,"[36, 0, 218]",218,a,0.18332070391625166,colour,0.5
121,22,0,2,5,46,246,336.52032048034016,337.64780643582344,"[15, 0, 239]",239,a,0.6042128123808652,colour,0.5
121,22,0,2,5,47,247,338.160971917212,339.6077944471035,"[41, 0, 213]",213,a,0.9235635651275516,colour,0.5
121,22,0,2,5,48,248,340.11405856651254,340.64776980807073,"[81, 0, 173]",173,l,0.010398320038802922,colour,0.5
121,22,0,2,5,49,249,341.1485563183669,342.4797921596328,"[65, 0, 189]",189,a,0.8079162242356688,colour,0.5
121,22,0,2,5,50,250,342.99227077385876,344.3117463758681,"[83, 0, 171]",171,a,0.7960764281451702,colour,0.5
121,22,0,2,6,1,251,349.36762523511425,350.1917379790684,"[70, 0, 184]",184,a,0.2999711704906076,colour,0.5
121,22,0,2,6,2,252,350.7122246623039,351.2877312269993,"[42, 0, 212]",212,a,0.05230510141700506,colour,0.5
121,22,0,2,6,3,253,351.80591548699886,352.56774543691427,"[92, 0, 162]",162,a,0.2391723879845813,colour,0.5
121,22,0,2,6,4,254,353.08716913009994,353.6877979444107,"[24, 0, 230]",230,a,0.07737418194301426,colour,0.5
121,22,0,2,6,5,255,354.1965216315584,354.7437736898428,"[93, 0, 161]",161,l,0.024335739435628057,colour,0.5
121,22,0,2,6,6,256,355.2589722039411,355.9198929212289,"[47, 0, 207]",207,a,0.13747073733247817,colour,0.5
121,22,0,2,6,7,257,356.4308457762236,357.14377463504206,"[64, 0, 190]",190,a,0.18989635549951345,colour,0.5
121,22,0,2,6,8,258,357.66526247467846,358.19179941900074,"[28, 0, 226]",226,a,0.003580059390515089,colour,0.5
121,22,0,2,6,9,259,358.7121529823635,359.26371883496176,"[23, 0, 231]",231,a,0.02833170013036579,colour,0.5
121,22,0,2,6,10,260,359.7746078870259,360.87177164503373,"[10, 0, 244]",244,a,0.5738323256373405,colour,0.5
121,22,0,2,6,11,261,361.38401749625336,361.99176862020977,"[74, 0, 180]",180,a,0.08436612854711711,colour,0.5
121,22,0,2,6,12,262,362.50896747782826,363.0717189484276,"[3, 0, 251]",251,a,0.0396618596278131,colour,0.5
121,22,0,2,6,13,263,363.587120687007,364.2637771242298,"[57, 0, 197]",197,a,0.15338526328559965,colour,0.5
121,22,0,2,6,14,264,364.7745645639952,365.30374460830353,"[34, 0, 220]",220,a,0.005785202723927796,colour,0.5
121,22,0,2,6,15,265,365.8232797598466,366.44776776013896,"[79, 0, 175]",175,a,0.10145864775404334,colour,0.5
121,22,0,2,6,16,266,366.9639717628015,367.55173638788983,"[68, 0, 186]",186,a,0.06469076790381223,colour,0.5
121,22,0,2,6,17,267,368.07563417067286,368.7837104538921,"[53, 0, 201]",201,a,0.18458888784516603,colour,0.5
121,22,0,2,6,18,268,369.2943982507568,370.01569909229875,"[63, 0, 191]",191,a,0.20210439758375287,colour,0.5
121,22,0,2,6,19,269,370.5246413638815,371.50373011478223,"[9, 0, 245]",245,a,0.4557049369905144,colour,0.5
121,22,0,2,6,20,270,372.0245941024041,372.6317926605698,"[21, 0, 233]",233,a,0.0840679871616885,colour,0.5
121,22,0,2,6,21,271,373.1496346684871,374.3997563669691,"[44, 0, 210]",210,a,0.7271100688958541,colour,0.5
121,22,0,2,6,22,272,374.91525893006474,375.7277362839086,"[16, 0, 238]",238,a,0.28911835222970694,colour,0.5
121,22,0,2,6,23,273,376.2434428592678,377.623755053035,"[29, 0, 225]",225,a,0.8570351121015847,colour,0.5
121,22,0,2,6,24,274,378.13393951475155,378.75171992520336,"[37, 0, 217]",217,a,0.09440486738458276,colour,0.5
121,22,0,2,6,25,275,379.2590226161992,380.14379235811066,"[99, 0, 155]",155,l,0.36141940497327596,colour,0.5
121,22,0,2,6,26,276,380.66525026550516,381.743793776026,"[30, 0, 224]",224,a,0.5551683612866327,colour,0.5
121,22,0,2,6,27,277,382.2591277731117,382.95975327922497,"[98, 0, 156]",156,l,0.17764223355334252,colour,0.5
121,22,0,2,6,28,278,383.4778028439032,384.1277671614662,"[71, 0, 183]",183,a,0.1265848360490054,colour,0.5
121,22,0,2,6,29,279,384.63401198235806,385.16780987009406,"[31, 0, 223]",223,a,0.010404621483758092,colour,0.5
121,22,0,2,6,30,280,385.6809347853996,386.2157606109977,"[48, 0, 206]",206,a,0.01156883011572063,colour,0.5
121,22,0,2,6,31,281,386.71543332503643,387.29573614534456,"[61, 0, 193]",193,a,0.05731679080054164,colour,0.5
121,22,0,2,6,32,282,387.809498303337,388.33573907555547,"[1, 0, 253]",253,a,0.003294127294793725,colour,0.5
121,22,0,2,6,33,283,388.8561225711601,390.08774493273813,"[85, 0, 169]",169,l,0.7083594583673403,colour,0.5
121,22,0,2,6,34,284,390.60602450347506,391.3037008913234,"[89, 0, 165]",165,l,0.17433195852208883,colour,0.5
121,22,0,2,6,35,285,391.82485041732434,392.5757487799274,"[72, 0, 182]",182,a,0.22767287481110543,colour,0.5
121,22,0,2,6,36,286,393.0904494727729,393.76768053113483,"[77, 0, 177]",177,a,0.1539957243949175,colour,0.5
121,22,0,2,6,37,287,394.27785475284327,394.9277371503413,"[2, 0, 252]",252,a,0.12649858370423317,colour,0.5
121,22,0,2,6,38,288,395.4342123712413,396.05569335783366,"[88, 0, 166]",166,l,0.09814994817133993,colour,0.5
121,22,0,2,6,39,289,396.5747633774299,397.7517281959299,"[14, 0, 240]",240,a,0.653660561540164,colour,0.5
121,22,0,2,6,40,290,398.26238369732164,399.6877333536977,"[73, 0, 181]",181,a,0.9020686362637207,colour,0.5
121,22,0,2,6,41,291,400.1874958645785,401.1757521670079,"[40, 0, 214]",214,a,0.4654502604389563,colour,0.5
121,22,0,2,6,42,292,401.6874564799946,403.5837320367573,"[32, 0, 222]",222,a,1.3730417981278151,colour,0.5
121,22,0,2,6,43,293,404.0937325722771,404.7597528065089,"[58, 0, 196]",196,a,0.14274315256625414,colour,0.5
121,22,0,2,6,44,294,405.28111540316604,406.47973387048114,"[82, 0, 172]",172,l,0.6752358350204304,colour,0.5
121,22,0,2,6,45,295,406.9999255631119,407.6557613357436,"[20, 0, 234]",234,a,0.13256971864029765,colour,0.5
121,22,0,2,6,46,296,408.1718467908213,408.84769111766946,"[50, 0, 204]",204,a,0.1528078850824386,colour,0.5
121,22,0,2,6,47,297,409.35928988002706,409.99972942785826,"[80, 0, 174]",174,l,0.11713489692192525,colour,0.5
121,22,0,2,6,48,298,410.51549586781766,411.0957455188036,"[7, 0, 247]",247,a,0.05682251404505223,colour,0.5
121,22,0,2,6,49,299,411.6092469508294,412.16776182095055,"[69, 0, 185]",185,l,0.03518658853136003,colour,0.5
121,22,0,2,6,50,300,412.68737613549456,413.23173460771795,"[43, 0, 211]",211,a,0.021112898248247802,colour,0.5
121,22,0,2,7,1,301,417.83353944600094,418.5837521228241,"[99, 0, 155]",155,l,0.22547639603726566,colour,0.5
121,22,0,2,7,2,302,419.08971888851374,419.6557160434313,"[42, 0, 212]",212,a,0.04268108250107616,colour,0.5
121,22,0,2,7,3,303,420.15526193904225,420.86371316364966,"[78, 0, 176]",176,l,0.18531907827127725,colour,0.5
121,22,0,2,7,4,304,421.37410360667855,421.90373814920895,"[71, 0, 183]",183,l,0.006267270189709961,colour,0.5
121,22,0,2,7,5,305,422.42097717896104,423.05573549936526,"[55, 0, 199]",199,a,0.11157970025669783,colour,0.5
121,22,0,2,7,6,306,423.5772186128888,424.18375866068527,"[27, 0, 227]",227,a,0.08324327389709651,colour,0.5
121,22,0,2,7,7,307,424.70226941898,425.3116865112679,"[92, 0, 162]",162,l,0.08606714918278158,colour,0.5
121,22,0,2,7,8,308,425.8271815913031,426.3997764530359,"[94, 0, 160]",160,l,0.049282333930023015,colour,0.5
121,22,0,2,7,9,309,426.92095394211356,427.463785867556,"[82, 0, 172]",172,l,0.019649366848170757,colour,0.5
121,22,0,2,7,10,310,427.98335134529043,428.5357308834791,"[57, 0, 197]",197,a,0.028939404408447444,colour,0.5
121,22,0,2,7,11,311,429.04594173282385,429.5997269072104,"[65, 0, 189]",189,a,0.03055535419844091,colour,0.5
121,22,0,2,7,12,312,430.1084935235558,430.80767597828526,"[97, 0, 157]",157,l,0.17599477607291192,colour,0.5
121,22,0,2,7,13,313,431.3272194005549,431.9676869114628,"[3, 0, 251]",251,a,0.1171297769760713,colour,0.5
121,22,0,2,7,14,314,432.484491529176,433.14372776739765,"[75, 0, 179]",179,l,0.13593001198023558,colour,0.5
121,22,0,2,7,15,315,433.6562973599648,434.2637716103345,"[14, 0, 240]",240,a,0.08409988880157471,colour,0.5
121,22,0,2,7,16,316,434.78129224001896,435.6877400490921,"[86, 0, 168]",168,l,0.3830096444580704,colour,0.5
121,22,0,2,7,17,317,436.20320243993774,436.8236995995976,"[1, 0, 253]",253,a,0.09758477937430143,colour,0.5
121,22,0,2,7,18,318,437.3438109476119,438.12773368449416,"[64, 0, 190]",190,a,0.25933375442400575,colour,0.5
121,22,0,2,7,19,319,438.64196491311304,439.3516736876918,"[70, 0, 184]",184,a,0.1863084192154929,colour,0.5
121,22,0,2,7,20,320,439.8607971284073,440.49572480248753,"[18, 0, 236]",236,a,0.11192037689033896,colour,0.5
121,22,0,2,7,21,321,441.01699957146775,441.5756644968642,"[12, 0, 242]",242,a,0.035624939016997814,colour,0.5
121,22,0,2,7,22,322,442.0949794885237,443.7517392236041,"[91, 0, 163]",163,l,1.133253435138613,colour,0.5
121,22,0,2,7,23,323,444.2669877561275,445.2316932538524,"[0, 0, 254]",254,a,0.4413551607867703,colour,0.5
121,22,0,2,7,24,324,445.75131426390726,446.4236962912837,"[34, 0, 220]",220,a,0.1489946689689532,colour,0.5
121,22,0,2,7,25,325,446.9389081960544,447.55968104780186,"[28, 0, 226]",226,a,0.09775688988156617,colour,0.5
121,22,0,2,7,26,326,448.0715468376875,448.59967728261836,"[37, 0, 217]",217,a,0.005008144653402269,colour,0.5
121,22,0,2,7,27,327,449.1215156451799,449.75173213437665,"[6, 0, 248]",248,a,0.10712727205827832,colour,0.5
121,22,0,2,7,28,328,450.262139118975,450.855725968373,"[60, 0, 194]",194,a,0.07029598311055452,colour,0.5
121,22,0,2,7,29,329,451.3715132820653,452.31175504042767,"[67, 0, 187]",187,a,0.4171387566020712,colour,0.5
121,22,0,2,7,30,330,452.82458850974217,453.51972144062165,"[46, 0, 208]",208,a,0.17171997239347547,colour,0.5
121,22,0,2,7,31,331,454.02770548523404,454.8077063043602,"[10, 0, 244]",244,a,0.25698997743893415,colour,0.5
121,22,0,2,7,32,332,455.3258511797758,456.4717734566657,"[72, 0, 182]",182,a,0.6225798168452457,colour,0.5
121,22,0,2,7,33,333,456.98210364137776,457.6478072234895,"[41, 0, 213]",213,a,0.14312006311956793,colour,0.5
121,22,0,2,7,34,334,458.1414596087998,458.7916889846092,"[62, 0, 192]",192,a,0.12712598033249378,colour,0.5
121,22,0,2,7,35,335,459.2977695717709,459.90369364456274,"[69, 0, 185]",185,a,0.08270134183112532,colour,0.5
121,22,0,2,7,36,336,460.42276878410485,461.07964824838564,"[51, 0, 203]",203,a,0.13352400728035718,colour,0.5
121,22,0,2,7,37,337,461.59518468228634,462.17570214846637,"[15, 0, 239]",239,a,0.05698556627612561,colour,0.5
121,22,0,2,7,38,338,462.68907006678637,463.21567278332077,"[2, 0, 252]",252,a,0.00349892710801214,colour,0.5
121,22,0,2,7,39,339,463.7359377313405,465.0556882378878,"[23, 0, 231]",231,a,0.7963131295982748,colour,0.5
121,22,0,2,7,40,340,465.56418546359055,466.1676578455372,"[21, 0, 233]",233,a,0.08014567568898201,colour,0.5
121,22,0,2,7,41,341,466.6737510358216,467.5757432660321,"[26, 0, 228]",228,a,0.37881164078135043,colour,0.5
121,22,0,2,7,42,342,468.0954099621158,468.7116445272695,"[61, 0, 193]",193,a,0.09287753282114863,colour,0.5
121,22,0,2,7,43,343,469.2211177032441,469.90366056154016,"[25, 0, 229]",229,a,0.15939968428574502,colour,0.5
121,22,0,2,7,44,344,470.42419568786863,471.1197283723159,"[95, 0, 159]",159,l,0.17223709204699844,colour,0.5
121,22,0,2,7,45,345,471.62731463252567,472.23166568472516,"[24, 0, 230]",230,a,0.08104128134436905,colour,0.5
121,22,0,2,7,46,346,472.75231896480545,473.3036843498703,"[30, 0, 224]",224,a,0.02839707862585783,colour,0.5
121,22,0,2,7,47,347,473.8058835854754,474.5276794913225,"[9, 0, 245]",245,a,0.1986889656400308,colour,0.5
121,22,0,2,7,48,348,475.04026798857376,475.6716888585361,"[45, 0, 209]",209,a,0.10812527756206691,colour,0.5
121,22,0,2,7,49,349,476.1808879177552,476.71216125309,"[63, 0, 191]",191,a,0.007948992191813886,colour,0.5
121,22,0,2,7,50,350,477.2434345885413,477.8796654987382,"[52, 0, 202]",202,a,0.1133370406460017,colour,0.5
121,22,0,2,8,1,351,482.1414832394803,482.76768092496786,"[49, 0, 205]",205,a,0.10202027205377817,colour,0.5
121,22,0,2,8,2,352,483.28491562244017,483.9517294561956,"[54, 0, 200]",200,a,0.1434067829977721,colour,0.5
121,22,0,2,8,3,353,484.47316215746105,485.0076953554526,"[8, 0, 246]",246,a,0.011167501099407673,colour,0.5
121,22,0,2,8,4,354,485.52002273278777,486.0477002549451,"[41, 0, 213]",213,a,0.004646988003514707,colour,0.5
121,22,0,2,8,5,355,486.5668679481605,487.3438558460912,"[12, 0, 242]",242,a,0.25390695151872933,colour,0.5
121,22,0,2,8,6,356,487.8638313174015,488.39169040240813,"[14, 0, 240]",240,a,0.004633991047739983,colour,0.5
121,22,0,2,8,7,357,488.9106607789872,489.6236959762173,"[15, 0, 239]",239,a,0.1966102470178157,colour,0.5
121,22,0,2,8,8,358,490.1739830110455,490.7916409354657,"[94, 0, 160]",160,l,0.09897820616606623,colour,0.5
121,22,0,2,8,9,359,491.30996225378476,491.86372537282296,"[88, 0, 166]",166,l,0.030472646583802998,colour,0.5
121,22,0,2,8,10,360,492.3723490231205,492.95167431782465,"[80, 0, 174]",174,l,0.05606869305483997,colour,0.5
121,22,0,2,8,11,361,493.4660599338822,494.0076697554905,"[44, 0, 210]",210,a,0.01817874622065574,colour,0.5
121,22,0,2,8,12,362,494.52861487539485,495.0956502080662,"[2, 0, 252]",252,a,0.043653094209730625,colour,0.5
121,22,0,2,8,13,363,495.60676808457356,496.31965046958067,"[65, 0, 189]",189,a,0.18958718643989414,colour,0.5
121,22,0,2,8,14,364,496.84115800156724,497.3756813535001,"[11, 0, 243]",243,a,0.011131661129184067,colour,0.5
121,22,0,2,8,15,365,497.8880347246304,498.41566577285994,"[77, 0, 177]",177,l,0.004295677412301302,colour,0.5
121,22,0,2,8,16,366,498.93495122611057,499.5836288491264,"[22, 0, 232]",232,a,0.1257951749721542,colour,0.5
121,22,0,2,8,17,367,500.0911587892333,500.7276118285954,"[20, 0, 234]",234,a,0.11314366234000772,colour,0.5
121,22,0,2,8,18,368,501.2473895892035,501.77567836025264,"[81, 0, 173]",173,l,0.004947098670527339,colour,0.5
121,22,0,2,8,19,369,502.2943525646115,502.9516569885891,"[60, 0, 194]",194,l,0.13410217314958572,colour,0.5
121,22,0,2,8,20,370,503.45587980456185,504.04764866107143,"[59, 0, 195]",195,a,0.06866664253175259,colour,0.5
121,22,0,2,8,21,371,504.56665369600523,505.0958278325852,"[57, 0, 197]",197,a,0.005902174976654351,colour,0.5
121,22,0,2,8,22,372,505.6290920590982,506.80771260592155,"[32, 0, 222]",222,a,0.6553367697633803,colour,0.5
121,22,0,2,8,23,373,507.3165820160648,508.2636703919852,"[62, 0, 192]",192,a,0.42409092490561306,colour,0.5
121,22,0,2,8,24,374,508.78538548061624,509.5356871666154,"[0, 0, 254]",254,a,0.22696395206730813,colour,0.5
121,22,0,2,8,25,375,510.05100856069475,510.5836954090046,"[26, 0, 228]",228,a,0.009414099040441215,colour,0.5
121,22,0,2,8,26,376,511.0978730744682,511.65568532340694,"[29, 0, 225]",225,a,0.034563918015919626,colour,0.5
121,22,0,2,8,27,377,512.1768352432409,512.7517092913622,"[85, 0, 169]",169,l,0.051538283471018076,colour,0.5
121,22,0,2,8,28,378,513.2705067694187,514.0156148092356,"[3, 0, 251]",251,a,0.2218427734915167,colour,0.5
121,22,0,2,8,29,379,514.5360754986759,515.10365670186,"[55, 0, 199]",199,a,0.04319820215459913,colour,0.5
121,22,0,2,8,30,380,515.6028020562371,516.5197084437823,"[72, 0, 182]",182,a,0.3938321366440505,colour,0.5
121,22,0,2,8,31,381,517.040319976164,517.7596799450694,"[91, 0, 163]",163,l,0.19606989028397948,colour,0.5
121,22,0,2,8,32,382,518.2746795669664,521.1196897755144,"[19, 0, 235]",235,a,2.3217071330873296,colour,0.5
121,22,0,2,8,33,383,521.6340328562073,522.5757290875772,"[90, 0, 164]",164,l,0.41831005446147174,colour,0.5
121,22,0,2,8,34,384,523.0871273824014,524.5276393190725,"[42, 0, 212]",212,a,0.9171812919666991,colour,0.5
121,22,0,2,8,35,385,525.0402845300268,525.5836666582618,"[13, 0, 241]",241,a,0.0182224630843848,colour,0.5
121,22,0,2,8,36,386,526.1051328363828,526.6718184339115,"[63, 0, 191]",191,a,0.043778731022030115,colour,0.5
121,22,0,2,8,37,387,527.1832521748729,527.7196754394099,"[46, 0, 208]",208,a,0.013048115302808583,colour,0.5
121,22,0,2,8,38,388,528.2301580425119,529.399673265405,"[71, 0, 183]",183,a,0.6461050213547423,colour,0.5
121,22,0,2,8,39,389,529.9052611513762,530.5276405005716,"[76, 0, 178]",178,a,0.09931770130060613,colour,0.5
121,22,0,2,8,40,390,531.0458220037399,531.5836493290262,"[73, 0, 181]",181,a,0.014554576016962528,colour,0.5
121,22,0,2,8,41,391,532.094596276409,532.7596779757878,"[89, 0, 165]",165,l,0.1417924085399136,colour,0.5
121,22,0,2,8,42,392,533.2558391595958,533.9436595533043,"[31, 0, 223]",223,a,0.16433378600049764,colour,0.5
121,22,0,2,8,43,393,534.4590699564433,535.0556571240304,"[40, 0, 214]",214,a,0.07165041915141046,colour,0.5
121,22,0,2,8,44,394,535.5715074531035,536.2315888847224,"[33, 0, 221]",221,a,0.13689296529628336,colour,0.5
121,22,0,2,8,45,395,536.7435318684438,537.3756935626734,"[83, 0, 171]",171,l,0.10962858749553561,colour,0.5
121,22,0,2,8,46,396,537.8839852008969,538.5116188485408,"[51, 0, 203]",203,a,0.10419902764260769,colour,0.5
121,22,0,2,8,47,397,539.0254420526326,539.8476765453815,"[82, 0, 172]",172,l,0.29966121376492083,colour,0.5
121,22,0,2,8,48,398,540.3690080281813,540.9676278345287,"[4, 0, 250]",250,a,0.07531200477387756,colour,0.5
121,22,0,2,8,49,399,541.4784263019683,542.0316683627898,"[92, 0, 162]",162,l,0.029832253116182983,colour,0.5
121,22,0,2,8,50,400,542.5408890835242,543.279652265599,"[43, 0, 211]",211,a,0.21543844509869814,colour,0.5
121,22,0,2,9,1,401,548.6039938339964,549.3036489037331,"[62, 0, 192]",192,a,0.17569781618658453,colour,0.5
121,22,0,2,9,2,402,549.8236377657158,550.4316055050585,"[8, 0, 246]",246,a,0.0847528853919357,colour,0.5
121,22,0,2,9,3,403,550.9485420611454,551.5196021053707,"[57, 0, 197]",197,a,0.04775460564997047,colour,0.5
121,22,0,2,9,4,404,552.0266948766075,552.5756365337875,"[56, 0, 198]",198,a,0.026221473701298237,colour,0.5
121,22,0,2,9,5,405,553.0892163411481,553.8316281117732,"[32, 0, 222]",222,a,0.21897833212278783,colour,0.5
121,22,0,2,9,6,406,554.3391478119884,554.887632214115,"[59, 0, 195]",195,a,0.02523213275708258,colour,0.5
121,22,0,2,9,7,407,555.4017437134171,556.0715909485007,"[49, 0, 205]",205,a,0.14691791939549148,colour,0.5
121,22,0,2,9,8,408,556.5891844396247,558.2796538409311,"[31, 0, 223]",223,a,1.1673632487654686,colour,0.5
121,22,0,2,9,9,409,558.7923049596138,559.5916444013128,"[61, 0, 193]",193,a,0.2760666923131794,colour,0.5
121,22,0,2,9,10,410,560.106605820125,560.8316245671595,"[47, 0, 207]",207,a,0.20161642238963395,colour,0.5
121,22,0,2,9,11,411,561.3409268140094,561.951656200923,"[73, 0, 181]",181,a,0.08763386821374297,colour,0.5
121,22,0,2,9,12,412,562.4658972756006,563.1196874123998,"[91, 0, 163]",163,l,0.1303815107094124,colour,0.5
121,22,0,2,9,13,413,563.6378448909381,564.1755954162218,"[29, 0, 225]",225,a,0.014559302129782736,colour,0.5
121,22,0,2,9,14,414,564.6846688386286,565.2556371167302,"[5, 0, 249]",249,a,0.04761636571493,colour,0.5
121,22,0,2,9,15,415,565.7627334324643,566.4476137663005,"[93, 0, 161]",161,l,0.16194826120045036,colour,0.5
121,22,0,2,9,16,416,566.9659086971078,567.6076156410854,"[78, 0, 176]",176,l,0.11835030547808856,colour,0.5
121,22,0,2,9,17,417,568.1221812447766,568.7596200804692,"[27, 0, 227]",227,a,0.11423894786275923,colour,0.5
121,22,0,2,9,18,418,569.2783277616836,570.0000078768935,"[60, 0, 194]",194,a,0.1981761782662943,colour,0.5
121,22,0,2,9,19,419,570.512840952375,571.1036362218438,"[85, 0, 169]",169,l,0.06759341235738248,colour,0.5
121,22,0,2,9,20,420,571.6222194478614,572.2956266561523,"[7, 0, 247]",247,a,0.15031326503958553,colour,0.5
121,22,0,2,9,21,421,572.8096491462784,573.3676299613435,"[9, 0, 245]",245,a,0.03461629955563694,colour,0.5
121,22,0,2,9,22,422,573.8878188970266,574.4716450629057,"[97, 0, 157]",157,l,0.060982708586379886,colour,0.5
121,22,0,2,9,23,423,574.9815621032612,575.5436716049444,"[82, 0, 172]",172,l,0.03876901092007756,colour,0.5
121,22,0,2,9,24,424,576.0596798663028,576.6476752851158,"[36, 0, 218]",218,a,0.06465610954910517,colour,0.5
121,22,0,2,9,25,425,577.1690654509002,578.3356520355446,"[67, 0, 187]",187,a,0.6432827215176076,colour,0.5
121,22,0,2,9,26,426,578.8565227186773,579.743696496007,"[22, 0, 232]",232,a,0.36385416041594,colour,0.5
121,22,0,2,9,27,427,580.2627684847685,580.927562676603,"[55, 0, 199]",199,a,0.14148481481242925,colour,0.5
121,22,0,2,9,28,428,581.4346385124372,582.6957244874211,"[16, 0, 238]",238,a,0.737743908772245,colour,0.5
121,22,0,2,9,29,429,583.215861435514,583.8156261519762,"[79, 0, 175]",175,l,0.07639665633905679,colour,0.5
121,22,0,2,9,30,430,584.3252226017648,585.6796827492071,"[10, 0, 244]",244,a,0.8311086290050298,colour,0.5
121,22,0,2,9,31,431,586.2002147247549,587.0556665763725,"[18, 0, 236]",236,a,0.33204637619201094,colour,0.5
121,22,0,2,9,32,432,587.5752159063704,588.2476404691115,"[86, 0, 168]",168,l,0.14906280429568142,colour,0.5
121,22,0,2,9,33,433,588.7626794755924,589.2957487483509,"[30, 0, 224]",224,a,0.009779588086530566,colour,0.5
121,22,0,2,9,34,434,589.8095695894444,590.4476830832427,"[87, 0, 167]",167,l,0.1147210153285414,colour,0.5
121,22,0,2,9,35,435,590.965879552532,591.5196446407354,"[39, 0, 215]",215,a,0.030493126600049436,colour,0.5
121,22,0,2,9,36,436,592.0283139771782,592.65564554499,"[6, 0, 248]",248,a,0.10461492894683033,colour,0.5
121,22,0,2,9,37,437,593.1690024355194,593.7196096671978,"[12, 0, 242]",242,a,0.027189940912649035,colour,0.5
121,22,0,2,9,38,438,594.2314616724616,594.8076129629044,"[23, 0, 231]",231,a,0.05305734707508236,colour,0.5
121,22,0,2,9,39,439,595.3252166940365,595.9916386511177,"[72, 0, 182]",182,l,0.14309800777118653,colour,0.5
121,22,0,2,9,40,440,596.5127086201683,598.231671198504,"[68, 0, 186]",186,a,1.1955890044337139,colour,0.5
121,22,0,2,9,41,441,598.7471174417296,599.7276067086495,"[20, 0, 234]",234,a,0.45731458521913737,colour,0.5
121,22,0,2,9,42,442,600.2471131094499,600.8956111385487,"[52, 0, 202]",202,a,0.12515911366790533,colour,0.5
121,22,0,2,9,43,443,601.4033620263217,602.1276052907342,"[95, 0, 159]",159,l,0.20099887193646282,colour,0.5
121,22,0,2,9,44,444,602.6376314264489,603.3515393862035,"[41, 0, 213]",213,a,0.19060724740847945,colour,0.5
121,22,0,2,9,45,445,603.8720181925455,604.4796172920614,"[40, 0, 214]",214,a,0.08445001777727157,colour,0.5
121,22,0,2,9,46,446,604.9970516694011,605.57558927231,"[13, 0, 241]",241,a,0.055211684317328036,colour,0.5
121,22,0,2,9,47,447,606.0908125987044,606.8316048749257,"[90, 0, 164]",164,l,0.21749038237612695,colour,0.5
121,22,0,2,9,48,448,607.3408641924616,608.0796261929208,"[42, 0, 212]",212,a,0.21548925107344985,colour,0.5
121,22,0,2,9,49,449,608.5908204755979,609.3275833141524,"[98, 0, 156]",156,l,0.21343573846388608,colour,0.5
121,22,0,2,9,50,450,609.8406814479968,610.5276282913983,"[81, 0, 173]",173,l,0.1640911769354716,colour,0.5
121,22,0,2,10,1,451,615.6368145899614,617.783595844754,"[62, 0, 192]",192,a,1.6227791028795764,colour,0.5
121,22,0,2,10,2,452,618.2939279986313,618.9916232911637,"[64, 0, 190]",190,a,0.1743571647675708,colour,0.5
121,22,0,2,10,3,453,619.5126432417892,620.1437376135727,"[38, 0, 216]",216,a,0.10779090248979628,colour,0.5
121,22,0,2,10,4,454,620.6532430849038,621.2875843223883,"[8, 0, 246]",246,a,0.11094875901471823,colour,0.5
121,22,0,2,10,5,455,621.793916577124,622.3516402107198,"[60, 0, 194]",194,a,0.03447766578756273,colour,0.5
121,22,0,2,10,6,456,622.8719957433641,623.5916475519771,"[98, 0, 156]",156,l,0.19651572383008897,colour,0.5
121,22,0,2,10,7,457,624.1063769956818,624.8795733388979,"[39, 0, 215]",215,a,0.24985152017325163,colour,0.5
121,22,0,2,10,8,458,625.3875317834318,625.9196050198516,"[33, 0, 221]",221,a,0.00877803796902299,colour,0.5
121,22,0,2,10,9,459,626.4345077556791,627.0875881820684,"[30, 0, 224]",224,a,0.12970330798998475,colour,0.5
121,22,0,2,10,10,460,627.6063947187504,628.2796113055665,"[76, 0, 178]",178,a,0.14990878524258733,colour,0.5
121,22,0,2,10,11,461,628.7938929464435,629.328247338417,"[12, 0, 242]",242,a,0.011003661202266812,colour,0.5
121,22,0,2,10,12,462,629.8407322540879,630.4076640052954,"[4, 0, 250]",250,a,0.043642854201607406,colour,0.5
121,22,0,2,10,13,463,630.9188346571755,631.5516115387436,"[72, 0, 182]",182,a,0.10931508615612984,colour,0.5
121,22,0,2,10,14,464,632.0594868818298,632.8476611854276,"[50, 0, 204]",204,a,0.2651800033636391,colour,0.5
121,22,0,2,10,15,465,633.3563356418163,633.9838369572535,"[87, 0, 167]",167,l,0.10402258473914117,colour,0.5
121,22,0,2,10,16,466,634.4968996449606,635.1196031293366,"[1, 0, 253]",253,a,0.09939292585477233,colour,0.5
121,22,0,2,10,17,467,635.6375865279697,636.3595695106778,"[97, 0, 157]",157,l,0.19874883024021983,colour,0.5
121,22,0,2,10,18,468,636.8719083095202,637.6155339132529,"[82, 0, 172]",172,a,0.22045525431167334,colour,0.5
121,22,0,2,10,19,469,638.1219090971863,638.6475776112638,"[92, 0, 162]",162,l,0.0025796907721087337,colour,0.5
121,22,0,2,10,20,470,639.1688212663867,640.1596592287533,"[0, 0, 254]",254,a,0.4673580500530079,colour,0.5
121,22,0,2,10,21,471,640.6688354448415,641.4155602222309,"[6, 0, 248]",248,a,0.22333741886541247,colour,0.5
121,22,0,2,10,22,472,641.9344037802657,642.9836337327724,"[40, 0, 214]",214,a,0.5265491536119953,colour,0.5
121,22,0,2,10,23,473,643.4969795956276,644.2236028709449,"[74, 0, 180]",180,a,0.20344623050186783,colour,0.5
121,22,0,2,10,24,474,644.7314301648876,645.359619922936,"[69, 0, 185]",185,a,0.10503870714455843,colour,0.5
121,22,0,2,10,25,475,645.8719528141664,646.4396332664182,"[27, 0, 227]",227,a,0.04469284741207957,colour,0.5
121,22,0,2,10,26,476,646.950046552578,647.5436479742639,"[20, 0, 234]",234,a,0.07111990882549435,colour,0.5
121,22,0,2,10,27,477,648.059399841819,649.5035780902253,"[18, 0, 236]",236,a,0.9207526867976412,colour,0.5
121,22,0,2,10,28,478,650.0125412356574,650.6395856898744,"[46, 0, 208]",208,a,0.10371538484469056,colour,0.5
121,22,0,2,10,29,479,651.1532395402901,651.6956047583371,"[36, 0, 218]",218,a,0.01905150874517858,colour,0.5
121,22,0,2,10,30,480,652.215708229458,652.9275792181725,"[93, 0, 161]",161,l,0.18847575329709798,colour,0.5
121,22,0,2,10,31,481,653.4344667956466,653.967584117665,"[65, 0, 189]",189,a,0.009764621965587139,colour,0.5
121,22,0,2,10,32,482,654.4814108663704,655.1675861655967,"[81, 0, 173]",173,l,0.1631282236194238,colour,0.5
121,22,0,2,10,33,483,655.6844667956466,656.90364086919,"[54, 0, 200]",200,a,0.6958264934364706,colour,0.5
121,22,0,2,10,34,484,657.4189083063975,657.943693423993,"[96, 0, 158]",158,l,0.0015340298414230347,colour,0.5
121,22,0,2,10,35,485,658.4657535217702,659.5517568679061,"[78, 0, 176]",176,l,0.562576603027992,colour,0.5
121,22,0,2,10,36,486,660.0594864879968,660.7355655470164,"[15, 0, 239]",239,a,0.15274408203549683,colour,0.5
121,22,0,2,10,37,487,661.2469599033939,662.4075360053685,"[48, 0, 206]",206,a,0.6372478203848004,colour,0.5
121,22,0,2,10,38,488,662.9188185095554,663.8955827817554,"[75, 0, 179]",179,a,0.45345804595854133,colour,0.5
121,22,0,2,10,39,489,664.4032568695256,665.0236213030294,"[41, 0, 213]",213,a,0.09707750577945262,colour,0.5
121,22,0,2,10,40,490,665.5438783740392,667.5436448234832,"[47, 0, 207]",207,a,1.4764594354201108,colour,0.5
121,22,0,2,10,41,491,668.0594549803063,668.6075561703183,"[14, 0, 240]",240,a,0.024715013103559613,colour,0.5
121,22,0,2,10,42,492,669.1416329009226,669.6955736444797,"[29, 0, 225]",225,a,0.034748631762340665,colour,0.5
121,22,0,2,10,43,493,670.2156164634507,670.7755921080243,"[19, 0, 235]",235,a,0.036600889172405005,colour,0.5
121,22,0,2,10,44,494,671.293802755652,671.8555837899912,"[52, 0, 202]",202,a,0.03837437741458416,colour,0.5
121,22,0,2,10,45,495,672.3718756203307,672.9115776522085,"[86, 0, 168]",168,l,0.016482451814226806,colour,0.5
121,22,0,2,10,46,496,673.4188634079183,674.0635813040426,"[24, 0, 230]",230,a,0.12147547292988747,colour,0.5
121,22,0,2,10,47,497,674.5751162633533,675.1755312193418,"[58, 0, 196]",196,a,0.07743956032209098,colour,0.5
121,22,0,2,10,48,498,675.684488850995,676.2475297984201,"[67, 0, 187]",187,a,0.03982333652675152,colour,0.5
121,22,0,2,10,49,499,676.7625881033018,677.383551576524,"[89, 0, 165]",165,l,0.09772735147271305,colour,0.5
121,22,0,2,10,50,500,677.9032269371673,678.4955515103647,"[31, 0, 223]",223,a,0.06932869751472026,colour,0.5
121,22,0,2,11,1,501,683.0899398360634,683.7355202547042,"[45, 0, 209]",209,a,0.12153966969344765,colour,0.5
121,22,0,2,11,2,502,684.2468897987856,684.8795469511533,"[20, 0, 234]",234,a,0.10960850142873824,colour,0.5
121,22,0,2,11,3,503,685.3875258757034,685.9835927727399,"[7, 0, 247]",247,a,0.07283077540341765,colour,0.5
121,22,0,2,11,4,504,686.4968716818839,687.1275623615365,"[98, 0, 156]",156,l,0.10733876726590097,colour,0.5
121,22,0,2,11,5,505,687.6374250511872,688.2635435735574,"[23, 0, 231]",231,a,0.10287097922991961,colour,0.5
121,22,0,2,11,6,506,688.778028044966,689.3195614604047,"[64, 0, 190]",190,a,0.018111398443579674,colour,0.5
121,22,0,2,11,7,507,689.8406357618514,690.4555690600537,"[2, 0, 252]",252,a,0.091609742725268,colour,0.5
121,22,0,2,11,8,508,690.9656456080265,691.5596014909679,"[93, 0, 161]",161,l,0.07075875205919147,colour,0.5
121,22,0,2,11,9,509,692.074933124939,692.7515572668053,"[72, 0, 182]",182,l,0.1534620631719008,colour,0.5
121,22,0,2,11,10,510,693.2625246942043,694.3675988474861,"[57, 0, 197]",197,a,0.5821700438391417,colour,0.5
121,22,0,2,11,11,511,694.8876014940906,695.4955566303106,"[17, 0, 237]",237,a,0.08501794363837689,colour,0.5
121,22,0,2,11,12,512,696.0124750696123,696.6634996203938,"[89, 0, 165]",165,l,0.1277581030735746,colour,0.5
121,22,0,2,11,13,513,697.1843529741745,697.7275811086874,"[11, 0, 243]",243,a,0.019853772944770753,colour,0.5
121,22,0,2,11,14,514,698.2469098849688,698.9035758846439,"[14, 0, 240]",240,a,0.13339876430109143,colour,0.5
121,22,0,2,11,15,515,699.4187448603334,699.9915902080247,"[22, 0, 232]",232,a,0.04954621067736298,colour,0.5
121,22,0,2,11,16,516,700.5124679803848,702.1196275477996,"[18, 0, 236]",236,a,1.0842550640227273,colour,0.5
121,22,0,2,11,17,517,702.6374282018514,703.2235567909665,"[44, 0, 210]",210,a,0.06285308278165758,colour,0.5
121,22,0,2,11,18,518,703.7312682941556,704.3435510093113,"[80, 0, 174]",174,l,0.08899460581596941,colour,0.5
121,22,0,2,11,19,519,704.856185586541,705.5035213764058,"[79, 0, 175]",175,l,0.12464002484921366,colour,0.5
121,22,0,2,11,20,520,706.0125384787098,706.6875454891706,"[75, 0, 179]",179,l,0.15157357195857912,colour,0.5
121,22,0,2,11,21,521,707.1999347003875,708.3356126509607,"[68, 0, 186]",186,a,0.6123579397099093,colour,0.5
121,22,0,2,11,22,522,708.8561816480942,709.4716037090402,"[63, 0, 191]",191,a,0.09204100398346782,colour,0.5
121,22,0,2,11,23,523,709.9812470264733,710.7595787266036,"[67, 0, 187]",187,a,0.25503728922922164,colour,0.5
121,22,0,2,11,24,524,711.2779961434426,712.0235204783967,"[66, 0, 188]",188,a,0.2220629333751276,colour,0.5
121,22,0,2,11,25,525,712.543762977235,713.1675455995137,"[31, 0, 223]",223,a,0.10049490677192807,colour,0.5
121,22,0,2,11,26,526,713.6842875957955,714.3596014122013,"[0, 0, 254]",254,a,0.1518906180281192,colour,0.5
121,22,0,2,11,27,527,714.8718409618596,715.5355150559917,"[86, 0, 168]",168,l,0.14050886477343738,colour,0.5
121,22,0,2,11,28,528,716.0436975988559,716.7035403597401,"[6, 0, 248]",248,a,0.13648100243881345,colour,0.5
121,22,0,2,11,29,529,717.2155841680942,717.8315568256658,"[36, 0, 218]",218,a,0.09279915748629719,colour,0.5
121,22,0,2,11,30,530,718.3405219403794,718.8875699864002,"[41, 0, 213]",213,a,0.023707949090749025,colour,0.5
121,22,0,2,11,31,531,719.4030741249444,720.5755731245736,"[56, 0, 198]",198,a,0.6489162935176864,colour,0.5
121,22,0,2,11,32,532,721.0905050049769,721.7355261624325,"[13, 0, 241]",241,a,0.12171532504726201,colour,0.5
121,22,0,2,11,33,533,722.2467598295771,722.9836144342553,"[61, 0, 193]",193,a,0.21351371996570379,colour,0.5
121,22,0,2,11,34,534,723.4967787342612,724.1995392790996,"[78, 0, 176]",176,l,0.17949921707622707,colour,0.5
121,22,0,2,11,35,535,724.7155136696529,725.3195307404967,"[9, 0, 245]",245,a,0.08078173687681556,colour,0.5
121,22,0,2,11,36,536,725.8405778665328,726.4715450260555,"[42, 0, 212]",212,a,0.10769913636613637,colour,0.5
121,22,0,2,11,37,537,726.9811395065626,727.543560146587,"[97, 0, 157]",157,l,0.03910062916111201,colour,0.5
121,22,0,2,11,38,538,728.0593037434155,728.687536430778,"[73, 0, 181]",181,l,0.10488747037015855,colour,0.5
121,22,0,2,11,39,539,729.2000351310708,729.7436240284005,"[65, 0, 189]",189,a,0.020339778740890324,colour,0.5
121,22,0,2,11,40,540,730.2623970881104,730.847514674766,"[27, 0, 227]",227,a,0.061927545000799,colour,0.5
121,22,0,2,11,41,541,731.3561024849769,731.9275165966246,"[51, 0, 203]",203,a,0.048203983809798956,colour,0.5
121,22,0,2,11,42,542,732.4342084326781,733.0795856268378,"[26, 0, 228]",228,a,0.12195793411228806,colour,0.5
121,22,0,2,11,43,543,733.5905676265247,734.7995280937757,"[71, 0, 183]",183,a,0.6861327638616785,colour,0.5
121,22,0,2,11,44,544,735.3092253680807,735.9275288059143,"[33, 0, 221]",221,a,0.09493143926374614,colour,0.5
121,22,0,2,11,45,545,736.4342411219841,737.1355487691471,"[3, 0, 251]",251,a,0.17789547645952553,colour,0.5
121,22,0,2,11,46,546,737.6529713311465,738.9837006866001,"[96, 0, 158]",158,l,0.807369172340259,colour,0.5
121,22,0,2,11,47,547,739.4967507711845,740.2635589335114,"[1, 0, 253]",253,a,0.24349327152594924,colour,0.5
121,22,0,2,11,48,548,740.7779937804444,741.4875237488886,"[53, 0, 201]",201,a,0.1861965669086203,colour,0.5
121,22,0,2,11,49,549,741.9966995711438,742.7914554339368,"[29, 0, 225]",225,a,0.2714393965434283,colour,0.5
121,22,0,2,11,50,550,743.3092785372864,744.015556913917,"[50, 0, 204]",204,a,0.1830182303674519,colour,0.5
121,22,0,2,12,1,551,749.5583837194135,750.0959014818072,"[60, 0, 194]",194,a,0.013398638227954507,colour,0.5
121,22,0,2,12,2,552,750.6060611312278,751.1995436113793,"[28, 0, 226]",226,a,0.07045627839397639,colour,0.5
121,22,0,2,12,3,553,751.7153679466574,752.6795480538858,"[70, 0, 184]",184,a,0.44079826259985566,colour,0.5
121,22,0,2,12,4,554,753.1997913403902,753.8875148480292,"[54, 0, 200]",200,a,0.1643692321376875,colour,0.5
121,22,0,2,12,5,555,754.4029189497232,755.4794865351869,"[44, 0, 210]",210,a,0.5535563498269767,colour,0.5
121,22,0,2,12,6,556,755.9966763342964,756.6635445187567,"[30, 0, 224]",224,a,0.1433398291701451,colour,0.5
121,22,0,2,12,7,557,757.1840926420409,757.8315540687181,"[93, 0, 161]",161,l,0.1240094774402678,colour,0.5
121,22,0,2,12,8,558,758.3404254481429,758.9995482587256,"[52, 0, 202]",202,a,0.13584257813636214,colour,0.5
121,22,0,2,12,9,559,759.5122627866222,764.0075378171168,"[74, 0, 180]",180,a,3.971926662721671,colour,0.5
121,22,0,2,12,10,560,764.5278693251312,765.5915100998245,"[6, 0, 248]",248,a,0.5403085546568036,colour,0.5
121,22,0,2,12,11,561,766.1059945712332,767.0795682976022,"[45, 0, 209]",209,a,0.45037541387137026,colour,0.5
121,22,0,2,12,12,562,767.5903328943532,768.3995145455701,"[69, 0, 185]",185,a,0.2858155603753403,colour,0.5
121,22,0,2,12,13,563,768.9185369096231,770.3195098666474,"[43, 0, 211]",211,a,0.8776635800022632,colour,0.5
121,22,0,2,12,14,564,770.8403951219516,771.9115756830433,"[66, 0, 188]",188,a,0.5478633071761578,colour,0.5
121,22,0,2,12,15,565,772.4185085527133,773.0394984135637,"[4, 0, 250]",250,a,0.09768087766133249,colour,0.5
121,22,0,2,12,16,566,773.5591064266628,774.1835121131735,"[12, 0, 242]",242,a,0.10110851877834648,colour,0.5
121,22,0,2,12,17,567,774.6997877957765,775.4474684372544,"[82, 0, 172]",172,l,0.22452131973113865,colour,0.5
121,22,0,2,12,18,568,775.9653722789371,776.535567437415,"[58, 0, 196]",196,a,0.04669043386820704,colour,0.5
121,22,0,2,12,19,569,777.0435908666113,777.5835213290993,"[65, 0, 189]",189,a,0.017172469873912632,colour,0.5
121,22,0,2,12,20,570,778.0908594663488,778.7354989870219,"[13, 0, 241]",241,a,0.12133683904539794,colour,0.5
121,22,0,2,12,21,571,779.2471706109354,780.4475208186777,"[18, 0, 236]",236,a,0.6770195630379021,colour,0.5
121,22,0,2,12,22,572,780.965855134069,781.6235518285539,"[68, 0, 186]",186,a,0.13437313912436366,colour,0.5
121,22,0,2,12,23,573,782.137696410995,784.5196084069321,"[75, 0, 179]",179,a,1.858632551273331,colour,0.5
121,22,0,2,12,24,574,785.0282899525482,785.6715317140333,"[76, 0, 178]",178,a,0.12034080270677805,colour,0.5
121,22,0,2,12,25,575,786.1845735278912,787.9435394302709,"[62, 0, 192]",192,a,1.2356931529939175,colour,0.5
121,22,0,2,12,26,576,788.4502497770591,788.9835273943609,"[27, 0, 227]",227,a,0.009951698710210621,colour,0.5
121,22,0,2,12,27,577,789.497074512532,790.0235039369436,"[49, 0, 205]",205,a,0.0029888967983424664,colour,0.5
121,22,0,2,12,28,578,790.5439599001547,791.1434528629761,"[22, 0, 232]",232,a,0.07613711198791862,colour,0.5
121,22,0,2,12,29,579,791.6533238232369,792.5195245177019,"[96, 0, 158]",158,l,0.34300710808020085,colour,0.5
121,22,0,2,12,30,580,793.0281536818948,793.8635056067724,"[91, 0, 163]",163,l,0.31253643066156656,colour,0.5
121,22,0,2,12,31,581,794.3720465494553,795.0234870015411,"[31, 0, 223]",223,a,0.12829609657637775,colour,0.5
121,22,0,2,12,32,582,795.543979986338,796.1034857727354,"[85, 0, 169]",169,l,0.036203892435878515,colour,0.5
121,22,0,2,12,33,583,796.6221509185852,797.1675566271879,"[40, 0, 214]",214,a,0.022325549856759608,colour,0.5
121,22,0,2,12,34,584,797.684571952559,798.3354598387377,"[15, 0, 239]",239,a,0.12774746911600232,colour,0.5
121,22,0,2,12,35,585,798.8564809709787,799.5274735098938,"[46, 0, 208]",208,a,0.1476914327358827,colour,0.5
121,22,0,2,12,36,586,800.0439795925049,800.6717223355081,"[36, 0, 218]",218,a,0.1047145719639957,colour,0.5
121,22,0,2,12,37,587,801.1845735278912,801.879501658841,"[78, 0, 176]",176,a,0.17162623698823154,colour,0.5
121,22,0,2,12,38,588,802.3877164970618,803.0155565200839,"[3, 0, 251]",251,a,0.10463698441162705,colour,0.5
121,22,0,2,12,39,589,803.5282107895473,804.1594650627812,"[95, 0, 159]",159,l,0.10776924097444862,colour,0.5
121,22,0,2,12,40,590,804.6688957032748,805.3114844682859,"[90, 0, 164]",164,l,0.11928056948818266,colour,0.5
121,22,0,2,12,41,591,805.8251859740121,806.3834917119239,"[42, 0, 212]",212,a,0.03491444094106555,colour,0.5
121,22,0,2,12,42,592,806.9033565125428,807.5675036155153,"[89, 0, 165]",165,l,0.14086175058037043,colour,0.5
121,22,0,2,12,43,593,808.0752265402116,808.8954988925252,"[92, 0, 162]",162,l,0.29702874762006104,colour,0.5
121,22,0,2,12,44,594,809.4033557247603,809.9276312058792,"[21, 0, 233]",233,a,0.0010133655741810799,colour,0.5
121,22,0,2,12,45,595,810.4502265402116,810.9755512267584,"[9, 0, 245]",245,a,0.0024170323740690947,colour,0.5
121,22,0,2,12,46,596,811.4969799894607,812.0554850134067,"[84, 0, 170]",170,l,0.035126723931171,colour,0.5
121,22,0,2,12,47,597,812.5752521401737,813.1194688278483,"[33, 0, 221]",221,a,0.021004984504543245,colour,0.5
121,22,0,2,12,48,598,813.6377038940554,814.2954380039591,"[20, 0, 234]",234,a,0.13451374205760658,colour,0.5
121,22,0,2,12,49,599,814.8094876694959,815.3674771491205,"[8, 0, 246]",246,a,0.03468443499878049,colour,0.5
121,22,0,2,12,50,600,815.8876314264489,816.4475050648907,"[87, 0, 167]",167,l,0.03664106142241508,colour,0.5
121,22,0,2,13,1,601,821.7149465314578,822.4075139500201,"[39, 0, 215]",215,a,0.1683833097340539,colour,0.5
121,22,0,2,13,2,602,822.9188736479264,823.5754632415483,"[33, 0, 221]",221,a,0.13357520720455796,colour,0.5
121,22,0,2,13,3,603,824.0907543094363,824.7034619844053,"[32, 0, 222]",222,a,0.08933922101277858,colour,0.5
121,22,0,2,13,4,604,825.2156991710654,825.8394550117664,"[64, 0, 190]",190,a,0.10036493756342679,colour,0.5
121,22,0,2,13,5,605,826.3564518264029,827.0715594408102,"[47, 0, 207]",207,a,0.1916422744980082,colour,0.5
121,22,0,2,13,6,606,827.5908318971051,828.3435013847193,"[95, 0, 159]",159,l,0.22940343362279236,colour,0.5
121,22,0,2,13,7,607,828.8562962572323,829.4314964096993,"[5, 0, 249]",249,a,0.05176671396475285,colour,0.5
121,22,0,2,13,8,608,829.9501103556249,830.5914758351864,"[4, 0, 250]",250,a,0.11810533329844475,colour,0.5
121,22,0,2,13,9,609,831.1064006263623,831.6475039621582,"[62, 0, 192]",192,a,0.01789557107258588,colour,0.5
121,22,0,2,13,10,610,832.1687814879697,832.7034761628602,"[70, 0, 184]",184,a,0.011304953251965344,colour,0.5
121,22,0,2,13,11,611,833.2157547032693,834.7354619655525,"[35, 0, 219]",219,a,0.9964234852232039,colour,0.5
121,22,0,2,13,12,612,835.2469319403172,835.9434579041554,"[46, 0, 208]",208,a,0.17312245769426227,colour,0.5
121,22,0,2,13,13,613,836.4508397582686,837.0155017754296,"[10, 0, 244]",244,a,0.042258091969415545,colour,0.5
121,22,0,2,13,14,614,837.5281631341204,838.2874634116888,"[84, 0, 170]",170,l,0.23592749133240432,colour,0.5
121,22,0,2,13,15,615,838.7938890078804,839.5915081305429,"[28, 0, 226]",226,a,0.27432549942750484,colour,0.5
121,22,0,2,13,16,616,840.1062812911114,840.6716423847247,"[94, 0, 160]",160,l,0.04215096577536315,colour,0.5
121,22,0,2,13,17,617,841.1844234726159,841.8874238695716,"[88, 0, 166]",166,l,0.17953702621161938,colour,0.5
121,22,0,2,13,18,618,842.4039000198245,843.0634710271843,"[98, 0, 156]",156,l,0.13628880574833602,colour,0.5
121,22,0,2,13,19,619,843.5757369644707,844.2874543532962,"[77, 0, 177]",177,a,0.18828985805157572,colour,0.5
121,22,0,2,13,20,620,844.7946125029121,845.3434635755839,"[18, 0, 236]",236,a,0.025625978712923825,colour,0.5
121,22,0,2,13,21,621,845.8570028167451,846.5034378810087,"[15, 0, 239]",239,a,0.12336908397264779,colour,0.5
121,22,0,2,13,22,622,847.0133281397866,847.7515230021672,"[0, 0, 254]",254,a,0.2149520453531295,colour,0.5
121,22,0,2,13,23,623,848.263221801375,848.9514553394401,"[20, 0, 234]",234,a,0.16487177950330079,colour,0.5
121,22,0,2,13,24,624,849.4663438968128,850.1674148426391,"[72, 0, 182]",182,a,0.17776156880427152,colour,0.5
121,22,0,2,13,25,625,850.6850945859915,851.3914611841319,"[14, 0, 240]",240,a,0.18306706717703491,colour,0.5
121,22,0,2,13,26,626,851.9038736321963,852.5434900419787,"[69, 0, 185]",185,a,0.11631215282250196,colour,0.5
121,22,0,2,13,27,627,853.0601142783416,853.7194355872925,"[53, 0, 201]",201,a,0.13587920588906854,colour,0.5
121,22,0,2,13,28,628,854.2319992721314,854.8874089034507,"[38, 0, 216]",216,a,0.13210025429725647,colour,0.5
121,22,0,2,13,29,629,855.403836610727,856.3034716730472,"[25, 0, 229]",229,a,0.37626975926104933,colour,0.5
121,22,0,2,13,30,630,856.8100646537496,857.5354165944736,"[23, 0, 231]",231,a,0.2022698128130287,colour,0.5
121,22,0,2,13,31,631,858.0445372783579,858.7835170755861,"[30, 0, 224]",224,a,0.2159721062052995,colour,0.5
121,22,0,2,13,32,632,859.2945530321449,859.9755244452972,"[21, 0, 233]",233,a,0.15829691581893712,colour,0.5
121,22,0,2,13,33,633,860.4820071491413,861.1994636605959,"[24, 0, 230]",230,a,0.19446142355445772,colour,0.5
121,22,0,2,13,34,634,861.7163687091088,862.2874319039984,"[89, 0, 165]",165,l,0.047734125633724034,colour,0.5
121,22,0,2,13,35,635,862.794547518366,863.4314731728518,"[13, 0, 241]",241,a,0.11397782806307077,colour,0.5
121,22,0,2,13,36,636,863.950757444487,864.6876226830063,"[86, 0, 168]",168,l,0.21352868620306253,colour,0.5
121,22,0,2,13,37,637,865.2007093953434,865.8794480958022,"[7, 0, 247]",247,a,0.15537851734552532,colour,0.5
121,22,0,2,13,38,638,866.3881938384147,866.9194935613777,"[57, 0, 197]",197,a,0.008128585875965655,colour,0.5
121,22,0,2,13,39,639,867.4349862784147,868.0554491734365,"[58, 0, 196]",196,a,0.0970003119437024,colour,0.5
121,22,0,2,13,40,640,868.5759929643245,869.1354806338204,"[75, 0, 179]",179,l,0.0364256277680397,colour,0.5
121,22,0,2,13,41,641,869.6537338169292,870.1994746882701,"[81, 0, 173]",173,l,0.022335002082400024,colour,0.5
121,22,0,2,13,42,642,870.7163312938064,871.2634435367072,"[93, 0, 161]",161,l,0.023826102842576802,colour,0.5
121,22,0,2,13,43,643,871.7787318476476,872.4074324239045,"[83, 0, 171]",171,l,0.10521042393520474,colour,0.5
121,22,0,2,13,44,644,872.9194529952947,873.5034619056387,"[85, 0, 169]",169,l,0.060726314899511635,colour,0.5
121,22,0,2,13,45,645,874.0132284967694,874.7274822533363,"[68, 0, 186]",186,a,0.191042447113432,colour,0.5
121,22,0,2,13,46,646,875.2475467338227,876.1034995573573,"[90, 0, 164]",164,l,0.33261351427063346,colour,0.5
121,22,0,2,13,47,647,876.6225388568128,877.3034504053649,"[87, 0, 167]",167,l,0.15773410990368575,colour,0.5
121,22,0,2,13,48,648,877.8099795830203,878.4394316173857,"[1, 0, 253]",253,a,0.10616116807796061,colour,0.5
121,22,0,2,13,49,649,878.9506322015077,880.3994901271071,"[19, 0, 235]",235,a,0.9255513055250049,colour,0.5
121,22,0,2,13,50,650,880.9193663492333,881.4634861508384,"[65, 0, 189]",189,a,0.02077931084204465,colour,0.5
121,22,0,2,14,1,651,886.2936318265274,886.9194596906891,"[3, 0, 251]",251,a,0.10147715848870575,colour,0.5
121,22,0,2,14,2,652,887.434967373847,888.0954111436149,"[98, 0, 156]",156,l,0.1370603498071432,colour,0.5
121,22,0,2,14,3,653,888.6068374015158,889.4954518673476,"[0, 0, 254]",254,a,0.365210959687829,colour,0.5
121,22,0,2,14,4,654,890.0131190076936,890.6714722433826,"[54, 0, 200]",200,a,0.13561808608938009,colour,0.5
121,22,0,2,14,5,655,891.1849764322396,891.8393864826066,"[1, 0, 253]",253,a,0.13108216261025518,colour,0.5
121,22,0,2,14,6,656,892.3568610323127,893.03943067207,"[67, 0, 187]",187,a,0.15918740129563957,colour,0.5
121,22,0,2,14,7,657,893.5599847030826,894.1994026144966,"[33, 0, 221]",221,a,0.11603488528635353,colour,0.5
121,22,0,2,14,8,658,894.7161875399761,895.2794356503291,"[50, 0, 204]",204,a,0.04019394551869482,colour,0.5
121,22,0,2,14,9,659,895.7942820661701,896.4074966207845,"[97, 0, 157]",157,l,0.08979962696321309,colour,0.5
121,22,0,2,14,10,660,896.9193545337766,897.4554390909616,"[32, 0, 222]",222,a,0.012766909436322749,colour,0.5
121,22,0,2,14,11,661,897.9662210169481,898.5514429727336,"[77, 0, 177]",177,a,0.061869255849160254,colour,0.5
121,22,0,2,14,12,662,899.0599874599138,899.743429074646,"[43, 0, 211]",211,a,0.1601314500439912,colour,0.5
121,22,0,2,14,13,663,900.2630827737739,900.9036369307432,"[4, 0, 250]",250,a,0.11710535851307213,colour,0.5
121,22,0,2,14,14,664,901.4193092415808,901.9833982129348,"[16, 0, 238]",238,a,0.04072524362709373,colour,0.5
121,22,0,2,14,15,665,902.4973927399842,903.0314482030226,"[80, 0, 174]",174,l,0.010705519933253527,colour,0.5
121,22,0,2,14,16,666,903.5442296846304,904.207426831359,"[20, 0, 234]",234,a,0.14002010191325098,colour,0.5
121,22,0,2,14,17,667,904.7162009307649,905.247479779995,"[56, 0, 198]",198,a,0.007967109209857881,colour,0.5
121,22,0,2,14,18,668,905.7786294476828,906.3120866586687,"[9, 0, 245]",245,a,0.010369175346568227,colour,0.5
121,22,0,2,14,19,669,906.825516016921,907.4714056046214,"[61, 0, 193]",193,a,0.12243251851759851,colour,0.5
121,22,0,2,14,20,670,907.9818121953867,908.5994346735533,"[15, 0, 239]",239,a,0.09432964271400124,colour,0.5
121,22,0,2,14,21,671,909.1067637522938,909.7914314094232,"[79, 0, 175]",175,l,0.16130471706856042,colour,0.5
121,22,0,2,14,22,672,910.3098889985122,911.3994416840142,"[42, 0, 212]",212,a,0.5661574500845745,colour,0.5
121,22,0,2,14,23,673,911.9192552845925,912.5034237025538,"[84, 0, 170]",170,l,0.06117805605754256,colour,0.5
121,22,0,2,14,24,674,913.0129969153786,913.6954456445528,"[8, 0, 246]",246,a,0.1590334075735882,colour,0.5
121,22,0,2,14,25,675,914.2161430354463,914.967487231479,"[75, 0, 179]",179,a,0.22790327458642423,colour,0.5
121,22,0,2,14,26,676,915.4817854138091,916.0156380461995,"[74, 0, 180]",180,l,0.010551526094786823,colour,0.5
121,22,0,2,14,27,677,916.5284975093091,917.1674081472447,"[91, 0, 163]",163,l,0.11541851644869894,colour,0.5
121,22,0,2,14,28,678,917.6849362599896,918.7194891503314,"[63, 0, 191]",191,a,0.5111738026607782,colour,0.5
121,22,0,2,14,29,679,919.231809044606,919.8234593535308,"[17, 0, 237]",237,a,0.06824050121940672,colour,0.5
121,22,0,2,14,30,680,920.3412678845925,920.9914295189083,"[39, 0, 215]",215,a,0.12696450343355536,colour,0.5
121,22,0,2,14,31,681,921.5130390569102,922.1834073500941,"[71, 0, 183]",183,a,0.14714595617260784,colour,0.5
121,22,0,2,14,32,682,922.7005191677017,923.3514385615708,"[47, 0, 207]",207,a,0.12754227535333484,colour,0.5
121,22,0,2,14,33,683,923.872365958523,924.5034780533751,"[31, 0, 223]",223,a,0.1079571055015549,colour,0.5
121,22,0,2,14,34,684,925.0130260599544,925.6154200917808,"[92, 0, 162]",162,l,0.07914176245685667,colour,0.5
121,22,0,2,14,35,685,926.1223368139472,926.7913971447852,"[36, 0, 218]",218,a,0.14588328613899648,colour,0.5
121,22,0,2,14,36,686,927.3098653677152,927.8954709294485,"[57, 0, 197]",197,a,0.062426941585727036,colour,0.5
121,22,0,2,14,37,687,928.4035991216078,928.9994450710947,"[5, 0, 249]",249,a,0.07248970482032746,colour,0.5
121,22,0,2,14,38,688,929.5129650138551,930.0394810843281,"[62, 0, 192]",192,a,0.003131468896754086,colour,0.5
121,22,0,2,14,39,689,930.5598720631097,931.1593898381107,"[78, 0, 176]",176,a,0.07652229315135628,colour,0.5
121,22,0,2,14,40,690,931.6692265338497,932.2074551882688,"[44, 0, 210]",210,a,0.014823966659605503,colour,0.5
121,22,0,2,14,41,691,932.716072930838,933.271392922732,"[48, 0, 206]",206,a,0.03200588875915855,colour,0.5
121,22,0,2,14,42,692,933.778634567745,934.6714466433041,"[76, 0, 178]",178,l,0.36952357238624245,colour,0.5
121,22,0,2,14,43,693,935.184844887699,935.735429276363,"[25, 0, 229]",229,a,0.027227356215007603,colour,0.5
121,22,0,2,14,44,694,936.2472056632396,937.1034369358094,"[90, 0, 164]",164,l,0.33278680650983006,colour,0.5
121,22,0,2,14,45,695,937.6223698969698,938.5994441258954,"[73, 0, 181]",181,a,0.45400864258408546,colour,0.5
121,22,0,2,14,46,696,939.1066971924156,940.0474304704694,"[14, 0, 240]",240,a,0.4173916057916358,colour,0.5
121,22,0,2,14,47,697,940.5599358661566,941.1435434474843,"[38, 0, 216]",216,a,0.06083659175783396,colour,0.5
121,22,0,2,14,48,698,941.6534049555194,942.3675074751955,"[60, 0, 194]",194,a,0.1908829394960776,colour,0.5
121,22,0,2,14,49,699,942.8879658016376,943.4794365167618,"[99, 0, 155]",155,l,0.06822435348294675,colour,0.5
121,22,0,2,14,50,700,943.9972879770212,944.6714001694927,"[24, 0, 230]",230,a,0.1509891046443954,colour,0.5
121,22,0,2,15,1,701,949.0590335651068,949.647386202123,"[40, 0, 214]",214,a,0.06493022618815303,colour,0.5
121,22,0,2,15,2,702,950.1535967584932,950.8394597378792,"[62, 0, 192]",192,a,0.16249491937924176,colour,0.5
121,22,0,2,15,3,703,951.356710583088,951.8958663507365,"[4, 0, 250]",250,a,0.015899559832178056,colour,0.5
121,22,0,2,15,4,704,952.4035550107947,952.9913881650427,"[44, 0, 210]",210,a,0.06490580772515386,colour,0.5
121,22,0,2,15,5,705,953.5128945154138,954.0954584052088,"[79, 0, 175]",175,l,0.05923954653553665,colour,0.5
121,22,0,2,15,6,706,954.6066802570131,955.2233472650405,"[3, 0, 251]",251,a,0.09332769876345992,colour,0.5
121,22,0,2,15,7,707,955.7316964046331,956.3914178611012,"[25, 0, 229]",229,a,0.13641877484042197,colour,0.5
121,22,0,2,15,8,708,956.9035487093497,957.5353460960323,"[56, 0, 198]",198,a,0.10844980669207871,colour,0.5
121,22,0,2,15,9,709,958.0442040846683,958.6874296985334,"[48, 0, 206]",206,a,0.11986621841788292,colour,0.5
121,22,0,2,15,10,710,959.2004242507974,959.8153307675384,"[14, 0, 240]",240,a,0.09196026565041393,colour,0.5
121,22,0,2,15,11,711,960.3254833277315,961.0073511340888,"[27, 0, 227]",227,a,0.15853755548596382,colour,0.5
121,22,0,2,15,12,712,961.528521533939,962.2074043820612,"[63, 0, 191]",191,a,0.15554668963886797,colour,0.5
121,22,0,2,15,13,713,962.7160441800952,963.335431087995,"[93, 0, 161]",161,l,0.09580617106985301,colour,0.5
121,22,0,2,15,14,714,963.8566908908542,964.4554048263235,"[70, 0, 184]",184,a,0.07575114292558283,colour,0.5
121,22,0,2,15,15,715,964.9659606846981,965.5033898318652,"[58, 0, 196]",196,a,0.013908274821005762,colour,0.5
121,22,0,2,15,16,716,966.0128307124833,966.5434093036456,"[0, 0, 254]",254,a,0.0071857188595458865,colour,0.5
121,22,0,2,15,17,717,967.059676321689,967.7193772981409,"[65, 0, 189]",189,a,0.1362509964965284,colour,0.5
121,22,0,2,15,18,718,968.2316003062297,968.7994052139111,"[24, 0, 230]",230,a,0.044427001499570906,colour,0.5
121,22,0,2,15,19,719,969.309780296986,969.9834517759737,"[72, 0, 182]",182,a,0.15034713584464043,colour,0.5
121,22,0,2,15,20,720,970.497252137051,971.0634493655525,"[91, 0, 163]",163,l,0.04291896533686668,colour,0.5
121,22,0,2,15,21,721,971.5754081031773,972.2153553435346,"[94, 0, 160]",160,l,0.11709551233798265,colour,0.5
121,22,0,2,15,22,722,972.7315699801547,973.3673680537613,"[43, 0, 211]",211,a,0.11308261624071747,colour,0.5
121,22,0,2,15,23,723,973.8878212601412,974.5993499966571,"[82, 0, 172]",172,l,0.18823629489634186,colour,0.5
121,22,0,2,15,24,724,975.1066404785961,975.7593877114123,"[60, 0, 194]",194,a,0.12977301876526326,colour,0.5
121,22,0,2,15,25,725,976.2785282293335,976.8393573380308,"[37, 0, 217]",217,a,0.0375354855787009,colour,0.5
121,22,0,2,15,26,726,977.3565841586096,977.8958391754422,"[28, 0, 226]",226,a,0.01615162123925984,colour,0.5
121,22,0,2,15,27,727,978.4034277986502,979.0553711919347,"[61, 0, 193]",193,a,0.12856154865585268,colour,0.5
121,22,0,2,15,28,728,979.5753415431827,980.5353925698437,"[78, 0, 176]",176,l,0.4367451942525804,colour,0.5
121,22,0,2,15,29,729,981.0440745094093,981.6873568369774,"[47, 0, 207]",207,a,0.11992962751537561,colour,0.5
121,22,0,2,15,30,730,982.2003691124264,982.7914030525135,"[50, 0, 204]",204,a,0.06773204612545669,colour,0.5
121,22,0,2,15,31,731,983.3097417000681,983.9034096817486,"[80, 0, 174]",174,l,0.07040547230280936,colour,0.5
121,22,0,2,15,32,732,984.4191257093335,984.9513734194916,"[15, 0, 239]",239,a,0.008941090083681047,colour,0.5
121,22,0,2,15,33,733,985.4659831339959,986.1673671873286,"[68, 0, 186]",186,l,0.1784291376825422,colour,0.5
121,22,0,2,15,34,734,986.6847673001466,987.3833333858056,"[10, 0, 244]",244,a,0.17536895477678627,colour,0.5
121,22,0,2,15,35,735,987.9034120447468,988.5594057495473,"[22, 0, 232]",232,a,0.1325823216466233,colour,0.5
121,22,0,2,15,36,736,989.0753293340094,989.6553627635585,"[54, 0, 200]",200,a,0.05713286460377276,colour,0.5
121,22,0,2,15,37,737,990.1690363063244,990.7433881147299,"[53, 0, 201]",201,a,0.050933729973621666,colour,0.5
121,22,0,2,15,38,738,991.2628515862161,991.8634729175828,"[76, 0, 178]",178,a,0.07734621886629611,colour,0.5
121,22,0,2,15,39,739,992.3721832139418,993.2633817028254,"[97, 0, 157]",157,a,0.36811360402498394,colour,0.5
121,22,0,2,15,40,740,993.7783899893984,995.1914162068861,"[35, 0, 219]",219,a,0.8896538252010942,colour,0.5
121,22,0,2,15,41,741,995.7002698632423,996.2633765828796,"[16, 0, 238]",238,a,0.03975520108360797,colour,0.5
121,22,0,2,15,42,742,996.7783864447847,997.4553311772179,"[89, 0, 165]",165,l,0.15354831551667303,colour,0.5
121,22,0,2,15,43,743,997.9659051524941,998.6633676819038,"[33, 0, 221]",221,a,0.1741464571096003,colour,0.5
121,22,0,2,15,44,744,999.1690886878641,999.7914676432265,"[36, 0, 218]",218,a,0.09907903068233281,colour,0.5
121,22,0,2,15,45,745,1000.309636149439,1000.8553600854939,"[2, 0, 252]",252,a,0.022693008184432983,colour,0.5
121,22,0,2,15,46,746,1001.3721024756087,1002.0154623908456,"[41, 0, 213]",213,a,0.12018720281776041,colour,0.5
121,22,0,2,15,47,747,1002.5283612386556,1003.1033676189836,"[69, 0, 185]",185,a,0.051657618721947074,colour,0.5
121,22,0,2,15,48,748,1003.6221288632369,1004.1753595025511,"[32, 0, 222]",222,a,0.03017371753230691,colour,0.5
121,22,0,2,15,49,749,1004.6846255155979,1005.2953978317091,"[6, 0, 248]",248,a,0.08751059451606125,colour,0.5
121,22,0,2,15,50,750,1005.8096830170834,1006.3834330288228,"[74, 0, 180]",180,a,0.05042960704304278,colour,0.5
121,22,0,2,16,1,751,1011.5275014729705,1012.5913994291332,"[98, 0, 156]",156,l,0.5396933673182502,colour,0.5
121,22,0,2,16,2,752,1013.1064994817134,1013.7273944256594,"[70, 0, 184]",184,a,0.09762888995464891,colour,0.5
121,22,0,2,16,3,753,1014.2470788448118,1014.7754042434972,"[4, 0, 250]",250,a,0.004971517133526504,colour,0.5
121,22,0,2,16,4,754,1015.2939595063217,1015.8633575207787,"[28, 0, 226]",226,a,0.04593936982564628,colour,0.5
121,22,0,2,16,5,755,1016.372148161754,1017.0234314692207,"[73, 0, 181]",181,l,0.12828782573342323,colour,0.5
121,22,0,2,16,6,756,1017.5440772662405,1018.151402642834,"[51, 0, 203]",203,a,0.0840238764649257,colour,0.5
121,22,0,2,16,7,757,1018.6690508786123,1019.2473505984526,"[36, 0, 218]",218,a,0.05541215185075998,colour,0.5
121,22,0,2,16,8,758,1019.7627873893362,1020.7833981341682,"[58, 0, 196]",196,a,0.4973836815916002,colour,0.5
121,22,0,2,16,9,759,1021.2939878632315,1021.8953512002481,"[99, 0, 155]",155,l,0.07844347355421633,colour,0.5
121,22,0,2,16,10,760,1022.403334063245,1023.0233369462658,"[92, 0, 162]",162,l,0.09676321677397937,colour,0.5
121,22,0,2,16,11,761,1023.5439721094444,1024.1913075054763,"[95, 0, 159]",159,l,0.12404059141408652,colour,0.5
121,22,0,2,16,12,762,1024.7002454447793,1025.3513011094183,"[75, 0, 179]",179,a,0.12782190600410104,colour,0.5
121,22,0,2,16,13,763,1025.8721068078885,1026.4473514650017,"[60, 0, 194]",194,a,0.052153470809571445,colour,0.5
121,22,0,2,16,14,764,1026.9658362293849,1027.6233718409203,"[85, 0, 169]",169,l,0.13419078837614506,colour,0.5
121,22,0,2,16,15,765,1028.1376408786746,1028.743341246969,"[30, 0, 224]",224,a,0.08237720665056258,colour,0.5
121,22,0,2,16,16,766,1029.262696410995,1029.8073553877184,"[12, 0, 242]",242,l,0.021657981094904244,colour,0.5
121,22,0,2,16,17,767,1030.3251572232693,1030.863346099155,"[9, 0, 245]",245,a,0.014795215800404549,colour,0.5
121,22,0,2,16,18,768,1031.3720536386827,1031.9593543132069,"[76, 0, 178]",178,l,0.06419649126473814,colour,0.5
121,22,0,2,16,19,769,1032.4657598233316,1033.071345188655,"[93, 0, 161]",161,l,0.0821771330665797,colour,0.5
121,22,0,2,16,20,770,1033.5908937309869,1034.2313588786637,"[59, 0, 195]",195,a,0.11725580762140453,colour,0.5
121,22,0,2,16,21,771,1034.7470796324778,1035.303332645446,"[63, 0, 191]",191,a,0.03284438676200807,colour,0.5
121,22,0,2,16,22,772,1035.8095597432693,1036.3994515301893,"[11, 0, 243]",243,a,0.0665158499032259,colour,0.5
121,22,0,2,16,23,773,1036.9189433587017,1037.4873547890456,"[82, 0, 172]",172,a,0.04505636729300022,colour,0.5
121,22,0,2,16,24,774,1037.9970473371213,1038.6633460203884,"[8, 0, 246]",246,a,0.143040900118649,colour,0.5
121,22,0,2,16,25,775,1039.1845794356195,1039.927328338381,"[23, 0, 231]",231,a,0.21944897808134556,colour,0.5
121,22,0,2,16,26,776,1040.4345160264056,1040.9913771373685,"[61, 0, 193]",193,a,0.03349383862223476,colour,0.5
121,22,0,2,16,27,777,1041.5126404848415,1042.2153025681619,"[17, 0, 237]",237,a,0.17936964170075953,colour,0.5
121,22,0,2,16,28,778,1042.7313829032937,1043.2873507718323,"[14, 0, 240]",240,a,0.03259390080347657,colour,0.5
121,22,0,2,16,29,779,1043.793970533996,1044.4233961806167,"[69, 0, 185]",185,l,0.10609224496874958,colour,0.5
121,22,0,2,16,30,780,1044.9345274479128,1045.5513697173446,"[27, 0, 227]",227,a,0.09357936622109264,colour,0.5
121,22,0,2,16,31,781,1046.0594825494336,1046.6633668942377,"[48, 0, 206]",206,a,0.08068288152571768,colour,0.5
121,22,0,2,16,32,782,1047.1844951525563,1047.8713585006772,"[78, 0, 176]",176,l,0.1639470293885097,colour,0.5
121,22,0,2,16,33,783,1048.387598737143,1049.0953871191014,"[22, 0, 232]",232,a,0.1849598907865584,colour,0.5
121,22,0,2,16,34,784,1049.6063848725753,1050.151386889047,"[41, 0, 213]",213,a,0.02188523020595312,colour,0.5
121,22,0,2,16,35,785,1050.6688957032748,1051.2793576688273,"[34, 0, 220]",220,a,0.08771854510996491,colour,0.5
121,22,0,2,16,36,786,1051.793786608032,1052.567408304778,"[24, 0, 230]",230,a,0.2507006519008428,colour,0.5
121,22,0,2,16,37,787,1053.0749992911005,1053.7593735329574,"[81, 0, 173]",173,l,0.1609037818852812,colour,0.5
121,22,0,2,16,38,788,1054.2781973987585,1054.9832973883022,"[19, 0, 235]",235,a,0.1818981325486675,colour,0.5
121,22,0,2,16,39,789,1055.4969339094823,1056.103325477452,"[50, 0, 204]",204,a,0.08339136000722647,colour,0.5
121,22,0,2,16,40,790,1056.6219051587395,1057.1593894442776,"[62, 0, 192]",192,a,0.013761370326392353,colour,0.5
121,22,0,2,16,41,791,1057.6687094141962,1058.239516215399,"[47, 0, 207]",207,a,0.0467349385144189,colour,0.5
121,22,0,2,16,42,792,1058.74687246955,1059.3034192915075,"[10, 0, 244]",244,a,0.034007807611487806,colour,0.5
121,22,0,2,16,43,793,1059.8092820819002,1060.3434265539981,"[84, 0, 170]",170,l,0.010770504362881184,colour,0.5
121,22,0,2,16,44,794,1060.8562832602765,1061.4954538365128,"[5, 0, 249]",249,a,0.11581905768252909,colour,0.5
121,22,0,2,16,45,795,1062.0124719188316,1062.6073891796404,"[13, 0, 241]",241,a,0.07189972372725606,colour,0.5
121,22,0,2,16,46,796,1063.1218307218514,1063.9754330730066,"[25, 0, 229]",229,a,0.3302016018424183,colour,0.5
121,22,0,2,16,47,797,1064.4969528141664,1065.0313489538385,"[79, 0, 175]",175,l,0.011344337952323258,colour,0.5
121,22,0,2,16,48,798,1065.543777549523,1066.1913740654709,"[29, 0, 225]",225,a,0.1242505112895742,colour,0.5
121,22,0,2,16,49,799,1066.6999768419191,1067.2393795509124,"[0, 0, 254]",254,a,0.016306796576827765,colour,0.5
121,22,0,2,16,50,800,1067.7469740818487,1068.3753442213638,"[74, 0, 180]",180,l,0.10486895963549614,colour,0.5
