id,age,condition,counterbalance,block,trialinblock,trial,tstart,tend,trialstim,trialintensity,response,RT,trialtype,colourfreq
054,69,1,1,Practice,1,NA,5.907689001105609e-06,2.337058853183862,"[68, 0, 186]",186,a,1.7035064890055764,colour,0.5
054,69,1,1,Practice,2,NA,2.844590368734316,4.345091340746194,"[40, 0, 214]",214,a,0.9883141976729348,colour,0.5
054,69,1,1,Practice,3,NA,4.865185359644329,6.76103280578991,"[95, 0, 159]",159,l,1.3727747705454476,colour,0.5
054,69,1,1,Practice,4,NA,7.27133069509091,8.073033212238897,"[23, 0, 231]",231,a,0.27759402677520484,colour,0.5
054,69,1,1,Practice,5,NA,8.58517311891319,13.945031712473565,"[77, 0, 177]",177,l,4.836765831818184,colour,0.5
054,69,1,1,Practice,6,NA,14.460516552556555,15.121111165374487,"[28, 0, 226]",226,a,0.13785946317238995,colour,0.5
054,69,1,1,Practice,7,NA,15.632024635850257,16.777033977875362,"[18, 0, 236]",236,a,0.6218189064945818,colour,0.5
054,69,1,1,Practice,8,NA,17.288286549689246,17.897030559292716,"[46, 0, 208]",208,a,0.0855972909700995,colour,0.5
054,69,1,1,Practice,9,NA,18.413354291187716,19.433052494935282,"[99, 0, 155]",155,l,0.496675546579354,colour,0.5
054,69,1,1,Practice,10,NA,19.944538223534437,20.57701420681019,"[67, 0, 187]",187,a,0.10937298153976371,colour,0.5
054,69,1,1,1,1,1,4.560955533220067,5.960012823623174,"[86, 0, 168]",168,l,0.8751650214410347,colour,0.5
054,69,1,1,1,2,2,6.4679874158350685,7.183989454381617,"[55, 0, 199]",199,a,0.19302152289196783,colour,0.5
054,69,1,1,1,3,3,7.702362760450114,8.496063903863615,"[64, 0, 190]",190,a,0.2709214891785905,colour,0.5
054,69,1,1,1,4,4,9.014843658922928,9.720039746930297,"[46, 0, 208]",208,a,0.18210923395395184,colour,0.5
054,69,1,1,1,5,5,10.233603800455512,10.90399021056578,"[32, 0, 222]",222,a,0.14734445449198574,colour,0.5
054,69,1,1,1,6,6,11.422806199449724,12.088046224907885,"[38, 0, 216]",216,a,0.14214293141094458,colour,0.5
054,69,1,1,1,7,7,12.594634479477463,13.472018822684277,"[56, 0, 198]",198,a,0.3541490092413824,colour,0.5
054,69,1,1,1,8,8,13.985375319409059,14.671990938393037,"[88, 0, 166]",166,l,0.1638174539909869,colour,0.5
054,69,1,1,1,9,9,15.18842927945093,16.19201957886844,"[22, 0, 232]",232,a,0.48042585771781887,colour,0.5
054,69,1,1,1,10,10,16.704049996376625,17.59201934256089,"[58, 0, 196]",196,a,0.36491636288019436,colour,0.5
054,69,1,1,1,11,11,18.11023747333661,19.048014543942145,"[93, 0, 161]",161,l,0.4140049246493618,colour,0.5
054,69,1,1,1,12,12,19.564006657571326,20.52001524971388,"[78, 0, 176]",176,l,0.43284296890487894,colour,0.5
054,69,1,1,1,13,13,21.032764042182407,21.79199382134516,"[14, 0, 240]",240,a,0.23605667285278287,colour,0.5
054,69,1,1,1,14,14,22.298445017533822,22.872021343298,"[29, 0, 225]",225,a,0.05047726248722029,colour,0.5
054,69,1,1,1,15,15,23.39216183601502,24.239997101293966,"[40, 0, 214]",214,a,0.3246952420263369,colour,0.5
054,69,1,1,1,16,16,24.751522608331243,25.431983990950812,"[37, 0, 217]",217,a,0.15746511312818257,colour,0.5
054,69,1,1,1,17,17,25.93903540832366,26.608052810011714,"[48, 0, 206]",206,a,0.14382425964845424,colour,0.5
054,69,1,1,1,18,18,27.128639530157443,27.967991748140093,"[59, 0, 195]",195,a,0.31652845300459376,colour,0.5
054,69,1,1,1,19,19,28.487946345582486,29.096023967887277,"[11, 0, 243]",243,a,0.08510695279824176,colour,0.5
054,69,1,1,1,20,20,29.61289908407184,30.34396612294904,"[82, 0, 172]",172,l,0.20794788945840992,colour,0.5
054,69,1,1,1,21,21,30.86296249326506,31.543979986325667,"[52, 0, 202]",202,a,0.15796687283204847,colour,0.5
054,69,1,1,1,22,22,32.05040912714276,32.67199763377357,"[98, 0, 156]",156,l,0.09858672329642104,colour,0.5
054,69,1,1,1,23,23,33.19111609632523,34.15202334403534,"[18, 0, 236]",236,a,0.43794248589233575,colour,0.5
054,69,1,1,1,24,24,34.65978841021729,35.23998055976517,"[44, 0, 210]",210,a,0.05709466165467347,colour,0.5
054,69,1,1,1,25,25,35.7535394932936,36.49603436541952,"[68, 0, 186]",186,l,0.21938478116339866,colour,0.5
054,69,1,1,1,26,26,37.00352177022705,37.64000356036695,"[74, 0, 180]",180,l,0.11115474048688156,colour,0.5
054,69,1,1,1,27,27,38.14801005409868,41.2640614809236,"[72, 0, 182]",182,l,2.5929874158350685,colour,0.5
054,69,1,1,1,28,28,41.773051801766314,42.43998024468851,"[34, 0, 220]",220,a,0.1439116934429876,colour,0.5
054,69,1,1,1,29,29,42.96052876177987,43.584010091907885,"[4, 0, 250]",250,a,0.10075957124377055,colour,0.5
054,69,1,1,1,30,30,44.10111600180221,46.175983354495884,"[57, 0, 197]",197,l,1.5518084617008299,colour,0.5
054,69,1,1,1,31,31,46.69560436444294,47.60802287772185,"[0, 0, 254]",254,a,0.3900086803641898,colour,0.5
054,69,1,1,1,32,32,48.11672923565516,48.98398031715624,"[49, 0, 205]",205,a,0.3441740735956955,colour,0.5
054,69,1,1,1,33,33,49.49165282954664,50.33603406609677,"[6, 0, 248]",248,a,0.32113054259366436,colour,0.5
054,69,1,1,1,34,34,50.851107337191934,51.4879940009389,"[2, 0, 252]",252,a,0.11418656638829816,colour,0.5
054,69,1,1,1,35,35,52.00815024749272,53.304008091170545,"[60, 0, 194]",194,l,0.7731695616967045,colour,0.5
054,69,1,1,1,36,36,53.82141174858134,54.63999253268116,"[94, 0, 160]",160,l,0.2955778192279013,colour,0.5
054,69,1,1,1,37,37,55.14951690859289,56.04807007621707,"[24, 0, 230]",230,a,0.3754820674075745,colour,0.5
054,69,1,1,1,38,38,56.555777247048354,57.15201586096282,"[47, 0, 207]",207,a,0.07321871366775667,colour,0.5
054,69,1,1,1,39,39,57.66511990245226,58.39199090688521,"[80, 0, 174]",174,l,0.20430954083849429,colour,0.5
054,69,1,1,1,40,40,58.89951454551738,59.58402269497719,"[89, 0, 165]",165,l,0.16143232309218547,colour,0.5
054,69,1,1,1,41,41,60.10266421011829,60.823976079374006,"[43, 0, 211]",211,a,0.19855978423538545,colour,0.5
054,69,1,1,1,42,42,61.336959604011554,64.88002665549175,"[63, 0, 191]",191,l,3.0200081604873503,colour,0.5
054,69,1,1,1,43,43,65.3995062747531,66.04001750251268,"[27, 0, 227]",227,a,0.11741570909589427,colour,0.5
054,69,1,1,1,44,44,66.55572210861942,67.32798070470062,"[69, 0, 185]",185,l,0.24923475737523404,colour,0.5
054,69,1,1,1,45,45,67.83697653938611,68.74395328357218,"[25, 0, 229]",229,a,0.3839462100995661,colour,0.5
054,69,1,1,1,46,46,69.25883160093622,69.89599356298208,"[99, 0, 155]",155,l,0.11409913259376481,colour,0.5
054,69,1,1,1,47,47,70.4150966655427,73.80002512736974,"[62, 0, 192]",192,l,2.861884143133011,colour,0.5
054,69,1,1,1,48,48,74.30565673019646,75.17601998216651,"[75, 0, 179]",179,l,0.3472689148441077,colour,0.5
054,69,1,1,1,49,49,75.69630856095,76.3040092727083,"[33, 0, 221]",221,a,0.08294434484514568,colour,0.5
054,69,1,1,1,50,50,76.82299540303029,77.39198421150468,"[30, 0, 224]",224,a,0.045842089841016787,colour,0.5
054,69,1,1,2,1,51,89.09455689183096,90.20803296017743,"[99, 0, 155]",155,l,0.5895869501518973,colour,0.5
054,69,1,1,2,2,52,90.72033198060376,93.53596561567565,"[56, 0, 198]",198,a,2.3049864044387505,colour,0.5
054,69,1,1,2,3,53,94.05161705258297,96.86399043111942,"[53, 0, 201]",201,a,2.2984324144645143,colour,0.5
054,69,1,1,2,4,54,97.37059325798782,98.39195821767385,"[3, 0, 251]",251,a,0.49818870260855874,colour,0.5
054,69,1,1,2,5,55,98.90184020568199,99.71996846081856,"[34, 0, 220]",220,a,0.2951942133006469,colour,0.5
054,69,1,1,2,6,56,100.22996742106534,102.39198302996692,"[58, 0, 196]",196,l,1.6397377143703125,colour,0.5
054,69,1,1,2,7,57,102.90184414414125,103.68000924750208,"[98, 0, 156]",156,l,0.2551928584705365,colour,0.5
054,69,1,1,2,8,58,104.19859995651927,107.60798034236223,"[90, 0, 164]",164,l,2.8849324002860612,colour,0.5
054,69,1,1,2,9,59,108.12193587873321,109.16795047308756,"[33, 0, 221]",221,a,0.5230352602375206,colour,0.5
054,69,1,1,2,10,60,109.6843612449311,111.41596982195006,"[24, 0, 230]",230,a,1.2086363321286626,colour,0.5
054,69,1,1,2,11,61,111.93429310958663,113.49593472240144,"[7, 0, 247]",247,a,1.038617380262849,colour,0.5
054,69,1,1,2,12,62,114.01232816502443,115.02399506274742,"[73, 0, 181]",181,l,0.48845480066665914,colour,0.5
054,69,1,1,2,13,63,115.54372950031961,117.89595260300644,"[49, 0, 205]",205,a,1.8291283717148872,colour,0.5
054,69,1,1,2,14,64,118.40311075262366,119.27998467151656,"[32, 0, 222]",222,a,0.35355351420821535,colour,0.5
054,69,1,1,2,15,65,119.79569636685005,120.63999332037315,"[1, 0, 253]",253,a,0.32128650557842775,colour,0.5
054,69,1,1,2,16,66,121.15500830227188,121.99195412167614,"[43, 0, 211]",211,a,0.3137963438493898,colour,0.5
054,69,1,1,2,17,67,122.48913694180214,123.38399701622325,"[35, 0, 219]",219,a,0.3717846418994668,colour,0.5
054,69,1,1,2,18,68,123.89541106486467,124.88000656934992,"[63, 0, 191]",191,l,0.46198953630164397,colour,0.5
054,69,1,1,2,19,69,125.39543312023625,126.21592760166732,"[77, 0, 177]",177,l,0.2974769442598699,colour,0.5
054,69,1,1,2,20,70,126.72396599691842,127.67197045840499,"[4, 0, 250]",250,a,0.42488609975953295,colour,0.5
054,69,1,1,2,21,71,128.19556182908332,129.23197170295816,"[42, 0, 212]",212,a,0.5134384166763084,colour,0.5
054,69,1,1,2,22,72,129.74240783217738,130.67996789368044,"[83, 0, 171]",171,l,0.41456497354943167,colour,0.5
054,69,1,1,2,23,73,131.19547360759702,132.17595105913028,"[23, 0, 231]",231,a,0.45743785899048817,colour,0.5
054,69,1,1,2,24,74,132.69547321375103,141.29594212670486,"[60, 0, 194]",194,l,8.077412778882263,colour,0.5
054,69,1,1,2,25,75,141.80488676142068,142.63992124656943,"[85, 0, 169]",169,l,0.311918880343228,colour,0.5
054,69,1,1,2,26,76,143.1485543491617,144.1039926524104,"[31, 0, 223]",223,a,0.4323675968782936,colour,0.5
054,69,1,1,2,27,77,144.6173546629782,145.75993515720734,"[93, 0, 161]",161,l,0.6195704401304738,colour,0.5
054,69,1,1,2,28,78,146.27351535841535,147.23191223222398,"[45, 0, 209]",209,a,0.4352340074924541,colour,0.5
054,69,1,1,2,29,79,147.74227116764268,150.5040089576314,"[59, 0, 195]",195,a,2.2386651143883682,colour,0.5
054,69,1,1,2,30,80,151.0235228414881,151.87190830951886,"[89, 0, 165]",165,l,0.3252289032493536,colour,0.5
054,69,1,1,2,31,81,152.3829127584022,153.34394406757747,"[8, 0, 246]",246,a,0.4379208243667563,colour,0.5
054,69,1,1,2,32,82,153.85167329378055,154.65591887404162,"[27, 0, 227]",227,a,0.28131350765488605,colour,0.5
054,69,1,1,2,33,83,155.16421523837107,156.70399603948545,"[62, 0, 192]",192,l,1.0167199408915621,colour,0.5
054,69,1,1,2,34,84,157.21101004149568,158.93593269015673,"[51, 0, 203]",203,a,1.201808619239273,colour,0.5
054,69,1,1,2,35,85,159.44536057381765,160.5759011982368,"[6, 0, 248]",248,a,0.6073781519489785,colour,0.5
054,69,1,1,2,36,86,161.08600452765268,161.99190370939823,"[26, 0, 228]",228,a,0.3831183459728891,colour,0.5
054,69,1,1,2,37,87,162.50783359537218,163.60791063163424,"[75, 0, 179]",179,l,0.5770272037252653,colour,0.5
054,69,1,1,2,38,88,164.11722941997505,165.11992214453812,"[94, 0, 160]",160,l,0.47963186434026284,colour,0.5
054,69,1,1,2,39,89,165.63283477690993,166.52792918965406,"[87, 0, 167]",167,l,0.37200558946142337,colour,0.5
054,69,1,1,2,40,90,167.03911086920198,168.03189915653957,"[40, 0, 214]",214,a,0.47040878055850044,colour,0.5
054,69,1,1,2,41,91,168.5390604569243,169.51994238821862,"[18, 0, 236]",236,a,0.45776790187255756,colour,0.5
054,69,1,1,2,42,92,170.03909235844367,170.95198663759538,"[9, 0, 245]",245,a,0.389803880485033,colour,0.5
054,69,1,1,2,43,93,171.46098877381564,173.09592274948545,"[50, 0, 204]",204,a,1.1118998969695895,colour,0.5
054,69,1,1,2,44,94,173.60161421689236,174.91192778126106,"[28, 0, 226]",226,a,0.7873810979162954,colour,0.5
054,69,1,1,2,45,95,175.4296882630765,176.39192395307873,"[36, 0, 218]",218,a,0.43910984520289276,colour,0.5
054,69,1,1,2,46,96,176.89851693379933,178.15195993484213,"[66, 0, 188]",188,l,0.7304325530985807,colour,0.5
054,69,1,1,2,47,97,178.6640726661476,179.6559893724616,"[39, 0, 215]",215,a,0.4688495445566332,colour,0.5
054,69,1,1,2,48,98,180.16406360769133,181.23191577683747,"[65, 0, 189]",189,l,0.5447917027695439,colour,0.5
054,69,1,1,2,49,99,181.7423081891593,182.42396095569075,"[76, 0, 178]",178,l,0.1586939124026685,colour,0.5
054,69,1,1,2,50,100,182.94533497383281,183.87989353557032,"[81, 0, 173]",173,l,0.41147013230056473,colour,0.5
054,69,1,1,3,1,101,201.77322588166317,203.1199713752785,"[32, 0, 222]",222,a,0.822821323133212,colour,0.5
054,69,1,1,3,2,102,203.63338773658324,204.41592964966594,"[78, 0, 176]",176,l,0.259512560533949,colour,0.5
054,69,1,1,3,3,103,204.93025933966192,205.50386244694892,"[76, 0, 178]",178,l,0.05044142250835648,colour,0.5
054,69,1,1,3,4,104,206.02400136428196,206.7438508836326,"[15, 0, 239]",239,a,0.19671737301632675,colour,0.5
054,69,1,1,3,5,105,207.25835819813892,211.07188790830014,"[61, 0, 193]",193,l,3.2904038653614407,colour,0.5
054,69,1,1,3,6,106,211.58653582580018,212.54391145713544,"[3, 0, 251]",251,a,0.43452666021812547,colour,0.5
054,69,1,1,3,7,107,213.05528021349573,213.99191158631675,"[81, 0, 173]",173,l,0.41399507850155715,colour,0.5
054,69,1,1,3,8,108,214.50830345355598,215.48790735483635,"[86, 0, 168]",168,l,0.45653477029327405,colour,0.5
054,69,1,1,3,9,109,216.00829912125073,216.9598997898438,"[17, 0, 237]",237,a,0.4283960546090384,colour,0.5
054,69,1,1,3,10,110,217.4771321242788,219.00789818610292,"[35, 0, 219]",219,a,1.016850697737027,colour,0.5
054,69,1,1,3,11,111,219.51486847121623,221.52792091888978,"[56, 0, 198]",198,a,1.4900183689737787,colour,0.5
054,69,1,1,3,12,112,222.04609533276835,222.9598867929285,"[94, 0, 160]",160,l,0.3907778614484414,colour,0.5
054,69,1,1,3,13,113,223.46797481276553,224.40821657114566,"[41, 0, 213]",213,a,0.4173187442302151,colour,0.5
054,69,1,1,3,14,114,224.92141395411863,225.7998703459225,"[95, 0, 159]",159,l,0.3552907685666469,colour,0.5
054,69,1,1,3,15,115,226.31213352637042,227.33586865080997,"[50, 0, 204]",204,a,0.5006722949874529,colour,0.5
054,69,1,1,3,16,116,227.84337259714584,228.83989690689168,"[11, 0, 243]",243,a,0.47351543718468747,colour,0.5
054,69,1,1,3,17,117,229.3590582986485,230.25588996575107,"[89, 0, 165]",165,l,0.373850757602213,colour,0.5
054,69,1,1,3,18,118,230.76528712943036,231.99191473708424,"[36, 0, 218]",218,a,0.7036092827911489,colour,0.5
054,69,1,1,3,19,119,232.49964160021182,233.35187927519746,"[90, 0, 164]",164,l,0.329396974633255,colour,0.5
054,69,1,1,3,20,120,233.8589944956093,235.95186218228446,"[67, 0, 187]",187,l,1.569807614144338,colour,0.5
054,69,1,1,3,21,121,236.46842419096174,237.39189677770992,"[28, 0, 226]",226,a,0.4004960095530805,colour,0.5
054,69,1,1,3,22,122,237.9058637356129,238.78388807844158,"[16, 0, 238]",238,a,0.35492606724392317,colour,0.5
054,69,1,1,3,23,123,239.29447032449752,240.25586357807424,"[88, 0, 166]",166,l,0.43834302719415064,colour,0.5
054,69,1,1,3,24,124,240.76318911220824,241.6958914781194,"[21, 0, 233]",233,a,0.4095906995648875,colour,0.5
054,69,1,1,3,25,125,242.21624189071235,243.10385401864596,"[47, 0, 207]",207,a,0.3654799563933011,colour,0.5
054,69,1,1,3,26,126,243.62338483787698,244.46390323363266,"[26, 0, 228]",228,a,0.3165119114760273,colour,0.5
054,69,1,1,3,27,127,244.98379127111411,245.91190848281076,"[74, 0, 180]",180,l,0.4050587145497957,colour,0.5
054,69,1,1,3,28,128,246.4234674667514,247.59192600107735,"[45, 0, 209]",209,a,0.646200332090757,colour,0.5
054,69,1,1,3,29,129,248.11092040216363,249.00788755226313,"[13, 0, 241]",241,a,0.37427296042960734,colour,0.5
054,69,1,1,3,30,130,249.51721973136546,250.40788613441782,"[22, 0, 232]",232,a,0.3675062936576978,colour,0.5
054,69,1,1,3,31,131,250.92657018491855,251.7838305769369,"[72, 0, 182]",182,l,0.33419323026100756,colour,0.5
054,69,1,1,3,32,132,252.30327317468164,253.14385222270857,"[19, 0, 235]",235,a,0.3174421755416006,colour,0.5
054,69,1,1,3,33,133,253.66266821159297,254.71989087317206,"[27, 0, 227]",227,a,0.5340554629578946,colour,0.5
054,69,1,1,3,34,134,255.24077809775554,256.16782247316314,"[5, 0, 249]",249,a,0.40396264135097226,colour,0.5
054,69,1,1,3,35,135,256.6782574208446,257.62393661601254,"[70, 0, 184]",184,l,0.42257658727749003,colour,0.5
054,69,1,1,3,36,136,258.13144725772963,259.04786448864616,"[99, 0, 155]",155,l,0.3933961491320588,colour,0.5
054,69,1,1,3,37,137,259.5688789254623,260.44793987075536,"[82, 0, 172]",172,l,0.3561245403816429,colour,0.5
054,69,1,1,3,38,138,260.9595232731431,261.82387564866394,"[46, 0, 208]",208,a,0.34167000122852187,colour,0.5
054,69,1,1,3,39,139,262.33451775930007,263.1998988603673,"[52, 0, 202]",202,a,0.3424120069444143,colour,0.5
054,69,1,1,3,40,140,263.7095634454272,267.9278490026245,"[64, 0, 190]",190,l,3.6953554538208664,colour,0.5
054,69,1,1,3,41,141,268.4438474177887,269.31183814192946,"[8, 0, 246]",246,a,0.34485542703941974,colour,0.5
054,69,1,1,3,42,142,269.81881866703634,270.8718634110837,"[79, 0, 175]",175,l,0.5300721053113193,colour,0.5
054,69,1,1,3,43,143,271.3813917254547,272.1838370360101,"[75, 0, 179]",179,l,0.27937342264704057,colour,0.5
054,69,1,1,3,44,144,272.6937737686012,273.6478221895941,"[39, 0, 215]",215,a,0.43089421928698357,colour,0.5
054,69,1,1,3,45,145,274.16282456842373,275.0558536531571,"[68, 0, 186]",186,l,0.37944967121757145,colour,0.5
054,69,1,1,3,46,146,275.575114687932,282.35183831522136,"[62, 0, 192]",192,l,6.253649770151242,colour,0.5
054,69,1,1,3,47,147,282.8720032263859,283.55983307234465,"[92, 0, 162]",162,l,0.16469888116262155,colour,0.5
054,69,1,1,3,48,148,284.0750839679504,284.8078063412345,"[34, 0, 220]",220,a,0.20956187004367166,colour,0.5
054,69,1,1,3,49,149,285.3250764848776,286.0798498974423,"[9, 0, 245]",245,a,0.23171609695509687,colour,0.5
054,69,1,1,3,50,150,286.5907464325437,287.1198957568613,"[31, 0, 223]",223,a,0.006066408723654604,colour,0.5
054,69,1,1,4,1,151,297.9032257556328,300.2478208505181,"[67, 0, 187]",187,l,1.820733152059347,colour,0.5
054,69,1,1,4,2,152,300.7633860351689,301.3598420520316,"[85, 0, 169]",169,l,0.07335143974296443,colour,0.5
054,69,1,1,4,3,153,301.87280115822205,302.91186870437286,"[74, 0, 180]",180,l,0.5160464643663545,colour,0.5
054,69,1,1,4,4,154,303.41966094592317,304.38385286861603,"[10, 0, 244]",244,a,0.441285056225297,colour,0.5
054,69,1,1,4,5,155,304.9040295951577,305.83985515922404,"[56, 0, 198]",198,a,0.41280172536016835,colour,0.5
054,69,1,1,4,6,156,306.35724109356806,315.7998207213368,"[70, 0, 184]",184,l,8.919612502875225,colour,0.5
054,69,1,1,4,7,157,316.29790505477604,325.63190648207365,"[60, 0, 194]",194,l,8.811016579337775,colour,0.5
054,69,1,1,4,8,158,326.14148245180104,326.8318411824198,"[80, 0, 174]",174,l,0.16726281810906585,colour,0.5
054,69,1,1,4,9,159,327.3446876486769,327.999844037015,"[17, 0, 237]",237,a,0.13292614916372258,colour,0.5
054,69,1,1,4,10,160,328.5164989933296,332.7678490971475,"[27, 0, 227]",227,a,3.7283018466646354,colour,0.5
054,69,1,1,4,11,161,333.2821350702461,334.32785703708123,"[33, 0, 221]",221,a,0.5226815866003562,colour,0.5
054,69,1,1,4,12,162,334.8446277840967,335.71183199793313,"[21, 0, 233]",233,a,0.34419534127528095,colour,0.5
054,69,1,1,4,13,163,336.21965102100603,337.1198284092088,"[15, 0, 239]",239,a,0.3776257707563673,colour,0.5
054,69,1,1,4,14,164,337.6256809595975,338.5278165497207,"[0, 0, 254]",254,a,0.3788785946317148,colour,0.5
054,69,1,1,4,15,165,339.04775539332604,340.03985720722267,"[71, 0, 183]",183,l,0.46910751363475356,colour,0.5
054,69,1,1,4,16,166,340.5477605133228,341.48779353336477,"[77, 0, 177]",177,l,0.41703202439930465,colour,0.5
054,69,1,1,4,17,167,342.0008121102892,342.9518318561486,"[73, 0, 181]",181,l,0.4278879933708595,colour,0.5
054,69,1,1,4,18,168,343.4695797348945,345.72781977925706,"[48, 0, 206]",206,a,1.7353071840648226,colour,0.5
054,69,1,1,4,19,169,346.2352169933488,347.20782225260973,"[82, 0, 172]",172,l,0.4495755128664314,colour,0.5
054,69,1,1,4,20,170,347.71956240567397,349.01579282759303,"[30, 0, 224]",224,a,0.7733460046692926,colour,0.5
054,69,1,1,4,21,171,349.532101199497,351.807807916618,"[53, 0, 201]",201,a,1.7527195060856684,colour,0.5
054,69,1,1,4,22,172,352.3289479902828,353.2717875563594,"[12, 0, 242]",242,a,0.41977713047026555,colour,0.5
054,69,1,1,4,23,173,353.78199289186887,354.71981919321433,"[51, 0, 203]",203,a,0.4146878534766074,colour,0.5
054,69,1,1,4,24,174,355.23517957798595,356.1917718497839,"[89, 0, 165]",165,l,0.43352511004059124,colour,0.5
054,69,1,1,4,25,175,356.70401376255177,357.6077920840121,"[5, 0, 249]",249,a,0.38078559658197264,colour,0.5
054,69,1,1,4,26,176,358.1258570087243,359.44780635698817,"[69, 0, 185]",185,l,0.7989751341438023,colour,0.5
054,69,1,1,4,27,177,359.95395507950934,361.01581685219435,"[26, 0, 228]",228,a,0.5390384015527161,colour,0.5
054,69,1,1,4,28,178,361.5349589455009,362.4478473169638,"[35, 0, 219]",219,a,0.3899047050408626,colour,0.5
054,69,1,1,4,29,179,362.9568191270482,363.8478336898952,"[91, 0, 163]",163,l,0.3682317578445691,colour,0.5
054,69,1,1,4,30,180,364.36310703471827,365.26378657647047,"[16, 0, 238]",238,a,0.3775753584782251,colour,0.5
054,69,1,1,4,31,181,365.78497351780015,366.6958111335516,"[75, 0, 179]",179,l,0.38794256466189836,colour,0.5
054,69,1,1,4,32,182,367.2068880500847,368.41579692359073,"[38, 0, 216]",216,a,0.6847503647013582,colour,0.5
054,69,1,1,4,33,183,368.92674347712364,369.8718563218572,"[97, 0, 157]",157,l,0.42222763979179945,colour,0.5
054,69,1,1,4,34,184,370.37976711102965,371.26380036107776,"[39, 0, 215]",215,a,0.3608869252607292,colour,0.5
054,69,1,1,4,35,185,371.770504800194,376.93581689945586,"[64, 0, 190]",190,a,4.642354426670863,colour,0.5
054,69,1,1,4,36,186,377.44301246443547,378.3517792383336,"[49, 0, 205]",205,a,0.38625690411936375,colour,0.5
054,69,1,1,4,37,187,378.86418184023705,379.719795168613,"[45, 0, 209]",209,a,0.33256349583916744,colour,0.5
054,69,1,1,4,38,188,380.23913969872365,381.11980202153245,"[46, 0, 208]",208,a,0.357637696411075,colour,0.5
054,69,1,1,4,39,189,381.62976238487863,382.5517639571117,"[47, 0, 207]",207,a,0.3989111735663755,colour,0.5
054,69,1,1,4,40,190,383.06722162182587,383.9277521165277,"[32, 0, 222]",222,a,0.33737944376343876,colour,0.5
054,69,1,1,4,41,191,384.44220901875633,385.3038162882067,"[76, 0, 178]",178,l,0.3384408585206984,colour,0.5
054,69,1,1,4,42,192,385.8172011418378,386.7277760623597,"[43, 0, 211]",211,a,0.3874585280241263,colour,0.5
054,69,1,1,4,43,193,387.23915505871446,388.1357787751708,"[92, 0, 162]",162,l,0.37351717010687935,colour,0.5
054,69,1,1,4,44,194,388.64537955719106,389.4077979129315,"[81, 0, 173]",173,l,0.23935946474739467,colour,0.5
054,69,1,1,4,45,195,389.9266182341207,391.3677658381198,"[61, 0, 193]",193,a,0.9182139560089126,colour,0.5
054,69,1,1,4,46,196,391.8797025202989,392.7197805963142,"[84, 0, 170]",170,l,0.31734962175050896,colour,0.5
054,69,1,1,4,47,197,393.23904202493486,394.44781777851995,"[23, 0, 231]",231,a,0.6856282472595012,colour,0.5
054,69,1,1,4,48,198,394.95786360643115,402.3437991322785,"[52, 0, 202]",202,l,6.863161385455442,colour,0.5
054,69,1,1,4,49,199,402.86401130495324,403.85582049133063,"[41, 0, 213]",213,a,0.4686171754633506,colour,0.5
054,69,1,1,4,50,200,404.36405896030965,405.0158270921884,"[22, 0, 232]",232,a,0.12871869318769313,colour,0.5
054,69,1,1,5,1,201,426.58373439976276,448.7678093187096,"[85, 0, 169]",169,l,21.660531597470708,colour,0.4
054,69,1,1,5,2,202,449.2745692901003,456.24776807516446,"[58, 0, 196]",196,l,6.460239678873677,colour,0.4
054,69,1,1,5,3,203,456.76439940072396,457.4077073283697,"[9, 0, 245]",245,a,0.12096583622951584,colour,0.4
054,69,1,1,5,4,204,457.92062232381704,458.5438074818121,"[10, 0, 244]",244,a,0.10009121471557592,colour,0.4
054,69,1,1,5,5,205,459.0612532807363,464.03975086882383,"[59, 0, 195]",195,l,4.4554800509163215,colour,0.4
054,69,1,1,5,6,206,464.5455660038501,465.15978171483675,"[94, 0, 160]",160,l,0.09112216155244823,colour,0.4
054,69,1,1,5,7,207,465.6717428154625,466.31982770028617,"[7, 0, 247]",247,a,0.1250200861418307,colour,0.4
054,69,1,1,5,8,208,466.82799606469143,467.7437788098291,"[97, 0, 157]",157,l,0.39273133721735576,colour,0.4
054,69,1,1,5,9,209,468.2499216246615,469.12776322298305,"[36, 0, 218]",218,a,0.354855962669717,colour,0.4
054,69,1,1,5,10,210,469.64043364011286,470.64775287271186,"[83, 0, 171]",171,l,0.4841977201044756,colour,0.4
054,69,1,1,5,11,211,471.15611422161874,472.0717606960675,"[3, 0, 251]",251,a,0.39062150461768397,colour,0.4
054,69,1,1,5,12,212,472.571307773258,473.4957866363352,"[74, 0, 180]",180,l,0.4014266674648752,colour,0.4
054,69,1,1,5,13,213,474.0061081563913,474.83969407624227,"[77, 0, 177]",177,l,0.30886421137893194,colour,0.4
054,69,1,1,5,14,214,475.351806413702,476.2557363658416,"[28, 0, 226]",226,a,0.38109515947598993,colour,0.4
054,69,1,1,5,15,215,476.7736453275693,477.39172072858355,"[16, 0, 238]",238,a,0.09509764228096174,colour,0.4
054,69,1,1,5,16,216,477.8892922746336,478.9357172564378,"[71, 0, 183]",183,l,0.5233097708446621,colour,0.4
054,69,1,1,5,17,217,479.4517936530942,480.367748902745,"[75, 0, 179]",179,l,0.3930428693406611,colour,0.4
054,69,1,1,5,18,218,480.873630991578,482.5517548986554,"[63, 0, 191]",191,a,1.1550224807251652,colour,0.4
054,69,1,1,5,19,219,483.06122571152173,484.01571208917903,"[81, 0, 173]",173,l,0.43156218196918417,colour,0.4
054,69,1,1,5,20,220,484.52988936080374,485.4956877810091,"[24, 0, 230]",230,a,0.44278009534218654,colour,0.4
054,69,1,1,5,21,221,486.01432023769394,487.0717847206688,"[82, 0, 172]",172,l,0.5344075612115375,colour,0.4
054,69,1,1,5,22,222,487.5931189603725,488.52781694356645,"[86, 0, 168]",168,l,0.4124169378951592,colour,0.4
054,69,1,1,5,23,223,489.04548487159036,489.95176765926317,"[19, 0, 235]",235,a,0.3830513921666352,colour,0.4
054,69,1,1,5,24,224,490.46736671466306,491.39223430366474,"[15, 0, 239]",239,a,0.40174922727464946,colour,0.4
054,69,1,1,5,25,225,491.9048901484957,492.87973796643155,"[91, 0, 163]",163,l,0.45183028076462506,colour,0.4
054,69,1,1,5,26,226,493.3892564346547,494.2637030811352,"[14, 0, 240]",240,a,0.35132080168114044,colour,0.4
054,69,1,1,5,27,227,494.77990472079455,495.77572601557085,"[84, 0, 170]",170,l,0.4727344407228884,colour,0.4
054,69,1,1,5,28,228,496.2955104715752,497.29573417605843,"[22, 0, 232]",232,a,0.4771608750311316,colour,0.4
054,69,1,1,5,29,229,497.8111359146519,498.9117395229109,"[46, 0, 208]",208,a,0.5899177807255,colour,0.4
054,69,1,1,5,30,230,499.42378648194745,500.35179617370795,"[90, 0, 164]",164,l,0.40485352082487225,colour,0.4
054,69,1,1,5,31,231,500.8612020019973,501.76773330644664,"[35, 0, 219]",219,a,0.38335071506662644,colour,0.4
054,69,1,1,5,32,232,502.28314213426665,503.20780452954295,"[26, 0, 228]",228,a,0.40152670432871673,colour,0.4
054,69,1,1,5,33,233,503.7206151558212,504.6637122971297,"[96, 0, 158]",158,l,0.42009023797709233,colour,0.4
054,69,1,1,5,34,234,505.17370968199293,506.1116982478584,"[87, 0, 167]",167,l,0.4148434226158315,colour,0.4
054,69,1,1,5,35,235,506.6145307877232,507.59971430416863,"[4, 0, 250]",250,a,0.46085959235369955,colour,0.4
054,69,1,1,5,36,236,508.1174610013768,509.78370178932073,"[70, 0, 184]",184,l,1.1431937123288662,colour,0.4
054,69,1,1,5,37,237,510.30496868137243,511.2477263274968,"[67, 0, 187]",187,l,0.41965818900189333,colour,0.4
054,69,1,1,5,38,238,511.7581451274955,512.6877239014061,"[40, 0, 214]",214,a,0.40659156287529186,colour,0.4
054,69,1,1,5,39,239,513.1955374106365,514.1837208514635,"[69, 0, 185]",185,l,0.4650312083508652,colour,0.4
054,69,1,1,5,40,240,514.6955716752313,516.263784213395,"[55, 0, 199]",199,a,1.0451008718173398,colour,0.4
054,69,1,1,5,41,241,516.7736937706177,517.639703449775,"[88, 0, 166]",166,l,0.3428877728169937,colour,0.4
054,69,1,1,5,42,242,518.1487004659984,518.7437575421495,"[89, 0, 165]",165,l,0.07196707133061864,colour,0.4
054,69,1,1,5,43,243,519.2581077121331,520.263734194963,"[29, 0, 225]",225,a,0.49182060790917603,colour,0.4
054,69,1,1,5,44,244,520.7800717114651,521.7437256406297,"[80, 0, 174]",174,l,0.44057613356744696,colour,0.4
054,69,1,1,5,45,245,522.2644478437724,524.4877246103288,"[62, 0, 192]",192,l,1.700234023246594,colour,0.4
054,69,1,1,5,46,246,524.9988310653057,526.8237248056762,"[60, 0, 194]",194,l,1.2999345428079323,colour,0.4
054,69,1,1,5,47,247,527.3447794147764,529.3517489121973,"[57, 0, 197]",197,a,1.4839377817966124,colour,0.4
054,69,1,1,5,48,248,529.865694996266,530.7197601163261,"[20, 0, 234]",234,a,0.3316481979186392,colour,0.4
054,69,1,1,5,49,249,531.2407461962362,532.207690314226,"[48, 0, 206]",206,a,0.4439265808186974,colour,0.4
054,69,1,1,5,50,250,532.7254630052648,533.6557022587849,"[56, 0, 198]",198,a,0.4078120913845851,colour,0.4
054,69,1,1,6,1,251,543.9903350210943,544.9196652782284,"[70, 0, 184]",184,l,0.40553487426859647,colour,0.28
054,69,1,1,6,2,252,545.4286244852433,547.9916914264468,"[59, 0, 195]",195,l,2.0400923332376806,colour,0.28
054,69,1,1,6,3,253,548.5067402790951,549.3916671655379,"[89, 0, 165]",165,l,0.3618301862416047,colour,0.28
054,69,1,1,6,4,254,549.9129186975988,551.2876792392785,"[73, 0, 181]",181,l,0.8516819583910546,colour,0.28
054,69,1,1,6,5,255,551.8035992791042,552.6876648245179,"[46, 0, 208]",208,a,0.3610610051578078,colour,0.28
054,69,1,1,6,6,256,553.1941723406735,554.0876823112767,"[95, 0, 159]",159,l,0.3704483226888442,colour,0.28
054,69,1,1,6,7,257,554.6004941190927,555.9917146633561,"[75, 0, 179]",179,l,0.8682195486208002,colour,0.28
054,69,1,1,6,8,258,556.5066871098957,557.4557348692274,"[27, 0, 227]",227,a,0.42606803136914095,colour,0.28
054,69,1,1,6,9,259,557.9753444576427,558.8716590050508,"[52, 0, 202]",202,a,0.37312489956957506,colour,0.28
054,69,1,1,6,10,260,559.3816689929831,560.2636979611384,"[10, 0, 244]",244,a,0.35892596641906493,colour,0.28
054,69,1,1,6,11,261,560.7723168852772,561.6557018649391,"[82, 0, 172]",172,l,0.36031584867487254,colour,0.28
054,69,1,1,6,12,262,562.1629360268194,563.1837110053152,"[90, 0, 164]",164,l,0.49761093064216766,colour,0.28
054,69,1,1,6,13,263,563.694178642208,564.5996579842022,"[80, 0, 174]",174,l,0.38244053714288384,colour,0.28
054,69,1,1,6,14,264,565.1160309468369,566.2156975956495,"[76, 0, 178]",178,l,0.5765857024480283,colour,0.28
054,69,1,1,6,15,265,566.7253393376454,567.607672748698,"[86, 0, 168]",168,l,0.35915872935856896,colour,0.28
054,69,1,1,6,16,266,568.115986442248,569.1436978351076,"[62, 0, 192]",192,a,0.5045989388213457,colour,0.28
054,69,1,1,6,17,267,569.6629726544897,570.6636764571513,"[79, 0, 175]",175,l,0.47769374856261493,colour,0.28
054,69,1,1,6,18,268,571.1784858514789,572.2716788548851,"[65, 0, 189]",189,a,0.570098666280046,colour,0.28
054,69,1,1,6,19,269,572.7878442607198,573.7597110588781,"[2, 0, 252]",252,a,0.44880436255243694,colour,0.28
054,69,1,1,6,20,270,574.2722503253167,575.2396847814784,"[43, 0, 211]",211,a,0.4443239713532421,colour,0.28
054,69,1,1,6,21,271,575.7566674175996,576.655718012622,"[58, 0, 196]",196,a,0.37605511322271923,colour,0.28
054,69,1,1,6,22,272,577.1629135776016,578.1197035600521,"[17, 0, 237]",237,a,0.43378071604365687,colour,0.28
054,69,1,1,6,23,273,578.6316426053063,594.1676810824774,"[63, 0, 191]",191,l,15.013017789232435,colour,0.28
054,69,1,1,6,24,274,594.6784661591828,595.5996489257459,"[71, 0, 183]",183,l,0.40819687885004896,colour,0.28
054,69,1,1,6,25,275,596.1073907550185,596.9356837795344,"[84, 0, 170]",170,l,0.305236496598809,colour,0.28
054,69,1,1,6,26,276,597.4510658258318,598.2476936382855,"[13, 0, 241]",241,a,0.2735307184066187,colour,0.28
054,69,1,1,6,27,277,598.7636042258091,599.6878357536475,"[56, 0, 198]",198,a,0.4011151353411151,colour,0.28
054,69,1,1,6,28,278,600.1915796529743,601.0956695065584,"[36, 0, 218]",218,a,0.3810695594911522,colour,0.28
054,69,1,1,6,29,279,601.6134134468448,602.4556545246592,"[85, 0, 169]",169,l,0.31910735609653784,colour,0.28
054,69,1,1,6,30,280,602.9727616160917,603.8077059105244,"[93, 0, 161]",161,l,0.31068614260993854,colour,0.28
054,69,1,1,6,31,281,604.3181180151423,605.1596852225857,"[50, 0, 204]",204,a,0.31869696864669095,colour,0.28
054,69,1,1,6,32,282,605.6773783567487,606.4956417010362,"[98, 0, 156]",156,l,0.2951717640830793,colour,0.28
054,69,1,1,6,33,283,607.0059911841527,607.863652905165,"[77, 0, 177]",177,l,0.33454296543914097,colour,0.28
054,69,1,1,6,34,284,608.381011270295,609.2236670678644,"[61, 0, 193]",193,a,0.31965874038633046,colour,0.28
054,69,1,1,6,35,285,609.7378663948602,610.623635717729,"[92, 0, 162]",162,l,0.3627320934015188,colour,0.28
054,69,1,1,6,36,286,611.1440944379501,612.1597502071627,"[4, 0, 250]",250,a,0.491268829773162,colour,0.28
054,69,1,1,6,37,287,612.676631231036,613.8636552682406,"[78, 0, 176]",176,l,0.6640072877248713,colour,0.28
054,69,1,1,6,38,288,614.3798029510085,615.3116427943523,"[11, 0, 243]",243,a,0.4088731122965328,colour,0.28
054,69,1,1,6,39,289,615.8329344986969,616.9436473440605,"[51, 0, 203]",203,a,0.5877370558600887,colour,0.28
054,69,1,1,6,40,290,617.4578982648723,618.3756214888635,"[19, 0, 235]",235,a,0.39471828988962443,colour,0.28
054,69,1,1,6,41,291,618.8953350526021,628.9037192445721,"[64, 0, 190]",190,l,9.486140955879819,colour,0.28
054,69,1,1,6,42,292,629.3985181153371,630.3276309695225,"[83, 0, 171]",171,l,0.4060157601384162,colour,0.28
054,69,1,1,6,43,293,630.8360155553382,645.3516784137778,"[66, 0, 188]",188,l,13.992803647328401,colour,0.28
054,69,1,1,6,44,294,645.8673081891593,646.7596460743011,"[16, 0, 238]",238,a,0.3693518556442541,colour,0.28
054,69,1,1,6,45,295,647.2734964538113,648.1196184893329,"[91, 0, 163]",163,l,0.3230536922264946,colour,0.28
054,69,1,1,6,46,296,648.6328402907529,649.4396553218035,"[23, 0, 231]",231,a,0.2837699246651937,colour,0.28
054,69,1,1,6,47,297,649.9609001584836,650.8556838267959,"[60, 0, 194]",194,l,0.3719985002348949,colour,0.28
054,69,1,1,6,48,298,651.3671337154165,652.2635979242746,"[22, 0, 232]",232,a,0.37333993944230315,colour,0.28
054,69,1,1,6,49,299,652.7737571798111,653.66365243255,"[74, 0, 180]",180,l,0.36682415252244027,colour,0.28
054,69,1,1,6,50,300,654.170830668309,655.0878315788809,"[81, 0, 173]",173,l,0.39389003191718075,colour,0.28
054,69,1,1,7,1,301,663.7167968196154,664.5836367259744,"[91, 0, 163]",163,l,0.34285823437267027,colour,0.14
054,69,1,1,7,2,302,665.092652646802,666.0076796016169,"[70, 0, 184]",184,l,0.39186330080701737,colour,0.14
054,69,1,1,7,3,303,666.514480139138,667.4236383958814,"[80, 0, 174]",174,l,0.3860320180983763,colour,0.14
054,69,1,1,7,4,304,667.936465957534,669.8156332412259,"[64, 0, 190]",190,l,1.35644906942116,colour,0.14
054,69,1,1,7,5,305,670.3270216898823,671.3916455040126,"[71, 0, 183]",183,l,0.541570436980237,colour,0.14
054,69,1,1,7,6,306,671.9051201545135,672.807651953633,"[52, 0, 202]",202,a,0.37948787427149,colour,0.14
054,69,1,1,7,7,307,673.3271181821333,674.191665511385,"[84, 0, 170]",170,l,0.3415238843917905,colour,0.14
054,69,1,1,7,8,308,674.7020776160034,675.5676146800552,"[54, 0, 200]",200,a,0.34261759451510443,colour,0.14
054,69,1,1,7,9,309,676.0770658006259,676.967593176068,"[61, 0, 193]",193,a,0.36748226905683623,colour,0.14
054,69,1,1,7,10,310,677.4833158990873,678.2876485192969,"[49, 0, 205]",205,a,0.2812949968965768,colour,0.14
054,69,1,1,7,11,311,678.7957964037141,679.647643383546,"[3, 0, 251]",251,a,0.3288026611380701,colour,0.14
054,69,1,1,7,12,312,680.1551091268279,681.3035988852585,"[72, 0, 182]",182,l,0.6253261044225837,colour,0.14
054,69,1,1,7,13,313,681.8115352744162,682.6315981007174,"[97, 0, 157]",157,l,0.2971232706227056,colour,0.14
054,69,1,1,7,14,314,683.1395510314037,683.9996120617675,"[23, 0, 231]",231,a,0.3370612162593716,colour,0.14
054,69,1,1,7,15,315,684.5145746621588,686.1035968372598,"[57, 0, 197]",197,a,1.0659479241171539,colour,0.14
054,69,1,1,7,16,316,686.624999212308,687.5276058421528,"[93, 0, 161]",161,l,0.37970803414191323,colour,0.14
054,69,1,1,7,17,317,688.0467861385141,688.9116457875816,"[22, 0, 232]",232,a,0.3426392560409113,colour,0.14
054,69,1,1,7,18,318,689.4217278493174,690.2555685874795,"[79, 0, 175]",175,l,0.31074246257685445,colour,0.14
054,69,1,1,7,19,319,690.7530924781731,692.5756589829953,"[69, 0, 185]",185,l,1.3103714597191356,colour,0.14
054,69,1,1,7,20,320,693.0859702630573,694.6076581763987,"[68, 0, 186]",186,l,0.9988338222274251,colour,0.14
054,69,1,1,7,21,321,695.1171833400022,696.5436058327005,"[51, 0, 203]",203,a,0.9021726116393438,colour,0.14
054,69,1,1,7,22,322,697.0559202131176,697.8876526940635,"[82, 0, 172]",172,l,0.308628691517697,colour,0.14
054,69,1,1,7,23,323,698.399717770013,698.975581552887,"[81, 0, 173]",173,l,0.05280764880262723,colour,0.14
054,69,1,1,7,24,324,699.492055340078,700.4156437175275,"[47, 0, 207]",207,a,0.40121320297566854,colour,0.14
054,69,1,1,7,25,325,700.928905297385,701.7995985922371,"[9, 0, 245]",245,a,0.3476320407835374,colour,0.14
054,69,1,1,7,26,326,702.3195646112108,703.2155991341692,"[60, 0, 194]",194,a,0.37328007486257775,colour,0.14
054,69,1,1,7,27,327,703.7265677430737,704.7356427407894,"[77, 0, 177]",177,l,0.48604682670475086,colour,0.14
054,69,1,1,7,28,328,705.2421132354284,706.1435792874854,"[83, 0, 171]",171,l,0.3782964903602988,colour,0.14
054,69,1,1,7,29,329,706.6640517923138,707.9436008702419,"[99, 0, 155]",155,l,0.7564543469561613,colour,0.14
054,69,1,1,7,30,330,708.4609332415407,709.3035843129592,"[96, 0, 158]",158,l,0.3195114420113896,colour,0.14
054,69,1,1,7,31,331,709.8203219769175,710.7355627900674,"[55, 0, 199]",199,a,0.39214332525671125,colour,0.14
054,69,1,1,7,32,332,711.2420963000536,712.1355995752765,"[86, 0, 168]",168,l,0.3702852704777797,colour,0.14
054,69,1,1,7,33,333,712.6484039000197,713.567585535457,"[58, 0, 196]",196,a,0.39608375369834903,colour,0.14
054,69,1,1,7,34,334,714.0858741646525,715.0715842530949,"[62, 0, 192]",192,l,0.46278431737073333,colour,0.14
054,69,1,1,7,35,335,715.5856870878401,718.1276450692067,"[98, 0, 156]",156,l,2.0188297734916887,colour,0.14
054,69,1,1,7,36,336,718.648188860147,719.4476582709217,"[94, 0, 160]",160,l,0.2761978429844021,colour,0.14
054,69,1,1,7,37,337,719.9609233953929,723.7436074868533,"[59, 0, 195]",195,a,3.2599721787241833,colour,0.14
054,69,1,1,7,38,338,724.257780032327,725.3035614698961,"[78, 0, 176]",176,l,0.5226835558300991,colour,0.14
054,69,1,1,7,39,339,725.820927711944,726.5436046511627,"[87, 0, 167]",167,l,0.19959166054877642,colour,0.14
054,69,1,1,7,40,340,727.0552471304386,727.9436095348519,"[67, 0, 187]",187,a,0.3653425041666196,colour,0.14
054,69,1,1,7,41,341,728.4615114073531,729.3596128337053,"[88, 0, 166]",166,l,0.3750933414830797,colour,0.14
054,69,1,1,7,42,342,729.8676980966216,730.7596015697122,"[89, 0, 165]",165,l,0.36879062520665684,colour,0.14
054,69,1,1,7,43,343,731.2740175119648,732.1916064344969,"[90, 0, 164]",164,l,0.39452806230929127,colour,0.14
054,69,1,1,7,44,344,732.7114897458273,733.5995898488577,"[85, 0, 169]",169,l,0.36503845511606414,colour,0.14
054,69,1,1,7,45,345,734.1177327550622,735.1755765116595,"[56, 0, 198]",198,a,0.5347635979246661,colour,0.14
054,69,1,1,7,46,346,735.6958899027359,736.6476130574101,"[76, 0, 178]",178,l,0.4411558747633535,colour,0.14
054,69,1,1,7,47,347,737.1679000608096,738.047595491882,"[42, 0, 212]",212,a,0.3566727739039379,colour,0.14
054,69,1,1,7,48,348,738.5584932085208,739.6635862664352,"[50, 0, 204]",204,a,0.5820790653565382,colour,0.14
054,69,1,1,7,49,349,740.1834758793002,741.1355637352976,"[63, 0, 191]",191,a,0.42901833116457055,colour,0.14
054,69,1,1,7,50,350,741.6522801315759,743.3275852833958,"[65, 0, 189]",189,a,1.1523596884521794,colour,0.14
054,69,1,1,8,1,351,750.9326137505786,752.6795665646869,"[61, 0, 193]",193,l,1.2230495174599127,colour,0.06
054,69,1,1,8,2,352,753.1990832054644,755.2556276643677,"[54, 0, 200]",200,a,1.5334650879221954,colour,0.06
054,69,1,1,8,3,353,755.7618275868585,756.5835800121617,"[68, 0, 186]",186,l,0.2987128327604296,colour,0.06
054,69,1,1,8,4,354,757.0898898176652,766.3675582813194,"[63, 0, 191]",191,a,8.754561129613194,colour,0.06
054,69,1,1,8,5,355,766.8872576666045,768.4477004124356,"[59, 0, 195]",195,a,1.0374173317413806,colour,0.06
054,69,1,1,8,6,356,768.9653084758793,769.9196089582615,"[50, 0, 204]",204,a,0.4311825145014154,colour,0.06
054,69,1,1,8,7,357,770.4341036696987,771.3595344583673,"[70, 0, 184]",184,l,0.402325423856837,colour,0.06
054,69,1,1,8,8,358,771.8715963835493,772.7355935100491,"[73, 0, 181]",181,l,0.34093429704762457,colour,0.06
054,69,1,1,8,9,359,773.2465786604826,774.0315738398085,"[98, 0, 156]",156,l,0.2619201406500906,colour,0.06
054,69,1,1,8,10,360,774.5434699558577,776.82358735345,"[72, 0, 182]",182,l,1.7570762296659268,colour,0.06
054,69,1,1,8,11,361,777.3414124259962,779.5037017578129,"[64, 0, 190]",190,a,1.6391642747089463,colour,0.06
054,69,1,1,8,12,362,780.0133108105979,781.4876608072896,"[66, 0, 188]",188,l,0.9512477826474424,colour,0.06
054,69,1,1,8,13,363,781.9977121490438,782.8075979967421,"[88, 0, 166]",166,l,0.2869155720377421,colour,0.06
054,69,1,1,8,14,364,783.3256975798954,784.6315736822703,"[74, 0, 180]",180,l,0.7827384421975694,colour,0.06
054,69,1,1,8,15,365,785.1382623675495,785.9835273943468,"[79, 0, 175]",175,l,0.32208876971981226,colour,0.06
054,69,1,1,8,16,366,786.497631804476,787.3755533535191,"[80, 0, 174]",174,l,0.35952185529777125,colour,0.06
054,69,1,1,8,17,367,787.8836850902535,788.6076097333503,"[14, 0, 240]",240,a,0.2008649644117213,colour,0.06
054,69,1,1,8,18,368,789.1179647303102,790.063534042466,"[85, 0, 169]",169,l,0.42246946118712003,colour,0.06
054,69,1,1,8,19,369,790.5719962159283,791.5355910682047,"[81, 0, 173]",173,l,0.44051429975797873,colour,0.06
054,69,1,1,8,20,370,792.0563498990177,793.0235216599503,"[87, 0, 167]",167,l,0.44407348534741686,colour,0.06
054,69,1,1,8,21,371,793.5412994709859,794.447591317115,"[95, 0, 159]",159,l,0.38322232129621625,colour,0.06
054,69,1,1,8,22,372,794.9632663847779,795.8635599575277,"[45, 0, 209]",209,a,0.37765176458742644,colour,0.06
054,69,1,1,8,23,373,796.3849800556422,797.3675338628723,"[43, 0, 211]",211,a,0.4595035808470129,colour,0.06
054,69,1,1,8,24,374,797.8850241663858,798.8636403020955,"[51, 0, 203]",203,a,0.45564704158687164,colour,0.06
054,69,1,1,8,25,375,799.3849887202527,800.8315804564199,"[60, 0, 194]",194,a,0.9235604143887031,colour,0.06
054,69,1,1,8,26,376,801.3396684762574,802.3115927759204,"[96, 0, 158]",158,l,0.4486980241536003,colour,0.06
054,69,1,1,8,27,377,802.8241576423438,803.7275444809584,"[91, 0, 163]",163,l,0.38026571996624625,colour,0.06
054,69,1,1,8,28,378,804.2460028577461,805.1115568571727,"[92, 0, 162]",162,l,0.3424439084642472,colour,0.06
054,69,1,1,8,29,379,805.6209906485224,806.6076254871873,"[77, 0, 177]",177,l,0.4635338061584662,colour,0.06
054,69,1,1,8,30,380,807.1209697746885,808.0555626010214,"[55, 0, 199]",199,a,0.4115205445787069,colour,0.06
054,69,1,1,8,31,381,808.5742627992045,809.4395359864893,"[82, 0, 172]",172,l,0.3423178777688918,colour,0.06
054,69,1,1,8,32,382,809.9491485838876,811.4395296849548,"[75, 0, 179]",179,l,0.9676183822070925,colour,0.06
054,69,1,1,8,33,383,811.949135193126,812.8395199963452,"[58, 0, 196]",196,a,0.3676681643314623,colour,0.06
054,69,1,1,8,34,384,813.3553333039263,814.247545552219,"[52, 0, 202]",202,a,0.3691127911702097,colour,0.06
054,69,1,1,8,35,385,814.7616192423666,815.7035722612741,"[86, 0, 168]",168,l,0.41891106328921524,colour,0.06
054,69,1,1,8,36,386,816.214699196239,817.0796131960437,"[83, 0, 171]",171,l,0.3418346288235625,colour,0.06
054,69,1,1,8,37,387,817.5896570547256,818.4795912982104,"[90, 0, 164]",164,l,0.3668670817273778,colour,0.06
054,69,1,1,8,38,388,818.99764204447,819.9995616494898,"[78, 0, 176]",176,l,0.4789926524108523,colour,0.06
054,69,1,1,8,39,389,820.5131946260512,821.8955331571005,"[65, 0, 189]",189,a,0.8579641946798802,colour,0.06
054,69,1,1,8,40,390,822.4051248806645,823.3515472630856,"[53, 0, 201]",201,a,0.42337491295984364,colour,0.06
054,69,1,1,8,41,391,823.8582131053017,824.7995202168986,"[57, 0, 197]",197,a,0.4182816975071546,colour,0.06
054,69,1,1,8,42,392,825.3113383514556,826.2315404416745,"[93, 0, 161]",161,l,0.40849502021228545,colour,0.06
054,69,1,1,8,43,393,826.7375016935375,835.8638758219563,"[71, 0, 183]",183,l,8.603134068302097,colour,0.06
054,69,1,1,8,44,394,836.3758743379449,837.0155301323634,"[84, 0, 170]",170,l,0.11656894036514132,colour,0.06
054,69,1,1,8,45,395,837.5321346764003,840.2075950035132,"[69, 0, 185]",185,l,2.1524372760986807,colour,0.06
054,69,1,1,8,46,396,840.7196053348794,841.6395230683434,"[76, 0, 178]",178,l,0.39700653469162717,colour,0.06
054,69,1,1,8,47,397,842.1570905656572,842.7675710419271,"[97, 0, 157]",157,l,0.08776029276941699,colour,0.06
054,69,1,1,8,48,398,843.2821283748658,844.2715866949393,"[56, 0, 198]",198,a,0.46646244442808893,colour,0.06
054,69,1,1,8,49,399,844.7820901718114,845.6475374389934,"[94, 0, 160]",160,l,0.34220326860622663,colour,0.06
054,69,1,1,8,50,400,846.1571500363912,847.0635320732363,"[99, 0, 155]",155,l,0.38335662275540017,colour,0.06
054,69,1,1,9,1,401,856.078182747658,856.6395703298535,"[80, 0, 174]",174,l,0.03761346700957802,colour,0.06
054,69,1,1,9,2,402,857.157026762618,858.0555279425803,"[61, 0, 193]",193,a,0.3753469782564025,colour,0.06
054,69,1,1,9,3,403,858.5632327503363,859.4395056603535,"[92, 0, 162]",162,l,0.3531242221542925,colour,0.06
054,69,1,1,9,4,404,859.953928691833,860.871512888214,"[58, 0, 196]",196,a,0.3947572806359858,colour,0.06
054,69,1,1,9,5,405,861.3914989933296,864.9355002473353,"[65, 0, 189]",189,a,3.0210278275776545,colour,0.06
054,69,1,1,9,6,406,865.453917664147,866.3115151882739,"[56, 0, 198]",198,a,0.3345441469768957,colour,0.06
054,69,1,1,9,7,407,866.829326870059,867.4954936149697,"[91, 0, 163]",163,l,0.14313896774547175,colour,0.06
054,69,1,1,9,8,408,868.0167553870242,868.7676399649636,"[78, 0, 176]",176,l,0.2277276193117359,colour,0.06
054,69,1,1,9,9,409,869.2823989470135,870.335482287961,"[59, 0, 195]",195,a,0.5299886099755895,colour,0.06
054,69,1,1,9,10,410,870.8448889039423,871.7995162784396,"[94, 0, 160]",160,l,0.43157872349820536,colour,0.06
054,69,1,1,9,11,411,872.3136246270278,876.4474912802511,"[73, 0, 181]",181,l,3.6107778299406164,colour,0.06
054,69,1,1,9,12,412,876.9550653311612,877.8955083448072,"[51, 0, 203]",203,a,0.4184924050750851,colour,0.06
054,69,1,1,9,13,413,878.4073891008652,879.2954911731249,"[41, 0, 213]",213,a,0.36498528591619106,colour,0.06
054,69,1,1,9,14,414,879.8137077285173,880.6875025599984,"[74, 0, 180]",180,l,0.350810377367452,colour,0.06
054,69,1,1,9,15,415,881.204227227041,882.0714735823908,"[77, 0, 177]",177,l,0.34415083668636726,colour,0.06
054,69,1,1,9,16,416,882.5809983521485,883.5595239032964,"[21, 0, 233]",233,a,0.4555426724177778,colour,0.06
054,69,1,1,9,17,417,884.0653236783319,885.0235126014941,"[50, 0, 204]",204,a,0.4350796198914395,colour,0.06
054,69,1,1,9,18,418,885.5340881521693,886.3434903570765,"[86, 0, 168]",168,l,0.28633740622535697,colour,0.06
054,69,1,1,9,19,419,886.8622236383171,888.7035415412925,"[67, 0, 187]",187,l,1.3182960334993368,colour,0.06
054,69,1,1,9,20,420,889.2215978013946,892.0235015738081,"[62, 0, 192]",192,l,2.2788901737017113,colour,0.06
054,69,1,1,9,21,421,892.5340649152599,893.455531250886,"[63, 0, 191]",191,l,0.3984247738535487,colour,0.06
054,69,1,1,9,22,422,893.9715020968356,894.9034663954903,"[75, 0, 179]",179,l,0.4089298261087606,colour,0.06
054,69,1,1,9,23,423,895.4246679091193,896.3355579063782,"[68, 0, 186]",186,l,0.3878421339518354,colour,0.06
054,69,1,1,9,24,424,896.8465580229563,904.0875050806121,"[60, 0, 194]",194,l,6.717861385140168,colour,0.06
054,69,1,1,9,25,425,904.5965367552767,906.2395280308019,"[55, 0, 199]",199,a,1.120788211719173,colour,0.06
054,69,1,1,9,26,426,906.7527825214329,907.4874457674164,"[84, 0, 170]",170,l,0.21186193022276711,colour,0.06
054,69,1,1,9,27,427,908.0027309276174,908.543532971205,"[95, 0, 159]",159,l,0.017860518679299275,colour,0.06
054,69,1,1,9,28,428,909.0496564875875,919.159478847323,"[71, 0, 183]",183,a,9.58681781947962,colour,0.06
054,69,1,1,9,29,429,919.6746663337353,920.6155315502087,"[82, 0, 172]",172,l,0.4179926146011894,colour,0.06
054,69,1,1,9,30,430,921.1277076907081,922.0394850228272,"[8, 0, 246]",246,a,0.38868850883636696,colour,0.06
054,69,1,1,9,31,431,922.5495576322614,923.4714938260713,"[85, 0, 169]",169,l,0.39887021359072605,colour,0.06
054,69,1,1,9,32,432,923.9871224199151,924.7674710050633,"[81, 0, 173]",173,l,0.25730978029696416,colour,0.06
054,69,1,1,9,33,433,925.2839436107165,926.1034680496432,"[90, 0, 164]",164,l,0.2964458556380123,colour,0.06
054,69,1,1,9,34,434,926.6120578291843,927.5275038360592,"[53, 0, 201]",201,a,0.3923619097431583,colour,0.06
054,69,1,1,9,35,435,928.0339636968583,928.919521918313,"[98, 0, 156]",156,l,0.3633208930532419,colour,0.06
054,69,1,1,9,36,436,929.4401811061084,930.4074568423639,"[52, 0, 202]",202,a,0.4442365375589361,colour,0.06
054,69,1,1,9,37,437,930.9245710230225,931.8635079698661,"[83, 0, 171]",171,l,0.41588868969029136,colour,0.06
054,69,1,1,9,38,438,932.3777368353062,933.2954620285268,"[93, 0, 161]",161,l,0.39470686835784363,colour,0.06
054,69,1,1,9,39,439,933.8151685030389,937.0315332736786,"[72, 0, 182]",182,l,2.693264131979049,colour,0.06
054,69,1,1,9,40,440,937.5495261245874,938.463471184657,"[54, 0, 200]",200,a,0.39087238446927586,colour,0.06
054,69,1,1,9,41,441,938.9714587737844,939.8954721109826,"[97, 0, 157]",157,l,0.400987529262693,colour,0.06
054,69,1,1,9,42,442,940.3964523934806,941.2634447182108,"[99, 0, 155]",155,l,0.3439739998675577,colour,0.06
054,69,1,1,9,43,443,941.7715051688338,942.6794818878138,"[88, 0, 166]",166,l,0.38496942180290716,colour,0.06
054,69,1,1,9,44,444,943.1933850426772,944.7514753468208,"[79, 0, 175]",175,l,1.035444557522169,colour,0.06
054,69,1,1,9,45,445,945.2714803565409,946.2154561680995,"[64, 0, 190]",190,a,0.42100002205506826,colour,0.06
054,69,1,1,9,46,446,946.7245394365796,947.6714899663812,"[57, 0, 197]",197,a,0.4238853372739868,colour,0.06
054,69,1,1,9,47,447,948.1777517226819,949.0555011610577,"[69, 0, 185]",185,a,0.3547693165669443,colour,0.06
054,69,1,1,9,48,448,949.5682936704234,950.4714859491528,"[89, 0, 165]",165,l,0.3801920707787758,colour,0.06
054,69,1,1,9,49,449,950.9901975688676,951.8315028687734,"[96, 0, 158]",158,l,0.3181570058886791,colour,0.06
054,69,1,1,9,50,450,952.3495725196371,954.4634495231312,"[66, 0, 188]",188,a,1.5908279586492426,colour,0.06
054,69,1,1,10,1,451,962.177320855244,964.0314501721891,"[60, 0, 194]",194,a,1.3302539833575793,colour,0.06
054,69,1,1,10,2,452,964.5375394239768,965.4314964097007,"[11, 0, 243]",243,a,0.3709737131480324,colour,0.06
054,69,1,1,10,3,453,965.943714691713,971.0874952344643,"[56, 0, 198]",198,l,4.620802784017997,colour,0.06
054,69,1,1,10,4,454,971.5999569132559,983.4314511174193,"[54, 0, 200]",200,l,11.308421134717264,colour,0.06
054,69,1,1,10,5,455,983.9453751461169,984.8633866653222,"[69, 0, 185]",185,l,0.3949943758802874,colour,0.06
054,69,1,1,10,6,456,985.3828276876834,985.935470708891,"[92, 0, 162]",162,l,0.029477397970367747,colour,0.06
054,69,1,1,10,7,457,986.4453385184461,988.2794340749188,"[90, 0, 164]",164,l,1.3110248501020578,colour,0.06
054,69,1,1,10,8,458,988.7891187461205,989.7354340024513,"[85, 0, 169]",169,l,0.4232087099812816,colour,0.06
054,69,1,1,10,9,459,990.2421758569299,991.2154616819425,"[84, 0, 170]",170,l,0.450137530995562,colour,0.06
054,69,1,1,10,10,460,991.7266453307202,992.5914466905915,"[81, 0, 173]",173,l,0.34187243803216916,colour,0.06
054,69,1,1,10,11,461,993.1015756199922,994.071467674702,"[50, 0, 204]",204,a,0.44684222217301794,colour,0.06
054,69,1,1,10,12,462,994.5864357889363,1004.9994832741513,"[62, 0, 192]",192,l,9.890252470989253,colour,0.06
054,69,1,1,10,13,463,1005.508229016677,1006.3674381583132,"[78, 0, 176]",176,l,0.3364172781780326,colour,0.06
054,69,1,1,10,14,464,1006.8830836875318,1007.7274550779343,"[91, 0, 163]",163,l,0.32177605605875215,colour,0.06
054,69,1,1,10,15,465,1008.2424428844643,1009.1915382991529,"[47, 0, 207]",207,a,0.4263220619882304,colour,0.06
054,69,1,1,10,16,466,1009.7115834811566,1010.6314291408171,"[55, 0, 199]",199,a,0.39699235623811546,colour,0.06
054,69,1,1,10,17,467,1011.148856428983,1012.0314036983705,"[32, 0, 222]",222,a,0.35938440307108976,colour,0.06
054,69,1,1,10,18,468,1012.5394606043801,1013.5274274299504,"[53, 0, 201]",201,a,0.4648894238189314,colour,0.06
054,69,1,1,10,19,469,1014.0394830535975,1015.0154698739375,"[87, 0, 167]",167,l,0.45255298803022015,colour,0.06
054,69,1,1,10,20,470,1015.5245850439373,1016.3834058534953,"[79, 0, 175]",175,l,0.3357591616436366,colour,0.06
054,69,1,1,10,21,471,1016.8995196655146,1017.8874388357285,"[59, 0, 195]",195,a,0.46483586077420114,colour,0.06
054,69,1,1,10,22,472,1018.3995342378134,1019.2954336716207,"[74, 0, 180]",180,l,0.37282793974463857,colour,0.06
054,69,1,1,10,23,473,1019.805754797831,1020.6953991707178,"[96, 0, 158]",158,l,0.3667780725495504,colour,0.06
054,69,1,1,10,24,474,1021.2119974132197,1022.1594016535228,"[83, 0, 171]",171,l,0.4242732755064935,colour,0.06
054,69,1,1,10,25,475,1022.6808059978007,1023.5194221177567,"[95, 0, 159]",159,l,0.3155729827999494,colour,0.06
054,69,1,1,10,26,476,1024.040136050135,1024.9434401811059,"[57, 0, 197]",197,a,0.3802243661443754,colour,0.06
054,69,1,1,10,27,477,1025.4620253762805,1026.1433752752982,"[89, 0, 165]",165,l,0.15830912493720461,colour,0.06
054,69,1,1,10,28,478,1026.6495425085777,1027.5114179871007,"[97, 0, 157]",157,l,0.34816255123951123,colour,0.06
054,69,1,1,10,29,479,1028.0308440433168,1028.8954382402335,"[52, 0, 202]",202,a,0.3414462967457439,colour,0.06
054,69,1,1,10,30,480,1029.4058141110268,1030.895440603309,"[72, 0, 182]",182,l,0.9664837121081291,colour,0.06
054,69,1,1,10,31,481,1031.4058389233196,1032.3113864006577,"[94, 0, 160]",160,l,0.3824661371277216,colour,0.06
054,69,1,1,10,32,482,1032.827853492468,1033.7834071925718,"[58, 0, 196]",196,a,0.4325428583133544,colour,0.06
054,69,1,1,10,33,483,1034.2964891786892,1035.1273985216599,"[88, 0, 166]",166,l,0.30785675351216923,colour,0.06
054,69,1,1,10,34,484,1035.641852273121,1037.0873845637602,"[63, 0, 191]",191,a,0.9225513811388737,colour,0.06
054,69,1,1,10,35,485,1037.5949338023775,1038.7514091807057,"[67, 0, 187]",187,l,0.6333578042931549,colour,0.06
054,69,1,1,10,36,486,1039.2668499100455,1040.2794171395444,"[73, 0, 181]",181,l,0.4895189723461044,colour,0.06
054,69,1,1,10,37,487,1040.7980881931294,1041.6714060772001,"[86, 0, 168]",168,l,0.34904319071938517,colour,0.06
054,69,1,1,10,38,488,1042.1899664600815,1043.0234251676993,"[98, 0, 156]",156,l,0.31032774282175524,colour,0.06
054,69,1,1,10,39,489,1043.533808915411,1056.3754123566796,"[66, 0, 188]",188,l,12.318532734897872,colour,0.06
054,69,1,1,10,40,490,1056.8930735893227,1057.7754136957556,"[77, 0, 177]",177,l,0.3593127231138169,colour,0.06
054,69,1,1,10,41,491,1058.2836679185716,1059.1513809813378,"[80, 0, 174]",174,l,0.3571422382419769,colour,0.06
054,69,1,1,10,42,492,1059.661771818276,1061.047411171991,"[70, 0, 184]",184,l,0.8624197735857706,colour,0.06
054,69,1,1,10,43,493,1061.5681184089885,1062.3034043253733,"[99, 0, 155]",155,l,0.211495653516522,colour,0.06
054,69,1,1,10,44,494,1062.818880107,1064.5993815043653,"[68, 0, 186]",186,l,1.2575141863298995,colour,0.06
054,69,1,1,10,45,495,1065.1158552915563,1066.0954725835977,"[76, 0, 178]",178,l,0.45657573026937825,colour,0.06
054,69,1,1,10,46,496,1066.606594398566,1067.5434065466643,"[51, 0, 203]",203,a,0.4125949562517235,colour,0.06
054,69,1,1,10,47,497,1068.0608996070991,1077.7273869425899,"[65, 0, 189]",189,l,9.144185416358141,colour,0.06
054,69,1,1,10,48,498,1078.2484667578287,1079.135416830769,"[71, 0, 183]",183,l,0.3764595929837924,colour,0.06
054,69,1,1,10,49,499,1079.6420543160784,1081.2953797147293,"[93, 0, 161]",161,l,1.1305095105913097,colour,0.06
054,69,1,1,10,50,500,1081.8171322188018,1085.3514614046749,"[61, 0, 193]",193,a,3.0112328795175927,colour,0.06
054,69,1,1,11,1,501,1127.931503105081,1128.6953223707633,"[95, 0, 159]",159,l,0.23994590132406302,colour,0.06
054,69,1,1,11,2,502,1129.2136495968593,1134.2153514050847,"[57, 0, 197]",197,l,4.478772492540429,colour,0.06
054,69,1,1,11,3,503,1134.7291517661624,1138.6233501794363,"[52, 0, 202]",202,l,3.369780753852865,colour,0.06
054,69,1,1,11,4,504,1139.136700768472,1140.0793792515665,"[59, 0, 195]",195,l,0.4197794935453203,colour,0.06
054,69,1,1,11,5,505,1140.5898602792208,1141.4153798407601,"[88, 0, 166]",166,l,0.30248272591779823,colour,0.06
054,69,1,1,11,6,506,1141.9366254651318,1142.7034903413223,"[5, 0, 249]",249,a,0.24404426197997964,colour,0.06
054,69,1,1,11,7,507,1143.2108804661875,1145.7833473279916,"[65, 0, 189]",189,l,2.0498423828621526,colour,0.06
054,69,1,1,11,8,508,1146.3047233153634,1147.255354729144,"[68, 0, 186]",186,l,0.4283401284883439,colour,0.06
054,69,1,1,11,9,509,1147.7733542754336,1148.4873161921087,"[72, 0, 182]",182,l,0.19085300725009802,colour,0.06
054,69,1,1,11,10,510,1149.0077162292873,1149.8073561753463,"[80, 0, 174]",174,l,0.2764959843466386,colour,0.06
054,69,1,1,11,11,511,1150.3087054914722,1151.0393144875434,"[11, 0, 243]",243,a,0.20753868354631777,colour,0.06
054,69,1,1,11,12,512,1151.5587007653212,1153.7033347721836,"[50, 0, 204]",204,a,1.6215936266276003,colour,0.06
054,69,1,1,11,13,513,1154.2148772145956,1155.0633989533148,"[78, 0, 176]",176,l,0.3253832908503682,colour,0.06
054,69,1,1,11,14,514,1155.5742312915309,1156.863332314585,"[70, 0, 184]",184,l,0.7659216152092085,colour,0.06
054,69,1,1,11,15,515,1157.3710997438425,1160.279393902635,"[62, 0, 192]",192,l,2.3852683508571317,colour,0.06
054,69,1,1,11,16,516,1160.7929811930694,1161.6473921098482,"[74, 0, 180]",180,l,0.3313547827074217,colour,0.06
054,69,1,1,11,17,517,1162.1540922166591,1163.0073338048983,"[86, 0, 168]",168,l,0.3301511895724616,colour,0.06
054,69,1,1,11,18,518,1163.515539584666,1164.3753524920994,"[79, 0, 175]",175,l,0.3368386933138936,colour,0.06
054,69,1,1,11,19,519,1164.8905025631493,1165.8393746672,"[55, 0, 199]",199,a,0.4265567941570225,colour,0.06
054,69,1,1,11,20,520,1166.3591701508903,1167.2392842401764,"[99, 0, 155]",155,l,0.357507333410922,colour,0.06
054,69,1,1,11,21,521,1167.7498861785289,1168.9433066673387,"[85, 0, 169]",169,l,0.6703978316418215,colour,0.06
054,69,1,1,11,22,522,1169.4529547108696,1170.5833334646154,"[76, 0, 178]",178,l,0.6075762564473735,colour,0.06
054,69,1,1,11,23,523,1171.093502960146,1172.5113187379284,"[67, 0, 187]",187,l,0.8947757913938403,colour,0.06
054,69,1,1,11,24,524,1173.0310063078364,1174.0554282995622,"[73, 0, 181]",181,l,0.5012815746272281,colour,0.06
054,69,1,1,11,25,525,1174.562190240183,1175.4873476997823,"[58, 0, 196]",196,a,0.4019898671322153,colour,0.06
054,69,1,1,11,26,526,1175.9997881108943,1177.7913459448046,"[66, 0, 188]",188,l,1.2685670782616398,colour,0.06
054,69,1,1,11,27,527,1178.3122477416873,1180.4473589480217,"[64, 0, 190]",190,a,1.6120889430121679,colour,0.06
054,69,1,1,11,28,528,1180.968507686297,1181.8232545536466,"[97, 0, 157]",157,l,0.33173405632942377,colour,0.06
054,69,1,1,11,29,529,1182.3435191078288,1183.1753461117955,"[91, 0, 163]",163,l,0.3088984759738196,colour,0.06
054,69,1,1,11,30,530,1183.6872272616997,1184.5993354243924,"[60, 0, 194]",194,a,0.3897278682220531,colour,0.06
054,69,1,1,11,31,531,1185.109066963259,1186.1033349297222,"[89, 0, 165]",165,l,0.47109958630426263,colour,0.06
054,69,1,1,11,32,532,1186.6247928370453,1187.543337229782,"[63, 0, 191]",191,a,0.39551464634178046,colour,0.06
054,69,1,1,11,33,533,1188.0622390770773,1188.9273425167698,"[98, 0, 156]",156,l,0.34207487483581644,colour,0.06
054,69,1,1,11,34,534,1189.4372193847812,1190.279339551898,"[96, 0, 158]",158,l,0.3191758852872226,colour,0.06
054,69,1,1,11,35,535,1190.7965844894024,1192.0313099630416,"[82, 0, 172]",172,l,0.7116744595646196,colour,0.06
054,69,1,1,11,36,536,1192.546590003245,1193.447278603454,"[51, 0, 203]",203,a,0.377625770756822,colour,0.06
054,69,1,1,11,37,537,1193.9684718463182,1194.8553415746906,"[53, 0, 201]",201,a,0.36382659121636607,colour,0.06
054,69,1,1,11,38,538,1195.374810166266,1196.247330906192,"[69, 0, 185]",185,l,0.34947366431106275,colour,0.06
054,69,1,1,11,39,539,1196.7653426617053,1197.6554056928062,"[75, 0, 179]",179,l,0.36700571549181404,colour,0.06
054,69,1,1,11,40,540,1198.171570310949,1199.0873688099236,"[56, 0, 198]",198,a,0.3930145124345472,colour,0.06
054,69,1,1,11,41,541,1199.5934139509677,1207.1273240847809,"[61, 0, 193]",193,l,7.010818947454936,colour,0.06
054,69,1,1,11,42,542,1207.6403666863062,1208.4393410327584,"[83, 0, 171]",171,l,0.2759670492746409,colour,0.06
054,69,1,1,11,43,543,1208.9528215909486,1209.775341621952,"[71, 0, 183]",183,l,0.2999278474271705,colour,0.06
054,69,1,1,11,44,544,1210.2965482555774,1211.0713006840315,"[84, 0, 170]",170,l,0.2517085036060962,colour,0.06
054,69,1,1,11,45,545,1211.5777739355917,1212.375319015196,"[81, 0, 173]",173,l,0.274446804019135,colour,0.06
054,69,1,1,11,46,546,1212.890752655309,1213.983356859063,"[77, 0, 177]",177,l,0.5694960820205779,colour,0.06
054,69,1,1,11,47,547,1214.5001079137824,1215.3192739529213,"[93, 0, 161]",161,l,0.2962016711671822,colour,0.06
054,69,1,1,11,48,548,1215.8282367045495,1216.7033005075887,"[41, 0, 213]",213,a,0.3519899459015505,colour,0.06
054,69,1,1,11,49,549,1217.2064028319096,1218.0633406641186,"[90, 0, 164]",164,l,0.3338045043369675,colour,0.06
054,69,1,1,11,50,550,1218.5813843211513,1219.407311119373,"[54, 0, 200]",200,a,0.3027879565065632,colour,0.06
054,69,1,1,12,1,551,1239.3559130451222,1241.351336949364,"[62, 0, 192]",192,l,1.4715280906666521,colour,0.06
054,69,1,1,12,2,552,1241.8723423277238,1243.7193091627464,"[60, 0, 194]",194,a,1.3238929778844977,colour,0.06
054,69,1,1,12,3,553,1244.2318893891606,1244.871352199078,"[91, 0, 163]",163,l,0.11653231269474418,colour,0.06
054,69,1,1,12,4,554,1245.3891721516275,1246.1753512317923,"[79, 0, 175]",175,l,0.26363455194496055,colour,0.06
054,69,1,1,12,5,555,1246.686070930075,1247.527280919268,"[76, 0, 178]",178,l,0.31823813814889945,colour,0.06
054,69,1,1,12,6,556,1248.0454305208532,1248.70330326451,"[96, 0, 158]",158,l,0.13476974192053603,colour,0.06
054,69,1,1,12,7,557,1249.2173994038749,1250.1113020388616,"[53, 0, 201]",201,a,0.37090754703331186,colour,0.06
054,69,1,1,12,8,558,1250.6239228314057,1251.5433254144045,"[64, 0, 190]",190,a,0.3962570459034396,colour,0.06
054,69,1,1,12,9,559,1252.0515233172537,1252.8072494431017,"[83, 0, 171]",171,l,0.23267629331121498,colour,0.06
054,69,1,1,12,10,560,1253.3170904711342,1254.1192750556897,"[85, 0, 169]",169,l,0.2790477120702235,colour,0.06
054,69,1,1,12,11,561,1254.6296005142053,1255.367325124534,"[63, 0, 191]",191,a,0.21456371324256907,colour,0.06
054,69,1,1,12,12,562,1255.8796202065014,1256.4632671724698,"[90, 0, 164]",164,l,0.06098192089712029,colour,0.06
054,69,1,1,12,13,563,1256.973398464946,1258.447327440348,"[72, 0, 182]",182,l,0.9507712290828749,colour,0.06
054,69,1,1,12,14,564,1258.9577454526548,1259.9833166867788,"[82, 0, 172]",172,l,0.5026974507140949,colour,0.06
054,69,1,1,12,15,565,1260.4890101234155,1262.5752635616905,"[74, 0, 180]",180,l,1.5631720980645696,colour,0.06
054,69,1,1,12,16,566,1263.082704492679,1263.9672469855032,"[56, 0, 198]",198,a,0.36214132451959813,colour,0.06
054,69,1,1,12,17,567,1264.4733181203783,1265.6797686076443,"[67, 0, 187]",187,l,0.6832951040223634,colour,0.06
054,69,1,1,12,18,568,1266.192211775678,1267.2312797156746,"[68, 0, 186]",186,l,0.5169093807794525,colour,0.06
054,69,1,1,12,19,569,1267.7388214712191,1268.5992854059605,"[15, 0, 239]",239,a,0.337596059020143,colour,0.06
054,69,1,1,12,20,570,1269.1139250526967,1269.7433247054819,"[95, 0, 159]",159,l,0.10632225103427118,colour,0.06
054,69,1,1,12,21,571,1270.2544933881145,1270.7833398449193,"[99, 0, 155]",155,l,0.005616636682134413,colour,0.06
054,69,1,1,12,22,572,1271.3013795634924,1272.063298916451,"[78, 0, 176]",176,l,0.23874270203486958,colour,0.06
054,69,1,1,12,23,573,1272.5827710526396,1274.8873340727132,"[66, 0, 188]",188,l,1.7816447320742554,colour,0.06
054,69,1,1,12,24,574,1275.395073932756,1276.3272828097283,"[73, 0, 181]",181,l,0.4095989703291707,colour,0.06
054,69,1,1,12,25,575,1276.8485071664204,1277.7432223055425,"[94, 0, 160]",160,l,0.3719114602863556,colour,0.06
054,69,1,1,12,26,576,1278.2562609686088,1279.1913193208206,"[88, 0, 166]",166,l,0.4121050119256324,colour,0.06
054,69,1,1,12,27,577,1279.7092310394696,1285.6312952332041,"[69, 0, 185]",185,l,5.39890369049408,colour,0.06
054,69,1,1,12,28,578,1286.146788344051,1288.647278288377,"[65, 0, 189]",189,a,1.977757551601826,colour,0.06
054,69,1,1,12,29,579,1289.162428359427,1289.9832339791355,"[87, 0, 167]",167,l,0.29773136872472605,colour,0.06
054,69,1,1,12,30,580,1290.4905386394357,1291.3032542700776,"[98, 0, 156]",156,l,0.28958860430475397,colour,0.06
054,69,1,1,12,31,581,1291.8186241071512,1293.0952532114197,"[77, 0, 177]",177,l,0.7535501271336216,colour,0.06
054,69,1,1,12,32,582,1293.6155244609822,1294.4872819275133,"[57, 0, 197]",197,a,0.3487545016587319,colour,0.06
054,69,1,1,12,33,583,1295.0060727102586,1295.8392588764991,"[51, 0, 203]",203,a,0.3100193614654927,colour,0.06
054,69,1,1,12,34,584,1296.349903744057,1297.6072706320124,"[75, 0, 179]",179,l,0.734349350784214,colour,0.06
054,69,1,1,12,35,585,1298.115501224073,1298.9913027005227,"[6, 0, 248]",248,a,0.3527075331699052,colour,0.06
054,69,1,1,12,36,586,1299.506049079503,1300.3913371226563,"[86, 0, 168]",168,l,0.36221339832354715,colour,0.06
054,69,1,1,12,37,587,1300.9123149318016,1301.7352406241039,"[92, 0, 162]",162,l,0.29985931823694045,colour,0.06
054,69,1,1,12,38,588,1302.2561463594457,1303.1672482458102,"[59, 0, 195]",195,a,0.3880638692053253,colour,0.06
054,69,1,1,12,39,589,1303.6779675502466,1304.5912966352953,"[61, 0, 193]",193,a,0.3902784648198576,colour,0.06
054,69,1,1,12,40,590,1305.099903744057,1305.9832906929482,"[89, 0, 165]",165,l,0.3603442055814412,colour,0.06
054,69,1,1,12,41,591,1306.4904827133146,1307.4312754621387,"[97, 0, 157]",157,l,0.41776575935091387,colour,0.06
054,69,1,1,12,42,592,1307.9435622733417,1308.9192718261534,"[84, 0, 170]",170,l,0.4526672033475734,colour,0.06
054,69,1,1,12,43,593,1309.4280124486818,1310.7352366856448,"[71, 0, 183]",183,l,0.786981344306696,colour,0.06
054,69,1,1,12,44,594,1311.2532996411273,1312.2152328574625,"[58, 0, 196]",196,a,0.43908621444779783,colour,0.06
054,69,1,1,12,45,595,1312.7109308784652,1313.583254301585,"[54, 0, 200]",200,a,0.34924917213584195,colour,0.06
054,69,1,1,12,46,596,1314.1015728630705,1315.0072983587652,"[50, 0, 204]",204,a,0.3826725123903998,colour,0.06
054,69,1,1,12,47,597,1315.5234653399834,1316.4952793627886,"[52, 0, 202]",202,a,0.448814602546463,colour,0.06
054,69,1,1,12,48,598,1317.0078973984114,1317.959238522542,"[80, 0, 174]",174,l,0.42829404851545405,colour,0.06
054,69,1,1,12,49,599,1318.4766083092036,1319.3992207364604,"[93, 0, 161]",161,l,0.3994432594058708,colour,0.06
054,69,1,1,12,50,600,1319.9109195357028,1320.8392565134236,"[4, 0, 250]",250,a,0.4052107390753008,colour,0.06
054,69,1,1,13,1,601,1327.0351531115402,1327.9112448524338,"[82, 0, 172]",172,l,0.352219558073557,colour,0.06
054,69,1,1,13,2,602,1328.4291845341431,1329.3432879202728,"[51, 0, 203]",203,a,0.391122082783113,colour,0.06
054,69,1,1,13,3,603,1329.8509241988386,1330.463296317068,"[86, 0, 168]",168,l,0.08925415034855178,colour,0.06
054,69,1,1,13,4,604,1330.9764204446992,1333.535224791498,"[62, 0, 192]",192,l,2.0356028835822144,colour,0.06
054,69,1,1,13,5,605,1334.0544724355118,1335.5992456275226,"[80, 0, 174]",174,l,1.021729661008976,colour,0.06
054,69,1,1,13,6,606,1336.117065580072,1336.999244603523,"[96, 0, 158]",158,l,0.3595096460744571,colour,0.06
054,69,1,1,13,7,607,1337.5076488816349,1338.463286077074,"[21, 0, 233]",233,a,0.4325070183340358,colour,0.06
054,69,1,1,13,8,608,1338.9763294662916,1339.9192454384765,"[29, 0, 225]",225,a,0.41984053966370993,colour,0.06
054,69,1,1,13,9,609,1340.4295417523936,1341.3752489106223,"[57, 0, 197]",197,a,0.422637239550113,colour,0.06
054,69,1,1,13,10,610,1341.8832813981844,1342.8712568883652,"[87, 0, 167]",167,l,0.4654998849973708,colour,0.06
054,69,1,1,13,11,611,1343.38272371236,1344.799229164763,"[69, 0, 185]",185,l,0.8935225736727261,colour,0.06
054,69,1,1,13,12,612,1345.3201108755038,1346.1832695040375,"[36, 0, 218]",218,a,0.3402982358852569,colour,0.06
054,69,1,1,13,13,613,1346.6951640447028,1347.6152164734722,"[76, 0, 178]",178,l,0.3970151993021318,colour,0.06
054,69,1,1,13,14,614,1348.1330624198522,1349.0072258911155,"[85, 0, 169]",169,l,0.35107858643959844,colour,0.06
054,69,1,1,13,15,615,1349.5236965275394,1351.7912967140646,"[54, 0, 200]",200,a,1.7445991908830365,colour,0.06
054,69,1,1,13,16,616,1352.3057559793688,1353.2312769587534,"[56, 0, 198]",198,a,0.40062597870746686,colour,0.06
054,69,1,1,13,17,617,1353.745063141378,1354.775264821997,"[65, 0, 189]",189,a,0.5072069865113917,colour,0.06
054,69,1,1,13,18,618,1355.2919489229103,1356.1912082562708,"[61, 0, 193]",193,a,0.3761720854613486,colour,0.06
054,69,1,1,13,19,619,1356.6981596367796,1357.7112207490632,"[77, 0, 177]",177,l,0.4899419628650321,colour,0.06
054,69,1,1,13,20,620,1358.230378990053,1359.4871716506555,"[60, 0, 194]",194,a,0.7341217078419504,colour,0.06
054,69,1,1,13,21,621,1359.996057602329,1363.239222406367,"[67, 0, 187]",187,l,2.7201535684016562,colour,0.06
054,69,1,1,13,22,622,1363.7459555962355,1364.5992247536888,"[72, 0, 182]",182,l,0.33014961418848543,colour,0.06
054,69,1,1,13,23,623,1365.105738965225,1365.9112263416755,"[83, 0, 171]",171,l,0.28239028240341213,colour,0.06
054,69,1,1,13,24,624,1366.4088778384476,1367.3752713598396,"[55, 0, 199]",199,a,0.4404871243891648,colour,0.06
054,69,1,1,13,25,625,1367.8960916306164,1369.1112090912243,"[71, 0, 183]",183,l,0.6920566003850581,colour,0.06
054,69,1,1,13,26,626,1369.6305024213648,1370.5192181055695,"[88, 0, 166]",166,l,0.3657158701003027,colour,0.06
054,69,1,1,13,27,627,1371.0367344029137,1372.2152041067102,"[53, 0, 201]",201,a,0.6556427880509546,colour,0.06
054,69,1,1,13,28,628,1372.724277529042,1373.5752072417235,"[84, 0, 170]",170,l,0.32792202165819617,colour,0.06
054,69,1,1,13,29,629,1374.0836186090623,1374.9752054300325,"[79, 0, 175]",175,l,0.36860079147299984,colour,0.06
054,69,1,1,13,30,630,1375.4898171137079,1376.5192082594217,"[58, 0, 196]",196,a,0.5063027162768776,colour,0.06
054,69,1,1,13,31,631,1377.0366012829923,1377.96719421015,"[93, 0, 161]",161,l,0.4079467866899904,colour,0.06
054,69,1,1,13,32,632,1378.474587879628,1380.447187625046,"[64, 0, 190]",190,a,1.450427795439282,colour,0.06
054,69,1,1,13,33,633,1380.958534326035,1381.8551867932433,"[92, 0, 162]",162,l,0.37396300368936863,colour,0.06
054,69,1,1,13,34,634,1382.3648049044846,1383.255186950782,"[99, 0, 155]",155,l,0.3673723860447353,colour,0.06
054,69,1,1,13,35,635,1383.7710605167886,1384.6631758789854,"[98, 0, 156]",156,l,0.3690749819620578,colour,0.06
054,69,1,1,13,36,636,1385.1772826521897,1386.1591858259576,"[81, 0, 173]",173,l,0.45891359965708034,colour,0.06
054,69,1,1,13,37,637,1386.6772913168002,1387.615212928859,"[63, 0, 191]",191,a,0.4149733917697631,colour,0.06
054,69,1,1,13,38,638,1388.1303933260447,1388.9591605410496,"[68, 0, 186]",186,a,0.30563073636585614,colour,0.06
054,69,1,1,13,39,639,1389.4747269072382,1390.327304077408,"[50, 0, 204]",204,a,0.3302756448833861,colour,0.06
054,69,1,1,13,40,640,1390.834023876515,1391.8392222488287,"[74, 0, 180]",180,l,0.48226275509432526,colour,0.06
054,69,1,1,13,41,641,1392.3496768888062,1393.2631906875918,"[75, 0, 179]",179,l,0.3905415538952184,colour,0.06
054,69,1,1,13,42,642,1393.7724153467575,1394.6472270884074,"[91, 0, 163]",163,l,0.3516855030043189,colour,0.06
054,69,1,1,13,43,643,1395.1631585497648,1396.0471827413567,"[90, 0, 164]",164,l,0.3610188636444036,colour,0.06
054,69,1,1,13,44,644,1396.5422049227586,1397.399147087273,"[89, 0, 165]",165,l,0.333909267351828,colour,0.06
054,69,1,1,13,45,645,1397.9171852304626,1398.8232163505922,"[59, 0, 195]",195,a,0.38295371837830317,colour,0.06
054,69,1,1,13,46,646,1399.3390777073755,1400.167178141236,"[52, 0, 202]",202,a,0.3050773828463207,colour,0.06
054,69,1,1,13,47,647,1400.6828102796935,1401.6391717577817,"[73, 0, 181]",181,l,0.4333600885997839,colour,0.06
054,69,1,1,13,48,648,1402.151545215087,1403.8791857944502,"[66, 0, 188]",188,l,1.2046710913941752,colour,0.06
054,69,1,1,13,49,649,1404.3859126827838,1405.215199774405,"[78, 0, 176]",176,l,0.30631839134412076,colour,0.06
054,69,1,1,13,50,650,1405.7296499812528,1406.61519638733,"[70, 0, 184]",184,l,0.36241032128373263,colour,0.06
054,69,1,1,14,1,651,1416.791354609415,1418.5671987787623,"[89, 0, 165]",165,l,1.251993254206809,colour,0.06
054,69,1,1,14,2,652,1419.0733388366734,1420.023213278594,"[67, 0, 187]",187,l,0.42686123705425416,colour,0.06
054,69,1,1,14,3,653,1420.5421517535597,1421.391188642744,"[50, 0, 204]",204,a,0.3260571612217973,colour,0.06
054,69,1,1,14,4,654,1421.9014825935856,1422.735218962578,"[94, 0, 160]",160,l,0.30922615577992474,colour,0.06
054,69,1,1,14,5,655,1423.246942180268,1424.14318583541,"[74, 0, 180]",180,l,0.3731142657293276,colour,0.06
054,69,1,1,14,6,656,1424.653668832294,1425.519201564041,"[92, 0, 162]",162,l,0.34259672068128566,colour,0.06
054,69,1,1,14,7,657,1426.0286755276747,1426.9591408487536,"[59, 0, 195]",195,a,0.4073438085847556,colour,0.06
054,69,1,1,14,8,658,1427.4660871092656,1428.4471817173571,"[36, 0, 218]",218,a,0.4579793971320214,colour,0.06
054,69,1,1,14,9,659,1428.9661658784498,1429.9512052472878,"[84, 0, 170]",170,l,0.4619710255433347,colour,0.06
054,69,1,1,14,10,660,1430.4609757769003,1431.3752737229152,"[98, 0, 156]",156,l,0.3912548088587755,colour,0.06
054,69,1,1,14,11,661,1431.8828324138344,1432.871217503773,"[79, 0, 175]",175,l,0.46532186664080655,colour,0.06
054,69,1,1,14,12,662,1433.3845113789962,1435.2071999760542,"[70, 0, 184]",184,l,1.2995643276422015,colour,0.06
054,69,1,1,14,13,663,1435.7283231143442,1436.6151459750522,"[95, 0, 159]",159,l,0.3637001666756987,colour,0.06
054,69,1,1,14,14,664,1437.1345763635732,1438.4231645992381,"[68, 0, 186]",186,a,0.7655482492759802,colour,0.06
054,69,1,1,14,15,665,1438.9314873512444,1439.9751782546637,"[62, 0, 192]",192,a,0.5206887262393138,colour,0.06
054,69,1,1,14,16,666,1440.4939012959107,1441.423148845401,"[96, 0, 158]",158,l,0.4062335569328752,colour,0.06
054,69,1,1,14,17,667,1441.9314207912835,1442.8151811061084,"[52, 0, 202]",202,a,0.3607506545722572,colour,0.06
054,69,1,1,14,18,668,1443.3220241789886,1444.3991388165086,"[75, 0, 179]",179,l,0.5540817403580149,colour,0.06
054,69,1,1,14,19,669,1444.9159127142916,1445.7831775803998,"[97, 0, 157]",157,l,0.3443812365503618,colour,0.06
054,69,1,1,14,20,670,1446.290824098959,1447.207160591462,"[85, 0, 169]",169,l,0.4057180126219464,colour,0.06
054,69,1,1,14,21,671,1447.715944537042,1448.6551973483142,"[54, 0, 200]",200,a,0.4145937243015396,colour,0.06
054,69,1,1,14,22,672,1449.1705935730647,1450.215143454438,"[90, 0, 164]",164,l,0.5216237164559061,colour,0.06
054,69,1,1,14,23,673,1450.733121733048,1452.8551304732769,"[66, 0, 188]",188,l,1.598977812296198,colour,0.06
054,69,1,1,14,24,674,1453.373700702306,1454.2711357413596,"[53, 0, 201]",201,a,0.37435094192187535,colour,0.06
054,69,1,1,14,25,675,1454.7799346530846,1455.6871681848115,"[80, 0, 174]",174,l,0.38420536071589595,colour,0.06
054,69,1,1,14,26,676,1456.201794834632,1457.1031797544292,"[40, 0, 214]",214,a,0.37835477955650276,colour,0.06
054,69,1,1,14,27,677,1457.6237589915022,1458.535173985374,"[81, 0, 173]",173,l,0.3883572844165428,colour,0.06
054,69,1,1,14,28,678,1459.0455975115237,1460.079182722452,"[72, 0, 182]",182,l,0.5105440430015733,colour,0.06
054,69,1,1,14,29,679,1460.5924309115485,1461.455155915723,"[17, 0, 237]",237,a,0.3396432701183585,colour,0.06
054,69,1,1,14,30,680,1461.9673521423642,1469.1591330506044,"[64, 0, 190]",190,l,6.668621192691717,colour,0.06
054,69,1,1,14,31,681,1469.6706231115086,1470.4471632065988,"[65, 0, 189]",189,l,0.2537458685560523,colour,0.06
054,69,1,1,14,32,682,1470.967358050053,1471.8791846129125,"[71, 0, 183]",183,l,0.38870701959467624,colour,0.06
054,69,1,1,14,33,683,1472.3893371730683,1473.5431473960484,"[61, 0, 193]",193,a,0.6307552704461159,colour,0.06
054,69,1,1,14,34,684,1474.061616406676,1475.1751302842308,"[82, 0, 172]",172,l,0.5885657076782991,colour,0.06
054,69,1,1,14,35,685,1475.688443064058,1476.6071221521001,"[55, 0, 199]",199,a,0.39359464747667516,colour,0.06
054,69,1,1,14,36,686,1477.128036552052,1478.0071861126776,"[88, 0, 166]",166,l,0.35603553120336073,colour,0.06
054,69,1,1,14,37,687,1478.5186517551347,1479.4631935232824,"[87, 0, 167]",167,l,0.42151871713349465,colour,0.06
054,69,1,1,14,38,688,1479.9718073274244,1480.9031300510737,"[63, 0, 191]",191,a,0.4082689526530885,colour,0.06
054,69,1,1,14,39,689,1481.4092169397854,1482.271368504299,"[57, 0, 197]",197,a,0.3389768828196793,colour,0.06
054,69,1,1,14,40,690,1482.7842512043808,1483.3911106612513,"[51, 0, 203]",203,a,0.08373636899250414,colour,0.06
054,69,1,1,14,41,691,1483.9092657766796,1484.9031465926028,"[77, 0, 177]",177,l,0.4686979138773495,colour,0.06
054,69,1,1,14,42,692,1485.4135598787584,1486.4071571256177,"[99, 0, 155]",155,l,0.4705552912409985,colour,0.06
054,69,1,1,14,43,693,1486.9136095033446,1487.871116285371,"[56, 0, 198]",198,a,0.4345810109548438,colour,0.06
054,69,1,1,14,44,694,1488.3823401064328,1489.2951414379472,"[78, 0, 176]",176,l,0.3897936404914617,colour,0.06
054,69,1,1,14,45,695,1489.804175081841,1490.7911230280133,"[86, 0, 168]",168,l,0.46380083369285785,colour,0.06
054,69,1,1,14,46,696,1491.3041345157112,1492.2232232035112,"[58, 0, 196]",196,a,0.39609438753814175,colour,0.06
054,69,1,1,14,47,697,1492.741680792607,1493.671156772732,"[60, 0, 194]",194,a,0.4064560798783532,colour,0.06
054,69,1,1,14,48,698,1494.1791486941643,1495.0712750840466,"[93, 0, 161]",161,l,0.3690718311945602,colour,0.06
054,69,1,1,14,49,699,1495.585378312638,1497.0871687361955,"[69, 0, 185]",185,l,0.978781944842467,colour,0.06
054,69,1,1,14,50,700,1497.6010053310983,1498.735115381101,"[73, 0, 181]",181,l,0.611063762079084,colour,0.06
054,69,1,1,15,1,701,1534.1469671500995,1536.335108528182,"[65, 0, 189]",189,l,1.6642652568034464,colour,0.06
054,69,1,1,15,2,702,1536.8508867834762,1537.5591186358438,"[89, 0, 165]",165,l,0.1851902905955285,colour,0.06
054,69,1,1,15,3,703,1538.0697410541839,1538.6550992806797,"[80, 0, 174]",174,l,0.06254667074153986,colour,0.06
054,69,1,1,15,4,704,1539.1633897373204,1539.7351323164758,"[92, 0, 162]",162,l,0.05151268341433024,colour,0.06
054,69,1,1,15,5,705,1540.254321671293,1540.9351107337193,"[67, 0, 187]",187,a,0.15774198681128837,colour,0.06
054,69,1,1,15,6,706,1541.4418096589925,1542.0551069212906,"[61, 0, 193]",193,a,0.09013400213643763,colour,0.06
054,69,1,1,15,7,707,1542.55697729557,1543.191081437884,"[84, 0, 170]",170,l,0.1110070482664014,colour,0.06
054,69,1,1,15,8,708,1543.6976724493747,1544.2551652892562,"[90, 0, 164]",164,l,0.03452610883368834,colour,0.06
054,69,1,1,15,9,709,1544.7756555171513,1549.2951300164154,"[87, 0, 167]",167,l,3.996383312905891,colour,0.06
054,69,1,1,15,10,710,1549.806928852522,1550.7751131913178,"[93, 0, 161]",161,l,0.44502186632553276,colour,0.06
054,69,1,1,15,11,711,1551.291358547874,1552.1911133394037,"[95, 0, 159]",159,l,0.3766620297874397,colour,0.06
054,69,1,1,15,12,712,1552.6976744186045,1557.1030824744867,"[71, 0, 183]",183,l,3.882367281801635,colour,0.06
054,69,1,1,15,13,713,1557.619502698632,1559.0230903986667,"[77, 0, 177]",177,l,0.8806926489446596,colour,0.06
054,69,1,1,15,14,714,1559.5412687510043,1560.4151226593735,"[88, 0, 166]",166,l,0.350680014367299,colour,0.06
054,69,1,1,15,15,715,1560.931874501785,1561.815077918477,"[55, 0, 199]",199,a,0.3600578795967522,colour,0.06
054,69,1,1,15,16,716,1562.3225511448313,1563.3270803729247,"[75, 0, 179]",179,l,0.48146561094927165,colour,0.06
054,69,1,1,15,17,717,1563.8381127848688,1564.791109243406,"[33, 0, 221]",221,a,0.4298800660399138,colour,0.06
054,69,1,1,15,18,718,1565.3068890740838,1566.2390751079924,"[53, 0, 201]",201,a,0.4090562506498827,colour,0.06
054,69,1,1,15,19,719,1566.7602797723885,1567.5830487140142,"[50, 0, 204]",204,a,0.29969114602863556,colour,0.06
054,69,1,1,15,20,720,1568.1040182523952,1570.631103824086,"[78, 0, 176]",176,l,2.0040459791480316,colour,0.06
054,69,1,1,15,21,721,1571.1509796523442,1573.5670762926811,"[62, 0, 192]",192,a,1.8930617739451918,colour,0.06
054,69,1,1,15,22,722,1574.0902761805137,1583.9591061903125,"[82, 0, 172]",172,l,9.345685654241151,colour,0.06
054,69,1,1,15,23,723,1584.4652753928217,1585.4070755995122,"[86, 0, 168]",168,l,0.4187078387940346,colour,0.06
054,69,1,1,15,24,724,1585.9183553466946,1587.20708064074,"[76, 0, 178]",178,l,0.7655766061825489,colour,0.06
054,69,1,1,15,25,725,1587.715265546674,1588.6310805871767,"[96, 0, 158]",158,l,0.39309406931033664,colour,0.06
054,69,1,1,15,26,726,1589.1370926451636,1592.3111028315943,"[81, 0, 173]",173,l,2.6511206491836674,colour,0.06
054,69,1,1,15,27,727,1592.8262513272607,1593.7510870147426,"[47, 0, 207]",207,a,0.40162359042551543,colour,0.06
054,69,1,1,15,28,728,1594.263849985664,1595.0150972956963,"[58, 0, 196]",196,a,0.22821283748635324,colour,0.06
054,69,1,1,15,29,729,1595.5294793671997,1596.119113972708,"[60, 0, 194]",194,a,0.0666174621828759,colour,0.06
054,69,1,1,15,30,730,1596.6388362010566,1598.1751184688528,"[66, 0, 188]",188,l,1.0131906875917593,colour,0.06
054,69,1,1,15,31,731,1598.6857530964166,1607.9831343361175,"[64, 0, 190]",190,l,8.774513363979622,colour,0.06
054,69,1,1,15,32,732,1608.4982481733427,1609.2630433892173,"[52, 0, 202]",202,a,0.24173474949793672,colour,0.06
054,69,1,1,15,33,733,1609.7794017795532,1610.5591402973691,"[73, 0, 181]",181,l,0.25667568836388455,colour,0.06
054,69,1,1,15,34,734,1611.076399019481,1611.7350669380526,"[83, 0, 171]",171,l,0.1354073784668799,colour,0.06
054,69,1,1,15,35,735,1612.239026664944,1612.9591203687655,"[38, 0, 216]",216,a,0.19695171133889744,colour,0.06
054,69,1,1,15,36,736,1613.4735091356497,1614.2470812078782,"[54, 0, 200]",200,a,0.25052381507521204,colour,0.06
054,69,1,1,15,37,737,1614.7559695226273,1615.4070476364518,"[56, 0, 198]",198,a,0.12802158590739054,colour,0.06
054,69,1,1,15,38,738,1615.9278883872166,1616.6951167831926,"[97, 0, 157]",157,l,0.24418407728217062,colour,0.06
054,69,1,1,15,39,739,1617.2090699564878,1617.807073787821,"[98, 0, 156]",156,l,0.07495557418042154,colour,0.06
054,69,1,1,15,40,740,1618.3187410793898,1618.9430561813328,"[94, 0, 160]",160,l,0.10150945387749744,colour,0.06
054,69,1,1,15,41,741,1619.4591073718502,1621.023041561772,"[68, 0, 186]",186,l,1.0409812434818377,colour,0.06
054,69,1,1,15,42,742,1621.53707271656,1622.3350431497588,"[99, 0, 155]",155,l,0.2754172403688244,colour,0.06
054,69,1,1,15,43,743,1622.8497529010688,1624.247031583292,"[69, 0, 185]",185,l,0.8742402712182411,colour,0.06
054,69,1,1,15,44,744,1624.7581608813325,1625.9830283915649,"[70, 0, 184]",184,l,0.7017999546292231,colour,0.06
054,69,1,1,15,45,745,1626.4924633644523,1627.2950343118564,"[72, 0, 182]",182,l,0.27950654256846974,colour,0.06
054,69,1,1,15,46,746,1627.804956078303,1628.8870288421244,"[74, 0, 180]",180,l,0.5589985128376611,colour,0.06
054,69,1,1,15,47,747,1629.4004140896013,1630.031066960108,"[79, 0, 175]",175,l,0.10791457009372607,colour,0.06
054,69,1,1,15,48,748,1630.5410954587987,1631.631079405639,"[51, 0, 203]",203,a,0.5668167482190256,colour,0.06
054,69,1,1,15,49,749,1632.150926876991,1633.839086371986,"[57, 0, 197]",197,a,1.1650478286487669,colour,0.06
054,69,1,1,15,50,750,1634.3541324677126,1635.4310572714985,"[63, 0, 191]",191,a,0.554049838838182,colour,0.06
054,69,1,1,16,1,751,1640.0408071635848,1640.9270502830964,"[80, 0, 174]",174,l,0.3622964998126008,colour,0.06
054,69,1,1,16,2,752,1641.447907181544,1642.4150525547998,"[78, 0, 176]",176,l,0.44421763295486016,colour,0.06
054,69,1,1,16,3,753,1642.9322474738724,1643.5430768976285,"[83, 0, 171]",171,l,0.08774414508661721,colour,0.06
054,69,1,1,16,4,754,1644.0573065507601,1644.7990582356333,"[85, 0, 169]",169,l,0.2171437978722679,colour,0.06
054,69,1,1,16,5,755,1645.30881576833,1646.8870670451788,"[69, 0, 185]",185,l,1.0551789950941384,colour,0.06
054,69,1,1,16,6,756,1647.4025384945003,1648.2630382692205,"[81, 0, 173]",173,l,0.33753658828618427,colour,0.06
054,69,1,1,16,7,757,1648.777538888346,1649.3750756184168,"[38, 0, 216]",216,a,0.0772965943356212,colour,0.06
054,69,1,1,16,8,758,1649.8840281300509,1651.0631012057984,"[79, 0, 175]",175,l,0.6651195086060397,colour,0.06
054,69,1,1,16,9,759,1651.577947621643,1652.6150605104872,"[53, 0, 201]",201,a,0.5140098871079317,colour,0.06
054,69,1,1,16,10,760,1653.1258325902772,1654.5110174457986,"[68, 0, 186]",186,l,0.8621519583593908,colour,0.06
054,69,1,1,16,11,761,1655.032167759458,1656.0390986599787,"[52, 0, 202]",202,a,0.4840145817515804,colour,0.06
054,69,1,1,16,12,762,1656.542434534931,1657.4710338140353,"[51, 0, 203]",203,a,0.4055336927308417,colour,0.06
054,69,1,1,16,13,763,1657.9798945595699,1658.855123777896,"[41, 0, 213]",213,a,0.35248501022442724,colour,0.06
054,69,1,1,16,14,764,1659.3705266980273,1663.2230802374415,"[62, 0, 192]",192,l,3.3297025990677867,colour,0.06
054,69,1,1,16,15,765,1663.729854781132,1664.719126812085,"[94, 0, 160]",160,l,0.4661828138241617,colour,0.06
054,69,1,1,16,16,766,1665.2300198025728,1666.2230412466956,"[70, 0, 184]",184,l,0.47010000535647123,colour,0.06
054,69,1,1,16,17,767,1666.729918190325,1667.6550216930332,"[50, 0, 204]",204,a,0.40209975014386146,colour,0.06
054,69,1,1,16,18,768,1668.1673407996018,1670.4150631886396,"[60, 0, 194]",194,a,1.7246252949908012,colour,0.06
054,69,1,1,16,19,769,1670.9339587343998,1671.5670451788533,"[89, 0, 165]",165,l,0.10994602735490844,colour,0.06
054,69,1,1,16,20,770,1672.0745837836303,1672.7590513669602,"[77, 0, 177]",177,l,0.16124052012855827,colour,0.06
054,69,1,1,16,21,771,1673.2777157251649,1673.9669996502648,"[90, 0, 164]",164,l,0.16622385256960115,colour,0.06
054,69,1,1,16,22,772,1674.4808370328592,1675.8070056524766,"[75, 0, 179]",179,l,0.8030664055731904,colour,0.06
054,69,1,1,16,23,773,1676.324689334337,1677.2070113238578,"[73, 0, 181]",181,l,0.35929775696877186,colour,0.06
054,69,1,1,16,24,774,1677.715210014399,1678.6230441611556,"[91, 0, 163]",163,l,0.38477249884226694,colour,0.06
054,69,1,1,16,25,775,1679.137115882073,1680.0871305331411,"[71, 0, 183]",183,l,0.42716922456475004,colour,0.06
054,69,1,1,16,26,776,1680.6058263990194,1681.510981999666,"[87, 0, 167]",167,l,0.38199037125514224,colour,0.06
054,69,1,1,16,27,777,1682.0277492020682,1684.567012489642,"[64, 0, 190]",190,l,2.0162256642606735,colour,0.06
054,69,1,1,16,28,778,1685.0745798451712,1687.4150805178601,"[65, 0, 189]",189,l,1.8173925509559012,colour,0.06
054,69,1,1,16,29,779,1687.9343588818556,1688.7990298787267,"[95, 0, 159]",159,l,0.3415396382288236,colour,0.06
054,69,1,1,16,30,780,1689.309280506517,1691.6790230573156,"[61, 0, 193]",193,a,1.8465213952858903,colour,0.06
054,69,1,1,16,31,781,1692.199976054168,1693.0790204579325,"[55, 0, 199]",199,a,0.3559697589348616,colour,0.06
054,69,1,1,16,32,782,1693.5905613249606,1694.4791312861748,"[99, 0, 155]",155,l,0.3654319071911232,colour,0.06
054,69,1,1,16,33,783,1694.9968689249267,1695.8710351531113,"[88, 0, 166]",166,l,0.35108922027939116,colour,0.06
054,69,1,1,16,34,784,1696.3874475003386,1697.29504849031,"[59, 0, 195]",195,a,0.38503992022288,colour,0.06
054,69,1,1,16,35,785,1697.8093789679974,1698.6310167841375,"[96, 0, 158]",158,l,0.2986096451290905,colour,0.06
054,69,1,1,16,36,786,1699.1374325341935,1700.2870195473606,"[63, 0, 191]",191,a,0.6266553344066779,colour,0.06
054,69,1,1,16,37,787,1700.7936771188124,1701.6469974762354,"[84, 0, 170]",170,l,0.3301917557023444,colour,0.06
054,69,1,1,16,38,788,1702.1530548265027,1703.5350125085465,"[74, 0, 180]",180,l,0.8590248217456065,colour,0.06
054,69,1,1,16,39,789,1704.043682632655,1704.8630428378328,"[76, 0, 178]",178,l,0.2962532649826244,colour,0.06
054,69,1,1,16,40,790,1705.3726833982914,1706.1670363567046,"[98, 0, 156]",156,l,0.27119718132325943,colour,0.06
054,69,1,1,16,41,791,1706.685246610562,1707.2470426109776,"[97, 0, 157]",157,l,0.03875877094833413,colour,0.06
054,69,1,1,16,42,792,1707.7633860351689,1708.7430009641348,"[56, 0, 198]",198,a,0.4566017240999827,colour,0.06
054,69,1,1,16,43,793,1709.2515954698265,1710.079007854863,"[58, 0, 196]",196,a,0.3043916970977989,colour,0.06
054,69,1,1,16,44,794,1710.595336706755,1711.4229920947246,"[86, 0, 168]",168,l,0.3045673523788537,colour,0.06
054,69,1,1,16,45,795,1711.940671050434,1714.951010293557,"[66, 0, 188]",188,a,2.4871834660330023,colour,0.06
054,69,1,1,16,46,796,1715.4719286319682,1716.4630048710865,"[82, 0, 172]",172,l,0.46801301582036103,colour,0.06
054,69,1,1,16,47,797,1716.971930601198,1717.7910411080616,"[92, 0, 162]",162,l,0.2960173512756228,colour,0.06
054,69,1,1,16,48,798,1718.3000810534904,1719.1910326009897,"[72, 0, 182]",182,l,0.367847758071548,colour,0.06
054,69,1,1,16,49,799,1719.7062949181272,1720.4390298944809,"[93, 0, 161]",161,l,0.21010616510648106,colour,0.06
054,69,1,1,16,50,800,1720.9563272134928,1721.8390139043363,"[3, 0, 251]",251,a,0.35996571965097246,colour,0.06
