id,age,condition,counterbalance,block,trialinblock,trial,tstart,tend,trialstim,trialintensity,response,RT,trialtype,colourfreq
142,22,0,2,Practice,1,NA,6.301532266661525e-06,1.0120394664845662,"[66, 0, 188]",188,a,0.4878207183210179,colour,0.5
142,22,0,2,Practice,2,NA,1.5320696665730793,2.716034951445181,"[91, 0, 163]",163,l,0.6607157907710643,colour,0.5
142,22,0,2,Practice,3,NA,3.2351388266397407,3.9320399706048192,"[32, 0, 222]",222,a,0.17355200691963546,colour,0.5
142,22,0,2,Practice,4,NA,4.43824343282904,5.444015240253066,"[65, 0, 189]",189,l,0.4892436825175537,colour,0.5
142,22,0,2,Practice,5,NA,5.963062007838744,12.644054152202443,"[39, 0, 215]",215,a,6.1580797820934094,colour,0.5
142,22,0,2,Practice,6,NA,13.150243435971788,13.812007249915041,"[43, 0, 211]",211,a,0.13847651064861566,colour,0.5
142,22,0,2,Practice,7,NA,14.322009353054455,14.9240067016799,"[3, 0, 251]",251,a,0.0786072516348213,colour,0.5
142,22,0,2,Practice,8,NA,15.431394063809421,16.02815956734412,"[99, 0, 155]",155,l,0.07342266802152153,colour,0.5
142,22,0,2,Practice,9,NA,16.54076144535793,20.5193724779092,"[15, 0, 239]",239,a,3.467688512231689,colour,0.5
142,22,0,2,Practice,10,NA,21.028212342658662,21.788044895249186,"[76, 0, 178]",178,l,0.2367953412758652,colour,0.5
142,22,0,2,1,1,1,4.6725429744547,8.159924948777189,"[8, 0, 246]",246,a,2.9624763594183605,colour,0.5
142,22,0,2,1,2,2,8.673480327008292,9.967964204159216,"[50, 0, 204]",204,a,0.7716750962863443,colour,0.5
142,22,0,2,1,3,3,10.485943650142872,11.06391996111779,"[5, 0, 249]",249,a,0.05463347546174191,colour,0.5
142,22,0,2,1,4,4,11.5824318863597,12.223925648242584,"[54, 0, 200]",200,a,0.11819936937536113,colour,0.5
142,22,0,2,1,5,5,12.73865192948142,13.359892180815223,"[21, 0, 233]",233,a,0.09791986501659267,colour,0.5
142,22,0,2,1,6,6,13.879396990858368,18.111951008744654,"[0, 0, 254]",254,a,3.7093884128989885,colour,0.5
142,22,0,2,1,7,7,18.6292349233845,19.319866439065663,"[38, 0, 216]",216,a,0.16725953559216578,colour,0.5
142,22,0,2,1,8,8,19.832391517193173,20.51991480331344,"[92, 0, 162]",162,l,0.16703976974531543,colour,0.5
142,22,0,2,1,9,9,21.032681308788597,22.479898907695315,"[3, 0, 251]",251,a,0.9229953061440028,colour,0.5
142,22,0,2,1,10,10,22.986664387601195,23.719919056849903,"[42, 0, 212]",212,a,0.20989607990486547,colour,0.5
142,22,0,2,1,11,11,24.236606295380625,24.855846598700737,"[6, 0, 248]",248,a,0.09585847708513029,colour,0.5
142,22,0,2,1,12,12,25.37715994779137,26.103902379851206,"[59, 0, 195]",195,l,0.20331058744341135,colour,0.5
142,22,0,2,1,13,13,26.61160836306226,27.135906668030657,"[23, 0, 231]",231,a,0.0016372162062907591,colour,0.5
142,22,0,2,1,14,14,27.65853231069923,28.431919453840237,"[52, 0, 202]",202,a,0.2501014152512653,colour,0.5
142,22,0,2,1,15,15,28.927660407396615,29.527958706064965,"[41, 0, 213]",213,a,0.07709291526407469,colour,0.5
142,22,0,2,1,16,16,30.035405932721915,30.647960706803133,"[44, 0, 210]",210,a,0.08939231984550133,colour,0.5
142,22,0,2,1,17,17,31.157887585432036,32.47987882157031,"[60, 0, 194]",194,a,0.7987334712815937,colour,0.5
142,22,0,2,1,18,18,32.98602399464289,33.66387049409968,"[67, 0, 187]",187,l,0.15455762078636326,colour,0.5
142,22,0,2,1,19,19,34.17347678239457,34.78383823027252,"[46, 0, 208]",208,a,0.08729627351567615,colour,0.5
142,22,0,2,1,20,20,35.29981260825298,36.00788754604582,"[34, 0, 220]",220,a,0.18547883356222883,colour,0.5
142,22,0,2,1,21,21,36.518559580566944,37.05585163993237,"[84, 0, 170]",170,l,0.013989789949846454,colour,0.5
142,22,0,2,1,22,22,37.55303288689174,38.080434301431524,"[16, 0, 238]",238,a,0.004068031325004995,colour,0.5
142,22,0,2,1,23,23,38.601732290524524,39.20789731341938,"[48, 0, 206]",206,a,0.08279776894778479,colour,0.5
142,22,0,2,1,24,24,39.72679757044534,40.25589094571478,"[25, 0, 229]",229,a,0.006117603872553445,colour,0.5
142,22,0,2,1,25,25,40.77424139427603,43.23191835106991,"[15, 0, 239]",239,a,1.9465697228733916,colour,0.5
142,22,0,2,1,26,26,43.746476066386094,45.031862897609244,"[77, 0, 177]",177,l,0.7621499401720939,colour,0.5
142,22,0,2,1,27,27,45.543425417054095,46.11184979042446,"[82, 0, 172]",172,l,0.04523946993867867,colour,0.5
142,22,0,2,1,28,28,46.62140566649032,47.28788893237652,"[45, 0, 209]",209,a,0.14319990106741898,colour,0.5
142,22,0,2,1,29,29,47.79525148222456,48.567845026467694,"[69, 0, 185]",185,l,0.24939328082837164,colour,0.5
142,22,0,2,1,30,30,49.076440313088824,49.84784208050405,"[75, 0, 179]",179,l,0.24810737490770407,colour,0.5
142,22,0,2,1,31,31,50.35760354397644,50.94384824970621,"[87, 0, 167]",167,l,0.06295779629726894,colour,0.5
142,22,0,2,1,32,32,51.451334073237376,52.05587999681302,"[91, 0, 163]",163,l,0.08117709425278008,colour,0.5
142,22,0,2,1,33,33,52.576406048523495,53.2398767893319,"[24, 0, 230]",230,a,0.14015271757671144,colour,0.5
142,22,0,2,1,34,34,53.74612593764323,54.271843268346856,"[64, 0, 190]",190,a,0.0023390490823658183,colour,0.5
142,22,0,2,1,35,35,54.79299317150435,55.463878055947134,"[80, 0, 174]",174,l,0.1459131034935126,colour,0.5
142,22,0,2,1,36,36,55.98233405510837,56.66387482640857,"[55, 0, 199]",199,a,0.15837477246532217,colour,0.5
142,22,0,2,1,37,37,57.18535871063068,57.90384653254296,"[57, 0, 197]",197,a,0.19524974931846373,colour,0.5
142,22,0,2,1,38,38,58.41972638756852,58.95983759382216,"[88, 0, 166]",166,l,0.0168506844638614,colour,0.5
142,22,0,2,1,39,39,59.46726000819763,60.0078745491337,"[20, 0, 234]",234,a,0.017374105271301232,colour,0.5
142,22,0,2,1,40,40,60.516004310236895,61.04781837100745,"[95, 0, 159]",159,l,0.008522031333995983,colour,0.5
142,22,0,2,1,41,41,61.56298300239723,62.11182419046236,"[68, 0, 186]",186,a,0.02562517083424609,colour,0.5
142,22,0,2,1,42,42,62.62532955031202,63.92784000100801,"[29, 0, 225]",225,a,0.7791762797860429,colour,0.5
142,22,0,2,1,43,43,64.42533947521588,65.47986503697757,"[26, 0, 228]",228,a,0.5315328549913829,colour,0.5
142,22,0,2,1,44,44,65.98786364748958,66.78379215033783,"[14, 0, 240]",240,a,0.2726073288358748,colour,0.5
142,22,0,2,1,45,45,67.30037383825402,67.95982459691004,"[94, 0, 160]",160,l,0.13607759703882039,colour,0.5
142,22,0,2,1,46,46,68.47221891829395,69.23988309086417,"[90, 0, 164]",164,l,0.24436544776835945,colour,0.5
142,22,0,2,1,47,47,69.75347430905094,70.91983075665485,"[97, 0, 157]",157,l,0.6429368121898733,colour,0.5
142,22,0,2,1,48,48,71.44097593367042,71.98380428078235,"[96, 0, 158]",158,l,0.019641080623841844,colour,0.5
142,22,0,2,1,49,49,72.50348632133682,73.17583276685036,"[43, 0, 211]",211,a,0.14902645304391626,colour,0.5
142,22,0,2,1,50,50,73.69092611219094,74.27981903581531,"[12, 0, 242]",242,a,0.0657029002031777,colour,0.5
142,22,0,2,2,1,51,79.67891460875398,81.19982465992507,"[46, 0, 208]",208,a,0.9968555366358487,colour,0.5
142,22,0,2,2,2,52,81.71091535233427,82.83981983925332,"[64, 0, 190]",190,l,0.6055250237695873,colour,0.5
142,22,0,2,2,3,53,83.35147885087645,86.01581565818924,"[26, 0, 228]",228,a,2.140960494914907,colour,0.5
142,22,0,2,2,4,54,86.52341806002369,87.66378148499643,"[18, 0, 236]",236,a,0.617221844571759,colour,0.5
142,22,0,2,2,5,55,88.179678669243,89.10382794302132,"[95, 0, 159]",159,l,0.4009391642466653,colour,0.5
142,22,0,2,2,6,56,89.61893192220305,90.20781499968143,"[28, 0, 226]",226,a,0.06554614964989014,colour,0.5
142,22,0,2,2,7,57,90.72830481758865,91.52795476761821,"[20, 0, 234]",234,a,0.27672144009557087,colour,0.5
142,22,0,2,2,8,58,92.04087447903294,93.38379033864476,"[23, 0, 231]",231,a,0.8198731344455155,colour,0.5
142,22,0,2,2,9,59,93.90019873448182,95.23981141096738,"[62, 0, 192]",192,l,0.8163080439844634,colour,0.5
142,22,0,2,2,10,60,95.75957379602187,96.6077711252874,"[55, 0, 199]",199,a,0.3248974229209125,colour,0.5
142,22,0,2,2,11,61,97.118914199149,97.91184159844124,"[32, 0, 222]",222,a,0.26958574530726764,colour,0.5
142,22,0,2,2,12,62,98.43142911605537,99.04777504797676,"[31, 0, 223]",223,a,0.09305035788565874,colour,0.5
142,22,0,2,2,13,63,99.55643098682049,100.51180276526429,"[83, 0, 171]",171,l,0.43215733660326805,colour,0.5
142,22,0,2,2,14,64,101.02518051912193,101.67179466779635,"[17, 0, 237]",237,a,0.12330045772250742,colour,0.5
142,22,0,2,2,15,65,102.18152659284533,102.75179140675755,"[0, 0, 254]",254,a,0.0469645137200132,colour,0.5
142,22,0,2,2,16,66,103.26163557780092,104.82376905523415,"[44, 0, 210]",210,a,1.0388993433007272,colour,0.5
142,22,0,2,2,17,67,105.33972767938394,106.45580540245282,"[76, 0, 178]",178,l,0.5928829735057661,colour,0.5
142,22,0,2,2,18,68,106.96464329796436,108.04778962026467,"[47, 0, 207]",207,a,0.5598830436065327,colour,0.5
142,22,0,2,2,19,69,108.55826709505345,109.58377568758442,"[5, 0, 249]",249,a,0.501984981878195,colour,0.5
142,22,0,2,2,20,70,110.09296489338158,111.24776157845918,"[6, 0, 248]",248,a,0.6315826370700961,colour,0.5
142,22,0,2,2,21,71,111.7648966194538,112.69589092997194,"[36, 0, 218]",218,a,0.408577406022232,colour,0.5
142,22,0,2,2,22,72,113.20234842260834,114.33574668795336,"[51, 0, 203]",203,a,0.6100392821681453,colour,0.5
142,22,0,2,2,23,73,114.84297336106829,115.45575735329476,"[75, 0, 179]",179,l,0.08938089833827689,colour,0.5
142,22,0,2,2,24,74,115.9679551457084,117.2397716325504,"[66, 0, 188]",188,l,0.7484200883336598,colour,0.5
142,22,0,2,2,25,75,117.74921014261781,118.38377261559071,"[82, 0, 172]",172,l,0.11121530515083577,colour,0.5
142,22,0,2,2,26,76,118.8898232657084,119.439779036853,"[97, 0, 157]",157,l,0.026781107706483454,colour,0.5
142,22,0,2,2,27,77,119.95229151191597,120.6157508312026,"[11, 0, 243]",243,a,0.1400841884315014,colour,0.5
142,22,0,2,2,28,78,121.12418030881963,122.54378027195344,"[1, 0, 253]",253,a,0.8972504062548978,colour,0.5
142,22,0,2,2,29,79,123.06168055496528,123.73580127494643,"[53, 0, 201]",201,a,0.15062704159936402,colour,0.5
142,22,0,2,2,30,80,124.24914752117184,124.87970419043268,"[16, 0, 238]",238,a,0.10717405534524005,colour,0.5
142,22,0,2,2,31,81,125.38976930886565,126.97573477805417,"[19, 0, 235]",235,a,1.0630550761561608,colour,0.5
142,22,0,2,2,32,82,127.48353134577337,128.66378542345774,"[78, 0, 176]",176,l,0.6569364482857054,colour,0.5
142,22,0,2,2,33,83,129.17159420037933,129.74371363327373,"[27, 0, 227]",227,a,0.04877462814329192,colour,0.5
142,22,0,2,2,34,84,130.26537474803627,131.01573373829888,"[92, 0, 162]",162,l,0.22742536033911165,colour,0.5
142,22,0,2,2,35,85,131.53104881873878,132.58372763842635,"[73, 0, 181]",181,l,0.5294273563631577,colour,0.5
142,22,0,2,2,36,86,133.0934418404213,134.13571013907494,"[68, 0, 186]",186,l,0.5188711124501424,colour,0.5
142,22,0,2,2,37,87,134.656126307862,135.5997520348028,"[7, 0, 247]",247,a,0.42052313724707346,colour,0.5
142,22,0,2,2,38,88,136.10909562806773,136.78373583040957,"[54, 0, 200]",200,a,0.16370350356737617,colour,0.5
142,22,0,2,2,39,89,137.2998023682594,137.96774640753574,"[33, 0, 221]",221,a,0.14456575765507296,colour,0.5
142,22,0,2,2,40,90,138.4873630697257,139.87972506425285,"[52, 0, 202]",202,a,0.8690896573825739,colour,0.5
142,22,0,2,2,41,91,140.3936352973833,141.15173689852236,"[57, 0, 197]",197,a,0.23478121482185088,colour,0.5
142,22,0,2,2,42,92,141.65923611279868,142.51171296846587,"[39, 0, 215]",215,a,0.32914071551931556,colour,0.5
142,22,0,2,2,43,93,143.01857021439355,144.11172100291878,"[9, 0, 245]",245,a,0.5816430136183044,colour,0.5
142,22,0,2,2,44,94,144.61829743692942,145.83170465043804,"[40, 0, 214]",214,a,0.6901301502221031,colour,0.5
142,22,0,2,2,45,95,146.35323146384326,147.15172626469575,"[80, 0, 174]",174,l,0.27518583605706226,colour,0.5
142,22,0,2,2,46,96,147.6602010345523,148.83176963496953,"[65, 0, 189]",189,l,0.6483037463331129,colour,0.5
142,22,0,2,2,47,97,149.34778457904758,150.4317560079071,"[88, 0, 166]",166,l,0.5607345378084574,colour,0.5
142,22,0,2,2,48,98,150.94143121919478,152.06371397986368,"[89, 0, 165]",165,l,0.598835556069389,colour,0.5
142,22,0,2,2,49,99,152.58212586832815,153.59176090735127,"[50, 0, 204]",204,a,0.486338677292224,colour,0.5
142,22,0,2,2,50,100,154.09840271972644,155.03172702087613,"[81, 0, 173]",173,l,0.409937354925205,colour,0.5
142,22,0,2,3,1,101,169.30218670959584,170.75968328511226,"[18, 0, 236]",236,a,0.9333711687795585,colour,0.5
142,22,0,2,3,2,102,171.27180112685892,172.0877243836876,"[47, 0, 207]",207,a,0.29274229185830336,colour,0.5
142,22,0,2,3,3,103,172.5998327731504,173.74368251947453,"[32, 0, 222]",222,a,0.620584498392418,colour,0.5
142,22,0,2,3,4,104,174.25611465002294,175.2877030372474,"[77, 0, 177]",177,l,0.508320776221808,colour,0.5
142,22,0,2,3,5,105,175.80301142230746,176.8716492599924,"[62, 0, 192]",192,a,0.5453690451540751,colour,0.5
142,22,0,2,3,6,106,177.3810535054945,178.4717183405155,"[0, 0, 254]",254,a,0.5673464179271832,colour,0.5
142,22,0,2,3,7,107,178.9910356800392,179.8956844760978,"[78, 0, 176]",176,l,0.38144026188820135,colour,0.5
142,22,0,2,3,8,108,180.4136469867226,181.351682075212,"[7, 0, 247]",247,a,0.41470131142705213,colour,0.5
142,22,0,2,3,9,109,181.86677620824776,182.44773826281016,"[97, 0, 157]",157,l,0.05843329791969154,colour,0.5
142,22,0,2,3,10,110,182.96057093434501,183.72770144611422,"[11, 0, 243]",243,a,0.24386171922378708,colour,0.5
142,22,0,2,3,11,111,184.24178378978104,184.9676731522486,"[80, 0, 174]",174,l,0.2025406192697119,colour,0.5
142,22,0,2,3,12,112,185.47619439588743,186.0397020006494,"[99, 0, 155]",155,l,0.04017619077058043,colour,0.5
142,22,0,2,3,13,113,186.55429791899223,187.1356463360862,"[15, 0, 239]",239,a,0.058397851811605506,colour,0.5
142,22,0,2,3,14,114,187.64823521720245,188.19168505269045,"[88, 0, 166]",166,l,0.020440981053980067,colour,0.5
142,22,0,2,3,15,115,188.710515599043,189.3036939567537,"[8, 0, 246]",246,a,0.07903536182129756,colour,0.5
142,22,0,2,3,16,116,189.81063272872416,190.3356537403888,"[20, 0, 234]",234,a,0.0016573023312957957,colour,0.5
142,22,0,2,3,17,117,190.85753737791674,192.30366363063513,"[12, 0, 242]",242,a,0.9230421737738652,colour,0.5
142,22,0,2,3,18,118,192.81061421797494,194.06367538298946,"[42, 0, 212]",212,a,0.7296663418819662,colour,0.5
142,22,0,2,3,19,119,194.5669978645601,195.7196386387659,"[2, 0, 252]",252,a,0.6292802156385733,colour,0.5
142,22,0,2,3,20,120,196.2389083229791,196.81566568178823,"[5, 0, 249]",249,a,0.053439729410456493,colour,0.5
142,22,0,2,3,21,121,197.33568446034042,203.18363563608727,"[31, 0, 223]",223,a,5.324946259759599,colour,0.5
142,22,0,2,3,22,122,203.69507054955466,204.23168204371177,"[49, 0, 205]",205,a,0.01337814771977719,colour,0.5
142,22,0,2,3,23,123,204.74192281728028,205.31164530578826,"[53, 0, 201]",201,a,0.0464509390440071,colour,0.5
142,22,0,2,3,24,124,205.8200598172698,206.4556009965745,"[89, 0, 165]",165,l,0.1122286699101096,colour,0.5
142,22,0,2,3,25,125,206.9763271218544,207.63162477855803,"[65, 0, 189]",189,a,0.13197490731545258,colour,0.5
142,22,0,2,3,26,126,208.1482234018331,209.75966989435256,"[70, 0, 184]",184,l,1.0882403214345686,colour,0.5
142,22,0,2,3,27,127,210.27327607867483,211.03963465304696,"[30, 0, 224]",224,a,0.25554869387997314,colour,0.5
142,22,0,2,3,28,128,211.55782362489845,212.27965125758783,"[95, 0, 159]",159,l,0.19879947981098667,colour,0.5
142,22,0,2,3,29,129,212.79201997899509,213.87160042313917,"[75, 0, 179]",179,l,0.5563392207986908,colour,0.5
142,22,0,2,3,30,130,214.37766958400607,215.43963134475052,"[82, 0, 172]",172,l,0.5385708760586567,colour,0.5
142,22,0,2,3,31,131,215.95588417157705,216.7516925515083,"[54, 0, 200]",200,a,0.2726549841609085,colour,0.5
142,22,0,2,3,32,132,217.26827857171884,217.80763713900524,"[19, 0, 235]",235,a,0.016007067169994116,colour,0.5
142,22,0,2,3,33,133,218.3151647101622,222.14363116200548,"[56, 0, 198]",198,a,3.3050472102768254,colour,0.5
142,22,0,2,3,34,134,222.65891946092597,223.7756186723709,"[83, 0, 171]",171,l,0.5934024558664532,colour,0.5
142,22,0,2,3,35,135,224.28387800867495,225.24763751709543,"[9, 0, 245]",245,a,0.4404040698427707,colour,0.5
142,22,0,2,3,36,136,225.7684963683423,226.76761297263147,"[57, 0, 197]",197,a,0.47579464259615634,colour,0.5
142,22,0,2,3,37,137,227.284096199146,228.1836143684195,"[4, 0, 250]",250,a,0.37617021377081983,colour,0.5
142,22,0,2,3,38,138,228.69033298071008,229.35964681500627,"[98, 0, 156]",156,l,0.14441412709129509,colour,0.5
142,22,0,2,3,39,139,229.87943361849466,230.66356802068185,"[22, 0, 232]",232,a,0.2608636404183926,colour,0.5
142,22,0,2,3,40,140,231.17632468001102,232.0316187133285,"[86, 0, 168]",168,l,0.3318385579623282,colour,0.5
142,22,0,2,3,41,141,232.55129681543622,233.39961347990902,"[87, 0, 167]",167,l,0.3249935212370474,colour,0.5
142,22,0,2,3,42,142,233.9106699077529,235.9356286918046,"[26, 0, 228]",228,a,1.5016281577554764,colour,0.5
142,22,0,2,3,43,143,236.44194321848045,237.77559149701847,"[38, 0, 216]",216,a,0.8103389198950026,colour,0.5
142,22,0,2,3,44,144,238.28563140933693,238.99159297157894,"[74, 0, 180]",180,l,0.18263920670142397,colour,0.5
142,22,0,2,3,45,145,239.5044630584598,240.51164010702632,"[68, 0, 186]",186,l,0.4839693021058338,colour,0.5
142,22,0,2,3,46,146,241.02008021846996,243.1995517249161,"[45, 0, 209]",209,a,1.6562389477039687,colour,0.5
142,22,0,2,3,47,147,243.70747747398855,244.27957642691035,"[48, 0, 206]",206,a,0.0489380740764318,colour,0.5
142,22,0,2,3,48,148,244.8012060340261,245.52758337120758,"[73, 0, 181]",181,l,0.20299590479407925,colour,0.5
142,22,0,2,3,49,149,246.03561152012844,246.7275911693432,"[21, 0, 233]",233,a,0.16864981059916317,colour,0.5
142,22,0,2,3,50,150,247.23882994770247,250.34357948946126,"[64, 0, 190]",190,l,2.5815752721682657,colour,0.5
142,22,0,2,4,1,151,255.81150864135998,258.6395595860813,"[7, 0, 247]",247,a,2.3038479503884446,colour,0.5
142,22,0,2,4,2,152,259.1560459633474,259.6875740921969,"[56, 0, 198]",198,a,0.00862206811143551,colour,0.5
142,22,0,2,4,3,153,260.204573650306,260.8395276058145,"[60, 0, 194]",194,a,0.11204553169955034,colour,0.5
142,22,0,2,4,4,154,261.34838204283733,261.9675664200913,"[37, 0, 217]",217,a,0.09587620015372522,colour,0.5
142,22,0,2,4,5,155,262.48904242740537,263.2315544377343,"[66, 0, 188]",188,l,0.21928142081014812,colour,0.5
142,22,0,2,4,6,156,263.73907728274935,264.2795480700297,"[48, 0, 206]",206,a,0.01721577934222296,colour,0.5
142,22,0,2,4,7,157,264.7745659230568,265.33553479901457,"[85, 0, 169]",169,l,0.03776112949708477,colour,0.5
142,22,0,2,4,8,158,265.8526911076624,266.3835323697713,"[30, 0, 224]",224,a,0.007514574259403162,colour,0.5
142,22,0,2,4,9,159,266.89957251996384,267.9115111619758,"[92, 0, 162]",162,l,0.4886363725963747,colour,0.5
142,22,0,2,4,10,160,268.43080171999463,270.7595749775646,"[59, 0, 195]",195,a,1.8057734615867957,colour,0.5
142,22,0,2,4,11,161,271.27460885222536,272.08753612548753,"[63, 0, 191]",191,l,0.2894221733586164,colour,0.5
142,22,0,2,4,12,162,272.5968533310952,273.32755312386143,"[3, 0, 251]",251,a,0.20736877260787878,colour,0.5
142,22,0,2,4,13,163,273.84677790966816,275.3995437692356,"[73, 0, 181]",181,l,1.0292796642461326,colour,0.5
142,22,0,2,4,14,164,275.90931862345315,276.5195497084351,"[27, 0, 227]",227,a,0.08685949874052312,colour,0.5
142,22,0,2,4,15,165,277.034374057228,277.6955727027089,"[75, 0, 179]",179,l,0.13793891138629988,colour,0.5
142,22,0,2,4,16,166,278.2062266203284,278.90355587447993,"[78, 0, 176]",176,l,0.174144350719871,colour,0.5
142,22,0,2,4,17,167,279.4092788450507,280.07154402445303,"[33, 0, 221]",221,a,0.13890895314398222,colour,0.5
142,22,0,2,4,18,168,280.58128028179635,282.1435393959691,"[62, 0, 192]",192,a,1.0390257677354384,colour,0.5
142,22,0,2,4,19,169,282.6593010973302,283.38351385902206,"[72, 0, 182]",182,l,0.2008518092770828,colour,0.5
142,22,0,2,4,20,170,283.89756351349934,284.43151576208766,"[83, 0, 171]",171,l,0.009028516782564111,colour,0.5
142,22,0,2,4,21,171,284.9460293666925,285.56752443614823,"[35, 0, 219]",219,a,0.09826841838366818,colour,0.5
142,22,0,2,4,22,172,286.0873069073423,286.99953841294337,"[97, 0, 157]",157,l,0.38958971528336406,colour,0.5
142,22,0,2,4,23,173,287.5084692560049,288.03952989011304,"[95, 0, 159]",159,l,0.0076473002263810486,colour,0.5
142,22,0,2,4,24,174,288.5553069514426,289.15953110315604,"[29, 0, 225]",225,a,0.09278766285569873,colour,0.5
142,22,0,2,4,25,175,289.6683315833361,290.3275239792856,"[88, 0, 166]",166,l,0.13597047103394289,colour,0.5
142,22,0,2,4,26,176,290.8401817833801,291.9915000240144,"[94, 0, 160]",160,l,0.6281648448639316,colour,0.5
142,22,0,2,4,27,177,292.512149743241,295.65551151485124,"[4, 0, 250]",250,a,2.620062652960769,colour,0.5
142,22,0,2,4,28,178,296.16831937411916,299.0075193004013,"[86, 0, 168]",168,l,2.3136484045680845,colour,0.5
142,22,0,2,4,29,179,299.51425406034105,300.91951371093455,"[54, 0, 200]",200,a,0.8819758919125888,colour,0.5
142,22,0,2,4,30,180,301.4388566504349,302.40755970895407,"[18, 0, 236]",236,a,0.44542205677134916,colour,0.5
142,22,0,2,4,31,181,302.9232670596102,303.463491693401,"[16, 0, 238]",238,a,0.01712007487367373,colour,0.5
142,22,0,2,4,32,182,303.9706376281538,304.9115710265032,"[43, 0, 211]",211,a,0.4181793620227836,colour,0.5
142,22,0,2,4,33,183,305.423218222757,306.7195354512223,"[57, 0, 197]",197,a,0.7733174324821448,colour,0.5
142,22,0,2,4,34,184,307.23569926893106,307.79948886715283,"[52, 0, 202]",202,a,0.04054325487231836,colour,0.5
142,22,0,2,4,35,185,308.30581284614163,309.1035160173051,"[26, 0, 228]",228,a,0.2744627355132252,colour,0.5
142,22,0,2,4,36,186,309.6182422985439,311.5275325651164,"[22, 0, 232]",232,a,1.3858714188536396,colour,0.5
142,22,0,2,4,37,187,312.04019667074317,313.2154863244941,"[39, 0, 215]",215,a,0.6521984855935443,colour,0.5
142,22,0,2,4,38,188,313.7276652123255,314.8715637955029,"[9, 0, 245]",245,a,0.6205218769464409,colour,0.5
142,22,0,2,4,39,189,315.3714476110472,316.0794701673731,"[79, 0, 175]",175,l,0.18467026851431,colour,0.5
142,22,0,2,4,40,190,316.57977579155704,317.11148351400334,"[41, 0, 213]",213,a,0.008459409873466939,colour,0.5
142,22,0,2,4,41,191,317.6265004533052,318.1917484618316,"[87, 0, 167]",167,l,0.041859093063976616,colour,0.5
142,22,0,2,4,42,192,318.7046370594471,319.83948507049354,"[23, 0, 231]",231,a,0.6114520063711097,colour,0.5
142,22,0,2,4,43,193,320.3472611582256,321.3115137613495,"[13, 0, 241]",241,a,0.4409192198945675,colour,0.5
142,22,0,2,4,44,194,321.8315770444606,322.43952500642627,"[40, 0, 214]",214,a,0.084458222030662,colour,0.5
142,22,0,2,4,45,195,322.95666556127253,324.92747569381027,"[46, 0, 208]",208,a,1.448004896286875,colour,0.5
142,22,0,2,4,46,196,325.44103973665915,326.47949364056694,"[51, 0, 203]",203,a,0.5153103542834288,colour,0.5
142,22,0,2,4,47,197,326.9753456585895,327.72748246796255,"[68, 0, 186]",186,l,0.22883532763808034,colour,0.5
142,22,0,2,4,48,198,328.2410205169872,331.08748216863023,"[34, 0, 220]",220,a,2.323307074329932,colour,0.5
142,22,0,2,4,49,199,331.60040503082564,333.11943053074356,"[49, 0, 205]",205,a,0.9956397352361819,colour,0.5
142,22,0,2,4,50,200,333.6315924832161,334.5194729085342,"[28, 0, 226]",226,a,0.36462699275580235,colour,0.5
142,22,0,2,5,1,201,339.71074993717775,341.07942172435287,"[93, 0, 161]",161,l,0.8445857649930986,colour,0.5
142,22,0,2,5,2,202,341.58658892678795,342.12748112887493,"[80, 0, 174]",174,l,0.01763640645367559,colour,0.5
142,22,0,2,5,3,203,342.64909340678423,343.2474429573631,"[59, 0, 195]",195,a,0.07506894267862663,colour,0.5
142,22,0,2,5,4,204,343.7584647267795,344.3034950647125,"[17, 0, 237]",237,a,0.021767059224657714,colour,0.5
142,22,0,2,5,5,205,344.820845145412,345.3514445863111,"[96, 0, 158]",158,l,0.007364912919001654,colour,0.5
142,22,0,2,5,6,206,345.86770647158846,346.5994814628648,"[78, 0, 176]",176,l,0.20668741970439442,colour,0.5
142,22,0,2,5,7,207,347.1203324372036,347.6794147926703,"[1, 0, 253]",253,a,0.03596716272295453,colour,0.5
142,22,0,2,5,8,208,348.1983331665979,349.9274552138377,"[39, 0, 215]",215,a,1.2060773528501159,colour,0.5
142,22,0,2,5,9,209,350.4482920097362,351.031453298172,"[3, 0, 251]",251,a,0.05956914865237195,colour,0.5
142,22,0,2,5,10,210,351.54198827441724,353.77542096187244,"[2, 0, 252]",252,a,1.7100697658024728,colour,0.5
142,22,0,2,5,11,211,354.29206842200074,355.1274208704999,"[66, 0, 188]",188,l,0.31209980363200884,colour,0.5
142,22,0,2,5,12,212,355.63575582516205,356.3834709298535,"[63, 0, 191]",191,l,0.22430216465727426,colour,0.5
142,22,0,2,5,13,213,356.9014216251089,357.45541273837443,"[33, 0, 221]",221,a,0.03071089919831138,colour,0.5
142,22,0,2,5,14,214,357.9639241358818,358.5594013704249,"[42, 0, 212]",212,a,0.07202963609597646,colour,0.5
142,22,0,2,5,15,215,359.07518197635363,360.43941945581173,"[5, 0, 249]",249,a,0.8408611670602113,colour,0.5
142,22,0,2,5,16,216,360.95038529914746,361.53546934186306,"[74, 0, 180]",180,l,0.07145462150219828,colour,0.5
142,22,0,2,5,17,217,362.05021137693257,362.78341917853686,"[8, 0, 246]",246,a,0.20993507061211858,colour,0.5
142,22,0,2,5,18,218,363.30018321696843,363.919428246445,"[82, 0, 172]",172,l,0.09589077244163491,colour,0.5
142,22,0,2,5,19,219,364.4408313923195,365.11143073870335,"[73, 0, 181]",181,l,0.14745264597877394,colour,0.5
142,22,0,2,5,20,220,365.6283278969495,366.199413485112,"[26, 0, 228]",228,a,0.048515871589188464,colour,0.5
142,22,0,2,5,21,221,366.70637667551637,368.20743178790144,"[57, 0, 197]",197,a,0.9778280674800044,colour,0.5
142,22,0,2,5,22,222,368.72206354619993,369.8954087841703,"[30, 0, 224]",224,a,0.6500417870265665,colour,0.5
142,22,0,2,5,23,223,370.4095072755008,371.67951207254373,"[50, 0, 204]",204,a,0.7467935059539741,colour,0.5
142,22,0,2,5,24,224,372.19082883233204,373.2154319738038,"[43, 0, 211]",211,a,0.5014997640973888,colour,0.5
142,22,0,2,5,25,225,373.7220206170168,374.6794175496034,"[45, 0, 209]",209,a,0.4340359801717568,colour,0.5
142,22,0,2,5,26,226,375.19080835235945,375.823405141884,"[68, 0, 186]",186,l,0.10947805216710549,colour,0.5
142,22,0,2,5,27,227,376.33142541391135,376.8638700214942,"[24, 0, 230]",230,a,0.0092088980745757,colour,0.5
142,22,0,2,5,28,228,377.3786506534234,377.9273776262562,"[53, 0, 201]",201,a,0.025296309744589962,colour,0.5
142,22,0,2,5,29,229,378.4418750831974,379.00741768823355,"[89, 0, 165]",165,l,0.04218952954397537,colour,0.5
142,22,0,2,5,30,230,379.5118098544772,381.399453184742,"[6, 0, 248]",248,a,1.364365873116185,colour,0.5
142,22,0,2,5,31,231,381.91803245760093,382.57543206831906,"[9, 0, 245]",245,a,0.13403787062270567,colour,0.5
142,22,0,2,5,32,232,383.08984248538036,383.7193814575876,"[98, 0, 156]",156,l,0.10640251179574989,colour,0.5
142,22,0,2,5,33,233,384.23041858698707,384.7674199882895,"[41, 0, 213]",213,a,0.013660141165019013,colour,0.5
142,22,0,2,5,34,234,385.27924874736345,385.8314242323686,"[77, 0, 177]",177,l,0.028914963215356693,colour,0.5
142,22,0,2,5,35,235,386.3416933628323,386.9273921985441,"[7, 0, 247]",247,a,0.06235915096476674,colour,0.5
142,22,0,2,5,36,236,387.4354825750779,387.9914125902869,"[69, 0, 185]",185,l,0.03204327890125569,colour,0.5
142,22,0,2,5,37,237,388.4998046525725,391.27942519019416,"[86, 0, 168]",168,a,2.256340717402054,colour,0.5
142,22,0,2,5,38,238,391.7985881422501,392.527492786714,"[40, 0, 214]",214,a,0.20559095352655277,colour,0.5
142,22,0,2,5,39,239,393.04852138541173,393.58336096815765,"[90, 0, 164]",164,l,0.01155976252630353,colour,0.5
142,22,0,2,5,40,240,394.095402010018,394.9353762367682,"[10, 0, 244]",244,a,0.31647779143531807,colour,0.5
142,22,0,2,5,41,241,395.4548034592153,397.4953719202167,"[25, 0, 229]",229,a,1.5172693423519377,colour,0.5
142,22,0,2,5,42,242,398.0016604530829,399.3113916692091,"[91, 0, 163]",163,l,0.786421069788048,colour,0.5
142,22,0,2,5,43,243,399.8297767761833,400.41535076283617,"[79, 0, 175]",175,l,0.062289834138937294,colour,0.5
142,22,0,2,5,44,244,400.92349706545065,401.44784538881504,"[87, 0, 167]",167,l,0.0012547921214718372,colour,0.5
142,22,0,2,5,45,245,401.95800503018836,402.64740065834485,"[60, 0, 194]",194,a,0.1661827616917435,colour,0.5
142,22,0,2,5,46,246,403.1610643441236,403.79136107528757,"[37, 0, 217]",217,a,0.10692750799353234,colour,0.5
142,22,0,2,5,47,247,404.3017881378328,404.88735385373,"[32, 0, 222]",222,a,0.06130915855464991,colour,0.5
142,22,0,2,5,48,248,405.39640757664165,406.4393465943722,"[15, 0, 239]",239,a,0.5196666805859422,colour,0.5
142,22,0,2,5,49,249,406.94979413689,407.6633659778745,"[76, 0, 178]",178,l,0.19022427931486163,colour,0.5
142,22,0,2,5,50,250,408.18417993072944,409.2713474167249,"[47, 0, 207]",207,a,0.5763170394202461,colour,0.5
142,22,0,2,6,1,251,414.8637778616103,417.063405204899,"[84, 0, 170]",170,l,1.6764963966998039,colour,0.5
142,22,0,2,6,2,252,417.5833420635754,418.72734028969717,"[4, 0, 250]",250,a,0.6207026520860381,colour,0.5
142,22,0,2,6,3,253,419.2395254790463,420.56735823329655,"[65, 0, 189]",189,l,0.8045675063185627,colour,0.5
142,22,0,2,6,4,254,421.0777021944232,421.9033211424976,"[88, 0, 166]",166,l,0.31139993997931015,colour,0.5
142,22,0,2,6,5,255,422.4123784100084,423.9993552747328,"[41, 0, 213]",213,a,1.06363599843462,colour,0.5
142,22,0,2,6,6,256,424.5061455669056,425.18329338425247,"[55, 0, 199]",199,a,0.15391132014337927,colour,0.5
142,22,0,2,6,7,257,425.6936121392646,427.5273880237801,"[13, 0, 241]",241,a,1.3104736150999088,colour,0.5
142,22,0,2,6,8,258,428.037405486888,428.9113162083959,"[98, 0, 156]",156,l,0.3505521321640117,colour,0.5
142,22,0,2,6,9,259,429.42806921915326,430.0153103542689,"[59, 0, 195]",195,a,0.0639920348621672,colour,0.5
142,22,0,2,6,10,260,430.52239878757973,431.12729759683134,"[60, 0, 194]",194,a,0.08192579475871753,colour,0.5
142,22,0,2,6,11,261,431.647363636861,434.3193335659598,"[72, 0, 182]",182,l,2.1485703798243776,colour,0.5
142,22,0,2,6,12,262,434.8373618487967,435.5833117374568,"[22, 0, 232]",232,a,0.22268897302274127,colour,0.5
142,22,0,2,6,13,263,436.1048192524322,436.64730849847547,"[34, 0, 220]",220,a,0.0192196658172179,colour,0.5
142,22,0,2,6,14,264,437.1673292462656,438.9113138453249,"[28, 0, 226]",226,a,1.2207095049961936,colour,0.5
142,22,0,2,6,15,265,439.4329674770124,440.06331304502964,"[83, 0, 171]",171,l,0.10699918789032381,colour,0.5
142,22,0,2,6,16,266,440.5747133000841,441.751315247413,"[9, 0, 245]",245,a,0.6523552361468319,colour,0.5
142,22,0,2,6,17,267,442.2630967450241,442.97528736943786,"[37, 0, 217]",217,a,0.18873081676429138,colour,0.5
142,22,0,2,6,18,268,443.4694111929275,444.16728552940185,"[77, 0, 177]",177,l,0.17461342085152864,colour,0.5
142,22,0,2,6,19,269,444.6882180297689,445.35929156625934,"[51, 0, 203]",203,a,0.1478602761781076,colour,0.5
142,22,0,2,6,20,270,445.87580314965453,446.46334321360337,"[57, 0, 197]",197,a,0.06430356674536597,colour,0.5
142,22,0,2,6,21,271,446.98498384837876,447.5512873631378,"[91, 0, 163]",163,l,0.042989036126527935,colour,0.5
142,22,0,2,6,22,272,448.06312242374406,448.75135817658156,"[56, 0, 198]",198,a,0.16482517587428447,colour,0.5
142,22,0,2,6,23,273,449.2662616883463,450.0073211960553,"[40, 0, 214]",214,a,0.21771194603934418,colour,0.5
142,22,0,2,6,24,274,450.51620202073536,451.1992752452934,"[71, 0, 183]",183,l,0.1597390536480816,colour,0.5
142,22,0,2,6,25,275,451.71932907612063,452.3833192992897,"[30, 0, 224]",224,a,0.1406131230905885,colour,0.5
142,22,0,2,6,26,276,452.89125134989445,453.4313231715787,"[49, 0, 205]",205,a,0.016844776779180393,colour,0.5
142,22,0,2,6,27,277,453.9380973160878,455.5352535144775,"[21, 0, 233]",233,a,1.0737708275410114,colour,0.5
142,22,0,2,6,28,278,456.0475170791033,456.6153176010266,"[53, 0, 201]",201,a,0.04444350795529317,colour,0.5
142,22,0,2,6,29,279,457.12569582673314,458.7832907848788,"[7, 0, 247]",247,a,1.134343888668809,colour,0.5
142,22,0,2,6,30,280,459.29751845756255,459.9433141950576,"[70, 0, 184]",184,l,0.12251197881414555,colour,0.5
142,22,0,2,6,31,281,460.45373456222296,461.1272905076039,"[43, 0, 211]",211,a,0.15022886368387844,colour,0.5
142,22,0,2,6,32,282,461.6296776058589,462.7353440201987,"[66, 0, 188]",188,l,0.5824236156186089,colour,0.5
142,22,0,2,6,33,283,463.2545983444288,463.791298059994,"[17, 0, 237]",237,a,0.013360030818148516,colour,0.5
142,22,0,2,6,34,284,464.30462815854116,465.38325116400665,"[6, 0, 248]",248,a,0.555311677599093,colour,0.5
142,22,0,2,6,35,285,465.8983894077537,466.59132925256563,"[2, 0, 252]",252,a,0.16960764312534593,colour,0.5
142,22,0,2,6,36,286,467.10150386007444,467.7112969887239,"[64, 0, 190]",190,l,0.08650306845083833,colour,0.5
142,22,0,2,6,37,287,468.2265049431444,468.8233094374009,"[48, 0, 206]",206,a,0.07356681551027577,colour,0.5
142,22,0,2,6,38,288,469.3376532945549,469.935254932323,"[86, 0, 168]",168,l,0.07419421157101169,colour,0.5
142,22,0,2,6,39,289,470.4498992936715,471.2873021024134,"[45, 0, 209]",209,a,0.3141068408585852,colour,0.5
142,22,0,2,6,40,290,471.79355282611505,472.4072426632338,"[42, 0, 212]",212,a,0.09035645390395075,colour,0.5
142,22,0,2,6,41,291,472.91866142903746,473.68735235712666,"[81, 0, 173]",173,l,0.2455513169115875,colour,0.5
142,22,0,2,6,42,292,474.1997880322888,474.75929101488146,"[18, 0, 236]",236,a,0.03700415822095238,colour,0.5
142,22,0,2,6,43,293,475.27863749898097,476.93528919688833,"[35, 0, 219]",219,a,1.134030387547682,colour,0.5
142,22,0,2,6,44,294,477.44973072774883,479.44729046034627,"[61, 0, 193]",193,a,1.4742405278229853,colour,0.5
142,22,0,2,6,45,295,479.9653971184598,483.0392660135549,"[95, 0, 159]",159,l,2.550625702511752,colour,0.5
142,22,0,2,6,46,296,483.55912174003606,484.8712648666842,"[76, 0, 178]",178,l,0.7981194659805624,colour,0.5
142,22,0,2,6,47,297,485.37900865908887,486.1752443614969,"[0, 0, 254]",254,a,0.27288065767788794,colour,0.5
142,22,0,2,6,48,298,486.691537754421,487.2553242018912,"[10, 0, 244]",244,a,0.04045936577313114,colour,0.5
142,22,0,2,6,49,299,487.7696960220783,488.4072548724507,"[39, 0, 215]",215,a,0.11430226704396773,colour,0.5
142,22,0,2,6,50,300,488.92588376985805,489.6712838500389,"[89, 0, 165]",165,l,0.22201549704186618,colour,0.5
142,22,0,2,7,1,301,495.0189010447066,500.4632853182993,"[79, 0, 175]",175,l,4.920380958981696,colour,0.5
142,22,0,2,7,2,302,500.9727171329869,501.6472214585956,"[80, 0, 174]",174,l,0.15131233296415303,colour,0.5
142,22,0,2,7,3,303,502.16029949595395,502.75921697189915,"[96, 0, 158]",158,l,0.07554510200861841,colour,0.5
142,22,0,2,7,4,304,503.26960622527986,503.9352754122956,"[69, 0, 185]",185,a,0.14232438227918465,colour,0.5
142,22,0,2,7,5,305,504.44154976672144,506.74328000925016,"[7, 0, 247]",247,a,1.7784811422752682,colour,0.5
142,22,0,2,7,6,306,507.25399812370597,507.8871974970243,"[38, 0, 216]",216,a,0.10973877795913722,colour,0.5
142,22,0,2,7,7,307,508.3945777699264,509.1912435517588,"[78, 0, 176]",176,l,0.2732748971466208,colour,0.5
142,22,0,2,7,8,308,509.70704345613194,510.48727130368934,"[98, 0, 156]",156,l,0.25706893794995267,colour,0.5
142,22,0,2,7,9,309,511.00392624689266,511.71123003496905,"[74, 0, 180]",180,l,0.18390384495432954,colour,0.5
142,22,0,2,7,10,310,512.2226468315494,515.1512059946399,"[67, 0, 187]",187,a,2.4058768066752236,colour,0.5
142,22,0,2,7,11,311,515.6601762222708,517.3192059599824,"[86, 0, 168]",168,l,1.1361902368807932,colour,0.5
142,22,0,2,7,12,312,517.8320547791955,518.527222214776,"[34, 0, 220]",220,a,0.1719368460617261,colour,0.5
142,22,0,2,7,13,313,519.0370147920476,519.8552073872706,"[94, 0, 160]",160,l,0.29493364882364403,colour,0.5
142,22,0,2,7,14,314,520.3650948813447,520.9992150656908,"[89, 0, 165]",165,l,0.11079585958214011,colour,0.5
142,22,0,2,7,15,315,521.5057430566958,522.0952070564526,"[16, 0, 238]",238,a,0.06620505335740745,colour,0.5
142,22,0,2,7,16,316,522.6151049244072,525.4552307817066,"[64, 0, 190]",190,a,2.3167495449160924,colour,0.5
142,22,0,2,7,17,317,525.9745000720723,527.8312682695105,"[87, 0, 167]",167,l,1.3337045984662836,colour,0.5
142,22,0,2,7,18,318,528.3494596044329,531.4631781922944,"[3, 0, 251]",251,a,2.590408047690289,colour,0.5
142,22,0,2,7,19,319,531.962076212265,532.7272063821874,"[58, 0, 196]",196,a,0.24172510679636616,colour,0.5
142,22,0,2,7,20,320,533.2433662614494,534.6152025981137,"[15, 0, 239]",239,a,0.8492331432062201,colour,0.5
142,22,0,2,7,21,321,535.1339378338307,536.935182464731,"[39, 0, 215]",215,a,1.2782684656558558,colour,0.5
142,22,0,2,7,22,322,537.4464755937806,538.1832027997589,"[73, 0, 181]",181,a,0.21346550266025588,colour,0.5
142,22,0,2,7,23,323,538.6963737846818,539.4151865292079,"[30, 0, 224]",224,a,0.1954064998717513,colour,0.5
142,22,0,2,7,24,324,539.9308442553156,543.8952209198178,"[25, 0, 229]",229,a,3.4411318965430837,colour,0.5
142,22,0,2,7,25,325,544.4028335616313,544.9832899184112,"[9, 0, 245]",245,a,0.057124942788504995,colour,0.5
142,22,0,2,7,26,326,545.496543217072,551.1912400071451,"[31, 0, 223]",223,a,5.171683997192304,colour,0.5
142,22,0,2,7,27,327,551.6996344325016,552.2391655041574,"[26, 0, 228]",228,a,0.016230377630563453,colour,0.5
142,22,0,2,7,28,328,552.7464839433087,555.1751829215937,"[37, 0, 217]",217,a,1.9052931274782168,colour,0.5
142,22,0,2,7,29,329,555.684014909406,557.2871331426577,"[5, 0, 249]",249,a,1.0801747571822489,colour,0.5
142,22,0,2,7,30,330,557.7933830786496,558.9592086223711,"[32, 0, 222]",222,a,0.642551237338921,colour,0.5
142,22,0,2,7,31,331,559.4808496510086,560.047139775008,"[99, 0, 155]",155,l,0.042926020818413235,colour,0.5
142,22,0,2,7,32,332,560.5589307249174,561.7831667235005,"[90, 0, 164]",164,l,0.7135320625675377,colour,0.5
142,22,0,2,7,33,333,562.2965937080735,563.3191701200267,"[85, 0, 169]",169,l,0.49930486248922534,colour,0.5
142,22,0,2,7,34,334,563.8278725326527,564.4951427020715,"[72, 0, 182]",182,l,0.14395569078624249,colour,0.5
142,22,0,2,7,35,335,565.0153749449528,567.9913050704345,"[84, 0, 170]",170,l,2.452654243723373,colour,0.5
142,22,0,2,7,36,336,568.4996876804216,569.0951345888607,"[47, 0, 207]",207,a,0.07208359295327682,colour,0.5
142,22,0,2,7,37,337,569.609051911204,573.0711285173311,"[35, 0, 219]",219,a,2.9387377090606606,colour,0.5
142,22,0,2,7,38,338,573.5779184156563,574.5271194210654,"[62, 0, 192]",192,a,0.4259731728088809,colour,0.5
142,22,0,2,7,39,339,575.0465218312456,576.2551016791112,"[97, 0, 157]",157,l,0.6852980584226316,colour,0.5
142,22,0,2,7,40,340,576.7653428465419,578.5271430518042,"[40, 0, 214]",214,a,1.2384782435692614,colour,0.5
142,22,0,2,7,41,341,579.0465631850384,579.6310997823603,"[20, 0, 234]",234,a,0.06123550943448208,colour,0.5
142,22,0,2,7,42,342,580.1402681143372,581.3591415110859,"[42, 0, 212]",212,a,0.6957349671138218,colour,0.5
142,22,0,2,7,43,343,581.8629795365559,582.9191490099038,"[19, 0, 235]",235,a,0.5332689264469082,colour,0.5
142,22,0,2,7,44,344,583.4254162751167,584.1191256942402,"[71, 0, 183]",183,l,0.17036500823451206,colour,0.5
142,22,0,2,7,45,345,584.6285409674165,585.3751028921542,"[17, 0, 237]",237,a,0.2231454400898656,colour,0.5
142,22,0,2,7,46,346,585.8941457212932,586.7830844097771,"[36, 0, 218]",218,a,0.36388971378619317,colour,0.5
142,22,0,2,7,47,347,587.3022020695789,588.0231175558147,"[92, 0, 162]",162,l,0.1975517769024009,colour,0.5
142,22,0,2,7,48,348,588.5365500542248,589.2551245221548,"[49, 0, 205]",205,a,0.19525880775472615,colour,0.5
142,22,0,2,7,49,349,589.7585765789408,590.6071512122871,"[21, 0, 233]",233,a,0.32536728071863763,colour,0.5
142,22,0,2,7,50,350,591.1178736590518,592.1271290309087,"[53, 0, 201]",201,a,0.4859341978590237,colour,0.5
142,22,0,2,8,1,351,598.24527050498,598.9271495896392,"[52, 0, 202]",202,a,0.15808056977402885,colour,0.5
142,22,0,2,8,2,352,599.4335558823514,601.1590864514728,"[64, 0, 190]",190,a,1.2025685823173262,colour,0.5
142,22,0,2,8,3,353,601.6678814178013,603.3350791196426,"[39, 0, 215]",215,a,1.1438489586435026,colour,0.5
142,22,0,2,8,4,354,603.8553700455086,604.5030530911754,"[87, 0, 167]",167,l,0.12435793319309596,colour,0.5
142,22,0,2,8,5,355,605.0116204147489,605.647113151048,"[50, 0, 204]",204,a,0.11214911309070885,colour,0.5
142,22,0,2,8,6,356,606.1679322238924,606.7111000659206,"[63, 0, 191]",191,a,0.019864784917444922,colour,0.5
142,22,0,2,8,7,357,607.2302740456507,607.911129131724,"[85, 0, 169]",169,l,0.15736140769149642,colour,0.5
142,22,0,2,8,8,358,608.4178902793356,609.1911124011676,"[27, 0, 227]",227,a,0.2502081474085571,colour,0.5
142,22,0,2,8,9,359,609.6991117993748,610.3670637155446,"[3, 0, 251]",251,a,0.14455039765744004,colour,0.5
142,22,0,2,8,10,360,610.8865555286757,611.9830733033305,"[23, 0, 231]",231,a,0.5730426070076646,colour,0.5
142,22,0,2,8,11,361,612.4835179550137,613.6550786785374,"[24, 0, 230]",230,a,0.6482147372298641,colour,0.5
142,22,0,2,8,12,362,614.1709514443501,614.815123356384,"[43, 0, 211]",211,a,0.12068807979812846,colour,0.5
142,22,0,2,8,13,363,615.3272309581516,616.1910871950531,"[51, 0, 203]",203,a,0.3400399989623111,colour,0.5
142,22,0,2,8,14,364,616.7026938252093,617.8950456585153,"[47, 0, 207]",207,a,0.6690164808678674,colour,0.5
142,22,0,2,8,15,365,618.4057377791614,619.5270760980493,"[2, 0, 252]",252,a,0.5983617597958073,colour,0.5
142,22,0,2,8,16,366,620.0463958006585,620.8470831400191,"[98, 0, 156]",156,l,0.2774390268023126,colour,0.5
142,22,0,2,8,17,367,621.35888393606,621.9510863443429,"[7, 0, 247]",247,a,0.06896630492701661,colour,0.5
142,22,0,2,8,18,368,622.4682414714625,623.143030153602,"[58, 0, 196]",196,a,0.16056809866859112,colour,0.5
142,22,0,2,8,19,369,623.6570916234487,624.2550516607153,"[69, 0, 185]",185,a,0.07489210598578211,colour,0.5
142,22,0,2,8,20,370,624.7664625496109,625.431014002781,"[84, 0, 170]",170,l,0.1412558791344054,colour,0.5
142,22,0,2,8,21,371,625.9310707165423,626.5271335995203,"[14, 0, 240]",240,a,0.0728047242591856,colour,0.5
142,22,0,2,8,22,372,627.0404621226771,627.7510655492952,"[96, 0, 158]",158,l,0.18750398769043386,colour,0.5
142,22,0,2,8,23,373,628.2591594704427,628.8950850430701,"[15, 0, 239]",239,a,0.11266505083767697,colour,0.5
142,22,0,2,8,24,374,629.4154429227056,636.1910915273475,"[10, 0, 244]",244,a,6.250262498098891,colour,0.5
142,22,0,2,8,25,375,636.701923463188,637.5190164414671,"[8, 0, 246]",246,a,0.29386041953694075,colour,0.5
142,22,0,2,8,26,376,638.0299488079472,638.6150159152894,"[97, 0, 157]",157,l,0.06168567496933974,colour,0.5
142,22,0,2,8,27,377,639.1237281740614,639.7430858433654,"[95, 0, 159]",159,l,0.09622908581513911,colour,0.5
142,22,0,2,8,28,378,640.2643117587286,642.1590415530663,"[22, 0, 232]",232,a,1.3714180726237828,colour,0.5
142,22,0,2,8,29,379,642.6705871371523,643.2710280079336,"[12, 0, 242]",242,a,0.07713978289393708,colour,0.5
142,22,0,2,8,30,380,643.7798718111299,645.575073274973,"[72, 0, 182]",182,l,1.2717672561557265,colour,0.5
142,22,0,2,8,31,381,646.0951723980397,646.7669958165643,"[59, 0, 195]",195,a,0.14836676164122764,colour,0.5
142,22,0,2,8,32,382,647.282778391731,647.8070621244115,"[99, 0, 155]",155,l,0.0009641340584494174,colour,0.5
142,22,0,2,8,33,383,648.3296987947542,648.8950578677322,"[40, 0, 214]",214,a,0.04209028044715524,colour,0.5
142,22,0,2,8,34,384,649.4077767178824,650.0710280867061,"[74, 0, 180]",180,l,0.1400518931041006,colour,0.5
142,22,0,2,8,35,385,650.5797245916328,651.863044914935,"[34, 0, 220]",220,a,0.7603996902762447,colour,0.5
142,22,0,2,8,36,386,652.3764789887209,652.9349969634495,"[56, 0, 198]",198,a,0.03520113302511163,colour,0.5
142,22,0,2,8,37,387,653.4546195333241,654.1349957031343,"[80, 0, 174]",174,l,0.15706602348654997,colour,0.5
142,22,0,2,8,38,388,654.6420482964895,656.655039293968,"[76, 0, 178]",178,l,1.4895957804983482,colour,0.5
142,22,0,2,8,39,389,657.1733416933566,658.7349958606792,"[41, 0, 213]",213,a,1.0384897438634653,colour,0.5
142,22,0,2,8,40,390,659.2533254354057,660.4311282180133,"[0, 0, 254]",254,a,0.654409928698442,colour,0.5
142,22,0,2,8,41,391,660.9408408446179,662.0550107795425,"[61, 0, 193]",193,a,0.5910350498888874,colour,0.5
142,22,0,2,8,42,392,662.5658399584645,663.2150444297149,"[16, 0, 238]",238,a,0.12589865722111426,colour,0.5
142,22,0,2,8,43,393,663.7221025369072,664.8310319621378,"[32, 0, 222]",222,a,0.585586195869837,colour,0.5
142,22,0,2,8,44,394,665.3470524200529,667.0790589925455,"[20, 0, 234]",234,a,1.2087192691978998,colour,0.5
142,22,0,2,8,45,395,667.5969640017138,668.7269976440148,"[38, 0, 216]",216,a,0.6065509915933944,colour,0.5
142,22,0,2,8,46,396,669.2377563245682,672.4790320535103,"[17, 0, 237]",237,a,2.718459071169491,colour,0.5
142,22,0,2,8,47,397,672.9877474630339,674.3589658559358,"[28, 0, 226]",226,a,0.8479948926105862,colour,0.5
142,22,0,2,8,48,398,674.8782938293007,676.7749837932497,"[71, 0, 183]",183,a,1.3733093192568049,colour,0.5
142,22,0,2,8,49,399,677.2844912262954,678.254972497758,"[94, 0, 160]",160,l,0.4471179559768643,colour,0.5
142,22,0,2,8,50,400,678.7688929708675,679.5269933904783,"[78, 0, 176]",176,l,0.23481547940173186,colour,0.5
142,22,0,2,9,1,401,698.1586461320694,699.4389681087341,"[69, 0, 185]",185,l,0.7564986494980985,colour,0.5
142,22,0,2,9,2,402,699.9564438261878,700.646938283593,"[25, 0, 229]",229,a,0.1673969877010677,colour,0.5
142,22,0,2,9,3,403,701.1593983771891,702.0149232040421,"[57, 0, 197]",197,a,0.3322603666165378,colour,0.5
142,22,0,2,9,4,404,702.5344358909933,703.190933989099,"[11, 0, 243]",243,a,0.13291777369158808,colour,0.5
142,22,0,2,9,5,405,703.7066618197277,704.5109363049123,"[76, 0, 178]",178,l,0.28110848634969443,colour,0.5
142,22,0,2,9,6,406,705.0192003673728,705.6629370800074,"[96, 0, 158]",158,l,0.12043326167622581,colour,0.5
142,22,0,2,9,7,407,706.1753916597663,706.7269633794349,"[24, 0, 230]",230,a,0.02829111176833976,colour,0.5
142,22,0,2,9,8,408,707.2397645433375,707.8069534230308,"[30, 0, 224]",224,a,0.0440437546785688,colour,0.5
142,22,0,2,9,9,409,708.3178928787092,710.0869989200728,"[14, 0, 240]",240,a,1.2457025536132278,colour,0.5
142,22,0,2,9,10,410,710.599169537134,711.7669371335651,"[12, 0, 242]",242,a,0.6445035300275777,colour,0.5
142,22,0,2,9,11,411,712.2866302018083,713.0869268463284,"[16, 0, 238]",238,a,0.27707550729974173,colour,0.5
142,22,0,2,9,12,412,713.5990895864816,714.454951939013,"[80, 0, 174]",174,l,0.3324931293609552,colour,0.5
142,22,0,2,9,13,413,714.9741259187431,715.7109448907577,"[78, 0, 176]",176,l,0.21365061010874342,colour,0.5
142,22,0,2,9,14,414,716.2241103618289,716.7910081896262,"[46, 0, 208]",208,a,0.04371174282277934,colour,0.5
142,22,0,2,9,15,415,717.3022446048999,717.8629279427842,"[27, 0, 227]",227,a,0.0374606252880767,colour,0.5
142,22,0,2,9,16,416,718.3776845501416,718.9349327666132,"[86, 0, 168]",168,l,0.03460406306840014,colour,0.5
142,22,0,2,9,17,417,719.455806190148,721.5109882925317,"[6, 0, 248]",248,a,1.5319298513641115,colour,0.5
142,22,0,2,9,18,418,722.0183465100854,722.5430437806644,"[84, 0, 170]",170,l,0.0013410443061729893,colour,0.5
142,22,0,2,9,19,419,723.0651267040666,723.6309067980037,"[2, 0, 252]",252,a,0.042321467815781944,colour,0.5
142,22,0,2,9,20,420,724.1453113073803,725.4549361851823,"[97, 0, 157]",157,l,0.7862300546694314,colour,0.5
142,22,0,2,9,21,421,725.9734485042864,726.518920736984,"[61, 0, 193]",193,a,0.022342073818435892,colour,0.5
142,22,0,2,9,22,422,727.0360313595593,728.8709222210018,"[17, 0, 237]",237,a,1.311579927423736,colour,0.5
142,22,0,2,9,23,423,729.3797026150423,730.1429017599294,"[89, 0, 165]",165,l,0.24068102207093034,colour,0.5
142,22,0,2,9,24,424,730.6610702518083,731.5669525723206,"[90, 0, 164]",164,l,0.38250994657573756,colour,0.5
142,22,0,2,9,25,425,732.0829277379817,732.6148973677628,"[44, 0, 210]",210,a,0.008618129650130868,colour,0.5
142,22,0,2,9,26,426,733.1297693718807,733.6789461164008,"[75, 0, 179]",179,l,0.02390721628034953,colour,0.5
142,22,0,2,9,27,427,734.1942166922672,736.0229115745606,"[74, 0, 180]",180,l,1.305702175523038,colour,0.5
142,22,0,2,9,28,428,736.5379895599326,737.7349017315719,"[40, 0, 214]",214,a,0.6736859144293703,colour,0.5
142,22,0,2,9,29,429,738.2411292183824,738.8229211056314,"[26, 0, 228]",228,a,0.05864912530523725,colour,0.5
142,22,0,2,9,30,430,739.3348723506933,740.5988879375218,"[48, 0, 206]",206,a,0.7407558527338551,colour,0.5
142,22,0,2,9,31,431,741.1161045045592,742.5588649526908,"[91, 0, 163]",163,l,0.9195416739821667,colour,0.5
142,22,0,2,9,32,432,743.069271535278,743.6148709801055,"[77, 0, 177]",177,l,0.022317655384540558,colour,0.5
142,22,0,2,9,33,433,744.1317504152976,746.3908933442435,"[93, 0, 161]",161,l,1.7359292747860309,colour,0.5
142,22,0,2,9,34,434,746.8998214303865,747.4468777101429,"[32, 0, 222]",222,a,0.023785517987562343,colour,0.5
142,22,0,2,9,35,435,747.9623393011425,748.7028718434158,"[1, 0, 253]",253,a,0.21723421131900977,colour,0.5
142,22,0,2,9,36,436,749.2153110631916,749.8628901336051,"[72, 0, 182]",182,l,0.12447096688265447,colour,0.5
142,22,0,2,9,37,437,750.3715988477634,752.6708998505637,"[68, 0, 186]",186,a,1.776333108311519,colour,0.5
142,22,0,2,9,38,438,753.1841484230681,753.8789235884324,"[7, 0, 247]",247,a,0.17150400974787772,colour,0.5
142,22,0,2,9,39,439,754.3873570044962,756.0229548975767,"[55, 0, 199]",199,a,1.121265063600731,colour,0.5
142,22,0,2,9,40,440,756.5221616925264,757.6789665963734,"[56, 0, 198]",198,a,0.6335093298112042,colour,0.5
142,22,0,2,9,41,441,758.1969625838683,759.2148798022536,"[45, 0, 209]",209,a,0.4945105798833538,colour,0.5
142,22,0,2,9,42,442,759.728339082154,760.406840153024,"[66, 0, 188]",188,a,0.15514208767854143,colour,0.5
142,22,0,2,9,43,443,760.9157560299645,761.678874436504,"[18, 0, 236]",236,a,0.23973815569479484,colour,0.5
142,22,0,2,9,44,444,762.1969877899974,763.4149179265078,"[51, 0, 203]",203,a,0.6946148701972561,colour,0.5
142,22,0,2,9,45,445,763.9314342360449,765.1508452320559,"[29, 0, 225]",225,a,0.6961957664752845,colour,0.5
142,22,0,2,9,46,446,765.6657971868262,766.870840694959,"[94, 0, 160]",160,l,0.6817636879131896,colour,0.5
142,22,0,2,9,47,447,767.3845839375572,767.9908797171811,"[23, 0, 231]",231,a,0.08307897471240722,colour,0.5
142,22,0,2,9,48,448,768.5101915428677,772.2629065175861,"[4, 0, 250]",250,a,3.229356779222144,colour,0.5
142,22,0,2,9,49,449,772.7759022412065,773.3268843740079,"[98, 0, 156]",156,l,0.027675531076965854,colour,0.5
142,22,0,2,9,50,450,773.8382669060084,774.438872404251,"[5, 0, 249]",249,a,0.07736703181581106,colour,0.5
142,22,0,2,10,1,451,780.3750855629478,780.9908233972528,"[38, 0, 216]",216,a,0.09162109215685632,colour,0.5
142,22,0,2,10,2,452,781.5009735863423,782.0469042553304,"[77, 0, 177]",177,l,0.022701261012116447,colour,0.5
142,22,0,2,10,3,453,782.5633378572966,785.6548675772792,"[78, 0, 176]",176,l,2.568488570206682,colour,0.5
142,22,0,2,10,4,454,786.1749076234992,786.782878428523,"[56, 0, 198]",198,a,0.08469846786465496,colour,0.5
142,22,0,2,10,5,455,787.3020740697539,788.3108639160928,"[12, 0, 242]",242,a,0.4942372510122368,colour,0.5
142,22,0,2,10,6,456,788.8246032202296,789.8548332339415,"[34, 0, 220]",220,a,0.5070325072301785,colour,0.5
142,22,0,2,10,7,457,790.3714554879552,791.7028371850029,"[82, 0, 172]",172,a,0.808121569105424,colour,0.5
142,22,0,2,10,8,458,792.2061037405074,792.9028122939635,"[47, 0, 207]",207,a,0.17344409321958665,colour,0.5
142,22,0,2,10,9,459,793.4091780205781,794.0948246323533,"[71, 0, 183]",183,l,0.1623683669458842,colour,0.5
142,22,0,2,10,10,460,794.6124074758118,795.246801382862,"[51, 0, 203]",203,a,0.11112944681372028,colour,0.5
142,22,0,2,10,11,461,795.7529091406032,796.3028208010219,"[60, 0, 194]",194,a,0.026614510992658325,colour,0.5
142,22,0,2,10,12,462,796.8154018052301,797.766821342957,"[58, 0, 196]",196,a,0.4280853668169584,colour,0.5
142,22,0,2,10,13,463,798.2716680070444,799.0868043603405,"[57, 0, 197]",197,a,0.2921306496136822,colour,0.5
142,22,0,2,10,14,464,799.6026227754483,800.4868168058601,"[16, 0, 238]",238,a,0.3608027518785093,colour,0.5
142,22,0,2,10,15,465,800.9932711477304,802.5268185230234,"[37, 0, 217]",217,a,1.0102458935725736,colour,0.5
142,22,0,2,10,16,466,803.040125778527,804.0227946024243,"[22, 0, 232]",232,a,0.4598722522496246,colour,0.5
142,22,0,2,10,17,467,804.5276479618769,806.5108205143042,"[48, 0, 206]",206,a,1.459835230751196,colour,0.5
142,22,0,2,10,18,468,807.0276416603447,807.6788531688362,"[40, 0, 214]",214,a,0.12782456226705108,colour,0.5
142,22,0,2,10,19,469,808.199558420296,810.2148140300415,"[79, 0, 175]",175,a,1.4920053279493004,colour,0.5
142,22,0,2,10,20,470,810.7307249988662,811.3748079017969,"[32, 0, 222]",222,a,0.13287799528916366,colour,0.5
142,22,0,2,10,21,471,811.8932808363315,812.6228404460417,"[7, 0, 247]",247,a,0.20618959884450305,colour,0.5
142,22,0,2,10,22,472,813.1458776573709,814.2308002233767,"[1, 0, 253]",253,a,0.5585908361535985,colour,0.5
142,22,0,2,10,23,473,814.7451377789985,815.3668061405187,"[92, 0, 162]",162,l,0.1106769182079006,colour,0.5
142,22,0,2,10,24,474,815.8735271158657,818.2548441040854,"[4, 0, 250]",250,a,1.8584987550566439,colour,0.5
142,22,0,2,10,25,475,818.764148706643,819.5827658674389,"[54, 0, 200]",200,a,0.2952944114076672,colour,0.5
142,22,0,2,10,26,476,820.0922587281966,820.7427928222314,"[75, 0, 179]",179,l,0.12730507989181206,colour,0.5
142,22,0,2,10,27,477,821.2641203497624,823.1987789998238,"[73, 0, 181]",181,l,1.4113618944829796,colour,0.5
142,22,0,2,10,28,478,823.7048426468536,824.2310900937591,"[55, 0, 199]",199,a,0.002882556029362604,colour,0.5
142,22,0,2,10,29,479,824.7534873059485,825.8468023280875,"[31, 0, 223]",223,a,0.5699607650894905,colour,0.5
142,22,0,2,10,30,480,826.3649412815575,827.6228014553344,"[2, 0, 252]",252,a,0.7346102858282393,colour,0.5
142,22,0,2,10,31,481,828.1181139048713,828.830759814824,"[61, 0, 193]",193,a,0.18934403438470326,colour,0.5
142,22,0,2,10,32,482,829.3276228345348,829.8787605363468,"[46, 0, 208]",208,a,0.027782657081843354,colour,0.5
142,22,0,2,10,33,483,830.39015685294,831.8227962565725,"[62, 0, 192]",192,a,0.9095230293314671,colour,0.5
142,22,0,2,10,34,484,832.3432679575781,833.6867611948546,"[43, 0, 211]",211,a,0.8188274743442889,colour,0.5
142,22,0,2,10,35,485,834.204320801422,835.3107461562613,"[14, 0, 240]",240,a,0.5834661249537021,colour,0.5
142,22,0,2,10,36,486,835.8293951397791,836.7987767942977,"[28, 0, 226]",226,a,0.446196357239387,colour,0.5
142,22,0,2,10,37,487,837.3136204415205,838.2947442090808,"[18, 0, 236]",236,a,0.45802393478516024,colour,0.5
142,22,0,2,10,38,488,838.8136369830463,839.4548050346057,"[30, 0, 224]",224,a,0.11778701301955152,colour,0.5
142,22,0,2,10,39,489,839.9699586383213,841.2467627859878,"[39, 0, 215]",215,a,0.7535727704525925,colour,0.5
142,22,0,2,10,40,490,841.7668843582505,842.5587542820867,"[91, 0, 163]",163,l,0.268325833210838,colour,0.5
142,22,0,2,10,41,491,843.0658754045726,843.9507523632637,"[72, 0, 182]",182,l,0.36151561242877506,colour,0.5
142,22,0,2,10,42,492,844.4722031644633,845.2467348229547,"[63, 0, 191]",191,a,0.2512423859734554,colour,0.5
142,22,0,2,10,43,493,845.7533789984154,846.8228277642193,"[67, 0, 187]",187,a,0.5587007190770237,colour,0.5
142,22,0,2,10,44,494,847.327694120584,847.9507878093718,"[99, 0, 155]",155,l,0.09975439787376672,colour,0.5
142,22,0,2,10,45,495,848.4558747192787,849.078760851422,"[96, 0, 158]",158,l,0.09954132739221677,colour,0.5
142,22,0,2,10,46,496,849.5964279778418,850.1667699854879,"[68, 0, 186]",186,a,0.046911738405469805,colour,0.5
142,22,0,2,10,47,497,850.6745598578273,852.278820243344,"[0, 0, 254]",254,a,1.0788967281696387,colour,0.5
142,22,0,2,10,48,498,852.7860551872145,853.8227029151603,"[50, 0, 204]",204,a,0.5132978032052051,colour,0.5
142,22,0,2,10,49,499,854.3328920949571,854.9667231966305,"[19, 0, 235]",235,a,0.11055403837235644,colour,0.5
142,22,0,2,10,50,500,855.4734835565469,856.2307253927138,"[35, 0, 219]",219,a,0.23412152341916226,colour,0.5
142,22,0,2,11,1,501,861.9581487838441,862.526703913958,"[38, 0, 216]",216,a,0.05357048615405802,colour,0.5
142,22,0,2,11,2,502,863.0436184014106,863.6307531982166,"[52, 0, 202]",202,a,0.06223115113971289,colour,0.5
142,22,0,2,11,3,503,864.1447918250196,865.5667308372358,"[68, 0, 186]",186,a,0.8986005089973332,colour,0.5
142,22,0,2,11,4,504,866.0848059877026,866.6787964550749,"[0, 0, 254]",254,a,0.0706807148817461,colour,0.5
142,22,0,2,11,5,505,867.1983717634721,868.7507181774708,"[14, 0, 240]",240,a,1.0291079475719016,colour,0.5
142,22,0,2,11,6,506,869.2608557634958,871.3107426116476,"[62, 0, 192]",192,a,1.5391128076298628,colour,0.5
142,22,0,2,11,7,507,871.8266433404933,872.4147178529383,"[98, 0, 156]",156,l,0.06485967674234416,colour,0.5
142,22,0,2,11,8,508,872.9221670488187,874.1106784935837,"[86, 0, 168]",168,l,0.6651528554211836,colour,0.5
142,22,0,2,11,9,509,874.6253165533999,875.2867534754769,"[79, 0, 175]",175,l,0.13837765539938118,colour,0.5
142,22,0,2,11,10,510,875.7970769566309,876.534717096758,"[37, 0, 217]",217,a,0.2141567017242778,colour,0.5
142,22,0,2,11,11,511,877.0497265529848,879.1907083155675,"[64, 0, 190]",190,a,1.6177066685049795,colour,0.5
142,22,0,2,11,12,512,879.7059702268452,881.0547110630432,"[55, 0, 199]",199,a,0.8261990826576948,colour,0.5
142,22,0,2,11,13,513,881.5653567099071,882.7186989231413,"[67, 0, 187]",187,l,0.629989531589672,colour,0.5
142,22,0,2,11,14,514,883.237252202176,883.8306708057207,"[90, 0, 164]",164,l,0.07014390331460163,colour,0.5
142,22,0,2,11,15,515,884.3341516132205,884.9986786479712,"[9, 0, 245]",245,a,0.14117947308113798,colour,0.5
142,22,0,2,11,16,516,885.5060384409007,886.7347461625614,"[69, 0, 185]",185,a,0.7054330214305082,colour,0.5
142,22,0,2,11,17,517,887.2423265090329,888.1747489037225,"[63, 0, 191]",191,a,0.4091012206772575,colour,0.5
142,22,0,2,11,18,518,888.695415558308,889.7026804344496,"[65, 0, 189]",189,a,0.48381058231461793,colour,0.5
142,22,0,2,11,19,519,890.2186453601316,890.9827133284416,"[25, 0, 229]",229,a,0.24074836967338342,colour,0.5
142,22,0,2,11,20,520,891.4998550648015,892.3587642069906,"[24, 0, 230]",230,a,0.3355816666444298,colour,0.5
142,22,0,2,11,21,521,892.8748567386501,896.1267095853254,"[47, 0, 207]",207,a,2.7285714510799153,colour,0.5
142,22,0,2,11,22,522,896.6404705509776,897.7666823154577,"[59, 0, 195]",195,a,0.6031820362259168,colour,0.5
142,22,0,2,11,23,523,898.2811096678779,899.9586934723193,"[36, 0, 218]",218,a,1.1527305710042128,colour,0.5
142,22,0,2,11,24,524,900.4701437457697,901.7426793946943,"[23, 0, 231]",231,a,0.7492400748888031,colour,0.5
142,22,0,2,11,25,525,902.2513861396146,903.2066633951181,"[16, 0, 238]",238,a,0.4319860137620708,colour,0.5
142,22,0,2,11,26,526,903.7201100719685,905.3747035327106,"[29, 0, 225]",225,a,1.1371015956246993,colour,0.5
142,22,0,2,11,27,527,905.8861687722965,906.7586340803973,"[42, 0, 212]",212,a,0.34921660169493407,colour,0.5
142,22,0,2,11,28,528,907.276761612331,907.8466963836254,"[28, 0, 226]",226,a,0.04660060038440861,colour,0.5
142,22,0,2,11,29,529,908.3548690738971,909.7666756200779,"[89, 0, 165]",165,l,0.8884483506844845,colour,0.5
142,22,0,2,11,30,530,910.2767903630593,910.9106951138674,"[99, 0, 155]",155,l,0.11054064762720373,colour,0.5
142,22,0,2,11,31,531,911.417321566274,911.9986747095099,"[84, 0, 170]",170,l,0.0579437478154432,colour,0.5
142,22,0,2,11,32,532,912.5111753692036,913.6786219814676,"[32, 0, 222]",222,a,0.6444802931509912,colour,0.5
142,22,0,2,11,33,533,914.198619098519,914.9026622387901,"[30, 0, 224]",224,a,0.18075071700150147,colour,0.5
142,22,0,2,11,34,534,915.4173266862636,917.1586417997751,"[31, 0, 223]",223,a,1.2270807454478927,colour,0.5
142,22,0,2,11,35,535,917.6738391203689,918.302711311946,"[82, 0, 172]",172,l,0.10575463576242328,colour,0.5
142,22,0,2,11,36,536,918.8144207358127,919.4066199933295,"[2, 0, 252]",252,a,0.06887847736652475,colour,0.5
142,22,0,2,11,37,537,919.9238471941935,920.614665392699,"[8, 0, 246]",246,a,0.16770970112702344,colour,0.5
142,22,0,2,11,38,538,921.1269447111554,926.8066442542186,"[50, 0, 204]",204,a,5.156282664567698,colour,0.5
142,22,0,2,11,39,539,927.314407345053,928.9426761651703,"[60, 0, 194]",194,a,1.1049413445725804,colour,0.5
142,22,0,2,11,40,540,929.4550161358493,930.038798124966,"[96, 0, 158]",158,l,0.06124653710867278,colour,0.5
142,22,0,2,11,41,541,930.5486588375352,931.1825966713659,"[39, 0, 215]",215,a,0.11042406932392623,colour,0.5
142,22,0,2,11,42,542,931.6894054742879,932.4786334817472,"[17, 0, 237]",237,a,0.2782924902276136,colour,0.5
142,22,0,2,11,43,543,932.9770561300829,934.0706275457196,"[20, 0, 234]",234,a,0.5701954970863881,colour,0.5
142,22,0,2,11,44,544,934.586488889996,935.1586815781775,"[11, 0, 243]",243,a,0.048894357212702744,colour,0.5
142,22,0,2,11,45,545,935.6800335241278,936.614680752682,"[72, 0, 182]",182,l,0.4093198049959028,colour,0.5
142,22,0,2,11,46,546,937.1369468142948,938.150677847676,"[66, 0, 188]",188,a,0.489223202544963,colour,0.5
142,22,0,2,11,47,547,938.6693851203454,939.678611741474,"[88, 0, 166]",166,l,0.4859790962509578,colour,0.5
142,22,0,2,11,48,548,940.1849274496926,941.3026565674081,"[43, 0, 211]",211,a,0.5950428228388773,colour,0.5
142,22,0,2,11,49,549,941.809978157311,942.5507281023747,"[27, 0, 227]",227,a,0.21738859880133532,colour,0.5
142,22,0,2,11,50,550,943.0617868932895,944.2306363836105,"[77, 0, 177]",177,l,0.6454066180303926,colour,0.5
142,22,0,2,12,1,551,949.8053918251826,950.542613307407,"[7, 0, 247]",247,a,0.2132189553231001,colour,0.5
142,22,0,2,12,2,552,951.0561895594583,952.126609548548,"[71, 0, 183]",183,a,0.5472386302717496,colour,0.5
142,22,0,2,12,3,553,952.6342639379873,953.238589701883,"[64, 0, 190]",190,a,0.07978800078853965,colour,0.5
142,22,0,2,12,4,554,953.7448593301524,955.1426623018051,"[28, 0, 226]",226,a,0.8745038530032616,colour,0.5
142,22,0,2,12,5,555,955.6558785789675,956.6065809238498,"[96, 0, 158]",158,l,0.4274918414885178,colour,0.5
142,22,0,2,12,6,556,957.1265705578262,958.2066086505802,"[89, 0, 165]",165,l,0.5567704817513004,colour,0.5
142,22,0,2,12,7,557,958.7202408287121,959.7265648076864,"[10, 0, 244]",244,a,0.4830559741239995,colour,0.5
142,22,0,2,12,8,558,960.2358631087118,961.2466127308144,"[29, 0, 225]",225,a,0.4873815804749029,colour,0.5
142,22,0,2,12,9,559,961.7671127887152,962.8385721363593,"[52, 0, 202]",202,a,0.5481818905100226,colour,0.5
142,22,0,2,12,10,560,963.3452135549014,964.3425929062068,"[39, 0, 215]",215,a,0.473980589711573,colour,0.5
142,22,0,2,12,11,561,964.8621260731306,965.8385922224843,"[14, 0, 240]",240,a,0.45390234046499245,colour,0.5
142,22,0,2,12,12,562,966.346456137806,967.2867798631341,"[58, 0, 196]",196,a,0.417068717390066,colour,0.5
142,22,0,2,12,13,563,967.7997988236602,968.7585702774086,"[86, 0, 168]",168,l,0.4353793875343399,colour,0.5
142,22,0,2,12,14,564,969.2685869528359,970.2065893521358,"[24, 0, 230]",230,a,0.41467374222702347,colour,0.5
142,22,0,2,12,15,565,970.7216578852094,971.6066529975942,"[36, 0, 218]",218,a,0.36170032602967694,colour,0.5
142,22,0,2,12,16,566,972.1279828881961,972.974544182769,"[66, 0, 188]",188,a,0.323375997308176,colour,0.5
142,22,0,2,12,17,567,973.4797362494573,974.7505882084079,"[26, 0, 228]",228,a,0.7476828093494987,colour,0.5
142,22,0,2,12,18,568,975.2627793054562,976.1746067254571,"[5, 0, 249]",249,a,0.38891111928387545,colour,0.5
142,22,0,2,12,19,569,976.6845324225433,978.6865674228175,"[12, 0, 242]",242,a,1.478702010892448,colour,0.5
142,22,0,2,12,20,570,979.2002610408672,980.5185690328653,"[48, 0, 206]",206,a,0.7951211193430936,colour,0.5
142,22,0,2,12,21,571,981.0282978071336,982.6786211937724,"[65, 0, 189]",189,a,1.127055381788523,colour,0.5
142,22,0,2,12,22,572,983.1863878292206,984.0465364035335,"[34, 0, 220]",220,a,0.33689908021187875,colour,0.5
142,22,0,2,12,23,573,984.5613938353636,985.6225816894876,"[0, 0, 254]",254,a,0.5378804647189099,colour,0.5
142,22,0,2,12,24,574,986.1394973584684,986.9425694329984,"[49, 0, 205]",205,a,0.27992222335888073,colour,0.5
142,22,0,2,12,25,575,987.4520331491949,988.3265850513417,"[62, 0, 192]",192,a,0.35133076492638793,colour,0.5
142,22,0,2,12,26,576,988.8425929062068,989.6865197674924,"[19, 0, 235]",235,a,0.3206348318635719,colour,0.5
142,22,0,2,12,27,577,990.2019825400348,991.2305438298936,"[9, 0, 245]",245,a,0.5052554758294718,colour,0.5
142,22,0,2,12,28,578,991.7488198416249,992.6945995102142,"[53, 0, 201]",201,a,0.42235570088087115,colour,0.5
142,22,0,2,12,29,579,993.2019975061557,994.5745439464663,"[25, 0, 229]",229,a,0.8493079738691449,colour,0.5
142,22,0,2,12,30,580,995.092600980046,996.1906137926271,"[92, 0, 162]",162,l,0.574644770953455,colour,0.5
142,22,0,2,12,31,581,996.7019805707969,997.5745561556832,"[87, 0, 167]",167,l,0.34929734004253987,colour,0.5
142,22,0,2,12,32,582,998.0926285492314,998.6385651259043,"[72, 0, 182]",182,a,0.022624461111263372,colour,0.5
142,22,0,2,12,33,583,999.1550518970325,999.7745257508068,"[4, 0, 250]",250,a,0.09649178084509913,colour,0.5
142,22,0,2,12,34,584,1000.2957382754103,1001.6785963814909,"[80, 0, 174]",174,l,0.8596157012070762,colour,0.5
142,22,0,2,12,35,585,1002.1797550752817,1003.5025509380212,"[57, 0, 197]",197,a,0.7998748358659213,colour,0.5
142,22,0,2,12,36,586,1004.0234409030672,1004.974526065882,"[84, 0, 170]",170,l,0.4279782408266328,colour,0.5
142,22,0,2,12,37,587,1005.492214459955,1007.8865338671749,"[32, 0, 222]",222,a,1.8709568794292863,colour,0.5
142,22,0,2,12,38,588,1008.3984516353521,1011.1345093038108,"[69, 0, 185]",185,l,2.212737282141461,colour,0.5
142,22,0,2,12,39,589,1011.6484860968485,1012.7025414069503,"[83, 0, 171]",171,l,0.5307546160620404,colour,0.5
142,22,0,2,12,40,590,1013.210959069198,1014.2545050030167,"[94, 0, 160]",160,l,0.5201361445506336,colour,0.5
142,22,0,2,12,41,591,1014.7734678814886,1015.9505148743629,"[40, 0, 214]",214,a,0.6538908401707886,colour,0.5
142,22,0,2,12,42,592,1016.4609659614944,1017.3905105263111,"[60, 0, 194]",194,a,0.40620133545598947,colour,0.5
142,22,0,2,12,43,593,1017.8984343061456,1019.5905163552234,"[2, 0, 252]",252,a,1.1686714721145108,colour,0.5
142,22,0,2,12,44,594,1020.1026968184306,1021.926502107468,"[23, 0, 231]",231,a,1.300520348828286,colour,0.5
142,22,0,2,12,45,595,1022.4464338461403,1023.3664887009509,"[42, 0, 212]",212,a,0.3968459268071456,colour,0.5
142,22,0,2,12,46,596,1023.8838738339109,1025.0225185166491,"[68, 0, 186]",186,a,0.6272373384563252,colour,0.5
142,22,0,2,12,47,597,1025.529844438861,1026.0705243581615,"[61, 0, 193]",193,a,0.01742451751488261,colour,0.5
142,22,0,2,12,48,598,1026.576827069468,1027.5664799575898,"[47, 0, 207]",207,a,0.4663301387190586,colour,0.5
142,22,0,2,12,49,599,1028.0768932355422,1028.662526692875,"[99, 0, 155]",155,l,0.06304680540051777,colour,0.5
142,22,0,2,12,50,600,1029.1705690202507,1032.1585145876452,"[76, 0, 178]",178,a,2.4646503871917957,colour,0.5
142,22,0,2,13,1,601,1041.572731468972,1043.2305028699484,"[83, 0, 171]",171,l,1.1338318893685937,colour,0.5
142,22,0,2,13,2,602,1043.7455131138704,1044.5104778686218,"[88, 0, 166]",166,l,0.24165854687453248,colour,0.5
142,22,0,2,13,3,603,1045.026688553975,1045.886471639562,"[80, 0, 174]",174,l,0.33651901919802185,colour,0.5
142,22,0,2,13,4,604,1046.4015878279606,1047.9905004438624,"[48, 0, 206]",206,a,1.0657375586160924,colour,0.5
142,22,0,2,13,5,605,1048.511006803281,1049.4465189167968,"[25, 0, 229]",229,a,0.4127722556295339,colour,0.5
142,22,0,2,13,6,606,1049.9641584740166,1050.8784332506475,"[51, 0, 203]",203,a,0.3910252825298812,colour,0.5
142,22,0,2,13,7,607,1051.3859915417706,1052.1904495589988,"[10, 0, 244]",244,a,0.281029717225465,colour,0.5
142,22,0,2,13,8,608,1052.6986084646778,1053.510443210209,"[27, 0, 227]",227,a,0.28885542950592935,colour,0.5
142,22,0,2,13,9,609,1054.026771261546,1054.7664593988447,"[37, 0, 217]",217,a,0.2164508524001576,colour,0.5
142,22,0,2,13,10,610,1055.2767301046842,1056.3744530468975,"[17, 0, 237]",237,a,0.5744958973082248,colour,0.5
142,22,0,2,13,11,611,1056.876960268055,1057.5264427943184,"[74, 0, 180]",180,l,0.1262826566962758,colour,0.5
142,22,0,2,13,12,612,1058.0339546116447,1058.6384426399309,"[47, 0, 207]",207,a,0.08181315491674468,colour,0.5
142,22,0,2,13,13,613,1059.1468996867334,1059.7905848055816,"[6, 0, 248]",248,a,0.12024145886243787,colour,0.5
142,22,0,2,13,14,614,1060.3032138589479,1061.910507643348,"[91, 0, 163]",163,l,1.0839607950183563,colour,0.5
142,22,0,2,13,15,615,1062.4282291204581,1063.2864443066792,"[21, 0, 233]",233,a,0.3348400553659303,colour,0.5
142,22,0,2,13,16,616,1063.805426089748,1064.7824841890542,"[64, 0, 190]",190,a,0.45373574376571923,colour,0.5
142,22,0,2,13,17,617,1065.277342928457,1066.1984426556737,"[28, 0, 226]",226,a,0.3977462578768609,colour,0.5
142,22,0,2,13,18,618,1066.7148711376503,1067.6304180355946,"[63, 0, 191]",191,a,0.39233442532713525,colour,0.5
142,22,0,2,13,19,619,1068.130094294509,1069.0944118821644,"[7, 0, 247]",247,a,0.4408668384421617,colour,0.5
142,22,0,2,13,20,620,1069.6144987960142,1070.5664673545252,"[22, 0, 232]",232,a,0.42859539689379744,colour,0.5
142,22,0,2,13,21,621,1071.083384992744,1072.6704461404297,"[65, 0, 189]",189,l,1.0619849976355908,colour,0.5
142,22,0,2,13,22,622,1073.1789264241233,1074.222447151813,"[46, 0, 208]",208,a,0.5202346059522824,colour,0.5
142,22,0,2,13,23,623,1074.7422075676586,1075.6784226955788,"[23, 0, 231]",231,a,0.4129439723037649,colour,0.5
142,22,0,2,13,24,624,1076.1963454278011,1077.0224062706402,"[53, 0, 201]",201,a,0.30264514588634484,colour,0.5
142,22,0,2,13,25,625,1077.5401809169125,1078.5024284520332,"[76, 0, 178]",178,l,0.4391847238293849,colour,0.5
142,22,0,2,13,26,626,1079.008903273876,1079.9825443686714,"[40, 0, 214]",214,a,0.45101820905983914,colour,0.5
142,22,0,2,13,27,627,1080.4841827664059,1081.3824347220507,"[67, 0, 187]",187,l,0.37494732314371504,colour,0.5
142,22,0,2,13,28,628,1081.8904522371595,1082.7584099822416,"[56, 0, 198]",198,a,0.3447685093560722,colour,0.5
142,22,0,2,13,29,629,1083.265394046466,1084.686431939932,"[72, 0, 182]",182,l,0.8976119565340923,colour,0.5
142,22,0,2,13,30,630,1085.2029313141102,1086.0144541339105,"[85, 0, 169]",169,l,0.2882197626895504,colour,0.5
142,22,0,2,13,31,631,1086.5310819017614,1087.4545045303967,"[14, 0, 240]",240,a,0.400235362132662,colour,0.5
142,22,0,2,13,32,632,1087.968586480216,1088.8384268073278,"[3, 0, 251]",251,a,0.34661643297295086,colour,0.5
142,22,0,2,13,33,633,1089.3591096095915,1090.0064094434638,"[34, 0, 220]",220,a,0.12395502913568635,colour,0.5
142,22,0,2,13,34,634,1090.5029644759052,1091.1903719714173,"[96, 0, 158]",158,l,0.16403787849412765,colour,0.5
142,22,0,2,13,35,635,1091.706108860497,1092.2784165515914,"[9, 0, 245]",245,a,0.04901605550548993,colour,0.5
142,22,0,2,13,36,636,1092.7998594758828,1093.6784608986054,"[82, 0, 172]",172,l,0.35538146704493556,colour,0.5
142,22,0,2,13,37,637,1094.1904523159174,1095.0303942473256,"[68, 0, 186]",186,a,0.3168866031774087,colour,0.5
142,22,0,2,13,38,638,1095.5498580974236,1096.6064076317707,"[61, 0, 193]",193,a,0.5332890125719132,colour,0.5
142,22,0,2,13,39,639,1097.1279537436203,1098.0864148470282,"[45, 0, 209]",209,a,0.435458550506155,colour,0.5
142,22,0,2,13,40,640,1098.5966327775532,1099.358370755217,"[58, 0, 196]",196,a,0.23834197298856452,colour,0.5
142,22,0,2,13,41,641,1099.8780063220038,1100.4384202694928,"[94, 0, 160]",160,l,0.03717114875325933,colour,0.5
142,22,0,2,13,42,642,1100.9560578574892,1101.5424033876916,"[41, 0, 213]",213,a,0.06316141446586698,colour,0.5
142,22,0,2,13,43,643,1102.0497493960283,1104.006438194192,"[12, 0, 242]",242,a,1.4342388106451835,colour,0.5
142,22,0,2,13,44,644,1104.518672220409,1105.0469542737264,"[98, 0, 156]",156,l,0.005145199058461003,colour,0.5
142,22,0,2,13,45,645,1105.5810506698035,1106.1423680991284,"[87, 0, 167]",167,l,0.03804666755604558,colour,0.5
142,22,0,2,13,46,646,1106.6592144512979,1107.6624175976467,"[26, 0, 228]",228,a,0.4800269075349206,colour,0.5
142,22,0,2,13,47,647,1108.1747898636677,1109.4464078523306,"[92, 0, 162]",162,l,0.7483295038400684,colour,0.5
142,22,0,2,13,48,648,1109.9560566759465,1110.5664067023026,"[84, 0, 170]",170,l,0.08718087675515562,colour,0.5
142,22,0,2,13,49,649,1111.0810305836785,1111.7023641764245,"[49, 0, 205]",205,a,0.0980667694384465,colour,0.5
142,22,0,2,13,50,650,1112.2216106237465,1112.750400737903,"[32, 0, 222]",222,a,0.005387414115830325,colour,0.5
142,22,0,2,14,1,651,1120.0176620064158,1120.806405583775,"[81, 0, 173]",173,l,0.26541570798144676,colour,0.5
142,22,0,2,14,2,652,1121.3153805375623,1122.366383544184,"[56, 0, 198]",198,a,0.5275550143269356,colour,0.5
142,22,0,2,14,3,653,1122.8778779283311,1123.9183731340454,"[38, 0, 216]",216,a,0.5175158896890935,colour,0.5
142,22,0,2,14,4,654,1124.4247160176164,1125.1583594124677,"[69, 0, 185]",185,l,0.21077396176406182,colour,0.5
142,22,0,2,14,5,655,1125.6747299991403,1126.3743569485669,"[16, 0, 238]",238,a,0.17497378957341425,colour,0.5
142,22,0,2,14,6,656,1126.8949408955814,1127.43075564006,"[23, 0, 231]",231,a,0.012567219600896351,colour,0.5
142,22,0,2,14,7,657,1127.941718332644,1129.158379104745,"[27, 0, 227]",227,a,0.6932391674636165,colour,0.5
142,22,0,2,14,8,658,1129.6760446557892,1130.622425726615,"[91, 0, 163]",163,l,0.4231520566972904,colour,0.5
142,22,0,2,14,9,659,1131.1292561910523,1131.7423213890434,"[53, 0, 201]",201,a,0.08969243020692375,colour,0.5
142,22,0,2,14,10,660,1132.2542521541327,1133.5423801508005,"[68, 0, 186]",186,a,0.7648635364312213,colour,0.5
142,22,0,2,14,11,661,1134.0511235233716,1134.88635230434,"[32, 0, 222]",222,a,0.3098001391044818,colour,0.5
142,22,0,2,14,12,662,1135.3969203636225,1136.126333462773,"[73, 0, 181]",181,l,0.20590130386699457,colour,0.5
142,22,0,2,14,13,663,1136.6478701223095,1137.2303417870862,"[47, 0, 207]",207,a,0.059204447621596046,colour,0.5
142,22,0,2,14,14,664,1137.7415947438858,1138.350344181672,"[88, 0, 166]",166,l,0.0854633160342928,colour,0.5
142,22,0,2,14,15,665,1138.8666954699002,1139.67839906484,"[15, 0, 239]",239,a,0.28901966313424055,colour,0.5
142,22,0,2,14,16,666,1140.1948149437521,1141.5743761682388,"[66, 0, 188]",188,a,0.8562719519686652,colour,0.5
142,22,0,2,14,17,667,1142.085429445302,1143.1503887649887,"[62, 0, 192]",192,a,0.5416747733106604,colour,0.5
142,22,0,2,14,18,668,1143.663485706944,1144.1983331665979,"[22, 0, 232]",232,a,0.011429793477873318,colour,0.5
142,22,0,2,14,19,669,1144.7103210393107,1146.446294818641,"[43, 0, 211]",211,a,1.21252775627363,colour,0.5
142,22,0,2,14,20,670,1146.9603444731183,1147.9504609175056,"[2, 0, 252]",252,a,0.467029214676586,colour,0.5
142,22,0,2,14,21,671,1148.46031572239,1149.4303405267856,"[55, 0, 199]",199,a,0.4467016611597501,colour,0.5
142,22,0,2,14,22,672,1149.9447729991953,1150.6062977488473,"[26, 0, 228]",228,a,0.1382354771340033,colour,0.5
142,22,0,2,14,23,673,1151.1166200484731,1151.7263517372048,"[96, 0, 158]",158,l,0.08648101308790501,colour,0.5
142,22,0,2,14,24,674,1152.2297360525408,1152.7983364749089,"[5, 0, 249]",249,a,0.04363651831226889,colour,0.5
142,22,0,2,14,25,675,1153.3095977024495,1154.6703429528716,"[51, 0, 203]",203,a,0.8373697257193271,colour,0.5
142,22,0,2,14,26,676,1155.184653333141,1155.7423363551788,"[98, 0, 156]",156,l,0.034745059805572964,colour,0.5
142,22,0,2,14,27,677,1156.2634618399024,1157.0943760422088,"[21, 0, 233]",233,a,0.312844171829056,colour,0.5
142,22,0,2,14,28,678,1157.6019437856157,1158.1583275109733,"[24, 0, 230]",230,a,0.03305112982343417,colour,0.5
142,22,0,2,14,29,679,1158.6610348057002,1159.1903302237915,"[39, 0, 215]",215,a,0.005880508819245733,colour,0.5
142,22,0,2,14,30,680,1159.7078295719693,1160.2623700998665,"[82, 0, 172]",172,l,0.03122644311224576,colour,0.5
142,22,0,2,14,31,681,1160.7703970672592,1161.4943105062994,"[97, 0, 157]",157,a,0.20094396916101687,colour,0.5
142,22,0,2,14,32,682,1162.0047714395769,1162.6143251100875,"[33, 0, 221]",221,a,0.08618169042165391,colour,0.5
142,22,0,2,14,33,683,1163.1298434148484,1163.8463285318285,"[41, 0, 213]",213,a,0.1931233768700622,colour,0.5
142,22,0,2,14,34,684,1164.36410002732,1164.9183313864196,"[50, 0, 204]",204,a,0.030824326750007458,colour,0.5
142,22,0,2,14,35,685,1165.4266978487285,1166.1342670887534,"[46, 0, 208]",208,a,0.18431501976738218,colour,0.5
142,22,0,2,14,36,686,1166.6453703842271,1168.3423290296487,"[3, 0, 251]",251,a,1.1735756376583595,colour,0.5
142,22,0,2,14,37,687,1168.8497695609258,1169.5343019834836,"[29, 0, 225]",225,a,0.16113563018734567,colour,0.5
142,22,0,2,14,38,688,1170.0529627823707,1170.5822893142467,"[40, 0, 214]",214,a,0.005951007173280232,colour,0.5
142,22,0,2,14,39,689,1171.0998898807593,1172.8863038613345,"[72, 0, 182]",182,a,1.2631648803071585,colour,0.5
142,22,0,2,14,40,690,1173.3966135578958,1173.974285820048,"[60, 0, 194]",194,a,0.054291223612381145,colour,0.5
142,22,0,2,14,41,691,1174.4906162344705,1175.0223215938458,"[17, 0, 237]",237,a,0.008708714158274233,colour,0.5
142,22,0,2,14,42,692,1175.5374322683929,1176.166277284632,"[90, 0, 164]",164,l,0.10555810679215938,colour,0.5
142,22,0,2,14,43,693,1176.6781722097803,1177.7823821830534,"[95, 0, 159]",159,l,0.5810089221777162,colour,0.5
142,22,0,2,14,44,694,1178.3030740437534,1178.8942733272706,"[13, 0, 241]",241,a,0.06785526646126527,colour,0.5
142,22,0,2,14,45,695,1179.4125123175181,1180.9343392412702,"[71, 0, 183]",183,l,0.9984876328526298,colour,0.5
142,22,0,2,14,46,696,1181.4437009514513,1182.3263396855327,"[75, 0, 179]",179,l,0.3596290919522289,colour,0.5
142,22,0,2,14,47,697,1182.834350111414,1184.0702805677283,"[83, 0, 171]",171,l,0.7125958915567026,colour,0.5
142,22,0,2,14,48,698,1184.57493070286,1185.4542989429901,"[48, 0, 206]",206,a,0.35619790900091175,colour,0.5
142,22,0,2,14,49,699,1185.9558601469907,1186.742307210603,"[99, 0, 155]",155,l,0.26322789561527316,colour,0.5
142,22,0,2,14,50,700,1187.2526893747417,1187.8382692690939,"[18, 0, 236]",236,a,0.0626163321576314,colour,0.5
142,22,0,2,15,1,701,1192.2535511089372,1193.0062637205847,"[83, 0, 171]",171,l,0.22859862641780637,colour,0.5
142,22,0,2,15,2,702,1193.5199734863127,1195.1262862012954,"[29, 0, 225]",225,a,1.0830210794083541,colour,0.5
142,22,0,2,15,3,703,1195.6449599970947,1196.5662940624607,"[60, 0, 194]",194,a,0.3979463314462919,colour,0.5
142,22,0,2,15,4,704,1197.082425978675,1198.006277899025,"[51, 0, 203]",203,a,0.40051617404969875,colour,0.5
142,22,0,2,15,5,705,1198.5199081079336,1199.438236343587,"[55, 0, 199]",199,a,0.3952906304912176,colour,0.5
142,22,0,2,15,6,706,1199.9574367109744,1200.8542625516566,"[53, 0, 201]",201,a,0.3736992264020955,colour,0.5
142,22,0,2,15,7,707,1201.363645529491,1202.2143067568832,"[48, 0, 206]",206,a,0.3356088419823209,colour,0.5
142,22,0,2,15,8,708,1202.7304575776943,1203.6062540319836,"[4, 0, 250]",250,a,0.35239532960986253,colour,0.5
142,22,0,2,15,9,709,1204.1211102822854,1204.9342443244823,"[8, 0, 246]",246,a,0.28983846816117875,colour,0.5
142,22,0,2,15,10,710,1205.4498035891884,1206.1583775293693,"[18, 0, 236]",236,a,0.18525906770082656,colour,0.5
142,22,0,2,15,11,711,1206.6686116075725,1207.3502228772268,"[73, 0, 181]",181,l,0.1584228216233896,colour,0.5
142,22,0,2,15,12,712,1207.8716665891989,1208.486297717347,"[67, 0, 187]",187,l,0.09220280213048682,colour,0.5
142,22,0,2,15,13,713,1208.9967251737398,1209.7502664365456,"[11, 0, 243]",243,a,0.23027128873218317,colour,0.5
142,22,0,2,15,14,714,1210.2623015707213,1210.8782465678232,"[93, 0, 161]",161,l,0.09264312151935883,colour,0.5
142,22,0,2,15,15,715,1211.3872951707308,1212.0062156714266,"[41, 0, 213]",213,a,0.10801570341573097,colour,0.5
142,22,0,2,15,16,716,1212.5154867971141,1214.4222505440848,"[76, 0, 178]",178,l,1.3834417852776824,colour,0.5
142,22,0,2,15,17,717,1214.9374490462214,1216.2863080360985,"[44, 0, 210]",210,a,0.8255862588848686,colour,0.5
142,22,0,2,15,18,718,1216.7967284032784,1219.0943130269152,"[61, 0, 193]",193,a,1.7742784157744609,colour,0.5
142,22,0,2,15,19,719,1219.6092960954848,1220.6062520627602,"[26, 0, 228]",228,a,0.4737320731364889,colour,0.5
142,22,0,2,15,20,720,1221.12485299712,1221.8062539532257,"[2, 0, 252]",252,a,0.1587461688759504,colour,0.5
142,22,0,2,15,21,721,1222.3124558400596,1223.142246006988,"[35, 0, 219]",219,a,0.3066166850330774,colour,0.5
142,22,0,2,15,22,722,1223.6561097663362,1224.7502309904376,"[38, 0, 216]",216,a,0.5709016622568015,colour,0.5
142,22,0,2,15,23,723,1225.2655496154766,1226.542330132419,"[88, 0, 166]",166,l,0.7537003764446126,colour,0.5
142,22,0,2,15,24,724,1227.063755333642,1228.0462422008713,"[92, 0, 162]",162,l,0.4590967702388298,colour,0.5
142,22,0,2,15,25,725,1228.5637175244628,1229.5662176564074,"[24, 0, 230]",230,a,0.48773801075003576,colour,0.5
142,22,0,2,15,26,726,1230.0877523467207,1231.3182733335707,"[98, 0, 156]",156,l,0.7070883545384277,colour,0.5
142,22,0,2,15,27,727,1231.8379490726074,1232.6382197233033,"[45, 0, 209]",209,a,0.276995950480341,colour,0.5
142,22,0,2,15,28,728,1233.1505017986929,1234.3663039873645,"[91, 0, 163]",163,l,0.6932525582233211,colour,0.5
142,22,0,2,15,29,729,1234.8849120109517,1239.5262226346094,"[63, 0, 191]",191,a,4.118031591133331,colour,0.5
142,22,0,2,15,30,730,1240.0410268972919,1241.358242361559,"[65, 0, 189]",189,a,0.7944082587928278,colour,0.5
142,22,0,2,15,31,731,1241.8691522788286,1242.846253701151,"[56, 0, 198]",198,a,0.45467861015640665,colour,0.5
142,22,0,2,15,32,732,1243.3535118819273,1245.9022167993971,"[64, 0, 190]",190,a,2.0254128880478675,colour,0.5
142,22,0,2,15,33,733,1246.4160301465163,1247.0381628519972,"[86, 0, 168]",168,l,0.09895804204279557,colour,0.5
142,22,0,2,15,34,734,1247.5566105804173,1248.1581802127184,"[27, 0, 227]",227,a,0.07829532591858879,colour,0.5
142,22,0,2,15,35,735,1248.666013408074,1249.1902648454125,"[30, 0, 224]",224,a,0.001306779740843922,colour,0.5
142,22,0,2,15,36,736,1249.7128889126907,1251.4861858651857,"[3, 0, 251]",251,a,1.250049821464927,colour,0.5
142,22,0,2,15,37,737,1251.9941100388824,1252.750205784323,"[49, 0, 205]",205,a,0.23279583909607027,colour,0.5
142,22,0,2,15,38,738,1253.2597151866066,1253.8622331991355,"[87, 0, 167]",167,l,0.07909640789148398,colour,0.5
142,22,0,2,15,39,739,1254.3690628758632,1255.174205790623,"[69, 0, 185]",185,a,0.28179299001931213,colour,0.5
142,22,0,2,15,40,740,1255.6816309619317,1256.7102009163937,"[20, 0, 234]",234,a,0.5053098265343579,colour,0.5
142,22,0,2,15,41,741,1257.2283950082347,1258.078199227588,"[81, 0, 173]",173,l,0.3262687933311099,colour,0.5
142,22,0,2,15,42,742,1258.5878476573562,1259.3341862716334,"[28, 0, 226]",226,a,0.22299892953014933,colour,0.5
142,22,0,2,15,43,743,1259.8534528050805,1260.7581736748834,"[19, 0, 235]",235,a,0.38135440355108585,colour,0.5
142,22,0,2,15,44,744,1261.27530083897,1261.9661631481722,"[59, 0, 195]",195,a,0.16751907984144054,colour,0.5
142,22,0,2,15,45,745,1262.4784601896827,1263.662173413366,"[32, 0, 222]",222,a,0.6603191882313695,colour,0.5
142,22,0,2,15,46,746,1264.1815360451437,1265.0061463546008,"[50, 0, 204]",204,a,0.30167234723921865,colour,0.5
142,22,0,2,15,47,747,1265.525373897326,1266.3582687492162,"[14, 0, 240]",240,a,0.3100466864707414,colour,0.5
142,22,0,2,15,48,748,1266.869017189776,1267.8301497479697,"[36, 0, 218]",218,a,0.43862743228964973,colour,0.5
142,22,0,2,15,49,749,1268.3378159527929,1268.9821706091898,"[9, 0, 245]",245,a,0.12094801789498888,colour,0.5
142,22,0,2,15,50,750,1269.4939139037742,1270.0541561345744,"[90, 0, 164]",164,a,0.0368092046410311,colour,0.5
142,22,0,2,16,1,751,1274.7119665262726,1275.4221520826832,"[96, 0, 158]",158,l,0.18613931264553685,colour,0.5
142,22,0,2,16,2,752,1275.9315527835715,1276.7581854902528,"[75, 0, 179]",179,l,0.3034848247334594,colour,0.5
142,22,0,2,16,3,753,1277.2752480636555,1277.8781524387305,"[76, 0, 178]",178,l,0.07957020416506566,colour,0.5
142,22,0,2,16,4,754,1278.384641045166,1280.4301392716734,"[82, 0, 172]",172,l,1.5221924124780344,colour,0.5
142,22,0,2,16,5,755,1280.9470844790922,1281.5101340414112,"[93, 0, 161]",161,l,0.03970396988734137,colour,0.5
142,22,0,2,16,6,756,1282.0252829189849,1282.68613694956,"[46, 0, 208]",208,a,0.13761162568698637,colour,0.5
142,22,0,2,16,7,757,1283.1970752237103,1283.8141395300481,"[80, 0, 174]",174,l,0.09364348938106559,colour,0.5
142,22,0,2,16,8,758,1284.322149562082,1288.2222100567596,"[13, 0, 241]",241,a,3.3767645267944317,colour,0.5
142,22,0,2,16,9,759,1288.7283351437072,1289.3741237919749,"[35, 0, 219]",219,a,0.12247101886896417,colour,0.5
142,22,0,2,16,10,760,1289.8845642452652,1290.4541335278336,"[86, 0, 168]",168,l,0.0462630746915238,colour,0.5
142,22,0,2,16,11,761,1290.9627835589927,1294.31016405244,"[10, 0, 244]",244,a,2.8242097684706096,colour,0.5
142,22,0,2,16,12,762,1294.8221215990343,1295.6301561282744,"[0, 0, 254]",254,a,0.2847318659769371,colour,0.5
142,22,0,2,16,13,763,1296.1502209867613,1296.734123098795,"[19, 0, 235]",235,a,0.061373355390969664,colour,0.5
142,22,0,2,16,14,764,1297.2440673066303,1297.8381605676987,"[78, 0, 176]",176,l,0.07091347764071543,colour,0.5
142,22,0,2,16,15,765,1298.3532535192062,1299.4621132337634,"[6, 0, 248]",248,a,0.585466466814978,colour,0.5
142,22,0,2,16,16,766,1299.9782644484221,1301.1581069574313,"[30, 0, 224]",224,a,0.6564591073984047,colour,0.5
142,22,0,2,16,17,767,1301.6658176667988,1302.6061181552504,"[5, 0, 249]",249,a,0.4169525329343742,colour,0.5
142,22,0,2,16,18,768,1303.1189114422305,1303.8061070488038,"[98, 0, 156]",156,l,0.16393154018442146,colour,0.5
142,22,0,2,16,19,769,1304.3220341653068,1306.022117581815,"[12, 0, 242]",242,a,1.176790993224131,colour,0.5
142,22,0,2,16,20,770,1306.5407208792458,1307.2300861812837,"[40, 0, 214]",214,a,0.16625522928370629,colour,0.5
142,22,0,2,16,21,771,1307.7438885007286,1310.286094571784,"[72, 0, 182]",182,l,2.0188876539759804,colour,0.5
142,22,0,2,16,22,772,1310.8063835284265,1312.0461145948939,"[66, 0, 188]",188,l,0.7165418307413347,colour,0.5
142,22,0,2,16,23,773,1312.5563829376624,1313.0861163120571,"[25, 0, 229]",229,a,0.006535080217872746,colour,0.5
142,22,0,2,16,24,774,1313.6032804976276,1314.2861678270565,"[77, 0, 177]",177,l,0.15955867235607002,colour,0.5
142,22,0,2,16,25,775,1314.8063697438338,1315.7101312057202,"[60, 0, 194]",194,a,0.3805836476822151,colour,0.5
142,22,0,2,16,26,776,1316.2282437715185,1316.894120121331,"[58, 0, 196]",196,a,0.14251579124538694,colour,0.5
142,22,0,2,16,27,777,1317.415765482263,1318.2621003156237,"[21, 0, 233]",233,a,0.3229943609185284,colour,0.5
142,22,0,2,16,28,778,1318.775133060728,1320.7180738901516,"[3, 0, 251]",251,a,1.4197098460572306,colour,0.5
142,22,0,2,16,29,779,1321.2282091131055,1322.006109333117,"[74, 0, 180]",180,l,0.25524543278152123,colour,0.5
142,22,0,2,16,30,780,1322.5250781192735,1323.1421376994404,"[47, 0, 207]",207,a,0.09377188303915318,colour,0.5
142,22,0,2,16,31,781,1323.650086291571,1324.7660998178035,"[67, 0, 187]",187,l,0.5927262229524786,colour,0.5
142,22,0,2,16,32,782,1325.275025934723,1325.8060775103804,"[84, 0, 170]",170,a,0.007730795492534526,colour,0.5
142,22,0,2,16,33,783,1326.322004626898,1328.5101163183572,"[28, 0, 226]",226,l,1.6648086343629984,colour,0.5
142,22,0,2,16,34,784,1329.0250659100566,1329.6060681368544,"[1, 0, 253]",253,a,0.05773225272423588,colour,0.5
142,22,0,2,16,35,785,1330.1188476392417,1330.7581197180261,"[70, 0, 184]",184,l,0.11603991388983559,colour,0.5
142,22,0,2,16,36,786,1331.2750747715763,1332.910096468535,"[97, 0, 157]",157,l,1.1115886707993923,colour,0.5
142,22,0,2,16,37,787,1333.431316870061,1334.1981130069034,"[42, 0, 212]",212,a,0.24358484576805495,colour,0.5
142,22,0,2,16,38,788,1334.712534451639,1335.3340629979648,"[92, 0, 162]",162,l,0.0981849231175147,colour,0.5
142,22,0,2,16,39,789,1335.8531156732352,1336.5260729732836,"[44, 0, 210]",210,a,0.14955026769894175,colour,0.5
142,22,0,2,16,40,790,1337.040753962283,1337.8380487155518,"[49, 0, 205]",205,a,0.2742882619058946,colour,0.5
142,22,0,2,16,41,791,1338.353219648474,1339.4140735215187,"[22, 0, 232]",232,a,0.5375996527873212,colour,0.5
142,22,0,2,16,42,792,1339.9312727593497,1340.8701172005676,"[53, 0, 201]",201,a,0.4156402393564349,colour,0.5
142,22,0,2,16,43,793,1341.3844535746612,1343.006100274666,"[33, 0, 221]",221,a,1.098407052049879,colour,0.5
142,22,0,2,16,44,794,1343.5250139224372,1344.5661298288323,"[8, 0, 246]",246,a,0.5178215138876112,colour,0.5
142,22,0,2,16,45,795,1345.087538094711,1345.7821057034307,"[64, 0, 190]",190,l,0.17131850846635643,colour,0.5
142,22,0,2,16,46,796,1346.2906312793639,1346.8700431575999,"[81, 0, 173]",173,l,0.056414445309201255,colour,0.5
142,22,0,2,16,47,797,1347.3843484178797,1348.0220285727119,"[57, 0, 197]",197,a,0.11434362085128669,colour,0.5
142,22,0,2,16,48,798,1348.5405924855731,1349.1500512393104,"[41, 0, 213]",213,a,0.08637191785965115,colour,0.5
142,22,0,2,16,49,799,1349.6656073532504,1350.2460904915351,"[59, 0, 195]",195,a,0.05712454894091934,colour,0.5
142,22,0,2,16,50,800,1350.7593378825113,1351.838114487764,"[38, 0, 216]",216,a,0.5554963911999948,colour,0.5
