id,age,condition,counterbalance,block,trialinblock,trial,tstart,tend,trialstim,trialintensity,response,RT,trialtype,colourfreq
117,19,1,1,Practice,1,NA,5.907611921429634e-06,1.1613005879335105,"[33, 0, 221]",221,a,0.6367909945547581,colour,0.5
117,19,1,1,Practice,2,NA,1.6740440484136343,2.3293284501414746,"[7, 0, 247]",247,a,0.13211939670145512,colour,0.5
117,19,1,1,Practice,3,NA,2.8457224641460925,4.537329656770453,"[51, 0, 203]",203,a,1.1684697568416595,colour,0.5
117,19,1,1,Practice,4,NA,5.048852196428925,5.929290562169626,"[77, 0, 177]",177,l,0.35781371663324535,colour,0.5
117,19,1,1,Practice,5,NA,6.439836364937946,7.049266915768385,"[85, 0, 169]",169,l,0.08647113293409348,colour,0.5
117,19,1,1,Practice,6,NA,7.564445522613823,9.169303921516985,"[98, 0, 156]",156,l,1.0792897548526525,colour,0.5
117,19,1,1,Practice,7,NA,9.676316930446774,10.209346188930795,"[46, 0, 208]",208,a,0.00977642578072846,colour,0.5
117,19,1,1,Practice,8,NA,10.723106952151284,11.809411882422864,"[64, 0, 190]",190,a,0.5651300263125449,colour,0.5
117,19,1,1,Practice,9,NA,12.330531647894531,13.737289720913395,"[17, 0, 237]",237,a,0.8836517508607358,colour,0.5
117,19,1,1,Practice,10,NA,14.255802229745314,14.841301548993215,"[6, 0, 248]",248,a,0.06225830200128257,colour,0.5
117,19,1,1,1,1,1,3.727673984132707,4.344022430246696,"[45, 0, 209]",209,a,0.09227326419204473,colour,0.5
117,19,1,1,1,2,2,4.8534048134461045,5.951960306614637,"[96, 0, 158]",158,l,0.5751226730644703,colour,0.5
117,19,1,1,1,3,3,6.464252813952044,7.336001767544076,"[58, 0, 196]",196,a,0.34847682248800993,colour,0.5
117,19,1,1,1,4,4,7.854808872565627,8.728011509636417,"[40, 0, 214]",214,a,0.35014357627369463,colour,0.5
117,19,1,1,1,5,5,9.245505927829072,10.128023009980097,"[95, 0, 159]",159,l,0.3592295912094414,colour,0.5
117,19,1,1,1,6,6,10.63607340794988,11.231963945785537,"[89, 0, 165]",165,l,0.07129272306337953,colour,0.5
117,19,1,1,1,7,7,11.746839685598388,12.304021910298616,"[57, 0, 197]",197,a,0.03388331225141883,colour,0.5
117,19,1,1,1,8,8,12.825585539685562,13.928139745723456,"[75, 0, 179]",179,l,0.5794533977750689,colour,0.5
117,19,1,1,1,9,9,14.435033025685698,15.151968813734129,"[99, 0, 155]",155,l,0.19361482001841068,colour,0.5
117,19,1,1,1,10,10,15.669445902574807,16.759988215984777,"[5, 0, 249]",249,a,0.5672311915550381,colour,0.5
117,19,1,1,1,11,11,17.278766570379958,17.879989381879568,"[93, 0, 161]",161,l,0.07787348655983806,colour,0.5
117,19,1,1,1,12,12,18.38814572431147,18.92794833681546,"[27, 0, 227]",227,a,0.016363097121939063,colour,0.5
117,19,1,1,1,13,13,19.43502633040771,20.167943185428157,"[63, 0, 191]",191,l,0.20968725928105414,colour,0.5
117,19,1,1,1,14,14,20.68728631408885,21.27195343794301,"[77, 0, 177]",177,l,0.061554500134661794,colour,0.5
117,19,1,1,1,15,15,21.780746628530324,22.808014124864712,"[9, 0, 245]",245,a,0.503701162757352,colour,0.5
117,19,1,1,1,16,16,23.32746831793338,24.183962849201635,"[25, 0, 229]",229,a,0.33322240016423166,colour,0.5
117,19,1,1,1,17,17,24.702499382430688,25.41593427816406,"[83, 0, 171]",171,l,0.19004500471055508,colour,0.5
117,19,1,1,1,18,18,25.92249003262259,26.911993263522163,"[66, 0, 188]",188,l,0.4662173152901232,colour,0.5
117,19,1,1,1,19,19,27.422528826398775,28.055936688324437,"[62, 0, 192]",192,a,0.11022040760144591,colour,0.5
117,19,1,1,1,20,20,28.563037131214514,29.191966970451176,"[34, 0, 220]",220,a,0.10408075083978474,colour,0.5
117,19,1,1,1,21,21,29.705264571588486,31.15197472134605,"[1, 0, 253]",253,a,0.9232749668881297,colour,0.5
117,19,1,1,1,22,22,31.65842531900853,32.2159474324435,"[55, 0, 199]",199,a,0.03449495416134596,colour,0.5
117,19,1,1,1,23,23,32.73661033739336,33.704036561306566,"[73, 0, 181]",181,l,0.4440678406972438,colour,0.5
117,19,1,1,1,24,24,34.22092130687088,34.90402222541161,"[37, 0, 217]",217,a,0.15982327377423644,colour,0.5
117,19,1,1,1,25,25,35.423949426971376,35.99995707068592,"[28, 0, 226]",226,l,0.051750111393630505,colour,0.5
117,19,1,1,1,26,26,36.51907728309743,37.343942479463294,"[49, 0, 205]",205,a,0.3013685734476894,colour,0.5
117,19,1,1,1,27,27,37.862929178169,38.56800194713287,"[23, 0, 231]",231,a,0.18184711155481637,colour,0.5
117,19,1,1,1,28,28,39.08222626638599,39.69588947435841,"[4, 0, 250]",250,a,0.09093694668263197,colour,0.5
117,19,1,1,1,29,29,40.20665701199323,40.79192278091796,"[80, 0, 174]",174,l,0.06211730535142124,colour,0.5
117,19,1,1,1,30,30,41.302067649085075,42.143920581787825,"[67, 0, 187]",187,l,0.3187084074597806,colour,0.5
117,19,1,1,1,31,31,42.66147880302742,43.631953784497455,"[21, 0, 233]",233,a,0.44718040130101144,colour,0.5
117,19,1,1,1,32,32,44.1458307323046,45.07989115687087,"[10, 0, 244]",244,a,0.4107792351860553,colour,0.5
117,19,1,1,1,33,33,45.60034571751021,46.55199685553089,"[22, 0, 232]",232,a,0.4283400163985789,colour,0.5
117,19,1,1,1,34,34,47.06905134837143,47.87188443611376,"[35, 0, 219]",219,a,0.2793797878548503,colour,0.5
117,19,1,1,1,35,35,48.38149761292152,49.08789370255545,"[98, 0, 156]",156,l,0.18317397683858871,colour,0.5
117,19,1,1,1,36,36,49.60031736060046,50.51987442630343,"[14, 0, 240]",240,a,0.39300932199694216,colour,0.5
117,19,1,1,1,37,37,51.04099655500613,52.00790093350224,"[13, 0, 241]",241,l,0.44365115207619965,colour,0.5
117,19,1,1,1,38,38,52.525267352117226,53.35990739893168,"[61, 0, 193]",193,l,0.31126866675913334,colour,0.5
117,19,1,1,1,39,39,53.87160874437541,54.55193187086843,"[84, 0, 170]",170,l,0.15690802945755422,colour,0.5
117,19,1,1,1,40,40,55.05919575947337,55.67986390274018,"[31, 0, 223]",223,a,0.09737198753282428,colour,0.5
117,19,1,1,1,41,41,56.19979307358153,56.751939590321854,"[64, 0, 190]",190,l,0.02873102598823607,colour,0.5
117,19,1,1,1,42,42,57.26225853804499,57.847923666238785,"[68, 0, 186]",186,l,0.06235833861865103,colour,0.5
117,19,1,1,1,43,43,58.356071738060564,58.87999607715756,"[44, 0, 210]",210,a,0.0006785956211388111,colour,0.5
117,19,1,1,1,44,44,59.402871211990714,59.98392716678791,"[20, 0, 234]",234,a,0.057904734276235104,colour,0.5
117,19,1,1,1,45,45,60.49671907024458,61.30397858726792,"[85, 0, 169]",169,l,0.2829295170959085,colour,0.5
117,19,1,1,1,46,46,61.81041303742677,63.255865638609976,"[39, 0, 215]",215,a,0.9221154856495559,colour,0.5
117,19,1,1,1,47,47,63.7635355819948,64.38383114733733,"[94, 0, 160]",160,l,0.09767249156720936,colour,0.5
117,19,1,1,1,48,48,64.90662711928599,65.46389914071187,"[0, 0, 254]",254,a,0.03444099728949368,colour,0.5
117,19,1,1,1,49,49,65.98462781799026,66.5598840045277,"[71, 0, 183]",183,l,0.05194939719513059,colour,0.5
117,19,1,1,1,50,50,67.07847843319178,68.05583310709335,"[24, 0, 230]",230,a,0.4574180201161653,colour,0.5
117,19,1,1,2,1,51,74.02840728498995,75.4478794769384,"[73, 0, 181]",181,a,0.8959472121205181,colour,0.5
117,19,1,1,2,2,52,75.95529932831414,76.59987743524835,"[36, 0, 218]",218,a,0.12110393308103085,colour,0.5
117,19,1,1,2,3,53,77.10948391654529,78.00785170285963,"[93, 0, 161]",161,l,0.3748778586741537,colour,0.5
117,19,1,1,2,4,54,78.51458665705286,79.3998382082209,"[84, 0, 170]",170,l,0.36194633692502975,colour,0.5
117,19,1,1,2,5,55,79.90967705845833,80.4958797856234,"[15, 0, 239]",239,a,0.06289318087510765,colour,0.5
117,19,1,1,2,6,56,81.00330712017603,81.97582891653292,"[90, 0, 164]",164,l,0.44903462566435337,colour,0.5
117,19,1,1,2,7,57,82.48770276620053,83.02388948365115,"[1, 0, 253]",253,a,0.012818488059565425,colour,0.5
117,19,1,1,2,8,58,83.5556454397738,84.54385488829575,"[99, 0, 155]",155,l,0.4701959420926869,colour,0.5
117,19,1,1,2,9,59,85.05016173259355,85.62383820512332,"[80, 0, 174]",174,l,0.05039291991852224,colour,0.5
117,19,1,1,2,10,60,86.14530770550482,86.69585363427177,"[45, 0, 209]",209,a,0.027185970218852162,colour,0.5
117,19,1,1,2,11,61,87.20787084382027,87.74382913089357,"[30, 0, 224]",224,a,0.012616445310413837,colour,0.5
117,19,1,1,2,12,62,88.25469670537859,89.19987656874582,"[52, 0, 202]",202,a,0.4216493696440011,colour,0.5
117,19,1,1,2,13,63,89.70788009907119,90.61578918551095,"[4, 0, 250]",250,a,0.3846160816028714,colour,0.5
117,19,1,1,2,14,64,91.12972402852029,91.87980663753115,"[44, 0, 210]",210,a,0.22691681631840765,colour,0.5
117,19,1,1,2,15,65,92.3966854752507,93.02382686221972,"[67, 0, 187]",187,l,0.10378064052201807,colour,0.5
117,19,1,1,2,16,66,93.53731114603579,94.11182808480226,"[76, 0, 178]",178,l,0.05121369380503893,colour,0.5
117,19,1,1,2,17,67,94.63107353984378,95.31982889771461,"[63, 0, 191]",191,l,0.16586880153045058,colour,0.5
117,19,1,1,2,18,68,95.83414419530891,96.6718550552614,"[9, 0, 245]",245,a,0.3147148145362735,colour,0.5
117,19,1,1,2,19,69,97.1934557063505,98.8398588928394,"[41, 0, 213]",213,l,1.1230290494859219,colour,0.5
117,19,1,1,2,20,70,99.35110140847974,99.99991099070758,"[26, 0, 228]",228,a,0.12532950076274574,colour,0.5
117,19,1,1,2,21,71,100.50737967900932,101.15985911339521,"[5, 0, 249]",249,a,0.12911790027283132,colour,0.5
117,19,1,1,2,22,72,101.67929361434653,102.69579692045227,"[47, 0, 207]",207,a,0.493806189391762,colour,0.5
117,19,1,1,2,23,73,103.21050251903944,104.07982144621201,"[35, 0, 219]",219,a,0.34607515297830105,colour,0.5
117,19,1,1,2,24,74,104.58680570451543,105.3677976988256,"[58, 0, 196]",196,a,0.2576198265887797,colour,0.5
117,19,1,1,2,25,75,105.88369152904488,106.65577985928394,"[18, 0, 236]",236,a,0.2486354240681976,colour,0.5
117,19,1,1,2,26,76,107.16485661850311,107.86383344745263,"[49, 0, 205]",205,a,0.17596384813077748,colour,0.5
117,19,1,1,2,27,77,108.38505443139002,108.92780655249953,"[79, 0, 175]",175,l,0.01940082712098956,colour,0.5
117,19,1,1,2,28,78,109.4475198960863,110.07983247376978,"[66, 0, 188]",188,l,0.10902626835741103,colour,0.5
117,19,1,1,2,29,79,110.58888323931023,111.19179485994391,"[70, 0, 184]",184,l,0.07952369912527502,colour,0.5
117,19,1,1,2,30,80,111.69827696541324,112.2318134966772,"[69, 0, 185]",185,l,0.010211624903604388,colour,0.5
117,19,1,1,2,31,81,112.74510400858708,113.43980170646682,"[37, 0, 217]",217,a,0.1713401023298502,colour,0.5
117,19,1,1,2,32,82,113.94829439301975,114.47240423341282,"[20, 0, 234]",234,a,0.0012331302277743816,colour,0.5
117,19,1,1,2,33,83,114.99507850711234,115.51986221689731,"[85, 0, 169]",169,l,0.001764427637681365,colour,0.5
117,19,1,1,2,34,84,116.02772632613778,116.60775040579028,"[68, 0, 186]",186,l,0.05678424402140081,colour,0.5
117,19,1,1,2,35,85,117.12137726158835,118.51181004662067,"[92, 0, 162]",162,l,0.8670350171159953,colour,0.5
117,19,1,1,2,36,86,119.02889841026627,119.71179334749468,"[65, 0, 189]",189,l,0.1596330462489277,colour,0.5
117,19,1,1,2,37,87,120.23214472085238,120.8317736396566,"[48, 0, 206]",206,a,0.07674157479777932,colour,0.5
117,19,1,1,2,38,88,121.34144313633442,121.93578271055594,"[50, 0, 204]",204,a,0.07114699995145202,colour,0.5
117,19,1,1,2,39,89,122.45061552128755,123.67973157064989,"[60, 0, 194]",194,a,0.705692287767306,colour,0.5
117,19,1,1,2,40,90,124.2006725303363,125.2797811164055,"[31, 0, 223]",223,l,0.5557257842738181,colour,0.5
117,19,1,1,2,41,91,125.7946997852996,126.66376940812916,"[32, 0, 222]",222,l,0.3463563583791256,colour,0.5
117,19,1,1,2,42,92,127.16971824667417,127.79174318746664,"[98, 0, 156]",156,a,0.09889420005492866,colour,0.5
117,19,1,1,2,43,93,128.31035809591413,128.9198851387482,"[34, 0, 220]",220,l,0.08655580971390009,colour,0.5
117,19,1,1,2,44,94,129.43530399142765,132.02374454867095,"[57, 0, 197]",197,l,2.065098715480417,colour,0.5
117,19,1,1,2,45,95,132.53008605120704,133.3357315894682,"[83, 0, 171]",171,l,0.28229818283580244,colour,0.5
117,19,1,1,2,46,96,133.8424582730513,134.4477892862633,"[39, 0, 215]",215,a,0.08196751005016267,colour,0.5
117,19,1,1,2,47,97,134.9689527687151,135.51977202645503,"[8, 0, 246]",246,a,0.027313970029354095,colour,0.5
117,19,1,1,2,48,98,136.03154505160637,136.57579378550872,"[19, 0, 235]",235,a,0.02111287321895361,colour,0.5
117,19,1,1,2,49,99,137.09398924862035,137.62373265437782,"[87, 0, 167]",167,l,0.00638108397834003,colour,0.5
117,19,1,1,2,50,100,138.1409021501895,138.76774736540392,"[7, 0, 247]",247,a,0.10350061650387943,colour,0.5
117,19,1,1,3,1,101,146.00084873684682,147.1517281739507,"[48, 0, 206]",206,l,0.6267483290284872,colour,0.5
117,19,1,1,3,2,102,147.6593000497669,148.5437284638174,"[2, 0, 252]",252,a,0.3612066952046007,colour,0.5
117,19,1,1,3,3,103,149.04977182555012,149.61576713016257,"[82, 0, 172]",172,l,0.04266370297409594,colour,0.5
117,19,1,1,3,4,104,150.12790209939703,151.2957007435616,"[12, 0, 242]",242,a,0.6444465625099838,colour,0.5
117,19,1,1,3,5,105,151.81540345330723,152.4477148493752,"[3, 0, 251]",251,a,0.10918380646035075,colour,0.5
117,19,1,1,3,6,106,152.9559846194461,153.9117219040636,"[7, 0, 247]",247,a,0.4322816214989871,colour,0.5
117,19,1,1,3,7,107,154.42480722232722,154.96771018626168,"[67, 0, 187]",187,l,0.01959814364090562,colour,0.5
117,19,1,1,3,8,108,155.48731089010835,156.03972404031083,"[8, 0, 246]",246,a,0.02766646188683808,colour,0.5
117,19,1,1,3,9,109,156.5511087339837,157.19169915560633,"[93, 0, 161]",161,l,0.11728757061064243,colour,0.5
117,19,1,1,3,10,110,157.70751185365953,158.59169765887782,"[21, 0, 233]",233,a,0.36098141549155116,colour,0.5
117,19,1,1,3,11,111,159.09798441710882,159.79174555046484,"[58, 0, 196]",196,l,0.17057840526103973,colour,0.5
117,19,1,1,3,12,112,160.30109957698733,161.05568068893626,"[19, 0, 235]",235,a,0.2313345808070153,colour,0.5
117,19,1,1,3,13,113,161.566743216943,162.94375886884518,"[45, 0, 209]",209,l,0.8535489612258971,colour,0.5
117,19,1,1,3,14,114,163.45732586015947,164.26367520028725,"[24, 0, 230]",230,a,0.28075430868193507,colour,0.5
117,19,1,1,3,15,115,164.77201507473364,165.43971151602454,"[23, 0, 231]",231,a,0.14505525073036551,colour,0.5
117,19,1,1,3,16,116,165.95959106227383,167.32764712371863,"[75, 0, 179]",179,l,0.8449091732036322,colour,0.5
117,19,1,1,3,17,117,167.8345549760852,168.6636740975082,"[4, 0, 250]",250,a,0.30585486721247435,colour,0.5
117,19,1,1,3,18,118,169.17824972700328,169.9757005230058,"[54, 0, 200]",200,l,0.2743291137740016,colour,0.5
117,19,1,1,3,19,119,170.49202285706997,171.3916399211157,"[41, 0, 213]",213,a,0.37619763473048806,colour,0.5
117,19,1,1,3,20,120,171.89840598916635,172.43172945012338,"[73, 0, 181]",181,l,0.01015648664906621,colour,0.5
117,19,1,1,3,21,121,172.9453232230153,173.91977722523734,"[1, 0, 253]",253,a,0.45118896034546196,colour,0.5
117,19,1,1,3,22,122,174.4309681467712,175.07969896006398,"[16, 0, 238]",238,a,0.125509882112965,colour,0.5
117,19,1,1,3,23,123,175.58732242975384,176.1996961873956,"[40, 0, 214]",214,a,0.09741215966641903,colour,0.5
117,19,1,1,3,24,124,176.71955840452574,177.5436882916838,"[42, 0, 212]",212,a,0.3081947029568255,colour,0.5
117,19,1,1,3,25,125,178.05667987489142,178.79166008601896,"[17, 0, 237]",237,a,0.21281557367183268,colour,0.5
117,19,1,1,3,26,126,179.30727704288438,180.2476795609109,"[99, 0, 155]",155,l,0.41737850941717625,colour,0.5
117,19,1,1,3,27,127,180.7603659138549,182.3597191409208,"[55, 0, 199]",199,l,1.0760361975990236,colour,0.5
117,19,1,1,3,28,128,182.8718611993827,183.71165077551268,"[74, 0, 180]",180,l,0.3163417901378125,colour,0.5
117,19,1,1,3,29,129,184.23120618704706,184.76768553163856,"[79, 0, 175]",175,l,0.013258019695058465,colour,0.5
117,19,1,1,3,30,130,185.27813326683827,185.89564395090565,"[90, 0, 164]",164,l,0.09412473160773516,colour,0.5
117,19,1,1,3,31,131,186.40316541469656,186.95962926535867,"[38, 0, 216]",216,a,0.03309089527465403,colour,0.5
117,19,1,1,3,32,132,187.4811535102781,188.0876818136312,"[85, 0, 169]",169,l,0.08327113837003708,colour,0.5
117,19,1,1,3,33,133,188.60625261161476,189.16765685961582,"[9, 0, 245]",245,a,0.038153778528794646,colour,0.5
117,19,1,1,3,34,134,189.68435571016744,190.3516330998391,"[60, 0, 194]",194,l,0.14387253276072443,colour,0.5
117,19,1,1,3,35,135,190.87401710939594,191.4476593171712,"[65, 0, 189]",189,a,0.05008217575959861,colour,0.5
117,19,1,1,3,36,136,191.9682458161842,192.61568599799648,"[66, 0, 188]",188,l,0.12398294336162508,colour,0.5
117,19,1,1,3,37,137,193.12450242531486,194.5757035948336,"[71, 0, 183]",183,l,0.9278073401656002,colour,0.5
117,19,1,1,3,38,138,195.09195503685623,196.14364725304767,"[80, 0, 174]",174,l,0.5282302515115589,colour,0.5
117,19,1,1,3,39,139,196.6546329811681,197.29565820819698,"[81, 0, 173]",173,l,0.11777908983640373,colour,0.5
117,19,1,1,3,40,140,197.81084941816516,198.87967548705637,"[62, 0, 192]",192,l,0.5453077843412757,colour,0.5
117,19,1,1,3,41,141,199.3888920613099,199.9517003686633,"[0, 0, 254]",254,a,0.039445197908207774,colour,0.5
117,19,1,1,3,42,142,200.46742366370745,201.03965275431983,"[20, 0, 234]",234,a,0.04883211036212742,colour,0.5
117,19,1,1,3,43,143,201.5612522235606,202.27164545073174,"[64, 0, 190]",190,l,0.18704587151296437,colour,0.5
117,19,1,1,3,44,144,202.77993963914923,203.43965913448483,"[78, 0, 176]",176,l,0.13636977667920291,colour,0.5
117,19,1,1,3,45,145,203.95419734879397,204.5116434500087,"[32, 0, 222]",222,a,0.03413734259083867,colour,0.5
117,19,1,1,3,46,146,205.03234731475823,205.62366806389764,"[51, 0, 203]",203,a,0.06810848251916468,colour,0.5
117,19,1,1,3,47,147,206.14034170797095,207.23163862945512,"[31, 0, 223]",223,a,0.5677321632392704,colour,0.5
117,19,1,1,3,48,148,207.75061666336842,208.7676646579057,"[49, 0, 205]",205,a,0.49361596209928393,colour,0.5
117,19,1,1,3,49,149,209.28329736855812,210.11167566664517,"[50, 0, 204]",204,a,0.30506599484942853,colour,0.5
117,19,1,1,3,50,150,210.6269822733011,211.35962343635038,"[69, 0, 185]",185,l,0.20921306917443871,colour,0.5
117,19,1,1,4,1,151,216.0024717738852,216.7355887023732,"[87, 0, 167]",167,l,0.20881922380067408,colour,0.5
117,19,1,1,4,2,152,217.25329146487638,218.8715831444133,"[55, 0, 199]",199,l,1.0948505888227373,colour,0.5
117,19,1,1,4,3,153,219.37823460344225,220.23158112796955,"[75, 0, 179]",179,l,0.33027801173739135,colour,0.5
117,19,1,1,4,4,154,220.75321052968502,221.35952694434673,"[80, 0, 174]",174,l,0.08086946909315884,colour,0.5
117,19,1,1,4,5,155,221.88046357175335,222.855619012611,"[84, 0, 170]",170,l,0.4523216597735882,colour,0.5
117,19,1,1,4,6,156,223.3646268490702,223.92757890978828,"[29, 0, 225]",225,a,0.03971852664835751,colour,0.5
117,19,1,1,4,7,157,224.44281580578536,225.00778159848414,"[32, 0, 222]",222,a,0.04195517487823963,colour,0.5
117,19,1,1,4,8,158,225.5209563197568,226.51158161624335,"[6, 0, 248]",248,a,0.46842088061384857,colour,0.5
117,19,1,1,4,9,159,227.00743540818803,227.80758404545486,"[20, 0, 234]",234,a,0.276945035206154,colour,0.5
117,19,1,1,4,10,160,228.3198978207074,228.86359438323416,"[83, 0, 171]",171,l,0.02030745940282941,colour,0.5
117,19,1,1,4,11,161,229.38269687234424,230.39160486892797,"[16, 0, 238]",238,a,0.4861210831440985,colour,0.5
117,19,1,1,4,12,162,230.89929332304746,231.89565852330998,"[71, 0, 183]",183,l,0.4730387185700238,colour,0.5
117,19,1,1,4,13,163,232.41477952315472,233.24759764107876,"[44, 0, 210]",210,a,0.3093793902080506,colour,0.5
117,19,1,1,4,14,164,233.75862275389954,234.49557101074606,"[14, 0, 240]",240,a,0.21356112300418317,colour,0.5
117,19,1,1,4,15,165,235.00861221854575,235.72754440899007,"[22, 0, 232]",232,a,0.1955261519178748,colour,0.5
117,19,1,1,4,16,166,236.2443905575201,236.89558172342367,"[41, 0, 213]",213,a,0.12792691169306636,colour,0.5
117,19,1,1,4,17,167,237.41625014226884,237.97560678771697,"[34, 0, 220]",220,a,0.03593012713827193,colour,0.5
117,19,1,1,4,18,168,238.49434181908146,239.22360536362976,"[62, 0, 192]",192,l,0.2059295796789229,colour,0.5
117,19,1,1,4,19,169,239.74435018841177,240.63952113105915,"[18, 0, 236]",236,a,0.37177908257581294,colour,0.5
117,19,1,1,4,20,170,241.1504922870081,241.84755896544084,"[11, 0, 243]",243,a,0.17365630762651563,colour,0.5
117,19,1,1,4,21,171,242.35503395530395,243.2796507535968,"[49, 0, 205]",205,l,0.40120957838371396,colour,0.5
117,19,1,1,4,22,172,243.7925411183387,244.69560354249552,"[42, 0, 212]",212,a,0.37986630527302623,colour,0.5
117,19,1,1,4,23,173,245.21447760122828,245.79151515103877,"[0, 0, 254]",254,a,0.05381740629673004,colour,0.5
117,19,1,1,4,24,174,246.30818052450195,246.90355788148008,"[68, 0, 186]",186,l,0.07254948373883963,colour,0.5
117,19,1,1,4,25,175,247.41757070599124,248.44754707138054,"[4, 0, 250]",250,a,0.5066664251498878,colour,0.5
117,19,1,1,4,26,176,248.9644282720983,249.68761281203479,"[46, 0, 208]",208,a,0.19994627963751554,colour,0.5
117,19,1,1,4,27,177,250.19869148777798,252.00754371564835,"[61, 0, 193]",193,l,1.285612785955891,colour,0.5
117,19,1,1,4,28,178,252.52824403601699,253.35154921072535,"[17, 0, 237]",237,a,0.30011968966573477,colour,0.5
117,19,1,1,4,29,179,253.87214004178531,254.95956309931353,"[93, 0, 161]",161,l,0.5643576951697469,colour,0.5
117,19,1,1,4,30,180,255.46609443542548,256.7996484534815,"[57, 0, 197]",197,l,0.8104291851632297,colour,0.5
117,19,1,1,4,31,181,257.3112517313566,258.3275707177818,"[59, 0, 195]",195,l,0.49294603103771806,colour,0.5
117,19,1,1,4,32,182,258.8429033183493,259.719572189264,"[40, 0, 214]",214,a,0.35358578572049737,colour,0.5
117,19,1,1,4,33,183,260.2323243143037,260.81550388387404,"[82, 0, 172]",172,l,0.059953124495223165,colour,0.5
117,19,1,1,4,34,184,261.32618241244927,261.93554364633746,"[72, 0, 182]",182,l,0.0860449920874089,colour,0.5
117,19,1,1,4,35,185,262.45134492311627,263.079540634295,"[43, 0, 211]",211,a,0.10499486629851162,colour,0.5
117,19,1,1,4,36,186,263.59184259409085,264.11953760962933,"[92, 0, 162]",162,l,0.004951031180098653,colour,0.5
117,19,1,1,4,37,187,264.6386519141961,265.79952990589663,"[88, 0, 166]",166,l,0.637349073542282,colour,0.5
117,19,1,1,4,38,188,266.31156405084766,267.18351977318525,"[19, 0, 235]",235,a,0.3474260428920388,colour,0.5
117,19,1,1,4,39,189,267.703567097662,268.3275376348756,"[77, 0, 177]",177,l,0.10064760013483465,colour,0.5
117,19,1,1,4,40,190,268.8442388481926,269.8075765625108,"[52, 0, 202]",202,a,0.43996318336576223,colour,0.5
117,19,1,1,4,41,191,270.32861716509797,270.8635337310843,"[45, 0, 209]",209,a,0.0116700348444283,colour,0.5
117,19,1,1,4,42,192,271.3755966264289,272.47953204857185,"[35, 0, 219]",219,a,0.5806896786671132,colour,0.5
117,19,1,1,4,43,193,273.000492306659,274.00749251572415,"[60, 0, 194]",194,l,0.4837150811217725,colour,0.5
117,19,1,1,4,44,194,274.5161002052482,275.4315301643219,"[64, 0, 190]",190,l,0.39204440056346357,colour,0.5
117,19,1,1,4,45,195,275.94020008132793,276.91148441517726,"[76, 0, 178]",178,l,0.4480945165269077,colour,0.5
117,19,1,1,4,46,196,277.424620145699,278.0394987605978,"[98, 0, 156]",156,l,0.09165256377309561,colour,0.5
117,19,1,1,4,47,197,278.54948805994354,279.35948992264457,"[66, 0, 188]",188,l,0.2866320579778403,colour,0.5
117,19,1,1,4,48,198,279.87759598298,280.7354827579111,"[50, 0, 204]",204,a,0.3348257450852543,colour,0.5
117,19,1,1,4,49,199,281.2540118081961,281.8555154313799,"[10, 0, 244]",244,a,0.0780924647115171,colour,0.5
117,19,1,1,4,50,200,282.3758829522412,283.10346910892986,"[9, 0, 245]",245,a,0.20117074507288635,colour,0.5
117,19,1,1,5,1,201,287.63486430235207,288.2154752118513,"[30, 0, 224]",224,a,0.05688309925608337,colour,0.4
117,19,1,1,5,2,202,288.7293616118841,289.6554553306196,"[12, 0, 242]",242,a,0.40271170483902097,colour,0.4
117,19,1,1,5,3,203,290.1672090573702,290.89547577896155,"[23, 0, 231]",231,a,0.20478782174177468,colour,0.4
117,19,1,1,5,4,204,291.40163690038025,292.2074423399754,"[8, 0, 246]",246,a,0.28242697031237185,colour,0.4
117,19,1,1,5,5,205,292.7141237312462,293.48753695725463,"[88, 0, 166]",166,l,0.25012415973469615,colour,0.4
117,19,1,1,5,6,206,293.99535026052035,294.6634582702536,"[59, 0, 195]",195,l,0.14489574334584177,colour,0.4
117,19,1,1,5,7,207,295.1828947402537,296.26347040059045,"[21, 0, 233]",233,a,0.5572641445323825,colour,0.4
117,19,1,1,5,8,208,296.7780231870711,298.1114712608978,"[46, 0, 208]",208,a,0.8101948471739888,colour,0.4
117,19,1,1,5,9,209,298.6216228243429,299.47158700414,"[70, 0, 184]",184,l,0.3268491930793971,colour,0.4
117,19,1,1,5,10,210,299.9810867533088,300.5594373836648,"[95, 0, 159]",159,l,0.055186806712299585,colour,0.4
117,19,1,1,5,11,211,301.07479637186043,301.6314855022356,"[58, 0, 196]",196,a,0.03335004555992782,colour,0.4
117,19,1,1,5,12,212,302.1532157282345,302.83945047529414,"[54, 0, 200]",200,a,0.16287478827871382,colour,0.4
117,19,1,1,5,13,213,303.357704621274,303.93558657565154,"[93, 0, 161]",161,l,0.05507416697219014,colour,0.4
117,19,1,1,5,14,214,304.4515733534936,305.0074330451898,"[86, 0, 168]",168,l,0.03257495770230889,colour,0.4
117,19,1,1,5,15,215,305.5139647752512,306.51149457646534,"[64, 0, 190]",190,l,0.47422576881945133,colour,0.4
117,19,1,1,5,16,216,307.03067741007544,307.6874249477405,"[56, 0, 198]",198,a,0.1334714679978788,colour,0.4
117,19,1,1,5,17,217,308.2026898066979,308.7514394065365,"[17, 0, 237]",237,a,0.02532898890785873,colour,0.4
117,19,1,1,5,18,218,309.26510997931473,310.27143198647536,"[50, 0, 204]",204,a,0.4830880791414529,colour,0.4
117,19,1,1,5,19,219,310.7808210651856,311.3274494134821,"[52, 0, 202]",202,a,0.023342826403677464,colour,0.4
117,19,1,1,5,20,220,311.84345982200466,312.5354518017266,"[74, 0, 180]",180,l,0.16902862349525094,colour,0.4
117,19,1,1,5,21,221,313.0465895542875,313.65543524431996,"[41, 0, 213]",213,a,0.08555741142481565,colour,0.4
117,19,1,1,5,22,222,314.1729548687581,314.783450771356,"[45, 0, 209]",209,a,0.08753806026652455,colour,0.4
117,19,1,1,5,23,223,315.29784523206763,316.25546115939505,"[42, 0, 212]",212,a,0.43461712496355176,colour,0.4
117,19,1,1,5,24,224,316.76658315816894,317.54342717211694,"[60, 0, 194]",194,l,0.25341119384393096,colour,0.4
117,19,1,1,5,25,225,318.06349379499443,318.8315511168912,"[48, 0, 206]",206,a,0.2448190615978092,colour,0.4
117,19,1,1,5,26,226,319.34482036111876,319.8874499963131,"[0, 0, 254]",254,a,0.01718623423948884,colour,0.4
117,19,1,1,5,27,227,320.3937926804647,321.03141705179587,"[61, 0, 193]",193,l,0.11418012995272875,colour,0.4
117,19,1,1,5,28,228,321.55000714818016,322.0876058016438,"[65, 0, 189]",189,l,0.014178830431774259,colour,0.4
117,19,1,1,5,29,229,322.596970068058,323.183403194882,"[9, 0, 245]",245,a,0.06310270656831563,colour,0.4
117,19,1,1,5,30,230,323.6906855942216,324.61543748155236,"[62, 0, 192]",192,l,0.39998078043572605,colour,0.4
117,19,1,1,5,31,231,325.12974096369,325.727430193685,"[72, 0, 182]",182,l,0.07446160330437124,colour,0.4
117,19,1,1,5,32,232,326.23898817948066,326.9513931691181,"[51, 0, 203]",203,a,0.18906236020848155,colour,0.4
117,19,1,1,5,33,233,327.4578303762246,328.0794516252354,"[13, 0, 241]",241,a,0.09821521048434079,colour,0.4
117,19,1,1,5,34,234,328.59848282835446,329.2955715621356,"[63, 0, 191]",191,l,0.17432860168628395,colour,0.4
117,19,1,1,5,35,235,329.80158971762285,330.91940346569754,"[14, 0, 240]",240,a,0.594475450925529,colour,0.4
117,19,1,1,5,36,236,331.42715651053004,332.239406443201,"[39, 0, 215]",215,a,0.2891896904911846,colour,0.4
117,19,1,1,5,37,237,332.7552163845394,333.38344202796,"[73, 0, 181]",181,l,0.10473610972985625,colour,0.4
117,19,1,1,5,38,238,333.89588459045626,334.89536077622324,"[57, 0, 197]",197,a,0.4762103562243283,colour,0.4
117,19,1,1,5,39,239,335.4140138877556,335.9993820562959,"[47, 0, 207]",207,a,0.06199915148317814,colour,0.4
117,19,1,1,5,40,240,336.5077447737567,337.07141402713023,"[71, 0, 183]",183,l,0.04030417464673519,colour,0.4
117,19,1,1,5,41,241,337.5858175463509,338.5193628210109,"[22, 0, 232]",232,a,0.41025423910468817,colour,0.4
117,19,1,1,5,42,242,339.03898046002723,339.759425410768,"[53, 0, 201]",201,a,0.20361258671618998,colour,0.4
117,19,1,1,5,43,243,340.26688819145784,340.8314542309381,"[6, 0, 248]",248,a,0.041163545567542315,colour,0.4
117,19,1,1,5,44,244,341.352896949742,342.2793912093621,"[7, 0, 247]",247,a,0.4031725039239973,colour,0.4
117,19,1,1,5,45,245,342.7903013192117,343.36734713963233,"[76, 0, 178]",178,l,0.05365238501690328,colour,0.4
117,19,1,1,5,46,246,343.8841149129439,344.42338347109035,"[69, 0, 185]",185,l,0.015933411894366145,colour,0.4
117,19,1,1,5,47,247,344.93347950233147,345.9753822959028,"[96, 0, 158]",158,l,0.5185999425593764,colour,0.4
117,19,1,1,5,48,248,346.4877716891933,347.2393583941739,"[98, 0, 156]",156,l,0.23658493463881314,colour,0.4
117,19,1,1,5,49,249,347.76072155637667,348.5273878159933,"[92, 0, 162]",162,l,0.24352212832309306,colour,0.4
117,19,1,1,5,50,250,349.0420351254288,349.60736798192374,"[77, 0, 177]",177,l,0.04206466395407915,colour,0.4
117,19,1,1,6,1,251,356.54401715262793,357.91936526284553,"[48, 0, 206]",206,a,0.8515679184347391,colour,0.28
117,19,1,1,6,2,252,358.4354568035342,359.00737987598404,"[96, 0, 158]",158,l,0.048607224598526955,colour,0.28
117,19,1,1,6,3,253,359.51355556980707,360.3433694343548,"[64, 0, 190]",190,l,0.30558114452287555,colour,0.28
117,19,1,1,6,4,254,360.8482710379176,361.43933066749014,"[22, 0, 232]",232,a,0.06782609526999295,colour,0.28
117,19,1,1,6,5,255,361.953781447839,362.5113260105718,"[82, 0, 172]",172,l,0.03430827148258686,colour,0.28
117,19,1,1,6,6,256,363.031522996258,363.903373955749,"[55, 0, 199]",199,l,0.34908570745028555,colour,0.28
117,19,1,1,6,7,257,364.42197507969104,364.98336948174983,"[92, 0, 162]",162,l,0.04687863704748452,colour,0.28
117,19,1,1,6,8,258,365.49122413853183,366.21535193827003,"[57, 0, 197]",197,l,0.20072924438863993,colour,0.28
117,19,1,1,6,9,259,366.7255810892675,367.9433425741736,"[88, 0, 166]",166,l,0.6947036057244986,colour,0.28
117,19,1,1,6,10,260,368.4600359108299,369.25539971957915,"[75, 0, 179]",179,l,0.2720066071487963,colour,0.28
117,19,1,1,6,11,261,369.77245066780597,370.4393180643674,"[41, 0, 213]",213,a,0.14362007775343955,colour,0.28
117,19,1,1,6,12,262,370.9599593076855,371.50333724939264,"[62, 0, 192]",192,l,0.020399225410073996,colour,0.28
117,19,1,1,6,13,263,372.02248345548287,372.8237722753547,"[9, 0, 245]",245,a,0.2780320488382131,colour,0.28
117,19,1,1,6,14,264,373.3350356644951,373.927375291707,"[7, 0, 247]",247,a,0.06905331765301526,colour,0.28
117,19,1,1,6,15,265,374.44432896003127,375.1753663844429,"[69, 0, 185]",185,l,0.20622693304903805,colour,0.28
117,19,1,1,6,16,266,375.69576423149556,376.25532528269105,"[81, 0, 173]",173,l,0.03667016257531941,colour,0.28
117,19,1,1,6,17,267,376.77383897290565,377.7913442219142,"[76, 0, 178]",178,l,0.4940791241824627,colour,0.28
117,19,1,1,6,18,268,378.30508214235306,379.1433372965548,"[93, 0, 161]",161,l,0.3150779400020838,colour,0.28
117,19,1,1,6,19,269,379.6645240159705,380.26334437006153,"[52, 0, 202]",202,a,0.07424892694689333,colour,0.28
117,19,1,1,6,20,270,380.7752190073952,381.6793073990848,"[99, 0, 155]",155,l,0.3807307961396873,colour,0.28
117,19,1,1,6,21,271,382.19720708415844,383.2152857722249,"[53, 0, 201]",201,a,0.4949885136447847,colour,0.28
117,19,1,1,6,22,272,383.7283053183928,384.9033475681208,"[31, 0, 223]",223,a,0.6501841030549258,colour,0.28
117,19,1,1,6,23,273,385.4173269155435,386.04734494979493,"[50, 0, 204]",204,a,0.1066466539632529,colour,0.28
117,19,1,1,6,24,274,386.55800654320046,387.13529260922223,"[95, 0, 159]",159,l,0.053985971957445145,colour,0.28
117,19,1,1,6,25,275,387.6517011956312,389.0153217697516,"[59, 0, 195]",195,a,0.8402936984784901,colour,0.28
117,19,1,1,6,26,276,389.52808334701695,390.16732445405796,"[14, 0, 240]",240,a,0.11596661293879151,colour,0.28
117,19,1,1,6,27,277,390.68426591320895,391.57528414949775,"[35, 0, 219]",219,a,0.36757596395909786,colour,0.28
117,19,1,1,6,28,278,392.0905261656735,392.7272797448095,"[72, 0, 182]",182,l,0.11341331293806434,colour,0.28
117,19,1,1,6,29,279,393.248508999357,393.8633245991077,"[39, 0, 215]",215,a,0.091669105226174,colour,0.28
117,19,1,1,6,30,280,394.3839914423879,395.0552777850535,"[80, 0, 174]",174,l,0.15749249630607665,colour,0.28
117,19,1,1,6,31,281,395.5618756809272,396.70326935034245,"[68, 0, 186]",186,l,0.6180793968960643,colour,0.28
117,19,1,1,6,32,282,397.21809428418055,397.86326591600664,"[91, 0, 163]",163,l,0.12181324861012399,colour,0.28
117,19,1,1,6,33,283,398.36916316091083,399.2952868118882,"[83, 0, 171]",171,l,0.4030559256207198,colour,0.28
117,19,1,1,6,34,284,399.80665535782464,401.0632941154763,"[38, 0, 216]",216,a,0.7332949466072023,colour,0.28
117,19,1,1,6,35,285,401.5786271097604,402.6793333927635,"[6, 0, 248]",248,a,0.5823899093084037,colour,0.28
117,19,1,1,6,36,286,403.19855088484474,404.01528592966497,"[85, 0, 169]",169,l,0.2936649564653635,colour,0.28
117,19,1,1,6,37,287,404.52664305409417,405.1992948590778,"[67, 0, 187]",187,l,0.14924576645717025,colour,0.28
117,19,1,1,6,38,288,405.71410088823177,406.7832770855166,"[98, 0, 156]",156,l,0.5402303286828101,colour,0.28
117,19,1,1,6,39,289,407.29340344294906,407.8392988448031,"[18, 0, 236]",236,a,0.022540956968441606,colour,0.28
117,19,1,1,6,40,290,408.3558854490984,409.04726263601333,"[60, 0, 194]",194,l,0.1680117144715041,colour,0.28
117,19,1,1,6,41,291,409.5591234888416,410.1272739158012,"[84, 0, 170]",170,l,0.044842849718406796,colour,0.28
117,19,1,1,6,42,292,410.63722540601157,411.18326377356425,"[58, 0, 196]",196,a,0.018278367584571242,colour,0.28
117,19,1,1,6,43,293,411.7044745176099,412.2713232850656,"[19, 0, 235]",235,a,0.0434588766656816,colour,0.28
117,19,1,1,6,44,294,412.78261975734495,413.4792591135483,"[66, 0, 188]",188,l,0.17672160686925054,colour,0.28
117,19,1,1,6,45,295,413.99800241575576,414.6072900004219,"[65, 0, 189]",189,l,0.0861084011849016,colour,0.28
117,19,1,1,6,46,296,415.1229065635707,416.15924589615315,"[29, 0, 225]",225,a,0.5131010722834617,colour,0.28
117,19,1,1,6,47,297,416.67413463280536,417.30327951163054,"[70, 0, 184]",184,l,0.10911173280328512,colour,0.28
117,19,1,1,6,48,298,417.81147248181514,419.1752352339681,"[78, 0, 176]",176,l,0.8402495877817273,colour,0.28
117,19,1,1,6,49,299,419.6862233253196,420.6312393487897,"[90, 0, 164]",164,l,0.42164306808263063,colour,0.28
117,19,1,1,6,50,300,421.1435673022643,422.39926319383085,"[61, 0, 193]",193,l,0.7323560190852731,colour,0.28
117,19,1,1,7,1,301,481.5612266235985,482.4951220268849,"[63, 0, 191]",191,l,0.4097154582850635,colour,0.14
117,19,1,1,7,2,302,483.015207948396,484.1351110464893,"[18, 0, 236]",236,a,0.596861366648227,colour,0.14
117,19,1,1,7,3,303,484.6557349606883,485.64711289596744,"[65, 0, 189]",189,l,0.4667301019653678,colour,0.14
117,19,1,1,7,4,304,486.1570411492139,486.9111520096194,"[66, 0, 188]",188,l,0.23075877875089645,colour,0.14
117,19,1,1,7,5,305,487.4226371338591,488.023146297317,"[76, 0, 178]",178,l,0.07748909341171384,colour,0.14
117,19,1,1,7,6,306,488.5320466137491,489.151081479853,"[82, 0, 172]",172,l,0.09614830953069031,colour,0.14
117,19,1,1,7,7,307,489.6726553493645,490.2311463225633,"[70, 0, 184]",184,l,0.03534093429334462,colour,0.14
117,19,1,1,7,8,308,490.75076041696593,491.39119723881595,"[92, 0, 162]",162,l,0.11491543939337134,colour,0.14
117,19,1,1,7,9,309,491.9091827822849,492.9191293492913,"[95, 0, 159]",159,l,0.4865889714565128,colour,0.14
117,19,1,1,7,10,310,493.4404306777287,494.32715048477985,"[97, 0, 157]",157,l,0.3633673314470798,colour,0.14
117,19,1,1,7,11,311,494.8489094614051,495.6231229817495,"[68, 0, 186]",186,l,0.2511253149714321,colour,0.14
117,19,1,1,7,12,312,496.1291088417638,496.67921011918224,"[84, 0, 170]",170,l,0.027216690126806498,colour,0.14
117,19,1,1,7,13,313,497.1915120789781,498.7191212361213,"[61, 0, 193]",193,l,1.0042007556185126,colour,0.14
117,19,1,1,7,14,314,499.23842498031445,499.8150990107097,"[81, 0, 173]",173,l,0.05336527153849602,colour,0.14
117,19,1,1,7,15,315,500.3321432634257,500.8871498859953,"[10, 0, 244]",244,a,0.03184634353965521,colour,0.14
117,19,1,1,7,16,316,501.39468552800827,502.00709945801646,"[71, 0, 183]",183,l,0.08907878352329135,colour,0.14
117,19,1,1,7,17,317,502.5195936143864,503.0790987396613,"[72, 0, 182]",182,l,0.03363715880550444,colour,0.14
117,19,1,1,7,18,318,503.6003236621618,504.60709622851573,"[29, 0, 225]",225,a,0.48348546912893653,colour,0.14
117,19,1,1,7,19,319,505.1159425883088,506.39918403094634,"[78, 0, 176]",176,l,0.7599893978331238,colour,0.14
117,19,1,1,7,20,320,506.8998234390747,507.8791205587331,"[50, 0, 204]",204,l,0.4560084471013397,colour,0.14
117,19,1,1,7,21,321,508.3998216667678,508.97509242547676,"[85, 0, 169]",169,l,0.05195018486119807,colour,0.14
117,19,1,1,7,22,322,509.49360769125633,510.45510457176715,"[83, 0, 171]",171,l,0.4381790633779019,colour,0.14
117,19,1,1,7,23,323,510.9624031188432,511.93508678581566,"[51, 0, 203]",203,a,0.4495300834532827,colour,0.14
117,19,1,1,7,24,324,512.4480094457977,513.2632782040164,"[52, 0, 202]",202,a,0.2920572792645544,colour,0.14
117,19,1,1,7,25,325,513.776269787224,514.5031166959088,"[62, 0, 192]",192,a,0.20353421149775386,colour,0.14
117,19,1,1,7,26,326,515.0105664795265,516.1751678863075,"[67, 0, 187]",187,a,0.6413040694314986,colour,0.14
117,19,1,1,7,27,327,516.6823037753347,517.4231321976986,"[91, 0, 163]",163,l,0.21758070983923972,colour,0.14
117,19,1,1,7,28,328,517.9203364856075,518.6550662112422,"[69, 0, 185]",185,l,0.21142608695663512,colour,0.14
117,19,1,1,7,29,329,519.1702495443169,520.1670519129839,"[88, 0, 166]",166,l,0.4735538682434708,colour,0.14
117,19,1,1,7,30,330,520.6857416522689,521.3430606594775,"[75, 0, 179]",179,l,0.13391611957922578,colour,0.14
117,19,1,1,7,31,331,521.8577107258607,522.4550588857383,"[99, 0, 155]",155,l,0.07409414555877447,colour,0.14
117,19,1,1,7,32,332,522.9671682550106,524.2551003969274,"[74, 0, 180]",180,l,0.7647305091377348,colour,0.14
117,19,1,1,7,33,333,524.7643220913596,525.4230782408267,"[79, 0, 175]",175,l,0.1340228517074138,colour,0.14
117,19,1,1,7,34,334,525.9377066455781,527.007067556493,"[98, 0, 156]",156,l,0.545982047682628,colour,0.14
117,19,1,1,7,35,335,527.5145653893705,528.4310488852207,"[90, 0, 164]",164,l,0.39249299047514796,colour,0.14
117,19,1,1,7,36,336,528.9371875573415,529.8310796839651,"[57, 0, 197]",197,l,0.3704482789617032,colour,0.14
117,19,1,1,7,37,337,530.3449007056188,531.0470219964627,"[80, 0, 174]",174,l,0.17885624896734953,colour,0.14
117,19,1,1,7,38,338,531.5636046624277,532.4790141417179,"[14, 0, 240]",240,a,0.39177934266626835,colour,0.14
117,19,1,1,7,39,339,532.985442684032,533.5511071586516,"[56, 0, 198]",198,l,0.042236380744725466,colour,0.14
117,19,1,1,7,40,340,534.0657087818254,534.7750413832255,"[64, 0, 190]",190,l,0.18662209389731288,colour,0.14
117,19,1,1,7,41,341,535.2845045048743,536.0710339662619,"[4, 0, 250]",250,a,0.2631194842979312,colour,0.14
117,19,1,1,7,42,342,536.5813643357251,537.1670790882781,"[96, 0, 158]",158,l,0.06254108296707273,colour,0.14
117,19,1,1,7,43,343,537.675132637145,538.3590622066986,"[73, 0, 181]",181,l,0.1606416846625507,colour,0.14
117,19,1,1,7,44,344,538.8805880269501,539.43903331412,"[55, 0, 199]",199,a,0.035119199426844716,colour,0.14
117,19,1,1,7,45,345,539.9587446884252,540.5590073044877,"[53, 0, 201]",201,a,0.07691329135559499,colour,0.14
117,19,1,1,7,46,346,541.0661585533526,542.5190229322761,"[33, 0, 221]",221,a,0.9295008757617325,colour,0.14
117,19,1,1,7,47,347,543.0385039069224,543.9832253342029,"[86, 0, 168]",168,l,0.4213082995265722,colour,0.14
117,19,1,1,7,48,348,544.4926230774727,545.439032526454,"[58, 0, 196]",196,l,0.422986475052312,colour,0.14
117,19,1,1,7,49,349,545.9419479672797,546.6310313984286,"[89, 0, 165]",165,l,0.16576758306473494,colour,0.14
117,19,1,1,7,50,350,547.1449839645065,548.0310074526351,"[28, 0, 226]",226,a,0.36261193570680916,colour,0.14
117,19,1,1,8,1,351,552.4012753502466,553.0950546006206,"[71, 0, 183]",183,l,0.169657988473773,colour,0.06
117,19,1,1,8,2,352,553.6050454752985,554.5190075724386,"[72, 0, 182]",182,l,0.3905438494402915,colour,0.06
117,19,1,1,8,3,353,555.0270422166213,555.7750992784277,"[78, 0, 176]",176,l,0.22469789092428982,colour,0.06
117,19,1,1,8,4,354,556.2926358382683,557.023186075734,"[79, 0, 175]",175,l,0.20715916506014764,colour,0.06
117,19,1,1,8,5,355,557.5248624789529,558.095005369978,"[96, 0, 158]",158,l,0.05873929290100932,colour,0.06
117,19,1,1,8,6,356,558.6065302726347,559.2469765467104,"[93, 0, 161]",161,l,0.11703708488494158,colour,0.06
117,19,1,1,8,7,357,559.7628483218141,560.2872188878246,"[80, 0, 174]",174,l,0.0010594443883746862,colour,0.06
117,19,1,1,8,8,358,560.8096221957821,562.1990238933358,"[98, 0, 156]",156,l,0.8659153145272285,colour,0.06
117,19,1,1,8,9,359,562.7168424462434,563.5910088231321,"[99, 0, 155]",155,l,0.3504208435770124,colour,0.06
117,19,1,1,8,10,360,564.1079943932127,564.6390623010229,"[77, 0, 177]",177,l,0.007741032401099801,colour,0.06
117,19,1,1,8,11,361,565.1704480424523,565.886992741609,"[83, 0, 171]",171,l,0.1931299960706383,colour,0.06
117,19,1,1,8,12,362,566.4048002669588,566.9989496141206,"[81, 0, 173]",173,l,0.07081971457228065,colour,0.06
117,19,1,1,8,13,363,567.5141510639805,568.43098153756,"[92, 0, 162]",162,l,0.39339844114147127,colour,0.06
117,19,1,1,8,14,364,568.9517247870099,569.5189764585812,"[66, 0, 188]",188,a,0.04381924541667104,colour,0.06
117,19,1,1,8,15,365,570.0296703472268,570.7510431979317,"[88, 0, 166]",166,l,0.1979341229889542,colour,0.06
117,19,1,1,8,16,366,571.264195863856,572.1109116063453,"[95, 0, 159]",159,l,0.3233549960423261,colour,0.06
117,19,1,1,8,17,367,572.6235550302081,574.0309759450611,"[53, 0, 201]",201,a,0.8830574380699545,colour,0.06
117,19,1,1,8,18,368,574.546696877107,575.2389279210474,"[94, 0, 160]",160,l,0.1688498177099973,colour,0.06
117,19,1,1,8,19,369,575.749836455565,576.4550072918646,"[85, 0, 169]",169,l,0.18152612750418484,colour,0.06
117,19,1,1,8,20,370,576.9688582457602,577.5189681877382,"[73, 0, 181]",181,l,0.026764161651954055,colour,0.06
117,19,1,1,8,21,371,578.0313831812236,578.7429823630955,"[62, 0, 192]",192,a,0.1884452044032514,colour,0.06
117,19,1,1,8,22,372,579.2501718150452,579.8469386587385,"[64, 0, 190]",190,a,0.07346438663080335,colour,0.06
117,19,1,1,8,23,373,580.3595241873991,581.7989438639488,"[51, 0, 203]",203,a,0.9143275858368725,colour,0.06
117,19,1,1,8,24,374,582.3147786173504,583.2309738181066,"[50, 0, 204]",204,a,0.39308769698254764,colour,0.06
117,19,1,1,8,25,375,583.7523176819086,584.3269602572545,"[57, 0, 197]",197,a,0.05124559532850981,colour,0.06
117,19,1,1,8,26,376,584.8460418726318,585.4949475533795,"[67, 0, 187]",187,a,0.12557132192887366,colour,0.06
117,19,1,1,8,27,377,586.0022287713364,586.6149384791497,"[60, 0, 194]",194,a,0.0891591280233115,colour,0.06
117,19,1,1,8,28,378,587.1287827377673,587.7029582124669,"[31, 0, 223]",223,a,0.05124165676534176,colour,0.06
117,19,1,1,8,29,379,588.2224651810247,589.1349527207203,"[69, 0, 185]",185,l,0.3892425838857889,colour,0.06
117,19,1,1,8,30,380,589.6466643060558,590.1909622706007,"[82, 0, 172]",172,l,0.02102347044274211,colour,0.06
117,19,1,1,8,31,381,590.709129770752,591.2310281689279,"[43, 0, 211]",211,a,0.0008904845453798771,colour,0.06
117,19,1,1,8,32,382,591.7536756610498,592.2949276249856,"[87, 0, 167]",167,l,0.017865617759525776,colour,0.06
117,19,1,1,8,33,383,592.804383657407,594.246923771454,"[86, 0, 168]",168,l,0.9186039594933391,colour,0.06
117,19,1,1,8,34,384,594.7580662502442,595.6629474526271,"[89, 0, 165]",165,l,0.38154093618504703,colour,0.06
117,19,1,1,8,35,385,596.1758748388384,596.8549565647263,"[91, 0, 163]",163,l,0.15571310254745185,colour,0.06
117,19,1,1,8,36,386,597.3688508416526,597.9669205262326,"[68, 0, 186]",186,a,0.0748018859885633,colour,0.06
117,19,1,1,8,37,387,598.4780838787556,599.0949151793029,"[55, 0, 199]",199,a,0.09352923720143735,colour,0.06
117,19,1,1,8,38,388,599.6031246909406,600.206934673246,"[76, 0, 178]",178,l,0.08047759276814759,colour,0.06
117,19,1,1,8,39,389,600.7280965801328,602.2149663635064,"[97, 0, 157]",157,l,0.9682540870271623,colour,0.06
117,19,1,1,8,40,390,602.7292974151205,603.2949343202636,"[56, 0, 198]",198,a,0.04239273723214865,colour,0.06
117,19,1,1,8,41,391,603.8074139042292,604.8389703775756,"[65, 0, 189]",189,a,0.5083130928687751,colour,0.06
117,19,1,1,8,42,392,605.3542765905149,606.1029232391156,"[61, 0, 193]",193,a,0.22534891753457487,colour,0.06
117,19,1,1,8,43,393,606.6198280705139,607.1829136449378,"[54, 0, 200]",200,a,0.03968741279095411,colour,0.06
117,19,1,1,8,44,394,607.6979662212543,608.5028866901994,"[90, 0, 164]",164,l,0.2817401038482785,colour,0.06
117,19,1,1,8,45,395,609.010496375151,609.9429341563955,"[75, 0, 179]",179,l,0.4093736005015671,colour,0.06
117,19,1,1,8,46,396,610.46359154745,611.310890968889,"[59, 0, 195]",195,a,0.3239630935713649,colour,0.06
117,19,1,1,8,47,397,611.8230401165783,612.7188920180779,"[33, 0, 221]",221,a,0.3756336481310427,colour,0.06
117,19,1,1,8,48,398,613.2260798946954,613.8468913973775,"[70, 0, 184]",184,l,0.097419248893857,colour,0.06
117,19,1,1,8,49,399,614.3557724154089,615.3349037263542,"[74, 0, 180]",180,l,0.4565531355328858,colour,0.06
117,19,1,1,8,50,400,615.8556855726056,616.3909172147978,"[52, 0, 202]",202,a,0.011944544967263937,colour,0.06
117,19,1,1,9,1,401,620.824956174707,621.4468944694381,"[99, 0, 155]",155,l,0.09784538974054158,colour,0.06
117,19,1,1,9,2,402,621.9663652041927,622.8388679777272,"[57, 0, 197]",197,a,0.34925939328968525,colour,0.06
117,19,1,1,9,3,403,623.3592717323918,624.1828939525876,"[87, 0, 167]",167,l,0.3002961322199553,colour,0.06
117,19,1,1,9,4,404,624.7036446852144,625.3428842166904,"[46, 0, 208]",208,a,0.11648018728010356,colour,0.06
117,19,1,1,9,5,405,625.8576898521278,626.8789389960002,"[67, 0, 187]",187,l,0.4981810247991234,colour,0.06
117,19,1,1,9,6,406,627.3889609843027,627.942879805807,"[98, 0, 156]",156,l,0.030666776467114687,colour,0.06
117,19,1,1,9,7,407,628.4513819445856,629.0949313270394,"[72, 0, 182]",182,l,0.12011538096703589,colour,0.06
117,19,1,1,9,8,408,629.6076972368173,630.574890304124,"[58, 0, 196]",196,a,0.44385122577659786,colour,0.06
117,19,1,1,9,9,409,631.092032230692,631.6629100372083,"[68, 0, 186]",186,a,0.04750445717945695,colour,0.06
117,19,1,1,9,10,410,632.1724771342706,632.7268977146596,"[51, 0, 203]",203,a,0.03105510794557631,colour,0.06
117,19,1,1,9,11,411,633.2338150192518,634.4068927678745,"[62, 0, 192]",192,a,0.6498099497985095,colour,0.06
117,19,1,1,9,12,412,634.9217133694328,635.5588379509281,"[78, 0, 176]",176,l,0.1136779768858105,colour,0.06
117,19,1,1,9,13,413,636.0797923016362,636.6788391168229,"[75, 0, 179]",179,l,0.07573648123070598,colour,0.06
117,19,1,1,9,14,414,637.1892242305912,637.7588791472372,"[8, 0, 246]",246,a,0.04634340084157884,colour,0.06
117,19,1,1,9,15,415,638.2673253598623,639.5108880545013,"[88, 0, 166]",166,l,0.7202011605259031,colour,0.06
117,19,1,1,9,16,416,640.017344166059,640.5509110235143,"[92, 0, 162]",162,l,0.010203354293480515,colour,0.06
117,19,1,1,9,17,417,641.0643748273142,641.8388868824113,"[81, 0, 173]",173,l,0.25169757241383195,colour,0.06
117,19,1,1,9,18,418,642.346896714298,642.958980995696,"[60, 0, 194]",194,a,0.08898189780302346,colour,0.06
117,19,1,1,9,19,419,643.4718666344415,643.9989177125972,"[66, 0, 188]",188,a,0.0037135689053684473,colour,0.06
117,19,1,1,9,20,420,644.5187492098194,645.918831996154,"[71, 0, 183]",183,l,0.8766999847721308,colour,0.06
117,19,1,1,9,21,421,646.4249442806467,646.9508610838093,"[63, 0, 191]",191,a,0.002562358509749174,colour,0.06
117,19,1,1,9,22,422,647.4717555700336,648.3588337763213,"[96, 0, 158]",158,l,0.3642270960845053,colour,0.06
117,19,1,1,9,23,423,648.8779413853772,649.6548330546357,"[84, 0, 170]",170,l,0.25411775265820324,colour,0.06
117,19,1,1,9,24,424,650.1615550119895,650.6868782902602,"[94, 0, 160]",160,l,0.0028427764773368835,colour,0.06
117,19,1,1,9,25,425,651.2069354609121,652.0308444006369,"[93, 0, 161]",161,l,0.3006045133806765,colour,0.06
117,19,1,1,9,26,426,652.5506751099601,653.2548518804833,"[65, 0, 189]",189,a,0.18079081806354225,colour,0.06
117,19,1,1,9,27,427,653.7693798546679,654.6868979823776,"[90, 0, 164]",164,l,0.3911019281949848,colour,0.06
117,19,1,1,9,28,428,655.1944222031161,655.7268410008401,"[76, 0, 178]",178,a,0.009111614432185888,colour,0.06
117,19,1,1,9,29,429,656.2411826862954,657.5268084693234,"[73, 0, 181]",181,a,0.7621905999258161,colour,0.06
117,19,1,1,9,30,430,658.0380769786425,659.0468124707695,"[54, 0, 200]",200,a,0.4853404813911766,colour,0.06
117,19,1,1,9,31,431,659.553854624508,660.3188411332667,"[64, 0, 190]",190,a,0.24014647910371423,colour,0.06
117,19,1,1,9,32,432,660.8366683509666,661.4148224524688,"[23, 0, 231]",231,a,0.055405391147360206,colour,0.06
117,19,1,1,9,33,433,661.9302578466013,663.1428426266648,"[70, 0, 184]",184,l,0.6894059902988374,colour,0.06
117,19,1,1,9,34,434,663.6491195387207,664.1831428629812,"[74, 0, 180]",180,l,0.0109772605355829,colour,0.06
117,19,1,1,9,35,435,664.695970212575,665.2787772042211,"[53, 0, 201]",201,a,0.058389557991176844,colour,0.06
117,19,1,1,9,36,436,665.7911248500459,666.9108404777944,"[80, 0, 174]",174,l,0.5964210475794971,colour,0.06
117,19,1,1,9,37,437,667.4302009358071,668.2228074327577,"[85, 0, 169]",169,l,0.26930088899098337,colour,0.06
117,19,1,1,9,38,438,668.7426030898932,669.3028628230095,"[82, 0, 172]",172,l,0.0368280946277082,colour,0.06
117,19,1,1,9,39,439,669.8208593942691,670.502818161156,"[97, 0, 157]",157,l,0.15874492493458092,colour,0.06
117,19,1,1,9,40,440,671.0267499831971,671.5588178648613,"[50, 0, 204]",204,a,0.008646877016872168,colour,0.06
117,19,1,1,9,41,441,672.0738050630316,672.6227972714696,"[79, 0, 175]",175,l,0.025723228231072426,colour,0.06
117,19,1,1,9,42,442,673.1362409892026,673.8067739054095,"[83, 0, 171]",171,l,0.14714499469846487,colour,0.06
117,19,1,1,9,43,443,674.323738995241,674.9588065221906,"[77, 0, 177]",177,l,0.11011879565194249,colour,0.06
117,19,1,1,9,44,444,675.4665359361097,676.5667676352896,"[91, 0, 163]",163,l,0.5769757158122957,colour,0.06
117,19,1,1,9,45,445,677.0759491575882,677.6389134274796,"[52, 0, 202]",202,a,0.040107645792886615,colour,0.06
117,19,1,1,9,46,446,678.1540613146499,679.0227689933963,"[55, 0, 199]",199,a,0.3454902924131602,colour,0.06
117,19,1,1,9,47,447,679.529064415954,680.2947393667419,"[59, 0, 195]",195,a,0.24242290575057268,colour,0.06
117,19,1,1,9,48,448,680.8102125700098,681.4147791294381,"[61, 0, 193]",193,a,0.07998016593046486,colour,0.06
117,19,1,1,9,49,449,681.921005629003,682.542774964124,"[86, 0, 168]",168,l,0.09881740040145814,colour,0.06
117,19,1,1,9,50,450,683.0623291940428,683.9827491750475,"[95, 0, 159]",159,l,0.3969824349042028,colour,0.06
117,19,1,1,10,1,451,688.4224559650756,689.8307480660733,"[74, 0, 180]",180,l,0.8841972269583493,colour,0.06
117,19,1,1,10,2,452,690.3451405575033,691.3348001448903,"[70, 0, 184]",184,l,0.46626536431722343,colour,0.06
117,19,1,1,10,3,453,691.8451017637271,692.6307324697264,"[68, 0, 186]",186,a,0.262626783689484,colour,0.06
117,19,1,1,10,4,454,693.1420632065274,694.2228330327198,"[51, 0, 203]",203,a,0.5575323535595089,colour,0.06
117,19,1,1,10,5,455,694.7358131941874,695.7747944421135,"[59, 0, 195]",195,a,0.51409159344621,colour,0.06
117,19,1,1,10,6,456,696.2841283825692,697.1987946752924,"[92, 0, 162]",162,l,0.3912571035325527,colour,0.06
117,19,1,1,10,7,457,697.7060786499642,698.2947436990216,"[58, 0, 196]",196,a,0.06571468967013061,colour,0.06
117,19,1,1,10,8,458,698.8154306286015,699.6868046410382,"[87, 0, 167]",167,l,0.348207825794816,colour,0.06
117,19,1,1,10,9,459,700.2060552162584,700.8867643112317,"[57, 0, 197]",197,a,0.15741648408584297,colour,0.06
117,19,1,1,10,10,460,701.3948607894126,702.3186965920031,"[83, 0, 171]",171,l,0.4004872655496001,colour,0.06
117,19,1,1,10,11,461,702.8323124202434,703.6227834869642,"[96, 0, 158]",158,l,0.2673852245789021,colour,0.06
117,19,1,1,10,12,462,704.1291761894245,704.8707501613535,"[99, 0, 155]",155,l,0.21819825959391892,colour,0.06
117,19,1,1,10,13,463,705.3806016144808,706.2067290858831,"[40, 0, 214]",214,a,0.30291441711597145,colour,0.06
117,19,1,1,10,14,464,706.7242880947888,707.5027303334791,"[95, 0, 159]",159,l,0.2550744032487273,colour,0.06
117,19,1,1,10,15,465,708.0211589531973,708.6867821919732,"[76, 0, 178]",178,l,0.14219041890464723,colour,0.06
117,19,1,1,10,16,466,709.1930465009063,709.734771079151,"[86, 0, 168]",168,l,0.018391007324680686,colour,0.06
117,19,1,1,10,17,467,710.2412429447286,710.7827316096518,"[69, 0, 185]",185,a,0.018035365035757422,colour,0.06
117,19,1,1,10,18,468,711.3038352276199,712.5746780214831,"[66, 0, 188]",188,a,0.7477116596419364,colour,0.06
117,19,1,1,10,19,469,713.084935923107,714.1507065389305,"[93, 0, 161]",161,l,0.5423492172267288,colour,0.06
117,19,1,1,10,20,470,714.6631880921777,715.1987292969134,"[24, 0, 230]",230,a,0.01227025524713099,colour,0.06
117,19,1,1,10,21,471,715.7100001692306,716.2707293662243,"[90, 0, 164]",164,l,0.03623968968167901,colour,0.06
117,19,1,1,10,22,472,716.7895179605111,717.4226914846804,"[28, 0, 226]",226,a,0.1098624023143202,colour,0.06
117,19,1,1,10,23,473,717.9301487514749,719.2627157927491,"[61, 0, 193]",193,a,0.8093114518560469,colour,0.06
117,19,1,1,10,24,474,719.7738842652179,721.1987399307545,"[62, 0, 192]",192,a,0.9004764349665493,colour,0.06
117,19,1,1,10,25,475,721.7101057197433,722.34274361399,"[84, 0, 170]",170,l,0.10702120116911829,colour,0.06
117,19,1,1,10,26,476,722.8531771709677,723.4547375077382,"[81, 0, 173]",173,l,0.07822361518628895,colour,0.06
117,19,1,1,10,27,477,723.9624456542078,724.5666845340747,"[52, 0, 202]",202,a,0.08075998001731932,colour,0.06
117,19,1,1,10,28,478,725.0874478695914,726.0627289472613,"[82, 0, 172]",172,l,0.45190379000268877,colour,0.06
117,19,1,1,10,29,479,726.5718013742007,727.262675226666,"[75, 0, 179]",179,l,0.167383924825117,colour,0.06
117,19,1,1,10,30,480,727.774994515581,728.3427101371344,"[56, 0, 198]",198,a,0.04247347544878721,colour,0.06
117,19,1,1,10,31,481,728.8550191861577,729.4307243565563,"[98, 0, 156]",156,l,0.052317248890176415,colour,0.06
117,19,1,1,10,32,482,729.9487142323051,730.6147057164926,"[65, 0, 189]",189,a,0.14287098357453942,colour,0.06
117,19,1,1,10,33,483,731.1362914014608,732.0867038953584,"[85, 0, 169]",169,l,0.42704426450654864,colour,0.06
117,19,1,1,10,34,484,732.6064018791076,733.1427138391882,"[53, 0, 201]",201,a,0.013099299743771553,colour,0.06
117,19,1,1,10,35,485,733.6532966636587,734.5826746595558,"[91, 0, 163]",163,l,0.4063665906433016,colour,0.06
117,19,1,1,10,36,486,735.090685673058,735.9426427108701,"[55, 0, 199]",199,a,0.32864197762683034,colour,0.06
117,19,1,1,10,37,487,736.4500987960491,737.4546579509042,"[80, 0, 174]",174,l,0.4812342484947294,colour,0.06
117,19,1,1,10,38,488,737.9657177221961,738.8306303061545,"[54, 0, 200]",200,a,0.34172631124965847,colour,0.06
117,19,1,1,10,39,489,739.3407464236952,740.0867003507446,"[78, 0, 176]",176,l,0.22267706994898617,colour,0.06
117,19,1,1,10,40,490,740.6062959346455,741.150698662037,"[72, 0, 182]",182,l,0.02109436271712184,colour,0.06
117,19,1,1,10,41,491,741.6688161438797,742.6226523362566,"[64, 0, 190]",190,a,0.4303947079461068,colour,0.06
117,19,1,1,10,42,492,743.1391054270789,743.8226506034844,"[71, 0, 183]",183,a,0.1603321221191436,colour,0.06
117,19,1,1,10,43,493,744.3422792702913,745.4786990652792,"[77, 0, 177]",177,l,0.6133989375084639,colour,0.06
117,19,1,1,10,44,494,745.9984738486819,746.5986884157173,"[97, 0, 157]",157,l,0.07718583242967725,colour,0.06
117,19,1,1,10,45,495,747.1078565472271,747.9506897612009,"[89, 0, 165]",165,l,0.3196654519997537,colour,0.06
117,19,1,1,10,46,496,748.4671495473012,749.2066361382604,"[88, 0, 166]",166,l,0.21470918250270188,colour,0.06
117,19,1,1,10,47,497,749.7187841043342,750.3266695993952,"[73, 0, 181]",181,a,0.0851304829120636,colour,0.06
117,19,1,1,10,48,498,750.843544104835,751.8706615460105,"[79, 0, 175]",175,l,0.5036432673223317,colour,0.06
117,19,1,1,10,49,499,752.3773362420034,752.9746643155813,"[63, 0, 191]",191,a,0.07425365294329822,colour,0.06
117,19,1,1,10,50,500,753.4867354817688,754.414625923615,"[94, 0, 160]",160,l,0.4044371417257935,colour,0.06
117,19,1,1,11,1,501,759.0015600216575,759.9986569869798,"[69, 0, 185]",185,a,0.4730206017848104,colour,0.06
117,19,1,1,11,2,502,760.5180469832849,761.2386463214643,"[51, 0, 203]",203,a,0.1953764904756099,colour,0.06
117,19,1,1,11,3,503,761.754301087698,762.438674520934,"[65, 0, 189]",189,a,0.16108830529265106,colour,0.06
117,19,1,1,11,4,504,762.9573579584248,763.5026172997896,"[98, 0, 156]",156,l,0.021926557878032327,colour,0.06
117,19,1,1,11,5,505,764.0198730477132,764.7186541354749,"[73, 0, 181]",181,a,0.17538332007825375,colour,0.06
117,19,1,1,11,6,506,765.2399818515405,766.0386114269495,"[58, 0, 196]",196,a,0.2753184537868947,colour,0.06
117,19,1,1,11,7,507,766.5524202391971,767.3026572358795,"[72, 0, 182]",182,a,0.22683135187253356,colour,0.06
117,19,1,1,11,8,508,767.8180819961708,768.814635454677,"[99, 0, 155]",155,l,0.4735160593409091,colour,0.06
117,19,1,1,11,9,509,769.3337379437871,770.0465962495655,"[97, 0, 157]",157,l,0.18950267951004207,colour,0.06
117,19,1,1,11,10,510,770.5681705130264,771.1586228325032,"[56, 0, 198]",198,a,0.06566112651489675,colour,0.06
117,19,1,1,11,11,511,771.6789935042616,772.6226302809082,"[43, 0, 211]",211,a,0.42023625201545656,colour,0.06
117,19,1,1,11,12,512,773.1321816241834,773.7586286615115,"[63, 0, 191]",191,a,0.1032623399514705,colour,0.06
117,19,1,1,11,13,513,774.2727198612411,775.2706033356953,"[77, 0, 177]",177,l,0.4746940510813147,colour,0.06
117,19,1,1,11,14,514,775.7900331104174,776.390601350693,"[85, 0, 169]",169,l,0.07724254624918103,colour,0.06
117,19,1,1,11,15,515,776.8993984796107,777.5106131501961,"[82, 0, 172]",172,l,0.08790118573233485,colour,0.06
117,19,1,1,11,16,516,778.0244585904293,779.1666462521534,"[80, 0, 174]",174,l,0.6188430632464588,colour,0.06
117,19,1,1,11,17,517,779.6820934617426,780.2069004084915,"[52, 0, 202]",202,a,0.0017817567568272352,colour,0.06
117,19,1,1,11,18,518,780.7288984495681,781.6226413086988,"[36, 0, 218]",218,a,0.37046954641118646,colour,0.06
117,19,1,1,11,19,519,782.1351232558955,782.6626209546812,"[84, 0, 170]",170,l,0.004561124136671424,colour,0.06
117,19,1,1,11,20,520,783.1833311212249,784.2625653438736,"[92, 0, 162]",162,l,0.5559502763208002,colour,0.06
117,19,1,1,11,21,521,784.7770657488145,785.7666209673043,"[89, 0, 165]",165,l,0.46633153036236763,colour,0.06
117,19,1,1,11,22,522,786.2771139948163,786.9105758138467,"[78, 0, 176]",176,l,0.11012076493352652,colour,0.06
117,19,1,1,11,23,523,787.417741634883,788.1025888642762,"[87, 0, 167]",167,l,0.16146757849492133,colour,0.06
117,19,1,1,11,24,524,788.621009606868,789.5026196630206,"[74, 0, 180]",180,l,0.35848640464246273,colour,0.06
117,19,1,1,11,25,525,790.0114321520086,790.566616398748,"[83, 0, 171]",171,l,0.031877851113677025,colour,0.06
117,19,1,1,11,26,526,791.0755860321224,791.9985801870935,"[86, 0, 168]",168,l,0.39964719326235354,colour,0.06
117,19,1,1,11,27,527,792.513075866038,793.5185849762056,"[45, 0, 209]",209,a,0.4820924380328506,colour,0.06
117,19,1,1,11,28,528,794.0287731674034,794.7986079137772,"[91, 0, 163]",163,l,0.24651259696111083,colour,0.06
117,19,1,1,11,29,529,795.31137658027,795.8866071670782,"[60, 0, 194]",194,a,0.05291865090839565,colour,0.06
117,19,1,1,11,30,530,796.4050397251267,797.2865808580536,"[68, 0, 186]",186,a,0.35761600616388023,colour,0.06
117,19,1,1,11,31,531,797.7963901699986,798.718623415567,"[96, 0, 158]",158,l,0.4006845823023468,colour,0.06
117,19,1,1,11,32,532,799.2324026895221,800.0625670766458,"[81, 0, 173]",173,a,0.30717385560274124,colour,0.06
117,19,1,1,11,33,533,800.5762368617579,801.2225856976584,"[90, 0, 164]",164,l,0.12102673924528062,colour,0.06
117,19,1,1,11,34,534,801.7344355229288,802.5425201461185,"[50, 0, 204]",204,a,0.2851074824575335,colour,0.06
117,19,1,1,11,35,535,803.061320555862,803.7105917250738,"[64, 0, 190]",190,a,0.12594311218708754,colour,0.06
117,19,1,1,11,36,536,804.2175610174891,805.1665426709224,"[88, 0, 166]",166,l,0.42572960862889886,colour,0.06
117,19,1,1,11,37,537,805.6862233253196,806.4545689418446,"[61, 0, 193]",193,a,0.24277382204309106,colour,0.06
117,19,1,1,11,38,538,806.9682225792203,807.638561723521,"[95, 0, 159]",159,l,0.14686457649804652,colour,0.06
117,19,1,1,11,39,539,808.155775723746,809.2625775530469,"[93, 0, 161]",161,l,0.583862891420722,colour,0.06
117,19,1,1,11,40,540,809.7806060255971,810.646582780173,"[66, 0, 188]",188,l,0.3395073860883713,colour,0.06
117,19,1,1,11,41,541,811.1587409861386,811.9025500309654,"[67, 0, 187]",187,a,0.2205644827336073,colour,0.06
117,19,1,1,11,42,542,812.4087414785754,813.2065183785744,"[62, 0, 192]",192,a,0.27449295367114246,colour,0.06
117,19,1,1,11,43,543,813.7211550541688,814.3825456358027,"[75, 0, 179]",179,a,0.13801408163271844,colour,0.06
117,19,1,1,11,44,544,814.8930370879825,815.4226056262851,"[94, 0, 160]",160,l,0.006260173628106713,colour,0.06
117,19,1,1,11,45,545,815.9556230693124,817.3745541176759,"[79, 0, 175]",175,a,0.8941729383077472,colour,0.06
117,19,1,1,11,46,546,817.8945518175606,819.0225397753529,"[70, 0, 184]",184,a,0.6046421776991338,colour,0.06
117,19,1,1,11,47,547,819.5351422391832,820.35055435705,"[53, 0, 201]",201,l,0.29216794995591044,colour,0.06
117,19,1,1,11,48,548,820.864405704895,821.8226506034844,"[59, 0, 195]",195,a,0.4346513897180557,colour,0.06
117,19,1,1,11,49,549,822.3332755691372,823.2305315297563,"[57, 0, 197]",197,a,0.37404763232916594,colour,0.06
117,19,1,1,11,50,550,823.7395165229682,824.3345461145509,"[76, 0, 178]",178,l,0.07182914018630981,colour,0.06
117,19,1,1,12,1,551,829.2229842692614,830.1425866272766,"[72, 0, 182]",182,l,0.39549921290017664,colour,0.06
117,19,1,1,12,2,552,830.6531277038157,831.2944754902273,"[89, 0, 165]",165,l,0.11830526730045676,colour,0.06
117,19,1,1,12,3,553,831.8090601782314,832.7025080472231,"[92, 0, 162]",162,l,0.37046009418554604,colour,0.06
117,19,1,1,12,4,554,833.2153164921328,833.9184602058958,"[80, 0, 174]",174,l,0.17996098566800356,colour,0.06
117,19,1,1,12,5,555,834.4364520509262,835.9025244310033,"[73, 0, 181]",181,l,0.9427734673954546,colour,0.06
117,19,1,1,12,6,556,836.4195103948005,836.9825309847947,"[0, 0, 254]",254,a,0.039727191207930446,colour,0.06
117,19,1,1,12,7,557,837.4976040411275,838.0465033021756,"[76, 0, 178]",178,l,0.025601923931390047,colour,0.06
117,19,1,1,12,8,558,838.5601549702697,839.4785033240914,"[86, 0, 168]",168,l,0.39515223493799567,colour,0.06
117,19,1,1,12,9,559,840.0012855115347,840.5425429891329,"[63, 0, 191]",191,a,0.017842380795627832,colour,0.06
117,19,1,1,12,10,560,841.0638435299043,841.6384880745318,"[90, 0, 164]",164,l,0.05136847519315779,colour,0.06
117,19,1,1,12,11,561,842.1543385817204,843.1105362717062,"[8, 0, 246]",246,a,0.43279677140526474,colour,0.06
117,19,1,1,12,12,562,843.623106834013,844.550490396563,"[78, 0, 176]",176,l,0.4040586561895907,colour,0.06
117,19,1,1,12,13,563,845.0605840648059,845.7506068171933,"[71, 0, 183]",183,l,0.16657851077616215,colour,0.06
117,19,1,1,12,14,564,846.2533989846706,847.0464643114246,"[51, 0, 203]",203,a,0.2697699589189142,colour,0.06
117,19,1,1,12,15,565,847.5657341848128,848.7424754840322,"[65, 0, 189]",189,l,0.6573867488186806,colour,0.06
117,19,1,1,12,16,566,849.2494546223897,849.9424733573105,"[79, 0, 175]",175,l,0.16962057328782976,colour,0.06
117,19,1,1,12,17,567,850.4526966006961,851.4065316116903,"[69, 0, 185]",185,a,0.441957616712898,colour,0.06
117,19,1,1,12,18,568,851.9255915656686,852.7985279629938,"[58, 0, 196]",196,a,0.3497619400732219,colour,0.06
117,19,1,1,12,19,569,853.3161665287334,854.150497406954,"[67, 0, 187]",187,a,0.3111560270190239,colour,0.06
117,19,1,1,12,20,570,854.6599754947238,855.6944885659032,"[98, 0, 156]",156,l,0.5098479087464511,colour,0.06
117,19,1,1,12,21,571,856.2072958294302,857.0384735809639,"[99, 0, 155]",155,l,0.3078303961083293,colour,0.06
117,19,1,1,12,22,572,857.5525470576249,858.1824347288348,"[59, 0, 195]",195,a,0.10670454939827323,colour,0.06
117,19,1,1,12,23,573,858.6929714733269,859.2944573734421,"[82, 0, 172]",172,l,0.07821219367906451,colour,0.06
117,19,1,1,12,24,574,859.802477051504,860.6784562990069,"[64, 0, 190]",190,a,0.35266536893323064,colour,0.06
117,19,1,1,12,25,575,861.1919622442219,861.790480124997,"[81, 0, 173]",173,l,0.0752233003731817,colour,0.06
117,19,1,1,12,26,576,862.3013788133394,863.2144571214449,"[68, 0, 186]",186,a,0.3896683310158551,colour,0.06
117,19,1,1,12,27,577,863.7233546809293,864.2705021174625,"[54, 0, 200]",200,a,0.020542191341519356,colour,0.06
117,19,1,1,12,28,578,864.7891229335219,865.7344816026744,"[87, 0, 167]",167,l,0.42214128258638084,colour,0.06
117,19,1,1,12,29,579,866.2445941756014,866.9424922617618,"[61, 0, 193]",193,a,0.17454324755817652,colour,0.06
117,19,1,1,12,30,580,867.4633300341666,868.1984386390541,"[66, 0, 188]",188,a,0.21179039403796196,colour,0.06
117,19,1,1,12,31,581,868.7133836955763,869.3184831277467,"[52, 0, 202]",202,a,0.08182769501581788,colour,0.06
117,19,1,1,12,32,582,869.8383449509274,870.4144707482774,"[95, 0, 159]",159,l,0.052898170659318566,colour,0.06
117,19,1,1,12,33,583,870.9320124280639,871.8864949210547,"[91, 0, 163]",163,l,0.4298413551878184,colour,0.06
117,19,1,1,12,34,584,872.4019937242847,873.0305009672884,"[97, 0, 157]",157,l,0.10497753694653511,colour,0.06
117,19,1,1,12,35,585,873.5426989519037,874.3344732532278,"[83, 0, 171]",171,l,0.2685313147958368,colour,0.06
117,19,1,1,12,36,586,874.855111739831,875.5584515884984,"[84, 0, 170]",170,l,0.18017011741176248,colour,0.06
117,19,1,1,12,37,587,876.0738704411779,876.7344075597357,"[93, 0, 161]",161,l,0.13741661794483662,colour,0.06
117,19,1,1,12,38,588,877.2457875274122,878.2945066040847,"[75, 0, 179]",179,l,0.5254213456064463,colour,0.06
117,19,1,1,12,39,589,878.8098904045764,879.3583930630703,"[57, 0, 197]",197,a,0.025151758454740047,colour,0.06
117,19,1,1,12,40,590,879.8724370014388,880.7824551300146,"[94, 0, 160]",160,l,0.3870528033003211,colour,0.06
117,19,1,1,12,41,591,881.2943404011894,882.0224062616471,"[55, 0, 199]",199,a,0.2047972739674151,colour,0.06
117,19,1,1,12,42,592,882.5286323674954,883.4864538824186,"[70, 0, 184]",184,a,0.43446707003749907,colour,0.06
117,19,1,1,12,43,593,883.9973576907068,884.7504106822889,"[56, 0, 198]",198,a,0.2297001222614199,colour,0.06
117,19,1,1,12,44,594,885.2663647709414,885.9503916201647,"[53, 0, 201]",201,a,0.1608212781138718,colour,0.06
117,19,1,1,12,45,595,886.4693613834679,887.3184319278225,"[74, 0, 180]",180,l,0.32705478044226766,colour,0.06
117,19,1,1,12,46,596,887.8267087871209,888.7744293473661,"[85, 0, 169]",169,l,0.4243283064570278,colour,0.06
117,19,1,1,12,47,597,889.2954632546753,890.0783839102369,"[60, 0, 194]",194,a,0.2595796014647931,colour,0.06
117,19,1,1,12,48,598,890.5922069011722,891.3824282698333,"[96, 0, 158]",158,l,0.27910606539808214,colour,0.06
117,19,1,1,12,49,599,891.8923352553975,892.7904190791305,"[77, 0, 177]",177,l,0.3748475327156484,colour,0.06
117,19,1,1,12,50,600,893.2973619836848,893.8624077269342,"[24, 0, 230]",230,a,0.05420928238891065,colour,0.06
117,19,1,1,13,1,601,898.2218169113621,899.3584009399638,"[57, 0, 197]",197,a,0.6124962435569614,colour,0.06
117,19,1,1,13,2,602,899.8811319274828,901.7744080796838,"[71, 0, 183]",183,l,1.3699823596980423,colour,0.06
117,19,1,1,13,3,603,902.2860846128315,902.8784214830957,"[58, 0, 196]",196,a,0.06902102241292596,colour,0.06
117,19,1,1,13,4,604,903.3962935991585,904.1183489840478,"[91, 0, 163]",163,l,0.1994909942150116,colour,0.06
117,19,1,1,13,5,605,904.62982701906,905.438371259952,"[8, 0, 246]",246,a,0.28488495969213545,colour,0.06
117,19,1,1,13,6,606,905.9583858952392,907.1583936144598,"[70, 0, 184]",184,l,0.6766914774198085,colour,0.06
117,19,1,1,13,7,607,907.6770896553062,908.5423689093441,"[63, 0, 191]",191,l,0.3422020764555782,colour,0.06
117,19,1,1,13,8,608,909.0521569536068,909.5824671029113,"[55, 0, 199]",199,a,0.00681588938459754,colour,0.06
117,19,1,1,13,9,609,910.0990273198113,910.790369060589,"[72, 0, 182]",182,l,0.16822911705821753,colour,0.06
117,19,1,1,13,10,610,911.3020562275779,911.8704086972866,"[76, 0, 178]",178,a,0.04523118142969906,colour,0.06
117,19,1,1,13,11,611,912.3802459721919,913.6464150019456,"[95, 0, 159]",159,l,0.7428000126965344,colour,0.06
117,19,1,1,13,12,612,914.161842913134,914.7503831130452,"[84, 0, 170]",170,l,0.06536771194078028,colour,0.06
117,19,1,1,13,13,613,915.2568179569207,916.0944138141349,"[68, 0, 186]",186,l,0.3141780032310635,colour,0.06
117,19,1,1,13,14,614,916.6006028985139,917.3183673371095,"[74, 0, 180]",180,l,0.1943387077189982,colour,0.06
117,19,1,1,13,15,615,917.8349043170456,918.6543718616012,"[93, 0, 161]",161,l,0.2930623728316277,colour,0.06
117,19,1,1,13,16,616,919.1657912137453,919.6944054644555,"[66, 0, 188]",188,a,0.004973480245098472,colour,0.06
117,19,1,1,13,17,617,920.212846293347,921.9343589593191,"[75, 0, 179]",179,l,1.1980948119889945,colour,0.06
117,19,1,1,13,18,618,922.4472843764815,923.5024128940422,"[88, 0, 166]",166,l,0.5318150327075273,colour,0.06
117,19,1,1,13,19,619,924.009761459427,924.66232438921,"[65, 0, 189]",189,a,0.12978783156722784,colour,0.06
117,19,1,1,13,20,620,925.1815662996378,925.7663952938747,"[82, 0, 172]",172,l,0.061785687459632754,colour,0.06
117,19,1,1,13,21,621,926.2767717433162,926.8063867553137,"[51, 0, 203]",203,a,0.006270807236433029,colour,0.06
117,19,1,1,13,22,622,927.3236586509738,928.614409544738,"[98, 0, 156]",156,l,0.7677245223894715,colour,0.06
117,19,1,1,13,23,623,929.1361220479012,929.7025820901617,"[54, 0, 200]",200,a,0.043298581847921014,colour,0.06
117,19,1,1,13,24,624,930.2157548421528,931.4143592901528,"[3, 0, 251]",251,a,0.675320501672104,colour,0.06
117,19,1,1,13,25,625,931.9344436360989,932.7023146690335,"[69, 0, 185]",185,l,0.24468909250572324,colour,0.06
117,19,1,1,13,26,626,933.2173700022977,933.8063461892307,"[62, 0, 192]",192,a,0.0656989358831197,colour,0.06
117,19,1,1,13,27,627,934.3267007132526,935.0143572420347,"[56, 0, 198]",198,a,0.16461912961676717,colour,0.06
117,19,1,1,13,28,628,935.5296697565354,936.2543170384597,"[19, 0, 235]",235,a,0.2007568133994937,colour,0.06
117,19,1,1,13,29,629,936.7645509156864,937.7503330947366,"[73, 0, 181]",181,l,0.46261717402376235,colour,0.06
117,19,1,1,13,30,630,938.2655699907336,939.0063046780415,"[89, 0, 165]",165,l,0.21742789773270488,colour,0.06
117,19,1,1,13,31,631,939.5069909535814,940.2383021006826,"[67, 0, 187]",187,l,0.20797718223184347,colour,0.06
117,19,1,1,13,32,632,940.7569528492168,941.3103525822517,"[60, 0, 194]",194,a,0.03626607730984688,colour,0.06
117,19,1,1,13,33,633,941.8289151091594,942.4142939117737,"[77, 0, 177]",177,l,0.06206374219618738,colour,0.06
117,19,1,1,13,34,634,942.9226759276353,943.4783489366528,"[94, 0, 160]",160,l,0.03315745503641665,colour,0.06
117,19,1,1,13,35,635,943.9779769496527,945.486284528859,"[79, 0, 175]",175,l,0.9850240265950561,colour,0.06
117,19,1,1,13,36,636,945.9935472358484,946.526313405484,"[59, 0, 195]",195,a,0.01724255387671292,colour,0.06
117,19,1,1,13,37,637,947.0331188580021,947.6463055128697,"[52, 0, 202]",202,a,0.08994878828525543,colour,0.06
117,19,1,1,13,38,638,948.1664572064765,948.8063060170971,"[87, 0, 167]",167,l,0.11655462416820228,colour,0.06
117,19,1,1,13,39,639,949.3227067263797,950.6143020249438,"[64, 0, 190]",190,a,0.7683204105123878,colour,0.06
117,19,1,1,13,40,640,951.1271620637272,951.6783129393589,"[85, 0, 169]",169,l,0.027705058688297868,colour,0.06
117,19,1,1,13,41,641,952.1897019653115,953.2382954051718,"[78, 0, 176]",176,l,0.5252578998915851,colour,0.06
117,19,1,1,13,42,642,953.7459665301722,954.3264518028591,"[50, 0, 204]",204,a,0.05716942483559251,colour,0.06
117,19,1,1,13,43,643,954.8396422779188,955.6143674033228,"[97, 0, 157]",157,l,0.25130727142095566,colour,0.06
117,19,1,1,13,44,644,956.1119564783294,957.0304978166241,"[61, 0, 193]",193,a,0.39549251762218773,colour,0.06
117,19,1,1,13,45,645,957.5432727846783,958.3982651894912,"[86, 0, 168]",168,l,0.3317309075500816,colour,0.06
117,19,1,1,13,46,646,958.9181860894896,959.6869550901465,"[53, 0, 201]",201,a,0.24604825326241553,colour,0.06
117,19,1,1,13,47,647,960.1994842987042,960.9022912746295,"[83, 0, 171]",171,l,0.1794871895108372,colour,0.06
117,19,1,1,13,48,648,961.4098603934981,962.2942860506009,"[99, 0, 155]",155,l,0.3669607772026211,colour,0.06
117,19,1,1,13,49,649,962.8102948837914,963.5822997186333,"[96, 0, 158]",158,l,0.24869962083175778,colour,0.06
117,19,1,1,13,50,650,964.0916084528435,964.7423427579924,"[92, 0, 162]",162,l,0.12744760164059699,colour,0.06
117,19,1,1,14,1,651,969.1398529459257,969.7343114614487,"[89, 0, 165]",165,l,0.07035891525447369,colour,0.06
117,19,1,1,14,2,652,970.2500670519657,971.1742423495743,"[41, 0, 213]",213,a,0.4009334924630821,colour,0.06
117,19,1,1,14,3,653,971.6927497382276,972.6462409221567,"[51, 0, 203]",203,a,0.43015643139369786,colour,0.06
117,19,1,1,14,4,654,973.1614573383704,973.7182807698846,"[78, 0, 176]",176,l,0.03345165750943124,colour,0.06
117,19,1,1,14,5,655,974.2396065166686,975.0302622970194,"[50, 0, 204]",204,a,0.26732142153196037,colour,0.06
117,19,1,1,14,6,656,975.537760917563,976.3022590579931,"[65, 0, 189]",189,l,0.24095149897038937,colour,0.06
117,19,1,1,14,7,657,976.8191989418119,977.566202073358,"[16, 0, 238]",238,a,0.22370855114422739,colour,0.06
117,19,1,1,14,8,658,978.0847248220816,978.7182362654712,"[39, 0, 215]",215,a,0.11018968792632222,colour,0.06
117,19,1,1,14,9,659,979.2255064556375,979.758262779098,"[71, 0, 183]",183,l,0.009504672372713685,colour,0.06
117,19,1,1,14,10,660,980.2722165265586,980.9503045801539,"[70, 0, 184]",184,l,0.15473439637571573,colour,0.06
117,19,1,1,14,11,661,981.4597728219815,982.0462756594643,"[67, 0, 187]",187,l,0.06319486652500927,colour,0.06
117,19,1,1,14,12,662,982.5535356095061,983.9662667426746,"[80, 0, 174]",174,l,0.8881912133656442,colour,0.06
117,19,1,1,14,13,663,984.4769763853401,985.0382888673339,"[57, 0, 197]",197,a,0.03804586478509009,colour,0.06
117,19,1,1,14,14,664,985.5549613302574,986.2222501414362,"[85, 0, 169]",169,l,0.1438851358834654,colour,0.06
117,19,1,1,14,15,665,986.742519594729,987.838226797292,"[74, 0, 180]",180,l,0.5726993419229984,colour,0.06
117,19,1,1,14,16,666,988.351892643841,989.7342315108981,"[66, 0, 188]",188,l,0.8590423176065087,colour,0.06
117,19,1,1,14,17,667,990.243846263038,991.1662122346461,"[92, 0, 162]",162,l,0.3991391328163445,colour,0.06
117,19,1,1,14,18,668,991.6812860786449,992.5903262889478,"[75, 0, 179]",179,l,0.38569876248948276,colour,0.06
117,19,1,1,14,19,669,993.1032099584118,993.6302732459735,"[59, 0, 195]",195,a,0.0037722517736256123,colour,0.06
117,19,1,1,14,20,670,994.1375560392626,994.6782778869383,"[62, 0, 192]",192,a,0.015829436480998993,colour,0.06
117,19,1,1,14,21,671,995.1859809134621,995.7823791177943,"[79, 0, 175]",175,l,0.07295278133824468,colour,0.06
117,19,1,1,14,22,672,996.2954770391807,997.1104673487134,"[93, 0, 161]",161,l,0.29169454774819314,colour,0.06
117,19,1,1,14,23,673,997.6235310055781,998.8222701486666,"[72, 0, 182]",182,l,0.6754370797425508,colour,0.06
117,19,1,1,14,24,674,999.3422757256776,1000.2541977032088,"[68, 0, 186]",186,a,0.38859195122495294,colour,0.06
117,19,1,1,14,25,675,1000.764129501069,1001.6782152655069,"[98, 0, 156]",156,l,0.3886908064596355,colour,0.06
117,19,1,1,14,26,676,1002.1869919146411,1003.1902427149471,"[52, 0, 202]",202,a,0.47989084175787866,colour,0.06
117,19,1,1,14,27,677,1003.7025797269307,1004.5262838671915,"[95, 0, 159]",159,l,0.3005635535810143,colour,0.06
117,19,1,1,14,28,678,1005.0486241597682,1005.7741879201494,"[97, 0, 157]",157,l,0.20255156722851098,colour,0.06
117,19,1,1,14,29,679,1006.2828928893432,1006.8541869905312,"[61, 0, 193]",193,a,0.04797746567055583,colour,0.06
117,19,1,1,14,30,680,1007.361019224627,1008.2861842557322,"[83, 0, 171]",171,l,0.40195709676481783,colour,0.06
117,19,1,1,14,31,681,1008.7985259939451,1009.414178515086,"[58, 0, 196]",196,a,0.09261157736182213,colour,0.06
117,19,1,1,14,32,682,1009.9258727713022,1010.7341767663602,"[96, 0, 158]",158,l,0.2855690692085773,colour,0.06
117,19,1,1,14,33,683,1011.2541299618315,1012.1901702475734,"[54, 0, 200]",200,a,0.4128059637732804,colour,0.06
117,19,1,1,14,34,684,1012.7071798418183,1013.3982072940562,"[99, 0, 155]",155,l,0.1676320475526154,colour,0.06
117,19,1,1,14,35,685,1013.9103158756625,1014.4387363546994,"[82, 0, 172]",172,l,0.005159769440069795,colour,0.06
117,19,1,1,14,36,686,1014.9571259836666,1015.4862246643752,"[64, 0, 190]",190,a,0.0057032760232687,colour,0.06
117,19,1,1,14,37,687,1016.0040416419506,1016.8461820816156,"[94, 0, 160]",160,l,0.3174981202464551,colour,0.06
117,19,1,1,14,38,688,1017.3646024307236,1018.1181674213149,"[76, 0, 178]",178,a,0.23024205351248384,colour,0.06
117,19,1,1,14,39,689,1018.6303413813002,1019.1662232622039,"[90, 0, 164]",164,l,0.012558550108224154,colour,0.06
117,19,1,1,14,40,690,1019.6771329783369,1020.206208816031,"[60, 0, 194]",194,a,0.004338995553553104,colour,0.06
117,19,1,1,14,41,691,1020.7254081910942,1021.6702111442573,"[56, 0, 198]",198,l,0.42148237908259034,colour,0.06
117,19,1,1,14,42,692,1022.178435622016,1023.1101633000653,"[86, 0, 168]",168,a,0.4084114362485707,colour,0.06
117,19,1,1,14,43,693,1023.6316205912735,1024.782193616731,"[69, 0, 185]",185,l,0.6274229865521193,colour,0.06
117,19,1,1,14,44,694,1025.2893232039642,1025.870229497552,"[88, 0, 166]",166,a,0.05767039628699422,colour,0.06
117,19,1,1,14,45,695,1026.3830308532342,1026.9901664664503,"[87, 0, 167]",167,l,0.08382252207957208,colour,0.06
117,19,1,1,14,46,696,1027.5080397641286,1028.446207602974,"[84, 0, 170]",170,l,0.414839387871325,colour,0.06
117,19,1,1,14,47,697,1028.9611853486858,1029.5263228579424,"[63, 0, 191]",191,a,0.041918941074982285,colour,0.06
117,19,1,1,14,48,698,1030.0392628472764,1030.7741788616404,"[73, 0, 181]",181,l,0.21162812947295606,colour,0.06
117,19,1,1,14,49,699,1031.290581934154,1032.0061290229205,"[53, 0, 201]",201,a,0.19216192420572042,colour,0.06
117,19,1,1,14,50,700,1032.5250842138194,1033.094192472985,"[81, 0, 173]",173,l,0.04616144439205527,colour,0.06
117,19,1,1,15,1,701,1041.0272568622604,1042.2701807394624,"[57, 0, 197]",197,a,0.718810492195189,colour,0.06
117,19,1,1,15,2,702,1042.7780015256722,1043.3101639302913,"[68, 0, 186]",186,l,0.008852858329191804,colour,0.06
117,19,1,1,15,3,703,1043.8248325071763,1045.2301235059276,"[67, 0, 187]",187,a,0.8818995323963463,colour,0.06
117,19,1,1,15,4,704,1045.746777851833,1046.4781161739957,"[97, 0, 157]",157,l,0.20554085401818156,colour,0.06
117,19,1,1,15,5,705,1046.998333639698,1047.5501359356567,"[56, 0, 198]",198,a,0.02866525389254093,colour,0.06
117,19,1,1,15,6,706,1048.0608609381597,1048.6781451611314,"[79, 0, 175]",175,l,0.0939494704362005,colour,0.06
117,19,1,1,15,7,707,1049.1947234948166,1049.7261427128688,"[62, 0, 192]",192,a,0.008166779298335314,colour,0.06
117,19,1,1,15,8,708,1050.2416135531384,1051.414113924373,"[18, 0, 236]",236,a,0.6491541971918195,colour,0.06
117,19,1,1,15,9,709,1051.9208748724777,1052.4462028767448,"[76, 0, 178]",178,l,0.001984193455427885,colour,0.06
117,19,1,1,15,10,710,1052.962346011307,1053.5821473004762,"[54, 0, 200]",200,a,0.09641415532678366,colour,0.06
117,19,1,1,15,11,711,1054.1031016509514,1055.1101085555274,"[85, 0, 169]",169,l,0.4837009026668966,colour,0.06
117,19,1,1,15,12,712,1055.6186339312699,1056.326204861747,"[75, 0, 179]",179,l,0.19620947376824915,colour,0.06
117,19,1,1,15,13,713,1056.845807140926,1057.3981143466663,"[51, 0, 203]",203,a,0.029285560362040997,colour,0.06
117,19,1,1,15,14,714,1057.9004780100659,1058.8140651662834,"[96, 0, 158]",158,l,0.3902717020828277,colour,0.06
117,19,1,1,15,15,715,1059.322360930033,1060.5180820354726,"[64, 0, 190]",190,a,0.6724796942435205,colour,0.06
117,19,1,1,15,16,716,1061.0254688039422,1061.5661733224988,"[80, 0, 174]",174,l,0.02483274368569255,colour,0.06
117,19,1,1,15,17,717,1062.0734734451398,1062.678144767182,"[58, 0, 196]",196,a,0.08130309288389981,colour,0.06
117,19,1,1,15,18,718,1063.198611930944,1064.2380854855292,"[21, 0, 233]",233,a,0.5165054721292108,colour,0.06
117,19,1,1,15,19,719,1064.745381669607,1065.2781037285458,"[99, 0, 155]",155,l,0.009387306403368711,colour,0.06
117,19,1,1,15,20,720,1065.7923189895228,1066.326122941915,"[48, 0, 206]",206,a,0.018632434774190187,colour,0.06
117,19,1,1,15,21,721,1066.840413427446,1067.4141678812448,"[50, 0, 204]",204,a,0.05061386711895466,colour,0.06
117,19,1,1,15,22,722,1067.934147858061,1068.5261397196446,"[83, 0, 171]",171,l,0.06937115080654621,colour,0.06
117,19,1,1,15,23,723,1069.0434470614418,1069.6141350346152,"[71, 0, 183]",183,a,0.047394574619829655,colour,0.06
117,19,1,1,15,24,724,1070.121541495202,1070.814106913982,"[78, 0, 176]",176,l,0.1690766727551818,colour,0.06
117,19,1,1,15,25,725,1071.3167840784881,1071.926074420102,"[77, 0, 177]",177,l,0.08619622862897813,colour,0.06
117,19,1,1,15,26,726,1072.4442824863363,1073.4781035711057,"[86, 0, 168]",168,l,0.5201123091392219,colour,0.06
117,19,1,1,15,27,727,1073.997099722037,1074.8380657145754,"[81, 0, 173]",173,l,0.31767810764722526,colour,0.06
117,19,1,1,15,28,728,1075.3564864574,1075.9580956310965,"[59, 0, 195]",195,a,0.07812869851477444,colour,0.06
117,19,1,1,15,29,729,1076.4741206117906,1077.3340746816248,"[93, 0, 161]",161,l,0.34373728604987264,colour,0.06
117,19,1,1,15,30,730,1077.8421128704213,1078.582087042043,"[87, 0, 167]",167,l,0.21672488353215158,colour,0.06
117,19,1,1,15,31,731,1079.0919514922425,1080.0780621385202,"[66, 0, 188]",188,a,0.4626849154010415,colour,0.06
117,19,1,1,15,32,732,1080.5920084030367,1081.1660826592706,"[65, 0, 189]",189,a,0.050782826729118824,colour,0.06
117,19,1,1,15,33,733,1081.6857396829873,1082.5981055244338,"[61, 0, 193]",193,a,0.3877983526326716,colour,0.06
117,19,1,1,15,34,734,1083.1090928281192,1083.9260854478925,"[95, 0, 159]",159,l,0.2937677502632141,colour,0.06
117,19,1,1,15,35,735,1084.4372854279354,1085.030079552671,"[72, 0, 182]",182,a,0.0703656105324626,colour,0.06
117,19,1,1,15,36,736,1085.5459989830852,1086.5181076354347,"[55, 0, 199]",199,a,0.44751241290941834,colour,0.06
117,19,1,1,15,37,737,1087.0322110443376,1088.190081238281,"[73, 0, 181]",181,l,0.6349604006391019,colour,0.06
117,19,1,1,15,38,738,1088.7039337677415,1089.3260457480792,"[88, 0, 166]",166,l,0.098814643220976,colour,0.06
117,19,1,1,15,39,739,1089.8445744046476,1090.7020287371706,"[90, 0, 164]",164,l,0.3341073708143085,colour,0.06
117,19,1,1,15,40,740,1091.2195767185185,1092.166025945684,"[69, 0, 185]",185,a,0.4230727271642536,colour,0.06
117,19,1,1,15,41,741,1092.6727553859819,1093.5900663509965,"[74, 0, 180]",180,a,0.39418376912362874,colour,0.06
117,19,1,1,15,42,742,1094.1102660936303,1095.0780550492927,"[52, 0, 202]",202,a,0.4445723567623645,colour,0.06
117,19,1,1,15,43,743,1095.5958917192183,1096.446046913974,"[91, 0, 163]",163,l,0.3271288233809173,colour,0.06
117,19,1,1,15,44,744,1096.9552756976336,1097.6940305237658,"[60, 0, 194]",194,a,0.21619752468541265,colour,0.06
117,19,1,1,15,45,745,1098.2052096300758,1099.1500700847246,"[70, 0, 184]",184,a,0.42157690203748643,colour,0.06
117,19,1,1,15,46,746,1099.658392629819,1100.1980487320106,"[92, 0, 162]",162,l,0.015247333096340299,colour,0.06
117,19,1,1,15,47,747,1100.7067655164283,1101.6540733268484,"[53, 0, 201]",201,a,0.4240124423522502,colour,0.06
117,19,1,1,15,48,748,1102.1754514551722,1102.8540530831087,"[63, 0, 191]",191,a,0.15534446318633854,colour,0.06
117,19,1,1,15,49,749,1103.3629589134362,1104.005991964601,"[98, 0, 156]",156,l,0.11908823205158114,colour,0.06
117,19,1,1,15,50,750,1104.5198263770435,1105.4941114196554,"[82, 0, 172]",172,l,0.4509447761811316,colour,0.06
117,19,1,1,16,1,751,1109.8649362146389,1110.9580582156777,"[56, 0, 198]",198,a,0.5691326775122434,colour,0.06
117,19,1,1,16,2,752,1111.4742962669116,1112.1899843523279,"[48, 0, 206]",206,a,0.19245021883398294,colour,0.06
117,19,1,1,16,3,753,1112.7085807502735,1113.4060483633075,"[99, 0, 155]",155,l,0.17419311893172562,colour,0.06
117,19,1,1,16,4,754,1113.9149664028082,1114.534025293542,"[86, 0, 168]",168,l,0.09590136865153909,colour,0.06
117,19,1,1,16,5,755,1115.0399847659282,1115.95799913886,"[88, 0, 166]",166,l,0.3949651583097875,colour,0.06
117,19,1,1,16,6,756,1116.477444667602,1117.2859869392123,"[79, 0, 175]",175,l,0.28520909463986754,colour,0.06
117,19,1,1,16,7,757,1117.8056522335391,1118.486022621626,"[87, 0, 167]",167,l,0.15722113684751093,colour,0.06
117,19,1,1,16,8,758,1118.9930698953103,1119.6380832013674,"[93, 0, 161]",161,l,0.12166201206855476,colour,0.06
117,19,1,1,16,9,759,1120.149309962988,1121.133992525516,"[68, 0, 186]",186,a,0.4613568685017526,colour,0.06
117,19,1,1,16,10,760,1121.6506732590497,1122.4380156174302,"[54, 0, 200]",200,a,0.26411591353826225,colour,0.06
117,19,1,1,16,11,761,1122.9475362405647,1123.7579922073055,"[71, 0, 183]",183,a,0.2878313176333904,colour,0.06
117,19,1,1,16,12,762,1124.2756406189874,1124.8620075797662,"[72, 0, 182]",182,a,0.06311137112788856,colour,0.06
117,19,1,1,16,13,763,1125.3694061636925,1126.2780974269845,"[97, 0, 157]",157,l,0.3854203138034791,colour,0.06
117,19,1,1,16,14,764,1126.791277268203,1127.5099971760064,"[82, 0, 172]",172,l,0.19549661362543702,colour,0.06
117,19,1,1,16,15,765,1128.0256251606625,1128.9019884073641,"[90, 0, 164]",164,l,0.3530174666084349,colour,0.06
117,19,1,1,16,16,766,1129.416302129859,1130.3579976423644,"[62, 0, 192]",192,a,0.4162489608861506,colour,0.06
117,19,1,1,16,17,767,1130.8715012245812,1131.4701790066902,"[78, 0, 176]",176,l,0.07522290688939393,colour,0.06
117,19,1,1,16,18,768,1131.980979627464,1132.582040568348,"[83, 0, 171]",171,l,0.07792429276742041,colour,0.06
117,19,1,1,16,19,769,1133.0903461782727,1134.1739560239948,"[81, 0, 173]",173,l,0.5602817886974663,colour,0.06
117,19,1,1,16,20,770,1134.6840457536746,1135.5819578608498,"[51, 0, 203]",203,a,0.3745745976921171,colour,0.06
117,19,1,1,16,21,771,1136.090286313789,1136.7260233778507,"[6, 0, 248]",248,a,0.112399160861969,colour,0.06
117,19,1,1,16,22,772,1137.2327559688129,1138.0539981811307,"[63, 0, 191]",191,l,0.29785271524451673,colour,0.06
117,19,1,1,16,23,773,1138.560877282871,1139.9259598110802,"[65, 0, 189]",189,l,0.8417595911305398,colour,0.06
117,19,1,1,16,24,774,1140.4358734919224,1141.053948162822,"[73, 0, 181]",181,l,0.09479860123246908,colour,0.06
117,19,1,1,16,25,775,1141.5608926427085,1142.1659991641063,"[61, 0, 193]",193,a,0.08144881553016603,colour,0.06
117,19,1,1,16,26,776,1142.6863430542871,1143.5340107211377,"[70, 0, 184]",184,a,0.3244231049902737,colour,0.06
117,19,1,1,16,27,777,1144.0456399929244,1145.013917710632,"[91, 0, 163]",163,l,0.445345081621781,colour,0.06
117,19,1,1,16,28,778,1145.5300675404724,1146.4619755996391,"[66, 0, 188]",188,a,0.4087139095645398,colour,0.06
117,19,1,1,16,29,779,1146.9831442020368,1147.6779584782198,"[50, 0, 204]",204,a,0.17158074188046157,colour,0.06
117,19,1,1,16,30,780,1148.1861597192474,1148.9179088221863,"[89, 0, 165]",165,l,0.2088353713043034,colour,0.06
117,19,1,1,16,31,781,1149.4360968023539,1150.197933335323,"[76, 0, 178]",178,l,0.23844624822959304,colour,0.06
117,19,1,1,16,32,782,1150.7174785067327,1151.5419396178331,"[52, 0, 202]",202,a,0.30109563865698874,colour,0.06
117,19,1,1,16,33,783,1152.0612110667862,1152.9099354210775,"[69, 0, 185]",185,l,0.32532658660784364,colour,0.06
117,19,1,1,16,34,784,1153.4206072543748,1154.18992960779,"[94, 0, 160]",160,l,0.24603761918842793,colour,0.06
117,19,1,1,16,35,785,1154.7018731683493,1155.4299693547655,"[84, 0, 170]",170,l,0.20337982405908406,colour,0.06
117,19,1,1,16,36,786,1155.9376215750817,1156.462042947067,"[55, 0, 199]",199,a,0.0011606623884290457,colour,0.06
117,19,1,1,16,37,787,1156.984376150649,1157.6139018780086,"[67, 0, 187]",187,l,0.1062366608530283,colour,0.06
117,19,1,1,16,38,788,1158.1248466463294,1158.7179562412202,"[60, 0, 194]",194,a,0.0723738286178559,colour,0.06
117,19,1,1,16,39,789,1159.2317276385147,1159.8059673099779,"[75, 0, 179]",179,l,0.051226690877228975,colour,0.06
117,19,1,1,16,40,790,1160.3252954725176,1161.5339654288255,"[53, 0, 201]",201,a,0.6851477331947535,colour,0.06
117,19,1,1,16,41,791,1162.0475446295459,1162.6139168441296,"[80, 0, 174]",174,l,0.04317648964934051,colour,0.06
117,19,1,1,16,42,792,1163.1234666118398,1163.8939890123438,"[59, 0, 195]",195,a,0.24721600487828255,colour,0.06
117,19,1,1,16,43,793,1164.4047829378396,1165.2458989855368,"[85, 0, 169]",169,l,0.3179392272140831,colour,0.06
117,19,1,1,16,44,794,1165.7640912979841,1166.6619002176449,"[57, 0, 197]",197,a,0.3870878554880619,colour,0.06
117,19,1,1,16,45,795,1167.1712109211367,1168.1099364450201,"[11, 0, 243]",243,a,0.41544078988954425,colour,0.06
117,19,1,1,16,46,796,1168.624388013268,1169.261885566404,"[74, 0, 180]",180,l,0.11434515099972486,colour,0.06
117,19,1,1,16,47,797,1169.7804729058407,1170.3259102653246,"[98, 0, 156]",156,l,0.018926243297755718,colour,0.06
117,19,1,1,16,48,798,1170.8461600262672,1171.7179369428195,"[95, 0, 159]",159,l,0.34868792351335287,colour,0.06
117,19,1,1,16,49,799,1172.2369244291913,1172.813899751287,"[58, 0, 196]",196,a,0.053770144702866673,colour,0.06
117,19,1,1,16,50,800,1173.3305489770137,1173.9019021552522,"[77, 0, 177]",177,l,0.04835752653889358,colour,0.06
