id,age,condition,counterbalance,block,trialinblock,trial,tstart,tend,trialstim,trialintensity,response,RT,trialtype,colourfreq
153,21,1,2,Practice,1,NA,5.500158295035362e-06,1.0759958000853658,"[13, 0, 241]",241,a,0.5516574000939727,colour,0.5
153,21,1,2,Practice,2,NA,1.594551800051704,3.620029899990186,"[84, 0, 170]",170,l,1.5024453999940306,colour,0.5
153,21,1,2,Practice,3,NA,4.138836500002071,5.428001800086349,"[23, 0, 231]",231,a,0.7712799999862909,colour,0.5
153,21,1,2,Practice,4,NA,5.9457253001164645,6.779959300067276,"[92, 0, 162]",162,l,0.3231319000478834,colour,0.5
153,21,1,2,Practice,5,NA,7.292701000114903,8.18000980000943,"[82, 0, 172]",172,a,0.3763858999591321,colour,0.5
153,21,1,2,Practice,6,NA,8.68688159994781,9.700017099967226,"[59, 0, 195]",195,a,0.4902613000012934,colour,0.5
153,21,1,2,Practice,7,NA,10.21763200010173,11.091970599954948,"[17, 0, 237]",237,a,0.35115909995511174,colour,0.5
153,21,1,2,Practice,8,NA,11.6080915001221,12.420014000032097,"[47, 0, 207]",207,a,0.2887116000056267,colour,0.5
153,21,1,2,Practice,9,NA,12.93605070002377,13.724051899975166,"[74, 0, 180]",180,l,0.26475370000116527,colour,0.5
153,21,1,2,Practice,10,NA,14.232994500081986,14.939996900036931,"[19, 0, 235]",235,a,0.1838829000480473,colour,0.5
153,21,1,2,1,1,1,4.400772900087759,4.93597670015879,"[81, 0, 173]",173,l,0.011157100088894367,colour,0.5
153,21,1,2,1,2,2,5.436083300039172,5.991952800191939,"[6, 0, 248]",248,a,0.03281000000424683,colour,0.5
153,21,1,2,1,3,3,6.4859657001215965,7.143956700107083,"[96, 0, 158]",158,l,0.13491149991750717,colour,0.5
153,21,1,2,1,4,4,7.657777300104499,10.455969300121069,"[94, 0, 160]",160,l,2.2749672001227736,colour,0.5
153,21,1,2,1,5,5,10.969986300216988,11.751986500108615,"[95, 0, 159]",159,l,0.2589658999349922,colour,0.5
153,21,1,2,1,6,6,12.266662999987602,12.967959200032055,"[22, 0, 232]",232,a,0.17810659995302558,colour,0.5
153,21,1,2,1,7,7,13.485404400154948,14.271946300053969,"[50, 0, 204]",204,a,0.26608980004675686,colour,0.5
153,21,1,2,1,8,8,14.770945199998096,15.52797370008193,"[54, 0, 200]",200,a,0.2320149999577552,colour,0.5
153,21,1,2,1,9,9,16.040971400216222,16.88805210008286,"[64, 0, 190]",190,a,0.3208162998780608,colour,0.5
153,21,1,2,1,10,10,17.405943300109357,18.07993880007416,"[13, 0, 241]",241,a,0.15388379991054535,colour,0.5
153,21,1,2,1,11,11,18.590598500100896,19.1599615002051,"[12, 0, 242]",242,a,0.04460420017130673,colour,0.5
153,21,1,2,1,12,12,19.663473500171676,20.39994930010289,"[58, 0, 196]",196,a,0.21613599988631904,colour,0.5
153,21,1,2,1,13,13,20.89807360013947,23.055945800151676,"[7, 0, 247]",247,a,1.6345665000844747,colour,0.5
153,21,1,2,1,14,14,23.56980360019952,24.29597090021707,"[25, 0, 229]",229,a,0.2000008001923561,colour,0.5
153,21,1,2,1,15,15,24.807569400174543,25.46395230013877,"[46, 0, 208]",208,a,0.1313017001375556,colour,0.5
153,21,1,2,1,16,16,25.98194080009125,28.015933400020003,"[43, 0, 211]",211,a,1.5110496999695897,colour,0.5
153,21,1,2,1,17,17,28.528575000120327,29.23997010011226,"[98, 0, 156]",156,l,0.1880892999470234,colour,0.5
153,21,1,2,1,18,18,29.747211900074035,30.456143100047484,"[52, 0, 202]",202,a,0.1856025999877602,colour,0.5
153,21,1,2,1,19,19,30.96596230007708,31.74396750004962,"[23, 0, 231]",231,a,0.25477869994938374,colour,0.5
153,21,1,2,1,20,20,32.262732200091705,33.31998620019294,"[72, 0, 182]",182,a,0.5340301999822259,colour,0.5
153,21,1,2,1,21,21,33.83543159998953,34.511959000024945,"[90, 0, 164]",164,l,0.1532856000121683,colour,0.5
153,21,1,2,1,22,22,35.02279300009832,35.83192410017364,"[38, 0, 216]",216,a,0.2857988001778722,colour,0.5
153,21,1,2,1,23,23,36.3508518000599,37.17601410020143,"[27, 0, 227]",227,a,0.3025269000791013,colour,0.5
153,21,1,2,1,24,24,37.69449150003493,38.3519576000981,"[45, 0, 209]",209,a,0.1342700000386685,colour,0.5
153,21,1,2,1,25,25,38.86627590004355,39.599953800207004,"[74, 0, 180]",180,l,0.21044720010831952,colour,0.5
153,21,1,2,1,26,26,40.11613260000013,40.847929000156,"[67, 0, 187]",187,l,0.2084921000059694,colour,0.5
153,21,1,2,1,27,27,41.36604310013354,42.01596500002779,"[89, 0, 165]",165,l,0.12664189981296659,colour,0.5
153,21,1,2,1,28,28,42.52220430015586,43.17596650007181,"[16, 0, 238]",238,a,0.13045890000648797,colour,0.5
153,21,1,2,1,29,29,43.69403260014951,44.343954800162464,"[93, 0, 161]",161,l,0.1391596000175923,colour,0.5
153,21,1,2,1,30,30,44.85331220016815,46.359954999992624,"[70, 0, 184]",184,l,0.9835439999587834,colour,0.5
153,21,1,2,1,31,31,46.868830300169066,47.496104600140825,"[3, 0, 251]",251,a,0.10416919994167984,colour,0.5
153,21,1,2,1,32,32,48.00923950015567,48.55196380009875,"[32, 0, 222]",222,a,0.01941940002143383,colour,0.5
153,21,1,2,1,33,33,49.07175170001574,49.93595420010388,"[59, 0, 195]",195,a,0.3409915999509394,colour,0.5
153,21,1,2,1,34,34,50.44657950010151,51.2559373001568,"[35, 0, 219]",219,a,0.2860371000133455,colour,0.5
153,21,1,2,1,35,35,51.77459940011613,52.44797470001504,"[71, 0, 183]",183,l,0.14930299995467067,colour,0.5
153,21,1,2,1,36,36,52.96268400014378,53.711940800072625,"[14, 0, 240]",240,a,0.2258703000843525,colour,0.5
153,21,1,2,1,37,37,54.22828490007669,55.319898300105706,"[69, 0, 185]",185,l,0.5683297999203205,colour,0.5
153,21,1,2,1,38,38,55.837482600007206,56.51188230002299,"[87, 0, 167]",167,l,0.1510957998689264,colour,0.5
153,21,1,2,1,39,39,57.02596820006147,59.311995200114325,"[57, 0, 197]",197,a,1.763802699977532,colour,0.5
153,21,1,2,1,40,40,59.82139310007915,60.479945900151506,"[88, 0, 166]",166,l,0.13523320015519857,colour,0.5
153,21,1,2,1,41,41,60.99310520011932,62.48800380015746,"[99, 0, 155]",155,l,0.9682513000443578,colour,0.5
153,21,1,2,1,42,42,63.002054300159216,63.719963600160554,"[42, 0, 212]",212,a,0.1947045000270009,colour,0.5
153,21,1,2,1,43,43,64.23635200015269,66.88793279998936,"[33, 0, 221]",221,a,2.128347899997607,colour,0.5
153,21,1,2,1,44,44,67.40940100001171,67.95998450019397,"[75, 0, 179]",179,l,0.02504530013538897,colour,0.5
153,21,1,2,1,45,45,68.47415920021012,69.03993230010383,"[39, 0, 215]",215,a,0.042463500052690506,colour,0.5
153,21,1,2,1,46,46,69.55218720017001,70.21593490010127,"[20, 0, 234]",234,a,0.14057080005295575,colour,0.5
153,21,1,2,1,47,47,70.72399580013007,71.25598120014183,"[4, 0, 250]",250,a,0.008736399933695793,colour,0.5
153,21,1,2,1,48,48,71.77080120006576,73.75990480021574,"[8, 0, 246]",246,a,1.4661968001164496,colour,0.5
153,21,1,2,1,49,49,74.27056309999898,74.8559309002012,"[44, 0, 210]",210,a,0.06228539999574423,colour,0.5
153,21,1,2,1,50,50,75.36418440006673,77.14388830005191,"[5, 0, 249]",249,a,1.2564423999283463,colour,0.5
153,21,1,2,2,1,51,82.49012390011922,84.59192120004445,"[98, 0, 156]",156,l,1.5776954998727888,colour,0.5
153,21,1,2,2,2,52,85.10014200001024,85.69598090020008,"[43, 0, 211]",211,a,0.07258580019697547,colour,0.5
153,21,1,2,2,3,53,86.20971520012245,87.63989520003088,"[37, 0, 217]",217,a,0.9161516998428851,colour,0.5
153,21,1,2,2,4,54,88.15341560007073,89.55193500011228,"[34, 0, 220]",220,a,0.872913199942559,colour,0.5
153,21,1,2,2,5,55,90.05995030002668,90.90396570018493,"[63, 0, 191]",191,a,0.31818650010973215,colour,0.5
153,21,1,2,2,6,56,91.42175090010278,92.49589530006051,"[11, 0, 243]",243,a,0.5508864000439644,colour,0.5
153,21,1,2,2,7,57,93.01539010019042,93.59193390002474,"[56, 0, 198]",198,a,0.06588859995827079,colour,0.5
153,21,1,2,2,8,58,94.11226480011828,94.6639104001224,"[83, 0, 171]",171,l,0.03240859997458756,colour,0.5
153,21,1,2,2,9,59,95.17049070005305,96.00796690001152,"[57, 0, 197]",197,a,0.32648889999836683,colour,0.5
153,21,1,2,2,10,60,96.51748999999836,97.3359393000137,"[31, 0, 223]",223,a,0.2952121999114752,colour,0.5
153,21,1,2,2,11,61,97.8454077001661,98.37646780000068,"[87, 0, 167]",167,l,0.007782300002872944,colour,0.5
153,21,1,2,2,12,62,98.9078376002144,99.81589220021851,"[33, 0, 221]",221,a,0.3847493000794202,colour,0.5
153,21,1,2,2,13,63,100.32964230002835,100.93591890018433,"[49, 0, 205]",205,l,0.08314180001616478,colour,0.5
153,21,1,2,2,14,64,101.45449270005338,102.15191610017791,"[46, 0, 208]",208,a,0.17417420004494488,colour,0.5
153,21,1,2,2,15,65,102.657551900018,103.2559425001964,"[18, 0, 236]",236,a,0.0750963999889791,colour,0.5
153,21,1,2,2,16,66,103.76681010005996,104.35992360021919,"[79, 0, 175]",175,l,0.0698221002239734,colour,0.5
153,21,1,2,2,17,67,104.87604550016113,105.63987850002013,"[1, 0, 253]",253,a,0.237409699941054,colour,0.5
153,21,1,2,2,18,68,106.16027200012468,106.92792770010419,"[64, 0, 190]",190,a,0.2444247999228537,colour,0.5
153,21,1,2,2,19,69,107.42914920020849,108.1358979002107,"[48, 0, 206]",206,a,0.18387950002215803,colour,0.5
153,21,1,2,2,20,70,108.64793050009757,110.04788930015638,"[91, 0, 163]",163,l,0.8767198999412358,colour,0.5
153,21,1,2,2,21,71,110.55407170020044,111.35984590020962,"[99, 0, 155]",155,l,0.28253359999507666,colour,0.5
153,21,1,2,2,22,72,111.86646140017547,113.04789130017161,"[88, 0, 166]",166,l,0.6585827001836151,colour,0.5
153,21,1,2,2,23,73,113.55534310010262,115.719872900052,"[24, 0, 230]",230,a,1.6412084000185132,colour,0.5
153,21,1,2,2,24,74,116.22712430008687,117.14388109999709,"[65, 0, 189]",189,a,0.39350069989450276,colour,0.5
153,21,1,2,2,25,75,117.66448730020784,118.45592630002648,"[96, 0, 158]",158,l,0.26811850001104176,colour,0.5
153,21,1,2,2,26,76,118.97680760012008,119.92787560005672,"[42, 0, 212]",212,a,0.4276393000036478,colour,0.5
153,21,1,2,2,27,77,120.4455252001062,121.4798618000932,"[73, 0, 181]",181,a,0.5110174999572337,colour,0.5
153,21,1,2,2,28,78,121.97992380009964,122.78386920015328,"[59, 0, 195]",195,a,0.280746900010854,colour,0.5
153,21,1,2,2,29,79,123.29238430014811,124.06389850005507,"[20, 0, 234]",234,a,0.24837469984777272,colour,0.5
153,21,1,2,2,30,80,124.57340140012093,126.15186020010151,"[0, 0, 254]",254,a,1.0551674000453204,colour,0.5
153,21,1,2,2,31,81,126.6669911001809,127.2558832000941,"[3, 0, 251]",251,a,0.06562589993700385,colour,0.5
153,21,1,2,2,32,82,127.77618200005963,128.5279241001699,"[53, 0, 201]",201,a,0.24156130012124777,colour,0.5
153,21,1,2,2,33,83,129.04482120019384,129.7199655000586,"[52, 0, 202]",202,a,0.15169329987838864,colour,0.5
153,21,1,2,2,34,84,130.23242410016246,130.99983120011166,"[72, 0, 182]",182,a,0.244193600025028,colour,0.5
153,21,1,2,2,35,85,131.51346940011717,132.03994540008716,"[51, 0, 203]",203,a,0.0030958999413996935,colour,0.5
153,21,1,2,2,36,86,132.56025460013188,133.13584520015866,"[15, 0, 239]",239,a,0.0523008001036942,colour,0.5
153,21,1,2,2,37,87,133.65396570018493,134.22393650002778,"[81, 0, 173]",173,l,0.04964559990912676,colour,0.5
153,21,1,2,2,38,88,134.7448382000439,135.51988580008037,"[61, 0, 193]",193,a,0.2518475998658687,colour,0.5
153,21,1,2,2,39,89,136.0135904001072,136.72787700011395,"[12, 0, 242]",242,a,0.1910270000807941,colour,0.5
153,21,1,2,2,40,90,137.2478124999907,137.81593470019288,"[21, 0, 233]",233,a,0.04180820006877184,colour,0.5
153,21,1,2,2,41,91,138.32891440019011,138.87191590014845,"[4, 0, 250]",250,a,0.01980310003273189,colour,0.5
153,21,1,2,2,42,92,139.3913153000176,139.91990420012735,"[35, 0, 219]",219,a,0.017729700077325106,colour,0.5
153,21,1,2,2,43,93,140.44133400009014,142.11985680018552,"[89, 0, 165]",165,l,1.1551674001384526,colour,0.5
153,21,1,2,2,44,94,142.61622630013153,143.2319068000652,"[45, 0, 209]",209,a,0.09235149994492531,colour,0.5
153,21,1,2,2,45,95,143.74112100014463,144.29591820016503,"[10, 0, 244]",244,a,0.031409400049597025,colour,0.5
153,21,1,2,2,46,96,144.80358509998769,145.4158630000893,"[40, 0, 214]",214,a,0.08928760001435876,colour,0.5
153,21,1,2,2,47,97,145.92847600020468,146.56784990010783,"[93, 0, 161]",161,l,0.11677259998396039,colour,0.5
153,21,1,2,2,48,98,147.07528130011633,147.90390120004304,"[77, 0, 177]",177,l,0.3115929998457432,colour,0.5
153,21,1,2,2,49,99,148.41284120013006,150.69587420020252,"[69, 0, 185]",185,l,1.759789900155738,colour,0.5
153,21,1,2,2,50,100,151.20940350019373,152.01583960000426,"[16, 0, 238]",238,a,0.29546799999661744,colour,0.5
153,21,1,2,3,1,101,157.5602807002142,158.40789830009453,"[97, 0, 157]",157,l,0.33593289996497333,colour,0.5
153,21,1,2,3,2,102,158.92367310007103,159.5598437001463,"[3, 0, 251]",251,a,0.11324680014513433,colour,0.5
153,21,1,2,3,3,103,160.07978440006264,161.22385820001364,"[75, 0, 179]",179,a,0.6295511999633163,colour,0.5
153,21,1,2,3,4,104,161.74267140007578,163.3118259999901,"[5, 0, 249]",249,a,1.048648600000888,colour,0.5
153,21,1,2,3,5,105,163.83342130016536,164.7518228001427,"[12, 0, 242]",242,a,0.3921296000480652,colour,0.5
153,21,1,2,3,6,106,165.2600283001084,165.87187720020302,"[87, 0, 167]",167,l,0.08838460012339056,colour,0.5
153,21,1,2,3,7,107,166.3850024000276,167.1278445001226,"[77, 0, 177]",177,l,0.2195693999528885,colour,0.5
153,21,1,2,3,8,108,167.63504290021956,168.33582899998873,"[28, 0, 226]",226,a,0.17753219977021217,colour,0.5
153,21,1,2,3,9,109,168.8536295001395,170.43185450020246,"[9, 0, 245]",245,a,1.06741280015558,colour,0.5
153,21,1,2,3,10,110,170.9503761001397,172.34386270004325,"[31, 0, 223]",223,a,0.8702247999608517,colour,0.5
153,21,1,2,3,11,111,172.85649560019374,173.67186300014146,"[22, 0, 232]",232,a,0.2921406999230385,colour,0.5
153,21,1,2,3,12,112,174.1845552001614,174.79989110003226,"[0, 0, 254]",254,a,0.09205510001629591,colour,0.5
153,21,1,2,3,13,113,175.30941820004955,175.9598842000123,"[85, 0, 169]",169,l,0.12715750001370907,colour,0.5
153,21,1,2,3,14,114,176.48203670000657,178.55982910003513,"[65, 0, 189]",189,l,1.5545917998533696,colour,0.5
153,21,1,2,3,15,115,179.07545710005797,179.86384590016678,"[21, 0, 233]",233,a,0.26509060012176633,colour,0.5
153,21,1,2,3,16,116,180.37226520013064,180.95981620019302,"[78, 0, 176]",176,l,0.06427350011654198,colour,0.5
153,21,1,2,3,17,117,181.4659281000495,182.01585720013827,"[7, 0, 247]",247,a,0.026749700075015426,colour,0.5
153,21,1,2,3,18,118,182.52825060021132,183.13581440015696,"[42, 0, 212]",212,a,0.084248699946329,colour,0.5
153,21,1,2,3,19,119,183.65388850006275,184.29581030015834,"[90, 0, 164]",164,l,0.11901769996620715,colour,0.5
153,21,1,2,3,20,120,184.80986400018446,185.51987110008486,"[34, 0, 220]",220,a,0.18703270005062222,colour,0.5
153,21,1,2,3,21,121,186.02378160017543,186.7598283002153,"[6, 0, 248]",248,a,0.2097652000375092,colour,0.5
153,21,1,2,3,22,122,187.26754320017062,188.0158173001837,"[68, 0, 186]",186,a,0.22497690003365278,colour,0.5
153,21,1,2,3,23,123,188.53316260012798,189.11982130003162,"[38, 0, 216]",216,a,0.06341459997929633,colour,0.5
153,21,1,2,3,24,124,189.6266048999969,190.18385760020465,"[92, 0, 162]",162,l,0.04614090011455119,colour,0.5
153,21,1,2,3,25,125,190.6924541001208,191.2878406001255,"[27, 0, 227]",227,a,0.07212310004979372,colour,0.5
153,21,1,2,3,26,126,191.8016933000181,192.38380479998887,"[89, 0, 165]",165,l,0.05922269984148443,colour,0.5
153,21,1,2,3,27,127,192.88330660015345,193.4559094000142,"[29, 0, 225]",225,a,0.04931229981593788,colour,0.5
153,21,1,2,3,28,128,193.97694860002957,195.93583209998906,"[96, 0, 158]",158,l,1.4356134999543428,colour,0.5
153,21,1,2,3,29,129,196.43732080003247,197.00782900000922,"[16, 0, 238]",238,a,0.047313999850302935,colour,0.5
153,21,1,2,3,30,130,197.51541950018145,200.0398317000363,"[66, 0, 188]",188,l,1.9979764998424798,colour,0.5
153,21,1,2,3,31,131,200.54949870007113,201.17580010020174,"[83, 0, 171]",171,l,0.10306880017742515,colour,0.5
153,21,1,2,3,32,132,201.69100069999695,202.36781110009179,"[94, 0, 160]",160,l,0.1534704000223428,colour,0.5
153,21,1,2,3,33,133,202.87839740002528,203.71182700013742,"[63, 0, 191]",191,a,0.3101349000353366,colour,0.5
153,21,1,2,3,34,134,204.22208020021208,204.83183840010315,"[2, 0, 252]",252,a,0.08656700002029538,colour,0.5
153,21,1,2,3,35,135,205.34714550012723,205.90388870006427,"[33, 0, 221]",221,a,0.03356110001914203,colour,0.5
153,21,1,2,3,36,136,206.4251484000124,207.99979210016318,"[4, 0, 250]",250,a,1.0514812001492828,colour,0.5
153,21,1,2,3,37,137,208.51870320015587,209.07983750011772,"[58, 0, 196]",196,a,0.03795389994047582,colour,0.5
153,21,1,2,3,38,138,209.59662920003757,211.00784560013562,"[54, 0, 200]",200,a,0.8878887000028044,colour,0.5
153,21,1,2,3,39,139,211.51836920017377,212.07977430010214,"[99, 0, 155]",155,l,0.03811449999921024,colour,0.5
153,21,1,2,3,40,140,212.59642180008814,213.26386370020919,"[55, 0, 199]",199,a,0.14418720011599362,colour,0.5
153,21,1,2,3,41,141,213.78518690005876,214.51183000020683,"[64, 0, 190]",190,a,0.20418470003642142,colour,0.5
153,21,1,2,3,42,142,215.00698580010794,215.6558825999964,"[72, 0, 182]",182,a,0.1255874999333173,colour,0.5
153,21,1,2,3,43,143,216.16326649999246,216.6878892001696,"[51, 0, 203]",203,a,0.0015212001744657755,colour,0.5
153,21,1,2,3,44,144,217.2099947000388,218.74383809999563,"[48, 0, 206]",206,a,1.0103685997892171,colour,0.5
153,21,1,2,3,45,145,219.25679280003533,220.83983300020918,"[67, 0, 187]",187,a,1.0597589001990855,colour,0.5
153,21,1,2,3,46,146,221.35042610019445,222.6958121000789,"[95, 0, 159]",159,l,0.8221696999389678,colour,0.5
153,21,1,2,3,47,147,223.20955760008655,223.80782580003142,"[43, 0, 211]",211,a,0.07485780003480613,colour,0.5
153,21,1,2,3,48,148,224.31960789998993,224.9037849002052,"[23, 0, 231]",231,a,0.05779600003734231,colour,0.5
153,21,1,2,3,49,149,225.40710220020264,226.43983390019275,"[30, 0, 224]",224,a,0.5093905001413077,colour,0.5
153,21,1,2,3,50,150,226.95382600021549,227.48781510000117,"[45, 0, 209]",209,a,0.010700899874791503,colour,0.5
153,21,1,2,4,1,151,231.91988070006482,233.03181890002452,"[99, 0, 155]",155,l,0.588062800001353,colour,0.5
153,21,1,2,4,2,152,233.54550630017184,234.31982480012812,"[77, 0, 177]",177,l,0.24800770008005202,colour,0.5
153,21,1,2,4,3,153,234.8204440001864,236.28783829999156,"[43, 0, 211]",211,a,0.9446030999533832,colour,0.5
153,21,1,2,4,4,154,236.80465970002115,237.3838798000943,"[46, 0, 208]",208,a,0.05589749990031123,colour,0.5
153,21,1,2,4,5,155,237.8982929000631,238.58389340015128,"[63, 0, 191]",191,a,0.16234269994311035,colour,0.5
153,21,1,2,4,6,156,239.09699380001985,240.56790270004421,"[4, 0, 250]",250,a,0.9476518000010401,colour,0.5
153,21,1,2,4,7,157,241.08118870016187,242.32785840006545,"[37, 0, 217]",217,a,0.7204316998831928,colour,0.5
153,21,1,2,4,8,158,242.8258881000802,243.8638171001803,"[62, 0, 192]",192,a,0.5147111001424491,colour,0.5
153,21,1,2,4,9,159,244.3743416001089,245.66386010008864,"[20, 0, 234]",234,a,0.7631991999223828,colour,0.5
153,21,1,2,4,10,160,246.1742168001365,247.711843600031,"[85, 0, 169]",169,l,1.0135914999991655,colour,0.5
153,21,1,2,4,11,161,248.20925120008178,248.90381260006689,"[84, 0, 170]",170,l,0.17134579992853105,colour,0.5
153,21,1,2,4,12,162,249.41232640016824,249.99981310009025,"[79, 0, 175]",175,l,0.061145100044086576,colour,0.5
153,21,1,2,4,13,163,250.50904490007088,251.0718595001381,"[22, 0, 232]",232,a,0.05189330014400184,colour,0.5
153,21,1,2,4,14,164,251.59032980003394,252.20780400000513,"[3, 0, 251]",251,a,0.1065559999551624,colour,0.5
153,21,1,2,4,15,165,252.70619700010866,253.8638213002123,"[71, 0, 183]",183,l,0.6344559001736343,colour,0.5
153,21,1,2,4,16,166,254.37779190018773,255.63983520003967,"[60, 0, 194]",194,a,0.7387661000248045,colour,0.5
153,21,1,2,4,17,167,256.1589172000531,256.88781850016676,"[57, 0, 197]",197,a,0.20637509995140135,colour,0.5
153,21,1,2,4,18,168,257.3944079000503,258.1517948000692,"[34, 0, 220]",220,a,0.23413760005496442,colour,0.5
153,21,1,2,4,19,169,258.6598903001286,260.2478296000045,"[94, 0, 160]",160,l,1.0645943998824805,colour,0.5
153,21,1,2,4,20,170,260.7533756000921,261.6318387000356,"[18, 0, 236]",236,a,0.35546569991856813,colour,0.5
153,21,1,2,4,21,171,262.13158190017566,262.7758247000165,"[91, 0, 163]",163,l,0.12098599993623793,colour,0.5
153,21,1,2,4,22,172,263.28771030018106,263.97584450012073,"[32, 0, 222]",222,a,0.1647884000558406,colour,0.5
153,21,1,2,4,23,173,264.49075020011514,265.1357949001249,"[82, 0, 172]",172,l,0.12167380005121231,colour,0.5
153,21,1,2,4,24,174,265.64696809998713,266.22380130016245,"[78, 0, 176]",176,l,0.053640800062566996,colour,0.5
153,21,1,2,4,25,175,266.74052560003474,268.38379290001467,"[36, 0, 218]",218,a,1.1200080998241901,colour,0.5
153,21,1,2,4,26,176,268.89661260019056,269.6878138000611,"[25, 0, 229]",229,a,0.2679808000102639,colour,0.5
153,21,1,2,4,27,177,270.20906350016594,270.8797656001989,"[33, 0, 221]",221,a,0.14750530011951923,colour,0.5
153,21,1,2,4,28,178,271.39643070008606,272.9678519000299,"[47, 0, 207]",207,a,1.0481791999191046,colour,0.5
153,21,1,2,4,29,179,273.47497590002604,274.0237847000826,"[26, 0, 228]",228,a,0.02126679988577962,colour,0.5
153,21,1,2,4,30,180,274.5416302001104,275.18386940006167,"[92, 0, 162]",162,l,0.11895739985629916,colour,0.5
153,21,1,2,4,31,181,275.70192930009216,276.535785500193,"[72, 0, 182]",182,l,0.31062040012329817,colour,0.5
153,21,1,2,4,32,182,277.0330922000576,277.6797947001178,"[24, 0, 230]",230,a,0.12348029995337129,colour,0.5
153,21,1,2,4,33,183,278.1893124000635,278.76781560014933,"[61, 0, 193]",193,a,0.055254300124943256,colour,0.5
153,21,1,2,4,34,184,279.28287830017507,279.8637879001908,"[10, 0, 244]",244,a,0.05767140001989901,colour,0.5
153,21,1,2,4,35,185,280.3765470001381,281.8637913002167,"[13, 0, 241]",241,a,0.9639064001385123,colour,0.5
153,21,1,2,4,36,186,282.37637870013714,283.89575750008225,"[5, 0, 249]",249,a,0.9960014000535011,colour,0.5
153,21,1,2,4,37,187,284.407412200002,285.3117476000916,"[65, 0, 189]",189,a,0.38088349997997284,colour,0.5
153,21,1,2,4,38,188,285.8299850001931,286.5437677002046,"[90, 0, 164]",164,l,0.18751670001074672,colour,0.5
153,21,1,2,4,39,189,287.0393238000106,287.80779600003734,"[21, 0, 233]",233,a,0.24487149994820356,colour,0.5
153,21,1,2,4,40,190,288.32069450011477,289.0398594001308,"[93, 0, 161]",161,l,0.19408400007523596,colour,0.5
153,21,1,2,4,41,191,289.5567715000361,290.3597539002076,"[75, 0, 179]",179,a,0.27968220016919076,colour,0.5
153,21,1,2,4,42,192,290.86912450008094,292.42381640011445,"[53, 0, 201]",201,a,1.04222059994936,colour,0.5
153,21,1,2,4,43,193,292.9382506001275,293.7997849001549,"[7, 0, 247]",247,a,0.34609200013801455,colour,0.5
153,21,1,2,4,44,194,294.3061457001604,295.06375990016386,"[88, 0, 166]",166,l,0.23398860008455813,colour,0.5
153,21,1,2,4,45,195,295.5719194000121,297.0478210002184,"[55, 0, 199]",199,l,0.9509765000548214,colour,0.5
153,21,1,2,4,46,196,297.5584080000408,298.3997837000061,"[48, 0, 206]",206,a,0.31812740000896156,colour,0.5
153,21,1,2,4,47,197,298.9176197000779,299.639785700012,"[16, 0, 238]",238,a,0.19890780001878738,colour,0.5
153,21,1,2,4,48,198,300.1394330000039,301.2077774000354,"[28, 0, 226]",226,a,0.545074800029397,colour,0.5
153,21,1,2,4,49,199,301.7174219000153,303.1997372000478,"[49, 0, 205]",205,a,0.959193899994716,colour,0.5
153,21,1,2,4,50,200,303.7173149001319,304.4077804000117,"[83, 0, 171]",171,l,0.16723759984597564,colour,0.5
153,21,1,2,5,1,201,309.36531420005485,310.4237756000366,"[89, 0, 165]",165,l,0.5343456999398768,colour,0.4
153,21,1,2,5,2,202,310.9442045001779,311.6237630001269,"[39, 0, 215]",215,a,0.15645199990831316,colour,0.4
153,21,1,2,5,3,203,312.13140210020356,313.4637225000188,"[44, 0, 210]",210,a,0.8089701000135392,colour,0.4
153,21,1,2,5,4,204,313.9735269001685,314.73574150004424,"[63, 0, 191]",191,a,0.23898239992558956,colour,0.4
153,21,1,2,5,5,205,315.2546182000078,315.87179590016603,"[83, 0, 171]",171,l,0.09391540009528399,colour,0.4
153,21,1,2,5,6,206,316.38150190003216,316.97580070002005,"[97, 0, 157]",157,a,0.07110419985838234,colour,0.4
153,21,1,2,5,7,207,317.4907268001698,318.20774860004894,"[20, 0, 234]",234,a,0.19375830003991723,colour,0.4
153,21,1,2,5,8,208,318.72498750011437,319.2958604001906,"[0, 0, 254]",254,a,0.04741270001977682,colour,0.4
153,21,1,2,5,9,209,319.8032531000208,321.27975240000524,"[17, 0, 237]",237,a,0.9534710999578238,colour,0.4
153,21,1,2,5,10,210,321.78731010016054,322.48783850017935,"[6, 0, 248]",248,a,0.17737750010564923,colour,0.4
153,21,1,2,5,11,211,323.0059311001096,323.6557313001249,"[69, 0, 185]",185,l,0.12630120012909174,colour,0.4
153,21,1,2,5,12,212,324.1587643001694,324.7757987000514,"[98, 0, 156]",156,l,0.09375300002284348,colour,0.4
153,21,1,2,5,13,213,325.2836854001507,325.91974400007166,"[77, 0, 177]",177,l,0.10992629989050329,colour,0.4
153,21,1,2,5,14,214,326.42736380011775,327.0477687001694,"[47, 0, 207]",207,a,0.09722140012308955,colour,0.4
153,21,1,2,5,15,215,327.56781180016696,328.1437318001408,"[99, 0, 155]",155,l,0.052771100075915456,colour,0.4
153,21,1,2,5,16,216,328.66150540020317,329.21574920020066,"[48, 0, 206]",206,a,0.031031200196594,colour,0.4
153,21,1,2,5,17,217,329.7244320001919,331.4317527001258,"[96, 0, 158]",158,l,1.1839952000882477,colour,0.4
153,21,1,2,5,18,218,331.94306330010295,332.6797853000462,"[81, 0, 173]",173,l,0.21353799989446998,colour,0.4
153,21,1,2,5,19,219,333.19297850015573,333.783756100107,"[53, 0, 201]",201,a,0.06736789993010461,colour,0.4
153,21,1,2,5,20,220,334.3023122001905,335.783712600125,"[60, 0, 194]",194,a,0.9581883000209928,colour,0.4
153,21,1,2,5,21,221,336.3021073001437,337.4957189001143,"[74, 0, 180]",180,a,0.6703991999384016,colour,0.4
153,21,1,2,5,22,222,338.0050757001154,338.78372440021485,"[64, 0, 190]",190,a,0.25537410005927086,colour,0.4
153,21,1,2,5,23,223,339.301890600007,340.04770310013555,"[32, 0, 222]",222,a,0.22264340007677674,colour,0.4
153,21,1,2,5,24,224,340.56741570006125,341.7517449001316,"[49, 0, 205]",205,a,0.6610580999404192,colour,0.4
153,21,1,2,5,25,225,342.27037900011055,343.4077716001775,"[62, 0, 192]",192,a,0.6144159000832587,colour,0.4
153,21,1,2,5,26,226,343.92721650004387,345.1437771001365,"[4, 0, 250]",250,a,0.6957789999432862,colour,0.4
153,21,1,2,5,27,227,345.6623707001563,346.7197140001226,"[13, 0, 241]",241,a,0.5341604000423104,colour,0.4
153,21,1,2,5,28,228,347.2403389001265,348.1517762001604,"[8, 0, 246]",246,a,0.38808450009673834,colour,0.4
153,21,1,2,5,29,229,348.6532986999955,349.80772020015866,"[66, 0, 188]",188,a,0.6317795000504702,colour,0.4
153,21,1,2,5,30,230,350.3250565000344,351.57578190020286,"[61, 0, 193]",193,a,0.7275647001806647,colour,0.4
153,21,1,2,5,31,231,352.09039290016517,353.1037493001204,"[68, 0, 186]",186,a,0.4906393999699503,colour,0.4
153,21,1,2,5,32,232,353.62153370003216,354.607739900006,"[46, 0, 208]",208,a,0.4629269998986274,colour,0.4
153,21,1,2,5,33,233,355.1214423000347,356.0877370000817,"[54, 0, 200]",200,a,0.4409914000425488,colour,0.4
153,21,1,2,5,34,234,356.6081128001679,357.76774110016413,"[95, 0, 159]",159,l,0.6363020001444966,colour,0.4
153,21,1,2,5,35,235,358.2799945001025,359.3038320001215,"[12, 0, 242]",242,a,0.5005958001129329,colour,0.4
153,21,1,2,5,36,236,359.7986379000358,360.7197454001289,"[75, 0, 179]",179,l,0.39819490001536906,colour,0.4
153,21,1,2,5,37,237,361.236018900061,361.9037421999965,"[82, 0, 172]",172,l,0.14456279994919896,colour,0.4
153,21,1,2,5,38,238,362.42341640009545,362.99974170001224,"[78, 0, 176]",176,l,0.053099900018423796,colour,0.4
153,21,1,2,5,39,239,363.5170840001665,364.95171460020356,"[86, 0, 168]",168,l,0.9113721000030637,colour,0.4
153,21,1,2,5,40,240,365.47005750006065,366.04768190020695,"[52, 0, 202]",202,a,0.05448010005056858,colour,0.4
153,21,1,2,5,41,241,366.55208720010705,367.5196840001736,"[70, 0, 184]",184,a,0.44436069997027516,colour,0.4
153,21,1,2,5,42,242,368.0239736000076,368.6077694001142,"[88, 0, 166]",166,l,0.06044359994120896,colour,0.4
153,21,1,2,5,43,243,369.117629500106,369.86370860016905,"[3, 0, 251]",251,a,0.22282580006867647,colour,0.4
153,21,1,2,5,44,244,370.37088210019283,370.9917552000843,"[87, 0, 167]",167,l,0.09577700006775558,colour,0.4
153,21,1,2,5,45,245,371.5132042001933,372.0956979000475,"[40, 0, 214]",214,a,0.05918499990366399,colour,0.4
153,21,1,2,5,46,246,372.6069782001432,373.2397299001459,"[16, 0, 238]",238,a,0.10949259996414185,colour,0.4
153,21,1,2,5,47,247,373.74738960014656,375.1197014001664,"[34, 0, 220]",220,a,0.8459367000032216,colour,0.4
153,21,1,2,5,48,248,375.6477002000902,376.30369210010394,"[76, 0, 178]",178,l,0.1393726000096649,colour,0.4
153,21,1,2,5,49,249,376.8127497001551,377.7517272999976,"[80, 0, 174]",174,l,0.4281151997856796,colour,0.4
153,21,1,2,5,50,250,378.2709294001106,379.0557404002175,"[45, 0, 209]",209,a,0.26435540011152625,colour,0.4
153,21,1,2,6,1,251,386.8251689001918,387.71969759999774,"[55, 0, 199]",199,a,0.3704440000001341,colour,0.28
153,21,1,2,6,2,252,388.23215060005896,388.8557288001757,"[17, 0, 237]",237,a,0.1004091000650078,colour,0.28
153,21,1,2,6,3,253,389.37491710018367,390.839741300093,"[53, 0, 201]",201,a,0.9414460998959839,colour,0.28
153,21,1,2,6,4,254,391.3591243000701,391.92775760008954,"[77, 0, 177]",177,l,0.042323000030592084,colour,0.28
153,21,1,2,6,5,255,392.44178019999526,393.8077392000705,"[62, 0, 192]",192,l,0.842624600045383,colour,0.28
153,21,1,2,6,6,256,394.3165497002192,395.1196835001465,"[19, 0, 235]",235,a,0.2769474999513477,colour,0.28
153,21,1,2,6,7,257,395.6352759001311,396.3677047002129,"[61, 0, 193]",193,a,0.20926130004227161,colour,0.28
153,21,1,2,6,8,258,396.8868101001717,397.41572779999115,"[79, 0, 175]",175,l,0.0057438998483121395,colour,0.28
153,21,1,2,6,9,259,397.9335931001697,398.75175150018185,"[51, 0, 203]",203,a,0.2952662000898272,colour,0.28
153,21,1,2,6,10,260,399.2616829001345,399.98367159999907,"[74, 0, 180]",180,l,0.1986740999855101,colour,0.28
153,21,1,2,6,11,261,400.49596350011416,401.735733400099,"[68, 0, 186]",186,l,0.7164900000207126,colour,0.28
153,21,1,2,6,12,262,402.2458128000144,403.1116820999887,"[58, 0, 196]",196,a,0.3426476998720318,colour,0.28
153,21,1,2,6,13,263,403.6228581999894,404.28777060005814,"[66, 0, 188]",188,l,0.14171999995596707,colour,0.28
153,21,1,2,6,14,264,404.7945589001756,405.4237061000895,"[78, 0, 176]",176,l,0.10593300010077655,colour,0.28
153,21,1,2,6,15,265,405.9351945000235,406.53571790014394,"[54, 0, 200]",200,a,0.07753870007582009,colour,0.28
153,21,1,2,6,16,266,407.03521430003457,407.57568300003186,"[23, 0, 231]",231,a,0.017358599929139018,colour,0.28
153,21,1,2,6,17,267,408.07574830017984,408.7039295001887,"[59, 0, 195]",195,a,0.1057782000862062,colour,0.28
153,21,1,2,6,18,268,409.21627130010165,409.86365840001963,"[32, 0, 222]",222,a,0.12411029986105859,colour,0.28
153,21,1,2,6,19,269,410.37237980007194,410.9036807999946,"[4, 0, 250]",250,a,0.008044799789786339,colour,0.28
153,21,1,2,6,20,270,411.4191387000028,412.05563429999165,"[76, 0, 178]",178,l,0.11328599997796118,colour,0.28
153,21,1,2,6,21,271,412.57536070002243,413.23967230017297,"[27, 0, 227]",227,a,0.1410146001726389,colour,0.28
153,21,1,2,6,22,272,413.74709640000947,414.3356970001478,"[52, 0, 202]",202,a,0.06530730007216334,colour,0.28
153,21,1,2,6,23,273,414.8563658001367,415.38376760017127,"[16, 0, 238]",238,a,0.004020899999886751,colour,0.28
153,21,1,2,6,24,274,415.90312790009193,416.4957003002055,"[91, 0, 163]",163,l,0.06926980009302497,colour,0.28
153,21,1,2,6,25,275,417.01241540000774,417.55174290016294,"[89, 0, 165]",165,l,0.01604310004040599,colour,0.28
153,21,1,2,6,26,276,418.05934630008414,418.6157167002093,"[90, 0, 164]",164,l,0.033184400061145425,colour,0.28
153,21,1,2,6,27,277,419.1373064001091,420.49570560012944,"[24, 0, 230]",230,a,0.8353277000132948,colour,0.28
153,21,1,2,6,28,278,421.0120777001139,421.79165720008314,"[84, 0, 170]",170,l,0.25605289987288415,colour,0.28
153,21,1,2,6,29,279,422.30900350003503,423.0557525001932,"[85, 0, 169]",169,l,0.2233787002041936,colour,0.28
153,21,1,2,6,30,280,423.5764765001368,424.7997485001106,"[81, 0, 173]",173,l,0.6998940000776201,colour,0.28
153,21,1,2,6,31,281,425.31075190007687,428.9036571001634,"[88, 0, 166]",166,l,3.069645900046453,colour,0.28
153,21,1,2,6,32,282,429.4197792999912,430.7916871001944,"[99, 0, 155]",155,l,0.8486501001752913,colour,0.28
153,21,1,2,6,33,283,431.31017290009186,432.2557086001616,"[31, 0, 223]",223,a,0.42213850002735853,colour,0.28
153,21,1,2,6,34,284,432.75728280004114,434.7917711001355,"[83, 0, 171]",171,l,1.5112264000345021,colour,0.28
153,21,1,2,6,35,285,435.303947100183,436.2476553001907,"[98, 0, 156]",156,a,0.42079830006696284,colour,0.28
153,21,1,2,6,36,286,436.75718470010906,438.27963290014304,"[56, 0, 198]",198,a,0.9990916000679135,colour,0.28
153,21,1,2,6,37,287,438.7883112002164,457.0957127001602,"[65, 0, 189]",189,l,17.78419020003639,colour,0.28
153,21,1,2,6,38,288,457.616844000062,458.2157022000756,"[47, 0, 207]",207,a,0.08398290001787245,colour,0.28
153,21,1,2,6,39,289,458.73525970010087,460.0556422001682,"[11, 0, 243]",243,a,0.7970326000358909,colour,0.28
153,21,1,2,6,40,290,460.5632438000757,461.30369810014963,"[75, 0, 179]",179,l,0.22964349994435906,colour,0.28
153,21,1,2,6,41,291,461.81637350004166,462.3756868999917,"[40, 0, 214]",214,a,0.03588119987398386,colour,0.28
153,21,1,2,6,42,292,462.8945932001807,464.1196434001904,"[57, 0, 197]",197,a,0.7019383001606911,colour,0.28
153,21,1,2,6,43,293,464.616390200099,465.6316651001107,"[86, 0, 168]",168,l,0.49211689992807806,colour,0.28
153,21,1,2,6,44,294,466.1475172000937,467.1516973001417,"[92, 0, 162]",162,l,0.48661190015263855,colour,0.28
153,21,1,2,6,45,295,467.6729073000606,468.2236891000066,"[21, 0, 233]",233,a,0.028577099787071347,colour,0.28
153,21,1,2,6,46,296,468.7353608000558,469.3196489000693,"[87, 0, 167]",167,l,0.06101950001902878,colour,0.28
153,21,1,2,6,47,297,469.8256183001213,471.3836933001876,"[73, 0, 181]",181,l,1.0445092001464218,colour,0.28
153,21,1,2,6,48,298,471.89424430020154,473.1676022000611,"[13, 0, 241]",241,a,0.7624999000690877,colour,0.28
153,21,1,2,6,49,299,473.67859250004403,474.4716646000743,"[97, 0, 157]",157,l,0.2699285999406129,colour,0.28
153,21,1,2,6,50,300,474.99096329999156,475.7757339000236,"[69, 0, 185]",185,a,0.2600566998589784,colour,0.28
153,21,1,2,7,1,301,480.77291010017507,481.6796556999907,"[87, 0, 167]",167,l,0.3826535998377949,colour,0.14
153,21,1,2,7,2,302,482.19547000015154,483.22369210002944,"[90, 0, 164]",164,l,0.5050358998123556,colour,0.14
153,21,1,2,7,3,303,483.7422635999974,484.7916017000098,"[86, 0, 168]",168,l,0.5261316997930408,colour,0.14
153,21,1,2,7,4,304,485.30458570015617,486.20767540019006,"[71, 0, 183]",183,l,0.3798068000469357,colour,0.14
153,21,1,2,7,5,305,486.72623230004683,488.719708800083,"[64, 0, 190]",190,a,1.470115999924019,colour,0.14
153,21,1,2,7,6,306,489.2260687001981,489.9116830001585,"[52, 0, 202]",202,a,0.1622466000262648,colour,0.14
153,21,1,2,7,7,307,490.42914200015366,491.77560729999095,"[56, 0, 198]",198,a,0.8273137998767197,colour,0.14
153,21,1,2,7,8,308,492.27198000019416,493.00765510019846,"[78, 0, 176]",176,l,0.21240790002048016,colour,0.14
153,21,1,2,7,9,309,493.52179300016724,494.2236234000884,"[51, 0, 203]",203,a,0.17842600005678833,colour,0.14
153,21,1,2,7,10,310,494.74121700017713,495.3356622001156,"[81, 0, 173]",173,l,0.07117210002616048,colour,0.14
153,21,1,2,7,11,311,495.852390400134,496.55965400021523,"[76, 0, 178]",178,l,0.18398280022665858,colour,0.14
153,21,1,2,7,12,312,497.07111310004257,498.8316252999939,"[54, 0, 200]",200,a,1.237474099965766,colour,0.14
153,21,1,2,7,13,313,499.35419230000116,500.0236220001243,"[83, 0, 171]",171,l,0.14631929993629456,colour,0.14
153,21,1,2,7,14,314,500.54159230017103,501.23962780018337,"[49, 0, 205]",205,a,0.17551910015754402,colour,0.14
153,21,1,2,7,15,315,501.7601913001854,502.38360030017793,"[80, 0, 174]",174,l,0.11245270003564656,colour,0.14
153,21,1,2,7,16,316,502.90405410015956,503.655637799995,"[69, 0, 185]",185,l,0.22926969989202917,colour,0.14
153,21,1,2,7,17,317,504.16952900006436,504.83959550014697,"[98, 0, 156]",156,l,0.14704570011235774,colour,0.14
153,21,1,2,7,18,318,505.35692970012315,506.0876029001083,"[66, 0, 188]",188,a,0.20735729997977614,colour,0.14
153,21,1,2,7,19,319,506.6067927000113,507.39959100005217,"[93, 0, 161]",161,l,0.26943859993480146,colour,0.14
153,21,1,2,7,20,320,507.92098920000717,508.6636369000189,"[82, 0, 172]",172,l,0.21651820000261068,colour,0.14
153,21,1,2,7,21,321,509.17390800011344,509.8636531000957,"[61, 0, 193]",193,a,0.16637629992328584,colour,0.14
153,21,1,2,7,22,322,510.3785392001737,511.59162990003824,"[74, 0, 180]",180,l,0.689892599824816,colour,0.14
153,21,1,2,7,23,323,512.1128065001685,512.7516214000061,"[65, 0, 189]",189,a,0.11565179983153939,colour,0.14
153,21,1,2,7,24,324,513.2688738000579,513.9755967000965,"[85, 0, 169]",169,l,0.18349860003218055,colour,0.14
153,21,1,2,7,25,325,514.4875497000758,515.1916554002091,"[58, 0, 196]",196,a,0.1809586000163108,colour,0.14
153,21,1,2,7,26,326,515.7061333002057,516.375606100075,"[17, 0, 237]",237,a,0.14621119992807508,colour,0.14
153,21,1,2,7,27,327,516.8935429002158,517.5276117001195,"[95, 0, 159]",159,l,0.11081640003249049,colour,0.14
153,21,1,2,7,28,328,518.0340869000647,518.6796883000061,"[91, 0, 163]",163,l,0.12231100001372397,colour,0.14
153,21,1,2,7,29,329,519.19022710016,519.7676158000249,"[18, 0, 236]",236,a,0.054043699987232685,colour,0.14
153,21,1,2,7,30,330,520.2839234001003,520.8955909002107,"[60, 0, 194]",194,a,0.08848650008440018,colour,0.14
153,21,1,2,7,31,331,521.4072749000043,522.0396136001218,"[48, 0, 206]",206,a,0.10900330008007586,colour,0.14
153,21,1,2,7,32,332,522.5476741001476,523.2475780001841,"[79, 0, 175]",175,l,0.1735400001052767,colour,0.14
153,21,1,2,7,33,333,523.7537531000562,524.4155878000893,"[8, 0, 246]",246,a,0.13882769993506372,colour,0.14
153,21,1,2,7,34,334,524.9255435001105,525.6235818001442,"[50, 0, 204]",204,a,0.1752520001027733,colour,0.14
153,21,1,2,7,35,335,526.1441656001844,526.7675994001329,"[99, 0, 155]",155,l,0.10027749999426305,colour,0.14
153,21,1,2,7,36,336,527.2876248999964,527.9995732000098,"[75, 0, 179]",179,l,0.19960809987969697,colour,0.14
153,21,1,2,7,37,337,528.5109489001334,529.0876251000445,"[96, 0, 158]",158,l,0.05345349991694093,colour,0.14
153,21,1,2,7,38,338,529.6046491002198,530.2075950000435,"[29, 0, 225]",225,a,0.08022070000879467,colour,0.14
153,21,1,2,7,39,339,530.7139015002176,531.3836352000944,"[47, 0, 207]",207,a,0.15576289989985526,colour,0.14
153,21,1,2,7,40,340,531.8920720000751,532.5676235000137,"[70, 0, 184]",184,a,0.1522816999349743,colour,0.14
153,21,1,2,7,41,341,533.0793457000982,533.7195738002192,"[84, 0, 170]",170,l,0.1169352000579238,colour,0.14
153,21,1,2,7,42,342,534.2355635000858,534.847622100031,"[89, 0, 165]",165,l,0.08906709984876215,colour,0.14
153,21,1,2,7,43,343,535.3604226000607,536.1115757999942,"[72, 0, 182]",182,a,0.22788389981724322,colour,0.14
153,21,1,2,7,44,344,536.6259815001395,537.2555878001731,"[92, 0, 162]",162,l,0.10631670011207461,colour,0.14
153,21,1,2,7,45,345,537.7588726000395,538.3355696999934,"[62, 0, 192]",192,a,0.05049079982563853,colour,0.14
153,21,1,2,7,46,346,538.8424446000718,539.8475696002133,"[59, 0, 195]",195,a,0.4818893000483513,colour,0.14
153,21,1,2,7,47,347,540.3579047000967,541.0156271001324,"[77, 0, 177]",177,l,0.13442580006085336,colour,0.14
153,21,1,2,7,48,348,541.5297134001739,542.2075536001939,"[73, 0, 181]",181,l,0.16706950007937849,colour,0.14
153,21,1,2,7,49,349,542.7202274000738,543.3355631001759,"[68, 0, 186]",186,a,0.09225230012089014,colour,0.14
153,21,1,2,7,50,350,543.8327955000568,544.4876695000567,"[88, 0, 166]",166,l,0.13155260006897151,colour,0.14
153,21,1,2,8,1,351,550.8265526001342,551.6635636000428,"[52, 0, 202]",202,a,0.31301649985834956,colour,0.06
153,21,1,2,8,2,352,552.1709499000572,552.7116088999901,"[67, 0, 187]",187,a,0.014142100000753999,colour,0.06
153,21,1,2,8,3,353,553.2210589000024,553.9195759000722,"[74, 0, 180]",180,l,0.17514130007475615,colour,0.06
153,21,1,2,8,4,354,554.4396707999986,555.0555443000048,"[60, 0, 194]",194,a,0.09267619997262955,colour,0.06
153,21,1,2,8,5,355,555.5659641001839,556.1996201002039,"[81, 0, 173]",173,l,0.10943730012513697,colour,0.06
153,21,1,2,8,6,356,556.7076479000971,557.3995867001358,"[84, 0, 170]",170,l,0.1672092000953853,colour,0.06
153,21,1,2,8,7,357,557.9120844001882,558.463587500155,"[65, 0, 189]",189,a,0.02834740001708269,colour,0.06
153,21,1,2,8,8,358,558.9649004000239,559.6395354000852,"[79, 0, 175]",175,l,0.1640425999648869,colour,0.06
153,21,1,2,8,9,359,560.1553735001944,560.7675728001632,"[72, 0, 182]",182,l,0.08882579999044538,colour,0.06
153,21,1,2,8,10,360,561.2801787001081,561.8556085000746,"[85, 0, 169]",169,l,0.04924910003319383,colour,0.06
153,21,1,2,8,11,361,562.3612248001155,562.9195774002001,"[93, 0, 161]",161,l,0.04431070014834404,colour,0.06
153,21,1,2,8,12,362,563.4320368000772,564.0236170000862,"[51, 0, 203]",203,l,0.06537299999035895,colour,0.06
153,21,1,2,8,13,363,564.5442133001052,565.2315749002155,"[61, 0, 193]",193,a,0.17480270005762577,colour,0.06
153,21,1,2,8,14,364,565.7384338001721,566.2956280000508,"[97, 0, 157]",157,l,0.033838999923318624,colour,0.06
153,21,1,2,8,15,365,566.8173906002194,567.3996078001801,"[66, 0, 188]",188,a,0.058890300104394555,colour,0.06
153,21,1,2,8,16,366,567.9110546000302,568.5196159000043,"[63, 0, 191]",191,a,0.0853768999222666,colour,0.06
153,21,1,2,8,17,367,569.0360100001562,569.6316067001317,"[76, 0, 178]",178,l,0.07244189991615713,colour,0.06
153,21,1,2,8,18,368,570.1431545000523,570.6796653000638,"[64, 0, 190]",190,a,0.02249690005555749,colour,0.06
153,21,1,2,8,19,369,571.1981544999871,571.871566100046,"[99, 0, 155]",155,l,0.15001589991152287,colour,0.06
153,21,1,2,8,20,370,572.3856426000129,572.9115905000363,"[39, 0, 215]",215,a,0.0031514998991042376,colour,0.06
153,21,1,2,8,21,371,573.423267400125,574.0875525001902,"[6, 0, 248]",248,a,0.14092240016907454,colour,0.06
153,21,1,2,8,22,372,574.5971090001985,575.223601100035,"[88, 0, 166]",166,l,0.10019359993748367,colour,0.06
153,21,1,2,8,23,373,575.7406787001528,576.3675758000463,"[56, 0, 198]",198,a,0.10365869989618659,colour,0.06
153,21,1,2,8,24,374,576.8688281001523,577.5515865001362,"[87, 0, 167]",167,l,0.15943220001645386,colour,0.06
153,21,1,2,8,25,375,578.0718800001778,578.7115614002105,"[80, 0, 174]",174,l,0.11640690010972321,colour,0.06
153,21,1,2,8,26,376,579.2280455001164,579.8315431000665,"[86, 0, 168]",168,l,0.07895620004273951,colour,0.06
153,21,1,2,8,27,377,580.3317710000556,580.9996106000617,"[83, 0, 171]",171,l,0.14489830005913973,colour,0.06
153,21,1,2,8,28,378,581.5191877000034,582.1596197001636,"[54, 0, 200]",200,a,0.11719859996810555,colour,0.06
153,21,1,2,8,29,379,582.6774525002111,583.2955609001219,"[28, 0, 226]",226,a,0.0947730999905616,colour,0.06
153,21,1,2,8,30,380,583.7922928000335,584.4956014000345,"[59, 0, 195]",195,a,0.17992829997092485,colour,0.06
153,21,1,2,8,31,381,585.0109283002093,585.6715719001368,"[69, 0, 185]",185,a,0.13556029996834695,colour,0.06
153,21,1,2,8,32,382,586.184512300184,586.7675966001116,"[82, 0, 172]",172,l,0.05978540005162358,colour,0.06
153,21,1,2,8,33,383,587.2782123000361,588.2955669001676,"[70, 0, 184]",184,a,0.49414209998212755,colour,0.06
153,21,1,2,8,34,384,588.8093775000889,589.5035950001329,"[71, 0, 183]",183,l,0.1701871999539435,colour,0.06
153,21,1,2,8,35,385,590.0124005000107,590.6875907001086,"[62, 0, 192]",192,a,0.15206090011633933,colour,0.06
153,21,1,2,8,36,386,591.1873746002093,591.7356238001958,"[73, 0, 181]",181,a,0.0373929999768734,colour,0.06
153,21,1,2,8,37,387,592.2529697001446,592.8314991001971,"[55, 0, 199]",199,a,0.05539880017749965,colour,0.06
153,21,1,2,8,38,388,593.3466358000878,593.8955671000294,"[96, 0, 158]",158,l,0.02571640000678599,colour,0.06
153,21,1,2,8,39,389,594.4069015001878,595.0635345000774,"[53, 0, 201]",201,a,0.13333670003339648,colour,0.06
153,21,1,2,8,40,390,595.5786402001977,596.2315305999946,"[50, 0, 204]",204,a,0.1295177999418229,colour,0.06
153,21,1,2,8,41,391,596.7504738999996,597.3596072001383,"[94, 0, 160]",160,l,0.09511710004881024,colour,0.06
153,21,1,2,8,42,392,597.8661181000061,598.5355421002023,"[58, 0, 196]",196,a,0.14698570012114942,colour,0.06
153,21,1,2,8,43,393,599.05458180001,599.6955405999906,"[78, 0, 176]",176,l,0.1182622998021543,colour,0.06
153,21,1,2,8,44,394,600.2147297000047,600.8635342000052,"[92, 0, 162]",162,l,0.12236409983597696,colour,0.06
153,21,1,2,8,45,395,601.3746619999874,601.9915652000345,"[68, 0, 186]",186,a,0.09362439997494221,colour,0.06
153,21,1,2,8,46,396,602.4901324000675,603.1035305000842,"[89, 0, 165]",165,l,0.09962800005450845,colour,0.06
153,21,1,2,8,47,397,603.6211326001212,604.2315500001423,"[98, 0, 156]",156,l,0.08709369995631278,colour,0.06
153,21,1,2,8,48,398,604.7420306000859,605.3515059000347,"[95, 0, 159]",159,l,0.08618530002422631,colour,0.06
153,21,1,2,8,49,399,605.8689583002124,606.4875428001396,"[90, 0, 164]",164,l,0.09538469999097288,colour,0.06
153,21,1,2,8,50,400,606.9939121000934,609.0075448001735,"[75, 0, 179]",179,a,1.5027471999637783,colour,0.06
153,21,1,2,9,1,401,614.389417400118,615.1915299000684,"[70, 0, 184]",184,a,0.2780339999590069,colour,0.06
153,21,1,2,9,2,402,615.6923101001885,616.3195520001464,"[20, 0, 234]",234,a,0.10392719996161759,colour,0.06
153,21,1,2,9,3,403,616.8204584000632,617.4715476999991,"[77, 0, 177]",177,a,0.12815469992347062,colour,0.06
153,21,1,2,9,4,404,617.9921604001429,618.5675803001504,"[64, 0, 190]",190,a,0.05284180003218353,colour,0.06
153,21,1,2,9,5,405,619.0858109002002,619.70354220015,"[87, 0, 167]",167,l,0.09454780002124608,colour,0.06
153,21,1,2,9,6,406,620.2108039001469,620.7675474002026,"[61, 0, 193]",193,a,0.033588800113648176,colour,0.06
153,21,1,2,9,7,407,621.2731599002145,621.8715447001159,"[90, 0, 164]",164,a,0.0759771999437362,colour,0.06
153,21,1,2,9,8,408,622.3824438001029,623.0235342001542,"[96, 0, 158]",158,l,0.11781850014813244,colour,0.06
153,21,1,2,9,9,409,623.5417832999956,624.111554000061,"[99, 0, 155]",155,l,0.04456199984997511,colour,0.06
153,21,1,2,9,10,410,624.6246129001956,625.2555561000481,"[88, 0, 166]",166,l,0.10471019987016916,colour,0.06
153,21,1,2,9,11,411,625.7558444000315,626.3995132001583,"[92, 0, 162]",162,l,0.12200159998610616,colour,0.06
153,21,1,2,9,12,412,626.9051379000302,627.5275612000842,"[60, 0, 194]",194,a,0.0977862998843193,colour,0.06
153,21,1,2,9,13,413,628.0469900001772,628.7195381000638,"[95, 0, 159]",159,l,0.14964669989421964,colour,0.06
153,21,1,2,9,14,414,629.224313300103,629.8635717001744,"[58, 0, 196]",196,a,0.11596930003724992,colour,0.06
153,21,1,2,9,15,415,630.3804972001817,631.16752430005,"[59, 0, 195]",195,l,0.26375989988446236,colour,0.06
153,21,1,2,9,16,416,631.6773376001511,632.599495400209,"[85, 0, 169]",169,l,0.39904700010083616,colour,0.06
153,21,1,2,9,17,417,633.1022447000723,633.9035015001427,"[81, 0, 173]",173,l,0.2780882001388818,colour,0.06
153,21,1,2,9,18,418,634.4146555000916,635.5594841002021,"[91, 0, 163]",163,l,0.6216659999918193,colour,0.06
153,21,1,2,9,19,419,636.0707761000376,636.6795409000479,"[89, 0, 165]",165,l,0.08579919999465346,colour,0.06
153,21,1,2,9,20,420,637.1956560001709,639.0715100001544,"[97, 0, 157]",157,l,1.3525672000832856,colour,0.06
153,21,1,2,9,21,421,639.5861161001958,640.1274946001358,"[52, 0, 202]",202,a,0.018233499955385923,colour,0.06
153,21,1,2,9,22,422,640.6484569001477,641.2715936000459,"[65, 0, 189]",189,a,0.09986809990368783,colour,0.06
153,21,1,2,9,23,423,641.7895470000803,642.3595256002154,"[84, 0, 170]",170,a,0.04665410006418824,colour,0.06
153,21,1,2,9,24,424,642.86753830011,643.575611700071,"[53, 0, 201]",201,a,0.18468210007995367,colour,0.06
153,21,1,2,9,25,425,644.0862441000063,644.711567300139,"[83, 0, 171]",171,l,0.10216420004144311,colour,0.06
153,21,1,2,9,26,426,645.2266602001619,646.0715350001119,"[78, 0, 176]",176,a,0.3214404000900686,colour,0.06
153,21,1,2,9,27,427,646.5860313000157,647.3354950000066,"[69, 0, 185]",185,a,0.2263317999895662,colour,0.06
153,21,1,2,9,28,428,647.8516308001708,648.455526900012,"[56, 0, 198]",198,a,0.08077549980953336,colour,0.06
153,21,1,2,9,29,429,648.9763860001694,649.6555579002015,"[15, 0, 239]",239,a,0.15582930017262697,colour,0.06
153,21,1,2,9,30,430,650.1650112001225,650.7115424000658,"[68, 0, 186]",186,a,0.023156699957326055,colour,0.06
153,21,1,2,9,31,431,651.225477800006,651.8234993000515,"[57, 0, 197]",197,a,0.0747616000007838,colour,0.06
153,21,1,2,9,32,432,652.3347276002169,652.8875627000816,"[63, 0, 191]",191,a,0.02965099993161857,colour,0.06
153,21,1,2,9,33,433,653.3973371000029,654.0155433001928,"[55, 0, 199]",199,a,0.09182199998758733,colour,0.06
153,21,1,2,9,34,434,654.5253370001446,655.5755555001087,"[72, 0, 182]",182,a,0.5268526999279857,colour,0.06
153,21,1,2,9,35,435,656.0899197000545,656.8075313000008,"[94, 0, 160]",160,l,0.1942932999227196,colour,0.06
153,21,1,2,9,36,436,657.3241630000994,658.8155240002088,"[76, 0, 178]",178,l,0.9680590000934899,colour,0.06
153,21,1,2,9,37,437,659.3239844001364,660.1355394001585,"[75, 0, 179]",179,l,0.2882461999543011,colour,0.06
153,21,1,2,9,38,438,660.6439374000765,661.2474698000588,"[98, 0, 156]",156,a,0.08022750006057322,colour,0.06
153,21,1,2,9,39,439,661.7691080002114,662.5355021001305,"[71, 0, 183]",183,a,0.24331429996527731,colour,0.06
153,21,1,2,9,40,440,663.0471751000732,663.7114647000562,"[74, 0, 180]",180,a,0.13791299983859062,colour,0.06
153,21,1,2,9,41,441,664.2246331002098,664.8954851999879,"[50, 0, 204]",204,a,0.14646079996600747,colour,0.06
153,21,1,2,9,42,442,665.4151054001413,666.1195197000634,"[86, 0, 168]",168,l,0.18108089989982545,colour,0.06
153,21,1,2,9,43,443,666.6338840001263,667.2875524000265,"[62, 0, 192]",192,a,0.130479299928993,colour,0.06
153,21,1,2,9,44,444,667.8056888000574,668.5915018001106,"[54, 0, 200]",200,a,0.26260889996774495,colour,0.06
153,21,1,2,9,45,445,669.1024059001356,669.7995041999966,"[67, 0, 187]",187,a,0.17389719979837537,colour,0.06
153,21,1,2,9,46,446,670.3054938002024,670.9834776001517,"[79, 0, 175]",175,a,0.15485220006667078,colour,0.06
153,21,1,2,9,47,447,671.4928635000251,672.1675034000073,"[51, 0, 203]",203,a,0.15149209997616708,colour,0.06
153,21,1,2,9,48,448,672.6802361002192,673.4235134001356,"[80, 0, 174]",174,l,0.2199749001301825,colour,0.06
153,21,1,2,9,49,449,673.9300922001712,674.5514981001616,"[93, 0, 161]",161,l,0.09846809995360672,colour,0.06
153,21,1,2,9,50,450,675.0706424000673,675.7995343999937,"[48, 0, 206]",206,a,0.20594559982419014,colour,0.06
153,21,1,2,10,1,451,684.2879639000166,685.1194578001741,"[64, 0, 190]",190,a,0.3074634000658989,colour,0.06
153,21,1,2,10,2,452,685.6323827002198,687.4154858000111,"[53, 0, 201]",201,a,1.259841299848631,colour,0.06
153,21,1,2,10,3,453,687.9291447000578,688.5674798002001,"[74, 0, 180]",180,a,0.11612870008684695,colour,0.06
153,21,1,2,10,4,454,689.0852950001135,689.903461900074,"[85, 0, 169]",169,l,0.2949520000256598,colour,0.06
153,21,1,2,10,5,455,690.4132421000395,691.0874790002126,"[60, 0, 194]",194,a,0.15094960015267134,colour,0.06
153,21,1,2,10,6,456,691.6005887000356,692.2154441000894,"[55, 0, 199]",199,a,0.09151159995235503,colour,0.06
153,21,1,2,10,7,457,692.7256245000754,693.3674815001432,"[87, 0, 167]",167,l,0.11881610006093979,colour,0.06
153,21,1,2,10,8,458,693.8816651001107,694.4714474000502,"[62, 0, 192]",192,a,0.06644209986552596,colour,0.06
153,21,1,2,10,9,459,694.9908829000778,695.6874957000837,"[72, 0, 182]",182,a,0.17321739997714758,colour,0.06
153,21,1,2,10,10,460,696.1939501999877,696.8394991001114,"[54, 0, 200]",200,a,0.12298360001295805,colour,0.06
153,21,1,2,10,11,461,697.3501274001319,697.9755336001981,"[36, 0, 218]",218,a,0.10217610001564026,colour,0.06
153,21,1,2,10,12,462,698.4906278999988,699.0554665999953,"[59, 0, 195]",195,a,0.05398209998384118,colour,0.06
153,21,1,2,10,13,463,699.5719380001538,700.271473800065,"[73, 0, 181]",181,l,0.17636359995231032,colour,0.06
153,21,1,2,10,14,464,700.7906384000089,701.3594792000949,"[83, 0, 171]",171,a,0.045512499986216426,colour,0.06
153,21,1,2,10,15,465,701.8687499000225,702.4394577001221,"[69, 0, 185]",185,a,0.04747060011141002,colour,0.06
153,21,1,2,10,16,466,702.9466301000211,703.5674761000555,"[99, 0, 155]",155,l,0.09748520003631711,colour,0.06
153,21,1,2,10,17,467,704.0872816999909,704.6954648999963,"[61, 0, 193]",193,l,0.08535949978977442,colour,0.06
153,21,1,2,10,18,468,705.2120968000963,705.8154301000759,"[58, 0, 196]",196,a,0.08947089989669621,colour,0.06
153,21,1,2,10,19,469,706.3183723001275,707.1434350002091,"[93, 0, 161]",161,l,0.30171810020692647,colour,0.06
153,21,1,2,10,20,470,707.6620560002048,708.2634651002008,"[50, 0, 204]",204,a,0.07812550012022257,colour,0.06
153,21,1,2,10,21,471,708.7713393000886,709.3914672001265,"[98, 0, 156]",156,l,0.09683860000222921,colour,0.06
153,21,1,2,10,22,472,709.9117621001787,710.519490300212,"[57, 0, 197]",197,a,0.08266680012457073,colour,0.06
153,21,1,2,10,23,473,711.0385302000213,711.6714729000814,"[94, 0, 160]",160,l,0.1097921000327915,colour,0.06
153,21,1,2,10,24,474,712.1790644000284,712.8394636001904,"[71, 0, 183]",183,a,0.13726420002058148,colour,0.06
153,21,1,2,10,25,475,713.3382757001091,713.9755326001905,"[75, 0, 179]",179,a,0.11391080007888377,colour,0.06
153,21,1,2,10,26,476,714.4944578001741,715.1194637001026,"[84, 0, 170]",170,l,0.10138230002485216,colour,0.06
153,21,1,2,10,27,477,715.6354492001701,716.3274931001943,"[96, 0, 158]",158,l,0.16873650019988418,colour,0.06
153,21,1,2,10,28,478,716.8383698000107,717.4394638000522,"[67, 0, 187]",187,a,0.07767069991678,colour,0.06
153,21,1,2,10,29,479,717.9477563002147,718.5994520001113,"[88, 0, 166]",166,l,0.12837990000844002,colour,0.06
153,21,1,2,10,30,480,719.1194014002103,719.7514378000051,"[76, 0, 178]",178,a,0.10871179983951151,colour,0.06
153,21,1,2,10,31,481,720.2485356000252,720.8714666001033,"[81, 0, 173]",173,l,0.10050739999860525,colour,0.06
153,21,1,2,10,32,482,721.3890421001706,722.1034338001627,"[77, 0, 177]",177,l,0.19152410002425313,colour,0.06
153,21,1,2,10,33,483,722.6246436000802,723.2075216001831,"[86, 0, 168]",168,l,0.05659679998643696,colour,0.06
153,21,1,2,10,34,484,723.7212808001786,724.3914340999909,"[90, 0, 164]",164,l,0.14688459993340075,colour,0.06
153,21,1,2,10,35,485,724.9087824001908,725.5514880002011,"[68, 0, 186]",186,a,0.11938230018131435,colour,0.06
153,21,1,2,10,36,486,726.0648835999891,726.7194493000861,"[41, 0, 213]",213,a,0.13125410000793636,colour,0.06
153,21,1,2,10,37,487,727.2365808000322,727.8554401001893,"[89, 0, 165]",165,l,0.09575810004025698,colour,0.06
153,21,1,2,10,38,488,728.3616049000993,728.967493200209,"[24, 0, 230]",230,a,0.08260110020637512,colour,0.06
153,21,1,2,10,39,489,729.4865119000897,730.7274421001785,"[70, 0, 184]",184,a,0.717859199969098,colour,0.06
153,21,1,2,10,40,490,731.2363454001024,731.8793964001816,"[65, 0, 189]",189,a,0.12000110000371933,colour,0.06
153,21,1,2,10,41,491,732.3800008001272,733.0314316002186,"[82, 0, 172]",172,l,0.1281115000601858,colour,0.06
153,21,1,2,10,42,492,733.5517104000319,734.2154299002141,"[66, 0, 188]",188,a,0.14038990018889308,colour,0.06
153,21,1,2,10,43,493,734.7246757000685,735.4074719001073,"[97, 0, 157]",157,l,0.15956260007806122,colour,0.06
153,21,1,2,10,44,494,735.9277076001745,736.5594495001715,"[78, 0, 176]",176,a,0.10888359998352826,colour,0.06
153,21,1,2,10,45,495,737.068359100027,737.7434277001303,"[52, 0, 202]",202,a,0.1518141000997275,colour,0.06
153,21,1,2,10,46,496,738.2557953000069,738.9434660000261,"[80, 0, 174]",174,l,0.16437499993480742,colour,0.06
153,21,1,2,10,47,497,739.4588984001894,740.1514305002056,"[95, 0, 159]",159,l,0.1692617000080645,colour,0.06
153,21,1,2,10,48,498,740.6618656001519,741.319424000103,"[91, 0, 163]",163,l,0.13430909998714924,colour,0.06
153,21,1,2,10,49,499,741.8336404000875,742.4874551000539,"[63, 0, 191]",191,a,0.1305974000133574,colour,0.06
153,21,1,2,10,50,500,743.0053956999909,743.6794549000915,"[51, 0, 203]",203,a,0.1517872998956591,colour,0.06
153,21,1,2,11,1,501,748.9885558001697,749.7114415999968,"[99, 0, 155]",155,l,0.1988070998340845,colour,0.06
153,21,1,2,11,2,502,750.2236674001906,750.8794760000892,"[71, 0, 183]",183,a,0.13247719989158213,colour,0.06
153,21,1,2,11,3,503,751.3953928002156,751.9755174000748,"[72, 0, 182]",182,a,0.056858900003135204,colour,0.06
153,21,1,2,11,4,504,752.4909460002091,753.1114374001045,"[59, 0, 195]",195,a,0.09715009992942214,colour,0.06
153,21,1,2,11,5,505,753.624666800024,754.2394483000971,"[80, 0, 174]",174,l,0.09140689997002482,colour,0.06
153,21,1,2,11,6,506,754.7496975001413,755.4154505000915,"[98, 0, 156]",156,l,0.14255469990894198,colour,0.06
153,21,1,2,11,7,507,755.921372000128,756.5834037000313,"[77, 0, 177]",177,a,0.14867279981262982,colour,0.06
153,21,1,2,11,8,508,757.0989570000675,757.7434531000908,"[85, 0, 169]",169,l,0.12126390007324517,colour,0.06
153,21,1,2,11,9,509,758.259150300175,758.8714241001289,"[69, 0, 185]",185,a,0.08895170013420284,colour,0.06
153,21,1,2,11,10,510,759.3840526000131,760.447419000091,"[78, 0, 176]",176,l,0.5400676000863314,colour,0.06
153,21,1,2,11,11,511,760.9639908000827,761.6474028001539,"[50, 0, 204]",204,a,0.15838510007597506,colour,0.06
153,21,1,2,11,12,512,762.1532194002066,762.9114071000367,"[90, 0, 164]",164,l,0.23509970004670322,colour,0.06
153,21,1,2,11,13,513,763.4090497000143,764.0074075001758,"[95, 0, 159]",159,l,0.07506610010750592,colour,0.06
153,21,1,2,11,14,514,764.5189422001131,765.1273599001579,"[56, 0, 198]",198,a,0.0852290999609977,colour,0.06
153,21,1,2,11,15,515,765.6439022000413,766.295426200144,"[83, 0, 171]",171,l,0.12827070010825992,colour,0.06
153,21,1,2,11,16,516,766.81562330015,767.5274173000362,"[16, 0, 238]",238,a,0.18848229991272092,colour,0.06
153,21,1,2,11,17,517,768.0342939000111,768.6954622000922,"[55, 0, 199]",199,a,0.13794289994984865,colour,0.06
153,21,1,2,11,18,518,769.2060912000015,769.8474982001353,"[82, 0, 172]",172,l,0.11804750002920628,colour,0.06
153,21,1,2,11,19,519,770.3506078000646,771.0954241000582,"[70, 0, 184]",184,a,0.22247070004232228,colour,0.06
153,21,1,2,11,20,520,771.6153512999881,772.3034312000964,"[87, 0, 167]",167,l,0.17394379992038012,colour,0.06
153,21,1,2,11,21,521,772.824843400158,773.5034046000801,"[86, 0, 168]",168,l,0.1552665000781417,colour,0.06
153,21,1,2,11,22,522,774.0142908000853,774.6314241001382,"[96, 0, 158]",158,l,0.10628820001147687,colour,0.06
153,21,1,2,11,23,523,775.140255200211,775.8634854000993,"[54, 0, 200]",200,a,0.19989440008066595,colour,0.06
153,21,1,2,11,24,524,776.3744539001491,777.0474540002178,"[60, 0, 194]",194,a,0.16148110013455153,colour,0.06
153,21,1,2,11,25,525,777.566562600201,778.2874875001144,"[94, 0, 160]",160,l,0.19775249995291233,colour,0.06
153,21,1,2,11,26,526,778.7908413000405,779.4873911000323,"[97, 0, 157]",157,l,0.17315859999507666,colour,0.06
153,21,1,2,11,27,527,779.9939475001302,780.7114197001792,"[76, 0, 178]",178,a,0.19430329999886453,colour,0.06
153,21,1,2,11,28,528,781.2281712000258,782.1273951001931,"[52, 0, 202]",202,a,0.37610730016604066,colour,0.06
153,21,1,2,11,29,529,782.6342635001056,783.5034101000056,"[53, 0, 201]",201,a,0.35393360001035035,colour,0.06
153,21,1,2,11,30,530,784.0168111000676,784.6634291000664,"[92, 0, 162]",162,l,0.12666279985569417,colour,0.06
153,21,1,2,11,31,531,785.173060500063,785.8873787000775,"[64, 0, 190]",190,a,0.19102069991640747,colour,0.06
153,21,1,2,11,32,532,786.4074026001617,787.0714785000309,"[65, 0, 189]",189,a,0.1407715999521315,colour,0.06
153,21,1,2,11,33,533,787.5811527001206,788.2153842002153,"[61, 0, 193]",193,a,0.11056580021977425,colour,0.06
153,21,1,2,11,34,534,788.7219556001946,789.3833701000549,"[79, 0, 175]",175,l,0.13580439984798431,colour,0.06
153,21,1,2,11,35,535,789.8907676001545,790.9433661000803,"[67, 0, 187]",187,l,0.5386797999963164,colour,0.06
153,21,1,2,11,36,536,791.4595153001137,792.135415900033,"[88, 0, 166]",166,l,0.15139699983410537,colour,0.06
153,21,1,2,11,37,537,792.648084100103,793.2793692001142,"[73, 0, 181]",181,a,0.12047259998507798,colour,0.06
153,21,1,2,11,38,538,793.7936345001217,794.4793820001651,"[75, 0, 179]",179,a,0.16240240004844964,colour,0.06
153,21,1,2,11,39,539,794.9966540001333,795.6234224000946,"[58, 0, 196]",196,a,0.10707479994744062,colour,0.06
153,21,1,2,11,40,540,796.1341393000912,796.7433780001011,"[44, 0, 210]",210,a,0.08293760009109974,colour,0.06
153,21,1,2,11,41,541,797.262291500112,797.943479300011,"[84, 0, 170]",170,a,0.1580115999095142,colour,0.06
153,21,1,2,11,42,542,798.44965710002,799.1113609999884,"[62, 0, 192]",192,a,0.1384777999483049,colour,0.06
153,21,1,2,11,43,543,799.6213896002155,800.2713838000782,"[66, 0, 188]",188,a,0.12670130003243685,colour,0.06
153,21,1,2,11,44,544,800.7775534000248,801.3993777001742,"[51, 0, 203]",203,a,0.09854310005903244,colour,0.06
153,21,1,2,11,45,545,801.9180478001945,802.5433792001568,"[93, 0, 161]",161,l,0.1020448999479413,colour,0.06
153,21,1,2,11,46,546,803.0586821001489,803.743402400054,"[57, 0, 197]",197,a,0.16136509994976223,colour,0.06
153,21,1,2,11,47,547,804.2618164001033,804.9434395001736,"[89, 0, 165]",165,l,0.15857670013792813,colour,0.06
153,21,1,2,11,48,548,805.4647291000001,806.1114090001211,"[35, 0, 219]",219,a,0.12342520011588931,colour,0.06
153,21,1,2,11,49,549,806.6208133001346,807.2794147001114,"[74, 0, 180]",180,l,0.13548419997096062,colour,0.06
153,21,1,2,11,50,550,807.7908320000861,808.4714037000667,"[81, 0, 173]",173,l,0.15727710002101958,colour,0.06
153,21,1,2,12,1,551,813.4981755001936,814.511414000066,"[84, 0, 170]",170,l,0.4869613000191748,colour,0.06
153,21,1,2,12,2,552,815.0323265001643,815.903426800156,"[61, 0, 193]",193,a,0.34778720000758767,colour,0.06
153,21,1,2,12,3,553,816.4235426001251,817.0393921001814,"[50, 0, 204]",204,a,0.09262750018388033,colour,0.06
153,21,1,2,12,4,554,817.55345700006,818.1273821000941,"[69, 0, 185]",185,a,0.05116409994661808,colour,0.06
153,21,1,2,12,5,555,818.648471100023,819.1913863001391,"[56, 0, 198]",198,a,0.019549000076949596,colour,0.06
153,21,1,2,12,6,556,819.7115914002061,820.5593493999913,"[81, 0, 173]",173,l,0.3245155999902636,colour,0.06
153,21,1,2,12,7,557,821.0727436000016,821.7033817002084,"[97, 0, 157]",157,l,0.10730370017699897,colour,0.06
153,21,1,2,12,8,558,822.2132761001121,822.7833978000563,"[57, 0, 197]",197,a,0.056412999983876944,colour,0.06
153,21,1,2,12,9,559,823.2978203000966,823.9433903000318,"[70, 0, 184]",184,a,0.13501249998807907,colour,0.06
153,21,1,2,12,10,560,824.4570513002109,825.0153912000824,"[71, 0, 183]",183,a,0.031850799918174744,colour,0.06
153,21,1,2,12,11,561,825.5101124001667,826.23144530016,"[89, 0, 165]",165,l,0.1963329000864178,colour,0.06
153,21,1,2,12,12,562,826.7461795001291,827.3914201001171,"[98, 0, 156]",156,l,0.12175299995578825,colour,0.06
153,21,1,2,12,13,563,827.8908828001004,828.4874116000719,"[66, 0, 188]",188,a,0.07315089995972812,colour,0.06
153,21,1,2,12,14,564,828.9925620001741,829.6153859000187,"[65, 0, 189]",189,a,0.09957659989595413,colour,0.06
153,21,1,2,12,15,565,830.1241197001655,830.8554238001816,"[72, 0, 182]",182,a,0.2079668000806123,colour,0.06
153,21,1,2,12,16,566,831.3742312001996,831.9593867000658,"[94, 0, 160]",160,l,0.060220499988645315,colour,0.06
153,21,1,2,12,17,567,832.469550400041,833.0874092001468,"[91, 0, 163]",163,l,0.09473889996297657,colour,0.06
153,21,1,2,12,18,568,833.5944850000087,834.1514194000047,"[73, 0, 181]",181,a,0.03376279980875552,colour,0.06
153,21,1,2,12,19,569,834.672365500126,835.2153933001682,"[52, 0, 202]",202,a,0.01965230004861951,colour,0.06
153,21,1,2,12,20,570,835.7348238001578,836.2874166001566,"[59, 0, 195]",195,a,0.029293400002643466,colour,0.06
153,21,1,2,12,21,571,836.7972394002136,837.3833347000182,"[96, 0, 158]",158,l,0.06278319982811809,colour,0.06
153,21,1,2,12,22,572,837.8913988000713,838.4874138000887,"[85, 0, 169]",169,l,0.07274389988742769,colour,0.06
153,21,1,2,12,23,573,839.0023485000711,839.5673433002084,"[95, 0, 159]",159,l,0.04194090003147721,colour,0.06
153,21,1,2,12,24,574,840.0805055000819,840.6473899001721,"[93, 0, 161]",161,l,0.04347350005991757,colour,0.06
153,21,1,2,12,25,575,841.1586998000275,841.7274265000597,"[67, 0, 187]",187,a,0.04543960001319647,colour,0.06
153,21,1,2,12,26,576,842.2366389001254,842.7833555000834,"[62, 0, 192]",192,a,0.023715199902653694,colour,0.06
153,21,1,2,12,27,577,843.3008685000241,843.8794109001756,"[99, 0, 155]",155,l,0.05352109996601939,colour,0.06
153,21,1,2,12,28,578,844.3963439001236,844.9913434002083,"[74, 0, 180]",180,a,0.08113640011288226,colour,0.06
153,21,1,2,12,29,579,845.5119158001617,846.1113714000676,"[79, 0, 175]",175,l,0.07607609988190234,colour,0.06
153,21,1,2,12,30,580,846.6212452000473,847.287398400018,"[88, 0, 166]",166,a,0.1408833998721093,colour,0.06
153,21,1,2,12,31,581,847.8084077001549,848.415342700202,"[83, 0, 171]",171,l,0.08035950013436377,colour,0.06
153,21,1,2,12,32,582,848.9366042001639,849.5513695001137,"[47, 0, 207]",207,a,0.09163819998502731,colour,0.06
153,21,1,2,12,33,583,850.0615452001803,850.6393759001512,"[58, 0, 196]",196,a,0.05458090011961758,colour,0.06
153,21,1,2,12,34,584,851.1580570000224,851.7593645001762,"[82, 0, 172]",172,l,0.07832069997675717,colour,0.06
153,21,1,2,12,35,585,852.2673038002104,852.8713553000707,"[13, 0, 241]",241,a,0.08082009991630912,colour,0.06
153,21,1,2,12,36,586,853.39223340014,854.0074146999978,"[54, 0, 200]",200,a,0.09176019998267293,colour,0.06
153,21,1,2,12,37,587,854.517301700078,855.0714126001112,"[55, 0, 199]",199,a,0.03076240001246333,colour,0.06
153,21,1,2,12,38,588,855.5817403001711,856.1993500001263,"[48, 0, 206]",206,a,0.09432070003822446,colour,0.06
153,21,1,2,12,39,589,856.7066508000717,857.2874017001595,"[60, 0, 194]",194,a,0.057417700067162514,colour,0.06
153,21,1,2,12,40,590,857.8002902001608,858.3993477001786,"[64, 0, 190]",190,a,0.07578240009024739,colour,0.06
153,21,1,2,12,41,591,858.9050647001714,859.487381900195,"[86, 0, 168]",168,l,0.07050280016846955,colour,0.06
153,21,1,2,12,42,592,860.0047528001014,860.6073604000267,"[90, 0, 164]",164,l,0.07921470003202558,colour,0.06
153,21,1,2,12,43,593,861.1140118001495,861.6553576001897,"[76, 0, 178]",178,a,0.018017600057646632,colour,0.06
153,21,1,2,12,44,594,862.1768964000512,862.9673723999877,"[63, 0, 191]",191,a,0.26704439986497164,colour,0.06
153,21,1,2,12,45,595,863.4737163002137,864.0553854000755,"[87, 0, 167]",167,l,0.05840609990991652,colour,0.06
153,21,1,2,12,46,596,864.5692922000308,865.2473564001266,"[68, 0, 186]",186,a,0.15497660008259118,colour,0.06
153,21,1,2,12,47,597,865.7567075002007,866.4633790000807,"[80, 0, 174]",174,l,0.18334580003283918,colour,0.06
153,21,1,2,12,48,598,866.9753644000739,867.567442700034,"[77, 0, 177]",177,l,0.06872969982214272,colour,0.06
153,21,1,2,12,49,599,868.0846739001572,868.6233643000014,"[53, 0, 201]",201,a,0.01542049995623529,colour,0.06
153,21,1,2,12,50,600,869.1314358999953,869.7273842000868,"[51, 0, 203]",203,a,0.0726757999509573,colour,0.06
153,21,1,2,13,1,601,875.1681200000457,877.2153549001087,"[82, 0, 172]",172,l,1.523128000088036,colour,0.06
153,21,1,2,13,2,602,877.7312332000583,878.4153362000361,"[67, 0, 187]",187,a,0.16085149999707937,colour,0.06
153,21,1,2,13,3,603,878.9342621001415,879.511385000078,"[62, 0, 192]",192,a,0.05432350002229214,colour,0.06
153,21,1,2,13,4,604,880.0277837000322,880.6313165000174,"[75, 0, 179]",179,a,0.08006019983440638,colour,0.06
153,21,1,2,13,5,605,881.1371387001127,881.711331800092,"[52, 0, 202]",202,a,0.051115799928084016,colour,0.06
153,21,1,2,13,6,606,882.2172166001983,882.8393510000315,"[78, 0, 176]",176,l,0.09886479983106256,colour,0.06
153,21,1,2,13,7,607,883.3578190000262,883.9433174000587,"[81, 0, 173]",173,l,0.06225580000318587,colour,0.06
153,21,1,2,13,8,608,884.4425454000011,885.0313444000203,"[64, 0, 190]",190,a,0.06563939992338419,colour,0.06
153,21,1,2,13,9,609,885.5382298000623,886.1033448001835,"[57, 0, 197]",197,a,0.0420390001963824,colour,0.06
153,21,1,2,13,10,610,886.616129900096,887.1993468001019,"[65, 0, 189]",189,a,0.06091600004583597,colour,0.06
153,21,1,2,13,11,611,887.7108193000313,888.2713365000673,"[69, 0, 185]",185,a,0.04008469986729324,colour,0.06
153,21,1,2,13,12,612,888.7859985001851,889.4393763002008,"[76, 0, 178]",178,l,0.13018810003995895,colour,0.06
153,21,1,2,13,13,613,889.9577752000187,890.5193487000652,"[54, 0, 200]",200,a,0.03833979996852577,colour,0.06
153,21,1,2,13,14,614,891.0357884000987,891.6792978001758,"[86, 0, 168]",168,l,0.12031100015155971,colour,0.06
153,21,1,2,13,15,615,892.1918949000537,892.7673266001511,"[58, 0, 196]",196,a,0.05208850000053644,colour,0.06
153,21,1,2,13,16,616,893.2731763001066,893.8713068000507,"[61, 0, 193]",193,a,0.07367179985158145,colour,0.06
153,21,1,2,13,17,617,894.3846254001837,895.0073177001905,"[80, 0, 174]",174,l,0.10035980003885925,colour,0.06
153,21,1,2,13,18,618,895.5251766000874,896.1593806000892,"[83, 0, 171]",171,l,0.11084540002048016,colour,0.06
153,21,1,2,13,19,619,896.6681719000917,897.2553226000164,"[43, 0, 211]",211,a,0.0609786999411881,colour,0.06
153,21,1,2,13,20,620,897.7524090001825,898.4313097000122,"[70, 0, 184]",184,l,0.15564000001177192,colour,0.06
153,21,1,2,13,21,621,898.939774800092,899.5993290999904,"[95, 0, 159]",159,l,0.1362639998551458,colour,0.06
153,21,1,2,13,22,622,900.1133676001336,900.6633674001787,"[99, 0, 155]",155,l,0.027600500034168363,colour,0.06
153,21,1,2,13,23,623,901.1757819000632,901.7593238002155,"[71, 0, 183]",183,l,0.06015010015107691,colour,0.06
153,21,1,2,13,24,624,902.2694812000263,902.8153125001118,"[56, 0, 198]",198,a,0.022638800088316202,colour,0.06
153,21,1,2,13,25,625,903.3320182000753,903.9833351999987,"[89, 0, 165]",165,l,0.12787549989297986,colour,0.06
153,21,1,2,13,26,626,904.5040385001339,905.0314013999887,"[59, 0, 195]",195,a,0.004642099840566516,colour,0.06
153,21,1,2,13,27,627,905.5506824001204,906.2793580000289,"[85, 0, 169]",169,l,0.2018935999367386,colour,0.06
153,21,1,2,13,28,628,906.7906166000757,907.3912834001239,"[72, 0, 182]",182,a,0.07823959994129837,colour,0.06
153,21,1,2,13,29,629,907.9125768002123,908.5432961001061,"[51, 0, 203]",203,a,0.1080642999149859,colour,0.06
153,21,1,2,13,30,630,909.0531535001937,909.6233367000241,"[92, 0, 162]",162,l,0.04942609998397529,colour,0.06
153,21,1,2,13,31,631,910.1442621001042,910.7513228000607,"[18, 0, 236]",236,a,0.08382839988917112,colour,0.06
153,21,1,2,13,32,632,911.2691825001966,911.8073565000668,"[55, 0, 199]",199,a,0.014941399917006493,colour,0.06
153,21,1,2,13,33,633,912.3158644000068,913.583349800203,"[88, 0, 166]",166,l,0.7533729001879692,colour,0.06
153,21,1,2,13,34,634,914.104878900107,914.7033251000103,"[50, 0, 204]",204,a,0.07519979984499514,colour,0.06
153,21,1,2,13,35,635,915.2074474000838,916.0073103001341,"[74, 0, 180]",180,l,0.27649830002337694,colour,0.06
153,21,1,2,13,36,636,916.5217713001184,917.1112935000565,"[79, 0, 175]",175,l,0.06371299992315471,colour,0.06
153,21,1,2,13,37,637,917.6178741001058,918.2473019000608,"[90, 0, 164]",164,l,0.11847230000421405,colour,0.06
153,21,1,2,13,38,638,918.7635741000995,919.3353250001092,"[98, 0, 156]",156,l,0.04952070000581443,colour,0.06
153,21,1,2,13,39,639,919.8493674001656,920.4232969000004,"[93, 0, 161]",161,l,0.0506160999648273,colour,0.06
153,21,1,2,13,40,640,920.9429971000645,921.4792830001097,"[97, 0, 157]",157,l,0.009861400118097663,colour,0.06
153,21,1,2,13,41,641,921.9909064001404,922.5832844001707,"[73, 0, 181]",181,a,0.06735220015980303,colour,0.06
153,21,1,2,13,42,642,923.1039416000713,924.5593237001449,"[40, 0, 214]",214,a,0.9324403000064194,colour,0.06
153,21,1,2,13,43,643,925.072539200075,926.2712964001112,"[63, 0, 191]",191,a,0.6754948000889271,colour,0.06
153,21,1,2,13,44,644,926.7911132001318,927.375268700067,"[66, 0, 188]",188,a,0.06087939999997616,colour,0.06
153,21,1,2,13,45,645,927.884931600187,928.4313246000092,"[94, 0, 160]",160,l,0.023311899974942207,colour,0.06
153,21,1,2,13,46,646,928.9471600002144,929.5593191999942,"[77, 0, 177]",177,l,0.0888845999725163,colour,0.06
153,21,1,2,13,47,647,930.0733058000915,930.6873223001603,"[91, 0, 163]",163,l,0.0906553000677377,colour,0.06
153,21,1,2,13,48,648,931.1982317999937,931.8473471000325,"[68, 0, 186]",186,l,0.1240031998604536,colour,0.06
153,21,1,2,13,49,649,932.3561844001524,933.1993394000456,"[87, 0, 167]",167,l,0.3198899000417441,colour,0.06
153,21,1,2,13,50,650,933.7133253000211,934.3912989001255,"[53, 0, 201]",201,a,0.15985310007818043,colour,0.06
153,21,1,2,14,1,651,941.0948296000715,941.8633706001565,"[82, 0, 172]",172,l,0.24453680007718503,colour,0.06
153,21,1,2,14,2,652,942.37499390007,943.0072926001158,"[62, 0, 192]",192,a,0.10872890008613467,colour,0.06
153,21,1,2,14,3,653,943.5156138001475,945.9833549000323,"[96, 0, 158]",158,l,1.9444740999024361,colour,0.06
153,21,1,2,14,4,654,946.4997292000335,947.7672781001311,"[54, 0, 200]",200,a,0.7446606000885367,colour,0.06
153,21,1,2,14,5,655,948.2807954000309,949.4393188999966,"[74, 0, 180]",180,a,0.6351359998807311,colour,0.06
153,21,1,2,14,6,656,949.952486900147,950.6393683000933,"[79, 0, 175]",175,a,0.16355989989824593,colour,0.06
153,21,1,2,14,7,657,951.1556152000558,951.7832778000738,"[58, 0, 196]",196,a,0.10446000006049871,colour,0.06
153,21,1,2,14,8,658,952.296203300124,953.6792553002015,"[70, 0, 184]",184,a,0.8596844000276178,colour,0.06
153,21,1,2,14,9,659,954.1866165001411,954.9113695002161,"[91, 0, 163]",163,l,0.20156380021944642,colour,0.06
153,21,1,2,14,10,660,955.4209019001573,956.063294300111,"[59, 0, 195]",195,a,0.11924870009534061,colour,0.06
153,21,1,2,14,11,661,956.5770915001631,957.2232711000834,"[68, 0, 186]",186,a,0.12281650002114475,colour,0.06
153,21,1,2,14,12,662,957.7331344000995,958.3196151000448,"[84, 0, 170]",170,a,0.06290429993532598,colour,0.06
153,21,1,2,14,13,663,958.8268221002072,959.4712877001148,"[78, 0, 176]",176,l,0.12084529991261661,colour,0.06
153,21,1,2,14,14,664,959.9831760001834,960.5352595001459,"[83, 0, 171]",171,l,0.02654019999317825,colour,0.06
153,21,1,2,14,15,665,961.0475840000436,961.6632684001233,"[20, 0, 234]",234,a,0.09255079994909465,colour,0.06
153,21,1,2,14,16,666,962.1726838999894,962.7673085001297,"[57, 0, 197]",197,a,0.07154399994760752,colour,0.06
153,21,1,2,14,17,667,963.2817625000607,963.8312762000132,"[56, 0, 198]",198,a,0.02593529992736876,colour,0.06
153,21,1,2,14,18,668,964.3464137001429,965.0233644000255,"[86, 0, 168]",168,l,0.15399969997815788,colour,0.06
153,21,1,2,14,19,669,965.533866800135,966.1032718000934,"[65, 0, 189]",189,a,0.046044599963352084,colour,0.06
153,21,1,2,14,20,670,966.6118599001784,967.3193521001376,"[2, 0, 252]",252,a,0.18414669996127486,colour,0.06
153,21,1,2,14,21,671,967.8304907002021,968.4552846001461,"[99, 0, 155]",155,l,0.10186749999411404,colour,0.06
153,21,1,2,14,22,672,968.9710483001545,969.5672462000512,"[93, 0, 161]",161,l,0.07053989986889064,colour,0.06
153,21,1,2,14,23,673,970.0850742000621,970.6952930002008,"[67, 0, 187]",187,l,0.08761450019665062,colour,0.06
153,21,1,2,14,24,674,971.198589200154,971.8633100001607,"[69, 0, 185]",185,a,0.1417731000110507,colour,0.06
153,21,1,2,14,25,675,972.3702940000221,973.6312679999974,"[55, 0, 199]",199,a,0.7356863999739289,colour,0.06
153,21,1,2,14,26,676,974.1386700000148,975.2152631999925,"[72, 0, 182]",182,a,0.5499189998954535,colour,0.06
153,21,1,2,14,27,677,975.7357454001904,978.2552747000009,"[77, 0, 177]",177,a,1.9963528998196125,colour,0.06
153,21,1,2,14,28,678,978.7668400001712,979.3912420000415,"[28, 0, 226]",226,a,0.10101099987514317,colour,0.06
153,21,1,2,14,29,679,979.9101850001607,980.5512815001421,"[88, 0, 166]",166,l,0.11776029993779957,colour,0.06
153,21,1,2,14,30,680,981.0702463001944,981.6872603001539,"[97, 0, 157]",157,l,0.0937491999939084,colour,0.06
153,21,1,2,14,31,681,982.1951444000006,982.7992628000211,"[73, 0, 181]",181,a,0.08082949998788536,colour,0.06
153,21,1,2,14,32,682,983.3200882000383,983.903268000111,"[60, 0, 194]",194,a,0.06138129997998476,colour,0.06
153,21,1,2,14,33,683,984.4035145000089,985.0233166001271,"[98, 0, 156]",156,l,0.09233979997225106,colour,0.06
153,21,1,2,14,34,684,985.5243559000082,986.2472303002141,"[50, 0, 204]",204,a,0.1996036001946777,colour,0.06
153,21,1,2,14,35,685,986.7582283001393,987.3672754000872,"[95, 0, 159]",159,l,0.08264999999664724,colour,0.06
153,21,1,2,14,36,686,987.8862048999872,988.5272828000598,"[80, 0, 174]",174,a,0.11788849998265505,colour,0.06
153,21,1,2,14,37,687,989.0424004001543,989.6632389000151,"[61, 0, 193]",193,l,0.0975148999132216,colour,0.06
153,21,1,2,14,38,688,990.1829092002008,990.7832276001573,"[66, 0, 188]",188,a,0.07702670013532043,colour,0.06
153,21,1,2,14,39,689,991.292196100112,991.9112295000814,"[89, 0, 165]",165,l,0.09570319997146726,colour,0.06
153,21,1,2,14,40,690,992.4327499000356,993.0792557999957,"[90, 0, 164]",164,l,0.1232337998226285,colour,0.06
153,21,1,2,14,41,691,993.5895285001025,994.5113070001826,"[75, 0, 179]",179,a,0.3970413999632001,colour,0.06
153,21,1,2,14,42,692,995.0284227000084,995.7433050000109,"[53, 0, 201]",201,a,0.18748369999229908,colour,0.06
153,21,1,2,14,43,693,996.2512119000312,996.8792377000209,"[63, 0, 191]",191,a,0.10201449994929135,colour,0.06
153,21,1,2,14,44,694,997.3951752001885,998.0872894001659,"[81, 0, 173]",173,l,0.1812342000193894,colour,0.06
153,21,1,2,14,45,695,998.601357200183,999.2872653000522,"[71, 0, 183]",183,a,0.17180199990980327,colour,0.06
153,21,1,2,14,46,696,999.7950862001162,1000.3992611002177,"[92, 0, 162]",162,l,0.08103530015796423,colour,0.06
153,21,1,2,14,47,697,1000.9199087000452,1001.5352648000699,"[52, 0, 202]",202,a,0.08983689988963306,colour,0.06
153,21,1,2,14,48,698,1002.0479621000122,1002.6633147001266,"[94, 0, 160]",160,l,0.09209619998000562,colour,0.06
153,21,1,2,14,49,699,1003.1735537000932,1003.7672302001156,"[64, 0, 190]",190,a,0.07146340003237128,colour,0.06
153,21,1,2,14,50,700,1004.2827423000708,1004.9112486001104,"[87, 0, 167]",167,l,0.11282659997232258,colour,0.06
153,21,1,2,15,1,701,1009.8390580001287,1010.7272799001075,"[91, 0, 163]",163,l,0.37536070006899536,colour,0.06
153,21,1,2,15,2,702,1011.234783400083,1011.8952298001386,"[90, 0, 164]",164,l,0.13710619998164475,colour,0.06
153,21,1,2,15,3,703,1012.4064889000729,1013.0792080000974,"[77, 0, 177]",177,l,0.14936379995197058,colour,0.06
153,21,1,2,15,4,704,1013.5943574002013,1014.2312490001787,"[57, 0, 197]",197,a,0.11407710006460547,colour,0.06
153,21,1,2,15,5,705,1014.7504906000104,1015.3672298002057,"[88, 0, 166]",166,l,0.09359550010412931,colour,0.06
153,21,1,2,15,6,706,1015.8753740000539,1016.5112342000939,"[62, 0, 192]",192,a,0.11251930007711053,colour,0.06
153,21,1,2,15,7,707,1017.0314894001931,1017.7112479000352,"[64, 0, 190]",190,a,0.1565592000260949,colour,0.06
153,21,1,2,15,8,708,1018.2188145001419,1018.8152250000276,"[55, 0, 199]",199,a,0.07306590001098812,colour,0.06
153,21,1,2,15,9,709,1019.3280375001486,1019.9752681001555,"[53, 0, 201]",201,a,0.1248947000131011,colour,0.06
153,21,1,2,15,10,710,1020.4842848000117,1021.1752740000375,"[76, 0, 178]",178,a,0.1676602999214083,colour,0.06
153,21,1,2,15,11,711,1021.6873163001146,1022.3112133000977,"[72, 0, 182]",182,a,0.10082819988019764,colour,0.06
153,21,1,2,15,12,712,1022.8297783001326,1023.4871818001848,"[46, 0, 208]",208,a,0.13419140013866127,colour,0.06
153,21,1,2,15,13,713,1024.0015428999905,1024.679260800127,"[86, 0, 168]",168,l,0.15024430002085865,colour,0.06
153,21,1,2,15,14,714,1025.195060600061,1025.791196900187,"[20, 0, 234]",234,a,0.08151000016368926,colour,0.06
153,21,1,2,15,15,715,1026.3126086001284,1026.9992637000978,"[71, 0, 183]",183,a,0.16037119994871318,colour,0.06
153,21,1,2,15,16,716,1027.5187104002107,1028.1672320000362,"[92, 0, 162]",162,l,0.12520949984900653,colour,0.06
153,21,1,2,15,17,717,1028.6748323000502,1029.2952508002054,"[78, 0, 176]",176,a,0.0960033000446856,colour,0.06
153,21,1,2,15,18,718,1029.8165245000273,1030.4712442001328,"[50, 0, 204]",204,a,0.14105809992179275,colour,0.06
153,21,1,2,15,19,719,1030.9789704000577,1031.615231800126,"[75, 0, 179]",179,a,0.11314420006237924,colour,0.06
153,21,1,2,15,20,720,1032.1351436001714,1032.8152311001904,"[51, 0, 203]",203,a,0.15671320003457367,colour,0.06
153,21,1,2,15,21,721,1033.310178700136,1033.9432303002104,"[85, 0, 169]",169,l,0.10968050011433661,colour,0.06
153,21,1,2,15,22,722,1034.440946200164,1035.1031867000274,"[84, 0, 170]",170,l,0.13518420001491904,colour,0.06
153,21,1,2,15,23,723,1035.6164817002136,1036.2152381001506,"[99, 0, 155]",155,l,0.08317440003156662,colour,0.06
153,21,1,2,15,24,724,1036.7357597001828,1037.37525690021,"[93, 0, 161]",161,l,0.11629660008475184,colour,0.06
153,21,1,2,15,25,725,1037.8919053000864,1038.519250900019,"[54, 0, 200]",200,a,0.10413749981671572,colour,0.06
153,21,1,2,15,26,726,1039.0324284001254,1039.671275000088,"[73, 0, 181]",181,a,0.11553939990699291,colour,0.06
153,21,1,2,15,27,727,1040.188631300116,1040.8553038001992,"[79, 0, 175]",175,a,0.14347490016371012,colour,0.06
153,21,1,2,15,28,728,1041.3784522002097,1042.0232012001798,"[89, 0, 165]",165,l,0.12149010016582906,colour,0.06
153,21,1,2,15,29,729,1042.5346282999963,1043.2152029001154,"[56, 0, 198]",198,a,0.15722250007092953,colour,0.06
153,21,1,2,15,30,730,1043.7220709000248,1044.3272091001272,"[98, 0, 156]",156,l,0.07949279993772507,colour,0.06
153,21,1,2,15,31,731,1044.8335270001553,1045.455226200167,"[94, 0, 160]",160,l,0.10149789997376502,colour,0.06
153,21,1,2,15,32,732,1045.9712520001922,1046.66324610007,"[63, 0, 191]",191,a,0.16879680007696152,colour,0.06
153,21,1,2,15,33,733,1047.174255600199,1047.967307300074,"[82, 0, 172]",172,a,0.26993960002437234,colour,0.06
153,21,1,2,15,34,734,1048.486684100004,1049.0711577001493,"[96, 0, 158]",158,l,0.07234650012105703,colour,0.06
153,21,1,2,15,35,735,1049.5847881000955,1050.3752410002053,"[67, 0, 187]",187,a,0.2671715000178665,colour,0.06
153,21,1,2,15,36,736,1050.869194000028,1051.4951683001127,"[52, 0, 202]",202,a,0.10272639989852905,colour,0.06
153,21,1,2,15,37,737,1052.0097158001736,1052.5992176001891,"[61, 0, 193]",193,a,0.0661697001196444,colour,0.06
153,21,1,2,15,38,738,1053.1189900999889,1053.6951875002123,"[59, 0, 195]",195,a,0.05297910002991557,colour,0.06
153,21,1,2,15,39,739,1054.2125842000823,1054.8231901000254,"[70, 0, 184]",184,a,0.09114619996398687,colour,0.06
153,21,1,2,15,40,740,1055.3242539002094,1056.3992249001749,"[95, 0, 159]",159,l,0.551647000014782,colour,0.06
153,21,1,2,15,41,741,1056.9179142999928,1057.7032165001146,"[87, 0, 167]",167,l,0.26196029991842806,colour,0.06
153,21,1,2,15,42,742,1058.2146601001732,1058.8471991000697,"[65, 0, 189]",189,a,0.10744509985670447,colour,0.06
153,21,1,2,15,43,743,1059.3569992000703,1060.0151879000477,"[25, 0, 229]",229,a,0.13486859994009137,colour,0.06
153,21,1,2,15,44,744,1060.528732900042,1061.2072377000004,"[66, 0, 188]",188,a,0.15194339980371296,colour,0.06
153,21,1,2,15,45,745,1061.721464100061,1062.4072564002126,"[74, 0, 180]",180,a,0.16242820001207292,colour,0.06
153,21,1,2,15,46,746,1062.924494100036,1063.5832079001702,"[97, 0, 157]",157,l,0.13633020012639463,colour,0.06
153,21,1,2,15,47,747,1064.0963018001057,1064.6871913000941,"[83, 0, 171]",171,l,0.06761200004257262,colour,0.06
153,21,1,2,15,48,748,1065.2055916001555,1065.9192219001707,"[58, 0, 196]",196,l,0.1904058000072837,colour,0.06
153,21,1,2,15,49,749,1066.4398677002173,1067.1112194000743,"[81, 0, 173]",173,l,0.1481224000453949,colour,0.06
153,21,1,2,15,50,750,1067.6271499001887,1068.2791852999944,"[60, 0, 194]",194,a,0.12919759983196855,colour,0.06
153,21,1,2,16,1,751,1073.0935510999989,1073.823231199989,"[97, 0, 157]",157,l,0.20569719979539514,colour,0.06
153,21,1,2,16,2,752,1074.3442345000803,1074.95117510017,"[51, 0, 203]",203,a,0.09600360016338527,colour,0.06
153,21,1,2,16,3,753,1075.4723991001956,1076.2311931001022,"[90, 0, 164]",164,l,0.23553219996392727,colour,0.06
153,21,1,2,16,4,754,1076.7260471000336,1077.3271996001713,"[65, 0, 189]",189,a,0.07524300017394125,colour,0.06
153,21,1,2,16,5,755,1077.8399713002145,1078.4552500001155,"[70, 0, 184]",184,a,0.08893799991346896,colour,0.06
153,21,1,2,16,6,756,1078.9680304001085,1079.671226600185,"[93, 0, 161]",161,l,0.1930730000603944,colour,0.06
153,21,1,2,16,7,757,1080.1898212002125,1080.8471785001457,"[99, 0, 155]",155,l,0.12979090004228055,colour,0.06
153,21,1,2,16,8,758,1081.3657896001823,1081.9911855000537,"[59, 0, 195]",195,a,0.10914179985411465,colour,0.06
153,21,1,2,16,9,759,1082.490234900033,1083.1351994001307,"[77, 0, 177]",177,a,0.12090179999358952,colour,0.06
153,21,1,2,16,10,760,1083.6471901000477,1084.263151400024,"[33, 0, 221]",221,a,0.10503769991919398,colour,0.06
153,21,1,2,16,11,761,1084.7629305000883,1085.37514810008,"[66, 0, 188]",188,a,0.09809609991498291,colour,0.06
153,21,1,2,16,12,762,1085.891138000181,1086.4791483001318,"[9, 0, 245]",245,a,0.06312349997460842,colour,0.06
153,21,1,2,16,13,763,1086.9864179000724,1087.6951825001743,"[95, 0, 159]",159,l,0.18472670018672943,colour,0.06
153,21,1,2,16,14,764,1088.2060905001126,1088.879222500138,"[69, 0, 185]",185,l,0.14986330014653504,colour,0.06
153,21,1,2,16,15,765,1089.3933986001648,1090.023142500082,"[75, 0, 179]",179,l,0.11870400002226233,colour,0.06
153,21,1,2,16,16,766,1090.5393044000957,1091.1592478000093,"[74, 0, 180]",180,a,0.09669989999383688,colour,0.06
153,21,1,2,16,17,767,1091.6797846001573,1092.3432025001384,"[94, 0, 160]",160,l,0.14013570011593401,colour,0.06
153,21,1,2,16,18,768,1092.8514819000848,1093.4951641000807,"[63, 0, 191]",191,a,0.12033799989148974,colour,0.06
153,21,1,2,16,19,769,1094.0075340000913,1094.695172100095,"[64, 0, 190]",190,a,0.1642714999616146,colour,0.06
153,21,1,2,16,20,770,1095.2106758002192,1095.943194600055,"[82, 0, 172]",172,a,0.20919830002821982,colour,0.06
153,21,1,2,16,21,771,1096.4605686001014,1097.143190300092,"[55, 0, 199]",199,a,0.15929390001110733,colour,0.06
153,21,1,2,16,22,772,1097.6636670001317,1098.279266100144,"[50, 0, 204]",204,a,0.09305360005237162,colour,0.06
153,21,1,2,16,23,773,1098.7888353001326,1099.3672088000458,"[56, 0, 198]",198,a,0.05535609996877611,colour,0.06
153,21,1,2,16,24,774,1099.8821284000296,1100.5592338000424,"[73, 0, 181]",181,a,0.15380149986594915,colour,0.06
153,21,1,2,16,25,775,1101.0675386001822,1101.7431807001121,"[0, 0, 254]",254,a,0.15313349990174174,colour,0.06
153,21,1,2,16,26,776,1102.257644600002,1102.799181500217,"[57, 0, 197]",197,a,0.018206800101324916,colour,0.06
153,21,1,2,16,27,777,1103.3078530000057,1103.9353526001796,"[81, 0, 173]",173,a,0.1042479001916945,colour,0.06
153,21,1,2,16,28,778,1104.4484582000878,1105.0791533000302,"[79, 0, 175]",175,a,0.10752479988150299,colour,0.06
153,21,1,2,16,29,779,1105.5905376002192,1106.1911997999996,"[72, 0, 182]",182,a,0.07740899990312755,colour,0.06
153,21,1,2,16,30,780,1106.6997925001197,1107.3032037999947,"[68, 0, 186]",186,a,0.0800990997813642,colour,0.06
153,21,1,2,16,31,781,1107.8247387001757,1108.543199900072,"[87, 0, 167]",167,l,0.1951860999688506,colour,0.06
153,21,1,2,16,32,782,1109.046431499999,1109.679216900142,"[84, 0, 170]",170,l,0.10942990006878972,colour,0.06
153,21,1,2,16,33,783,1110.1870533002075,1110.8152471000794,"[67, 0, 187]",187,a,0.10493869986385107,colour,0.06
153,21,1,2,16,34,784,1111.3276061001234,1111.9112031001132,"[54, 0, 200]",200,a,0.06959030008874834,colour,0.06
153,21,1,2,16,35,785,1112.4275636000093,1113.031230200082,"[86, 0, 168]",168,l,0.08040530001744628,colour,0.06
153,21,1,2,16,36,786,1113.5370376000647,1114.2151966001838,"[80, 0, 174]",174,l,0.15073260013014078,colour,0.06
153,21,1,2,16,37,787,1114.7297452001367,1115.3031618001405,"[98, 0, 156]",156,l,0.048354600090533495,colour,0.06
153,21,1,2,16,38,788,1115.8095384000335,1116.5351559000555,"[61, 0, 193]",193,a,0.20301309996284544,colour,0.06
153,21,1,2,16,39,789,1117.031404600013,1117.7191827001516,"[96, 0, 158]",158,l,0.1644170000217855,colour,0.06
153,21,1,2,16,40,790,1118.2345103002153,1118.8391317999922,"[60, 0, 194]",194,a,0.0814064999576658,colour,0.06
153,21,1,2,16,41,791,1119.3594039001036,1119.9832055000588,"[58, 0, 196]",196,a,0.11354000004939735,colour,0.06
153,21,1,2,16,42,792,1120.5031362001318,1121.2151413999964,"[52, 0, 202]",202,a,0.18891869997605681,colour,0.06
153,21,1,2,16,43,793,1121.7217544000596,1122.4151500000153,"[78, 0, 176]",176,a,0.17009019991382957,colour,0.06
153,21,1,2,16,44,794,1122.9248018001672,1123.5911698001437,"[76, 0, 178]",178,a,0.14344920008443296,colour,0.06
153,21,1,2,16,45,795,1124.1121703002136,1124.7271627001464,"[89, 0, 165]",165,a,0.09168469998985529,colour,0.06
153,21,1,2,16,46,796,1125.2258971000556,1125.8871349000838,"[83, 0, 171]",171,a,0.13776340009644628,colour,0.06
153,21,1,2,16,47,797,1126.3978487001732,1127.0151558001526,"[92, 0, 162]",162,l,0.0937892000656575,colour,0.06
153,21,1,2,16,48,798,1127.5229325999971,1128.1831957001705,"[71, 0, 183]",183,a,0.1354447000194341,colour,0.06
153,21,1,2,16,49,799,1128.6962051000446,1129.3271692001726,"[88, 0, 166]",166,l,0.10649390006437898,colour,0.06
153,21,1,2,16,50,800,1129.837858900195,1130.4551566001028,"[85, 0, 169]",169,l,0.10637499997392297,colour,0.06
