id,age,condition,counterbalance,block,trialinblock,trial,tstart,tend,trialstim,trialintensity,response,RT,trialtype,colourfreq
009,62,1,1,Practice,1,NA,5.907611921429634e-06,3.0698138608131558,"[6, 0, 248]",248,a,2.4828425098676234,colour,0.5
009,62,1,1,Practice,2,NA,3.579292149282992,28.7099098644685,"[22, 0, 232]",232,a,24.60754663334228,colour,0.5
009,62,1,1,Practice,3,NA,29.226740068988875,32.5338313379325,"[28, 0, 226]",226,a,2.783715744270012,colour,0.5
009,62,1,1,Practice,4,NA,33.055275443708524,37.89381410321221,"[98, 0, 156]",156,l,4.315239934483543,colour,0.5
009,62,1,1,Practice,5,NA,38.4006236938294,40.50176639761776,"[48, 0, 206]",206,a,1.5781645693350583,colour,0.5
009,62,1,1,Practice,6,NA,41.03290461935103,42.605741244973615,"[95, 0, 159]",159,l,1.0566479957196862,colour,0.5
009,62,1,1,Practice,7,NA,43.11962587828748,44.67781262868084,"[33, 0, 221]",221,a,1.0348580933641642,colour,0.5
009,62,1,1,Practice,8,NA,45.19795349938795,46.60579362651333,"[77, 0, 177]",177,l,0.8844697223976254,colour,0.5
009,62,1,1,Practice,9,NA,47.123865232337266,48.621801481349394,"[78, 0, 176]",176,l,0.9746973887085915,colour,0.5
009,62,1,1,Practice,10,NA,49.12709870492108,50.397799427155405,"[88, 0, 166]",166,l,0.7541749605443329,colour,0.5
009,62,1,1,1,1,1,4.8654729733243585,6.647965039126575,"[2, 0, 252]",252,a,1.2549508360680193,colour,0.5
009,62,1,1,1,2,2,7.166793222539127,8.472066893940791,"[36, 0, 218]",218,a,0.7978299893438816,colour,0.5
009,62,1,1,1,3,3,8.980818931246176,10.568051007809117,"[71, 0, 183]",183,a,1.063870730344206,colour,0.5
009,62,1,1,1,4,4,11.074702666373923,12.407950797816738,"[26, 0, 228]",228,a,0.8098840282764286,colour,0.5
009,62,1,1,1,5,5,12.918572420021519,14.191996190929785,"[0, 0, 254]",254,a,0.7500257969368249,colour,0.5
009,62,1,1,1,6,6,14.700066875200719,16.295966312056407,"[64, 0, 190]",190,a,1.0727787304203957,colour,0.5
009,62,1,1,1,7,7,16.81084855622612,18.623985355254263,"[94, 0, 160]",160,l,1.302225306397304,colour,0.5
009,62,1,1,1,8,8,19.143192811869085,20.35199203179218,"[65, 0, 189]",189,a,0.6854370858054608,colour,0.5
009,62,1,1,1,9,9,20.863094145664945,22.063951075077057,"[19, 0, 235]",235,a,0.6775908938143402,colour,0.5
009,62,1,1,1,10,10,22.583077005576342,23.808069187682122,"[16, 0, 238]",238,a,0.701650921953842,colour,0.5
009,62,1,1,1,11,11,24.317628214601427,25.59195389179513,"[14, 0, 240]",240,a,0.7512400229461491,colour,0.5
009,62,1,1,1,12,12,26.100926482584327,27.295967887621373,"[95, 0, 159]",159,l,0.6719801691360772,colour,0.5
009,62,1,1,1,13,13,27.804144910071045,29.01597280264832,"[70, 0, 184]",184,a,0.6884960846509784,colour,0.5
009,62,1,1,1,14,14,29.523069113027304,30.607933783670887,"[50, 0, 204]",204,a,0.5697197315748781,colour,0.5
009,62,1,1,1,15,15,31.124450487084687,32.27201183442958,"[28, 0, 226]",226,a,0.630439697066322,colour,0.5
009,62,1,1,1,16,16,32.77755914977752,33.96792797045782,"[56, 0, 198]",198,a,0.6669806928839535,colour,0.5
009,62,1,1,1,17,17,34.46958527271636,35.695971274515614,"[25, 0, 229]",229,a,0.7045047271531075,colour,0.5
009,62,1,1,1,18,18,36.202910834224895,37.27201616670936,"[92, 0, 162]",162,l,0.5458790753036737,colour,0.5
009,62,1,1,1,19,19,37.77926607662812,38.88799897301942,"[10, 0, 244]",244,a,0.5853183809667826,colour,0.5
009,62,1,1,1,20,20,39.40703589445911,40.399944310309365,"[32, 0, 222]",222,a,0.46976132155396044,colour,0.5
009,62,1,1,1,21,21,40.907234392594546,41.91193848452531,"[37, 0, 217]",217,a,0.4814140317030251,colour,0.5
009,62,1,1,1,22,22,42.42346437647939,43.65592938521877,"[66, 0, 188]",188,a,0.707754741422832,colour,0.5
009,62,1,1,1,23,23,44.17546491511166,45.26393642392941,"[90, 0, 164]",164,l,0.5650132764130831,colour,0.5
009,62,1,1,1,24,24,45.785043004201725,46.9199461536482,"[97, 0, 157]",157,l,0.6116272676736116,colour,0.5
009,62,1,1,1,25,25,47.441463908413425,48.65593962511048,"[30, 0, 224]",224,a,0.6911730533465743,colour,0.5
009,62,1,1,1,26,26,49.175965099129826,50.287946827709675,"[20, 0, 234]",234,a,0.5855263313278556,colour,0.5
009,62,1,1,1,27,27,50.80417602392845,51.903893400216475,"[41, 0, 213]",213,a,0.5763379132840782,colour,0.5
009,62,1,1,1,28,28,52.41371315298602,53.52795870625414,"[29, 0, 225]",225,a,0.5890150158666074,colour,0.5
009,62,1,1,1,29,29,54.04053143970668,55.07992702838965,"[49, 0, 205]",205,a,0.5160074611194432,colour,0.5
009,62,1,1,1,30,30,55.587471928680316,56.55188482697122,"[54, 0, 200]",200,a,0.4410712441895157,colour,0.5
009,62,1,1,1,31,31,57.07197607308626,58.184220497030765,"[27, 0, 227]",227,a,0.5889047391247004,colour,0.5
009,62,1,1,1,32,32,58.697057894663885,60.215883320895955,"[75, 0, 179]",179,l,0.9955570276360959,colour,0.5
009,62,1,1,1,33,33,60.72980615706183,61.60793929756619,"[8, 0, 246]",246,a,0.3547418618109077,colour,0.5
009,62,1,1,1,34,34,62.12061994452961,63.111918713431805,"[76, 0, 178]",178,l,0.4680228871293366,colour,0.5
009,62,1,1,1,35,35,63.621904275147244,64.53588603064418,"[11, 0, 243]",243,a,0.39069445221684873,colour,0.5
009,62,1,1,1,36,36,65.04449707106687,66.46389853605069,"[73, 0, 181]",181,l,0.9020718643441796,colour,0.5
009,62,1,1,1,37,37,66.97816992551088,67.99988381564617,"[99, 0, 155]",155,l,0.5098969463724643,colour,0.5
009,62,1,1,1,38,38,68.50963818980381,69.55990116065368,"[86, 0, 168]",168,l,0.5269709413405508,colour,0.5
009,62,1,1,1,39,39,70.0601095049642,71.02396511170082,"[40, 0, 214]",214,a,0.4403729559853673,colour,0.5
009,62,1,1,1,40,40,71.54670418193564,72.48789633670822,"[39, 0, 215]",215,a,0.41778197162784636,colour,0.5
009,62,1,1,1,41,41,73.00005080620758,74.17591901915148,"[4, 0, 250]",250,a,0.6527408109977841,colour,0.5
009,62,1,1,1,42,42,74.68763080611825,75.76786227710545,"[62, 0, 192]",192,a,0.5684330379590392,colour,0.5
009,62,1,1,1,43,43,76.28675190033391,77.41588875604793,"[80, 0, 174]",174,l,0.605807411018759,colour,0.5
009,62,1,1,1,44,44,77.92756745987572,78.93597370060161,"[44, 0, 210]",210,a,0.48507285746745765,colour,0.5
009,62,1,1,1,45,45,79.44331025681458,80.43188479542732,"[91, 0, 163]",163,l,0.46525336476042867,colour,0.5
009,62,1,1,1,46,46,80.94335318589583,82.05589496297762,"[68, 0, 186]",186,a,0.5891284432727844,colour,0.5
009,62,1,1,1,47,47,82.56958818715066,83.79192151781172,"[35, 0, 219]",219,a,0.6989747411571443,colour,0.5
009,62,1,1,1,48,48,84.30444895895198,85.25591536425054,"[74, 0, 180]",180,l,0.4285938215907663,colour,0.5
009,62,1,1,1,49,49,85.77323275571689,86.81587835843675,"[60, 0, 194]",194,a,0.5192098196130246,colour,0.5
009,62,1,1,1,50,50,87.33589398628101,88.3598677625414,"[55, 0, 199]",199,a,0.5005253900308162,colour,0.5
009,62,1,1,2,1,51,93.74316618801095,94.99189977743663,"[55, 0, 199]",199,a,0.7245597396977246,colour,0.5
009,62,1,1,2,2,52,95.50944835622795,96.51220370014198,"[83, 0, 171]",171,l,0.4794798558577895,colour,0.5
009,62,1,1,2,3,53,97.02509820554405,97.9839937207289,"[62, 0, 192]",192,a,0.4337429590523243,colour,0.5
009,62,1,1,2,4,54,98.4904776008334,99.3200736020226,"[98, 0, 156]",156,l,0.30628231004811823,colour,0.5
009,62,1,1,2,5,55,99.8344095821958,100.7038600021042,"[72, 0, 182]",182,a,0.34230027883313596,colour,0.5
009,62,1,1,2,6,56,101.21369747794233,102.15183929842897,"[27, 0, 227]",227,a,0.4126025082077831,colour,0.5
009,62,1,1,2,7,57,102.6693020190578,103.58389620436355,"[24, 0, 230]",230,a,0.39133326965384185,colour,0.5
009,62,1,1,2,8,58,104.09368838788942,105.05587093858048,"[48, 0, 206]",206,a,0.4388184475246817,colour,0.5
009,62,1,1,2,9,59,105.57377831079066,106.47983589256182,"[37, 0, 217]",217,a,0.38259580498561263,colour,0.5
009,62,1,1,2,10,60,106.99821745487861,108.04784357734025,"[70, 0, 184]",184,l,0.5387571651954204,colour,0.5
009,62,1,1,2,11,61,108.56411609635688,109.4478682319168,"[5, 0, 249]",249,a,0.36041599535383284,colour,0.5
009,62,1,1,2,12,62,109.95473965629935,110.87983731040731,"[32, 0, 222]",222,a,0.41446106554940343,colour,0.5
009,62,1,1,2,13,63,111.39660056121647,112.30382471368648,"[94, 0, 160]",160,l,0.38383799395523965,colour,0.5
009,62,1,1,2,14,64,112.81856438564137,113.735880831955,"[19, 0, 235]",235,a,0.3953930304851383,colour,0.5
009,62,1,1,2,15,65,114.25500991311856,115.15184796298854,"[51, 0, 203]",203,a,0.37348851887509227,colour,0.5
009,62,1,1,2,16,66,115.65076449373737,116.56784108816646,"[7, 0, 247]",247,a,0.3939952722284943,colour,0.5
009,62,1,1,2,17,67,117.08521322417073,118.09585178177804,"[96, 0, 158]",158,l,0.48536036466248333,colour,0.5
009,62,1,1,2,18,68,118.59136981866322,119.53582774149254,"[0, 0, 254]",254,a,0.42120764101855457,colour,0.5
009,62,1,1,2,19,69,120.04461798164994,120.95984350168146,"[47, 0, 207]",207,a,0.391795250819996,colour,0.5
009,62,1,1,2,20,70,121.46659401548095,122.32780360989273,"[93, 0, 161]",161,l,0.33649026858620346,colour,0.5
009,62,1,1,2,21,71,122.84517180733383,123.783868950326,"[66, 0, 188]",188,a,0.4153385537210852,colour,0.5
009,62,1,1,2,22,72,124.29844241938554,125.20782208908349,"[3, 0, 251]",251,a,0.38605692028068006,colour,0.5
009,62,1,1,2,23,73,125.72043420700356,126.64778741495684,"[46, 0, 208]",208,a,0.4040414863266051,colour,0.5
009,62,1,1,2,24,74,127.15801676688716,128.24778205854818,"[68, 0, 186]",186,l,0.5664173362310976,colour,0.5
009,62,1,1,2,25,75,128.76756177283823,129.92780809965916,"[61, 0, 193]",193,a,0.6370763895101845,colour,0.5
009,62,1,1,2,26,76,130.43952658190392,131.43181666033342,"[71, 0, 183]",183,a,0.4689255813136697,colour,0.5
009,62,1,1,2,27,77,131.93961283401586,132.9278077057097,"[87, 0, 167]",167,l,0.46476381458342075,colour,0.5
009,62,1,1,2,28,78,133.4398711968679,134.35179589665495,"[10, 0, 244]",244,a,0.3886177041567862,colour,0.5
009,62,1,1,2,29,79,134.86184919974767,135.83977179019712,"[2, 0, 252]",252,a,0.45468648709356785,colour,0.5
009,62,1,1,2,30,80,136.34626591042615,137.6718234186992,"[56, 0, 198]",198,a,0.8021681988611817,colour,0.5
009,62,1,1,2,31,81,138.19004783662967,139.1597941920627,"[35, 0, 219]",219,a,0.44621526170521975,colour,0.5
009,62,1,1,2,32,82,139.67613602802157,140.79182108701207,"[79, 0, 175]",175,l,0.5924072079360485,colour,0.5
009,62,1,1,2,33,83,141.3011501079891,142.22378307627514,"[4, 0, 250]",250,a,0.3992495664861053,colour,0.5
009,62,1,1,2,34,84,142.73884255089797,143.48774825083092,"[40, 0, 214]",214,a,0.22562784887850285,colour,0.5
009,62,1,1,2,35,85,144.00444572931156,144.56782887899317,"[6, 0, 248]",248,a,0.03995524346828461,colour,0.5
009,62,1,1,2,36,86,145.08273632917553,145.66387718962505,"[14, 0, 240]",240,a,0.05794020323082805,colour,0.5
009,62,1,1,2,37,87,146.17655035364442,147.2078354798723,"[65, 0, 189]",189,l,0.5080120014026761,colour,0.5
009,62,1,1,2,38,88,147.72344909515232,148.32780518522486,"[81, 0, 173]",173,a,0.08004084974527359,colour,0.5
009,62,1,1,2,39,89,148.83418036415242,150.29578002309427,"[54, 0, 200]",200,a,0.938521487871185,colour,0.5
009,62,1,1,2,40,90,150.80302599468268,151.6558053237386,"[85, 0, 169]",169,l,0.33620315487496555,colour,0.5
009,62,1,1,2,41,91,152.16301821242087,153.06379314302467,"[16, 0, 238]",238,a,0.3762229890562594,colour,0.5
009,62,1,1,2,42,92,153.5725593585521,154.20776734454557,"[29, 0, 225]",225,a,0.11192147037945688,colour,0.5
009,62,1,1,2,43,93,154.71986628160812,155.2717794654891,"[9, 0, 245]",245,a,0.03858150984160602,colour,0.5
009,62,1,1,2,44,94,155.79012636933476,156.71976151876152,"[95, 0, 159]",159,l,0.40632657846435905,colour,0.5
009,62,1,1,2,45,95,157.21854492952116,157.78382917190902,"[41, 0, 213]",213,a,0.04196464363485575,colour,0.5
009,62,1,1,2,46,96,158.2966547543183,158.91980436909944,"[28, 0, 226]",226,a,0.1074209965299815,colour,0.5
009,62,1,1,2,47,97,159.4297678754665,160.06378881074488,"[75, 0, 179]",179,l,0.11068597668781877,colour,0.5
009,62,1,1,2,48,98,160.5704885183368,161.11183324898593,"[43, 0, 211]",211,a,0.01794006139971316,colour,0.5
009,62,1,1,2,49,99,161.6331052442547,162.26375998114236,"[59, 0, 195]",195,a,0.10735364886932075,colour,0.5
009,62,1,1,2,50,100,162.77075901138596,165.38375568040647,"[92, 0, 162]",162,l,2.0901276296935976,colour,0.5
009,62,1,1,3,1,101,170.16807243297808,171.63974429969676,"[65, 0, 189]",189,a,0.9644093536771834,colour,0.5
009,62,1,1,3,2,102,172.1522713471204,173.03173489798792,"[72, 0, 182]",182,a,0.3528128061443567,colour,0.5
009,62,1,1,3,3,103,173.5463209701702,174.2957567863632,"[3, 0, 251]",251,a,0.22610046388581395,colour,0.5
009,62,1,1,3,4,104,174.81265039998107,175.36002333159558,"[87, 0, 167]",167,l,0.026577095733955503,colour,0.5
009,62,1,1,3,5,105,175.87085408577695,176.6077368608676,"[54, 0, 200]",200,a,0.22354479948990047,colour,0.5
009,62,1,1,3,6,106,177.12655992410146,178.08776455605403,"[62, 0, 192]",192,a,0.4378397411201149,colour,0.5
009,62,1,1,3,7,107,178.59541461314075,179.51977577595972,"[41, 0, 213]",213,a,0.4010356564540416,colour,0.5
009,62,1,1,3,8,108,180.02984365122393,180.85575443902053,"[8, 0, 246]",246,a,0.30259788455441594,colour,0.5
009,62,1,1,3,9,109,181.36184368585236,182.03975713904947,"[20, 0, 234]",234,a,0.16383701702579856,colour,0.5
009,62,1,1,3,10,110,182.55055638588965,183.83173970272765,"[59, 0, 195]",195,l,0.7582532316446304,colour,0.5
009,62,1,1,3,11,111,184.34745611203834,185.6477614210453,"[86, 0, 168]",168,l,0.7768998520914465,colour,0.5
009,62,1,1,3,12,112,186.1556816562079,186.79181084712036,"[28, 0, 226]",226,a,0.1127757215872407,colour,0.5
009,62,1,1,3,13,113,187.3120123699773,188.24776315386407,"[43, 0, 211]",211,a,0.4063714765943587,colour,0.5
009,62,1,1,3,14,114,188.75617766543292,189.6397257889621,"[26, 0, 228]",228,a,0.3642685932572931,colour,0.5
009,62,1,1,3,15,115,190.15627754479647,191.27974696224555,"[18, 0, 236]",236,a,0.5986981040332466,colour,0.5
009,62,1,1,3,16,116,191.78848836547695,192.5677000915166,"[73, 0, 181]",181,l,0.2557964229490608,colour,0.5
009,62,1,1,3,17,117,193.08544086688198,194.007744186325,"[19, 0, 235]",235,a,0.39896402857266366,colour,0.5
009,62,1,1,3,18,118,194.52310298359953,195.37576100835577,"[89, 0, 165]",165,l,0.32927619852125645,colour,0.5
009,62,1,1,3,19,119,195.88255642051809,196.74372269189917,"[44, 0, 210]",210,a,0.3378970851190388,colour,0.5
009,62,1,1,3,20,120,197.25769830332138,198.12768435338512,"[74, 0, 180]",180,l,0.3451532965991646,colour,0.5
009,62,1,1,3,21,121,198.6219149089884,199.48771044169553,"[21, 0, 233]",233,a,0.34254525089636445,colour,0.5
009,62,1,1,3,22,122,200.00931444880553,200.84768217941746,"[88, 0, 166]",166,l,0.3158523647580296,colour,0.5
009,62,1,1,3,23,123,201.36796089587733,202.1837277961895,"[47, 0, 207]",207,a,0.292482353746891,colour,0.5
009,62,1,1,3,24,124,202.7006442528218,203.5196832222864,"[77, 0, 177]",177,l,0.2959324414841831,colour,0.5
009,62,1,1,3,25,125,204.01667187875137,205.1916960803792,"[93, 0, 161]",161,l,0.6518089722376317,colour,0.5
009,62,1,1,3,26,126,205.69794995500706,206.56783006037585,"[2, 0, 252]",252,a,0.3467267097439617,colour,0.5
009,62,1,1,3,27,127,207.07634106418118,207.84770344686694,"[80, 0, 174]",174,l,0.24805420567281544,colour,0.5
009,62,1,1,3,28,128,208.3577047623694,209.24769580643624,"[91, 0, 163]",163,l,0.36676006065681577,colour,0.5
009,62,1,1,3,29,129,209.76408884231932,210.6556930777151,"[56, 0, 198]",198,a,0.3690817803144455,colour,0.5
009,62,1,1,3,30,130,211.17129015177488,212.21575098880567,"[99, 0, 155]",155,l,0.5195398621726781,colour,0.5
009,62,1,1,3,31,131,212.73547477694228,213.62369351577945,"[48, 0, 206]",206,a,0.3649507339578122,colour,0.5
009,62,1,1,3,32,132,214.14181671547703,215.0157546121627,"[92, 0, 162]",162,l,0.3505249568261206,colour,0.5
009,62,1,1,3,33,133,215.53255527839065,216.407682195073,"[68, 0, 186]",186,a,0.3518404010683298,colour,0.5
009,62,1,1,3,34,134,216.9232197983656,217.8076926714275,"[82, 0, 172]",172,l,0.3735204206313938,colour,0.5
009,62,1,1,3,35,135,218.31719340896234,219.23972594668157,"[14, 0, 240]",240,a,0.3993704773019999,colour,0.5
009,62,1,1,3,36,136,219.75673889555037,220.65598491742276,"[49, 0, 205]",205,a,0.3758074820507318,colour,0.5
009,62,1,1,3,37,137,221.16317378124222,222.09566943137906,"[6, 0, 248]",248,a,0.4092103159055114,colour,0.5
009,62,1,1,3,38,138,222.61634396272711,223.6236785496585,"[24, 0, 230]",230,a,0.484221363440156,colour,0.5
009,62,1,1,3,39,139,224.13209424261004,225.0236665767152,"[25, 0, 229]",229,a,0.3681995663791895,colour,0.5
009,62,1,1,3,40,140,225.52727026399225,226.43965773261152,"[52, 0, 202]",202,a,0.38911119289696217,colour,0.5
009,62,1,1,3,41,141,226.96077927877195,227.85567133757286,"[12, 0, 242]",242,a,0.3714606079738587,colour,0.5
009,62,1,1,3,42,142,228.36730041680858,229.27966149779968,"[0, 0, 254]",254,a,0.3893282019998878,colour,0.5
009,62,1,1,3,43,143,229.7774965283461,230.67968339542858,"[39, 0, 215]",215,a,0.3789783329702914,colour,0.5
009,62,1,1,3,44,144,231.18801559321582,232.08769602701068,"[31, 0, 223]",223,a,0.3764147919137031,colour,0.5
009,62,1,1,3,45,145,232.58739985502325,233.51970488368534,"[83, 0, 171]",171,l,0.40901811933144927,colour,0.5
009,62,1,1,3,46,146,234.0290488707833,234.96768772462383,"[7, 0, 247]",247,a,0.4153452489990741,colour,0.5
009,62,1,1,3,47,147,235.4701551673934,236.43970302469097,"[15, 0, 239]",239,a,0.44659099052660167,colour,0.5
009,62,1,1,3,48,148,236.95473256707191,237.8557008758653,"[64, 0, 190]",190,a,0.3777156639844179,colour,0.5
009,62,1,1,3,49,149,238.37667748704553,239.51970448996872,"[55, 0, 199]",199,a,0.6197845980059355,colour,0.5
009,62,1,1,3,50,150,240.0205654364545,240.95162748824805,"[61, 0, 193]",193,a,0.41326180566102266,colour,0.5
009,62,1,1,4,1,151,249.86585264047608,252.95968320639804,"[86, 0, 168]",168,l,2.5698930236976594,colour,0.5
009,62,1,1,4,2,152,253.4783558207564,254.53563200030476,"[99, 0, 155]",155,l,0.5339624886400998,colour,0.5
009,62,1,1,4,3,153,255.05697331228293,256.1836525716353,"[51, 0, 203]",203,a,0.6031560425180942,colour,0.5
009,62,1,1,4,4,154,256.6966132428497,257.6476582335308,"[28, 0, 226]",226,a,0.4277891949750483,colour,0.5
009,62,1,1,4,5,155,258.16687947465107,259.0796170718968,"[0, 0, 254]",254,a,0.39877222571522,colour,0.5
009,62,1,1,4,6,156,259.5951503429096,260.4796385758091,"[67, 0, 187]",187,l,0.36673327907919884,colour,0.5
009,62,1,1,4,7,157,260.99593157484196,261.8876452995464,"[91, 0, 163]",163,l,0.36840239679440856,colour,0.5
009,62,1,1,4,8,158,262.3937503003981,263.3196155594196,"[12, 0, 242]",242,a,0.40255353739485145,colour,0.5
009,62,1,1,4,9,159,263.8313836664893,264.7276151939295,"[72, 0, 182]",182,l,0.37098720553331077,colour,0.5
009,62,1,1,4,10,160,265.2313523951452,266.15962365688756,"[4, 0, 250]",250,a,0.4005508322734386,colour,0.5
009,62,1,1,4,11,161,266.6760462312959,267.54361800756305,"[68, 0, 186]",186,l,0.34255273384042084,colour,0.5
009,62,1,1,4,12,162,268.0527512873523,268.75961869442835,"[32, 0, 222]",222,a,0.18356356234289706,colour,0.5
009,62,1,1,4,13,163,269.2716045980342,270.24762136954814,"[59, 0, 195]",195,l,0.45263573294505477,colour,0.5
009,62,1,1,4,14,164,270.76329563721083,271.71161679155193,"[87, 0, 167]",167,l,0.4249535065609962,colour,0.5
009,62,1,1,4,15,165,272.22604296240024,273.2076031109318,"[77, 0, 177]",177,l,0.45811058091931045,colour,0.5
009,62,1,1,4,16,166,273.72082135733217,274.5915982492734,"[34, 0, 220]",220,a,0.34743169345892966,colour,0.5
009,62,1,1,4,17,167,275.1074430521112,276.0475926976651,"[93, 0, 161]",161,l,0.42160503123886883,colour,0.5
009,62,1,1,4,18,168,276.5559603413567,277.44769966602325,"[36, 0, 218]",218,a,0.36854930128902197,colour,0.5
009,62,1,1,4,19,169,277.95617049746215,278.80757648684084,"[88, 0, 166]",166,l,0.328203362878412,colour,0.5
009,62,1,1,4,20,170,279.3156168451533,280.1676206921693,"[58, 0, 196]",196,a,0.3288213068153709,colour,0.5
009,62,1,1,4,21,171,280.6864543892443,281.66361685772426,"[41, 0, 213]",213,a,0.45430248766206205,colour,0.5
009,62,1,1,4,22,172,282.1639469002839,283.0715869537089,"[29, 0, 225]",225,a,0.3843681102152914,colour,0.5
009,62,1,1,4,23,173,283.5857902080752,284.51961823762394,"[25, 0, 229]",229,a,0.41044384031556547,colour,0.5
009,62,1,1,4,24,174,285.03913446934894,286.0476151467301,"[27, 0, 227]",227,a,0.49312739400193095,colour,0.5
009,62,1,1,4,25,175,286.5561048828531,287.7756147340406,"[95, 0, 159]",159,l,0.6962489355355501,colour,0.5
009,62,1,1,4,26,176,288.29049776587635,289.1675832767505,"[80, 0, 174]",174,l,0.3538305030670017,colour,0.5
009,62,1,1,4,27,177,289.6887363307178,290.6316019357182,"[78, 0, 176]",176,l,0.4196716430597007,colour,0.5
009,62,1,1,4,28,178,291.1417710292153,292.1276307902299,"[63, 0, 191]",191,a,0.46251613763161004,colour,0.5
009,62,1,1,4,29,179,292.641896272311,293.5436006784439,"[33, 0, 221]",221,a,0.3784115891903639,colour,0.5
009,62,1,1,4,30,180,294.06391090271063,294.967587294057,"[55, 0, 199]",199,a,0.38029889739118516,colour,0.5
009,62,1,1,4,31,181,295.4768280936405,296.4315374237485,"[69, 0, 185]",185,a,0.4313987900968641,colour,0.5
009,62,1,1,4,32,182,296.9455925920047,297.8715397710912,"[62, 0, 192]",192,a,0.4025795313064009,colour,0.5
009,62,1,1,4,33,183,298.3832440748811,299.31960689486004,"[11, 0, 243]",243,a,0.41330315941013396,colour,0.5
009,62,1,1,4,34,184,299.8364670316223,300.57559315138496,"[48, 0, 206]",206,l,0.21577973966486752,colour,0.5
009,62,1,1,4,35,185,301.08849474578165,302.16756712901406,"[19, 0, 235]",235,a,0.556419565109536,colour,0.5
009,62,1,1,4,36,186,302.6813859899994,303.68772099679336,"[39, 0, 215]",215,a,0.4829815374687314,colour,0.5
009,62,1,1,4,37,187,304.20091561228037,305.15958348475397,"[13, 0, 241]",241,a,0.43538214452564716,colour,0.5
009,62,1,1,4,38,188,305.6698415875435,306.6395942445379,"[94, 0, 160]",160,l,0.4467804301530123,colour,0.5
009,62,1,1,4,39,189,307.15428823046386,308.09556703153066,"[49, 0, 205]",205,a,0.4178890979383141,colour,0.5
009,62,1,1,4,40,190,308.60754072573036,309.5275896729436,"[35, 0, 219]",219,a,0.39674943475984037,colour,0.5
009,62,1,1,4,41,191,310.0455710880924,311.04757654992864,"[54, 0, 200]",200,a,0.47897100751288235,colour,0.5
009,62,1,1,4,42,192,311.5613323955331,312.42358331778087,"[30, 0, 224]",224,a,0.33896283130161464,colour,0.5
009,62,1,1,4,43,193,312.9364254416432,313.6795656357426,"[90, 0, 164]",164,l,0.21796164428815246,colour,0.5
009,62,1,1,4,44,194,314.1883822635282,315.1436024114955,"[5, 0, 249]",249,a,0.43191630323417485,colour,0.5
009,62,1,1,4,45,195,315.6558009914588,316.6155306715518,"[83, 0, 171]",171,l,0.43640259839594364,colour,0.5
009,62,1,1,4,46,196,317.1121841655113,317.9835443426855,"[44, 0, 210]",210,a,0.3480807507876307,colour,0.5
009,62,1,1,4,47,197,318.4905721237883,319.4075152045116,"[17, 0, 237]",237,a,0.39360300195403397,colour,0.5
009,62,1,1,4,48,198,319.9281538960058,320.7675216004718,"[97, 0, 157]",157,l,0.3340566963888705,colour,0.5
009,62,1,1,4,49,199,321.2855439756531,322.1355419671163,"[15, 0, 239]",239,a,0.32673038030043244,colour,0.5
009,62,1,1,4,50,200,322.6473596985452,323.48749264492653,"[18, 0, 236]",236,a,0.31675742170773447,colour,0.5
009,62,1,1,5,1,201,340.30571714183316,341.6714854990132,"[92, 0, 162]",162,l,0.8418075779918581,colour,0.4
009,62,1,1,5,2,202,342.190285325516,342.9995691329241,"[93, 0, 161]",161,l,0.28596223960630596,colour,0.4
009,62,1,1,5,3,203,343.51851665158756,344.0875384886749,"[90, 0, 164]",164,l,0.045704995514824986,colour,0.4
009,62,1,1,5,4,204,344.59670327603817,345.2394762483891,"[20, 0, 234]",234,a,0.13218837161548436,colour,0.4
009,62,1,1,5,5,205,345.760526902508,346.71148721617647,"[68, 0, 186]",186,a,0.42771554575301707,colour,0.4
009,62,1,1,5,6,206,347.21024305792525,348.08751249476336,"[44, 0, 210]",210,a,0.3539293580688536,colour,0.4
009,62,1,1,5,7,207,348.60092569491826,349.44763310602866,"[67, 0, 187]",187,a,0.3234358618501574,colour,0.4
009,62,1,1,5,8,208,349.96040315623395,350.67952152504586,"[21, 0, 233]",233,a,0.1947294792626053,colour,0.4
009,62,1,1,5,9,209,351.1959456745535,352.0156522123143,"[7, 0, 247]",247,a,0.2964716157875955,colour,0.4
009,62,1,1,5,10,210,352.52398441010155,353.183517876314,"[95, 0, 159]",159,l,0.13650649483315647,colour,0.4
009,62,1,1,5,11,211,353.7002783701755,354.6635136702098,"[29, 0, 225]",225,a,0.44016658095642924,colour,0.4
009,62,1,1,5,12,212,355.18481362843886,356.13552700099535,"[26, 0, 228]",228,a,0.42741661705076694,colour,0.4
009,62,1,1,5,13,213,356.6535852160305,357.551506341435,"[99, 0, 155]",155,l,0.3745558406226337,colour,0.4
009,62,1,1,5,14,214,358.06003349274397,358.959491009824,"[63, 0, 191]",191,a,0.3768440836574882,colour,0.4
009,62,1,1,5,15,215,359.4662868157029,360.40748369693756,"[11, 0, 243]",243,a,0.41815061145462096,colour,0.4
009,62,1,1,5,16,216,360.9195668802131,361.7914965583477,"[6, 0, 248]",248,a,0.34857069491408765,colour,0.4
009,62,1,1,5,17,217,362.3102609384805,363.2074672342278,"[51, 0, 203]",203,a,0.37381147244013846,colour,0.4
009,62,1,1,5,18,218,363.7166481690947,364.631477086572,"[32, 0, 222]",222,a,0.39164362009614706,colour,0.4
009,62,1,1,5,19,219,365.1398636349477,366.087515251711,"[70, 0, 184]",184,l,0.4242264674976468,colour,0.4
009,62,1,1,5,20,220,366.60874786251225,367.5835094479844,"[81, 0, 173]",173,l,0.45130099006928504,colour,0.4
009,62,1,1,5,21,221,368.09328784700483,368.9514742824249,"[82, 0, 172]",172,l,0.3347912186291069,colour,0.4
009,62,1,1,5,22,222,369.4684730528388,370.28748051449656,"[79, 0, 175]",175,l,0.29607658879831433,colour,0.4
009,62,1,1,5,23,223,370.79723488888703,371.6314766926225,"[78, 0, 176]",176,l,0.3109285067766905,colour,0.4
009,62,1,1,5,24,224,372.14376979577355,372.9514408055693,"[97, 0, 157]",157,l,0.2843777989037335,colour,0.4
009,62,1,1,5,25,225,373.4719975772314,374.3434979636222,"[42, 0, 212]",212,a,0.34848326118662953,colour,0.4
009,62,1,1,5,26,226,374.8627400784753,375.52745930990204,"[80, 0, 174]",174,l,0.14129329449497163,colour,0.4
009,62,1,1,5,27,227,376.03470528149046,376.7595107809175,"[75, 0, 179]",179,l,0.1994442050345242,colour,0.4
009,62,1,1,5,28,228,377.2718038838357,378.1754597951658,"[65, 0, 189]",189,a,0.3779618174303323,colour,0.4
009,62,1,1,5,29,229,378.6962623265572,379.6074899195228,"[10, 0, 244]",244,a,0.3879012989345938,colour,0.4
009,62,1,1,5,30,230,380.12682222528383,380.9914645780809,"[62, 0, 192]",192,a,0.3359148600138724,colour,0.4
009,62,1,1,5,31,231,381.5073357685469,382.335541888373,"[50, 0, 204]",204,a,0.3049077889882028,colour,0.4
009,62,1,1,5,32,232,382.85458196047693,383.6475014828611,"[60, 0, 194]",194,a,0.27770684170536697,colour,0.4
009,62,1,1,5,33,233,384.159000987187,384.97541655087844,"[34, 0, 220]",220,a,0.2930424022488296,colour,0.4
009,62,1,1,5,34,234,385.48724215920083,386.33547178376466,"[52, 0, 202]",202,a,0.32482337998226285,colour,0.4
009,62,1,1,5,35,235,386.8467511283234,387.68743191403337,"[45, 0, 209]",209,a,0.31736985174939036,colour,0.4
009,62,1,1,5,36,236,388.20627506356686,388.9514620732516,"[94, 0, 160]",160,l,0.22058583749458194,colour,0.4
009,62,1,1,5,37,237,389.4582429130096,390.38345320685767,"[38, 0, 216]",216,a,0.4143708748742938,colour,0.4
009,62,1,1,5,38,238,390.89896836085245,391.4474318509456,"[91, 0, 163]",163,l,0.029275725595653057,colour,0.4
009,62,1,1,5,39,239,391.9584122665692,392.9594835266471,"[58, 0, 196]",196,a,0.4778131013736129,colour,0.4
009,62,1,1,5,40,240,393.4741397034377,394.36743235518225,"[74, 0, 180]",180,l,0.370362960267812,colour,0.4
009,62,1,1,5,41,241,394.8809357457794,395.7674546467606,"[16, 0, 238]",238,a,0.3625923863146454,colour,0.4
009,62,1,1,5,42,242,396.2877987418324,397.2154552107677,"[39, 0, 215]",215,a,0.40427582431584597,colour,0.4
009,62,1,1,5,43,243,397.7130527526606,398.67145241610706,"[18, 0, 236]",236,a,0.4351076341699809,colour,0.4
009,62,1,1,5,44,244,399.1842256169766,400.0714353232179,"[61, 0, 193]",193,a,0.3639507598709315,colour,0.4
009,62,1,1,5,45,245,400.58614939521067,401.31944344891235,"[24, 0, 230]",230,a,0.20991222746670246,colour,0.4
009,62,1,1,5,46,246,401.8361042998731,402.7515062626917,"[40, 0, 214]",214,a,0.39190434594638646,colour,0.4
009,62,1,1,5,47,247,403.2583253055345,404.215420946246,"[84, 0, 170]",170,l,0.4337953405920416,colour,0.4
009,62,1,1,5,48,248,404.72723158844747,405.5834661249537,"[55, 0, 199]",199,a,0.34416553168557584,colour,0.4
009,62,1,1,5,49,249,406.0912433944177,407.0714298093226,"[4, 0, 250]",250,a,0.45977694168686867,colour,0.4
009,62,1,1,5,50,250,407.58755345479585,408.45543833845295,"[57, 0, 197]",197,a,0.3444609160069376,colour,0.4
009,62,1,1,6,1,251,414.03093972359784,415.07949773664586,"[83, 0, 171]",171,l,0.5243404463399202,colour,0.28
009,62,1,1,6,2,252,415.5944772607181,416.49541051709093,"[85, 0, 169]",169,l,0.37754631019197404,colour,0.28
009,62,1,1,6,3,253,417.0164544759318,417.83143053390086,"[73, 0, 181]",181,l,0.2918640160933137,colour,0.28
009,62,1,1,6,4,254,418.3512988635339,419.1194600693416,"[41, 0, 213]",213,a,0.24480340420268476,colour,0.28
009,62,1,1,6,5,255,419.6326747711282,420.4874367190059,"[23, 0, 231]",231,a,0.3316357275471091,colour,0.28
009,62,1,1,6,6,256,421.0078099586535,421.903420785442,"[91, 0, 163]",163,l,0.37242946797050536,colour,0.28
009,62,1,1,6,7,257,422.4143929304555,423.2473720652051,"[81, 0, 173]",173,l,0.3096520530525595,colour,0.28
009,62,1,1,6,8,258,423.7582603211049,424.57542064692825,"[67, 0, 187]",187,a,0.2937871643807739,colour,0.28
009,62,1,1,6,9,259,425.08709816937335,426.0554719727952,"[52, 0, 202]",202,a,0.4434575547929853,colour,0.28
009,62,1,1,6,10,260,426.5731379177887,427.45542061538436,"[72, 0, 182]",182,a,0.3589189883787185,colour,0.28
009,62,1,1,6,11,261,427.96281112823635,428.8073835026007,"[19, 0, 235]",235,a,0.3211637665517628,colour,0.28
009,62,1,1,6,12,262,429.3224366756622,430.1753829952795,"[66, 0, 188]",188,a,0.32977795763872564,colour,0.28
009,62,1,1,6,13,263,430.68646384146996,431.6954470661003,"[39, 0, 215]",215,a,0.48569277045316994,colour,0.28
009,62,1,1,6,14,264,432.20224838587455,433.0955497021787,"[63, 0, 191]",191,a,0.37000456056557596,colour,0.28
009,62,1,1,6,15,265,433.60938746784814,434.4953553788364,"[64, 0, 190]",190,a,0.363485234323889,colour,0.28
009,62,1,1,6,16,266,435.014976373408,435.8234307419043,"[75, 0, 179]",179,a,0.2851749421097338,colour,0.28
009,62,1,1,6,17,267,436.34315886255354,436.8954056336079,"[82, 0, 172]",172,l,0.02890708646737039,colour,0.28
009,62,1,1,6,18,268,437.40581891150214,438.44741373416036,"[15, 0, 239]",239,a,0.5182960978709161,colour,0.28
009,62,1,1,6,19,269,438.9683852251619,439.639381961897,"[92, 0, 162]",162,l,0.14799300231970847,colour,0.28
009,62,1,1,6,20,270,440.1561436371412,440.83939369837753,"[97, 0, 157]",157,l,0.15787892090156674,colour,0.28
009,62,1,1,6,21,271,441.3463710672222,442.25548134651035,"[53, 0, 201]",201,a,0.3857828036416322,colour,0.28
009,62,1,1,6,22,272,442.7683793962933,443.64740577852353,"[58, 0, 196]",196,a,0.3557981557678431,colour,0.28
009,62,1,1,6,23,273,444.1591656145174,445.06339260190725,"[69, 0, 185]",185,a,0.38086288422346115,colour,0.28
009,62,1,1,6,24,274,445.5811215620488,446.2793968333863,"[98, 0, 156]",156,l,0.1752037953119725,colour,0.28
009,62,1,1,6,25,275,446.8000193773769,447.71937751933,"[28, 0, 226]",226,a,0.396145275561139,colour,0.28
009,62,1,1,6,26,276,448.2375976049807,449.06339693418704,"[48, 0, 206]",206,a,0.30064637935720384,colour,0.28
009,62,1,1,6,27,277,449.58327195909806,450.38337719463743,"[79, 0, 175]",175,l,0.2774819559417665,colour,0.28
009,62,1,1,6,28,278,450.89592511579394,451.5673401164822,"[88, 0, 166]",166,l,0.14807846653275192,colour,0.28
009,62,1,1,6,29,279,452.0835051157046,452.99940726254135,"[26, 0, 228]",228,a,0.39099298720248044,colour,0.28
009,62,1,1,6,30,280,453.5071798055433,454.30334737268277,"[86, 0, 168]",168,l,0.272905076155439,colour,0.28
009,62,1,1,6,31,281,454.8196821194142,455.5913560341578,"[61, 0, 193]",193,l,0.24824797781184316,colour,0.28
009,62,1,1,6,32,282,456.10101667325944,456.9513344671577,"[71, 0, 183]",183,l,0.3284633010625839,colour,0.28
009,62,1,1,6,33,283,457.4613507487811,458.4633447891101,"[84, 0, 170]",170,l,0.4790285089984536,colour,0.28
009,62,1,1,6,34,284,458.97844876837917,459.83138012187555,"[59, 0, 195]",195,a,0.32962238881736994,colour,0.28
009,62,1,1,6,35,285,460.3357155742124,461.2073447480798,"[22, 0, 232]",232,a,0.3483040614519268,colour,0.28
009,62,1,1,6,36,286,461.7278904921841,462.4713481257204,"[89, 0, 165]",165,l,0.22053857590071857,colour,0.28
009,62,1,1,6,37,287,462.9779076243285,463.80735593335703,"[37, 0, 217]",217,a,0.3035509907640517,colour,0.28
009,62,1,1,6,38,288,464.312400307972,465.24736300692894,"[60, 0, 194]",194,a,0.4188796195667237,colour,0.28
009,62,1,1,6,39,289,465.7619022114668,466.6393433648627,"[18, 0, 236]",236,a,0.3545350928325206,colour,0.28
009,62,1,1,6,40,290,467.15222408575937,468.0153796712402,"[74, 0, 180]",180,l,0.3353355131112039,colour,0.28
009,62,1,1,6,41,291,468.5317538024392,469.4153409167193,"[70, 0, 184]",184,l,0.3601804757490754,colour,0.28
009,62,1,1,6,42,292,469.92252308526076,470.7113603979815,"[95, 0, 159]",159,l,0.26998943695798516,colour,0.28
009,62,1,1,6,43,293,471.2325717411004,472.1913392562419,"[55, 0, 199]",199,a,0.43557552248239517,colour,0.28
009,62,1,1,6,44,294,472.7047189795412,473.5833479713183,"[96, 0, 158]",158,l,0.3552081750240177,colour,0.28
009,62,1,1,6,45,295,474.0955599423032,474.9513143810909,"[20, 0, 234]",234,a,0.3325136094354093,colour,0.28
009,62,1,1,6,46,296,475.46770899230614,476.1913278347347,"[94, 0, 160]",160,l,0.2009156122803688,colour,0.28
009,62,1,1,6,47,297,476.7055133660324,477.46335975523107,"[30, 0, 224]",224,a,0.23457129509188235,colour,0.28
009,62,1,1,6,48,298,477.97116419975646,479.0633327374235,"[51, 0, 203]",203,a,0.5687874990981072,colour,0.28
009,62,1,1,6,49,299,479.5813251803629,480.4873544052243,"[33, 0, 221]",221,a,0.38336340989917517,colour,0.28
009,62,1,1,6,50,300,480.9971233517863,481.9913444551639,"[62, 0, 192]",192,a,0.47941723465919495,colour,0.28
009,62,1,1,7,1,301,487.3489121592138,488.55934898904525,"[12, 0, 242]",242,a,0.6870140437968075,colour,0.14
009,62,1,1,7,2,302,489.0685748225078,489.9833170939237,"[63, 0, 191]",191,a,0.39150853105820715,colour,0.14
009,62,1,1,7,3,303,490.49192655901425,491.3033658834174,"[88, 0, 166]",166,l,0.2880972765851766,colour,0.14
009,62,1,1,7,4,304,491.82016733731143,492.8233594559133,"[66, 0, 188]",188,a,0.47985558467917144,colour,0.14
009,62,1,1,7,5,305,493.33587547554635,494.19132389640436,"[70, 0, 184]",184,a,0.33208156074397266,colour,0.14
009,62,1,1,7,6,306,494.7009502707515,495.33528785803355,"[79, 0, 175]",175,l,0.11113299150019884,colour,0.14
009,62,1,1,7,7,307,495.841653190786,496.7353081803303,"[59, 0, 195]",195,a,0.3745562343392521,colour,0.14
009,62,1,1,7,8,308,497.2437931902241,498.10331988241524,"[54, 0, 200]",200,a,0.3373405812308192,colour,0.14
009,62,1,1,7,9,309,498.6176913087256,499.44729912513867,"[49, 0, 205]",205,a,0.30471795541234314,colour,0.14
009,62,1,1,7,10,310,499.96844705892727,500.6233804083895,"[91, 0, 163]",163,l,0.1326759522780776,colour,0.14
009,62,1,1,7,11,311,501.1412968391087,502.01526545593515,"[60, 0, 194]",194,a,0.3510101744905114,colour,0.14
009,62,1,1,7,12,312,502.5320645465981,503.3352996732574,"[78, 0, 176]",176,l,0.27992655569687486,colour,0.14
009,62,1,1,7,13,313,503.8446507495828,504.6553504320327,"[83, 0, 171]",171,l,0.28736472385935485,colour,0.14
009,62,1,1,7,14,314,505.16356999007985,506.04729376873,"[71, 0, 183]",183,a,0.360733435023576,colour,0.14
009,62,1,1,7,15,315,506.5542790144682,507.41535470145755,"[42, 0, 212]",212,a,0.3377104022074491,colour,0.14
009,62,1,1,7,16,316,507.92942247283645,508.73527982342057,"[98, 0, 156]",156,l,0.28257753048092127,colour,0.14
009,62,1,1,7,17,317,509.24374159635045,510.11128383432515,"[61, 0, 193]",193,a,0.3443313406314701,colour,0.14
009,62,1,1,7,18,318,510.6187582362909,511.4154051137157,"[84, 0, 170]",170,l,0.27327726036310196,colour,0.14
009,62,1,1,7,19,319,511.93107701814733,512.559282035334,"[55, 0, 199]",199,a,0.10476687108166516,colour,0.14
009,62,1,1,7,20,320,513.0717980549671,513.8952807844616,"[64, 0, 190]",190,a,0.3001820354256779,colour,0.14
009,62,1,1,7,21,321,514.415608731797,515.0953051240649,"[94, 0, 160]",160,l,0.1563779751304537,colour,0.14
009,62,1,1,7,22,322,515.6047928649932,516.2632976064924,"[85, 0, 169]",169,l,0.135032330872491,colour,0.14
009,62,1,1,7,23,323,516.776765944669,517.7352581620216,"[28, 0, 226]",226,a,0.43350862083025277,colour,0.14
009,62,1,1,7,24,324,518.2473303177394,519.0712376127485,"[52, 0, 202]",202,a,0.30060463189147413,colour,0.14
009,62,1,1,7,25,325,519.5912363051903,520.391258439282,"[69, 0, 185]",185,a,0.2768581046257168,colour,0.14
009,62,1,1,7,26,326,520.903694114415,521.6792863991577,"[74, 0, 180]",180,a,0.25225456920452416,colour,0.14
009,62,1,1,7,27,327,522.1850680527277,523.127344858367,"[40, 0, 214]",214,a,0.41923211119137704,colour,0.14
009,62,1,1,7,28,328,523.6397569028195,524.3113164447714,"[86, 0, 168]",168,l,0.14816038659773767,colour,0.14
009,62,1,1,7,29,329,524.8273794380948,525.7432575600687,"[50, 0, 204]",204,a,0.3925104741938412,colour,0.14
009,62,1,1,7,30,330,526.2494216377381,527.0712486403063,"[56, 0, 198]",198,a,0.29861098527908325,colour,0.14
009,62,1,1,7,31,331,527.5777222807519,528.4393588036764,"[51, 0, 203]",203,a,0.33832755824550986,colour,0.14
009,62,1,1,7,32,332,528.9527538868133,529.9992398780305,"[73, 0, 181]",181,a,0.5231955372728407,colour,0.14
009,62,1,1,7,33,333,530.5154096034821,531.3992956466973,"[57, 0, 197]",197,a,0.3605888937599957,colour,0.14
009,62,1,1,7,34,334,531.9079917576164,532.5832558115944,"[76, 0, 178]",178,l,0.15195942134596407,colour,0.14
009,62,1,1,7,35,335,533.0912110989448,533.8073126103263,"[75, 0, 179]",179,l,0.20409512799233198,colour,0.14
009,62,1,1,7,36,336,534.3143470867071,535.015232373029,"[95, 0, 159]",159,l,0.1775459952186793,colour,0.14
009,62,1,1,7,37,337,535.5332051236182,536.4632605060469,"[65, 0, 189]",189,a,0.40684606065042317,colour,0.14
009,62,1,1,7,38,338,536.970798317343,537.7672829302028,"[90, 0, 164]",164,l,0.2731126327998936,colour,0.14
009,62,1,1,7,39,339,538.2833715232555,538.9912652920466,"[92, 0, 162]",162,l,0.1831067013554275,colour,0.14
009,62,1,1,7,40,340,539.502347713802,540.247283450095,"[82, 0, 172]",172,l,0.2215736024081707,colour,0.14
009,62,1,1,7,41,341,540.7680115445983,541.5512369510252,"[77, 0, 177]",177,l,0.2599227433092892,colour,0.14
009,62,1,1,7,42,342,542.065005793469,542.7592177598272,"[11, 0, 243]",243,a,0.16949815419502556,colour,0.14
009,62,1,1,7,43,343,543.2697102006059,544.1752605093643,"[89, 0, 165]",165,l,0.3823110545054078,colour,0.14
009,62,1,1,7,44,344,544.6917165603954,545.5432265251875,"[81, 0, 173]",173,l,0.32821911689825356,colour,0.14
009,62,1,1,7,45,345,546.0512365570758,546.8072724381927,"[80, 0, 174]",174,l,0.2328045037575066,colour,0.14
009,62,1,1,7,46,346,547.3170197231229,548.3352484733332,"[68, 0, 186]",186,a,0.495317175751552,colour,0.14
009,62,1,1,7,47,347,548.8482099324465,549.8152289071586,"[53, 0, 201]",201,a,0.443674563895911,colour,0.14
009,62,1,1,7,48,348,550.3328381383326,551.1593097620644,"[99, 0, 155]",155,l,0.30333122494630516,colour,0.14
009,62,1,1,7,49,349,551.6766031289008,552.5113443289883,"[87, 0, 167]",167,l,0.31137670297175646,colour,0.14
009,62,1,1,7,50,350,553.0205236887559,553.8952398244292,"[18, 0, 236]",236,a,0.35142725706100464,colour,0.14
009,62,1,1,8,1,351,558.6922332858667,560.0872151413932,"[80, 0, 174]",174,l,0.8708595994394273,colour,0.06
009,62,1,1,8,2,352,560.6006007723045,561.2711733370088,"[93, 0, 161]",161,l,0.14780868240632117,colour,0.06
009,62,1,1,8,3,353,561.7881780152675,562.6872397174593,"[90, 0, 164]",164,l,0.3757243806030601,colour,0.06
009,62,1,1,8,4,354,563.1944967166055,564.0152114990633,"[87, 0, 167]",167,l,0.29736367613077164,colour,0.06
009,62,1,1,8,5,355,564.5208005621098,565.3752045044675,"[98, 0, 156]",156,l,0.3311083682347089,colour,0.06
009,62,1,1,8,6,356,565.8833578962367,566.8072011519689,"[70, 0, 184]",184,a,0.4007288506254554,colour,0.06
009,62,1,1,8,7,357,567.3209380931221,568.2071785451844,"[55, 0, 199]",199,a,0.36148489243350923,colour,0.06
009,62,1,1,8,8,358,568.7287908231374,569.6072280122899,"[94, 0, 160]",160,l,0.35515027958899736,colour,0.06
009,62,1,1,8,9,359,570.1188460639678,570.9992268811911,"[84, 0, 170]",170,l,0.3570915446616709,colour,0.06
009,62,1,1,8,10,360,571.5058482135646,572.3752131690271,"[63, 0, 191]",191,a,0.3460028215777129,colour,0.06
009,62,1,1,8,11,361,572.8965509366244,573.7671683209483,"[65, 0, 189]",189,a,0.347202081233263,colour,0.06
009,62,1,1,8,12,362,574.287273745751,575.1271955908742,"[89, 0, 165]",165,l,0.3165538036264479,colour,0.06
009,62,1,1,8,13,363,575.6477397596464,576.3592513941694,"[58, 0, 196]",196,a,0.18812665762379766,colour,0.06
009,62,1,1,8,14,364,576.8665595932398,577.6232468949165,"[97, 0, 157]",157,l,0.23345001670531929,colour,0.06
009,62,1,1,8,15,365,578.1322797439061,579.0151858991012,"[64, 0, 190]",190,a,0.35958734434098005,colour,0.06
009,62,1,1,8,16,366,579.520821042126,580.4152133108582,"[66, 0, 188]",188,a,0.37103092251345515,colour,0.06
009,62,1,1,8,17,367,580.930166841019,581.8151922794059,"[77, 0, 177]",177,a,0.3617534951772541,colour,0.06
009,62,1,1,8,18,368,582.3383303151932,583.1911545428447,"[95, 0, 159]",159,l,0.32824195991270244,colour,0.06
009,62,1,1,8,19,369,583.69954975578,584.60719138477,"[49, 0, 205]",205,a,0.38446420850232244,colour,0.06
009,62,1,1,8,20,370,585.1192202172242,585.9911609231494,"[72, 0, 182]",182,a,0.3468149311374873,colour,0.06
009,62,1,1,8,21,371,586.5019700159319,587.3191523971036,"[82, 0, 172]",172,l,0.29375211196020246,colour,0.06
009,62,1,1,8,22,372,587.8228718750179,588.6231866364833,"[78, 0, 176]",176,l,0.2769372675102204,colour,0.06
009,62,1,1,8,23,373,589.1354580780026,590.0152682128828,"[50, 0, 204]",204,a,0.35315623925998807,colour,0.06
009,62,1,1,8,24,374,590.5182236302644,591.3911398916971,"[54, 0, 200]",200,a,0.3502059418242425,colour,0.06
009,62,1,1,8,25,375,591.9089925193693,592.7911869955715,"[96, 0, 158]",158,l,0.35888669290579855,colour,0.06
009,62,1,1,8,26,376,593.2996787009761,593.9511595997028,"[56, 0, 198]",198,a,0.12826330633834004,colour,0.06
009,62,1,1,8,27,377,594.4719156573992,595.399145197589,"[68, 0, 186]",186,a,0.4043983102310449,colour,0.06
009,62,1,1,8,28,378,595.8981471927837,596.8311753219459,"[62, 0, 192]",192,a,0.4084147475659847,colour,0.06
009,62,1,1,8,29,379,597.3371432647109,598.1752069462091,"[76, 0, 178]",178,a,0.31472635990940034,colour,0.06
009,62,1,1,8,30,380,598.6884177096654,599.5672471688595,"[71, 0, 183]",183,a,0.35544684529304504,colour,0.06
009,62,1,1,8,31,381,600.0866562745068,600.9191639760975,"[69, 0, 185]",185,a,0.30916919838637114,colour,0.06
009,62,1,1,8,32,382,601.4304594681598,602.2551379129291,"[81, 0, 173]",173,a,0.30133718461729586,colour,0.06
009,62,1,1,8,33,383,602.7670604074374,603.591144539183,"[91, 0, 163]",163,l,0.3010579482652247,colour,0.06
009,62,1,1,8,34,384,604.1110321669839,605.0071754732635,"[57, 0, 197]",197,a,0.3729391044471413,colour,0.06
009,62,1,1,8,35,385,605.5088697972242,606.3431308993604,"[85, 0, 169]",169,l,0.31091984221711755,colour,0.06
009,62,1,1,8,36,386,606.8434058036655,607.6711389150005,"[59, 0, 195]",195,a,0.3164699145127088,colour,0.06
009,62,1,1,8,37,387,608.1908548262436,609.0231526081916,"[61, 0, 193]",193,a,0.3090246571227908,colour,0.06
009,62,1,1,8,38,388,609.5228686456103,610.4072119432967,"[88, 0, 166]",166,l,0.36115091131068766,colour,0.06
009,62,1,1,8,39,389,610.9230232692789,611.7591972798109,"[75, 0, 179]",179,a,0.32485449383966625,colour,0.06
009,62,1,1,8,40,390,612.2705396395177,613.2471365456004,"[52, 0, 202]",202,a,0.45327100600115955,colour,0.06
009,62,1,1,8,41,391,613.7549728916492,614.6151959027629,"[51, 0, 203]",203,a,0.33680573874153197,colour,0.06
009,62,1,1,8,42,392,615.1320198057219,616.0391147769988,"[92, 0, 162]",162,l,0.3806171244941652,colour,0.06
009,62,1,1,8,43,393,616.5530301299877,617.4232079829089,"[67, 0, 187]",187,a,0.3474773794878274,colour,0.06
009,62,1,1,8,44,394,617.9437482131179,618.8151076026261,"[60, 0, 194]",194,a,0.3479818955529481,colour,0.06
009,62,1,1,8,45,395,619.3353292117827,620.2951534148306,"[74, 0, 180]",180,a,0.4373029295820743,colour,0.06
009,62,1,1,8,46,396,620.8042989037931,621.7751224269159,"[79, 0, 175]",175,a,0.4477323549799621,colour,0.06
009,62,1,1,8,47,397,622.2888782727532,623.1991385810543,"[73, 0, 181]",181,a,0.3869525252375752,colour,0.06
009,62,1,1,8,48,398,623.7108519433532,624.7031447784975,"[14, 0, 240]",240,a,0.4689503936097026,colour,0.06
009,62,1,1,8,49,399,625.2109228356276,626.0791523340158,"[37, 0, 217]",217,a,0.34443295281380415,colour,0.06
009,62,1,1,8,50,400,626.5864451732486,627.4871027378831,"[83, 0, 171]",171,l,0.3846351373940706,colour,0.06
009,62,1,1,9,1,401,633.0355937972199,634.0871501569636,"[85, 0, 169]",169,l,0.5274183498695493,colour,0.06
009,62,1,1,9,2,402,634.5989793098997,635.41511918162,"[83, 0, 171]",171,l,0.29304791591130197,colour,0.06
009,62,1,1,9,3,403,635.9264083723538,636.7991292863153,"[53, 0, 201]",201,a,0.3494521214161068,colour,0.06
009,62,1,1,9,4,404,637.3170480800327,638.1511173795443,"[59, 0, 195]",195,a,0.30774899129755795,colour,0.06
009,62,1,1,9,5,405,638.6638767956756,639.3511283283588,"[71, 0, 183]",183,a,0.16425528121180832,colour,0.06
009,62,1,1,9,6,406,639.8670983740594,640.7351246483158,"[43, 0, 211]",211,a,0.34642344852909446,colour,0.06
009,62,1,1,9,7,407,641.2561437946279,642.2711146541405,"[78, 0, 176]",176,l,0.49027358880266547,colour,0.06
009,62,1,1,9,8,408,642.7897214961704,643.6231236211024,"[88, 0, 166]",166,l,0.31006559100933373,colour,0.06
009,62,1,1,9,9,409,644.1400420470163,644.9991709550377,"[60, 0, 194]",194,a,0.3440521040465683,colour,0.06
009,62,1,1,9,10,410,645.4984202852938,646.3190488156397,"[75, 0, 179]",179,a,0.2972116516903043,colour,0.06
009,62,1,1,9,11,411,646.8266713037156,647.7191069473047,"[70, 0, 184]",184,a,0.36775452084839344,colour,0.06
009,62,1,1,9,12,412,648.2349860146642,649.2151259558741,"[80, 0, 174]",174,a,0.456723062787205,colour,0.06
009,62,1,1,9,13,413,649.7350293376949,650.5271095749922,"[92, 0, 162]",162,l,0.2709874417632818,colour,0.06
009,62,1,1,9,14,414,651.0477266050875,651.6951213558204,"[90, 0, 164]",164,l,0.12403419218026102,colour,0.06
009,62,1,1,9,15,415,652.204091189662,653.0950597582851,"[57, 0, 197]",197,a,0.3676430624909699,colour,0.06
009,62,1,1,9,16,416,653.610474481713,654.3431045117322,"[93, 0, 161]",161,l,0.209352966863662,colour,0.06
009,62,1,1,9,17,417,654.8604715277907,655.6230834489688,"[52, 0, 202]",202,a,0.2385790681000799,colour,0.06
009,62,1,1,9,18,418,656.1424890097696,657.0390620017424,"[74, 0, 180]",180,a,0.3733136516530067,colour,0.06
009,62,1,1,9,19,419,657.5500223310664,658.3831152874045,"[63, 0, 191]",191,a,0.30993916653096676,colour,0.06
009,62,1,1,9,20,420,658.8938664849848,659.8231475669891,"[58, 0, 196]",196,a,0.4059350958559662,colour,0.06
009,62,1,1,9,21,421,660.3490149527788,661.2071048961952,"[69, 0, 185]",185,a,0.3315435675904155,colour,0.06
009,62,1,1,9,22,422,661.7272138653789,662.3430785180535,"[84, 0, 170]",170,l,0.09284477052278817,colour,0.06
009,62,1,1,9,23,423,662.8637140586507,663.6631115537602,"[79, 0, 175]",175,l,0.27643275121226907,colour,0.06
009,62,1,1,9,24,424,664.1763869076967,665.0311023818795,"[61, 0, 193]",193,a,0.3271714875008911,colour,0.06
009,62,1,1,9,25,425,665.5400489787571,666.4230815584306,"[56, 0, 198]",198,a,0.35959482728503644,colour,0.06
009,62,1,1,9,26,426,666.9308690677863,667.7510746079497,"[68, 0, 186]",186,a,0.3000138634815812,colour,0.06
009,62,1,1,9,27,427,668.2715774227399,669.0950428228825,"[51, 0, 203]",203,a,0.3000914508011192,colour,0.06
009,62,1,1,9,28,428,669.6154503270518,670.4150801911019,"[62, 0, 192]",192,a,0.2763461053837091,colour,0.06
009,62,1,1,9,29,429,670.9322191704996,671.7751389686018,"[87, 0, 167]",167,l,0.32302153622731566,colour,0.06
009,62,1,1,9,30,430,672.2883544580545,673.0790664756205,"[81, 0, 173]",173,l,0.2657835597638041,colour,0.06
009,62,1,1,9,31,431,673.5749882045202,674.3190692956559,"[96, 0, 158]",158,l,0.2208323848899454,colour,0.06
009,62,1,1,9,32,432,674.840714656515,675.7351226790342,"[64, 0, 190]",190,a,0.3711593160405755,colour,0.06
009,62,1,1,9,33,433,676.2470684102736,677.0950924474746,"[55, 0, 199]",199,a,0.3247001061681658,colour,0.06
009,62,1,1,9,34,434,677.6064899456687,678.5270780674182,"[73, 0, 181]",181,a,0.39719960023649037,colour,0.06
009,62,1,1,9,35,435,679.044153243769,679.9590243026614,"[5, 0, 249]",249,a,0.3915557924192399,colour,0.06
009,62,1,1,9,36,436,680.4662580650765,681.2311440506019,"[77, 0, 177]",177,l,0.24194684182293713,colour,0.06
009,62,1,1,9,37,437,681.7475213326979,682.5510368775576,"[76, 0, 178]",178,l,0.28013765695504844,colour,0.06
009,62,1,1,9,38,438,683.0617581426632,683.8870817064308,"[97, 0, 157]",157,l,0.30198033433407545,colour,0.06
009,62,1,1,9,39,439,684.405679883901,685.2710839342326,"[66, 0, 188]",188,a,0.3421943346038461,colour,0.06
009,62,1,1,9,40,440,685.7807173978072,686.5670380368829,"[89, 0, 165]",165,l,0.27440917235799134,colour,0.06
009,62,1,1,9,41,441,687.0818489950616,687.9590550228022,"[98, 0, 156]",156,l,0.3538494077511132,colour,0.06
009,62,1,1,9,42,442,688.4726923208218,689.3350645473693,"[72, 0, 182]",182,a,0.33948585810139775,colour,0.06
009,62,1,1,9,43,443,689.8491342880297,690.671018398134,"[99, 0, 155]",155,l,0.30372546426951885,colour,0.06
009,62,1,1,9,44,444,691.1877844058909,692.1110435884912,"[31, 0, 223]",223,a,0.39455886534415185,colour,0.06
009,62,1,1,9,45,445,692.6307039675303,693.4950383331161,"[54, 0, 200]",200,a,0.34178670425899327,colour,0.06
009,62,1,1,9,46,446,694.0058698751964,694.8790476499125,"[82, 0, 172]",172,l,0.34985108696855605,colour,0.06
009,62,1,1,9,47,447,695.3966135580558,696.2070745700039,"[86, 0, 168]",168,l,0.28718946245498955,colour,0.06
009,62,1,1,9,48,448,696.7155973890331,697.6310576410033,"[94, 0, 160]",160,l,0.391220236197114,colour,0.06
009,62,1,1,9,49,449,698.1478980854154,699.0310259757098,"[67, 0, 187]",187,a,0.35972046409733593,colour,0.06
009,62,1,1,9,50,450,699.5386984820943,700.3990420100745,"[65, 0, 189]",189,a,0.3370215662289411,colour,0.06
009,62,1,1,10,1,451,705.6178118253592,706.5670214954298,"[55, 0, 199]",199,a,0.42509922944009304,colour,0.06
009,62,1,1,10,2,452,707.0873104520142,707.7590393477585,"[80, 0, 174]",174,l,0.14855068759061396,colour,0.06
009,62,1,1,10,3,453,708.2746726553887,708.8718150691129,"[50, 0, 204]",204,a,0.07384408288635314,colour,0.06
009,62,1,1,10,4,454,709.3841656735167,710.0470133507624,"[64, 0, 190]",190,a,0.13973602908663452,colour,0.06
009,62,1,1,10,5,455,710.5562415472232,711.3670692294836,"[74, 0, 180]",180,a,0.28763096360489726,colour,0.06
009,62,1,1,10,6,456,711.8843039134517,712.7030010249,"[73, 0, 181]",181,a,0.29545313119888306,colour,0.06
009,62,1,1,10,7,457,713.2125360271893,714.070988702355,"[53, 0, 201]",201,a,0.3337416199501604,colour,0.06
009,62,1,1,10,8,458,714.5909901515115,715.311014365172,"[99, 0, 155]",155,l,0.19676841795444489,colour,0.06
009,62,1,1,10,9,459,715.8254428992514,716.6309772965033,"[85, 0, 169]",169,l,0.28221558639779687,colour,0.06
009,62,1,1,10,10,460,717.138652165886,717.8709883871488,"[97, 0, 157]",157,l,0.20900244428776205,colour,0.06
009,62,1,1,10,11,461,718.3887149842922,719.2709819281008,"[70, 0, 184]",184,a,0.3589079605881125,colour,0.06
009,62,1,1,10,12,462,719.7802199707367,720.6150056754705,"[66, 0, 188]",188,a,0.31306433165445924,colour,0.06
009,62,1,1,10,13,463,721.1108557241969,721.9029796784744,"[56, 0, 198]",198,a,0.26882641087286174,colour,0.06
009,62,1,1,10,14,464,722.423424204113,723.3110100328922,"[84, 0, 170]",170,l,0.36453719600103796,colour,0.06
009,62,1,1,10,15,465,723.8298456992488,724.6470154775307,"[59, 0, 195]",195,a,0.2939100442454219,colour,0.06
009,62,1,1,10,16,466,725.1546745931264,725.9110058580991,"[67, 0, 187]",187,a,0.22869275556877255,colour,0.06
009,62,1,1,10,17,467,726.4247364976909,727.0149858256336,"[96, 0, 158]",158,l,0.06703094765543938,colour,0.06
009,62,1,1,10,18,468,727.5217520932201,728.1749926942866,"[77, 0, 177]",177,l,0.12984617170877755,colour,0.06
009,62,1,1,10,19,469,728.6936688532587,729.3349629351869,"[61, 0, 193]",193,a,0.11796542489901185,colour,0.06
009,62,1,1,10,20,470,729.8500558868982,730.4550070774276,"[98, 0, 156]",156,l,0.08175565325655043,colour,0.06
009,62,1,1,10,21,471,730.9751916651148,731.57496851217,"[68, 0, 186]",186,a,0.07641313783824444,colour,0.06
009,62,1,1,10,22,472,732.0845574713312,732.78298831149,"[62, 0, 192]",192,a,0.17509115557186306,colour,0.06
009,62,1,1,10,23,473,733.3034111757297,733.9429624909535,"[89, 0, 165]",165,l,0.11658657155930996,colour,0.06
009,62,1,1,10,24,474,734.4597848185804,735.1109896316193,"[65, 0, 189]",189,a,0.1278442544862628,colour,0.06
009,62,1,1,10,25,475,735.6317539599258,736.2790033817291,"[88, 0, 166]",166,l,0.12395227234810591,colour,0.06
009,62,1,1,10,26,476,736.7895096072461,737.3589603421278,"[83, 0, 171]",171,l,0.046232354594394565,colour,0.06
009,62,1,1,10,27,477,737.8676698440686,738.4309643784072,"[14, 0, 240]",240,a,0.04005724936723709,colour,0.06
009,62,1,1,10,28,478,738.9458525301889,739.5749740260653,"[51, 0, 203]",203,a,0.10596337402239442,colour,0.06
009,62,1,1,10,29,479,740.0862777889706,740.6709581399336,"[81, 0, 173]",173,l,0.05977316084317863,colour,0.06
009,62,1,1,10,30,480,741.1817487219814,741.7669776997063,"[69, 0, 185]",185,l,0.061962154461070895,colour,0.06
009,62,1,1,10,31,481,742.2754008758347,745.0470251659863,"[38, 0, 216]",216,a,2.248246008530259,colour,0.06
009,62,1,1,10,32,482,745.5580831691623,746.6469934221823,"[2, 0, 252]",252,a,0.5655863219872117,colour,0.06
009,62,1,1,10,33,483,747.1675088398624,748.0469633322209,"[63, 0, 191]",191,a,0.35626683197915554,colour,0.06
009,62,1,1,10,34,484,748.558351771906,749.1909855830017,"[60, 0, 194]",194,a,0.10931854462251067,colour,0.06
009,62,1,1,10,35,485,749.699022002751,750.3029484071303,"[94, 0, 160]",160,l,0.08124562329612672,colour,0.06
009,62,1,1,10,36,486,750.8240912209731,751.774972371757,"[72, 0, 182]",182,l,0.42759030289016664,colour,0.06
009,62,1,1,10,37,487,752.2929691469762,753.1349767986685,"[54, 0, 200]",200,a,0.31867190543562174,colour,0.06
009,62,1,1,10,38,488,753.6524454269093,754.5989355929196,"[87, 0, 167]",167,l,0.4231441798619926,colour,0.06
009,62,1,1,10,39,489,755.1080676910933,755.950946529163,"[79, 0, 175]",175,l,0.31955411937087774,colour,0.06
009,62,1,1,10,40,490,756.4693154885899,757.334988535149,"[71, 0, 183]",183,a,0.3425452506635338,colour,0.06
009,62,1,1,10,41,491,757.8443494576495,758.759004295338,"[76, 0, 178]",178,a,0.3916089616250247,colour,0.06
009,62,1,1,10,42,492,759.2663924451917,760.0869685939979,"[92, 0, 162]",162,l,0.297414482338354,colour,0.06
009,62,1,1,10,43,493,760.5935162773822,761.5109437881038,"[58, 0, 196]",196,a,0.39405237999744713,colour,0.06
009,62,1,1,10,44,494,762.0184890823439,762.8629385768436,"[90, 0, 164]",164,l,0.32107475749216974,colour,0.06
009,62,1,1,10,45,495,763.3766904838849,764.1429336615838,"[57, 0, 197]",197,a,0.24323235405609012,colour,0.06
009,62,1,1,10,46,496,764.6579974684864,765.3669042082038,"[52, 0, 202]",202,l,0.1856028949841857,colour,0.06
009,62,1,1,10,47,497,765.8769523913506,766.71890372294,"[91, 0, 163]",163,l,0.3163214346859604,colour,0.06
009,62,1,1,10,48,498,767.2387106125243,768.0869650493842,"[95, 0, 159]",159,l,0.3249643766321242,colour,0.06
009,62,1,1,10,49,499,768.5981750770006,769.7109578878153,"[78, 0, 176]",176,l,0.5899216483812779,colour,0.06
009,62,1,1,10,50,500,770.2231848246884,771.1349464724772,"[93, 0, 161]",161,l,0.386745362309739,colour,0.06
009,62,1,1,11,1,501,775.8508396395482,777.2469396227971,"[78, 0, 176]",176,l,0.8719084104523063,colour,0.06
009,62,1,1,11,2,502,777.7582079395652,778.4389373888262,"[59, 0, 195]",195,a,0.15749137662351131,colour,0.06
009,62,1,1,11,3,503,778.9456717548892,779.5989367745351,"[68, 0, 186]",186,a,0.12998165469616652,colour,0.06
009,62,1,1,11,4,504,780.1176775239874,780.7189643750899,"[67, 0, 187]",187,a,0.07825712277553976,colour,0.06
009,62,1,1,11,5,505,781.2271039823536,781.8229384350125,"[86, 0, 168]",168,l,0.0724861032795161,colour,0.06
009,62,1,1,11,6,506,782.3367762004491,782.9029221769888,"[88, 0, 166]",166,l,0.04303354071453214,colour,0.06
009,62,1,1,11,7,507,783.4147107638419,784.1189327100292,"[75, 0, 179]",179,a,0.18138126377016306,colour,0.06
009,62,1,1,11,8,508,784.6357510990929,785.3429103458766,"[93, 0, 161]",161,l,0.18389321118593216,colour,0.06
009,62,1,1,11,9,509,785.8536190080922,786.6549160203431,"[95, 0, 159]",159,l,0.27800892130471766,colour,0.06
009,62,1,1,11,10,510,787.1541480214801,787.9748943117447,"[94, 0, 160]",160,l,0.2973502855747938,colour,0.06
009,62,1,1,11,11,511,788.4830827557016,789.4069228607696,"[90, 0, 164]",164,l,0.40073397080413997,colour,0.06
009,62,1,1,11,12,512,789.9218945077155,790.8229116534349,"[3, 0, 251]",251,a,0.3777444146107882,colour,0.06
009,62,1,1,11,13,513,791.3300902773626,792.206917031901,"[66, 0, 188]",188,a,0.35342917451635003,colour,0.06
009,62,1,1,11,14,514,792.7208359295037,793.5989237776957,"[76, 0, 178]",178,a,0.35547402082011104,colour,0.06
009,62,1,1,11,15,515,794.1115583446808,795.0068592152093,"[99, 0, 155]",155,l,0.3703042771667242,colour,0.06
009,62,1,1,11,16,516,795.5192594444379,796.3668793959077,"[87, 0, 167]",167,l,0.32422631001099944,colour,0.06
009,62,1,1,11,17,517,796.8787487212103,797.7588963815942,"[63, 0, 191]",191,a,0.35713329212740064,colour,0.06
009,62,1,1,11,18,518,798.2692820904776,799.0788916083984,"[61, 0, 193]",193,a,0.2863052792381495,colour,0.06
009,62,1,1,11,19,519,799.5975023887586,800.462885171175,"[53, 0, 201]",201,a,0.3420269498601556,colour,0.06
009,62,1,1,11,20,520,800.9737946947571,801.8309008115903,"[50, 0, 204]",204,a,0.34107305598445237,colour,0.06
009,62,1,1,11,21,521,802.3337569800206,803.2628852501512,"[82, 0, 172]",172,l,0.403603530023247,colour,0.06
009,62,1,1,11,22,522,803.7615296335425,804.486908178078,"[91, 0, 163]",163,l,0.2021050259936601,colour,0.06
009,62,1,1,11,23,523,804.9965546387248,805.7509158879984,"[92, 0, 162]",162,l,0.24374829162843525,colour,0.06
009,62,1,1,11,24,524,806.2653861697763,807.3028834227007,"[70, 0, 184]",184,a,0.5210321433842182,colour,0.06
009,62,1,1,11,25,525,807.8212315081619,809.0149015425704,"[60, 0, 194]",194,a,0.681275713024661,colour,0.06
009,62,1,1,11,26,526,809.5172279886901,810.278897437267,"[77, 0, 177]",177,a,0.23860584967769682,colour,0.06
009,62,1,1,11,27,527,810.7984920439776,811.7028403359,"[98, 0, 156]",156,l,0.38100151787512004,colour,0.06
009,62,1,1,11,28,528,812.2205346375704,813.1748883251566,"[54, 0, 200]",200,a,0.43110183044336736,colour,0.06
009,62,1,1,11,29,529,813.6893818436656,814.5748858046718,"[43, 0, 211]",211,a,0.36226195003837347,colour,0.06
009,62,1,1,11,30,530,815.0709469546564,815.9428301588632,"[79, 0, 175]",175,l,0.348595900926739,colour,0.06
009,62,1,1,11,31,531,816.462317639729,817.3589111114852,"[69, 0, 185]",185,a,0.37355429120361805,colour,0.06
009,62,1,1,11,32,532,817.8780724881217,818.7349072454963,"[65, 0, 189]",189,a,0.34276501671411097,colour,0.06
009,62,1,1,11,33,533,819.2439719960093,820.0948533832561,"[96, 0, 158]",158,l,0.3275204347446561,colour,0.06
009,62,1,1,11,34,534,820.6033915621229,821.4948331394698,"[83, 0, 171]",171,l,0.3683366244658828,colour,0.06
009,62,1,1,11,35,535,822.0045465538278,822.8389124190435,"[73, 0, 181]",181,l,0.3109722235240042,colour,0.06
009,62,1,1,11,36,536,823.348409218248,824.2308136143256,"[84, 0, 170]",170,l,0.3591092159040272,colour,0.06
009,62,1,1,11,37,537,824.7391950427555,825.4868873043451,"[97, 0, 157]",157,l,0.2245120843872428,colour,0.06
009,62,1,1,11,38,538,825.9954471448436,826.8628763491288,"[64, 0, 190]",190,a,0.3484489966649562,colour,0.06
009,62,1,1,11,39,539,827.3818431659602,828.190861127805,"[57, 0, 197]",197,a,0.28569442476145923,colour,0.06
009,62,1,1,11,40,540,828.7100319566671,829.4068692976143,"[37, 0, 217]",217,a,0.17348308372311294,colour,0.06
009,62,1,1,11,41,541,829.9133244273253,830.8148634184618,"[85, 0, 169]",169,l,0.3886641780845821,colour,0.06
009,62,1,1,11,42,542,831.3247245247476,832.1748355499003,"[71, 0, 183]",183,a,0.3390754710417241,colour,0.06
009,62,1,1,11,43,543,832.6949831158854,833.5668938893359,"[52, 0, 202]",202,a,0.3486604916397482,colour,0.06
009,62,1,1,11,44,544,834.0870788707398,834.9748352346942,"[89, 0, 165]",165,l,0.3644651221111417,colour,0.06
009,62,1,1,11,45,545,835.4814388442319,836.3268469588365,"[72, 0, 182]",182,a,0.3220251069869846,colour,0.06
009,62,1,1,11,46,546,836.836687585339,837.7188544922974,"[62, 0, 192]",192,a,0.3587590870447457,colour,0.06
009,62,1,1,11,47,547,838.227408425184,839.1108608441427,"[58, 0, 196]",196,a,0.3577307560481131,colour,0.06
009,62,1,1,11,48,548,839.6228983413894,840.510844145203,"[55, 0, 199]",199,a,0.3598587040323764,colour,0.06
009,62,1,1,11,49,549,841.0285368715413,841.9269640885759,"[81, 0, 173]",173,l,0.375065476866439,colour,0.06
009,62,1,1,11,50,550,842.4348898376338,843.2948371567763,"[74, 0, 180]",180,l,0.3365777023136616,colour,0.06
009,62,1,1,12,1,551,847.7952380916104,848.958954985952,"[64, 0, 190]",190,a,0.6395292601082474,colour,0.06
009,62,1,1,12,2,552,849.4680799948983,850.4228436755948,"[74, 0, 180]",180,a,0.4318131154868752,colour,0.06
009,62,1,1,12,3,553,850.9368980564177,851.750846571289,"[97, 0, 157]",157,l,0.29061434394679964,colour,0.06
009,62,1,1,12,4,554,852.2651459239423,852.9508043508977,"[58, 0, 196]",196,a,0.16234985599294305,colour,0.06
009,62,1,1,12,5,555,853.4684395759832,854.2308140080422,"[71, 0, 183]",183,a,0.2393695160280913,colour,0.06
009,62,1,1,12,6,556,854.7510553093161,855.694825183833,"[18, 0, 236]",236,a,0.4205589771736413,colour,0.06
009,62,1,1,12,7,557,856.2042944137938,857.0228068118449,"[82, 0, 172]",172,l,0.2951033962890506,colour,0.06
009,62,1,1,12,8,558,857.5325926935766,858.2628226284869,"[85, 0, 169]",169,l,0.2069638993125409,colour,0.06
009,62,1,1,12,9,559,858.7830942559522,859.5267787447665,"[76, 0, 178]",178,l,0.2208323848899454,colour,0.06
009,62,1,1,12,10,560,860.0365023990162,860.8628015185241,"[69, 0, 185]",185,a,0.30291886860504746,colour,0.06
009,62,1,1,12,11,561,861.3803560049273,862.0867953021079,"[62, 0, 192]",192,a,0.18313899682834744,colour,0.06
009,62,1,1,12,12,562,862.5991904111579,863.262807662366,"[88, 0, 166]",166,l,0.1403390064369887,colour,0.06
009,62,1,1,12,13,563,863.7728609654587,864.3667632115539,"[70, 0, 184]",184,a,0.0704802474938333,colour,0.06
009,62,1,1,12,14,564,864.8823520145379,865.6548234666698,"[15, 0, 239]",239,a,0.24979618494398892,colour,0.06
009,62,1,1,12,15,565,866.1562519448344,867.0468030371703,"[91, 0, 163]",163,l,0.37650616420432925,colour,0.06
009,62,1,1,12,16,566,867.5532707697712,868.4148430959322,"[80, 0, 174]",174,l,0.3385319639928639,colour,0.06
009,62,1,1,12,17,567,868.9307481572032,869.7908128423151,"[51, 0, 203]",203,a,0.34498394280672073,colour,0.06
009,62,1,1,12,18,568,870.29773782962,871.2068028165959,"[98, 0, 156]",156,a,0.39320403640158474,colour,0.06
009,62,1,1,12,19,569,871.7257022859994,872.6387927688193,"[95, 0, 159]",159,l,0.38976143207401037,colour,0.06
009,62,1,1,12,20,570,873.1594617865048,873.9908545112703,"[54, 0, 200]",200,a,0.30807312624529004,colour,0.06
009,62,1,1,12,21,571,874.5032547402661,875.4228090173565,"[53, 0, 201]",201,a,0.3961913555394858,colour,0.06
009,62,1,1,12,22,572,875.9318619524129,876.8067683156114,"[66, 0, 188]",188,a,0.3516702598426491,colour,0.06
009,62,1,1,12,23,573,877.3107638794463,878.1907796016894,"[83, 0, 171]",171,l,0.3655938836745918,colour,0.06
009,62,1,1,12,24,574,878.7069638995454,879.3907960643992,"[89, 0, 165]",165,l,0.16024435753934085,colour,0.06
009,62,1,1,12,25,575,879.9102465237956,880.7907691253349,"[60, 0, 194]",194,a,0.36881317757070065,colour,0.06
009,62,1,1,12,26,576,881.307339391904,882.0867697021458,"[75, 0, 179]",179,a,0.2507425961084664,colour,0.06
009,62,1,1,12,27,577,882.5941015318967,883.4227475773077,"[86, 0, 168]",168,l,0.30539536965079606,colour,0.06
009,62,1,1,12,28,578,883.9428400050383,884.8228064966388,"[96, 0, 158]",158,l,0.35701750172302127,colour,0.06
009,62,1,1,12,29,579,885.3335305189248,886.1347558512352,"[50, 0, 204]",204,a,0.2725045350380242,colour,0.06
009,62,1,1,12,30,580,886.6422424626071,887.5347808997612,"[68, 0, 186]",186,a,0.36920820479281247,colour,0.06
009,62,1,1,12,31,581,888.0539525165223,888.9187575273681,"[99, 0, 155]",155,l,0.3537907244171947,colour,0.06
009,62,1,1,12,32,582,889.4198992860038,890.278817092767,"[92, 0, 162]",162,l,0.3355812728404999,colour,0.06
009,62,1,1,12,33,583,890.7948619690724,891.6867403211072,"[79, 0, 175]",175,l,0.36856859968975186,colour,0.06
009,62,1,1,12,34,584,892.2011767320801,893.0627234582789,"[55, 0, 199]",199,a,0.33683370193466544,colour,0.06
009,62,1,1,12,35,585,893.5777384282555,894.3987572595943,"[67, 0, 187]",187,a,0.2977701248601079,colour,0.06
009,62,1,1,12,36,586,894.9059559698217,895.7187698155176,"[77, 0, 177]",177,a,0.30206461739726365,colour,0.06
009,62,1,1,12,37,587,896.2184956988785,897.110746235121,"[61, 0, 193]",193,a,0.36749143176712096,colour,0.06
009,62,1,1,12,38,588,897.6262436660472,898.4307639109902,"[94, 0, 160]",160,l,0.28116283705458045,colour,0.06
009,62,1,1,12,39,589,898.9389027305879,899.7907592793927,"[73, 0, 181]",181,a,0.3288433621637523,colour,0.06
009,62,1,1,12,40,590,900.2983360812068,901.1667569887359,"[81, 0, 173]",173,a,0.34502884140238166,colour,0.06
009,62,1,1,12,41,591,901.6733905302826,902.6787421044428,"[21, 0, 233]",233,a,0.4819295755587518,colour,0.06
009,62,1,1,12,42,592,903.1916267636698,904.054742177017,"[63, 0, 191]",191,a,0.33981156861409545,colour,0.06
009,62,1,1,12,43,593,904.5666760927998,905.3587535733823,"[72, 0, 182]",182,a,0.26894732168875635,colour,0.06
009,62,1,1,12,44,594,905.8793095571455,906.4947472813074,"[87, 0, 167]",167,l,0.0920944947283715,colour,0.06
009,62,1,1,12,45,595,907.0043886217754,907.8787144564558,"[65, 0, 189]",189,a,0.3517344566062093,colour,0.06
009,62,1,1,12,46,596,908.3950992217287,909.230858906405,"[93, 0, 161]",161,l,0.3122935756109655,colour,0.06
009,62,1,1,12,47,597,909.7390256891958,910.6147118667141,"[59, 0, 195]",195,a,0.35242250515148044,colour,0.06
009,62,1,1,12,48,598,911.1311671300791,911.9427112175617,"[78, 0, 176]",176,l,0.28825008892454207,colour,0.06
009,62,1,1,12,49,599,912.4593744315207,913.3427398107015,"[52, 0, 202]",202,a,0.36007531895302236,colour,0.06
009,62,1,1,12,50,600,913.8501200836617,914.7267065921333,"[90, 0, 164]",164,l,0.35347722354345024,colour,0.06
009,62,1,1,13,1,601,919.5543849589303,920.4307686369866,"[54, 0, 200]",200,a,0.3522547266911715,colour,0.06
009,62,1,1,13,2,602,920.9458568624686,921.4948051765095,"[98, 0, 156]",156,l,0.02569291228428483,colour,0.06
009,62,1,1,13,3,603,922.0084999760147,922.9346874009352,"[71, 0, 183]",183,a,0.4031639981549233,colour,0.06
009,62,1,1,13,4,604,923.4473412665538,924.2707137193065,"[64, 0, 190]",190,a,0.29998038662597537,colour,0.06
009,62,1,1,13,5,605,924.7912519802339,925.6547250053845,"[84, 0, 170]",170,l,0.34022589423693717,colour,0.06
009,62,1,1,13,6,606,926.1663300599903,926.9666897198185,"[89, 0, 165]",165,l,0.27724486077204347,colour,0.06
009,62,1,1,13,7,607,927.4789654936176,928.2786776714493,"[87, 0, 167]",167,l,0.27644771756604314,colour,0.06
009,62,1,1,13,8,608,928.7932385373861,929.5426747475285,"[92, 0, 162]",162,l,0.22607210697606206,colour,0.06
009,62,1,1,13,9,609,930.0589815310668,930.8147082431242,"[96, 0, 158]",158,l,0.23308728472329676,colour,0.06
009,62,1,1,13,10,610,931.324691047892,932.182731760433,"[74, 0, 180]",180,a,0.3347644368186593,colour,0.06
009,62,1,1,13,11,611,932.7012161165476,933.4707053697202,"[80, 0, 174]",174,a,0.24642683565616608,colour,0.06
009,62,1,1,13,12,612,933.9825510641094,934.8147302984726,"[75, 0, 179]",179,a,0.30889193108305335,colour,0.06
009,62,1,1,13,13,613,935.3264361778274,936.1108143704478,"[97, 0, 157]",157,l,0.2610310248564929,colour,0.06
009,62,1,1,13,14,614,936.6233587469906,937.4627272391226,"[50, 0, 204]",204,a,0.31601502280682325,colour,0.06
009,62,1,1,13,15,615,937.9842721694149,938.6627448834479,"[93, 0, 161]",161,l,0.15524369990453124,colour,0.06
009,62,1,1,13,16,616,939.1719100647606,939.7826807182282,"[58, 0, 196]",196,a,0.08742309198714793,colour,0.06
009,62,1,1,13,17,617,940.2969658921938,941.1587040275335,"[86, 0, 168]",168,l,0.33841538592241704,colour,0.06
009,62,1,1,13,18,618,941.673396831844,942.3267366820946,"[91, 0, 163]",163,l,0.12996983947232366,colour,0.06
009,62,1,1,13,19,619,942.8453403732274,943.7026902807411,"[61, 0, 193]",193,a,0.3339141244068742,colour,0.06
009,62,1,1,13,20,620,944.2204822562635,945.0786911409814,"[85, 0, 169]",169,l,0.3348881045822054,colour,0.06
009,62,1,1,13,21,621,945.5956375298556,946.4867128308397,"[78, 0, 176]",176,a,0.3676852041389793,colour,0.06
009,62,1,1,13,22,622,947.0039069484919,947.8226737705991,"[55, 0, 199]",199,a,0.3079380369745195,colour,0.06
009,62,1,1,13,23,623,948.3352921903133,948.9826841838658,"[77, 0, 177]",177,l,0.12395581672899425,colour,0.06
009,62,1,1,13,24,624,949.4916075440124,950.5907424227335,"[69, 0, 185]",185,a,0.5757333601359278,colour,0.06
009,62,1,1,13,25,625,951.1011982359923,951.9906934283208,"[52, 0, 202]",202,a,0.36615393217653036,colour,0.06
009,62,1,1,13,26,626,952.5075531711336,953.3827249864116,"[56, 0, 198]",198,a,0.3518419766332954,colour,0.06
009,62,1,1,13,27,627,953.8981972113252,954.774650993757,"[68, 0, 186]",186,a,0.35306880553252995,colour,0.06
009,62,1,1,13,28,628,955.2845979586709,956.1267280962784,"[51, 0, 203]",203,a,0.31331599899567664,colour,0.06
009,62,1,1,13,29,629,956.6335794343613,957.4707002497744,"[66, 0, 188]",188,a,0.31404815800487995,colour,0.06
009,62,1,1,13,30,630,957.9774086219259,958.8866469010245,"[95, 0, 159]",159,l,0.3907326553016901,colour,0.06
009,62,1,1,13,31,631,959.3946155791637,960.1986415479332,"[81, 0, 173]",173,l,0.28073472692631185,colour,0.06
009,62,1,1,13,32,632,960.6969929100014,961.4706439299043,"[62, 0, 192]",192,l,0.25032984581775963,colour,0.06
009,62,1,1,13,33,633,961.9784101713449,962.8306542644277,"[67, 0, 187]",187,a,0.3336037741973996,colour,0.06
009,62,1,1,13,34,634,963.3498286379036,964.1666538012214,"[72, 0, 182]",182,a,0.294205428333953,colour,0.06
009,62,1,1,13,35,635,964.6774845554028,965.5186493773945,"[94, 0, 160]",160,l,0.3178294694516808,colour,0.06
009,62,1,1,13,36,636,966.0163323837332,966.918660641415,"[73, 0, 181]",181,a,0.37911499734036624,colour,0.06
009,62,1,1,13,37,637,967.428127114661,968.1106792814098,"[83, 0, 171]",171,l,0.15921366354450583,colour,0.06
009,62,1,1,13,38,638,968.631285677664,969.3826674849261,"[60, 0, 194]",194,a,0.228131131734699,colour,0.06
009,62,1,1,13,39,639,969.8970294590108,970.7507378698792,"[65, 0, 189]",189,a,0.3305144489277154,colour,0.06
009,62,1,1,13,40,640,971.2614339289721,972.1346569960006,"[41, 0, 213]",213,a,0.3542247423902154,colour,0.06
009,62,1,1,13,41,641,972.6478630332276,973.6226368278731,"[79, 0, 175]",175,l,0.45144789456389844,colour,0.06
009,62,1,1,13,42,642,974.1323943529278,974.9906674344093,"[82, 0, 172]",172,l,0.33501728577539325,colour,0.06
009,62,1,1,13,43,643,975.5111517386977,976.3186648162082,"[59, 0, 195]",195,a,0.2841426730155945,colour,0.06
009,62,1,1,13,44,644,976.8360842138063,977.7266872937325,"[76, 0, 178]",178,a,0.3673004168085754,colour,0.06
009,62,1,1,13,45,645,978.2448124627117,979.1906130050775,"[46, 0, 208]",208,a,0.4225845253095031,colour,0.06
009,62,1,1,13,46,646,979.7009868985042,980.566656794399,"[63, 0, 191]",191,a,0.3423861372284591,colour,0.06
009,62,1,1,13,47,647,981.0740898426156,981.9266631903592,"[99, 0, 155]",155,l,0.3293108567595482,colour,0.06
009,62,1,1,13,48,648,982.4364837307949,983.2946327507962,"[57, 0, 197]",197,a,0.33484359993599355,colour,0.06
009,62,1,1,13,49,649,983.811592530692,984.6786302523687,"[33, 0, 221]",221,a,0.3437149724923074,colour,0.06
009,62,1,1,13,50,650,985.1866556443274,986.1186069997493,"[53, 0, 201]",201,a,0.41156314965337515,colour,0.06
009,62,1,1,14,1,651,990.8240333257709,991.8626246817876,"[84, 0, 170]",170,l,0.5236559428740293,colour,0.06
009,62,1,1,14,2,652,992.3801425406709,993.0786174917594,"[16, 0, 238]",238,a,0.17512502637691796,colour,0.06
009,62,1,1,14,3,653,993.5989879744593,996.7106707743369,"[52, 0, 202]",202,a,2.5836713185999542,colour,0.06
009,62,1,1,14,4,654,997.2321652923711,998.1906342727598,"[64, 0, 190]",190,a,0.4351927046664059,colour,0.06
009,62,1,1,14,5,655,998.7010451876558,999.5826295970473,"[58, 0, 196]",196,a,0.3584121090825647,colour,0.06
009,62,1,1,14,6,656,1000.0918317995965,1001.022622885881,"[76, 0, 178]",178,a,0.4075478937011212,colour,0.06
009,62,1,1,14,7,657,1001.5209454973228,1002.3826040758286,"[81, 0, 173]",173,l,0.33840711507946253,colour,0.06
009,62,1,1,14,8,658,1002.895999552682,1003.7745718308724,"[70, 0, 184]",184,l,0.355247953440994,colour,0.06
009,62,1,1,14,9,659,1004.2886006115004,1005.0946320418734,"[92, 0, 162]",162,l,0.2829579852987081,colour,0.06
009,62,1,1,14,10,660,1005.5933429852594,1006.3025931583252,"[80, 0, 174]",174,l,0.186192087829113,colour,0.06
009,62,1,1,14,11,661,1006.8188956098165,1007.5425688030664,"[96, 0, 158]",158,l,0.1986088587436825,colour,0.06
009,62,1,1,14,12,662,1008.0550698565785,1008.7186378771439,"[83, 0, 171]",171,l,0.1402468467131257,colour,0.06
009,62,1,1,14,13,663,1009.2280531504657,1010.0226343073882,"[19, 0, 235]",235,a,0.2790333137381822,colour,0.06
009,62,1,1,14,14,664,1010.5226965348702,1011.1266091547441,"[97, 0, 157]",157,l,0.08064461499452591,colour,0.06
009,62,1,1,14,15,665,1011.647709433455,1012.2305942422245,"[73, 0, 181]",181,a,0.059579388704150915,colour,0.06
009,62,1,1,14,16,666,1012.7436915780418,1013.9105970463715,"[75, 0, 179]",179,l,0.6435543620027602,colour,0.06
009,62,1,1,14,17,667,1014.4242481291294,1015.3665895254817,"[7, 0, 247]",247,a,0.41906866524368525,colour,0.06
009,62,1,1,14,18,668,1015.88293175539,1016.7586029667873,"[59, 0, 195]",195,a,0.3527466398663819,colour,0.06
009,62,1,1,14,19,669,1017.2735734321177,1018.1825738283806,"[55, 0, 199]",199,a,0.3856957636307925,colour,0.06
009,62,1,1,14,20,670,1018.6956589550246,1019.534602093976,"[94, 0, 160]",160,l,0.3156735587399453,colour,0.06
009,62,1,1,14,21,671,1020.0437629427761,1020.9105832618661,"[89, 0, 165]",165,l,0.3435145050752908,colour,0.06
009,62,1,1,14,22,672,1021.4156461472157,1022.270583356265,"[99, 0, 155]",155,l,0.33168377657420933,colour,0.06
009,62,1,1,14,23,673,1022.7920731483027,1023.7186256679706,"[74, 0, 180]",180,a,0.403221893357113,colour,0.06
009,62,1,1,14,24,674,1024.231244087452,1025.1346180052496,"[72, 0, 182]",182,a,0.3787546285893768,colour,0.06
009,62,1,1,14,25,675,1025.6546068515163,1026.5265692188405,"[79, 0, 175]",175,a,0.3485911749303341,colour,0.06
009,62,1,1,14,26,676,1027.045371014392,1027.9586206108797,"[87, 0, 167]",167,l,0.3898468962870538,colour,0.06
009,62,1,1,14,27,677,1028.4673565004487,1029.3346588865388,"[71, 0, 183]",183,a,0.3445660728029907,colour,0.06
009,62,1,1,14,28,678,1029.830095791258,1030.6865709675476,"[66, 0, 188]",188,a,0.3331547901034355,colour,0.06
009,62,1,1,14,29,679,1031.2051821418572,1032.0785560517106,"[91, 0, 163]",163,l,0.3499444283079356,colour,0.06
009,62,1,1,14,30,680,1032.588637711713,1033.470579732908,"[61, 0, 193]",193,a,0.3586366008967161,colour,0.06
009,62,1,1,14,31,681,1033.987918786006,1034.8145621265285,"[57, 0, 197]",197,a,0.30336903408169746,colour,0.06
009,62,1,1,14,32,682,1035.331720404327,1036.2545841659885,"[93, 0, 161]",161,l,0.39953904296271503,colour,0.06
009,62,1,1,14,33,683,1036.76940772729,1037.6465850041714,"[77, 0, 177]",177,l,0.35388524760492146,colour,0.06
009,62,1,1,14,34,684,1038.1530964537524,1039.0546059063636,"[67, 0, 187]",187,a,0.3782237246632576,colour,0.06
009,62,1,1,14,35,685,1039.5667564372998,1040.4465539690573,"[60, 0, 194]",194,a,0.3566303513944149,colour,0.06
009,62,1,1,14,36,686,1040.9574757018127,1041.8065402791835,"[78, 0, 176]",176,a,0.32578042475506663,colour,0.06
009,62,1,1,14,37,687,1042.3169515877962,1043.094547759043,"[88, 0, 166]",166,l,0.2545558090787381,colour,0.06
009,62,1,1,14,38,688,1043.6138887293637,1044.5585636608303,"[98, 0, 156]",156,l,0.4308005382772535,colour,0.06
009,62,1,1,14,39,689,1045.0732198376209,1045.9825487011112,"[56, 0, 198]",198,a,0.39102055644616485,colour,0.06
009,62,1,1,14,40,690,1046.4900746969506,1047.3905530618504,"[65, 0, 189]",189,a,0.37700595427304506,colour,0.06
009,62,1,1,14,41,691,1047.9121838503052,1048.7905497534666,"[68, 0, 186]",186,a,0.35501873516477644,colour,0.06
009,62,1,1,14,42,692,1049.3028885426465,1050.0705310537014,"[90, 0, 164]",164,l,0.24433236476033926,colour,0.06
009,62,1,1,14,43,693,1050.5865085823461,1051.4705872160848,"[95, 0, 159]",159,l,0.36082086875103414,colour,0.06
009,62,1,1,14,44,694,1051.9917044299655,1052.8705173479393,"[51, 0, 203]",203,a,0.35546023631468415,colour,0.06
009,62,1,1,14,45,695,1053.3824595343322,1054.2945571325254,"[85, 0, 169]",169,l,0.3888481040485203,colour,0.06
009,62,1,1,14,46,696,1054.8044143004809,1055.6785250955727,"[69, 0, 185]",185,a,0.3507923779543489,colour,0.06
009,62,1,1,14,47,697,1056.1964222278912,1057.0865148839075,"[54, 0, 200]",200,a,0.3667108297813684,colour,0.06
009,62,1,1,14,48,698,1057.6021489792038,1058.4545443088282,"[62, 0, 192]",192,a,0.3291722231078893,colour,0.06
009,62,1,1,14,49,699,1058.9614885947667,1059.8065591836348,"[50, 0, 204]",204,a,0.3216387443244457,colour,0.06
009,62,1,1,14,50,700,1060.3231117271353,1061.2145946582314,"[82, 0, 172]",172,l,0.3680176096968353,colour,0.06
009,62,1,1,15,1,701,1066.9489253135398,1068.0307203514967,"[66, 0, 188]",188,a,0.5577929047867656,colour,0.06
009,62,1,1,15,2,702,1068.543537663063,1069.238578280434,"[99, 0, 155]",155,l,0.17165052029304206,colour,0.06
009,62,1,1,15,3,703,1069.746826195158,1070.718601249624,"[69, 0, 185]",185,a,0.4484684525523335,colour,0.06
009,62,1,1,15,4,704,1071.221281368984,1072.1584657509811,"[75, 0, 179]",179,a,0.4138139772694558,colour,0.06
009,62,1,1,15,5,705,1072.6745279564057,1073.5265416495968,"[56, 0, 198]",198,a,0.32871733140200377,colour,0.06
009,62,1,1,15,6,706,1074.0339802117087,1074.934524348937,"[23, 0, 231]",231,a,0.3774257937911898,colour,0.06
009,62,1,1,15,7,707,1075.4402902484871,1076.5664949237835,"[83, 0, 171]",171,l,0.6061520259827375,colour,0.06
009,62,1,1,15,8,708,1077.0821605268866,1078.5744990482926,"[78, 0, 176]",176,l,0.9691890641115606,colour,0.06
009,62,1,1,15,9,709,1079.0698000763077,1079.9744945582934,"[91, 0, 163]",163,l,0.3813264404889196,colour,0.06
009,62,1,1,15,10,710,1080.491743026767,1081.4464649599977,"[74, 0, 180]",180,l,0.43844350636936724,colour,0.06
009,62,1,1,15,11,711,1081.9578049567062,1082.854527215939,"[95, 0, 159]",159,l,0.3857516897842288,colour,0.06
009,62,1,1,15,12,712,1083.3674492905848,1084.2784902008716,"[97, 0, 157]",157,l,0.3880450527649373,colour,0.06
009,62,1,1,15,13,713,1084.7895127579104,1085.7504751747474,"[58, 0, 196]",196,a,0.4375530213583261,colour,0.06
009,62,1,1,15,14,714,1086.2582741056103,1087.1505049495026,"[59, 0, 195]",195,a,0.3688179037999362,colour,0.06
009,62,1,1,15,15,715,1087.6646589732263,1088.4865001540165,"[60, 0, 194]",194,a,0.29847313929349184,colour,0.06
009,62,1,1,15,16,716,1088.992859579157,1089.878486420028,"[18, 0, 236]",236,a,0.36224816530011594,colour,0.06
009,62,1,1,15,17,717,1090.4000140209682,1091.2784764161333,"[77, 0, 177]",177,l,0.3552774917334318,colour,0.06
009,62,1,1,15,18,718,1091.7903965474106,1092.6944864767138,"[84, 0, 170]",170,l,0.3777192085981369,colour,0.06
009,62,1,1,15,19,719,1093.2155434321612,1094.0385377930943,"[64, 0, 190]",190,a,0.2997547129634768,colour,0.06
009,62,1,1,15,20,720,1094.5592914875597,1095.4384549281094,"[73, 0, 181]",181,l,0.355817454168573,colour,0.06
009,62,1,1,15,21,721,1095.950032807421,1096.8064871099778,"[80, 0, 174]",174,l,0.333267823792994,colour,0.06
009,62,1,1,15,22,722,1097.325188081013,1098.1984343850054,"[57, 0, 197]",197,a,0.35004682815633714,colour,0.06
009,62,1,1,15,23,723,1098.7159034071956,1099.5105113456957,"[52, 0, 202]",202,a,0.2713548999745399,colour,0.06
009,62,1,1,15,24,724,1100.0285286006983,1100.886446039658,"[53, 0, 201]",201,a,0.3324907661881298,colour,0.06
009,62,1,1,15,25,725,1101.4058831082657,1102.2464449526742,"[93, 0, 161]",161,l,0.3172800550237298,colour,0.06
009,62,1,1,15,26,726,1102.7531560820062,1103.5984846397769,"[62, 0, 192]",192,a,0.32195933465845883,colour,0.06
009,62,1,1,15,27,727,1104.1125275988597,1105.0545405279845,"[96, 0, 158]",158,l,0.4186775765847415,colour,0.06
009,62,1,1,15,28,728,1105.5658718601335,1106.3984634508379,"[72, 0, 182]",182,a,0.31208720058202744,colour,0.06
009,62,1,1,15,29,729,1106.9104253298137,1107.718472855864,"[51, 0, 203]",203,a,0.28474053065292537,colour,0.06
009,62,1,1,15,30,730,1108.238728335593,1109.0864443855826,"[63, 0, 191]",191,a,0.3229947548825294,colour,0.06
009,62,1,1,15,31,731,1109.587026489433,1110.5184745099396,"[86, 0, 168]",168,l,0.4133311223704368,colour,0.06
009,62,1,1,15,32,732,1111.0350987333804,1111.8865618302952,"[61, 0, 193]",193,a,0.3280265263747424,colour,0.06
009,62,1,1,15,33,733,1112.3821925071534,1113.2944602465723,"[41, 0, 213]",213,a,0.38889812235720456,colour,0.06
009,62,1,1,15,34,734,1113.804174842313,1114.5584549594205,"[88, 0, 166]",166,l,0.23093019239604473,colour,0.06
009,62,1,1,15,35,735,1115.0699599774089,1115.8864208336454,"[67, 0, 187]",187,a,0.29315858660265803,colour,0.06
009,62,1,1,15,36,736,1116.398097962141,1117.2624354783911,"[68, 0, 186]",186,a,0.34089937014505267,colour,0.06
009,62,1,1,15,37,737,1117.7748097137082,1118.678491618717,"[71, 0, 183]",183,a,0.38033394957892597,colour,0.06
009,62,1,1,15,38,738,1119.19935677154,1119.9104462035466,"[85, 0, 169]",169,l,0.18791713169775903,colour,0.06
009,62,1,1,15,39,739,1120.415171169443,1121.262530001346,"[55, 0, 199]",199,a,0.32442638371139765,colour,0.06
009,62,1,1,15,40,740,1121.7770747197792,1122.550512275193,"[89, 0, 165]",165,l,0.25061538396403193,colour,0.06
009,62,1,1,15,41,741,1123.058313569054,1123.7904650766868,"[92, 0, 162]",162,l,0.22144205798394978,colour,0.06
009,62,1,1,15,42,742,1124.311738253571,1125.1664895676076,"[65, 0, 189]",189,a,0.3315317523665726,colour,0.06
009,62,1,1,15,43,743,1125.686745441053,1126.5184528485406,"[79, 0, 175]",175,l,0.30804595071822405,colour,0.06
009,62,1,1,15,44,744,1127.0336698614992,1127.8704724493437,"[94, 0, 160]",160,l,0.31357790622860193,colour,0.06
009,62,1,1,15,45,745,1128.3773375721648,1129.1824745794293,"[87, 0, 167]",167,l,0.2815673165023327,colour,0.06
009,62,1,1,15,46,746,1129.6898981751874,1130.5744273683522,"[50, 0, 204]",204,a,0.3612930898088962,colour,0.06
009,62,1,1,15,47,747,1131.0939707751386,1131.9984324944671,"[70, 0, 184]",184,a,0.38120395434089005,colour,0.06
009,62,1,1,15,48,748,1132.5092845165636,1133.3506312952377,"[54, 0, 200]",200,a,0.3179287186358124,colour,0.06
009,62,1,1,15,49,749,1133.8636100834701,1134.7263765495736,"[90, 0, 164]",164,a,0.3393740060273558,colour,0.06
009,62,1,1,15,50,750,1135.238968581427,1136.2225030779373,"[82, 0, 172]",172,l,0.45801133173517883,colour,0.06
009,62,1,1,16,1,751,1141.2893437980674,1142.4544667212758,"[84, 0, 170]",170,l,0.6398423672653735,colour,0.06
009,62,1,1,16,2,752,1142.9682910961565,1143.702446096344,"[75, 0, 179]",179,l,0.21101538906805217,colour,0.06
009,62,1,1,16,3,753,1144.2184598590247,1144.8544216654263,"[57, 0, 197]",197,a,0.112569346325472,colour,0.06
009,62,1,1,16,4,754,1145.3769508157857,1146.3024675217457,"[59, 0, 195]",195,a,0.41024494846351445,colour,0.06
009,62,1,1,16,5,755,1146.8220534638967,1147.7024382194504,"[15, 0, 239]",239,a,0.3663047750014812,colour,0.06
009,62,1,1,16,6,756,1148.219640214229,1149.1263909642585,"[90, 0, 164]",164,l,0.38156117242760956,colour,0.06
009,62,1,1,16,7,757,1149.643743014196,1150.5263982899487,"[53, 0, 201]",201,a,0.35959285823628306,colour,0.06
009,62,1,1,16,8,758,1151.0345827955753,1151.9425367438234,"[67, 0, 187]",187,a,0.38441379624418914,colour,0.06
009,62,1,1,16,9,759,1152.4564461894333,1153.3584743367974,"[91, 0, 163]",163,l,0.378497053636238,colour,0.06
009,62,1,1,16,10,760,1153.8798680303153,1154.7745690739248,"[56, 0, 198]",198,a,0.37130228197202086,colour,0.06
009,62,1,1,16,11,761,1155.2864529713988,1156.2304477316793,"[9, 0, 245]",245,a,0.42140968376770616,colour,0.06
009,62,1,1,16,12,762,1156.7396160636563,1157.6226647910662,"[88, 0, 166]",166,l,0.359623184427619,colour,0.06
009,62,1,1,16,13,763,1158.1328283709008,1158.9983789315447,"[94, 0, 160]",160,l,0.34231209428980947,colour,0.06
009,62,1,1,16,14,764,1159.5078761246987,1160.5024233320728,"[60, 0, 194]",194,a,0.471136630512774,colour,0.06
009,62,1,1,16,15,765,1161.0237276228145,1161.9104020928498,"[66, 0, 188]",188,a,0.3632804346270859,colour,0.06
009,62,1,1,16,16,766,1162.4300427795388,1163.3425228018314,"[73, 0, 181]",181,a,0.38918996206484735,colour,0.06
009,62,1,1,16,17,767,1163.8521294838283,1164.5983680614736,"[81, 0, 173]",173,l,0.22304697870276868,colour,0.06
009,62,1,1,16,18,768,1165.117839394603,1166.0624438279774,"[55, 0, 199]",199,a,0.4212950747460127,colour,0.06
009,62,1,1,16,19,769,1166.5713447385933,1167.390377800446,"[98, 0, 156]",156,l,0.29555041110143065,colour,0.06
009,62,1,1,16,20,770,1167.9124894745182,1168.7663652698975,"[35, 0, 219]",219,a,0.32720063207671046,colour,0.06
009,62,1,1,16,21,771,1169.2753374667373,1170.206421574112,"[50, 0, 204]",204,a,0.4080799790099263,colour,0.06
009,62,1,1,16,22,772,1170.712962955702,1171.5024036399554,"[93, 0, 161]",161,l,0.2660931225400418,colour,0.06
009,62,1,1,16,23,773,1172.009962718701,1172.830384086119,"[52, 0, 202]",202,a,0.29714863654226065,colour,0.06
009,62,1,1,16,24,774,1173.3381326047238,1173.9983576638624,"[85, 0, 169]",169,l,0.13680109148845077,colour,0.06
009,62,1,1,16,25,775,1174.5101139554754,1175.2704262118787,"[74, 0, 180]",180,a,0.23699305159971118,colour,0.06
009,62,1,1,16,26,776,1175.7772669163533,1176.550344890682,"[83, 0, 171]",171,l,0.24978279415518045,colour,0.06
009,62,1,1,16,27,777,1177.0585416054819,1177.8703507510945,"[70, 0, 184]",184,a,0.2884115653578192,colour,0.06
009,62,1,1,16,28,778,1178.3868465807755,1179.3263597716577,"[69, 0, 185]",185,a,0.41628102608956397,colour,0.06
009,62,1,1,16,29,779,1179.8398966393434,1180.6783447142225,"[99, 0, 155]",155,l,0.3154470974113792,colour,0.06
009,62,1,1,16,30,780,1181.199558814289,1181.950332524022,"[87, 0, 167]",167,l,0.22614299901761115,colour,0.06
009,62,1,1,16,31,781,1182.4666574245784,1183.1903211653698,"[82, 0, 172]",172,l,0.2008313292171806,colour,0.06
009,62,1,1,16,32,782,1183.7012106026523,1184.5583324735053,"[64, 0, 190]",190,a,0.3339842287823558,colour,0.06
009,62,1,1,16,33,783,1185.076225273544,1185.902356220875,"[76, 0, 178]",178,a,0.30275699798949063,colour,0.06
009,62,1,1,16,34,784,1186.4201533163432,1187.3023777247872,"[61, 0, 193]",193,a,0.3571210829541087,colour,0.06
009,62,1,1,16,35,785,1187.8126114092302,1188.646354210563,"[65, 0, 189]",189,a,0.3105417503975332,colour,0.06
009,62,1,1,16,36,786,1189.1564228737261,1189.9983486053534,"[62, 0, 192]",192,a,0.3185470560565591,colour,0.06
009,62,1,1,16,37,787,1190.515951534966,1191.3823579223827,"[68, 0, 186]",186,a,0.344501088373363,colour,0.06
009,62,1,1,16,38,788,1191.8895975924097,1192.5903714201413,"[72, 0, 182]",182,a,0.17509863851591945,colour,0.06
009,62,1,1,16,39,789,1193.1107738043647,1193.7823171985801,"[92, 0, 162]",162,l,0.1481737771537155,colour,0.06
009,62,1,1,16,40,790,1194.2983801919036,1195.0783540089615,"[63, 0, 191]",191,a,0.25667351693846285,colour,0.06
009,62,1,1,16,41,791,1195.5953492347617,1196.4543233616278,"[78, 0, 176]",176,a,0.33562971581704915,colour,0.06
009,62,1,1,16,42,792,1196.9704749700613,1197.8223114327993,"[89, 0, 165]",165,l,0.32850662409327924,colour,0.06
009,62,1,1,16,43,793,1198.3307479994837,1199.0943106638733,"[86, 0, 168]",168,l,0.24029544717632234,colour,0.06
009,62,1,1,16,44,794,1199.612113273237,1200.2463575189468,"[95, 0, 159]",159,l,0.11087699164636433,colour,0.06
009,62,1,1,16,45,795,1200.7527165501378,1201.4543556568678,"[80, 0, 174]",174,l,0.17825373588129878,colour,0.06
009,62,1,1,16,46,796,1201.9716726546176,1202.6703287744895,"[96, 0, 158]",158,l,0.1752664167433977,colour,0.06
009,62,1,1,16,47,797,1203.1905306912959,1203.9423839319497,"[97, 0, 157]",157,l,0.22853009728714824,colour,0.06
009,62,1,1,16,48,798,1204.4562602941878,1205.3103318307549,"[71, 0, 183]",183,a,0.33074327325448394,colour,0.06
009,62,1,1,16,49,799,1205.8171784428414,1206.6143451964017,"[58, 0, 196]",196,a,0.27414884069003165,colour,0.06
009,62,1,1,16,50,800,1207.1297587382142,1207.9662915419322,"[54, 0, 200]",200,a,0.3131450698710978,colour,0.06
