id,age,condition,counterbalance,block,trialinblock,trial,tstart,tend,trialstim,trialintensity,response,RT,trialtype,colourfreq
014,67,1,1,Practice,1,NA,6.301532266661525e-06,9.026720072157332,"[81, 0, 173]",173,a,8.393039957620203,colour,0.5
014,67,1,1,Practice,2,NA,9.547437344066566,10.194746097477037,"[92, 0, 162]",162,a,0.12977493682410568,colour,0.5
014,67,1,1,Practice,3,NA,10.705146579552093,12.106745987199247,"[14, 0, 240]",240,a,0.8705098136415472,colour,0.5
014,67,1,1,Practice,4,NA,12.621106588456314,18.19779958370782,"[60, 0, 194]",194,a,5.058543597740936,colour,0.5
014,67,1,1,Practice,5,NA,18.70643209213449,19.754782173753483,"[57, 0, 197]",197,a,0.5156535968999378,colour,0.5
014,67,1,1,Practice,6,NA,20.26878870766086,27.850692282401724,"[21, 0, 233]",233,a,7.0645784964144696,colour,0.5
014,67,1,1,Practice,7,NA,28.368426566477865,29.17077073646942,"[3, 0, 251]",251,a,0.28392577581689693,colour,0.5
014,67,1,1,Practice,8,NA,29.676106361992424,32.11476074854727,"[24, 0, 230]",230,a,1.9153436402848456,colour,0.5
014,67,1,1,Practice,9,NA,32.61843710184621,33.58673094230471,"[15, 0, 239]",239,a,0.4451540232403204,colour,0.5
014,67,1,1,Practice,10,NA,34.10278823110275,36.06670486970688,"[84, 0, 170]",170,l,1.440774064467405,colour,0.5
014,67,1,1,1,1,1,6.207985222907155,7.120007561839884,"[99, 0, 155]",155,l,0.3879518641770119,colour,0.5
014,67,1,1,1,2,2,7.630332031665603,9.06397788162576,"[67, 0, 187]",187,a,0.9158343721064739,colour,0.5
014,67,1,1,1,3,3,9.588131851676735,10.503985128380009,"[30, 0, 224]",224,a,0.3976684330700664,colour,0.5
014,67,1,1,1,4,4,11.026641696837032,11.87995935510844,"[80, 0, 174]",174,l,0.33420727707562037,colour,0.5
014,67,1,1,1,5,5,12.389153487602016,13.079967232028139,"[94, 0, 160]",160,l,0.17326062940992415,colour,0.5
014,67,1,1,1,6,6,13.59683978157409,14.335944530757843,"[10, 0, 244]",244,a,0.22027439234079793,colour,0.5
014,67,1,1,1,7,7,14.85115820192732,16.279945176662295,"[62, 0, 192]",192,a,0.9092925939185079,colour,0.5
014,67,1,1,1,8,8,16.800067347619915,17.671954439923866,"[86, 0, 168]",168,l,0.3602235468570143,colour,0.5
014,67,1,1,1,9,9,18.187239003324066,19.103989854527754,"[2, 0, 252]",252,a,0.3983560877677519,colour,0.5
014,67,1,1,1,10,10,19.619732460574596,20.62393361335853,"[50, 0, 204]",204,a,0.4809534218366025,colour,0.5
014,67,1,1,1,11,11,21.135340371358325,22.047930635875673,"[60, 0, 194]",194,a,0.3891046507196734,colour,0.5
014,67,1,1,1,12,12,22.546583486444433,23.167942136176862,"[20, 0, 234]",234,a,0.09805814345600083,colour,0.5
014,67,1,1,1,13,13,23.68702731122903,24.287950879559503,"[89, 0, 165]",165,l,0.07737966535205487,colour,0.5
014,67,1,1,1,14,14,24.79670311708469,25.7039756760787,"[87, 0, 167]",167,l,0.3844072522770148,colour,0.5
014,67,1,1,1,15,15,26.218484757177066,27.943950627493905,"[11, 0, 243]",243,a,1.2020928964047926,colour,0.5
014,67,1,1,1,16,16,28.467539822726394,29.33599533686356,"[22, 0, 232]",232,a,0.33582440779719036,colour,0.5
014,67,1,1,1,17,17,29.859289541622275,30.735946106142364,"[56, 0, 198]",198,a,0.34405657200841233,colour,0.5
014,67,1,1,1,18,18,31.250720245443517,32.10396504224627,"[21, 0, 233]",233,a,0.3212643236765871,colour,0.5
014,67,1,1,1,19,19,32.625763420786825,33.487948910318664,"[19, 0, 235]",235,a,0.3448289035441121,colour,0.5
014,67,1,1,1,20,20,34.00155450923194,34.91993036806525,"[91, 0, 163]",163,l,0.3999109908618266,colour,0.5
014,67,1,1,1,21,21,35.44121359633573,36.399911778542446,"[38, 0, 216]",216,a,0.4407815475424286,colour,0.5
014,67,1,1,1,22,22,36.92205949827621,37.7439321167476,"[61, 0, 193]",193,a,0.29896595794707537,colour,0.5
014,67,1,1,1,23,23,38.30366099331877,39.19992713852844,"[4, 0, 250]",250,a,0.3723532087606145,colour,0.5
014,67,1,1,1,24,24,39.71542398481688,40.66393219551537,"[85, 0, 169]",169,l,0.41598304887884296,colour,0.5
014,67,1,1,1,25,25,41.18349628701981,42.01593027354102,"[45, 0, 209]",209,a,0.31543973863881547,colour,0.5
014,67,1,1,1,26,26,42.528524870373076,43.38393227428605,"[77, 0, 177]",177,l,0.33724619103304576,colour,0.5
014,67,1,1,1,27,27,43.90601264638826,44.73599179224402,"[9, 0, 245]",245,a,0.3110558414191473,colour,0.5
014,67,1,1,1,28,28,45.2532605506276,46.08793118727044,"[25, 0, 229]",229,a,0.31660473442752846,colour,0.5
014,67,1,1,1,29,29,46.60059195017675,47.40791590604931,"[66, 0, 188]",188,a,0.2788999100012006,colour,0.5
014,67,1,1,1,30,30,47.92178892623633,48.799910203160834,"[1, 0, 253]",253,a,0.34588480404636357,colour,0.5
014,67,1,1,1,31,31,49.31223856024735,50.151951604231726,"[98, 0, 156]",156,l,0.316360943892505,colour,0.5
014,67,1,1,1,32,32,50.67165787405975,51.63995840988355,"[31, 0, 223]",223,a,0.4450205095199635,colour,0.5
014,67,1,1,1,33,33,52.155942837227485,53.00803130285931,"[90, 0, 164]",164,l,0.338693180368864,colour,0.5
014,67,1,1,1,34,34,53.521131203800905,54.35988444564282,"[51, 0, 203]",203,a,0.3154275294218678,colour,0.5
014,67,1,1,1,35,35,54.88057020989072,55.999948800046695,"[79, 0, 175]",175,l,0.5964333327428903,colour,0.5
014,67,1,1,1,36,36,56.52110836075735,57.36790629621828,"[58, 0, 196]",196,a,0.3233505247044377,colour,0.5
014,67,1,1,1,37,37,57.87055274283921,58.7199157957657,"[0, 0, 254]",254,a,0.3313160553079797,colour,0.5
014,67,1,1,1,38,38,59.23129222764692,60.031885359378066,"[35, 0, 219]",219,a,0.2681408313801512,colour,0.5
014,67,1,1,1,39,39,60.544936817284906,61.35992658714531,"[36, 0, 218]",218,a,0.28289232453971636,colour,0.5
014,67,1,1,1,40,40,61.87368342283298,62.72798136321944,"[53, 0, 201]",201,a,0.3359319277078612,colour,0.5
014,67,1,1,1,41,41,63.25038429501001,64.0563908367767,"[12, 0, 242]",242,a,0.2883033715188503,colour,0.5
014,67,1,1,1,42,42,64.56560702463321,65.43197082390543,"[28, 0, 226]",226,a,0.33285756765690167,colour,0.5
014,67,1,1,1,43,43,65.94326533585263,66.7439238459774,"[6, 0, 248]",248,a,0.26853113251854666,colour,0.5
014,67,1,1,1,44,44,67.26419764755701,68.09598100087896,"[48, 0, 206]",206,a,0.3128029412473552,colour,0.5
014,67,1,1,1,45,45,68.61121160742186,69.41591688279004,"[54, 0, 200]",200,a,0.2861569121014327,colour,0.5
014,67,1,1,1,46,46,69.9351198177319,70.72787738793704,"[7, 0, 247]",247,a,0.2694125593552599,colour,0.5
014,67,1,1,1,47,47,71.24768054382002,72.01588655666274,"[16, 0, 238]",238,a,0.244974429559079,colour,0.5
014,67,1,1,1,48,48,72.5288537315937,73.36786888085771,"[83, 0, 171]",171,l,0.3269223119423259,colour,0.5
014,67,1,1,1,49,49,73.87712090868445,74.71987641119631,"[97, 0, 157]",157,l,0.31939316244097427,colour,0.5
014,67,1,1,1,50,50,75.23099644947797,76.04786840824818,"[39, 0, 215]",215,a,0.2933910711144563,colour,0.5
014,67,1,1,2,1,51,81.88553384809347,82.83990327148058,"[25, 0, 229]",229,a,0.4351018977467902,colour,0.5
014,67,1,1,2,2,52,83.35678409178217,84.19193718947645,"[24, 0, 230]",230,a,0.3158926612813957,colour,0.5
014,67,1,1,2,3,53,84.70395440841094,85.49594713014085,"[79, 0, 175]",175,l,0.2731111649336526,colour,0.5
014,67,1,1,2,4,54,86.00545358231466,86.90390714691603,"[51, 0, 203]",203,a,0.36706740473164245,colour,0.5
014,67,1,1,2,5,55,87.41652458680619,88.25595681874256,"[87, 0, 167]",167,l,0.31998708184983116,colour,0.5
014,67,1,1,2,6,56,88.7656219907658,89.63184400556202,"[98, 0, 156]",156,l,0.34589425634476356,colour,0.5
014,67,1,1,2,7,57,90.14379978456418,90.97589466988575,"[8, 0, 246]",246,a,0.31470954859105404,colour,0.5
014,67,1,1,2,8,58,91.48842113139108,92.36788187776983,"[80, 0, 174]",174,l,0.36204390198690817,colour,0.5
014,67,1,1,2,9,59,92.88049695458903,93.73586930621241,"[44, 0, 210]",210,a,0.3375443322584033,colour,0.5
014,67,1,1,2,10,60,94.25790950605005,95.03205156228796,"[64, 0, 190]",190,a,0.25695285470283125,colour,0.5
014,67,1,1,2,11,61,95.5414437991858,96.43985837306536,"[39, 0, 215]",215,a,0.38019467797130346,colour,0.5
014,67,1,1,2,12,62,96.9643254505063,97.7999031139334,"[1, 0, 253]",253,a,0.3094363476266153,colour,0.5
014,67,1,1,2,13,63,98.31234608014347,99.13587954621471,"[37, 0, 217]",217,a,0.27654195540526416,colour,0.5
014,67,1,1,2,14,64,99.64662858177326,100.43990287762426,"[49, 0, 205]",205,a,0.2700171125907218,colour,0.5
014,67,1,1,2,15,65,100.95911644640728,101.76788463469711,"[95, 0, 159]",159,l,0.2854468081786763,colour,0.5
014,67,1,1,2,16,66,102.28719981567701,103.18387910509773,"[82, 0, 172]",172,l,0.3732909555255901,colour,0.5
014,67,1,1,2,17,67,103.69776275912591,104.46386445403914,"[5, 0, 249]",249,a,0.2426909118075855,colour,0.5
014,67,1,1,2,18,68,104.97913011285709,105.7599061071669,"[89, 0, 165]",165,l,0.2574487065139692,colour,0.5
014,67,1,1,2,19,69,106.27595394366654,107.05589459111798,"[60, 0, 194]",194,a,0.2565582212409936,colour,0.5
014,67,1,1,2,20,70,107.5728112513898,108.37588403605332,"[3, 0, 251]",251,a,0.2801235888036899,colour,0.5
014,67,1,1,2,21,71,108.88586979852698,109.63990366531652,"[30, 0, 224]",224,a,0.2335367546620546,colour,0.5
014,67,1,1,2,22,72,110.1560708370962,110.94387973524863,"[53, 0, 201]",201,a,0.27017622628773097,colour,0.5
014,67,1,1,2,23,73,111.45370402096887,112.23988476072554,"[22, 0, 232]",232,a,0.26883399991493206,colour,0.5
014,67,1,1,2,24,74,112.75225486546697,113.54389824600366,"[10, 0, 244]",244,a,0.25959713516931515,colour,0.5
014,67,1,1,2,25,75,114.06589827357675,114.91984687277,"[83, 0, 171]",171,l,0.32109733308607247,colour,0.5
014,67,1,1,2,26,76,115.44298629614059,116.20786706916988,"[40, 0, 214]",214,a,0.2466632402065443,colour,0.5
014,67,1,1,2,27,77,116.72761548050039,117.5439013967698,"[4, 0, 250]",250,a,0.28405298800498713,colour,0.5
014,67,1,1,2,28,78,118.06311929784715,118.81588537512289,"[54, 0, 200]",200,a,0.23540358360332903,colour,0.5
014,67,1,1,2,29,79,119.32601489131048,120.06387508787157,"[85, 0, 169]",169,l,0.22049967212660704,colour,0.5
014,67,1,1,2,30,80,120.57802970778721,121.39990665855294,"[46, 0, 208]",208,a,0.3042084389308002,colour,0.5
014,67,1,1,2,31,81,121.92343244461517,122.68782681813173,"[45, 0, 209]",209,a,0.23214214680774603,colour,0.5
014,67,1,1,2,32,82,123.20497545355465,123.975910817564,"[27, 0, 227]",227,a,0.2529265694320202,colour,0.5
014,67,1,1,2,33,83,124.48992680375522,125.25589459111507,"[34, 0, 220]",220,a,0.23417202789278235,colour,0.5
014,67,1,1,2,34,84,125.7725895162148,126.54383680607134,"[0, 0, 254]",254,a,0.25389818694384303,colour,0.5
014,67,1,1,2,35,85,127.05524080713803,127.83190268858743,"[94, 0, 160]",160,l,0.2592698493390344,colour,0.5
014,67,1,1,2,36,86,128.34047178784385,129.15987223642878,"[96, 0, 158]",158,l,0.30244912990019657,colour,0.5
014,67,1,1,2,37,87,129.68010074573976,130.41587828590127,"[17, 0, 237]",237,a,0.20435987263044808,colour,0.5
014,67,1,1,2,38,88,130.9275674313103,131.7118545606354,"[9, 0, 245]",245,a,0.26700537402939517,colour,0.5
014,67,1,1,2,39,89,132.2253215258388,132.96781728706264,"[84, 0, 170]",170,l,0.22535460887593217,colour,0.5
014,67,1,1,2,40,90,133.47768016967166,134.26381325408875,"[59, 0, 195]",195,a,0.2684626033587847,colour,0.5
014,67,1,1,2,41,91,134.77667448449938,135.5438214460737,"[76, 0, 178]",178,l,0.24956312657741364,colour,0.5
014,67,1,1,2,42,92,136.0607117186737,136.7438159322337,"[99, 0, 155]",155,l,0.16541758480889257,colour,0.5
014,67,1,1,2,43,93,137.26528348033025,138.07980102911824,"[36, 0, 218]",218,a,0.26724877071683295,colour,0.5
014,67,1,1,2,44,94,138.5885256974434,139.351877955065,"[19, 0, 235]",235,a,0.2459495916700689,colour,0.5
014,67,1,1,2,45,95,139.87341757693503,140.64792394050164,"[66, 0, 188]",188,a,0.2510109036229551,colour,0.5
014,67,1,1,2,46,96,141.15467465385154,141.91983938969497,"[71, 0, 183]",183,a,0.24170078356110025,colour,0.5
014,67,1,1,2,47,97,142.4359195215511,143.15184487203078,"[78, 0, 176]",176,a,0.19247242587152869,colour,0.5
014,67,1,1,2,48,98,143.66018238996912,144.27207692594675,"[50, 0, 204]",204,a,0.08845106366788968,colour,0.5
014,67,1,1,2,49,99,144.78519061149564,145.55184684124833,"[77, 0, 177]",177,a,0.24326671431481373,colour,0.5
014,67,1,1,2,50,100,146.0663657684927,146.75183226895751,"[20, 0, 234]",234,a,0.1621526034141425,colour,0.5
014,67,1,1,3,1,101,152.21552736932063,153.48784335966047,"[91, 0, 163]",163,l,0.7397553823975613,colour,0.5
014,67,1,1,3,2,102,154.0099044333183,154.78380900055345,"[27, 0, 227]",227,a,0.25553185916214716,colour,0.5
014,67,1,1,3,3,103,155.29450329155952,156.03982804693806,"[96, 0, 158]",158,l,0.2277145327097969,colour,0.5
014,67,1,1,3,4,104,156.56233101554972,157.36794607463526,"[2, 0, 252]",252,a,0.28846681751019787,colour,0.5
014,67,1,1,3,5,105,157.89213942927017,158.67982387216762,"[4, 0, 250]",250,a,0.26742442592512816,colour,0.5
014,67,1,1,3,6,106,159.20158050305326,159.95981985495018,"[52, 0, 202]",202,a,0.23283177075791173,colour,0.5
014,67,1,1,3,7,107,160.47590274372487,161.23180934714037,"[99, 0, 155]",155,l,0.2386429650359787,colour,0.5
014,67,1,1,3,8,108,161.74296680076804,162.51177972993173,"[54, 0, 200]",200,a,0.2508320976339746,colour,0.5
014,67,1,1,3,9,109,163.02611551889277,163.76784052397124,"[70, 0, 184]",184,a,0.224658289575018,colour,0.5
014,67,1,1,3,10,110,164.27903421140218,165.04787510362803,"[29, 0, 225]",225,a,0.25011254142737016,colour,0.5
014,67,1,1,3,11,111,165.56391191245348,166.34377812304592,"[67, 0, 187]",187,a,0.26212562498403713,colour,0.5
014,67,1,1,3,12,112,166.86153485633258,167.5998656985903,"[56, 0, 198]",198,a,0.20725385131663643,colour,0.5
014,67,1,1,3,13,113,168.12416421005037,168.9117935145332,"[45, 0, 209]",209,a,0.265612735398463,colour,0.5
014,67,1,1,3,14,114,169.43477736883506,170.18381727131782,"[97, 0, 157]",157,l,0.22728484698745888,colour,0.5
014,67,1,1,3,15,115,170.706389950632,171.3757958146016,"[34, 0, 220]",220,a,0.13734189554816112,colour,0.5
014,67,1,1,3,16,116,171.8947120298253,172.92781161569292,"[79, 0, 175]",175,l,0.5006579193577636,colour,0.5
014,67,1,1,3,17,117,173.43888872477692,174.15976707960363,"[23, 0, 231]",231,a,0.2031385568989208,colour,0.5
014,67,1,1,3,18,118,174.67562468860706,175.4477939713979,"[64, 0, 190]",190,a,0.2542632819531718,colour,0.5
014,67,1,1,3,19,119,175.95828740106663,176.61580069828779,"[92, 0, 162]",162,l,0.14090895664412528,colour,0.5
014,67,1,1,3,20,120,177.13295760446636,177.9118392006494,"[86, 0, 168]",168,l,0.24643599119735882,colour,0.5
014,67,1,1,3,21,121,178.42354370604153,179.199778264825,"[44, 0, 210]",210,a,0.2530285754764918,colour,0.5
014,67,1,1,3,22,122,179.71239767393854,180.599814498637,"[85, 0, 169]",169,l,0.3681158221588703,colour,0.5
014,67,1,1,3,23,123,181.11458666871476,181.8559040434193,"[30, 0, 224]",224,a,0.21789044393517543,colour,0.5
014,67,1,1,3,24,124,182.36464801018883,183.15981985494727,"[47, 0, 207]",207,a,0.27181895698595326,colour,0.5
014,67,1,1,3,25,125,183.67709018870664,184.4638010448689,"[14, 0, 240]",240,a,0.25815999196493067,colour,0.5
014,67,1,1,3,26,126,184.97911750979256,185.74378954457643,"[9, 0, 245]",245,a,0.2412616455258103,colour,0.5
014,67,1,1,3,27,127,186.26033835289127,187.0237339335581,"[98, 0, 156]",156,l,0.24009861898957752,colour,0.5
014,67,1,1,3,28,128,187.5416044882586,188.13583346625092,"[18, 0, 236]",236,a,0.07097494549816474,colour,0.5
014,67,1,1,3,29,129,188.65101838669216,189.31177342840238,"[0, 0, 254]",254,a,0.13611979212146252,colour,0.5
014,67,1,1,3,30,130,189.87617174038314,190.57585410376487,"[12, 0, 242]",242,a,0.1696376421896275,colour,0.5
014,67,1,1,3,31,131,191.09402122434403,191.75980055649416,"[82, 0, 172]",172,l,0.133458576281555,colour,0.5
014,67,1,1,3,32,132,192.28281119230087,193.11176555148268,"[78, 0, 176]",176,l,0.29638311739836354,colour,0.5
014,67,1,1,3,33,133,193.62794690171722,194.39179973730643,"[62, 0, 192]",192,a,0.24677706163492985,colour,0.5
014,67,1,1,3,34,134,194.91149222252716,195.68783075659303,"[41, 0, 213]",213,a,0.2581001274083974,colour,0.5
014,67,1,1,3,35,135,196.1968370246468,196.9757784853864,"[10, 0, 244]",244,a,0.26101694915269036,colour,0.5
014,67,1,1,3,36,136,197.49568089040986,198.2637683556677,"[38, 0, 216]",216,a,0.2500822152942419,colour,0.5
014,67,1,1,3,37,137,198.77998318278696,199.54378521227045,"[66, 0, 188]",188,a,0.2489944132976234,colour,0.5
014,67,1,1,3,38,138,200.0571659252455,200.7597493565554,"[51, 0, 203]",203,a,0.18470184890611563,colour,0.5
014,67,1,1,3,39,139,201.27788024331676,201.8877783751086,"[25, 0, 229]",229,a,0.07784755411557853,colour,0.5
014,67,1,1,3,40,140,202.40429252499598,203.11975431900646,"[6, 0, 248]",248,a,0.19775901759567205,colour,0.5
014,67,1,1,3,41,141,203.6396764163219,204.3437166831136,"[40, 0, 214]",214,a,0.17194675993232522,colour,0.5
014,67,1,1,3,42,142,204.8614210349042,205.6477656144998,"[53, 0, 201]",201,a,0.25455590935598593,colour,0.5
014,67,1,1,3,43,143,206.16031255599228,206.8958210994897,"[46, 0, 208]",208,a,0.21673883889161516,colour,0.5
014,67,1,1,3,44,144,207.4145640225761,208.1438049045537,"[95, 0, 159]",159,l,0.2109181923151482,colour,0.5
014,67,1,1,3,45,145,208.6537406486168,209.8077741215675,"[74, 0, 180]",180,a,0.6350121009018039,colour,0.5
014,67,1,1,3,46,146,210.3701846939657,211.1197854328202,"[48, 0, 206]",206,a,0.22626045414654072,colour,0.5
014,67,1,1,3,47,147,211.6357915216795,212.33572515867127,"[32, 0, 222]",222,a,0.17668866296298802,colour,0.5
014,67,1,1,3,48,148,212.8545090417174,213.6317270333675,"[60, 0, 194]",194,a,0.2538154793146532,colour,0.5
014,67,1,1,3,49,149,214.14238863518403,214.90374960860936,"[89, 0, 165]",165,l,0.23797579029633198,colour,0.5
014,67,1,1,3,50,150,215.42353582913347,216.23170970416686,"[20, 0, 234]",234,a,0.2846736889478052,colour,0.5
014,67,1,1,4,1,151,221.61927717486105,222.21577076600806,"[5, 0, 249]",249,a,0.07245344250986818,colour,0.5
014,67,1,1,4,2,152,222.72942756487464,223.51173995151476,"[87, 0, 167]",167,l,0.25895280348777305,colour,0.5
014,67,1,1,4,3,153,224.02633292175597,224.79983261555026,"[29, 0, 225]",225,a,0.24552975209371652,colour,0.5
014,67,1,1,4,4,154,225.3122834586684,226.09574311802862,"[16, 0, 238]",238,a,0.26049825426889583,colour,0.5
014,67,1,1,4,5,155,226.60915533867956,227.37577966692334,"[23, 0, 231]",231,a,0.2433234281197656,colour,0.5
014,67,1,1,4,6,156,227.8903411295032,228.65577958815265,"[36, 0, 218]",218,a,0.2419945924921194,colour,0.5
014,67,1,1,4,7,157,229.17119333297887,229.9597454180912,"[30, 0, 224]",224,a,0.26341743909870274,colour,0.5
014,67,1,1,4,8,158,230.4813803506404,231.25571105898416,"[91, 0, 163]",163,l,0.2419256694847718,colour,0.5
014,67,1,1,4,9,159,231.77825459372252,232.55178815823456,"[3, 0, 251]",251,a,0.24127582396613434,colour,0.5
014,67,1,1,4,10,160,233.06026391604973,233.86370100804197,"[63, 0, 191]",191,a,0.2863597426621709,colour,0.5
014,67,1,1,4,11,161,234.37347330611374,235.0877389905363,"[97, 0, 157]",157,l,0.1968464769597631,colour,0.5
014,67,1,1,4,12,162,235.61154992092634,236.40775403543375,"[26, 0, 228]",228,a,0.2780834677250823,colour,0.5
014,67,1,1,4,13,163,236.92707551796047,237.7117320746038,"[59, 0, 195]",195,a,0.2667040820233524,colour,0.5
014,67,1,1,4,14,164,238.22626045414654,238.99168552203628,"[7, 0, 247]",247,a,0.2433234281197656,colour,0.5
014,67,1,1,4,15,165,239.50425058043038,240.25571145283175,"[47, 0, 207]",207,a,0.2340743541426491,colour,0.5
014,67,1,1,4,16,166,240.76609657492372,241.5917154543131,"[89, 0, 165]",165,l,0.29243914590915665,colour,0.5
014,67,1,1,4,17,167,242.11087230929115,242.8877464735997,"[86, 0, 168]",168,l,0.25981493188010063,colour,0.5
014,67,1,1,4,18,168,243.40757956176822,244.3677365486801,"[74, 0, 180]",180,l,0.42879012548655737,colour,0.5
014,67,1,1,4,19,169,244.89035373256775,245.58374519753852,"[34, 0, 220]",220,a,0.17471195105463266,colour,0.5
014,67,1,1,4,20,170,246.09774936836038,246.87968799538794,"[43, 0, 211]",211,a,0.2640042692946736,colour,0.5
014,67,1,1,4,21,171,247.39697487067315,248.14374582769233,"[46, 0, 208]",208,a,0.22922099276911467,colour,0.5
014,67,1,1,4,22,172,248.6652358249994,249.39171860506758,"[93, 0, 161]",161,l,0.2088950066245161,colour,0.5
014,67,1,1,4,23,173,249.90193358578836,250.7997369110235,"[78, 0, 176]",176,l,0.3668539403297473,colour,0.5
014,67,1,1,4,24,174,251.32143170812924,252.04772110993508,"[11, 0, 243]",243,a,0.20851730853610206,colour,0.5
014,67,1,1,4,25,175,252.55779548770806,253.3197220236616,"[45, 0, 209]",209,a,0.23131270763406064,colour,0.5
014,67,1,1,4,26,176,253.8382904730679,254.6077217400889,"[25, 0, 229]",229,a,0.2522727854520781,colour,0.5
014,67,1,1,4,27,177,255.1203285461379,255.82373747816018,"[95, 0, 159]",159,l,0.18491610100318212,colour,0.5
014,67,1,1,4,28,178,256.3427206471679,257.1277233942383,"[80, 0, 174]",174,l,0.2667797003960004,colour,0.5
014,67,1,1,4,29,179,257.6430745175894,258.39978023406,"[4, 0, 250]",250,a,0.23949012727825902,colour,0.5
014,67,1,1,4,30,180,258.91153397018206,259.55968634123565,"[96, 0, 158]",158,l,0.12457262811949477,colour,0.5
014,67,1,1,4,31,181,260.0702829584916,260.80772843546583,"[62, 0, 192]",192,a,0.20822586267604493,colour,0.5
014,67,1,1,4,32,182,261.3181659390393,262.08771339055966,"[70, 0, 184]",184,a,0.23791356266883668,colour,0.5
014,67,1,1,4,33,183,262.5981390787492,263.41573886449623,"[8, 0, 246]",246,a,0.30031251661421265,colour,0.5
014,67,1,1,4,34,184,263.92454860352154,264.6560281048296,"[82, 0, 172]",172,l,0.20002441843098495,colour,0.5
014,67,1,1,4,35,185,265.1770257949247,265.9437249538605,"[84, 0, 170]",170,l,0.2463532835827209,colour,0.5
014,67,1,1,4,36,186,266.46366950038646,267.2556953051535,"[31, 0, 223]",223,a,0.2598551041446626,colour,0.5
014,67,1,1,4,37,187,267.7778308156703,268.53571176790865,"[55, 0, 199]",199,a,0.24089024896966293,colour,0.5
014,67,1,1,4,38,188,269.0462973574904,269.7596835843142,"[98, 0, 156]",156,l,0.17715458250313532,colour,0.5
014,67,1,1,4,39,189,270.2713593389635,270.91971729751094,"[13, 0, 241]",241,a,0.1199969280132791,colour,0.5
014,67,1,1,4,40,190,271.4389576477988,272.063700614206,"[77, 0, 177]",177,l,0.10748759878333658,colour,0.5
014,67,1,1,4,41,191,272.58150342744193,273.6556803390122,"[71, 0, 183]",183,l,0.5419219279428944,colour,0.5
014,67,1,1,4,42,192,274.17135008359037,274.93571925097785,"[28, 0, 226]",226,a,0.24703936291916762,colour,0.5
014,67,1,1,4,43,193,275.45473629071785,276.24771402070473,"[1, 0, 253]",253,a,0.27463652958977036,colour,0.5
014,67,1,1,4,44,194,276.76983850354736,277.5037618178321,"[68, 0, 186]",186,a,0.21633435929834377,colour,0.5
014,67,1,1,4,45,195,278.0213759789476,278.8397008347529,"[20, 0, 234]",234,a,0.30037238117074594,colour,0.5
014,67,1,1,4,46,196,279.3485113614588,280.1197082390572,"[51, 0, 203]",203,a,0.25650032590783667,colour,0.5
014,67,1,1,4,47,197,280.6285778426245,281.4077103185555,"[33, 0, 221]",221,a,0.2493031883786898,colour,0.5
014,67,1,1,4,48,198,281.92359904137265,282.6316707134247,"[94, 0, 160]",160,l,0.19114083333988674,colour,0.5
014,67,1,1,4,49,199,283.1445795991749,284.1837231421814,"[56, 0, 198]",198,a,0.5218558800261235,colour,0.5
014,67,1,1,4,50,200,284.7054364500218,285.4716681140417,"[21, 0, 233]",233,a,0.24791882050340064,colour,0.5
014,67,1,1,5,1,201,290.6711356345768,292.67168741248315,"[46, 0, 208]",208,a,1.471444803493796,colour,0.4
014,67,1,1,5,2,202,293.1890723553661,293.9356605679641,"[63, 0, 191]",191,a,0.21591412587440573,colour,0.4
014,67,1,1,5,3,203,294.45265717891743,295.13566293103213,"[76, 0, 178]",178,a,0.15077321769786067,colour,0.4
014,67,1,1,5,4,204,295.65811588123324,296.3357149186777,"[15, 0, 239]",239,a,0.15951265524199698,colour,0.4
014,67,1,1,5,5,205,296.8499038031732,297.5916410174541,"[51, 0, 203]",203,a,0.2237894658028381,colour,0.4
014,67,1,1,5,6,206,298.10285991102865,298.83169591955084,"[69, 0, 185]",185,a,0.2117834714736091,colour,0.4
014,67,1,1,5,7,207,299.35375581168046,300.10368619945075,"[83, 0, 171]",171,a,0.2312020369718084,colour,0.4
014,67,1,1,5,8,208,300.6229399404838,301.23169198109827,"[19, 0, 235]",235,a,0.09078459984448273,colour,0.4
014,67,1,1,5,9,209,301.7428640070284,302.51167575464933,"[93, 0, 161]",161,l,0.2454387737234356,colour,0.4
014,67,1,1,5,10,210,303.02399741637055,303.6236669797654,"[7, 0, 247]",247,a,0.07620364188915119,colour,0.4
014,67,1,1,5,11,211,304.1335050500784,305.05572602512257,"[73, 0, 181]",181,a,0.39890668414591346,colour,0.4
014,67,1,1,5,12,212,305.57633577715023,306.2236405920994,"[52, 0, 202]",202,a,0.12396925639768597,colour,0.4
014,67,1,1,5,13,213,306.7325180725893,307.26367028807,"[40, 0, 214]",214,a,0.007833986121113412,colour,0.4
014,67,1,1,5,14,214,307.7794849678903,308.58370108681265,"[77, 0, 177]",177,l,0.2809431818459416,colour,0.4
014,67,1,1,5,15,215,309.0919094233541,309.8876688859891,"[54, 0, 200]",200,a,0.27242311638838146,colour,0.4
014,67,1,1,5,16,216,310.4031094123202,311.6156549753505,"[37, 0, 217]",217,a,0.6946994267491391,colour,0.4
014,67,1,1,5,17,217,312.12625513722014,312.8076874755061,"[84, 0, 170]",170,l,0.15039355038607027,colour,0.4
014,67,1,1,5,18,218,313.33059886217234,314.079673029235,"[89, 0, 165]",165,l,0.21786366240121424,colour,0.4
014,67,1,1,5,19,219,314.59282019168313,315.23168646726117,"[97, 0, 157]",157,l,0.10631866454787087,colour,0.4
014,67,1,1,5,20,220,315.7517802813236,316.3996727141639,"[13, 0, 241]",241,a,0.11511796664854046,colour,0.4
014,67,1,1,5,21,221,316.91091996463365,317.50363657488197,"[3, 0, 251]",251,a,0.059983104016282596,colour,0.4
014,67,1,1,5,22,222,318.02349289994163,318.74373401231423,"[50, 0, 204]",204,a,0.1877116182440659,colour,0.4
014,67,1,1,5,23,223,319.259217467843,320.85597848026373,"[55, 0, 199]",199,a,1.080521766867605,colour,0.4
014,67,1,1,5,24,224,321.370143734006,322.46374157415994,"[2, 0, 252]",252,a,0.5702740969572915,colour,0.4
014,67,1,1,5,25,225,322.9795562539657,323.74365091086656,"[53, 0, 201]",201,a,0.24070907992427237,colour,0.4
014,67,1,1,5,26,226,324.2607381063426,325.1677322163887,"[78, 0, 176]",176,a,0.3835990807710914,colour,0.4
014,67,1,1,5,27,227,325.6775600467081,326.39166701128124,"[49, 0, 205]",205,a,0.19084544901852496,colour,0.4
014,67,1,1,5,28,228,326.911897095968,327.50364720870857,"[58, 0, 196]",196,a,0.0684401541511761,colour,0.4
014,67,1,1,5,29,229,328.0212637329096,328.63963151790085,"[47, 0, 207]",207,a,0.095805739518255,colour,0.4
014,67,1,1,5,30,230,329.1462156344933,329.783650280704,"[35, 0, 219]",219,a,0.11412901993026026,colour,0.4
014,67,1,1,5,31,231,330.2922871214396,331.5836435853271,"[24, 0, 230]",230,a,0.7590022311342182,colour,0.4
014,67,1,1,5,32,232,332.0932709481567,333.17563906397845,"[33, 0, 221]",221,a,0.5592834370036144,colour,0.4
014,67,1,1,5,33,233,333.68706905888394,334.59962663421175,"[74, 0, 180]",180,a,0.3890936230454827,colour,0.4
014,67,1,1,5,34,234,335.10894364656997,335.88767794443993,"[0, 0, 254]",254,a,0.25057609789655544,colour,0.4
014,67,1,1,5,35,235,336.39515097092954,337.1917095466197,"[60, 0, 194]",194,a,0.2732667340169428,colour,0.4
014,67,1,1,5,36,236,337.70759433097555,338.5036456333328,"[59, 0, 195]",195,a,0.27272086378070526,colour,0.4
014,67,1,1,5,37,237,339.0201003125112,339.63965042249765,"[81, 0, 173]",173,l,0.09630198517697863,colour,0.4
014,67,1,1,5,38,238,340.16068631563394,341.12765959122044,"[75, 0, 179]",179,l,0.44240340440592263,colour,0.4
014,67,1,1,5,39,239,341.64628278519376,342.3836195607437,"[61, 0, 193]",193,a,0.2202550939109642,colour,0.4
014,67,1,1,5,40,240,342.8976863530406,343.68762123065244,"[36, 0, 218]",218,a,0.2579847306042211,colour,0.4
014,67,1,1,5,41,241,344.2092715231702,345.07962694928574,"[70, 0, 184]",184,a,0.3525029883021489,colour,0.4
014,67,1,1,5,42,242,345.6016289460822,346.2636450819409,"[92, 0, 162]",162,l,0.12871627941785846,colour,0.4
014,67,1,1,5,43,243,346.77602739591384,347.4636360234872,"[23, 0, 231]",231,a,0.16950688540237024,colour,0.4
014,67,1,1,5,44,244,347.98279209078464,348.567680622582,"[25, 0, 229]",229,a,0.06669896200764924,colour,0.4
014,67,1,1,5,45,245,349.0801822718204,349.8556059021648,"[87, 0, 167]",167,l,0.24308672679762822,colour,0.4
014,67,1,1,5,46,246,350.3680433545378,351.1436146770575,"[91, 0, 163]",163,l,0.25735890968644526,colour,0.4
014,67,1,1,5,47,247,351.6574987249187,352.67161967101856,"[71, 0, 183]",183,a,0.49650284652307164,colour,0.4
014,67,1,1,5,48,248,353.1863181919325,353.93557274035993,"[72, 0, 182]",182,a,0.2185450155957369,colour,0.4
014,67,1,1,5,49,249,354.4500444061123,355.2476128023409,"[12, 0, 242]",242,a,0.2654658309184015,colour,0.4
014,67,1,1,5,50,250,355.7635322451388,356.5275827912992,"[31, 0, 223]",223,a,0.24562663814867847,colour,0.4
014,67,1,1,6,1,251,360.5833300841041,361.24762737464334,"[55, 0, 199]",199,a,0.1464483973395545,colour,0.28
014,67,1,1,6,2,252,361.76030586061825,363.73563418029516,"[29, 0, 225]",225,a,1.451996305724606,colour,0.28
014,67,1,1,6,3,253,364.2446333591215,364.9996801972302,"[15, 0, 239]",239,a,0.2316715011256747,colour,0.28
014,67,1,1,6,4,254,365.4996658218588,366.27159367720014,"[28, 0, 226]",226,a,0.24859820445999503,colour,0.28
014,67,1,1,6,5,255,366.78097173565766,367.52761036049924,"[80, 0, 174]",174,l,0.22331251857394818,colour,0.28
014,67,1,1,6,6,256,368.04653130187944,368.8155919600249,"[88, 0, 166]",166,l,0.24568965347134508,colour,0.28
014,67,1,1,6,7,257,369.3278679356299,370.32760878512636,"[70, 0, 184]",184,a,0.47638953709974885,colour,0.28
014,67,1,1,6,8,258,370.8437192431011,371.62359805675806,"[58, 0, 196]",196,a,0.2486163213616237,colour,0.28
014,67,1,1,6,9,259,372.1309096064797,372.83967681016657,"[90, 0, 164]",164,l,0.18628629043814726,colour,0.28
014,67,1,1,6,10,260,373.3488796072488,374.1676290287869,"[8, 0, 246]",246,a,0.29556313052307814,colour,0.28
014,67,1,1,6,11,261,374.67686845353455,375.4796127708396,"[85, 0, 169]",169,l,0.2793421988026239,colour,0.28
014,67,1,1,6,12,262,375.995328595367,376.807597284831,"[62, 0, 192]",192,a,0.2889575493463781,colour,0.28
014,67,1,1,6,13,263,377.32342614309164,378.1355806172651,"[12, 0, 242]",242,a,0.2887590510654263,colour,0.28
014,67,1,1,6,14,264,378.6516367245349,379.4235787583166,"[56, 0, 198]",198,a,0.24877701043442357,colour,0.28
014,67,1,1,6,15,265,379.9328894691571,380.76760815497255,"[84, 0, 170]",170,l,0.3114878902269993,colour,0.28
014,67,1,1,6,16,266,381.28945300730993,382.23961812714697,"[66, 0, 188]",188,a,0.4231392264482565,colour,0.28
014,67,1,1,6,17,267,382.75130451563746,383.54358710785164,"[37, 0, 217]",217,a,0.259764913469553,colour,0.28
014,67,1,1,6,18,268,384.0636911619076,385.45573862819583,"[82, 0, 172]",172,l,0.8746928495384054,colour,0.28
014,67,1,1,6,19,269,385.97142412659014,386.7355845557322,"[59, 0, 195]",195,a,0.24694011377869174,colour,0.28
014,67,1,1,6,20,270,387.2544235771784,388.0715940710361,"[99, 0, 155]",155,l,0.29844214305921923,colour,0.28
014,67,1,1,6,21,271,388.5855171096482,389.3276150866586,"[53, 0, 201]",201,a,0.2095810859609628,colour,0.28
014,67,1,1,6,22,272,389.85143940780836,390.69558754895115,"[2, 0, 252]",252,a,0.32291414358769543,colour,0.28
014,67,1,1,6,23,273,391.20813803505735,392.23157461505616,"[76, 0, 178]",178,l,0.4967588462604908,colour,0.28
014,67,1,1,6,24,274,392.74687926461047,393.5355841618875,"[87, 0, 167]",167,l,0.2569197716511553,colour,0.28
014,67,1,1,6,25,275,394.0449531618942,394.85558069603576,"[92, 0, 162]",162,l,0.2785773503128439,colour,0.28
014,67,1,1,6,26,276,395.3736729859229,396.4476293438638,"[89, 0, 165]",165,l,0.555586800648598,colour,0.28
014,67,1,1,6,27,277,396.96762863494223,397.7596095413028,"[36, 0, 218]",218,a,0.27384056730079465,colour,0.28
014,67,1,1,6,28,278,398.28232991277764,399.03155649815744,"[30, 0, 224]",224,a,0.21613428565615322,colour,0.28
014,67,1,1,6,29,279,399.54907456091314,400.26367186346033,"[91, 0, 163]",163,l,0.1820485099888174,colour,0.28
014,67,1,1,6,30,280,400.77440553905035,401.59958331118105,"[6, 0, 248]",248,a,0.3074245834577596,colour,0.28
014,67,1,1,6,31,281,402.1234131461679,402.8715598064591,"[52, 0, 202]",202,a,0.23040449929249007,colour,0.28
014,67,1,1,6,32,282,403.3911443779507,404.05578155738476,"[27, 0, 227]",227,a,0.13226325438881759,colour,0.28
014,67,1,1,6,33,283,404.5799311951414,405.29555210283434,"[98, 0, 156]",156,l,0.18377552366291638,colour,0.28
014,67,1,1,6,34,284,405.8129740672157,406.5595906367089,"[67, 0, 187]",187,a,0.22862549796991516,colour,0.28
014,67,1,1,6,35,285,407.08152095357946,407.8795430601458,"[78, 0, 176]",176,a,0.2803780131798703,colour,0.28
014,67,1,1,6,36,286,408.3964872896031,409.1436233416607,"[45, 0, 209]",209,a,0.2288094239484053,colour,0.28
014,67,1,1,6,37,287,409.66341940831626,410.3995648004202,"[65, 0, 189]",189,a,0.21890026445908006,colour,0.28
014,67,1,1,6,38,288,410.91401756157575,411.68585522622743,"[50, 0, 204]",204,a,0.25369653789675795,colour,0.28
014,67,1,1,6,39,289,412.19889486877946,412.7915583098511,"[95, 0, 159]",159,l,0.06930307022412308,colour,0.28
014,67,1,1,6,40,290,413.30825284110324,413.9835703300196,"[68, 0, 186]",186,a,0.151993351886631,colour,0.28
014,67,1,1,6,41,291,414.4957328780438,415.1355498972989,"[64, 0, 190]",190,a,0.11650272835686337,colour,0.28
014,67,1,1,6,42,292,415.65206956103793,416.3435760801658,"[23, 0, 231]",231,a,0.17938886952470057,colour,0.28
014,67,1,1,6,43,293,416.85963139974046,417.4558406342403,"[97, 0, 157]",157,l,0.07294259894115385,colour,0.28
014,67,1,1,6,44,294,417.96895983364084,418.77558392556966,"[5, 0, 249]",249,a,0.28332988717011176,colour,0.28
014,67,1,1,6,45,295,419.2971515104873,420.0635836420115,"[54, 0, 200]",200,a,0.243207243620418,colour,0.28
014,67,1,1,6,46,296,420.578362113607,421.2715546864638,"[86, 0, 168]",168,l,0.17879495010129176,colour,0.28
014,67,1,1,6,47,297,421.78067950210243,422.55153294617776,"[96, 0, 158]",158,l,0.25365991024591494,colour,0.28
014,67,1,1,6,48,298,423.0714258989028,423.8315312920313,"[63, 0, 191]",191,a,0.23678480071248487,colour,0.28
014,67,1,1,6,49,299,424.35256127746834,425.13556131883524,"[79, 0, 175]",175,a,0.25966960279038176,colour,0.28
014,67,1,1,6,50,300,425.64950208048685,426.32756979439,"[72, 0, 182]",182,a,0.16428724747675005,colour,0.28
014,67,1,1,7,1,301,430.43603097990854,431.2075551433227,"[85, 0, 169]",169,l,0.2473252949421294,colour,0.14
014,67,1,1,7,2,302,431.73051182225754,433.2555992067937,"[43, 0, 211]",211,a,0.9968527784803882,colour,0.14
014,67,1,1,7,3,303,433.7698581958248,434.5995951265504,"[79, 0, 175]",175,a,0.2984972814738285,colour,0.14
014,67,1,1,7,4,304,435.11285689810757,435.87155389877444,"[58, 0, 196]",196,a,0.24129551625810564,colour,0.14
014,67,1,1,7,5,305,436.3948177774,437.16753608119325,"[64, 0, 190]",190,a,0.2542959711572621,colour,0.14
014,67,1,1,7,6,306,437.68001055506465,438.38351794853224,"[63, 0, 191]",191,a,0.18534263597393874,colour,0.14
014,67,1,1,7,7,307,438.90165592452104,439.7116103762528,"[84, 0, 170]",170,a,0.2922808199073188,colour,0.14
014,67,1,1,7,8,308,440.23137060295267,440.83156161814986,"[66, 0, 188]",188,a,0.07273464837635402,colour,0.14
014,67,1,1,7,9,309,441.34381081225,441.9035507164954,"[67, 0, 187]",187,a,0.04204658012895379,colour,0.14
014,67,1,1,7,10,310,442.4638274325407,443.0475647531712,"[52, 0, 202]",202,a,0.052427960690693,colour,0.14
014,67,1,1,7,11,311,443.5577454692975,444.2635934881546,"[71, 0, 183]",183,a,0.18769074443844147,colour,0.14
014,67,1,1,7,12,312,444.7793947772152,445.45555273299397,"[56, 0, 198]",198,a,0.1441881164937513,colour,0.14
014,67,1,1,7,13,313,445.9691551811411,446.5755874701863,"[93, 0, 161]",161,l,0.07446166206500493,colour,0.14
014,67,1,1,7,14,314,447.09662769563147,447.7435418155801,"[74, 0, 180]",180,a,0.12891674690763466,colour,0.14
014,67,1,1,7,15,315,448.25632979068905,449.023589392149,"[96, 0, 158]",158,l,0.2490720009081997,colour,0.14
014,67,1,1,7,16,316,449.54052850163134,450.20748464493954,"[48, 0, 206]",206,a,0.13460348593071103,colour,0.14
014,67,1,1,7,17,317,450.72869934405026,451.5515550015407,"[61, 0, 193]",193,a,0.3088944158516824,colour,0.14
014,67,1,1,7,18,318,452.070680348872,452.84756475315953,"[99, 0, 155]",155,l,0.2589319296675967,colour,0.14
014,67,1,1,7,19,319,453.36247398155683,454.1275418313453,"[70, 0, 184]",184,a,0.2418232695927145,colour,0.14
014,67,1,1,7,20,320,454.64375232615566,455.3835340962105,"[91, 0, 163]",163,a,0.21651631605345756,colour,0.14
014,67,1,1,7,21,321,455.89368842467957,456.64750291938253,"[62, 0, 192]",192,a,0.24052476009819657,colour,0.14
014,67,1,1,7,22,322,457.1650245267374,457.87151412035746,"[51, 0, 203]",203,a,0.1831311919959262,colour,0.14
014,67,1,1,7,23,323,458.3837223544833,459.04750488861464,"[21, 0, 233]",233,a,0.1405454370105872,colour,0.14
014,67,1,1,7,24,324,459.55566360057855,460.351524675425,"[89, 0, 165]",165,l,0.2725790793192573,colour,0.14
014,67,1,1,7,25,325,460.8681463452085,461.5435103079217,"[57, 0, 197]",197,a,0.16128456735168584,colour,0.14
014,67,1,1,7,26,326,462.0543877372111,462.8715775295277,"[53, 0, 201]",201,a,0.29791754051984753,colour,0.14
014,67,1,1,7,27,327,463.38480306726706,464.1435812001582,"[69, 0, 185]",185,a,0.22679687206982635,colour,0.14
014,67,1,1,7,28,328,464.6655536585313,465.4155324893218,"[75, 0, 179]",179,a,0.21753322581935208,colour,0.14
014,67,1,1,7,29,329,465.9309143326391,466.90351211962115,"[98, 0, 156]",156,l,0.44068899378180504,colour,0.14
014,67,1,1,7,30,330,467.4145955302374,468.1835340962134,"[90, 0, 164]",164,l,0.2512763556733262,colour,0.14
014,67,1,1,7,31,331,468.6980349065416,469.65552910225233,"[82, 0, 172]",172,a,0.4401269758818671,colour,0.14
014,67,1,1,7,32,332,470.1672040692065,471.22351928761054,"[92, 0, 162]",162,l,0.5243922467489028,colour,0.14
014,67,1,1,7,33,333,471.74138787308766,472.5514868662285,"[55, 0, 199]",199,a,0.27840130127151497,colour,0.14
014,67,1,1,7,34,334,473.06004178703006,473.8235106229986,"[77, 0, 177]",177,a,0.24015730198880192,colour,0.14
014,67,1,1,7,35,335,474.34128665472963,475.0795162786235,"[60, 0, 194]",194,a,0.21491730223351624,colour,0.14
014,67,1,1,7,36,336,475.5912782855012,476.3275788528408,"[73, 0, 181]",181,a,0.21304811022127979,colour,0.14
014,67,1,1,7,37,337,476.84678612009156,477.63947673651273,"[59, 0, 195]",195,a,0.2693865655310219,colour,0.14
014,67,1,1,7,38,338,478.1592995846877,478.80747282956145,"[26, 0, 228]",228,a,0.12479790789075196,colour,0.14
014,67,1,1,7,39,339,479.31555513545754,480.1595319536864,"[88, 0, 166]",166,l,0.3207318442000542,colour,0.14
014,67,1,1,7,40,340,480.674900406244,481.83946885960177,"[72, 0, 182]",182,a,0.6414302115153987,colour,0.14
014,67,1,1,7,41,341,482.35804873052984,483.13550421119726,"[28, 0, 226]",226,a,0.25898234192573,colour,0.14
014,67,1,1,7,42,342,483.6500109292101,484.8074937033816,"[81, 0, 173]",173,a,0.6342307109007379,colour,0.14
014,67,1,1,7,43,343,485.32182988619024,485.93552469117276,"[49, 0, 205]",205,a,0.09022730808646884,colour,0.14
014,67,1,1,7,44,344,486.4469818614307,486.99949745279446,"[95, 0, 159]",159,l,0.02403719478752464,colour,0.14
014,67,1,1,7,45,345,487.51463393020094,488.18347580703266,"[18, 0, 236]",236,a,0.14626486520865,colour,0.14
014,67,1,1,7,46,346,488.7020797025616,489.43950509341084,"[50, 0, 204]",204,a,0.21403823848231696,colour,0.14
014,67,1,1,7,47,347,489.95206581949606,490.9674990596832,"[83, 0, 171]",171,a,0.49205435859039426,colour,0.14
014,67,1,1,7,48,348,491.48339172096166,492.1754905841226,"[65, 0, 189]",189,a,0.17064116121036932,colour,0.14
014,67,1,1,7,49,349,492.6976891099621,493.46353716820886,"[54, 0, 200]",200,a,0.2345446059916867,colour,0.14
014,67,1,1,7,50,350,493.9791927343322,494.99963175421,"[76, 0, 178]",178,a,0.48863617119786795,colour,0.14
014,67,1,1,8,1,351,500.4625533414801,502.31948453465884,"[55, 0, 199]",199,a,1.337905882683117,colour,0.06
014,67,1,1,8,2,352,502.83465291357425,503.63144858441956,"[60, 0, 194]",194,a,0.2646210317616351,colour,0.06
014,67,1,1,8,3,353,504.14697418143624,504.9674388012936,"[99, 0, 155]",155,l,0.3035802549420623,colour,0.06
014,67,1,1,8,4,354,505.48981180079863,506.27952139862464,"[58, 0, 196]",196,a,0.2575574079528451,colour,0.06
014,67,1,1,8,5,355,506.800308775084,507.57544726110063,"[65, 0, 189]",189,a,0.2565881535119843,colour,0.06
014,67,1,1,8,6,356,508.0844795229641,508.86345958059246,"[73, 0, 181]",181,a,0.26094448153162375,colour,0.06
014,67,1,1,8,7,357,509.3837704036705,510.2394814626605,"[87, 0, 167]",167,l,0.33825995001825504,colour,0.06
014,67,1,1,8,8,358,510.7590699725988,511.5754586826224,"[75, 0, 179]",179,a,0.2984448999923188,colour,0.06
014,67,1,1,8,9,359,512.0841152156354,513.0714869449876,"[64, 0, 190]",190,a,0.47044955524324905,colour,0.06
014,67,1,1,8,10,360,513.5893189028284,514.3355034234992,"[97, 0, 157]",157,l,0.22283360213623382,colour,0.06
014,67,1,1,8,11,361,514.8549194289953,515.7034829750337,"[51, 0, 203]",203,a,0.32520593210938387,colour,0.06
014,67,1,1,8,12,362,516.2142434321286,516.975455925698,"[98, 0, 156]",156,l,0.2379612180084223,colour,0.06
014,67,1,1,8,13,363,517.4857563709375,518.3594571229914,"[94, 0, 160]",160,l,0.35026830743299797,colour,0.06
014,67,1,1,8,14,364,518.8764257708972,519.7034491042868,"[76, 0, 178]",178,a,0.3036885625188006,colour,0.06
014,67,1,1,8,15,365,520.2201263063325,520.9834470562928,"[50, 0, 204]",204,a,0.23994698835304007,colour,0.06
014,67,1,1,8,16,366,521.5013412417466,522.279485952502,"[42, 0, 212]",212,a,0.2648128346481826,colour,0.06
014,67,1,1,8,17,367,522.7944554393034,523.5994289236405,"[72, 0, 182]",182,a,0.28492929483763874,colour,0.06
014,67,1,1,8,18,368,524.1193620486301,524.9594354614819,"[93, 0, 161]",161,l,0.3165685006097192,colour,0.06
014,67,1,1,8,19,369,525.4787880578078,526.2474808640109,"[56, 0, 198]",198,a,0.24532573997566942,colour,0.06
014,67,1,1,8,20,370,526.7600900331454,527.5674900012382,"[91, 0, 163]",163,l,0.278424932010239,colour,0.06
014,67,1,1,8,21,371,528.0782272214419,529.2794603525253,"[81, 0, 173]",173,l,0.6779172648239182,colour,0.06
014,67,1,1,8,22,372,529.7969654183689,530.5595181690878,"[86, 0, 168]",168,l,0.23924082290614024,colour,0.06
014,67,1,1,8,23,373,531.0782209199097,531.8714239296678,"[69, 0, 185]",185,a,0.26994858343095984,colour,0.06
014,67,1,1,8,24,374,532.3895674194937,533.1674659766431,"[28, 0, 226]",226,a,0.26061246954486705,colour,0.06
014,67,1,1,8,25,375,533.6835713146284,534.399489182033,"[0, 0, 254]",254,a,0.1843241508177016,colour,0.06
014,67,1,1,8,26,376,534.9182852742961,535.7434157849348,"[89, 0, 165]",165,l,0.2935490032687085,colour,0.06
014,67,1,1,8,27,377,536.2624820554047,537.0474091840879,"[66, 0, 188]",188,a,0.26686477108160034,colour,0.06
014,67,1,1,8,28,378,537.5618418591039,538.7274114683969,"[79, 0, 175]",175,a,0.6331271550734527,colour,0.06
014,67,1,1,8,29,379,539.2480090111931,540.0474028825556,"[92, 0, 162]",162,l,0.28186911324155517,colour,0.06
014,67,1,1,8,30,380,540.5620781665639,541.3914559099503,"[71, 0, 183]",183,a,0.2978017498535337,colour,0.06
014,67,1,1,8,31,381,541.90849151164,542.7594811475865,"[90, 0, 164]",164,l,0.3356373310671188,colour,0.06
014,67,1,1,8,32,382,543.2685807570815,544.0634288606234,"[54, 0, 200]",200,a,0.2714664650266059,colour,0.06
014,67,1,1,8,33,383,544.5811135201366,545.391526802181,"[53, 0, 201]",201,a,0.2870288866106421,colour,0.06
014,67,1,1,8,34,384,545.9091933447926,546.7194632669853,"[83, 0, 171]",171,l,0.28723998794157524,colour,0.06
014,67,1,1,8,35,385,547.2262576972134,548.0314221967565,"[52, 0, 202]",202,a,0.2817698641156312,colour,0.06
014,67,1,1,8,36,386,548.5388369340653,549.3994655512943,"[84, 0, 170]",170,l,0.33725997562578414,colour,0.06
014,67,1,1,8,37,387,549.9137469895359,550.7274843298655,"[74, 0, 180]",180,a,0.2903891786991153,colour,0.06
014,67,1,1,8,38,388,551.2418874664436,552.0634154698637,"[77, 0, 177]",177,a,0.2982341925089713,colour,0.06
014,67,1,1,8,39,389,552.5849543040385,553.4314403136523,"[68, 0, 186]",186,a,0.26985642351792194,colour,0.06
014,67,1,1,8,40,390,553.9481533556682,554.7834395732207,"[82, 0, 172]",172,a,0.3178981239179848,colour,0.06
014,67,1,1,8,41,391,555.3068928916764,555.9354478912428,"[70, 0, 184]",184,a,0.11130475194659084,colour,0.06
014,67,1,1,8,42,392,556.4501531075366,557.1434181480145,"[78, 0, 176]",176,a,0.1613026842533145,colour,0.06
014,67,1,1,8,43,393,557.6542723404127,558.4395070626342,"[85, 0, 169]",169,a,0.25350434116262477,colour,0.06
014,67,1,1,8,44,394,558.9515979307325,559.5354250481905,"[63, 0, 191]",191,a,0.06577145523624495,colour,0.06
014,67,1,1,8,45,395,560.0504524303251,560.7594244337961,"[96, 0, 158]",158,l,0.1905933877278585,colour,0.06
014,67,1,1,8,46,396,561.2710564715671,562.0394653149851,"[62, 0, 192]",192,a,0.23940860119182616,colour,0.06
014,67,1,1,8,47,397,562.5496936864511,563.7593803230702,"[80, 0, 174]",174,a,0.6923083891160786,colour,0.06
014,67,1,1,8,48,398,564.2687938276504,565.0314757597807,"[67, 0, 187]",187,a,0.23933298281917814,colour,0.06
014,67,1,1,8,49,399,565.5500780799193,566.207397605016,"[95, 0, 159]",159,l,0.13425414472294506,colour,0.06
014,67,1,1,8,50,400,566.7217247293738,567.47940560797,"[61, 0, 193]",193,a,0.23421062478155363,colour,0.06
014,67,1,1,9,1,401,573.316074618022,574.2554038592934,"[85, 0, 169]",169,l,0.40679068870667834,colour,0.06
014,67,1,1,9,2,402,574.7682146774459,575.5834139732469,"[67, 0, 187]",187,a,0.285435386642348,colour,0.06
014,67,1,1,9,3,403,576.0939081906108,576.9274165883835,"[89, 0, 165]",165,l,0.30200290263746865,colour,0.06
014,67,1,1,9,4,404,577.436075878315,578.2554204008193,"[72, 0, 182]",182,a,0.30136723558825906,colour,0.06
014,67,1,1,9,5,405,578.7654609078454,579.543429569545,"[79, 0, 175]",175,a,0.2452209770126501,colour,0.06
014,67,1,1,9,6,406,580.0637856848916,580.8554290654138,"[75, 0, 179]",179,a,0.27407254245190416,colour,0.06
014,67,1,1,9,7,407,581.3761975372763,582.039452318073,"[66, 0, 188]",188,a,0.13539117746404372,colour,0.06
014,67,1,1,9,8,408,582.5476815284346,583.3354100820579,"[63, 0, 191]",191,a,0.25644912595453206,colour,0.06
014,67,1,1,9,9,409,583.8481232264603,584.5674399828276,"[37, 0, 217]",217,a,0.19590242864796892,colour,0.06
014,67,1,1,9,10,410,585.0825646448502,585.8793532264826,"[65, 0, 189]",189,a,0.2735168260842329,colour,0.06
014,67,1,1,9,11,411,586.3949690141744,587.5913834423263,"[87, 0, 167]",167,a,0.6730587834463222,colour,0.06
014,67,1,1,9,12,412,588.1029670370772,588.9114016380045,"[60, 0, 194]",194,a,0.28509471006691456,colour,0.06
014,67,1,1,9,13,413,589.431122873968,590.7274031976267,"[91, 0, 163]",163,l,0.7733023770560976,colour,0.06
014,67,1,1,9,14,414,591.2435617048031,591.9753543135012,"[52, 0, 202]",202,a,0.20843893323035445,colour,0.06
014,67,1,1,9,15,415,592.4838840281736,593.2394086011918,"[51, 0, 203]",203,a,0.2370045666320948,colour,0.06
014,67,1,1,9,16,416,593.7503974888386,595.1273878376523,"[81, 0, 173]",173,l,0.8537859408970689,colour,0.06
014,67,1,1,9,17,417,595.6409044274187,596.4154021263676,"[20, 0, 234]",234,a,0.25149572775990237,colour,0.06
014,67,1,1,9,18,418,596.9222119165934,597.7273460899887,"[68, 0, 186]",186,a,0.28179743330110796,colour,0.06
014,67,1,1,9,19,419,598.2418685618468,598.8714266865863,"[98, 0, 156]",156,l,0.10630606148333754,colour,0.06
014,67,1,1,9,20,420,599.3825108849123,600.1674616443488,"[88, 0, 166]",166,l,0.26158448090427555,colour,0.06
014,67,1,1,9,21,421,600.6793465311057,601.4393991488905,"[64, 0, 190]",190,a,0.23665522543888073,colour,0.06
014,67,1,1,9,22,422,601.9606481125957,602.847353257981,"[94, 0, 160]",160,l,0.36347159287834074,colour,0.06
014,67,1,1,9,23,423,603.3633101161249,604.1913602054265,"[99, 0, 155]",155,l,0.26516572045511566,colour,0.06
014,67,1,1,9,24,424,604.6997461663996,605.48737586473,"[53, 0, 201]",201,a,0.26444537653878797,colour,0.06
014,67,1,1,9,25,425,605.9965243111074,606.783366317919,"[70, 0, 184]",184,a,0.2634800605737837,colour,0.06
014,67,1,1,9,26,426,607.2934020988032,608.0633276422595,"[58, 0, 196]",196,a,0.254837902932195,colour,0.06
014,67,1,1,9,27,427,608.5820158207789,609.463396171428,"[96, 0, 158]",158,l,0.3581519181316253,colour,0.06
014,67,1,1,9,28,428,609.9726214177208,610.8233960138896,"[83, 0, 171]",171,l,0.32734372692357283,colour,0.06
014,67,1,1,9,29,429,611.3319962269597,612.1993765421503,"[84, 0, 170]",170,l,0.3440731135342503,colour,0.06
014,67,1,1,9,30,430,612.69721846428,613.4991995084711,"[77, 0, 177]",177,a,0.27003995564882644,colour,0.06
014,67,1,1,9,31,431,614.012367938587,614.8153580156504,"[55, 0, 199]",199,a,0.2796742107893806,colour,0.06
014,67,1,1,9,32,432,615.3249274831469,616.1353368267446,"[78, 0, 176]",176,a,0.2873904370353557,colour,0.06
014,67,1,1,9,33,433,616.6530045508844,617.4633457591699,"[44, 0, 210]",210,a,0.28701470817031804,colour,0.06
014,67,1,1,9,34,434,617.9712323237036,618.7673683028988,"[92, 0, 162]",162,l,0.27288076517288573,colour,0.06
014,67,1,1,9,35,435,619.2837186129473,620.1993761483027,"[74, 0, 180]",180,a,0.3924637612653896,colour,0.06
014,67,1,1,9,36,436,620.70560619756,621.5033376459469,"[62, 0, 192]",192,a,0.2743970713636372,colour,0.06
014,67,1,1,9,37,437,622.0180491637584,622.7193659870827,"[59, 0, 195]",195,a,0.17849562733317725,colour,0.06
014,67,1,1,9,38,438,623.2355028327293,623.9433732495963,"[76, 0, 178]",178,a,0.14971771104319487,colour,0.06
014,67,1,1,9,39,439,624.4559713910421,625.0553617177939,"[90, 0, 164]",164,l,0.08245279265975114,colour,0.06
014,67,1,1,9,40,440,625.566894506439,626.263401685268,"[56, 0, 198]",198,a,0.17818212609563489,colour,0.06
014,67,1,1,9,41,441,626.7734756691934,627.5593933199852,"[57, 0, 197]",197,a,0.2560651263484033,colour,0.06
014,67,1,1,9,42,442,628.0835827361589,628.6713617020432,"[95, 0, 159]",159,l,0.06937159938388504,colour,0.06
014,67,1,1,9,43,443,629.1823045097262,630.0313643014233,"[97, 0, 157]",157,l,0.315080157466582,colour,0.06
014,67,1,1,9,44,444,630.5445047684916,631.3193348732602,"[71, 0, 183]",183,a,0.25687093476881273,colour,0.06
014,67,1,1,9,45,445,631.8428795639338,632.6313698152662,"[50, 0, 204]",204,a,0.26900335360551253,colour,0.06
014,67,1,1,9,46,446,633.1402488711319,633.943371280373,"[61, 0, 193]",193,a,0.2582749949360732,colour,0.06
014,67,1,1,9,47,447,634.4595872890204,635.399317465286,"[80, 0, 174]",174,a,0.41634853775030933,colour,0.06
014,67,1,1,9,48,448,635.912812393537,636.6793807956856,"[54, 0, 200]",200,a,0.24386417835194152,colour,0.06
014,67,1,1,9,49,449,637.1939245352114,638.0713061697898,"[86, 0, 168]",168,l,0.3540441067889333,colour,0.06
014,67,1,1,9,50,450,638.5886596050113,640.2474087902374,"[73, 0, 181]",181,a,1.1353474605712108,colour,0.06
014,67,1,1,10,1,451,644.8142056229262,645.7353009867802,"[69, 0, 185]",185,a,0.39701267986674793,colour,0.06
014,67,1,1,10,2,452,646.2524724652612,647.8473241134052,"[54, 0, 200]",200,a,1.07150466805615,colour,0.06
014,67,1,1,10,3,453,648.3678259516746,649.1753377719724,"[95, 0, 159]",159,l,0.2845354490709724,colour,0.06
014,67,1,1,10,4,454,649.6959160163242,650.4795024940249,"[66, 0, 188]",188,a,0.26037616208486725,colour,0.06
014,67,1,1,10,5,455,650.9927244871651,651.7833352040907,"[59, 0, 195]",195,a,0.26724286301760003,colour,0.06
014,67,1,1,10,6,456,652.2896924655361,652.9514325155033,"[83, 0, 171]",171,a,0.13861401735630352,colour,0.06
014,67,1,1,10,7,457,653.4620854527166,654.2073397096974,"[78, 0, 176]",176,a,0.21387794325710274,colour,0.06
014,67,1,1,10,8,458,654.7205829705053,655.4313253106957,"[53, 0, 201]",201,a,0.1790730052307481,colour,0.06
014,67,1,1,10,9,459,655.9552331271552,656.7273425453895,"[51, 0, 203]",203,a,0.254820179878152,colour,0.06
014,67,1,1,10,10,460,657.2517899305385,657.9673442783096,"[75, 0, 179]",179,a,0.18319538886134978,colour,0.06
014,67,1,1,10,11,461,658.4868217237381,659.3112976627162,"[93, 0, 161]",161,l,0.3065029843564844,colour,0.06
014,67,1,1,10,12,462,659.8341929017188,660.6313410645234,"[57, 0, 197]",197,a,0.27742101915646344,colour,0.06
014,67,1,1,10,13,463,661.1517082075443,662.327298434655,"[81, 0, 173]",173,a,0.6565936673578108,colour,0.06
014,67,1,1,10,14,464,662.8366701915802,663.5833411117783,"[37, 0, 217]",217,a,0.224725637192023,colour,0.06
014,67,1,1,10,15,465,664.0962610252172,664.9033691536024,"[67, 0, 187]",187,a,0.28300496442534495,colour,0.06
014,67,1,1,10,16,466,665.4160338549846,665.9833722256008,"[50, 0, 204]",204,a,0.048879804176976904,colour,0.06
014,67,1,1,10,17,467,666.5001679752168,667.5353403713525,"[82, 0, 172]",172,l,0.5163999346259516,colour,0.06
014,67,1,1,10,18,468,668.0515311738709,668.8634158637142,"[52, 0, 202]",202,a,0.28054067147604655,colour,0.06
014,67,1,1,10,19,469,669.3823950942606,670.2073641281313,"[60, 0, 194]",194,a,0.305260400971747,colour,0.06
014,67,1,1,10,20,470,670.7171821123047,671.511340591911,"[71, 0, 183]",183,a,0.2753982272988651,colour,0.06
014,67,1,1,10,21,471,672.0244030775066,672.6233333924029,"[68, 0, 186]",186,a,0.07958283855987247,colour,0.06
014,67,1,1,10,22,472,673.1382946084486,675.6312713538209,"[65, 0, 189]",189,a,1.9652206619357457,colour,0.06
014,67,1,1,10,23,473,676.1427186779329,676.6953091000032,"[46, 0, 208]",208,a,0.03526613143912982,colour,0.06
014,67,1,1,10,24,474,677.2068761532282,677.9832777026168,"[74, 0, 180]",180,a,0.24403707664168905,colour,0.06
014,67,1,1,10,25,475,678.5045814108744,679.0553180009156,"[64, 0, 190]",190,a,0.03185148864577059,colour,0.06
014,67,1,1,10,26,476,679.5727793498809,680.4233452077751,"[97, 0, 157]",157,l,0.33183593171997927,colour,0.06
014,67,1,1,10,27,477,680.937585292224,681.7034557996667,"[70, 0, 184]",184,a,0.24674791704455856,colour,0.06
014,67,1,1,10,28,478,682.2241155701049,683.2954028352979,"[86, 0, 168]",168,l,0.5519484534743242,colour,0.06
014,67,1,1,10,29,479,683.8102537745144,684.4074228111567,"[98, 0, 156]",156,l,0.07429033916560002,colour,0.06
014,67,1,1,10,30,480,684.9213525451196,685.823318820112,"[84, 0, 170]",170,l,0.3782581383275101,colour,0.06
014,67,1,1,10,31,481,686.343236191271,687.1036196395144,"[87, 0, 167]",167,l,0.2371829787734896,colour,0.06
014,67,1,1,10,32,482,687.6245192620117,688.4713672158832,"[32, 0, 222]",222,a,0.323422204630333,colour,0.06
014,67,1,1,10,33,483,688.9777445634536,689.6874810215522,"[61, 0, 193]",193,a,0.18711218499811366,colour,0.06
014,67,1,1,10,34,484,690.1962198683323,690.9193250271201,"[63, 0, 191]",191,a,0.20045843646221329,colour,0.06
014,67,1,1,10,35,485,691.43062072061,692.2394432596193,"[72, 0, 182]",182,a,0.28580126936140005,colour,0.06
014,67,1,1,10,36,486,692.7586871545209,693.3433752188284,"[55, 0, 199]",199,a,0.061723508464638144,colour,0.06
014,67,1,1,10,37,487,693.8535425441951,695.3432566712581,"[56, 0, 198]",198,a,0.970279610803118,colour,0.06
014,67,1,1,10,38,488,695.8557039697625,696.6952728661854,"[62, 0, 192]",192,a,0.30868764682963956,colour,0.06
014,67,1,1,10,39,489,697.2138405279111,698.2633240976429,"[90, 0, 164]",164,l,0.5321289529820206,colour,0.06
014,67,1,1,10,40,490,698.7772510747018,699.583317087192,"[94, 0, 160]",160,l,0.2868689852330135,colour,0.06
014,67,1,1,10,41,491,700.0958006195142,700.8473221441673,"[92, 0, 162]",162,l,0.23215238680131733,colour,0.06
014,67,1,1,10,42,492,701.3663139777782,702.0393195920478,"[88, 0, 166]",166,l,0.15371918403252494,colour,0.06
014,67,1,1,10,43,493,702.5576970262628,703.407359795834,"[73, 0, 181]",181,a,0.32146597272367217,colour,0.06
014,67,1,1,10,44,494,703.9189248798211,704.8152776711067,"[77, 0, 177]",177,a,0.36348183287191205,colour,0.06
014,67,1,1,10,45,495,705.3243489237211,706.111351619591,"[80, 0, 174]",174,a,0.269663832950755,colour,0.06
014,67,1,1,10,46,496,706.6223558672209,707.6232857370633,"[99, 0, 155]",155,l,0.46882297222327907,colour,0.06
014,67,1,1,10,47,497,708.1368629790813,708.9672651153087,"[89, 0, 165]",165,l,0.2978868205391336,colour,0.06
014,67,1,1,10,48,498,709.4815957842657,710.1672670845292,"[58, 0, 196]",196,a,0.1665097191289533,colour,0.06
014,67,1,1,10,49,499,710.6898661515152,711.503286052146,"[96, 0, 158]",158,l,0.294467845451436,colour,0.06
014,67,1,1,10,50,500,712.0210530254262,712.8312563876825,"[76, 0, 178]",178,a,0.27803620624763425,colour,0.06
014,67,1,1,11,1,501,717.4439791813056,718.5513001833315,"[73, 0, 181]",181,a,0.5748761847353308,colour,0.06
014,67,1,1,11,2,502,719.0676315887977,719.5915279837209,"[59, 0, 195]",195,a,0.005497299207490869,colour,0.06
014,67,1,1,11,3,503,720.1186058647581,720.7752062274812,"[87, 0, 167]",167,l,0.1384690821141703,colour,0.06
014,67,1,1,11,4,504,721.2941196857864,722.1272306931787,"[74, 0, 180]",180,a,0.31413965376850683,colour,0.06
014,67,1,1,11,5,505,722.6414636884001,723.5073588112136,"[90, 0, 164]",164,l,0.33736040629446507,colour,0.06
014,67,1,1,11,6,506,724.0169144941174,724.831243784618,"[68, 0, 186]",186,a,0.2685606709565036,colour,0.06
014,67,1,1,11,7,507,725.3513836786296,726.095234663153,"[98, 0, 156]",156,l,0.22060522278479766,colour,0.06
014,67,1,1,11,8,508,726.6014469893416,727.391215664029,"[70, 0, 184]",184,a,0.26663161438773386,colour,0.06
014,67,1,1,11,9,509,727.8982625493954,728.7432436743402,"[61, 0, 193]",193,a,0.32192086457507685,colour,0.06
014,67,1,1,11,10,510,729.2626963075018,729.9673060752684,"[91, 0, 163]",163,l,0.18138999986695126,colour,0.06
014,67,1,1,11,11,511,730.4814563628752,731.2152319849993,"[80, 0, 174]",174,a,0.21047472200007178,colour,0.06
014,67,1,1,11,12,512,731.7314050644636,732.47122661295,"[44, 0, 210]",210,a,0.21653403910750058,colour,0.06
014,67,1,1,11,13,513,732.9813679444924,733.75924011397,"[2, 0, 252]",252,a,0.2545244016946526,colour,0.06
014,67,1,1,11,14,514,734.2769842441921,735.0072227375058,"[67, 0, 187]",187,a,0.21254792611580342,colour,0.06
014,67,1,1,11,15,515,735.5239464133483,736.7352462422132,"[57, 0, 197]",197,a,0.6932378651108593,colour,0.06
014,67,1,1,11,16,516,737.2557524127915,737.9113086903963,"[93, 0, 161]",161,l,0.13861283582809847,colour,0.06
014,67,1,1,11,17,517,738.4299145551631,739.2152300157759,"[50, 0, 204]",204,a,0.2528702494892059,colour,0.06
014,67,1,1,11,18,518,739.728116058468,741.2152820034098,"[75, 0, 179]",179,a,0.9684435018425575,colour,0.06
014,67,1,1,11,19,519,741.7263642324979,742.3352159160859,"[96, 0, 158]",158,l,0.09061879076762125,colour,0.06
014,67,1,1,11,20,520,742.854168758975,743.6472323473427,"[97, 0, 157]",157,l,0.27494136622408405,colour,0.06
014,67,1,1,11,21,521,744.1519453026995,744.879215774301,"[94, 0, 160]",160,l,0.20967600277799647,colour,0.06
014,67,1,1,11,22,522,745.3908044890559,746.3112377981597,"[76, 0, 178]",178,a,0.3969539968384197,colour,0.06
014,67,1,1,11,23,523,746.8284096704883,747.5992095515394,"[99, 0, 155]",155,l,0.24702282139332965,colour,0.06
014,67,1,1,11,24,524,748.1096915596863,748.9112409489317,"[79, 0, 175]",175,a,0.27822407067287713,colour,0.06
014,67,1,1,11,25,525,749.4280626923719,750.1512218080316,"[81, 0, 173]",173,a,0.19992910776636563,colour,0.06
014,67,1,1,11,26,526,750.6623375140043,751.5192769779387,"[85, 0, 169]",169,a,0.3334979608625872,colour,0.06
014,67,1,1,11,27,527,752.0373578462895,752.8712033760385,"[64, 0, 190]",190,a,0.3105347834643908,colour,0.06
014,67,1,1,11,28,528,753.3811816554517,754.1112779704272,"[65, 0, 189]",189,a,0.20686906400078442,colour,0.06
014,67,1,1,11,29,529,754.6274400222028,755.3352261560794,"[60, 0, 194]",194,a,0.17809429849148728,colour,0.06
014,67,1,1,11,30,530,755.8585711669439,756.6632106700708,"[55, 0, 199]",199,a,0.27250858092156705,colour,0.06
014,67,1,1,11,31,531,757.1867789914832,757.9832359549619,"[56, 0, 198]",198,a,0.2780799231113633,colour,0.06
014,67,1,1,11,32,532,758.5010931189172,759.2873215140135,"[78, 0, 176]",176,a,0.2685799693863373,colour,0.06
014,67,1,1,11,33,533,759.8004434703325,760.6312201538676,"[92, 0, 162]",162,l,0.313571728169336,colour,0.06
014,67,1,1,11,34,534,761.1458438440895,761.943212166676,"[62, 0, 192]",192,a,0.2791681189701194,colour,0.06
014,67,1,1,11,35,535,762.4615502163215,763.0231900325452,"[33, 0, 221]",221,a,0.044024867413099855,colour,0.06
014,67,1,1,11,36,536,763.541832524963,764.2792445250525,"[51, 0, 203]",203,a,0.214333228970645,colour,0.06
014,67,1,1,11,37,537,764.7989129856869,765.4232636817032,"[83, 0, 171]",171,l,0.09548278598231263,colour,0.06
014,67,1,1,11,38,538,765.9371394588088,766.6312300000136,"[66, 0, 188]",188,a,0.16136136726709083,colour,0.06
014,67,1,1,11,39,539,767.141049953425,767.7912274794071,"[53, 0, 201]",201,a,0.132985173680936,colour,0.06
014,67,1,1,11,40,540,768.3133795314352,769.0791693005012,"[63, 0, 191]",191,a,0.24866791514796205,colour,0.06
014,67,1,1,11,41,541,769.5967212339892,770.1831953888468,"[86, 0, 168]",168,l,0.06868355082406197,colour,0.06
014,67,1,1,11,42,542,770.6942890394712,771.3192305041448,"[72, 0, 182]",182,a,0.10686414093652274,colour,0.06
014,67,1,1,11,43,543,771.8379785472207,772.4792401927407,"[69, 0, 185]",185,a,0.12334540470328648,colour,0.06
014,67,1,1,11,44,544,772.9978752020834,773.5831879057805,"[88, 0, 166]",166,l,0.05345826121629216,colour,0.06
014,67,1,1,11,45,545,774.0973846671841,774.8871868187707,"[82, 0, 172]",172,l,0.2702065524208592,colour,0.06
014,67,1,1,11,46,546,775.4073003251106,776.0232676201704,"[52, 0, 202]",202,a,0.0985165799211245,colour,0.06
014,67,1,1,11,47,547,776.5342198801518,777.3512407126254,"[71, 0, 183]",183,a,0.2849860086280387,colour,0.06
014,67,1,1,11,48,548,777.8622524433158,778.4631992485374,"[95, 0, 159]",159,l,0.08370561603805982,colour,0.06
014,67,1,1,11,49,549,778.9735016630148,779.6392479121278,"[54, 0, 200]",200,a,0.1338110682554543,colour,0.06
014,67,1,1,11,50,550,780.1621088865359,780.8952067001082,"[77, 0, 177]",177,a,0.21498976986913476,colour,0.06
014,67,1,1,12,1,551,784.978537768824,785.5831914503942,"[56, 0, 198]",198,a,0.07905705446319189,colour,0.06
014,67,1,1,12,2,552,786.0981140695512,787.5432637604827,"[98, 0, 156]",156,l,0.9133551130071282,colour,0.06
014,67,1,1,12,3,553,788.060877133903,788.9591944278654,"[31, 0, 223]",223,a,0.3813443137478316,colour,0.06
014,67,1,1,12,4,554,789.4686146278254,790.3432791204541,"[64, 0, 190]",190,a,0.3565395135519793,colour,0.06
014,67,1,1,12,5,555,790.8610846906231,791.7913617808081,"[80, 0, 174]",174,a,0.41222851719066966,colour,0.06
014,67,1,1,12,6,556,792.3008646883827,793.0791637866641,"[66, 0, 188]",188,a,0.26100080147443805,colour,0.06
014,67,1,1,12,7,557,793.5982607771002,794.4152304096206,"[73, 0, 181]",181,a,0.2952169400959974,colour,0.06
014,67,1,1,12,8,558,794.9310167325311,795.9431991697638,"[85, 0, 169]",169,a,0.48532353444898035,colour,0.06
014,67,1,1,12,9,559,796.4545960816322,797.6791645743651,"[70, 0, 184]",184,a,0.7074261588422814,colour,0.06
014,67,1,1,12,10,560,798.1996821664652,798.9832324103481,"[96, 0, 158]",158,l,0.2510038143955171,colour,0.06
014,67,1,1,12,11,561,799.4972464273305,800.3671942230721,"[67, 0, 187]",187,a,0.35219775783480145,colour,0.06
014,67,1,1,12,12,562,800.8891040599556,801.7191800918808,"[44, 0, 210]",210,a,0.3118088745250134,colour,0.06
014,67,1,1,12,13,563,802.2349333317543,803.0952145770134,"[93, 0, 161]",161,l,0.3423571275197901,colour,0.06
014,67,1,1,12,14,564,803.6102569252835,804.5032242183661,"[87, 0, 167]",167,l,0.3738840872538276,colour,0.06
014,67,1,1,12,15,565,805.0201889278105,805.831166984688,"[55, 0, 199]",199,a,0.2828604230307974,colour,0.06
014,67,1,1,12,16,566,806.3431074037071,807.1272291178029,"[78, 0, 176]",176,a,0.26673834660323337,colour,0.06
014,67,1,1,12,17,567,807.6408662243775,808.3751936244225,"[79, 0, 175]",175,a,0.20287507408647798,colour,0.06
014,67,1,1,12,18,568,808.893101200636,809.679169300507,"[54, 0, 200]",200,a,0.25567640057124663,colour,0.06
014,67,1,1,12,19,569,810.1903980402276,810.9671891030739,"[77, 0, 177]",177,a,0.2583108348917449,colour,0.06
014,67,1,1,12,20,570,811.4901469635515,812.3031588399608,"[74, 0, 180]",180,a,0.2943611132359365,colour,0.06
014,67,1,1,12,21,571,812.8215421818604,813.5751562090736,"[65, 0, 189]",189,a,0.23636496112158056,colour,0.06
014,67,1,1,12,22,572,814.0901690189057,814.9111917182017,"[72, 0, 182]",182,a,0.30075362387287896,colour,0.06
014,67,1,1,12,23,573,815.4223566549044,816.0391518137621,"[75, 0, 179]",179,a,0.09826806324417703,colour,0.06
014,67,1,1,12,24,574,816.558374834829,817.1271582255577,"[69, 0, 185]",185,a,0.045416324501275085,colour,0.06
014,67,1,1,12,25,575,817.6365158040426,818.3351812576584,"[76, 0, 178]",178,a,0.17530429507314693,colour,0.06
014,67,1,1,12,26,576,818.8552376563748,819.5591337756196,"[91, 0, 163]",163,l,0.1806019144860329,colour,0.06
014,67,1,1,12,27,577,820.0791594543698,820.7991713485098,"[61, 0, 193]",193,a,0.1966338002384873,colour,0.06
014,67,1,1,12,28,578,821.3135142266838,822.1271637394093,"[83, 0, 171]",171,l,0.29030568338930607,colour,0.06
014,67,1,1,12,29,579,822.6416629743617,823.2712293698569,"[71, 0, 183]",183,a,0.10624225846549962,colour,0.06
014,67,1,1,12,30,580,823.7823529527523,824.3992331822956,"[86, 0, 168]",168,l,0.09358326786605176,colour,0.06
014,67,1,1,12,31,581,824.9080161398015,825.6391419676074,"[62, 0, 192]",192,a,0.16777553941938095,colour,0.06
014,67,1,1,12,32,582,826.1504203318909,826.8552215086966,"[53, 0, 201]",201,a,0.18666438235959504,colour,0.06
014,67,1,1,12,33,583,827.3715434618643,828.2391199122503,"[57, 0, 197]",197,a,0.33550106042821426,colour,0.06
014,67,1,1,12,34,584,828.7618068068405,829.5352127653314,"[89, 0, 165]",165,l,0.2562459015462082,colour,0.06
014,67,1,1,12,35,585,830.0444187131798,830.9031395415223,"[50, 0, 204]",204,a,0.3410940641479101,colour,0.06
014,67,1,1,12,36,586,831.4206020720158,832.2391667798947,"[58, 0, 196]",196,a,0.2995968988543609,colour,0.06
014,67,1,1,12,37,587,832.7525597020867,833.3031612030318,"[63, 0, 191]",191,a,0.018071612968924455,colour,0.06
014,67,1,1,12,38,588,833.8185918832314,834.3511331927293,"[92, 0, 162]",162,l,0.00708370994834695,colour,0.06
014,67,1,1,12,39,589,834.8630495871475,835.6712061329599,"[88, 0, 166]",166,l,0.29018280351010617,colour,0.06
014,67,1,1,12,40,590,836.1868534283276,837.023141589525,"[82, 0, 172]",172,l,0.304349041878595,colour,0.06
014,67,1,1,12,41,591,837.5463459974417,838.3191989964835,"[52, 0, 202]",202,a,0.25469926922232844,colour,0.06
014,67,1,1,12,42,592,838.8294376079284,839.5671304200514,"[2, 0, 252]",252,a,0.22077497030841187,colour,0.06
014,67,1,1,12,43,593,840.0824386142049,841.0151729081408,"[95, 0, 159]",159,l,0.39979520021006465,colour,0.06
014,67,1,1,12,44,594,841.5373789170408,842.1991764684935,"[59, 0, 195]",195,a,0.14361310166714247,colour,0.06
014,67,1,1,12,45,595,842.7132924915204,843.5591396833042,"[94, 0, 160]",160,l,0.32806958466244396,colour,0.06
014,67,1,1,12,46,596,844.0725995592802,844.8151083174307,"[97, 0, 157]",157,l,0.21355774665425997,colour,0.06
014,67,1,1,12,47,597,845.3378314458241,846.1511398881121,"[81, 0, 173]",173,a,0.28252683566825,colour,0.06
014,67,1,1,12,48,598,846.6649770683289,847.4871222280635,"[60, 0, 194]",194,a,0.29060894463327713,colour,0.06
014,67,1,1,12,49,599,848.0065929781267,849.0551569179952,"[84, 0, 170]",170,a,0.5176267641800223,colour,0.06
014,67,1,1,12,50,600,849.5654719355371,850.295157469387,"[90, 0, 164]",164,l,0.19661528948927298,colour,0.06
014,67,1,1,13,1,601,855.4261430881015,857.2871324680455,"[59, 0, 195]",195,a,1.329388180281967,colour,0.06
014,67,1,1,13,2,602,857.8059313172271,858.5751022522018,"[92, 0, 162]",162,l,0.23827786999754608,colour,0.06
014,67,1,1,13,3,603,859.0840911910491,859.8471149812976,"[80, 0, 174]",174,a,0.23190899011387955,colour,0.06
014,67,1,1,13,4,604,860.3657247845113,861.015096895906,"[96, 0, 158]",158,l,0.13037437009916175,colour,0.06
014,67,1,1,13,5,605,861.5261582511594,862.4231723094854,"[79, 0, 175]",175,l,0.37913759592629503,colour,0.06
014,67,1,1,13,6,606,862.9346082120755,863.663146867053,"[55, 0, 199]",199,a,0.21049047583073843,colour,0.06
014,67,1,1,13,7,607,864.172358328753,865.1271617701714,"[82, 0, 172]",172,a,0.43455445212021004,colour,0.06
014,67,1,1,13,8,608,865.6411423102545,866.479109829801,"[66, 0, 188]",188,a,0.30893537582596764,colour,0.06
014,67,1,1,13,9,609,866.9964262435096,867.7591357448546,"[70, 0, 184]",184,a,0.23025286868505646,colour,0.06
014,67,1,1,13,10,610,868.2770508041285,868.8790629621508,"[88, 0, 166]",166,l,0.07011163557763211,colour,0.06
014,67,1,1,13,11,611,869.3879042088229,870.1431255206116,"[98, 0, 156]",156,l,0.22323414328275248,colour,0.06
014,67,1,1,13,12,612,870.6544783217396,871.5031249692256,"[73, 0, 181]",181,a,0.33059807449171785,colour,0.06
014,67,1,1,13,13,613,872.0154934985912,872.767113090842,"[76, 0, 178]",178,a,0.2189435875043273,colour,0.06
014,67,1,1,13,14,614,873.2832597826346,873.9270810317976,"[51, 0, 203]",203,a,0.11122204433195293,colour,0.06
014,67,1,1,13,15,615,874.4402502495941,875.1191013227217,"[62, 0, 192]",192,a,0.15738155580766033,colour,0.06
014,67,1,1,13,16,616,875.6386409957922,876.2311551693274,"[18, 0, 236]",236,a,0.06445246576913632,colour,0.06
014,67,1,1,13,17,617,876.7452022693324,877.719083993521,"[74, 0, 180]",180,a,0.45670276263263077,colour,0.06
014,67,1,1,13,18,618,878.2292217804497,878.7911262610432,"[77, 0, 177]",177,a,0.02962468468467705,colour,0.06
014,67,1,1,13,19,619,879.3087376652402,880.9351217869553,"[83, 0, 171]",171,l,1.0951543186238268,colour,0.06
014,67,1,1,13,20,620,881.4585821946239,882.7191367688501,"[15, 0, 239]",239,a,0.7433437111758394,colour,0.06
014,67,1,1,13,21,621,883.2385917650827,883.9591132956411,"[86, 0, 168]",168,l,0.2030712092819158,colour,0.06
014,67,1,1,13,22,622,884.4738752257254,885.2630779440369,"[93, 0, 161]",161,l,0.2647234316536924,colour,0.06
014,67,1,1,13,23,623,885.773187374085,886.5431420621317,"[85, 0, 169]",169,l,0.23780289200658444,colour,0.06
014,67,1,1,13,24,624,887.0529277509631,887.7191245596332,"[87, 0, 167]",167,l,0.1491115824173903,colour,0.06
014,67,1,1,13,25,625,888.2422639830038,889.047056298281,"[53, 0, 201]",201,a,0.2863274473056663,colour,0.06
014,67,1,1,13,26,626,889.5709074009501,890.527111357922,"[94, 0, 160]",160,l,0.4253546088875737,colour,0.06
014,67,1,1,13,27,627,891.0381286024494,891.9271184471436,"[57, 0, 197]",197,a,0.37133984360843897,colour,0.06
014,67,1,1,13,28,628,892.4458779117413,893.2150854743813,"[75, 0, 179]",179,a,0.25121334035065956,colour,0.06
014,67,1,1,13,29,629,893.7289521930215,894.5030974000256,"[50, 0, 204]",204,a,0.24234472138050478,colour,0.06
014,67,1,1,13,30,630,895.0204917952069,895.7591050248739,"[71, 0, 183]",183,a,0.21013837770442478,colour,0.06
014,67,1,1,13,31,631,896.2956143304618,896.9830914135673,"[65, 0, 189]",189,a,0.15600427715980913,colour,0.06
014,67,1,1,13,32,632,897.4992845791567,898.1351005192846,"[78, 0, 176]",176,a,0.10235224383359309,colour,0.06
014,67,1,1,13,33,633,898.6435270463699,899.335139510018,"[22, 0, 232]",232,a,0.15942837226612028,colour,0.06
014,67,1,1,13,34,634,899.8471220705251,900.4950991802034,"[64, 0, 190]",190,a,0.11598679040616844,colour,0.06
014,67,1,1,13,35,635,901.0039955652901,901.7670449555153,"[69, 0, 185]",185,a,0.24492874344286975,colour,0.06
014,67,1,1,13,36,636,902.2880434333056,903.07907595906,"[91, 0, 163]",163,l,0.2727374053065432,colour,0.06
014,67,1,1,13,37,637,903.6034674181283,904.943038480691,"[84, 0, 170]",170,l,0.8078005092393141,colour,0.06
014,67,1,1,13,38,638,905.4629511257081,906.287075754255,"[72, 0, 182]",182,a,0.2916589374362957,colour,0.06
014,67,1,1,13,39,639,906.7948102943337,907.5910994795267,"[81, 0, 173]",173,a,0.27290872820594814,colour,0.06
014,67,1,1,13,40,640,908.1072831928323,908.879046420625,"[60, 0, 194]",194,a,0.24839143542340025,colour,0.06
014,67,1,1,13,41,641,909.3885178205383,910.2390624107647,"[58, 0, 196]",196,a,0.32712356714182533,colour,0.06
014,67,1,1,13,42,642,910.7524435175874,911.3110530845006,"[97, 0, 157]",157,l,0.03510701774212066,colour,0.06
014,67,1,1,13,43,643,911.8307384804939,912.6230486419227,"[99, 0, 155]",155,l,0.2689686951780459,colour,0.06
014,67,1,1,13,44,644,913.1431889297819,913.8471421566501,"[54, 0, 200]",200,a,0.18064444982155692,colour,0.06
014,67,1,1,13,45,645,914.3619919143384,915.1110767152422,"[89, 0, 165]",165,l,0.22571340236754622,colour,0.06
014,67,1,1,13,46,646,915.6163638977305,916.4230978726409,"[95, 0, 159]",159,l,0.27284216828411445,colour,0.06
014,67,1,1,13,47,647,916.9327189339383,917.7270696102642,"[67, 0, 187]",187,a,0.2710088162275497,colour,0.06
014,67,1,1,13,48,648,918.2452383062191,918.98307762896,"[68, 0, 186]",186,a,0.21452739491360262,colour,0.06
014,67,1,1,13,49,649,919.4952011862624,920.2470306983014,"[56, 0, 198]",198,a,0.22852309806330595,colour,0.06
014,67,1,1,13,50,650,920.7506263132236,921.3030465939228,"[61, 0, 193]",193,a,0.029232808141387068,colour,0.06
014,67,1,1,14,1,651,925.9823734327365,928.9990713116858,"[51, 0, 203]",203,a,2.4832030688558007,colour,0.06
014,67,1,1,14,2,652,929.521256052918,930.0710623792547,"[23, 0, 231]",231,a,0.03161360579542816,colour,0.06
014,67,1,1,14,3,653,930.587277206374,931.4150657820865,"[89, 0, 165]",165,l,0.30938317844993435,colour,0.06
014,67,1,1,14,4,654,931.9343065262219,933.007047082283,"[73, 0, 181]",181,a,0.5545340509124799,colour,0.06
014,67,1,1,14,5,655,933.5284000212705,934.2390360230929,"[50, 0, 204]",204,a,0.1928536685736617,colour,0.06
014,67,1,1,14,6,656,934.763155334731,935.6630617963674,"[87, 0, 167]",167,l,0.381208043123479,colour,0.06
014,67,1,1,14,7,657,936.1806476005877,937.0310326832841,"[58, 0, 196]",196,a,0.3193254209618317,colour,0.06
014,67,1,1,14,8,658,937.5403599356359,938.2630692794337,"[52, 0, 202]",202,a,0.20567492363625206,colour,0.06
014,67,1,1,14,9,659,938.7751790521288,939.3430617175909,"[83, 0, 171]",171,l,0.035991595330415294,colour,0.06
014,67,1,1,14,10,660,939.8541526112967,940.4710958561482,"[1, 0, 253]",253,a,0.09956775426690001,colour,0.06
014,67,1,1,14,11,661,940.9825223064399,942.2871206526761,"[76, 0, 178]",178,a,0.7703016661689617,colour,0.06
014,67,1,1,14,12,662,942.8098303903244,943.4950645217759,"[78, 0, 176]",176,a,0.16794961925188545,colour,0.06
014,67,1,1,14,13,663,944.0149196653074,944.5670611031965,"[57, 0, 197]",197,a,0.0345229444646975,colour,0.06
014,67,1,1,14,14,664,945.0797896075819,945.7990890347428,"[79, 0, 175]",175,a,0.19323294205241837,colour,0.06
014,67,1,1,14,15,665,946.3173817921197,946.9110794721637,"[74, 0, 180]",180,a,0.0627904366410803,colour,0.06
014,67,1,1,14,16,666,947.4263274079276,948.5270447979856,"[97, 0, 157]",157,l,0.5696711190976202,colour,0.06
014,67,1,1,14,17,667,949.0480759649654,949.8630275317846,"[94, 0, 160]",160,l,0.2832905026007211,colour,0.06
014,67,1,1,14,18,668,950.3745075451006,951.0790495713882,"[92, 0, 162]",162,l,0.172719091468025,colour,0.06
014,67,1,1,14,19,669,951.5951064663532,952.2070844976406,"[53, 0, 201]",201,a,0.09441270703973714,colour,0.06
014,67,1,1,14,20,670,952.7229385620303,954.1670626785781,"[59, 0, 195]",195,a,0.9266312599356752,colour,0.06
014,67,1,1,14,21,671,954.6890217461914,955.4310102340824,"[56, 0, 198]",198,a,0.21027976834739093,colour,0.06
014,67,1,1,14,22,672,955.9319320301001,957.7670075401693,"[80, 0, 174]",174,l,1.3025452282599872,colour,0.06
014,67,1,1,14,23,673,958.2899492529687,958.8149937083072,"[96, 0, 158]",158,l,0.007655573994270526,colour,0.06
014,67,1,1,14,24,674,959.3384324544604,959.8870174650801,"[82, 0, 172]",172,l,0.017810887075029314,colour,0.06
014,67,1,1,14,25,675,960.4015946815052,961.0471248274407,"[64, 0, 190]",190,a,0.1131302270659944,colour,0.06
014,67,1,1,14,26,676,961.561106155219,962.1510264605313,"[90, 0, 164]",164,l,0.07195719685114454,colour,0.06
014,67,1,1,14,27,677,962.6750264368893,963.5430105176492,"[91, 0, 163]",163,l,0.35041875651222654,colour,0.06
014,67,1,1,14,28,678,964.0579815798264,964.7590148341988,"[66, 0, 188]",188,a,0.18361207767156884,colour,0.06
014,67,1,1,14,29,679,965.2777132527117,966.8950282879669,"[86, 0, 168]",168,l,1.098840714985272,colour,0.06
014,67,1,1,14,30,680,967.4160220396006,968.0230411588418,"[93, 0, 161]",161,l,0.08378989902848843,colour,0.06
014,67,1,1,14,31,681,968.5408345197939,969.2709804593323,"[75, 0, 179]",179,a,0.20675248565385118,colour,0.06
014,67,1,1,14,32,682,969.7908966489631,970.414991739075,"[61, 0, 193]",193,a,0.10071660236280877,colour,0.06
014,67,1,1,14,33,683,970.931515735123,971.5989803333068,"[60, 0, 194]",194,a,0.13920596755633596,colour,0.06
014,67,1,1,14,34,684,972.1085482254275,972.8629983871942,"[98, 0, 156]",156,l,0.2315305043302942,colour,0.06
014,67,1,1,14,35,685,973.373849822674,974.1589923849824,"[68, 0, 186]",186,a,0.26171602538670413,colour,0.06
014,67,1,1,14,36,686,974.6708772717539,975.37506877532,"[27, 0, 227]",227,a,0.18092762494052295,colour,0.06
014,67,1,1,14,37,687,975.8895443795191,976.6390557153936,"[81, 0, 173]",173,l,0.22689454583451152,colour,0.06
014,67,1,1,14,38,688,977.153689251747,978.0390206631128,"[72, 0, 182]",182,a,0.35284642181068193,colour,0.06
014,67,1,1,14,39,689,978.5586867606762,979.2869985604921,"[99, 0, 155]",155,l,0.21132857962220442,colour,0.06
014,67,1,1,14,40,690,979.8094129138044,980.6069860361895,"[55, 0, 199]",199,a,0.265629276909749,colour,0.06
014,67,1,1,14,41,691,981.1232426109636,982.6950314387359,"[77, 0, 177]",177,l,1.0541305559308967,colour,0.06
014,67,1,1,14,42,692,983.2127728120395,983.9830197336414,"[62, 0, 192]",192,a,0.25256068671296816,colour,0.06
014,67,1,1,14,43,693,984.4976863530464,985.2230722726672,"[85, 0, 169]",169,l,0.2072652728529647,colour,0.06
014,67,1,1,14,44,694,985.7404201940517,986.4789621376403,"[54, 0, 200]",200,a,0.2202117708802689,colour,0.06
014,67,1,1,14,45,695,986.9938355260674,987.758971511168,"[71, 0, 183]",183,a,0.24661912948067766,colour,0.06
014,67,1,1,14,46,696,988.2702380600676,988.9030635292875,"[84, 0, 170]",170,l,0.109446587623097,colour,0.06
014,67,1,1,14,47,697,989.4107590786298,990.1830004351941,"[67, 0, 187]",187,l,0.24881206270947587,colour,0.06
014,67,1,1,14,48,698,990.6920681431948,992.2069773715921,"[95, 0, 159]",159,l,1.002376071512117,colour,0.06
014,67,1,1,14,49,699,992.7280943969527,993.455000955073,"[69, 0, 185]",185,a,0.20350837807927746,colour,0.06
014,67,1,1,14,50,700,993.9624436554441,994.8150082806096,"[70, 0, 184]",184,a,0.32914675284700934,colour,0.06
014,67,1,1,15,1,701,1000.0896841947688,1001.7590479172359,"[80, 0, 174]",174,l,1.1514754446980078,colour,0.06
014,67,1,1,15,2,702,1002.2725101562974,1002.8230324942415,"[63, 0, 191]",191,a,0.03240129732876085,colour,0.06
014,67,1,1,15,3,703,1003.3390153461951,1003.8949948110821,"[94, 0, 160]",160,l,0.03794979648955632,colour,0.06
014,67,1,1,15,4,704,1004.4058241911844,1005.2389458324178,"[82, 0, 172]",172,a,0.31530425569508225,colour,0.06
014,67,1,1,15,5,705,1005.752799948008,1006.662987359523,"[71, 0, 183]",183,a,0.39128183013235684,colour,0.06
014,67,1,1,15,6,706,1007.1768450197123,1008.9989917548373,"[62, 0, 192]",192,a,1.3018091305275448,colour,0.06
014,67,1,1,15,7,707,1009.5175704442372,1010.1189615074836,"[79, 0, 175]",175,a,0.07823391682177316,colour,0.06
014,67,1,1,15,8,708,1010.6269662257546,1011.1829736536893,"[7, 0, 247]",247,a,0.03267423245415557,colour,0.06
014,67,1,1,15,9,709,1011.6940775442927,1012.3989334656653,"[86, 0, 168]",168,l,0.1815183935832465,colour,0.06
014,67,1,1,15,10,710,1012.9128651688661,1013.4869761112786,"[84, 0, 170]",170,l,0.05074387618515175,colour,0.06
014,67,1,1,15,11,711,1014.0066075504146,1014.6869512989942,"[88, 0, 166]",166,l,0.1570523007394513,colour,0.06
014,67,1,1,15,12,712,1015.1940726212197,1016.5349370732874,"[90, 0, 164]",164,l,0.8179058039095253,colour,0.06
014,67,1,1,15,13,713,1017.0494713605149,1017.8949857526313,"[54, 0, 200]",200,a,0.313906890922226,colour,0.06
014,67,1,1,15,14,714,1018.401727801378,1019.2389533154928,"[74, 0, 180]",180,a,0.3142463859694544,colour,0.06
014,67,1,1,15,15,715,1019.7451211371081,1020.3669535833033,"[92, 0, 162]",162,l,0.09846734920574818,colour,0.06
014,67,1,1,15,16,716,1020.8857473124954,1021.7349748824781,"[53, 0, 201]",201,a,0.3186054709076416,colour,0.06
014,67,1,1,15,17,717,1022.2524059053248,1023.0309826648736,"[98, 0, 156]",156,l,0.25531445629894733,colour,0.06
014,67,1,1,15,18,718,1023.5492384007521,1024.2949507003505,"[66, 0, 188]",188,a,0.22237831642269157,colour,0.06
014,67,1,1,15,19,719,1024.8148101761908,1025.406971070057,"[59, 0, 195]",195,a,0.06912347655452322,colour,0.06
014,67,1,1,15,20,720,1025.9241366408532,1026.6069549223757,"[72, 0, 182]",182,a,0.15257663745433092,colour,0.06
014,67,1,1,15,21,721,1027.1273878376523,1027.798923225666,"[89, 0, 165]",165,l,0.14420780877117068,colour,0.06
014,67,1,1,15,22,722,1028.3105863772653,1028.9669618540647,"[57, 0, 197]",197,a,0.1380697225104086,colour,0.06
014,67,1,1,15,23,723,1029.484392876897,1030.134987879399,"[52, 0, 202]",202,a,0.11954597460862715,colour,0.06
014,67,1,1,15,24,724,1030.6556949113146,1031.3269841457368,"[56, 0, 198]",198,a,0.14019570195523556,colour,0.06
014,67,1,1,15,25,725,1031.8462150437263,1032.4949680295686,"[91, 0, 163]",163,l,0.13044841309601907,colour,0.06
014,67,1,1,15,26,726,1033.0073452235374,1033.6149574745068,"[93, 0, 161]",161,l,0.08947191190964077,colour,0.06
014,67,1,1,15,27,727,1034.1357275217451,1034.6709339855443,"[55, 0, 199]",199,a,0.01605551650573034,colour,0.06
014,67,1,1,15,28,728,1035.189198779859,1036.0149578683486,"[99, 0, 155]",155,l,0.30855373927624896,colour,0.06
014,67,1,1,15,29,729,1036.5225506239512,1038.0869473605417,"[83, 0, 171]",171,a,1.04426550718199,colour,0.06
014,67,1,1,15,30,730,1038.6036749748455,1039.3990031763678,"[96, 0, 158]",158,l,0.2719890983571531,colour,0.06
014,67,1,1,15,31,731,1039.916195528669,1040.918973322856,"[85, 0, 169]",169,l,0.4794355402555084,colour,0.06
014,67,1,1,15,32,732,1041.4318085594423,1042.1749285662227,"[67, 0, 187]",187,a,0.21413276146631688,colour,0.06
014,67,1,1,15,33,733,1042.687422732386,1043.3270140780078,"[95, 0, 159]",159,l,0.11621955325244926,colour,0.06
014,67,1,1,15,34,734,1043.8436849785212,1044.518944965952,"[61, 0, 193]",193,a,0.15194530269945972,colour,0.06
014,67,1,1,15,35,735,1045.0311504431738,1045.7189406336547,"[60, 0, 194]",194,a,0.1644865334237693,colour,0.06
014,67,1,1,15,36,736,1046.234320113901,1046.774936049289,"[97, 0, 157]",157,l,0.02627778335590847,colour,0.06
014,67,1,1,15,37,737,1047.2957080657652,1047.9349937870866,"[64, 0, 190]",190,a,0.10703310077951755,colour,0.06
014,67,1,1,15,38,738,1048.4536087102897,1049.127083001018,"[69, 0, 185]",185,a,0.1559125110943569,colour,0.06
014,67,1,1,15,39,739,1049.6419654479105,1050.2869213667145,"[77, 0, 177]",177,a,0.1278104341472499,colour,0.06
014,67,1,1,15,40,740,1050.8006589039578,1051.4230061065755,"[65, 0, 189]",189,a,0.09104729496175423,colour,0.06
014,67,1,1,15,41,741,1051.9421019154688,1052.5429530161637,"[78, 0, 176]",176,a,0.06814043752092402,colour,0.06
014,67,1,1,15,42,742,1053.0555145299586,1053.6869761112757,"[30, 0, 224]",224,a,0.11402780156640802,colour,0.06
014,67,1,1,15,43,743,1054.2003839996178,1054.7429183577333,"[68, 0, 186]",186,a,0.025074190692976117,colour,0.06
014,67,1,1,15,44,744,1055.267041213985,1056.9349024148687,"[81, 0, 173]",173,l,1.1503746457892703,colour,0.06
014,67,1,1,15,45,745,1057.448843570368,1057.982990589051,"[50, 0, 204]",204,a,0.0007817838486516848,colour,0.06
014,67,1,1,15,46,746,1058.505781065076,1059.6309397356817,"[70, 0, 184]",184,a,0.6017849090130767,colour,0.06
014,67,1,1,15,47,747,1060.146390895854,1060.9908946797368,"[76, 0, 178]",178,a,0.3211599545611534,colour,0.06
014,67,1,1,15,48,748,1061.505815329656,1062.038922595515,"[10, 0, 244]",244,l,0.020724558053188957,colour,0.06
014,67,1,1,15,49,749,1062.5572169282823,1063.190917916625,"[87, 0, 167]",167,l,0.1102307345427107,colour,0.06
014,67,1,1,15,50,750,1063.6979061189777,1064.3669114418008,"[75, 0, 179]",179,a,0.14565085966023616,colour,0.06
014,67,1,1,16,1,751,1069.175450411858,1071.1270046257123,"[39, 0, 215]",215,a,1.4337616405973677,colour,0.06
014,67,1,1,16,2,752,1071.6368852313753,1072.4068804855342,"[55, 0, 199]",199,a,0.25282023107865825,colour,0.06
014,67,1,1,16,3,753,1072.920117838643,1073.7189299998136,"[98, 0, 156]",156,l,0.28034689935157076,colour,0.06
014,67,1,1,16,4,754,1074.2349033994833,1075.022980112757,"[91, 0, 163]",163,l,0.25572129897773266,colour,0.06
014,67,1,1,16,5,755,1075.5327275985474,1076.3189760797686,"[85, 0, 169]",169,l,0.2526201574073639,colour,0.06
014,67,1,1,16,6,756,1076.8252045536356,1077.6628881103825,"[53, 0, 201]",201,a,0.3196487683453597,colour,0.06
014,67,1,1,16,7,757,1078.1809421972284,1078.9429171762022,"[76, 0, 178]",178,a,0.2459677085862495,colour,0.06
014,67,1,1,16,8,758,1079.4611666105338,1080.278940869961,"[97, 0, 157]",157,l,0.3001459198567318,colour,0.06
014,67,1,1,16,9,759,1080.7909821134963,1081.6548973736353,"[51, 0, 203]",203,a,0.34654370801581535,colour,0.06
014,67,1,1,16,10,760,1082.1662938916415,1082.9108947585046,"[88, 0, 166]",166,l,0.2105692449840717,colour,0.06
014,67,1,1,16,11,761,1083.4200873156078,1084.1988633611181,"[57, 0, 197]",197,a,0.26108350908907596,colour,0.06
014,67,1,1,16,12,762,1084.719854749681,1085.4628849596193,"[89, 0, 165]",165,l,0.223410586186219,colour,0.06
014,67,1,1,16,13,763,1085.9729077435913,1086.7908946797252,"[83, 0, 171]",171,l,0.28620574895467144,colour,0.06
014,67,1,1,16,14,764,1087.3023124654137,1088.062934584188,"[56, 0, 198]",198,a,0.23051201918860897,colour,0.06
014,67,1,1,16,15,765,1088.5738793610944,1089.35888289586,"[79, 0, 175]",175,a,0.26156912090664264,colour,0.06
014,67,1,1,16,16,766,1089.8707894441468,1090.462881021158,"[92, 0, 162]",162,l,0.06875011076044757,colour,0.06
014,67,1,1,16,17,767,1090.9802565117425,1091.6948888665647,"[81, 0, 173]",173,l,0.19131294393446296,colour,0.06
014,67,1,1,16,18,768,1092.203969965325,1092.9349646424962,"[94, 0, 160]",160,l,0.20778869387868326,colour,0.06
014,67,1,1,16,19,769,1093.4538402915932,1094.2068958455202,"[70, 0, 184]",184,a,0.22968218616733793,colour,0.06
014,67,1,1,16,20,770,1094.719504226945,1095.590946273529,"[67, 0, 187]",187,a,0.3480458357662428,colour,0.06
014,67,1,1,16,21,771,1096.1101220331038,1096.9268537827884,"[80, 0, 174]",174,a,0.293252043571556,colour,0.06
014,67,1,1,16,22,772,1097.4376390521647,1098.342875428556,"[95, 0, 159]",159,l,0.3735855521663325,colour,0.06
014,67,1,1,16,23,773,1098.8509096852504,1099.7189264552144,"[69, 0, 185]",185,a,0.34484662661270704,colour,0.06
014,67,1,1,16,24,774,1100.225917414471,1101.062879839621,"[90, 0, 164]",164,l,0.3135996912169503,colour,0.06
014,67,1,1,16,25,775,1101.5696742698492,1102.3989212564484,"[99, 0, 155]",155,l,0.30593151415814646,colour,0.06
014,67,1,1,16,26,776,1102.9178492870415,1103.6868674098514,"[22, 0, 232]",232,a,0.24600079163792543,colour,0.06
014,67,1,1,16,27,777,1104.1990524070861,1105.0308322157944,"[78, 0, 176]",176,a,0.3084210132510634,colour,0.06
014,67,1,1,16,28,778,1105.5428454962675,1106.4068753655301,"[66, 0, 188]",188,a,0.34070730760868173,colour,0.06
014,67,1,1,16,29,779,1106.9177929670986,1107.6709099609434,"[82, 0, 172]",172,a,0.24214622311410494,colour,0.06
014,67,1,1,16,30,780,1108.2054417669424,1108.8788873069425,"[75, 0, 179]",179,a,0.14191129412211012,colour,0.06
014,67,1,1,16,31,781,1109.3995368373726,1110.230830246568,"[96, 0, 158]",158,l,0.307715635484783,colour,0.06
014,67,1,1,16,32,782,1110.75108868815,1111.5748753970402,"[60, 0, 194]",194,a,0.3050307888915995,colour,0.06
014,67,1,1,16,33,783,1112.09678996008,1112.8948813835013,"[61, 0, 193]",193,a,0.27913109747169074,colour,0.06
014,67,1,1,16,34,784,1113.4126991628727,1114.1988940810843,"[68, 0, 186]",186,a,0.26746381049451884,colour,0.06
014,67,1,1,16,35,785,1114.7122251694964,1115.5028512464196,"[63, 0, 191]",191,a,0.2727118053298909,colour,0.06
014,67,1,1,16,36,786,1116.0266606014338,1117.094897137329,"[86, 0, 168]",168,l,0.5506365532201016,colour,0.06
014,67,1,1,16,37,787,1117.6016222507023,1118.38283029382,"[62, 0, 192]",192,a,0.24913225931231864,colour,0.06
014,67,1,1,16,38,788,1118.9042891773133,1119.7828759799304,"[73, 0, 181]",181,a,0.3555552929901751,colour,0.06
014,67,1,1,16,39,789,1120.2948683865834,1121.0629011072888,"[52, 0, 202]",202,a,0.24463769143039826,colour,0.06
014,67,1,1,16,40,790,1121.5761553957855,1122.1668724510819,"[54, 0, 200]",200,a,0.06720781076001003,colour,0.06
014,67,1,1,16,41,791,1122.6753702642454,1123.486855988318,"[84, 0, 170]",170,l,0.28820412237837445,colour,0.06
014,67,1,1,16,42,792,1124.003417399712,1124.7988873857103,"[43, 0, 211]",211,a,0.27220807659614366,colour,0.06
014,67,1,1,16,43,793,1125.3159072335693,1126.206834799421,"[77, 0, 177]",177,l,0.3676565979985753,colour,0.06
014,67,1,1,16,44,794,1126.722101245934,1127.4948329404724,"[50, 0, 204]",204,a,0.2496615880227182,colour,0.06
014,67,1,1,16,45,795,1128.0160594549525,1128.8628881103796,"[87, 0, 167]",167,l,0.31814742827555165,colour,0.06
014,67,1,1,16,46,796,1129.3719223414955,1130.1668291280366,"[65, 0, 189]",189,a,0.2778191972174682,colour,0.06
014,67,1,1,16,47,797,1130.6855685065093,1131.4948467250651,"[71, 0, 183]",183,a,0.2770630133454688,colour,0.06
014,67,1,1,16,48,798,1132.0142627305759,1132.766928771016,"[59, 0, 195]",195,a,0.23462455667322502,colour,0.06
014,67,1,1,16,49,799,1133.2832786872314,1134.1188898275577,"[74, 0, 180]",180,a,0.3171179154596757,colour,0.06
014,67,1,1,16,50,800,1134.6302426286857,1135.4068525224866,"[72, 0, 182]",182,a,0.2590567787847249,colour,0.06
