id,age,condition,counterbalance,block,trialinblock,trial,tstart,tend,trialstim,trialintensity,response,RT,trialtype,colourfreq
159,23,1,1,Practice,1,NA,5.120004061609507e-06,1.0752443817764288,"[56, 0, 198]",198,a,0.5352146069781156,colour,0.5
159,23,1,1,Practice,2,NA,1.5947275763464859,2.603152741561644,"[45, 0, 209]",209,a,0.4849857821391197,colour,0.5
159,23,1,1,Practice,3,NA,3.111362078867387,3.923190472050919,"[5, 0, 249]",249,a,0.2893968634016346,colour,0.5
159,23,1,1,Practice,4,NA,4.43867651806795,5.211159641752602,"[88, 0, 166]",166,l,0.24980425827379804,colour,0.5
159,23,1,1,Practice,5,NA,5.719988499680767,6.555184595868923,"[30, 0, 224]",224,a,0.31188668248069007,colour,0.5
159,23,1,1,Practice,6,NA,7.076789441751316,7.603242932411376,"[43, 0, 211]",211,a,0.0010688995098462328,colour,0.5
159,23,1,1,Practice,7,NA,8.126406622919603,8.939164100098424,"[92, 0, 162]",162,l,0.2893015525478404,colour,0.5
159,23,1,1,Practice,8,NA,9.454650146115455,10.731201704562409,"[79, 0, 175]",175,l,0.7533469079062343,colour,0.5
159,23,1,1,Practice,9,NA,11.251768370959326,11.875157341681188,"[57, 0, 197]",197,a,0.1001437539816834,colour,0.5
159,23,1,1,Practice,10,NA,12.392324718588497,13.179200176440645,"[12, 0, 242]",242,a,0.26339472088147886,colour,0.5
159,23,1,1,1,1,1,4.968287870302447,6.0879742896941025,"[74, 0, 180]",180,l,0.5956251526222331,colour,0.5
159,23,1,1,1,2,2,6.594277803596924,7.12806865532184,"[58, 0, 196]",196,a,0.010798484479892068,colour,0.5
159,23,1,1,1,3,3,7.6411333327996545,8.255974652027362,"[33, 0, 221]",221,a,0.09147085928998422,colour,0.5
159,23,1,1,1,4,4,8.766337148394086,9.344016683331574,"[16, 0, 238]",238,a,0.05432207194098737,colour,0.5
159,23,1,1,1,5,5,9.860061597588356,12.008037226376473,"[46, 0, 208]",208,a,1.6245106456772191,colour,0.5
159,23,1,1,1,6,6,12.516604964039288,13.432039022314711,"[10, 0, 244]",244,a,0.39206044757156633,colour,0.5
159,23,1,1,1,7,7,13.938549699494615,14.66406859230483,"[73, 0, 181]",181,l,0.20217639597831294,colour,0.5
159,23,1,1,1,8,8,15.17304986884119,15.824025032881764,"[50, 0, 204]",204,a,0.12811670461087488,colour,0.5
159,23,1,1,1,9,9,16.3449733365851,17.04802367805678,"[85, 0, 169]",169,l,0.17958141989947762,colour,0.5
159,23,1,1,1,10,10,17.56377241971495,18.23207328695571,"[40, 0, 214]",214,a,0.14476617331092712,colour,0.5
159,23,1,1,1,11,11,18.751482832230977,19.61601852653257,"[6, 0, 248]",248,a,0.34116050822194666,colour,0.5
159,23,1,1,1,12,12,20.12648145375715,21.032065803869045,"[89, 0, 165]",165,l,0.3820441423158627,colour,0.5
159,23,1,1,1,13,13,21.548507321596844,22.360054902208503,"[91, 0, 163]",163,l,0.28812355754780583,colour,0.5
159,23,1,1,1,14,14,22.87669688781898,23.704067647078773,"[77, 0, 177]",177,l,0.3038695422728779,colour,0.5
159,23,1,1,1,15,15,24.220697029610164,25.032059896184364,"[71, 0, 183]",183,l,0.28824840689776465,colour,0.5
159,23,1,1,1,16,16,25.548793648034916,26.29604105456383,"[96, 0, 158]",158,l,0.2238332296255976,colour,0.5
159,23,1,1,1,17,17,26.814589257439366,27.60805849407916,"[90, 0, 164]",164,l,0.2700928690028377,colour,0.5
159,23,1,1,1,18,18,28.12719352831482,29.04005734405655,"[44, 0, 210]",210,a,0.38942600805603433,colour,0.5
159,23,1,1,1,19,19,29.549230817705393,30.41600277267571,"[28, 0, 226]",226,a,0.343414885821403,colour,0.5
159,23,1,1,1,20,20,30.924269217735855,31.680000472610118,"[15, 0, 239]",239,a,0.2321583578159334,colour,0.5
159,23,1,1,1,21,21,32.18998448243656,33.032088646970806,"[81, 0, 173]",173,l,0.31924176662869286,colour,0.5
159,23,1,1,1,22,22,33.54951123644423,35.90405031782575,"[52, 0, 202]",202,a,1.831447070959257,colour,0.5
159,23,1,1,1,23,23,36.424733956650016,37.35204957739916,"[7, 0, 247]",247,a,0.4038498499430716,colour,0.5
159,23,1,1,1,24,24,37.862358904472785,38.72009720132337,"[12, 0, 242]",242,a,0.3342949753132416,colour,0.5
159,23,1,1,1,25,25,39.23828503461846,40.0880546343833,"[41, 0, 213]",213,a,0.3273809992679162,colour,0.5
159,23,1,1,1,26,26,40.59696423084824,41.33607831243717,"[38, 0, 216]",216,a,0.21576252629165538,colour,0.5
159,23,1,1,1,27,27,41.84710247098701,42.680077272685594,"[2, 0, 252]",252,a,0.30943577544530854,colour,0.5
159,23,1,1,1,28,28,43.19088442178327,43.992067536804825,"[36, 0, 218]",218,a,0.27782368278712966,colour,0.5
159,23,1,1,1,29,29,44.50349656959588,45.336064527815324,"[42, 0, 212]",212,a,0.30942868620331865,colour,0.5
159,23,1,1,1,30,30,45.847387615882326,46.64007073483663,"[64, 0, 190]",190,l,0.2692224681668449,colour,0.5
159,23,1,1,1,31,31,47.159933597475174,47.98412522743456,"[97, 0, 157]",157,l,0.3007561853592051,colour,0.5
159,23,1,1,1,32,32,48.50381755451963,49.29601702991931,"[18, 0, 236]",236,a,0.268953470964334,colour,0.5
159,23,1,1,1,33,33,49.816442699258914,50.35207045126299,"[1, 0, 253]",253,a,0.012126141169574112,colour,0.5
159,23,1,1,1,34,34,50.86346561324899,53.008062432549195,"[26, 0, 228]",228,a,1.6212070608744398,colour,0.5
159,23,1,1,1,35,35,53.520036942805746,54.32804423684138,"[5, 0, 249]",249,a,0.2848605389444856,colour,0.5
159,23,1,1,1,36,36,54.84827928445884,55.64818239820306,"[69, 0, 185]",185,l,0.27660984772956,colour,0.5
159,23,1,1,1,37,37,56.16084259528725,57.000072467752034,"[78, 0, 176]",176,l,0.31589879718376324,colour,0.5
159,23,1,1,1,38,38,57.52037919544091,58.360061597588356,"[95, 0, 159]",159,l,0.31649626238504425,colour,0.5
159,23,1,1,1,39,39,58.87979488472047,59.76009271146904,"[49, 0, 205]",205,l,0.3569856561080087,colour,0.5
159,23,1,1,1,40,40,60.27054342944757,61.08009578347264,"[66, 0, 188]",188,l,0.2863910266023595,colour,0.5
159,23,1,1,1,41,41,61.59877907572081,62.40008704007778,"[24, 0, 230]",230,a,0.2779284459538758,colour,0.5
159,23,1,1,1,42,42,62.91134593116294,63.64811662583088,"[92, 0, 162]",162,l,0.21337030238646548,colour,0.5
159,23,1,1,1,43,43,64.16143533433205,64.96007932069188,"[21, 0, 233]",233,a,0.27521444944432005,colour,0.5
159,23,1,1,1,44,44,65.47402818365663,66.25609713830636,"[83, 0, 171]",171,l,0.25859333769767545,colour,0.5
159,23,1,1,1,45,45,66.77103494993935,67.53611690939579,"[65, 0, 189]",189,l,0.24222665080742445,colour,0.5
159,23,1,1,1,46,46,68.05245839011332,69.10405031782284,"[51, 0, 203]",203,l,0.5283813694695709,colour,0.5
159,23,1,1,1,47,47,69.6150413932628,70.44803982575831,"[3, 0, 251]",251,a,0.3096791726129595,colour,0.5
159,23,1,1,1,48,48,70.95891392877093,71.80007168005977,"[84, 0, 170]",170,l,0.31779753135924693,colour,0.5
159,23,1,1,1,49,49,72.31838672579033,73.0481292289187,"[67, 0, 187]",187,l,0.206405126300524,colour,0.5
159,23,1,1,1,50,50,73.56843319968903,74.36007735146268,"[35, 0, 219]",219,a,0.26827526722627226,colour,0.5
159,23,1,1,2,1,51,78.91186620244116,79.64010066716583,"[9, 0, 245]",245,a,0.20411097019677982,colour,0.5
159,23,1,1,2,2,52,80.14703472937981,80.87210739406873,"[49, 0, 205]",205,l,0.20158995848032646,colour,0.5
159,23,1,1,2,3,53,81.38156364954193,82.15210471591854,"[36, 0, 218]",218,a,0.24744590518821497,colour,0.5
159,23,1,1,2,4,54,82.66292604348564,83.41609178199724,"[24, 0, 230]",230,a,0.2298740478727268,colour,0.5
159,23,1,1,2,5,55,83.92869644671737,84.68806093593594,"[95, 0, 159]",159,l,0.23597906311624683,colour,0.5
159,23,1,1,2,6,56,85.1944243145117,85.96805471315747,"[11, 0, 243]",243,a,0.2503682465176098,colour,0.5
159,23,1,1,2,7,57,86.47569809299603,87.26415208778053,"[4, 0, 250]",250,a,0.2649961009301478,colour,0.5
159,23,1,1,2,8,58,87.77286515480955,88.60811205721984,"[66, 0, 188]",188,l,0.31263814168050885,colour,0.5
159,23,1,1,2,9,59,89.11658093940059,89.86410915850138,"[72, 0, 182]",182,l,0.22422353153524455,colour,0.5
159,23,1,1,2,10,60,90.3823245610547,91.1441060865036,"[50, 0, 204]",204,l,0.23887383520195726,colour,0.5
159,23,1,1,2,11,61,91.66366608114913,92.59212267531257,"[40, 0, 214]",214,a,0.40494986332487315,colour,0.5
159,23,1,1,2,12,62,93.10132686900033,93.88011744503456,"[26, 0, 228]",228,a,0.25551936544070486,colour,0.5
159,23,1,1,2,13,63,94.39821705670329,95.13608146322076,"[81, 0, 173]",173,l,0.2146861436922336,colour,0.5
159,23,1,1,2,14,64,95.64837144454941,96.47206446480413,"[61, 0, 193]",193,l,0.30029735414427705,colour,0.5
159,23,1,1,2,15,65,96.99229833087884,97.77611832725233,"[45, 0, 209]",209,a,0.2604908903304022,colour,0.5
159,23,1,1,2,16,66,98.28917040163651,99.14410017880436,"[21, 0, 233]",233,a,0.3316050034336513,colour,0.5
159,23,1,1,2,17,67,99.66430174946436,100.47212472332467,"[18, 0, 236]",236,a,0.2844060400384478,colour,0.5
159,23,1,1,2,18,68,100.99257599268458,101.784120501281,"[70, 0, 184]",184,l,0.2682390333357034,colour,0.5
159,23,1,1,2,19,69,102.30517986971245,102.97613762573746,"[58, 0, 196]",196,l,0.14764243460376747,colour,0.5
159,23,1,1,2,20,70,103.49277094673016,104.18409765818797,"[75, 0, 179]",179,l,0.16794482998375315,colour,0.5
159,23,1,1,2,21,71,104.69594298677112,105.43221546556742,"[65, 0, 189]",189,l,0.21285239419376012,colour,0.5
159,23,1,1,2,22,72,105.94603514685878,106.7041282994469,"[1, 0, 253]",253,a,0.23468133877031505,colour,0.5
159,23,1,1,2,23,73,107.21178388851695,107.89610800847004,"[73, 0, 181]",181,l,0.1609383000031812,colour,0.5
159,23,1,1,2,24,74,108.41501461170265,109.20012721243256,"[89, 0, 165]",165,l,0.26181382086360827,colour,0.5
159,23,1,1,2,25,75,109.71184257166169,110.48812710215861,"[37, 0, 217]",217,a,0.25276440888410434,colour,0.5
159,23,1,1,2,26,76,111.00899742424372,111.88813970524643,"[63, 0, 191]",191,l,0.35641615401254967,colour,0.5
159,23,1,1,2,27,77,112.39962860271044,112.97615298574965,"[59, 0, 195]",195,l,0.05345206493802834,colour,0.5
159,23,1,1,2,28,78,113.49356691059074,114.2961261254095,"[14, 0, 240]",240,a,0.27930887808906846,colour,0.5
159,23,1,1,2,29,79,114.8060486951872,115.6482032720669,"[19, 0, 235]",235,a,0.3191244003683096,colour,0.5
159,23,1,1,2,30,80,116.16558293225535,116.96811891013931,"[92, 0, 162]",162,l,0.2796479799580993,colour,0.5
159,23,1,1,2,31,81,117.47819547391555,118.43213472701609,"[57, 0, 197]",197,l,0.4305908485839609,colour,0.5
159,23,1,1,2,32,82,118.94709341251291,119.79222586311516,"[23, 0, 231]",231,a,0.3223590620182222,colour,0.5
159,23,1,1,2,33,83,120.30641497246688,121.09615251312789,"[93, 0, 161]",161,l,0.2672776539257029,colour,0.5
159,23,1,1,2,34,84,121.60351862499374,122.36016242230835,"[52, 0, 202]",202,a,0.2333781005581841,colour,0.5
159,23,1,1,2,35,85,122.8691740250215,123.64814970894076,"[83, 0, 171]",171,l,0.25578324261005037,colour,0.5
159,23,1,1,2,36,86,124.16622411443677,124.8321938040026,"[78, 0, 176]",176,l,0.14260238040878903,colour,0.5
159,23,1,1,2,37,87,125.33824564996758,126.05611289216904,"[31, 0, 223]",223,a,0.1944715760910185,colour,0.5
159,23,1,1,2,38,88,126.57272218851722,127.36015887769463,"[27, 0, 227]",227,a,0.26411742929485627,colour,0.5
159,23,1,1,2,39,89,127.869784487164,128.61613274202682,"[56, 0, 198]",198,l,0.22312391198647674,colour,0.5
159,23,1,1,2,40,90,129.13540601640125,131.00812466030766,"[33, 0, 221]",221,a,1.3493332178040873,colour,0.5
159,23,1,1,2,41,91,131.52627035201294,132.85613534142612,"[42, 0, 212]",212,l,0.8064614463655744,colour,0.5
159,23,1,1,2,42,92,133.3701023213216,134.07211960331188,"[15, 0, 239]",239,a,0.17876576370326802,colour,0.5
159,23,1,1,2,43,93,134.5890420076612,135.4161189574079,"[69, 0, 185]",185,l,0.3037462683132617,colour,0.5
159,23,1,1,2,44,94,135.9328976077668,136.63211306545418,"[62, 0, 192]",192,l,0.17594109629862942,colour,0.5
159,23,1,1,2,45,95,137.15164194622776,137.92818838467065,"[35, 0, 219]",219,a,0.2531547107937513,colour,0.5
159,23,1,1,2,46,96,138.44869321717124,139.25616960607294,"[25, 0, 229]",229,a,0.2842595291149337,colour,0.5
159,23,1,1,2,47,97,139.77683512795193,140.5762211211986,"[67, 0, 187]",187,l,0.2758835947170155,colour,0.5
159,23,1,1,2,48,98,141.08952131890692,141.8801489527541,"[39, 0, 215]",215,l,0.2672162138769636,colour,0.5
159,23,1,1,2,49,99,142.38648712515715,143.0801879435603,"[22, 0, 232]",232,a,0.1706611895642709,colour,0.5
159,23,1,1,2,50,100,143.5897635345318,144.3121379565564,"[90, 0, 164]",164,l,0.19908076216233894,colour,0.5
159,23,1,1,3,1,101,152.99592053751985,154.24020739959087,"[35, 0, 219]",219,a,0.7200530905247433,colour,0.5
159,23,1,1,3,2,102,154.74690988003567,155.37616401344712,"[29, 0, 225]",225,a,0.10593329815310426,colour,0.5
159,23,1,1,3,3,103,155.8877013540332,158.01617567130597,"[99, 0, 155]",155,l,1.6054520176694496,colour,0.5
159,23,1,1,3,4,104,158.5284156341222,159.60018904633762,"[95, 0, 159]",159,l,0.5484521830949234,colour,0.5
159,23,1,1,3,5,105,160.10668357581017,161.08817751450988,"[63, 0, 191]",191,l,0.45813332493708003,colour,0.5
159,23,1,1,3,6,106,161.60675249894848,162.3842122675269,"[76, 0, 178]",178,l,0.2540581947687315,colour,0.5
159,23,1,1,3,7,107,162.90377659448131,163.6241904484341,"[45, 0, 209]",209,l,0.19731436044094153,colour,0.5
159,23,1,1,3,8,108,164.13825431458827,164.9362630264659,"[93, 0, 161]",161,l,0.2747040243266383,colour,0.5
159,23,1,1,3,9,109,165.45082550235384,166.0961304577213,"[42, 0, 212]",212,a,0.12191283388528973,colour,0.5
159,23,1,1,3,10,110,166.6071491024195,167.3441970650456,"[98, 0, 156]",156,l,0.21365111497289035,colour,0.5
159,23,1,1,3,11,111,167.85723732404585,168.6723019542551,"[58, 0, 196]",196,a,0.29160201018385123,colour,0.5
159,23,1,1,3,12,112,169.18550172110554,169.90419249642582,"[89, 0, 165]",165,l,0.19582719588652253,colour,0.5
159,23,1,1,3,13,113,170.41999243813916,170.9841988767439,"[80, 0, 174]",174,l,0.04120580057497136,colour,0.5
159,23,1,1,3,14,114,171.4981969705259,172.08017140200536,"[41, 0, 213]",213,a,0.05903444581781514,colour,0.5
159,23,1,1,3,15,115,172.59208841065993,173.44018337494344,"[64, 0, 190]",190,l,0.32493993840762414,colour,0.5
159,23,1,1,3,16,116,173.95161201388692,174.69618402085325,"[92, 0, 162]",162,l,0.22133466716331895,colour,0.5
159,23,1,1,3,17,117,175.21728159239865,175.92820374468283,"[71, 0, 183]",183,l,0.18769268941832706,colour,0.5
159,23,1,1,3,18,118,176.4361393586587,177.09620489472582,"[9, 0, 245]",245,a,0.1367703008290846,colour,0.5
159,23,1,1,3,19,119,177.60808685103257,178.30419840413379,"[90, 0, 164]",164,l,0.1727154931431869,colour,0.5
159,23,1,1,3,20,120,178.81129985112057,179.49619229162636,"[62, 0, 192]",192,a,0.16160783912346233,colour,0.5
159,23,1,1,3,21,121,180.01448016194627,180.9841701259429,"[53, 0, 201]",201,a,0.44630375019914936,colour,0.5
159,23,1,1,3,22,122,181.49908076216525,182.15252455632435,"[8, 0, 246]",246,a,0.13029034367355052,colour,0.5
159,23,1,1,3,23,123,182.67095027293544,184.23214299780375,"[23, 0, 231]",231,a,1.0379321481304942,colour,0.5
159,23,1,1,3,24,124,184.74930446699727,185.4161772466905,"[66, 0, 188]",188,l,0.14356651673733722,colour,0.5
159,23,1,1,3,25,125,185.93688333476894,186.7281761754275,"[50, 0, 204]",204,l,0.26818428866681643,colour,0.5
159,23,1,1,3,26,126,187.24948130409757,188.12822698162927,"[73, 0, 181]",181,l,0.35622356305248104,colour,0.5
159,23,1,1,3,27,127,188.64019715957693,189.38418942442513,"[84, 0, 170]",170,l,0.22061117105477024,colour,0.5
159,23,1,1,3,28,128,189.89032279662206,190.45618299685884,"[37, 0, 217]",217,a,0.04259371578518767,colour,0.5
159,23,1,1,3,29,129,190.96853638747416,192.5841969075118,"[11, 0, 243]",243,a,1.092332989370334,colour,0.5
159,23,1,1,3,30,130,193.09363071373082,198.04019203956705,"[12, 0, 242]",242,a,4.423181019752519,colour,0.5
159,23,1,1,3,31,131,198.54726355422463,199.41623356674972,"[51, 0, 203]",203,a,0.34561648798990063,colour,0.5
159,23,1,1,3,32,132,199.9223330681416,200.51219112584658,"[28, 0, 226]",226,a,0.0665029577940004,colour,0.5
159,23,1,1,3,33,133,201.0318535205879,201.60819791576068,"[81, 0, 173]",173,l,0.052999141422333196,colour,0.5
159,23,1,1,3,34,134,202.12568864067725,204.08025686671317,"[13, 0, 241]",241,a,1.431105606010533,colour,0.5
159,23,1,1,3,35,135,204.5945574346406,205.33616810945387,"[36, 0, 218]",218,a,0.2183063810953172,colour,0.5
159,23,1,1,3,36,136,205.8446917363035,206.61621781288704,"[40, 0, 214]",214,a,0.2481977582210675,colour,0.5
159,23,1,1,3,37,137,207.12618567500613,207.73622954951134,"[31, 0, 223]",223,a,0.08674627618165687,colour,0.5
159,23,1,1,3,38,138,208.25113073342072,208.8002067694324,"[94, 0, 160]",160,l,0.026505084562813863,colour,0.5
159,23,1,1,3,39,139,209.31377872126177,210.01622214520467,"[24, 0, 230]",230,a,0.17908674864156637,colour,0.5
159,23,1,1,3,40,140,210.53260301056434,211.112256504377,"[48, 0, 206]",206,a,0.05651894796756096,colour,0.5
159,23,1,1,3,41,141,211.62647239529178,212.19219750615594,"[19, 0, 235]",235,a,0.04235268170305062,colour,0.5
159,23,1,1,3,42,142,212.70451741982833,213.27220782493532,"[1, 0, 253]",253,a,0.04413838191248942,colour,0.5
159,23,1,1,3,43,143,213.7828621615772,215.312203335081,"[5, 0, 249]",249,a,1.0059750458749477,colour,0.5
159,23,1,1,3,44,144,215.8298984663561,216.8721885264531,"[67, 0, 187]",187,l,0.5189444124989677,colour,0.5
159,23,1,1,3,45,145,217.39255118035362,218.01621623750543,"[2, 0, 252]",252,a,0.10031822801101953,colour,0.5
159,23,1,1,3,46,146,218.5332378911844,219.06421904168383,"[46, 0, 208]",208,a,0.007691429113037884,colour,0.5
159,23,1,1,3,47,147,219.58028404212382,220.1043149827019,"[22, 0, 232]",232,a,0.0007731207588221878,colour,0.5
159,23,1,1,3,48,148,220.627122242091,221.2002741171891,"[70, 0, 184]",184,l,0.049726670506061055,colour,0.5
159,23,1,1,3,49,149,221.72104794687766,222.5202315029892,"[52, 0, 202]",202,l,0.27599190251203254,colour,0.5
159,23,1,1,3,50,150,223.03361677155772,223.59227036776429,"[17, 0, 237]",237,a,0.03535954249673523,colour,0.5
159,23,1,1,4,1,151,228.1425492111157,228.9922357092728,"[57, 0, 197]",197,l,0.32544288043573033,colour,0.5
159,23,1,1,4,2,152,229.50290461824625,230.18428276605846,"[35, 0, 219]",219,a,0.1581128449179232,colour,0.5
159,23,1,1,4,3,153,230.69044488904183,231.25627121847356,"[6, 0, 248]",248,a,0.042383795575005934,colour,0.5
159,23,1,1,4,4,154,231.7686620245222,232.33625869415118,"[77, 0, 177]",177,l,0.044226603538845666,colour,0.5
159,23,1,1,4,5,155,232.84697762163705,233.4082849558472,"[46, 0, 208]",208,l,0.037900640396401286,colour,0.5
159,23,1,1,4,6,156,233.92512701550731,234.64822414594528,"[22, 0, 232]",232,a,0.19961442424391862,colour,0.5
159,23,1,1,4,7,157,235.15961379407963,235.84826786290796,"[99, 0, 155]",155,l,0.16532259969972074,colour,0.5
159,23,1,1,4,8,158,236.3628319141717,237.72831126480014,"[85, 0, 169]",169,l,0.8419635613245191,colour,0.5
159,23,1,1,4,9,159,238.23811843752628,239.11232936597662,"[96, 0, 158]",158,l,0.3509948563587386,colour,0.5
159,23,1,1,4,10,160,239.62877718525124,240.46426000172505,"[33, 0, 221]",221,a,0.3120867565157823,colour,0.5
159,23,1,1,4,11,161,240.97271746236947,241.70426693343325,"[59, 0, 195]",195,l,0.2083046481857309,colour,0.5
159,23,1,1,4,12,162,242.22272573313967,243.00826329427946,"[10, 0, 244]",244,a,0.2629016249993583,colour,0.5
159,23,1,1,4,13,163,243.51970296094078,244.1842748891213,"[26, 0, 228]",228,a,0.14121485903160647,colour,0.5
159,23,1,1,4,14,164,244.6916602994752,245.46430805099953,"[14, 0, 240]",240,a,0.24907091600471176,colour,0.5
159,23,1,1,4,15,165,245.9730892535008,246.50423778878758,"[7, 0, 247]",247,a,0.00778831537172664,colour,0.5
159,23,1,1,4,16,166,247.02001921970805,247.60831803895417,"[84, 0, 170]",170,l,0.06500437170325313,colour,0.5
159,23,1,1,4,17,167,248.12952234290424,248.72025316454528,"[51, 0, 203]",203,l,0.06737257094937377,colour,0.5
159,23,1,1,4,18,168,249.23891006907797,249.81624971445126,"[18, 0, 236]",236,a,0.053916410004603676,colour,0.5
159,23,1,1,4,19,169,250.33279678305553,251.01625601599517,"[54, 0, 200]",200,l,0.16047592415998224,colour,0.5
159,23,1,1,4,20,170,251.53595543232223,253.1842737075931,"[41, 0, 213]",213,a,1.1250025600020308,colour,0.5
159,23,1,1,4,21,171,253.69249131568358,254.4883031515492,"[53, 0, 201]",201,l,0.2725110867759213,colour,0.5
159,23,1,1,4,22,172,255.00500578954234,255.80035170495103,"[56, 0, 198]",198,l,0.2719045630947221,colour,0.5
159,23,1,1,4,23,173,256.3176029711758,257.0723570927803,"[60, 0, 194]",194,l,0.2315845234115841,colour,0.5
159,23,1,1,4,24,174,257.5833036635595,258.11232070135884,"[71, 0, 183]",183,l,0.005555205469136126,colour,0.5
159,23,1,1,4,25,175,258.63038919914106,259.40028199412336,"[86, 0, 168]",168,l,0.2465751104755327,colour,0.5
159,23,1,1,4,26,176,259.9115822390886,260.71225729206344,"[36, 0, 218]",218,a,0.27726875300868414,colour,0.5
159,23,1,1,4,27,177,261.22432356856007,262.080284829819,"[1, 0, 253]",253,a,0.3332623096794123,colour,0.5
159,23,1,1,4,28,178,262.5993584239768,263.2882854284544,"[88, 0, 166]",166,l,0.1658030924736522,colour,0.5
159,23,1,1,4,29,179,263.80267539955094,264.45623065228574,"[90, 0, 164]",164,l,0.13031988216971513,colour,0.5
159,23,1,1,4,30,180,264.9745358518412,265.66431632178137,"[44, 0, 210]",210,a,0.16632848377048504,colour,0.5
159,23,1,1,4,31,181,266.1778165935393,266.7522965191747,"[73, 0, 181]",181,l,0.0515580569190206,colour,0.5
159,23,1,1,4,32,182,267.2715571904555,267.8082502973557,"[66, 0, 188]",188,l,0.013257662285468541,colour,0.5
159,23,1,1,4,33,183,268.3185596244293,269.11230258441356,"[5, 0, 249]",249,a,0.27032445077202283,colour,0.5
159,23,1,1,4,34,184,269.6312217907398,270.3843193937937,"[4, 0, 250]",250,a,0.2296779122989392,colour,0.5
159,23,1,1,4,35,185,270.896891369237,271.76829062723846,"[23, 0, 231]",231,a,0.3479370318236761,colour,0.5
159,23,1,1,4,36,186,272.2875761108444,273.6163206068304,"[30, 0, 224]",224,a,0.8054811623151181,colour,0.5
159,23,1,1,4,37,187,274.1316057911172,275.184285522977,"[70, 0, 184]",184,l,0.5293707119853934,colour,0.5
159,23,1,1,4,38,188,275.69412026497594,276.60029341567133,"[24, 0, 230]",230,a,0.3827018660522299,colour,0.5
159,23,1,1,4,39,189,277.1161291974131,278.1443085236242,"[63, 0, 191]",191,l,0.5050806203944376,colour,0.5
159,23,1,1,4,40,190,278.6631363575434,279.4802730144147,"[38, 0, 216]",216,a,0.2939969910075888,colour,0.5
159,23,1,1,4,41,191,279.99135191763344,280.6803037344507,"[81, 0, 173]",173,l,0.1655289752961835,colour,0.5
159,23,1,1,4,42,192,281.19457318849163,281.9682933841541,"[43, 0, 211]",211,a,0.25033831417385954,colour,0.5
159,23,1,1,4,43,193,282.4759852071147,283.2483564783761,"[40, 0, 214]",214,a,0.24899884208571166,colour,0.5
159,23,1,1,4,44,194,283.75729837025574,284.5523016391817,"[79, 0, 175]",175,l,0.2716269012889825,colour,0.5
159,23,1,1,4,45,195,285.069937693479,286.1123297598242,"[78, 0, 176]",176,l,0.5191771757963579,colour,0.5
159,23,1,1,4,46,196,286.6326053736411,287.2803569037351,"[12, 0, 242]",242,a,0.12442872559768148,colour,0.5
159,23,1,1,4,47,197,287.78883838900947,290.2563058769738,"[94, 0, 160]",160,l,1.9439843879226828,colour,0.5
159,23,1,1,4,48,198,290.7735488724138,291.6963084763556,"[2, 0, 252]",252,a,0.39946043022791855,colour,0.5
159,23,1,1,4,49,199,292.21122186951106,293.0642954479117,"[31, 0, 223]",223,a,0.32985002323403023,colour,0.5
159,23,1,1,4,50,200,293.57060565720894,294.5842760706728,"[95, 0, 159]",159,l,0.49048348602082115,colour,0.5
159,23,1,1,5,1,201,299.5859314076806,300.2722767480882,"[84, 0, 170]",170,l,0.162341969073168,colour,0.4
159,23,1,1,5,2,202,300.7899447039381,301.71239001835056,"[49, 0, 205]",205,a,0.3991091191273881,colour,0.4
159,23,1,1,5,3,203,302.2275515348156,303.0242987562233,"[71, 0, 183]",183,l,0.2728801209887024,colour,0.4
159,23,1,1,5,4,204,303.5401518672152,304.336300835741,"[92, 0, 162]",162,l,0.27272179468127433,colour,0.4
159,23,1,1,5,5,205,304.8526801257103,305.6802761651925,"[48, 0, 206]",206,a,0.30418146873125806,colour,0.4
159,23,1,1,5,6,206,306.19660031664534,307.12035438310704,"[2, 0, 252]",252,a,0.4004182650242001,colour,0.4
159,23,1,1,5,7,207,307.63427488913294,308.45632438776374,"[94, 0, 160]",160,l,0.2987353587523103,colour,0.4
159,23,1,1,5,8,208,308.97816278465325,309.8003162587702,"[64, 0, 190]",190,l,0.2988696604297729,colour,0.4
159,23,1,1,5,9,209,310.30622868305363,311.1363347065344,"[86, 0, 168]",168,l,0.30663946499407757,colour,0.4
159,23,1,1,5,10,210,311.6501224862732,312.48831969310413,"[29, 0, 225]",225,a,0.3147708206961397,colour,0.4
159,23,1,1,5,11,211,313.0096559356607,313.9123077044205,"[67, 0, 187]",187,l,0.37931281655619387,colour,0.4
159,23,1,1,5,12,212,314.43168259119557,315.296318322522,"[25, 0, 229]",229,a,0.3412270682892995,colour,0.4
159,23,1,1,5,13,213,315.8066603388579,316.6883441115933,"[70, 0, 184]",184,l,0.35810811874398496,colour,0.4
159,23,1,1,5,14,214,317.19755027450447,318.0323304687481,"[24, 0, 230]",230,a,0.3113711373443948,colour,0.4
159,23,1,1,5,15,215,318.5413460099371,319.4083180389571,"[77, 0, 177]",177,l,0.34352476900676265,colour,0.4
159,23,1,1,5,16,216,319.9164430931123,320.6484041338117,"[79, 0, 175]",175,l,0.20858152229629923,colour,0.4
159,23,1,1,5,17,217,321.1665273762628,322.75233117767493,"[82, 0, 172]",172,l,1.0623522090900224,colour,0.4
159,23,1,1,5,18,218,323.2604471733648,323.9442738651269,"[59, 0, 195]",195,l,0.16127228186815046,colour,0.4
159,23,1,1,5,19,219,324.4636771088408,325.28054240545316,"[99, 0, 155]",155,l,0.2936964861000888,colour,0.4
159,23,1,1,5,20,220,325.791936779744,326.58434184304497,"[56, 0, 198]",198,a,0.26892353863513563,colour,0.4
159,23,1,1,5,21,221,327.1044784290134,327.78438910462137,"[74, 0, 180]",180,l,0.15651146486925427,colour,0.4
159,23,1,1,5,22,222,328.2922175923304,329.1603349270881,"[31, 0, 223]",223,a,0.34464447472419124,colour,0.4
159,23,1,1,5,23,223,329.667205973863,330.496356525633,"[51, 0, 203]",203,a,0.305656030177488,colour,0.4
159,23,1,1,5,24,224,331.011027309316,331.82433735318773,"[55, 0, 199]",199,a,0.2898241868970217,colour,0.4
159,23,1,1,5,25,225,332.3393240017904,333.14443612990726,"[20, 0, 234]",234,a,0.28171331122575793,colour,0.4
159,23,1,1,5,26,226,333.65196883885073,334.29636519026826,"[54, 0, 200]",200,a,0.12107512229704298,colour,0.4
159,23,1,1,5,27,227,334.80830070970114,335.41631942529057,"[0, 0, 254]",254,a,0.08454821862687822,colour,0.4
159,23,1,1,5,28,228,335.9333643159189,336.5363354942383,"[90, 0, 164]",164,l,0.07959796144859865,colour,0.4
159,23,1,1,5,29,229,337.0429477838188,337.9603502871032,"[60, 0, 194]",194,l,0.39401353255379945,colour,0.4
159,23,1,1,5,30,230,338.4804896300193,339.80833812513447,"[39, 0, 215]",215,a,0.8044421951490222,colour,0.4
159,23,1,1,5,31,231,340.3244295132754,341.0163497514732,"[63, 0, 191]",191,l,0.16851118129852694,colour,0.4
159,23,1,1,5,32,232,341.52762557796086,342.26434782950673,"[5, 0, 249]",249,a,0.2131556560343597,colour,0.4
159,23,1,1,5,33,233,342.77777720888844,343.4323796995741,"[93, 0, 161]",161,l,0.13122927382937633,colour,0.4
159,23,1,1,5,34,234,343.949663261199,345.56841153813,"[81, 0, 173]",173,l,1.095660204970045,colour,0.4
159,23,1,1,5,35,235,346.0748241475085,346.64034051971976,"[83, 0, 171]",171,l,0.04205217679555062,colour,0.4
159,23,1,1,5,36,236,347.153070821485,347.72834434791,"[13, 0, 241]",241,a,0.051965688093332574,colour,0.4
159,23,1,1,5,37,237,348.2469307538995,348.9603494994226,"[91, 0, 163]",163,l,0.1902633257996058,colour,0.4
159,23,1,1,5,38,238,349.481396658608,350.1763436074689,"[65, 0, 189]",189,l,0.17155443353112787,colour,0.4
159,23,1,1,5,39,239,350.68464234794374,351.4803592668177,"[7, 0, 247]",247,a,0.2723748158896342,colour,0.4
159,23,1,1,5,40,240,351.997288760409,352.76038100714504,"[66, 0, 188]",188,l,0.23968003907066304,colour,0.4
159,23,1,1,5,41,241,353.27856568965944,353.9443451513507,"[14, 0, 240]",240,a,0.1425019495363813,colour,0.4
159,23,1,1,5,42,242,354.450595889808,355.32841484642995,"[53, 0, 201]",201,a,0.3544847305602161,colour,0.4
159,23,1,1,5,43,243,355.84129087142355,356.9763479397807,"[16, 0, 238]",238,a,0.6117342638608534,colour,0.4
159,23,1,1,5,44,244,357.4976865454082,358.1843784707744,"[22, 0, 232]",232,a,0.16333288697933313,colour,0.4
159,23,1,1,5,45,245,358.700912936285,359.30436421351624,"[76, 0, 178]",178,l,0.08003079879563302,colour,0.4
159,23,1,1,5,46,246,359.82611793340766,360.688371287004,"[33, 0, 221]",221,l,0.3392456263245549,colour,0.4
159,23,1,1,5,47,247,361.20109765030793,361.92034808156313,"[15, 0, 239]",239,a,0.1958090789412381,colour,0.4
159,23,1,1,5,48,248,362.43557300732937,363.0004986097192,"[43, 0, 211]",211,a,0.039686340620392,colour,0.4
159,23,1,1,5,49,249,363.5137334289029,365.192390097116,"[52, 0, 202]",202,a,1.1552279189927503,colour,0.4
159,23,1,1,5,50,250,365.70144069063826,366.56837136577815,"[47, 0, 207]",207,a,0.34348656589281745,colour,0.4
159,23,1,1,6,1,251,372.4356261766079,374.056360227798,"[55, 0, 199]",199,a,1.0965562058408977,colour,0.28
159,23,1,1,6,2,252,374.5770911282016,375.88039195607416,"[65, 0, 189]",189,l,0.7797996108856751,colour,0.28
159,23,1,1,6,3,253,376.3898655407829,377.1844044646423,"[74, 0, 180]",180,l,0.27119721472263336,colour,0.28
159,23,1,1,6,4,254,377.70239813158696,378.5364627066592,"[85, 0, 169]",169,l,0.31067166588036343,colour,0.28
159,23,1,1,6,5,255,379.0471520956489,379.91235732908535,"[3, 0, 251]",251,a,0.34177569652092643,colour,0.28
159,23,1,1,6,6,256,380.42222633572237,381.2723563050822,"[24, 0, 230]",230,a,0.326664986248943,colour,0.28
159,23,1,1,6,7,257,381.7817621481954,382.6083779036271,"[70, 0, 184]",184,l,0.3032047293090727,colour,0.28
159,23,1,1,6,8,258,383.12563862216484,383.928406181818,"[43, 0, 211]",211,l,0.2793329027335858,colour,0.28
159,23,1,1,6,9,259,384.4381834222004,385.12039022315,"[99, 0, 155]",155,l,0.1588426425587386,colour,0.28
159,23,1,1,6,10,260,385.64144329003466,386.47244452670566,"[12, 0, 242]",242,a,0.3076075397984823,colour,0.28
159,23,1,1,6,11,261,386.9852831362805,387.73641032507294,"[79, 0, 175]",175,l,0.2276590549154207,colour,0.28
159,23,1,1,6,12,262,388.2510314840911,389.1044012351049,"[53, 0, 201]",201,a,0.33084527344908565,colour,0.28
159,23,1,1,6,13,263,389.6104755303095,390.3043547612033,"[95, 0, 159]",159,l,0.17034808157768566,colour,0.28
159,23,1,1,6,14,264,390.81378462894645,391.66435373720014,"[66, 0, 188]",188,l,0.32718604522233363,colour,0.28
159,23,1,1,6,15,265,392.17326097059413,392.96043535796343,"[94, 0, 160]",160,l,0.26443447575729806,colour,0.28
159,23,1,1,6,16,266,393.4701547029108,394.44039920285286,"[19, 0, 235]",235,a,0.44694138776685577,colour,0.28
159,23,1,1,6,17,267,394.95467220152204,395.8003765172907,"[52, 0, 202]",202,a,0.3224665821180679,colour,0.28
159,23,1,1,6,18,268,396.31420722628536,397.1684205966012,"[64, 0, 190]",190,a,0.33082951958931517,colour,0.28
159,23,1,1,6,19,269,397.6892558663385,398.5923877340392,"[41, 0, 213]",213,a,0.38007451576413587,colour,0.28
159,23,1,1,6,20,270,399.1112990634283,400.06440257417853,"[21, 0, 233]",233,a,0.4297031184833031,colour,0.28
159,23,1,1,6,21,271,400.5800355249521,401.3523670177092,"[59, 0, 195]",195,a,0.24877986341016367,colour,0.28
159,23,1,1,6,22,272,401.86157633138646,402.8564031570713,"[17, 0, 237]",237,a,0.4715654612373328,colour,0.28
159,23,1,1,6,23,273,403.3771691098227,404.1364489220432,"[40, 0, 214]",214,a,0.23578529062797315,colour,0.28
159,23,1,1,6,24,274,404.6430025284935,405.600428898877,"[73, 0, 181]",181,l,0.434060242769192,colour,0.28
159,23,1,1,6,25,275,406.1118354824139,406.8323860011151,"[49, 0, 205]",205,a,0.1971383110358147,colour,0.28
159,23,1,1,6,26,276,407.3462958732707,408.1844261262013,"[88, 0, 166]",166,l,0.31469756524893455,colour,0.28
159,23,1,1,6,27,277,408.7057911195443,409.50442368435324,"[72, 0, 182]",182,l,0.27526328641397413,colour,0.28
159,23,1,1,6,28,278,410.01840799349884,410.72042448779393,"[98, 0, 156]",156,l,0.17860861893859692,colour,0.28
159,23,1,1,6,29,279,411.2372984490212,411.8563885847543,"[87, 0, 167]",167,l,0.0958453128405381,colour,0.28
159,23,1,1,6,30,280,412.3779426244291,413.192425937159,"[28, 0, 226]",226,a,0.29108331429597456,colour,0.28
159,23,1,1,6,31,281,413.7061959937855,414.4724527974904,"[81, 0, 173]",173,l,0.24280324214487337,colour,0.28
159,23,1,1,6,32,282,414.98758044315036,415.76845407354995,"[42, 0, 212]",212,a,0.25771781682851724,colour,0.28
159,23,1,1,6,33,283,416.28461359714856,417.1684359566134,"[51, 0, 203]",203,a,0.3612340787512949,colour,0.28
159,23,1,1,6,34,284,417.6753904988436,418.43247579812305,"[69, 0, 185]",185,l,0.23379085173655767,colour,0.28
159,23,1,1,6,35,285,418.9409667357104,419.8484037399612,"[78, 0, 176]",176,l,0.3839889565424528,colour,0.28
159,23,1,1,6,36,286,420.3630308066786,421.0805045961897,"[90, 0, 164]",164,l,0.19405882492719684,colour,0.28
159,23,1,1,6,37,287,421.59745496364485,422.37649248146045,"[60, 0, 194]",194,a,0.2554937654058449,colour,0.28
159,23,1,1,6,38,288,422.8945007207367,423.69645144265087,"[58, 0, 196]",196,a,0.2781982308370061,colour,0.28
159,23,1,1,6,39,289,424.20707230234984,425.056461052518,"[91, 0, 163]",163,l,0.326061613362981,colour,0.28
159,23,1,1,6,40,290,425.56649862547056,426.35251195324236,"[16, 0, 238]",238,a,0.2625633108400507,colour,0.28
159,23,1,1,6,41,291,426.86354950256646,427.64042952902673,"[76, 0, 178]",178,l,0.2535107480653096,colour,0.28
159,23,1,1,6,42,292,428.1605034934182,429.0164927177684,"[20, 0, 234]",234,a,0.33256756437185686,colour,0.28
159,23,1,1,6,43,293,429.5356375981646,430.3764723952918,"[84, 0, 170]",170,l,0.31749702646629885,colour,0.28
159,23,1,1,6,44,294,430.8951013367041,431.67243586208497,"[82, 0, 172]",172,l,0.253963277747971,colour,0.28
159,23,1,1,6,45,295,432.19206241679785,432.99243223869416,"[96, 0, 158]",158,l,0.2770056635054061,colour,0.28
159,23,1,1,6,46,296,433.5047151307954,435.32044693705393,"[92, 0, 162]",162,l,1.2925752050068695,colour,0.28
159,23,1,1,6,47,297,435.83301615557866,436.61639858844865,"[67, 0, 187]",187,a,0.26002378833072726,colour,0.28
159,23,1,1,6,48,298,437.1299378510157,437.75244224240305,"[97, 0, 157]",157,l,0.09904964829911478,colour,0.28
159,23,1,1,6,49,299,438.2706997865316,439.8804392176535,"[61, 0, 193]",193,a,1.086514300564886,colour,0.28
159,23,1,1,6,50,300,440.39582837742637,441.1844497569982,"[68, 0, 186]",186,a,0.2651871164998738,colour,0.28
159,23,1,1,7,1,301,445.661127346335,446.4725922191574,"[87, 0, 167]",167,l,0.28733901522355154,colour,0.14
159,23,1,1,7,2,302,446.9901144517935,447.6404484336672,"[97, 0, 157]",157,l,0.12698360810463782,colour,0.14
159,23,1,1,7,3,303,448.1620954211394,449.2884335147537,"[94, 0, 160]",160,l,0.6029841752460925,colour,0.14
159,23,1,1,7,4,304,449.8028419966431,450.36048773955554,"[56, 0, 198]",198,a,0.03416146132803988,colour,0.14
159,23,1,1,7,5,305,450.88103235054587,451.66446952808474,"[43, 0, 211]",211,a,0.2600198498548707,colour,0.14
159,23,1,1,7,6,306,452.17805093222705,452.8964538057335,"[99, 0, 155]",155,l,0.19501784125168342,colour,0.14
159,23,1,1,7,7,307,453.41337778547313,454.1924846202892,"[82, 0, 172]",172,l,0.2565524249075679,colour,0.14
159,23,1,1,7,8,308,454.7094790985575,455.41652934550075,"[66, 0, 188]",188,l,0.18359511000744533,colour,0.14
159,23,1,1,7,9,309,455.92831914171984,456.6484411553829,"[50, 0, 204]",204,a,0.1967925137578277,colour,0.14
159,23,1,1,7,10,310,457.1628149787721,457.88846384095086,"[92, 0, 162]",162,l,0.20223783605615608,colour,0.14
159,23,1,1,7,11,311,458.3972186557221,459.10444731514144,"[65, 0, 189]",189,a,0.18374949783901684,colour,0.14
159,23,1,1,7,12,312,459.6161291974131,460.2004592250596,"[91, 0, 163]",163,l,0.060808330643340014,colour,0.14
159,23,1,1,7,13,313,460.7100541145046,461.3765153245622,"[38, 0, 216]",216,a,0.1431454947887687,colour,0.14
159,23,1,1,7,14,314,461.89752703756676,462.5364410451002,"[26, 0, 228]",228,a,0.11539939977228642,colour,0.14
159,23,1,1,7,15,315,463.05388884074637,464.6245523934049,"[98, 0, 156]",156,l,1.0472481942124432,colour,0.14
159,23,1,1,7,16,316,465.13220719477977,465.7924751679675,"[72, 0, 182]",182,a,0.13685458397958428,colour,0.14
159,23,1,1,7,17,317,466.3041452348407,467.0004418958124,"[13, 0, 241]",241,a,0.17297661339398474,colour,0.14
159,23,1,1,7,18,318,467.50741809960164,468.12048041399976,"[81, 0, 173]",173,l,0.08967846367158927,colour,0.14
159,23,1,1,7,19,319,468.6325183335575,470.04049254447455,"[74, 0, 180]",180,l,0.8846407725650351,colour,0.14
159,23,1,1,7,20,320,470.5545902814338,471.3124735138117,"[67, 0, 187]",187,l,0.234771135772462,colour,0.14
159,23,1,1,7,21,321,471.82025198300835,472.5284294187586,"[68, 0, 186]",186,l,0.18488535127835348,colour,0.14
159,23,1,1,7,22,322,473.03903452458326,473.6084913314262,"[83, 0, 171]",171,l,0.04615172542980872,colour,0.14
159,23,1,1,7,23,323,474.11729458933405,475.8244929225766,"[60, 0, 194]",194,l,1.1836494608287467,colour,0.14
159,23,1,1,7,24,324,476.33620355564926,477.1365556544479,"[58, 0, 196]",196,l,0.2768922357063275,colour,0.14
159,23,1,1,7,25,325,477.648814128057,478.4565343079739,"[70, 0, 184]",184,l,0.2840909627993824,colour,0.14
159,23,1,1,7,26,326,478.9771368144138,480.7044677951635,"[79, 0, 175]",175,l,1.2042240041628247,colour,0.14
159,23,1,1,7,27,327,481.2116188668151,481.9924728048936,"[27, 0, 227]",227,a,0.25808763873646967,colour,0.14
159,23,1,1,7,28,328,482.50859767000657,483.30447842902504,"[88, 0, 166]",166,l,0.2724354682432022,colour,0.14
159,23,1,1,7,29,329,483.82105858072464,484.51251211077033,"[52, 0, 202]",202,a,0.1681067009049002,colour,0.14
159,23,1,1,7,30,330,485.0244488117605,485.8326010413293,"[61, 0, 193]",193,a,0.28478255732625257,colour,0.14
159,23,1,1,7,31,331,486.3526301071979,487.1845241939882,"[62, 0, 192]",192,a,0.3084074421203695,colour,0.14
159,23,1,1,7,32,332,487.696468771901,488.3524973809108,"[93, 0, 161]",161,l,0.13259434593783226,colour,0.14
159,23,1,1,7,33,333,488.86842374736443,489.92855741888343,"[95, 0, 159]",159,l,0.536729340776219,colour,0.14
159,23,1,1,7,34,334,490.4467287106236,491.3765338353551,"[57, 0, 197]",197,a,0.40634132316336036,colour,0.14
159,23,1,1,7,35,335,491.88431860609853,492.68051207927056,"[77, 0, 177]",177,l,0.2727505454822676,colour,0.14
159,23,1,1,7,36,336,493.19705560324655,494.27258000991424,"[64, 0, 190]",190,a,0.5521110174595378,colour,0.14
159,23,1,1,7,37,337,494.790982489576,495.5924858018261,"[89, 0, 165]",165,l,0.27828133245930076,colour,0.14
159,23,1,1,7,38,338,496.10352098807925,496.8324947027577,"[84, 0, 170]",170,l,0.20558198702929076,colour,0.14
159,23,1,1,7,39,339,497.35365410821396,498.56050900726405,"[90, 0, 164]",164,l,0.6835785684379516,colour,0.14
159,23,1,1,7,40,340,499.07248666828673,499.79250864492496,"[78, 0, 176]",176,l,0.19661055665346794,colour,0.14
159,23,1,1,7,41,341,500.3069458776008,501.0085921561549,"[71, 0, 183]",183,l,0.17816475388826802,colour,0.14
159,23,1,1,7,42,342,501.5258631146862,502.24849196158175,"[55, 0, 199]",199,a,0.19907918678654823,colour,0.14
159,23,1,1,7,43,343,502.7602998747461,503.5604711979977,"[86, 0, 168]",168,l,0.2770096019812627,colour,0.14
159,23,1,1,7,44,344,504.0729356533411,505.16060707505676,"[28, 0, 226]",226,a,0.5642403094097972,colour,0.14
159,23,1,1,7,45,345,505.6668207919429,506.64050790449255,"[59, 0, 195]",195,l,0.4502296125283465,colour,0.14
159,23,1,1,7,46,346,507.15131308436685,507.96849975975056,"[73, 0, 181]",181,l,0.2937303569051437,colour,0.14
159,23,1,1,7,47,347,508.479538884465,509.35253755326266,"[29, 0, 225]",225,a,0.3494367994426284,colour,0.14
159,23,1,1,7,48,348,509.87020905374084,510.92851094498474,"[75, 0, 179]",179,l,0.5349314313061768,colour,0.14
159,23,1,1,7,49,349,511.4486266571039,512.3365383252094,"[63, 0, 191]",191,l,0.36458886360924225,colour,0.14
159,23,1,1,7,50,350,512.8549270202348,513.7524871409114,"[53, 0, 201]",201,a,0.3745319133886369,colour,0.14
159,23,1,1,8,1,351,518.3233090198628,519.5525154978532,"[88, 0, 166]",166,l,0.7050365095637972,colour,0.06
159,23,1,1,8,2,352,520.0741983253538,520.792501555683,"[69, 0, 185]",185,l,0.1953801800555084,colour,0.06
159,23,1,1,8,3,353,521.308622088487,522.1205012878781,"[92, 0, 162]",162,l,0.28836813624366187,colour,0.06
159,23,1,1,8,4,354,522.6369601348415,523.4085649807384,"[58, 0, 196]",196,a,0.2483253645041259,colour,0.06
159,23,1,1,8,5,355,523.9182197348564,524.600537206672,"[90, 0, 164]",164,l,0.15879223018418998,colour,0.06
159,23,1,1,8,6,356,525.1214894488512,525.7205280694325,"[87, 0, 167]",167,l,0.0758087638678262,colour,0.06
159,23,1,1,8,7,357,526.2309378273785,527.1845789386571,"[70, 0, 184]",184,l,0.43018479279999156,colour,0.06
159,23,1,1,8,8,358,527.6998412798421,528.3765582538326,"[81, 0, 173]",173,l,0.15327759091451298,colour,0.06
159,23,1,1,8,9,359,528.8874173906806,529.6886131087813,"[52, 0, 202]",202,a,0.27783392278070096,colour,0.06
159,23,1,1,8,10,360,530.1999996061495,530.9684938520513,"[54, 0, 200]",200,a,0.24505565052095335,colour,0.06
159,23,1,1,8,11,361,531.4814045355306,532.0725169944781,"[16, 0, 238]",238,a,0.06773097130644601,colour,0.06
159,23,1,1,8,12,362,532.5908351909748,533.6805565839313,"[65, 0, 189]",189,a,0.5662398683052743,colour,0.06
159,23,1,1,8,13,363,534.20035997573,534.9365658944589,"[77, 0, 177]",177,l,0.212808283380582,colour,0.06
159,23,1,1,8,14,364,535.4504336250393,536.2725099052332,"[61, 0, 193]",193,l,0.2991851315018721,colour,0.06
159,23,1,1,8,15,365,536.7942837112932,537.4085059037607,"[63, 0, 191]",191,l,0.09063826770579908,colour,0.06
159,23,1,1,8,16,366,537.9193851267773,538.7285160649917,"[98, 0, 156]",156,l,0.28572936440468766,colour,0.06
159,23,1,1,8,17,367,539.2474986806046,539.9765866107919,"[25, 0, 229]",229,a,0.20636534781078808,colour,0.06
159,23,1,1,8,18,368,540.4976432222902,541.0485931801522,"[51, 0, 203]",203,a,0.027425110078183934,colour,0.06
159,23,1,1,8,19,369,541.5602856962796,542.1925566942082,"[57, 0, 197]",197,a,0.1088635164196603,colour,0.06
159,23,1,1,8,20,370,542.7010547210375,543.4805471316067,"[68, 0, 186]",186,a,0.25599079973471817,colour,0.06
159,23,1,1,8,21,371,543.998070151938,544.7689688309765,"[99, 0, 155]",155,l,0.24745693287695758,colour,0.06
159,23,1,1,8,22,372,545.2793124227028,546.0085275653109,"[83, 0, 171]",171,l,0.20570723022683524,colour,0.06
159,23,1,1,8,23,373,546.5294644474634,547.0885611210397,"[86, 0, 168]",168,l,0.035676195126143284,colour,0.06
159,23,1,1,8,24,374,547.6076414105919,548.3845537324814,"[95, 0, 159]",159,l,0.253392594109755,colour,0.06
159,23,1,1,8,25,375,548.9056067993661,549.6005541420745,"[93, 0, 161]",161,l,0.17258355453668628,colour,0.06
159,23,1,1,8,26,376,550.1078210046253,550.9206072325906,"[72, 0, 182]",182,a,0.2892535032588057,colour,0.06
159,23,1,1,8,27,377,551.4361346325022,552.6405366552935,"[79, 0, 175]",175,l,0.6810666152014164,colour,0.06
159,23,1,1,8,28,378,553.1550479311263,553.9206824572757,"[56, 0, 198]",198,a,0.24250155568006448,colour,0.06
159,23,1,1,8,29,379,554.4363756665844,555.5445464069344,"[67, 0, 187]",187,l,0.5847439603676321,colour,0.06
159,23,1,1,8,30,380,556.0614668420603,556.9845395540033,"[89, 0, 165]",165,l,0.40074003765766975,colour,0.06
159,23,1,1,8,31,381,557.4991063621856,558.2326845367934,"[66, 0, 188]",188,a,0.2100887730048271,colour,0.06
159,23,1,1,8,32,382,558.7491457468423,559.4405980953597,"[85, 0, 169]",169,l,0.16867856608587317,colour,0.06
159,23,1,1,8,33,383,559.9525533071283,560.6165356470447,"[64, 0, 190]",190,a,0.14076587397721596,colour,0.06
159,23,1,1,8,34,384,561.1244208486605,561.8006360621657,"[71, 0, 183]",183,a,0.15281875969958492,colour,0.06
159,23,1,1,8,35,385,562.3119957779563,563.1525261317147,"[78, 0, 176]",176,l,0.3171228722494561,colour,0.06
159,23,1,1,8,36,386,563.6714331287949,564.4246555811987,"[94, 0, 160]",160,l,0.23028128519945312,colour,0.06
159,23,1,1,8,37,387,564.93715508889,566.0085897930694,"[48, 0, 206]",206,l,0.5480587303900393,colour,0.06
159,23,1,1,8,38,388,566.5154096397891,567.3205615463958,"[91, 0, 163]",163,l,0.28171567431127187,colour,0.06
159,23,1,1,8,39,389,567.8280245445058,569.624572085726,"[96, 0, 158]",158,l,1.2729384102713084,colour,0.06
159,23,1,1,8,40,390,570.1407965940161,570.8165915732534,"[62, 0, 192]",192,a,0.15245996549492702,colour,0.06
159,23,1,1,8,41,391,571.3283289878891,572.0405748584017,"[84, 0, 170]",170,l,0.18874977352970745,colour,0.06
159,23,1,1,8,42,392,572.5471430371836,573.1365725898504,"[59, 0, 195]",195,a,0.06637889612466097,colour,0.06
159,23,1,1,8,43,393,573.656637495762,574.4086311469582,"[74, 0, 180]",180,l,0.22861767740687355,colour,0.06
159,23,1,1,8,44,394,574.9223992343614,575.5045855552744,"[75, 0, 179]",179,l,0.05891353492916096,colour,0.06
159,23,1,1,8,45,395,576.0162453821395,576.6566000803432,"[50, 0, 204]",204,a,0.11694721669482533,colour,0.06
159,23,1,1,8,46,396,577.172529597563,577.8886300441809,"[76, 0, 178]",178,l,0.19265161122893915,colour,0.06
159,23,1,1,8,47,397,578.407010468436,579.1205540633091,"[82, 0, 172]",172,l,0.19006285790237598,colour,0.06
159,23,1,1,8,48,398,579.6415303301183,580.5366115806537,"[80, 0, 174]",174,l,0.37236772663891315,colour,0.06
159,23,1,1,8,49,399,581.04791655179,581.8407075846917,"[53, 0, 201]",201,a,0.2694552314642351,colour,0.06
159,23,1,1,8,50,400,582.3605267303647,582.9686821107025,"[73, 0, 181]",181,l,0.08482706198992673,colour,0.06
159,23,1,1,9,1,401,588.0476581884577,588.5766295400681,"[99, 0, 155]",155,l,0.0047836601006565616,colour,0.06
159,23,1,1,9,2,402,589.1110741770535,589.7205414602213,"[75, 0, 179]",179,l,0.0860842201509513,colour,0.06
159,23,1,1,9,3,403,590.2361334509624,591.6966404889972,"[97, 0, 157]",157,l,0.9375473600521218,colour,0.06
159,23,1,1,9,4,404,592.2049825525901,592.736569045228,"[80, 0, 174]",174,l,0.008415712902205996,colour,0.06
159,23,1,1,9,5,405,593.252018857369,593.8086488700501,"[65, 0, 189]",189,a,0.03364788544422481,colour,0.06
159,23,1,1,9,6,406,594.3302474143857,594.992647672756,"[82, 0, 172]",172,l,0.1390483092109207,colour,0.06
159,23,1,1,9,7,407,595.502105503605,596.1045753152721,"[77, 0, 177]",177,l,0.07900010239973199,colour,0.06
159,23,1,1,9,8,408,596.6116007498786,597.3045902814338,"[40, 0, 214]",214,a,0.1694103329500649,colour,0.06
159,23,1,1,9,9,409,597.8147889376269,598.4085854607547,"[53, 0, 201]",201,a,0.07033981078711804,colour,0.06
159,23,1,1,9,10,410,598.9242924546852,599.5445976069896,"[94, 0, 160]",160,l,0.09691618158831261,colour,0.06
159,23,1,1,9,11,411,600.0649933439854,601.4006545729499,"[92, 0, 162]",162,l,0.8122561105265049,colour,0.06
159,23,1,1,9,12,412,601.9089151103108,603.0246031996066,"[85, 0, 169]",169,l,0.5921856907662004,colour,0.06
159,23,1,1,9,13,413,603.534053547366,604.072613093027,"[69, 0, 185]",185,a,0.015114648718736134,colour,0.06
159,23,1,1,9,14,414,604.5808161288005,605.6726524776896,"[86, 0, 168]",168,l,0.568272510310635,colour,0.06
159,23,1,1,9,15,415,606.1904830921703,606.8246114703798,"[52, 0, 202]",202,a,0.11073310594656505,colour,0.06
159,23,1,1,9,16,416,607.3311375075718,607.9526379841263,"[56, 0, 198]",198,a,0.0979819303174736,colour,0.06
159,23,1,1,9,17,417,608.4719151969621,609.0405787968775,"[76, 0, 178]",178,l,0.045737792737782,colour,0.06
159,23,1,1,9,18,418,609.5501268185762,610.4965896827925,"[51, 0, 203]",203,a,0.4230175734410295,colour,0.06
159,23,1,1,9,19,419,611.0033981079614,611.6726174253417,"[66, 0, 188]",188,l,0.1458484636095818,colour,0.06
159,23,1,1,9,20,420,612.1910525942658,613.0726040345617,"[59, 0, 195]",195,a,0.35818294959608465,colour,0.06
159,23,1,1,9,21,421,613.5817668743548,614.1206206233765,"[91, 0, 163]",163,l,0.01548565216944553,colour,0.06
159,23,1,1,9,22,422,614.6287685206335,615.4166065394238,"[60, 0, 194]",194,a,0.26455971895484254,colour,0.06
159,23,1,1,9,23,423,615.9257548068854,616.4806459870888,"[64, 0, 190]",190,a,0.031561286450596526,colour,0.06
159,23,1,1,9,24,424,616.9883098469436,617.7206958480674,"[79, 0, 175]",175,l,0.2092679968191078,colour,0.06
159,23,1,1,9,25,425,618.2383964931796,618.9206797003571,"[72, 0, 182]",182,l,0.15916953518171795,colour,0.06
159,23,1,1,9,26,426,619.4415961024933,620.1046178506949,"[11, 0, 243]",243,a,0.13962568824354094,colour,0.06
159,23,1,1,9,27,427,620.6135187825421,621.2645841374324,"[89, 0, 165]",165,l,0.12764369491196703,colour,0.06
159,23,1,1,9,28,428,621.7855273211317,622.504665112283,"[73, 0, 181]",181,l,0.19572125117701944,colour,0.06
159,23,1,1,9,29,429,623.0200318228017,623.5926500358328,"[62, 0, 192]",192,l,0.04925878081121482,colour,0.06
159,23,1,1,9,30,430,624.1138236197585,624.8006411821698,"[54, 0, 200]",200,a,0.16335769930446986,colour,0.06
159,23,1,1,9,31,431,625.3170448906312,626.0086472946568,"[95, 0, 159]",159,l,0.16816695942543447,colour,0.06
159,23,1,1,9,32,432,626.5203216938535,627.5446035146888,"[67, 0, 187]",187,l,0.5009964317578124,colour,0.06
159,23,1,1,9,33,433,628.0516340692993,628.5926417650626,"[71, 0, 183]",183,l,0.01752380802645348,colour,0.06
159,23,1,1,9,34,434,629.1141257000563,629.9126377478242,"[17, 0, 237]",237,a,0.2754495758272242,colour,0.06
159,23,1,1,9,35,435,630.4268725433794,631.176658684708,"[57, 0, 197]",197,a,0.2263955952221295,colour,0.06
159,23,1,1,9,36,436,631.6925204603176,633.2166171732824,"[55, 0, 199]",199,a,1.0006959268357605,colour,0.06
159,23,1,1,9,37,437,633.7239714697498,634.5686903814785,"[96, 0, 158]",158,l,0.3213488456385676,colour,0.06
159,23,1,1,9,38,438,635.0834277252143,635.9366710514878,"[87, 0, 167]",167,l,0.3298007924167905,colour,0.06
159,23,1,1,9,39,439,636.4428894945304,637.104613518386,"[74, 0, 180]",180,l,0.13820035761455074,colour,0.06
159,23,1,1,9,40,440,637.6148747961852,638.2566552188509,"[61, 0, 193]",193,a,0.1183544303785311,colour,0.06
159,23,1,1,9,41,441,638.7712129685679,639.4966653013253,"[93, 0, 161]",161,l,0.20210156514076516,colour,0.06
159,23,1,1,9,42,442,640.0057411010348,640.5366387560643,"[68, 0, 186]",186,l,0.007409434983856045,colour,0.06
159,23,1,1,9,43,443,641.0526474364451,641.6406685938855,"[70, 0, 184]",184,a,0.0645624758763006,colour,0.06
159,23,1,1,9,44,444,642.1621198396169,643.0566650650144,"[81, 0, 173]",173,a,0.3711286854086211,colour,0.06
159,23,1,1,9,45,445,643.5685312674759,644.4007242837833,"[90, 0, 164]",164,l,0.30877017478633206,colour,0.06
159,23,1,1,9,46,446,644.9123419690732,645.5286460343486,"[98, 0, 156]",156,l,0.09286468219943345,colour,0.06
159,23,1,1,9,47,447,646.0374945846124,648.9606503981777,"[83, 0, 171]",171,l,2.399939741488197,colour,0.06
159,23,1,1,9,48,448,649.475272738724,650.480810614943,"[88, 0, 166]",166,l,0.4821504808787722,colour,0.06
159,23,1,1,9,49,449,650.9909994249756,652.3686557229812,"[84, 0, 170]",170,l,0.8542039179883432,colour,0.06
159,23,1,1,9,50,450,652.881821225179,653.6246508550394,"[63, 0, 191]",191,a,0.21946744070737623,colour,0.06
159,23,1,1,10,1,451,658.3190243633435,659.1527628334879,"[65, 0, 189]",189,a,0.3096575110539561,colour,0.06
159,23,1,1,10,2,452,659.6635577733396,660.3366541160794,"[62, 0, 192]",192,a,0.14964790118392557,colour,0.06
159,23,1,1,10,3,453,660.8511204934039,661.5126464124478,"[55, 0, 199]",199,a,0.1380503020773176,colour,0.06
159,23,1,1,10,4,454,662.023095161203,662.776868998757,"[85, 0, 169]",169,l,0.23032775908359326,colour,0.06
159,23,1,1,10,5,455,663.288828936682,664.0247111135541,"[66, 0, 188]",188,l,0.21257512622105423,colour,0.06
159,23,1,1,10,6,456,664.5390735153924,665.2326833552506,"[87, 0, 167]",167,l,0.1703484754107194,colour,0.06
159,23,1,1,10,7,457,665.7421443368803,666.4086886485456,"[96, 0, 158]",158,l,0.1430619993188884,colour,0.06
159,23,1,1,10,8,458,666.9297539246763,667.6967149259872,"[50, 0, 204]",204,a,0.2435586398059968,colour,0.06
159,23,1,1,10,9,459,668.2111171063298,668.9287133821199,"[84, 0, 170]",170,l,0.19407969879102893,colour,0.06
159,23,1,1,10,10,460,669.445615306453,670.1206678849558,"[40, 0, 214]",214,a,0.15168290626024827,colour,0.06
159,23,1,1,10,11,461,670.6331394295412,671.3046670815093,"[90, 0, 164]",164,l,0.14811701967846602,colour,0.06
159,23,1,1,10,12,462,671.8207505927276,672.4567009050515,"[54, 0, 200]",200,a,0.11260505855898373,colour,0.06
159,23,1,1,10,13,463,672.977238820662,673.5447039455466,"[60, 0, 194]",194,a,0.04440422833431512,colour,0.06
159,23,1,1,10,14,464,674.0553429221764,674.8006880499015,"[57, 0, 197]",197,a,0.2221377202513395,colour,0.06
159,23,1,1,10,15,465,675.3210715776659,675.9686494214402,"[5, 0, 249]",249,a,0.12430820855661295,colour,0.06
159,23,1,1,10,16,466,676.4774833993579,677.1126598032279,"[77, 0, 177]",177,l,0.11185517474950757,colour,0.06
159,23,1,1,10,17,467,677.6337837624887,679.0807259379362,"[59, 0, 195]",195,l,0.9236422140384093,colour,0.06
159,23,1,1,10,18,468,679.5870660795626,680.3527403842309,"[72, 0, 182]",182,l,0.2423574078566162,colour,0.06
159,23,1,1,10,19,469,680.8683607319253,681.6566756988759,"[64, 0, 190]",190,a,0.2649326916289283,colour,0.06
159,23,1,1,10,20,470,682.165427362881,682.89670153521,"[73, 0, 181]",181,l,0.20787338621448725,colour,0.06
159,23,1,1,10,21,471,683.4154718675418,684.1046907123091,"[67, 0, 187]",187,l,0.16574480319104623,colour,0.06
159,23,1,1,10,22,472,684.6187388246035,685.2247375012812,"[74, 0, 180]",180,l,0.08263097367307637,colour,0.06
159,23,1,1,10,23,473,685.7438315754553,686.4967641568073,"[97, 0, 157]",157,l,0.22955660756269936,colour,0.06
159,23,1,1,10,24,474,687.0095169078268,687.8006415760174,"[95, 0, 159]",159,l,0.2676132111955667,colour,0.06
159,23,1,1,10,25,475,688.3064976802416,688.9607433459605,"[79, 0, 175]",175,l,0.13080943340901285,colour,0.06
159,23,1,1,10,26,476,689.4784747111116,690.1926795743202,"[89, 0, 165]",165,l,0.19075248319131788,colour,0.06
159,23,1,1,10,27,477,690.7129752743058,691.520663158808,"[58, 0, 196]",196,a,0.28429733839584514,colour,0.06
159,23,1,1,10,28,478,692.0411868959345,692.7526663410827,"[83, 0, 171]",171,l,0.18804793899471406,colour,0.06
159,23,1,1,10,29,479,693.2601573022985,693.7927165958972,"[76, 0, 178]",178,l,0.009570470952894539,colour,0.06
159,23,1,1,10,30,480,694.3070372500079,694.9287437082967,"[82, 0, 172]",172,l,0.09832812142849434,colour,0.06
159,23,1,1,10,31,481,695.4476672469318,696.1207415342651,"[98, 0, 156]",156,l,0.1496199380926555,colour,0.06
159,23,1,1,10,32,482,696.6352866808884,697.3126889478735,"[86, 0, 168]",168,l,0.15402550550061278,colour,0.06
159,23,1,1,10,33,483,697.8228824840626,698.4166746748815,"[94, 0, 160]",160,l,0.07035005080979317,colour,0.06
159,23,1,1,10,34,484,698.9322871456388,699.8806621348049,"[53, 0, 201]",201,a,0.42488479989697225,colour,0.06
159,23,1,1,10,35,485,700.4011854780838,701.1606913582218,"[80, 0, 174]",174,l,0.2359853646630654,colour,0.06
159,23,1,1,10,36,486,701.6669417028315,702.4247241104895,"[68, 0, 186]",186,l,0.23437177538289689,colour,0.06
159,23,1,1,10,37,487,702.9326258536603,703.4888175151427,"[81, 0, 173]",173,l,0.03272589069092646,colour,0.06
159,23,1,1,10,38,488,703.9952163398993,704.7526797318715,"[69, 0, 185]",185,a,0.2339416949689621,colour,0.06
159,23,1,1,10,39,489,705.2610190385312,705.8887285058154,"[70, 0, 184]",184,a,0.10469268153246958,colour,0.06
159,23,1,1,10,40,490,706.401676604728,708.5767539955705,"[61, 0, 193]",193,a,1.6515230045770295,colour,0.06
159,23,1,1,10,41,491,709.0893846541585,713.7767181555391,"[52, 0, 202]",202,l,4.163950044516241,colour,0.06
159,23,1,1,10,42,492,714.2929891377134,716.7847183603299,"[78, 0, 176]",176,l,1.968216977926204,colour,0.06
159,23,1,1,10,43,493,717.2932077225414,718.0167451734014,"[51, 0, 203]",203,a,0.20010279394045938,colour,0.06
159,23,1,1,10,44,494,718.5277051349694,720.0646873252263,"[63, 0, 191]",191,a,1.0136688380734995,colour,0.06
159,23,1,1,10,45,495,720.5746701535099,721.1687459138338,"[21, 0, 233]",233,a,0.07060998951783404,colour,0.06
159,23,1,1,10,46,496,721.6841539782326,722.2886954227142,"[56, 0, 198]",198,l,0.08099847975245211,colour,0.06
159,23,1,1,10,47,497,722.8091667782573,723.4727808716561,"[75, 0, 179]",179,l,0.13997463628766127,colour,0.06
159,23,1,1,10,48,498,723.9812477846135,725.4007577607408,"[71, 0, 183]",183,l,0.8960107283783145,colour,0.06
159,23,1,1,10,49,499,725.9189129047736,728.0407477570407,"[93, 0, 161]",161,l,1.598467149262433,colour,0.06
159,23,1,1,10,50,500,728.5596961080009,729.3207876143133,"[92, 0, 162]",162,l,0.2376131324272137,colour,0.06
159,23,1,1,11,1,501,747.3104424471967,748.1767252447753,"[63, 0, 191]",191,l,0.34205690295493696,colour,0.06
159,23,1,1,11,2,502,748.686311469588,750.3847959481063,"[80, 0, 174]",174,l,1.1750647877634037,colour,0.06
159,23,1,1,11,3,503,750.9052751805721,751.6567205973843,"[61, 0, 193]",193,l,0.2285357573273359,colour,0.06
159,23,1,1,11,4,504,752.1710503099457,753.8487601710804,"[98, 0, 156]",156,l,1.1544882751913974,colour,0.06
159,23,1,1,11,5,505,754.3586543839046,755.1607433459576,"[77, 0, 177]",177,l,0.2793876474024728,colour,0.06
159,23,1,1,11,6,506,755.6712688947882,756.336798657765,"[84, 0, 170]",170,l,0.142114404545282,colour,0.06
159,23,1,1,11,7,507,756.8432341102598,757.480767291825,"[69, 0, 185]",185,l,0.11407528769632336,colour,0.06
159,23,1,1,11,8,508,757.9995407749229,759.3048344662966,"[75, 0, 179]",179,l,0.7816900742764119,colour,0.06
159,23,1,1,11,9,509,759.812229722811,760.632719982983,"[83, 0, 171]",171,l,0.29701936937635764,colour,0.06
159,23,1,1,11,10,510,761.140505147574,761.9447563271387,"[66, 0, 188]",188,l,0.28088702117383946,colour,0.06
159,23,1,1,11,11,511,762.4530881507235,763.1928402637132,"[88, 0, 166]",166,l,0.21623356675263494,colour,0.06
159,23,1,1,11,12,512,763.7031633754232,764.3608032106276,"[57, 0, 197]",197,a,0.1344257323507918,colour,0.06
159,23,1,1,11,13,513,764.8751163816487,765.5767673863447,"[71, 0, 183]",183,l,0.17820886468689423,colour,0.06
159,23,1,1,11,14,514,766.0939839940693,766.8407666616695,"[90, 0, 164]",164,l,0.2233058690908365,colour,0.06
159,23,1,1,11,15,515,767.3597287972661,768.1367718762049,"[54, 0, 200]",200,a,0.25426614574098494,colour,0.06
159,23,1,1,11,16,516,768.6566674281057,769.4647605806822,"[65, 0, 189]",189,a,0.28470890801690985,colour,0.06
159,23,1,1,11,17,517,769.9849956282997,770.6967491906398,"[89, 0, 165]",165,l,0.18843981630925555,colour,0.06
159,23,1,1,11,18,518,771.2037982560432,771.8567591943429,"[2, 0, 252]",252,a,0.1296503430348821,colour,0.06
159,23,1,1,11,19,519,772.3757343268662,773.0407796586078,"[76, 0, 178]",178,l,0.1416236717486754,colour,0.06
159,23,1,1,11,20,520,773.5476400715124,774.3767803832889,"[86, 0, 168]",168,l,0.3059419627825264,colour,0.06
159,23,1,1,11,21,521,774.891584287092,775.6167573826533,"[95, 0, 159]",159,l,0.2016860570438439,colour,0.06
159,23,1,1,11,22,522,776.1259513363184,776.8808523626794,"[96, 0, 158]",158,l,0.23142304632347077,colour,0.06
159,23,1,1,11,23,523,777.3917560041882,778.1607772167627,"[87, 0, 167]",167,l,0.24542980473779608,colour,0.06
159,23,1,1,11,24,524,778.673144785862,779.480747599504,"[59, 0, 195]",195,a,0.2842898553062696,colour,0.06
159,23,1,1,11,25,525,780.0012973304983,780.7847538065253,"[38, 0, 216]",216,a,0.2599528959544841,colour,0.06
159,23,1,1,11,26,526,781.298325364507,782.1608063614112,"[70, 0, 184]",184,l,0.3389687522285385,colour,0.06
159,23,1,1,11,27,527,782.673373610698,783.2408296771173,"[85, 0, 169]",169,l,0.04395642482268158,colour,0.06
159,23,1,1,11,28,528,783.7515781430848,784.4007983269403,"[73, 0, 181]",181,l,0.1255716682644561,colour,0.06
159,23,1,1,11,29,529,784.9079470355064,785.8407981694036,"[67, 0, 187]",187,l,0.4097425819054479,colour,0.06
159,23,1,1,11,30,530,786.3611395555781,786.9847770434717,"[74, 0, 180]",180,l,0.10083574237069115,colour,0.06
159,23,1,1,11,31,531,787.5019404819031,789.1447504194366,"[93, 0, 161]",161,l,1.1194060006382642,colour,0.06
159,23,1,1,11,32,532,789.6583456082153,790.3688077477418,"[81, 0, 173]",173,l,0.18699597488739528,colour,0.06
159,23,1,1,11,33,533,790.8772368514328,791.5688341354689,"[51, 0, 203]",203,a,0.16835246115806513,colour,0.06
159,23,1,1,11,34,534,792.0804238576384,792.7608004537033,"[50, 0, 204]",204,a,0.15692421604762785,colour,0.06
159,23,1,1,11,35,535,793.2680614085548,793.9607992721722,"[53, 0, 201]",201,a,0.16925240050477441,colour,0.06
159,23,1,1,11,36,536,794.4712791347993,795.1927894575056,"[79, 0, 175]",175,l,0.19886532811506186,colour,0.06
159,23,1,1,11,37,537,795.7057741841418,796.4328763400554,"[62, 0, 192]",192,a,0.20386481611058116,colour,0.06
159,23,1,1,11,38,538,796.940219608834,797.584820366581,"[92, 0, 162]",162,l,0.1212102116405731,colour,0.06
159,23,1,1,11,39,539,798.0965132765559,798.7368758516823,"[94, 0, 160]",160,l,0.11688262585084885,colour,0.06
159,23,1,1,11,40,540,799.2528502674104,799.896819295318,"[82, 0, 172]",172,l,0.12135593486891594,colour,0.06
159,23,1,1,11,41,541,800.4092790245195,801.1848128834972,"[52, 0, 202]",202,a,0.2522461068147095,colour,0.06
159,23,1,1,11,42,542,801.7062515261496,802.6888592628675,"[72, 0, 182]",182,l,0.4592018305993406,colour,0.06
159,23,1,1,11,43,543,803.2062909108063,803.9688053846621,"[58, 0, 196]",196,a,0.2390368876658613,colour,0.06
159,23,1,1,11,44,544,804.4877076555858,805.1047966570331,"[11, 0, 243]",243,a,0.09375123077188618,colour,0.06
159,23,1,1,11,45,545,805.6128102526127,806.2968657692109,"[56, 0, 198]",198,a,0.16065748741675634,colour,0.06
159,23,1,1,11,46,546,806.8158921018039,807.4648039038002,"[99, 0, 155]",155,l,0.1252944002917502,colour,0.06
159,23,1,1,11,47,547,807.9723165265896,808.592787882124,"[60, 0, 194]",194,a,0.09721944341436028,colour,0.06
159,23,1,1,11,48,548,809.1130508928472,809.8168337888783,"[55, 0, 199]",199,a,0.18039510685775895,colour,0.06
159,23,1,1,11,49,549,810.3319921545772,810.9448150102689,"[97, 0, 157]",157,l,0.08982103611924686,colour,0.06
159,23,1,1,11,50,550,811.4569588745362,812.2007857238495,"[68, 0, 186]",186,a,0.22034453695232514,colour,0.06
159,23,1,1,12,1,551,817.2067016927467,817.9368041716225,"[78, 0, 176]",176,l,0.2060325474885758,colour,0.06
159,23,1,1,12,2,552,818.4575929674756,819.7529050120793,"[51, 0, 203]",203,a,0.771687947504688,colour,0.06
159,23,1,1,12,3,553,820.2702236260666,820.9848128835001,"[53, 0, 201]",201,a,0.19119910517474636,colour,0.06
159,23,1,1,12,4,554,821.5046150937706,822.1767736878974,"[68, 0, 186]",186,l,0.14898111899674404,colour,0.06
159,23,1,1,12,5,555,822.6921789953776,823.3208423589822,"[90, 0, 164]",164,l,0.10544453459442593,colour,0.06
159,23,1,1,12,6,556,823.833041755599,824.4488255496108,"[29, 0, 225]",225,a,0.09232432475255337,colour,0.06
159,23,1,1,12,7,557,824.9581152079918,825.7688361046894,"[60, 0, 194]",194,a,0.28726930437551346,colour,0.06
159,23,1,1,12,8,558,826.2863835435128,826.8328129307629,"[91, 0, 163]",163,l,0.022975038009462878,colour,0.06
159,23,1,1,12,9,559,827.3488968358288,828.1047982324089,"[73, 0, 181]",181,a,0.2325329058803618,colour,0.06
159,23,1,1,12,10,560,828.6146569990378,829.248909045069,"[50, 0, 204]",204,a,0.11089537071529776,colour,0.06
159,23,1,1,12,11,561,829.7552881775046,830.3128460926382,"[61, 0, 193]",193,a,0.03424535063095391,colour,0.06
159,23,1,1,12,12,562,830.8335202791495,831.4408458248217,"[97, 0, 157]",157,l,0.08385150409594644,colour,0.06
159,23,1,1,12,13,563,831.9586256331095,832.5368400116567,"[95, 0, 159]",159,l,0.05473600466211792,colour,0.06
159,23,1,1,12,14,564,833.0542299118533,834.5608867060946,"[89, 0, 165]",165,l,0.9832784573809477,colour,0.06
159,23,1,1,12,15,565,835.0700373366417,835.9609170322801,"[82, 0, 172]",172,l,0.3674521279463079,colour,0.06
159,23,1,1,12,16,566,836.4763573921082,837.1769135034119,"[98, 0, 156]",156,l,0.17703008199168835,colour,0.06
159,23,1,1,12,17,567,837.6952706907177,838.560799666011,"[75, 0, 179]",179,l,0.3420041275094263,colour,0.06
159,23,1,1,12,18,568,839.0703709246736,839.8088300394593,"[57, 0, 197]",197,a,0.21499649476027116,colour,0.06
159,23,1,1,12,19,569,840.3204792324686,841.0568296928686,"[84, 0, 170]",170,l,0.21292761887889355,colour,0.06
159,23,1,1,12,20,570,841.5712456578331,842.3368329224177,"[69, 0, 185]",185,a,0.24280363599245902,colour,0.06
159,23,1,1,12,21,571,842.8520141312038,843.6968350491807,"[94, 0, 160]",160,l,0.32150362731772475,colour,0.06
159,23,1,1,12,22,572,844.2114077650767,844.9288689514942,"[88, 0, 166]",166,l,0.19407064031111076,colour,0.06
159,23,1,1,12,23,573,845.4459213252121,846.1448697549495,"[22, 0, 232]",232,a,0.1755460682325065,colour,0.06
159,23,1,1,12,24,574,846.6647263160266,847.5689081786113,"[83, 0, 171]",171,l,0.38086496577307116,colour,0.06
159,23,1,1,12,25,575,848.0868120485538,848.8488511496398,"[99, 0, 155]",155,l,0.2386635211587418,colour,0.06
159,23,1,1,12,26,576,849.3680732239445,850.1050278449402,"[52, 0, 202]",202,a,0.2142481863265857,colour,0.06
159,23,1,1,12,27,577,850.6182795995264,851.3688380739331,"[70, 0, 184]",184,l,0.22721243294654414,colour,0.06
159,23,1,1,12,28,578,851.8839432703389,852.6809031688899,"[80, 0, 174]",174,l,0.2736847494816175,colour,0.06
159,23,1,1,12,29,579,853.1965006734681,854.0328759462136,"[58, 0, 196]",196,a,0.31295085583406035,colour,0.06
159,23,1,1,12,30,580,854.5403692705149,855.4248410829168,"[65, 0, 189]",189,a,0.36098438005137723,colour,0.06
159,23,1,1,12,31,581,855.9311288429599,856.5688617047272,"[79, 0, 175]",175,l,0.11438878955959808,colour,0.06
159,23,1,1,12,32,582,857.0876737847866,857.8728497948032,"[81, 0, 173]",173,l,0.2620548549457453,colour,0.06
159,23,1,1,12,33,583,858.3845104093634,859.2888513859361,"[67, 0, 187]",187,l,0.3809488550759852,colour,0.06
159,23,1,1,12,34,584,859.8066729419515,860.5048931494239,"[87, 0, 167]",167,l,0.17496908304747194,colour,0.06
159,23,1,1,12,35,585,861.0253704126662,861.744852031843,"[62, 0, 192]",192,a,0.19613675925938878,colour,0.06
159,23,1,1,12,36,586,862.2599335974664,863.0169137397315,"[92, 0, 162]",162,l,0.234173670571181,colour,0.06
159,23,1,1,12,37,587,863.5256354713929,864.4488909281354,"[59, 0, 195]",195,a,0.39988696604268625,colour,0.06
159,23,1,1,12,38,588,864.9631820437498,865.632957866299,"[96, 0, 158]",158,l,0.1466747536615003,colour,0.06
159,23,1,1,12,39,589,866.1508526777616,866.8411337266443,"[66, 0, 188]",188,l,0.16683103195100557,colour,0.06
159,23,1,1,12,40,590,867.3540924594126,868.0088934487576,"[76, 0, 178]",178,l,0.13148606177128386,colour,0.06
159,23,1,1,12,41,591,868.526028136388,869.2648397438315,"[93, 0, 161]",161,l,0.2153714366722852,colour,0.06
159,23,1,1,12,42,592,869.7760761856771,870.4088867533574,"[63, 0, 191]",191,a,0.11013879151141737,colour,0.06
159,23,1,1,12,43,593,870.9167727426684,871.5208683528472,"[54, 0, 200]",200,a,0.08119737225933932,colour,0.06
159,23,1,1,12,44,594,872.0426843004825,872.696946901604,"[72, 0, 182]",182,a,0.13163729883672204,colour,0.06
159,23,1,1,12,45,595,873.2138409490144,873.9288827361306,"[77, 0, 177]",177,l,0.19158743787556887,colour,0.06
159,23,1,1,12,46,596,874.4483202444972,875.0088757256599,"[64, 0, 190]",190,a,0.03715863350953441,colour,0.06
159,23,1,1,12,47,597,875.5265365922824,876.0648657377023,"[71, 0, 183]",183,a,0.014834229979896918,colour,0.06
159,23,1,1,12,48,598,876.5735354816279,878.3929509345908,"[19, 0, 235]",235,a,1.29566571880423,colour,0.06
159,23,1,1,12,49,599,878.9019038541737,879.6328326230869,"[85, 0, 169]",169,l,0.2076315644371789,colour,0.06
159,23,1,1,12,50,600,880.1520058604365,880.8009223885892,"[74, 0, 180]",180,l,0.1255366159020923,colour,0.06
159,23,1,1,13,1,601,885.9797830693133,886.6088863595214,"[84, 0, 170]",170,l,0.10479823242349084,colour,0.06
159,23,1,1,13,2,602,887.1212543224683,887.7128779942141,"[71, 0, 183]",183,l,0.06840641812596004,colour,0.06
159,23,1,1,13,3,603,888.2307302702538,888.936924294816,"[50, 0, 204]",204,a,0.1829984324867837,colour,0.06
159,23,1,1,13,4,604,889.449564405717,890.144932376541,"[86, 0, 168]",168,l,0.17201247705088463,colour,0.06
159,23,1,1,13,5,605,890.6528215166181,891.280918922741,"[60, 0, 194]",194,a,0.10476751238456927,colour,0.06
159,23,1,1,13,6,606,891.7934593904793,892.4488546942594,"[75, 0, 179]",179,l,0.1318322528823046,colour,0.06
159,23,1,1,13,7,607,892.9654868337093,893.5609186076763,"[51, 0, 203]",203,a,0.07204240940336604,colour,0.06
159,23,1,1,13,8,608,894.0748989783606,894.6809401904611,"[79, 0, 175]",175,l,0.08322056193719618,colour,0.06
159,23,1,1,13,9,609,895.2000543508184,895.8089119595388,"[95, 0, 159]",159,l,0.08584909375349525,colour,0.06
159,23,1,1,13,10,610,896.3250561231253,896.888914401381,"[92, 0, 162]",162,l,0.04038344898435753,colour,0.06
159,23,1,1,13,11,611,897.4033248524938,898.0568521421228,"[90, 0, 164]",164,l,0.1301402881363174,colour,0.06
159,23,1,1,13,12,612,898.5752483202377,899.2488999866036,"[80, 0, 174]",174,l,0.150800296178204,colour,0.06
159,23,1,1,13,13,613,899.7628319141659,900.936886091702,"[82, 0, 172]",172,l,0.6506144006125396,colour,0.06
159,23,1,1,13,14,614,901.4505541420804,902.2249230029993,"[34, 0, 220]",220,a,0.2510570841259323,colour,0.06
159,23,1,1,13,15,615,902.7318936929369,903.4888427213155,"[81, 0, 173]",173,l,0.2334986175992526,colour,0.06
159,23,1,1,13,16,616,903.9975987176294,904.6569190960436,"[72, 0, 182]",182,l,0.13588729688490275,colour,0.06
159,23,1,1,13,17,617,905.1695989854488,905.9769107464963,"[54, 0, 200]",200,a,0.28367545470246114,colour,0.06
159,23,1,1,13,18,618,906.497772403949,907.4889191275433,"[65, 0, 189]",189,l,0.46754862034867983,colour,0.06
159,23,1,1,13,19,619,907.9979819303117,908.8089123533864,"[77, 0, 177]",177,l,0.2875611446797848,colour,0.06
159,23,1,1,13,20,620,909.3260301056289,909.9529235228692,"[85, 0, 169]",169,l,0.10341740644071251,colour,0.06
159,23,1,1,13,21,621,910.466936976678,911.3768922356976,"[68, 0, 186]",186,l,0.38670255920442287,colour,0.06
159,23,1,1,13,22,622,911.8887934905069,912.6730289949774,"[63, 0, 191]",191,a,0.260937118466245,colour,0.06
159,23,1,1,13,23,623,913.1858569706819,913.8089186549332,"[97, 0, 157]",157,l,0.09967350121587515,colour,0.06
159,23,1,1,13,24,624,914.3265842477122,914.9369002701715,"[74, 0, 180]",180,l,0.08688333477766719,colour,0.06
159,23,1,1,13,25,625,915.4517065370601,916.2969350862113,"[67, 0, 187]",187,l,0.3218490307481261,colour,0.06
159,23,1,1,13,26,626,916.8111789402319,917.4008889116376,"[53, 0, 201]",201,a,0.06637613919156138,colour,0.06
159,23,1,1,13,27,627,917.9206273187738,918.4889238536998,"[99, 0, 155]",155,l,0.045287626126082614,colour,0.06
159,23,1,1,13,28,628,918.9987881341804,919.7049258386978,"[73, 0, 181]",181,l,0.18275306609575637,colour,0.06
159,23,1,1,13,29,629,920.2176537773776,921.8009487763193,"[98, 0, 156]",156,l,1.0599528959573945,colour,0.06
159,23,1,1,13,30,630,922.3116109898838,923.3289331484848,"[96, 0, 158]",158,l,0.49392294786230195,colour,0.06
159,23,1,1,13,31,631,923.8429859869357,924.6089210180071,"[62, 0, 192]",192,a,0.24241530329163652,colour,0.06
159,23,1,1,13,32,632,925.124264885424,925.785002323697,"[94, 0, 160]",160,l,0.13729805519687943,colour,0.06
159,23,1,1,13,33,633,926.2964636519027,926.9289362992567,"[55, 0, 199]",199,a,0.10926799681328703,colour,0.06
159,23,1,1,13,34,634,927.4370003071963,928.288910856776,"[70, 0, 184]",184,a,0.3285712035285542,colour,0.06
159,23,1,1,13,35,635,928.7964010302967,929.3292903672991,"[59, 0, 195]",195,a,0.009527935544610955,colour,0.06
159,23,1,1,13,36,636,929.8434487566265,930.4649964947603,"[56, 0, 198]",198,a,0.09819342591799796,colour,0.06
159,23,1,1,13,37,637,930.9841268028249,931.552976298306,"[64, 0, 190]",190,a,0.045428623183397576,colour,0.06
159,23,1,1,13,38,638,932.0622828920896,932.6809327073715,"[89, 0, 165]",165,l,0.0951730167871574,colour,0.06
159,23,1,1,13,39,639,933.1874697722669,933.8249103999115,"[83, 0, 171]",171,l,0.11408828465209808,colour,0.06
159,23,1,1,13,40,640,934.3437677723268,935.1449174103764,"[69, 0, 185]",185,l,0.27832386788213626,colour,0.06
159,23,1,1,13,41,641,935.6565918095584,936.2009271147544,"[91, 0, 163]",163,l,0.021179885472520255,colour,0.06
159,23,1,1,13,42,642,936.7190393295168,937.472936441045,"[76, 0, 178]",178,l,0.23052113775338512,colour,0.06
159,23,1,1,13,43,643,937.9846860649122,938.5849558498012,"[24, 0, 230]",230,a,0.07686387875583023,colour,0.06
159,23,1,1,13,44,644,939.0942080927489,939.8089757626731,"[61, 0, 193]",193,a,0.19138145612669177,colour,0.06
159,23,1,1,13,45,645,940.3285483604122,940.8569340622053,"[1, 0, 253]",253,a,0.00487975864962209,colour,0.06
159,23,1,1,13,46,646,941.3755736374878,942.5769347711321,"[57, 0, 197]",197,a,0.6780402983858949,colour,0.06
159,23,1,1,13,47,647,943.0944700007094,943.8649393870146,"[66, 0, 188]",188,a,0.24700046474754345,colour,0.06
159,23,1,1,13,48,648,944.3758516931412,945.1369325655978,"[88, 0, 166]",166,l,0.23767102786223404,colour,0.06
159,23,1,1,13,49,649,945.6572207824938,946.3769497372996,"[52, 0, 202]",202,a,0.19632541177270468,colour,0.06
159,23,1,1,13,50,650,946.8917461580277,947.6809311319957,"[87, 0, 167]",167,l,0.26588658794935327,colour,0.06
159,23,1,1,14,1,651,952.9695576315571,953.8089182610856,"[75, 0, 179]",179,l,0.3151835718745133,colour,0.06
159,23,1,1,14,2,652,954.3297830693191,955.1289737146726,"[55, 0, 199]",199,l,0.27593361322942656,colour,0.06
159,23,1,1,14,3,653,955.6424030940543,956.3369514702208,"[54, 0, 200]",200,a,0.17122675319842529,colour,0.06
159,23,1,1,14,4,654,956.8455223586643,957.5769969988905,"[92, 0, 162]",162,l,0.20798523863777518,colour,0.06
159,23,1,1,14,5,655,958.0956318480021,958.7449560073437,"[63, 0, 191]",191,l,0.12585878239769954,colour,0.06
159,23,1,1,14,6,656,959.2520487896982,959.9689522894187,"[79, 0, 175]",175,l,0.19434633289347403,colour,0.06
159,23,1,1,14,7,657,960.486550140602,961.3209904452815,"[80, 0, 174]",174,l,0.3110631493618712,colour,0.06
159,23,1,1,14,8,658,961.8305550085352,962.608908808761,"[58, 0, 196]",196,a,0.255131426587468,colour,0.06
159,23,1,1,14,9,659,963.1273778484901,963.9049108725303,"[65, 0, 189]",189,l,0.25412711792159826,colour,0.06
159,23,1,1,14,10,660,964.4242952116037,965.0729726749269,"[77, 0, 177]",177,l,0.12529400644416455,colour,0.06
159,23,1,1,14,11,661,965.5806928548263,966.1451182721066,"[72, 0, 182]",182,l,0.040889541793148965,colour,0.06
159,23,1,1,14,12,662,966.658913928768,967.2649449008604,"[74, 0, 180]",180,l,0.08272470913652796,colour,0.06
159,23,1,1,14,13,663,967.783947208809,968.5050223310973,"[56, 0, 198]",198,a,0.19763101305579767,colour,0.06
159,23,1,1,14,14,664,969.0184115381271,970.3369676179282,"[50, 0, 204]",204,a,0.7951060628693085,colour,0.06
159,23,1,1,14,15,665,970.8467279229226,971.8009684686403,"[67, 0, 187]",187,l,0.4309295566054061,colour,0.06
159,23,1,1,14,16,666,972.3156313753861,973.0089588272822,"[73, 0, 181]",181,l,0.17005190897907596,colour,0.06
159,23,1,1,14,17,667,973.5189172370883,974.2090017565497,"[57, 0, 197]",197,l,0.1668074011686258,colour,0.06
159,23,1,1,14,18,668,974.7220325632225,975.4570258284512,"[59, 0, 195]",195,a,0.21179452238720842,colour,0.06
159,23,1,1,14,19,669,975.9720900648244,976.5849869636731,"[98, 0, 156]",156,l,0.0897009129403159,colour,0.06
159,23,1,1,14,20,670,977.0971922680037,977.6889982907014,"[94, 0, 160]",160,l,0.0684024796646554,colour,0.06
159,23,1,1,14,21,671,978.20671272045,978.8409635849384,"[87, 0, 167]",167,l,0.11090757996134926,colour,0.06
159,23,1,1,14,22,672,979.3474277882342,979.9370251195214,"[91, 0, 163]",163,l,0.066241443681065,colour,0.06
159,23,1,1,14,23,673,980.4568619882921,981.0729939426383,"[76, 0, 178]",178,l,0.09265712507476564,colour,0.06
159,23,1,1,14,24,674,981.5819618283858,982.2569994407386,"[23, 0, 231]",231,a,0.15165218625043053,colour,0.06
159,23,1,1,14,25,675,982.7696222223894,983.4729419548967,"[60, 0, 194]",194,a,0.17999889723432716,colour,0.06
159,23,1,1,14,26,676,983.9883807393198,984.7529688152281,"[85, 0, 169]",169,l,0.24125188062316738,colour,0.06
159,23,1,1,14,27,677,985.2697376194265,985.9049975187663,"[33, 0, 221]",221,a,0.11181815317831933,colour,0.06
159,23,1,1,14,28,678,986.4260568871832,987.1929840177036,"[71, 0, 183]",183,l,0.24351846746867523,colour,0.06
159,23,1,1,14,29,679,987.707524832018,988.3929844115482,"[70, 0, 184]",184,l,0.1621273227065103,colour,0.06
159,23,1,1,14,30,680,988.9106716658862,989.6409982434416,"[81, 0, 173]",173,l,0.20679897285299376,colour,0.06
159,23,1,1,14,31,681,990.1609186076676,990.7929792915384,"[66, 0, 188]",188,a,0.10872527628089301,colour,0.06
159,23,1,1,14,32,682,991.3015714476933,992.1049880664505,"[86, 0, 168]",168,l,0.2800241034128703,colour,0.06
159,23,1,1,14,33,683,992.6141520877718,993.3290623301436,"[97, 0, 157]",157,l,0.1914968531636987,colour,0.06
159,23,1,1,14,34,684,993.848626263265,995.1210144699144,"[90, 0, 164]",164,l,0.7489791497646365,colour,0.06
159,23,1,1,14,35,685,995.6299740848917,996.3130122958828,"[83, 0, 171]",171,l,0.15968114184215665,colour,0.06
159,23,1,1,14,36,686,996.8331744818861,997.6410191173054,"[69, 0, 185]",185,l,0.2844879601034336,colour,0.06
159,23,1,1,14,37,687,998.1614841713017,998.7450501366548,"[93, 0, 161]",161,l,0.06006789913226385,colour,0.06
159,23,1,1,14,38,688,999.2553370144742,999.9290769024665,"[53, 0, 201]",201,a,0.15097004402196035,colour,0.06
159,23,1,1,14,39,689,1000.4429466022848,1001.1050089403143,"[68, 0, 186]",186,l,0.1386186226445716,colour,0.06
159,23,1,1,14,40,690,1001.6149764085858,1002.1610863863025,"[82, 0, 172]",172,l,0.022631603831541725,colour,0.06
159,23,1,1,14,41,691,1002.6775680763676,1003.2809937535931,"[29, 0, 225]",225,a,0.0801170511986129,colour,0.06
159,23,1,1,14,42,692,1003.7869400486816,1004.9290284593444,"[84, 0, 170]",170,l,0.6194690160918981,colour,0.06
159,23,1,1,14,43,693,1005.4433254826581,1006.8330149740359,"[96, 0, 158]",158,l,0.8662851606495678,colour,0.06
159,23,1,1,14,44,694,1007.349765267456,1008.016968878248,"[62, 0, 192]",192,l,0.14392767402750906,colour,0.06
159,23,1,1,14,45,695,1008.5373153844266,1009.1689680432901,"[89, 0, 165]",165,l,0.10822784810443409,colour,0.06
159,23,1,1,14,46,696,1009.6780056398711,1010.3530475845328,"[51, 0, 203]",203,a,0.15156475230469368,colour,0.06
159,23,1,1,14,47,697,1010.8655726922589,1011.5290914747893,"[61, 0, 193]",193,a,0.14010775640781503,colour,0.06
159,23,1,1,14,48,698,1012.0376383385883,1012.6970055847341,"[52, 0, 202]",202,a,0.1360542877955595,colour,0.06
159,23,1,1,14,49,699,1013.2095641694177,1013.9290067977854,"[99, 0, 155]",155,l,0.19599497452145442,colour,0.06
159,23,1,1,14,50,700,1014.4440485849045,1015.4730246626714,"[78, 0, 176]",176,l,0.5055107008229243,colour,0.06
159,23,1,1,15,1,701,1019.9437776184786,1020.9850023236941,"[54, 0, 200]",200,a,0.5171153891569702,colour,0.06
159,23,1,1,15,2,702,1021.4914736162173,1022.2170405583165,"[87, 0, 167]",167,l,0.20214803903945722,colour,0.06
159,23,1,1,15,3,703,1022.7259277055273,1023.465098894856,"[24, 0, 230]",230,a,0.21577473552315496,colour,0.06
159,23,1,1,15,4,704,1023.9761648011481,1024.7690428741334,"[78, 0, 176]",176,l,0.269599773149821,colour,0.06
159,23,1,1,15,5,705,1025.288745047379,1025.9930553039303,"[77, 0, 177]",177,l,0.18111230140493717,colour,0.06
159,23,1,1,15,6,706,1026.5074519704067,1027.2970280339941,"[85, 0, 169]",169,l,0.26605712350283284,colour,0.06
159,23,1,1,15,7,707,1027.8045280536899,1028.5050120910892,"[50, 0, 204]",204,a,0.17713681441091467,colour,0.06
159,23,1,1,15,8,708,1029.0233129583357,1029.7529936275532,"[79, 0, 175]",175,l,0.20625861539156176,colour,0.06
159,23,1,1,15,9,709,1030.273482706194,1031.185105511482,"[66, 0, 188]",188,l,0.3882491945842048,colour,0.06
159,23,1,1,15,10,710,1031.6953427646367,1032.4650827471487,"[83, 0, 171]",171,l,0.24618205161823425,colour,0.06
159,23,1,1,15,11,711,1032.9768993249454,1033.7451994044968,"[62, 0, 192]",192,a,0.2451281182729872,colour,0.06
159,23,1,1,15,12,712,1034.2581569557224,1035.0170137767418,"[59, 0, 195]",195,a,0.23574551210913341,colour,0.06
159,23,1,1,15,13,713,1035.5238229896058,1036.273033327292,"[71, 0, 183]",183,l,0.22573984072369058,colour,0.06
159,23,1,1,15,14,714,1036.7895417989348,1037.577021417368,"[63, 0, 191]",191,l,0.26427457405952737,colour,0.06
159,23,1,1,15,15,715,1038.0865158759552,1038.8251010216336,"[84, 0, 170]",170,l,0.2151099225739017,colour,0.06
159,23,1,1,15,16,716,1039.336644269919,1040.1530385260703,"[46, 0, 208]",208,a,0.2932022087043151,colour,0.06
159,23,1,1,15,17,717,1040.6648109930393,1041.3850125636964,"[58, 0, 196]",196,a,0.19670941213553306,colour,0.06
159,23,1,1,15,18,718,1041.8993300670263,1042.6089954550116,"[65, 0, 189]",189,l,0.1861688971548574,colour,0.06
159,23,1,1,15,19,719,1043.1182299748616,1043.7930025284877,"[86, 0, 168]",168,l,0.1519294542085845,colour,0.06
159,23,1,1,15,20,720,1044.3058714642393,1045.025071483149,"[70, 0, 184]",184,l,0.1960776822961634,colour,0.06
159,23,1,1,15,21,721,1045.5402731719514,1046.3611348294216,"[91, 0, 163]",163,l,0.2973513820033986,colour,0.06
159,23,1,1,15,22,722,1046.86850054744,1047.6890455522807,"[68, 0, 186]",186,a,0.2971150740777375,colour,0.06
159,23,1,1,15,23,723,1048.1967180767679,1048.8890616999997,"[69, 0, 185]",185,a,0.16906650493911002,colour,0.06
159,23,1,1,15,24,724,1049.400191015564,1050.18515789308,"[61, 0, 193]",193,a,0.26181854703463614,colour,0.06
159,23,1,1,15,25,725,1050.696829141496,1051.4090131780977,"[80, 0, 174]",174,l,0.1887111765681766,colour,0.06
159,23,1,1,15,26,726,1051.9158015170979,1052.5210306176305,"[72, 0, 182]",182,l,0.0818385544262128,colour,0.06
159,23,1,1,15,27,727,1053.040958858779,1053.64904925444,"[75, 0, 179]",179,l,0.0847880711662583,colour,0.06
159,23,1,1,15,28,728,1054.1659862311208,1054.9210144699173,"[93, 0, 161]",161,l,0.2316443880845327,colour,0.06
159,23,1,1,15,29,729,1055.4316983450553,1056.0170953029883,"[76, 0, 178]",178,l,0.062295495183207095,colour,0.06
159,23,1,1,15,30,730,1056.5256031759782,1057.241104188157,"[94, 0, 160]",160,l,0.1921750569017604,colour,0.06
159,23,1,1,15,31,731,1057.7600147298508,1058.4651311902853,"[53, 0, 201]",201,a,0.18171528045786545,colour,0.06
159,23,1,1,15,32,732,1058.9788520160946,1059.633046875606,"[92, 0, 162]",162,l,0.13069561176234856,colour,0.06
159,23,1,1,15,33,733,1060.1508491331333,1060.8330295463675,"[96, 0, 158]",158,l,0.1587619040219579,colour,0.06
159,23,1,1,15,34,734,1061.3541113640385,1062.0971142863855,"[97, 0, 157]",157,l,0.21964506550284568,colour,0.06
159,23,1,1,15,35,735,1062.6042401518644,1063.3050372972648,"[64, 0, 190]",190,a,0.17748261167434976,colour,0.06
159,23,1,1,15,36,736,1063.8229966995568,1064.5290233393462,"[52, 0, 202]",202,l,0.18280111538479105,colour,0.06
159,23,1,1,15,37,737,1065.0425480295817,1065.801103951846,"[89, 0, 165]",165,l,0.23579041061748285,colour,0.06
159,23,1,1,15,38,738,1066.3075677612942,1067.009150630547,"[55, 0, 199]",199,a,0.17821083393937442,colour,0.06
159,23,1,1,15,39,739,1067.526397958296,1068.337079864199,"[57, 0, 197]",197,a,0.2871310642512981,colour,0.06
159,23,1,1,15,40,740,1068.8547427000449,1069.6250545477378,"[60, 0, 194]",194,a,0.24705560324946418,colour,0.06
159,23,1,1,15,41,741,1070.136087764753,1070.8650433625007,"[51, 0, 203]",203,a,0.20547249769151676,colour,0.06
159,23,1,1,15,42,742,1071.3861137586355,1072.1052137405204,"[82, 0, 172]",172,l,0.19572755272383802,colour,0.06
159,23,1,1,15,43,743,1072.6205213740468,1073.2810567690321,"[81, 0, 173]",173,l,0.1370601718663238,colour,0.06
159,23,1,1,15,44,744,1073.792549604972,1074.5130879144272,"[56, 0, 198]",198,a,0.1977471977879759,colour,0.06
159,23,1,1,15,45,745,1075.027037171225,1075.7530208029639,"[98, 0, 156]",156,l,0.202495411678683,colour,0.06
159,23,1,1,15,46,746,1076.261541672895,1077.0491280237475,"[74, 0, 180]",180,a,0.2642812694393797,colour,0.06
159,23,1,1,15,47,747,1077.5584637621796,1078.313049317454,"[8, 0, 246]",246,a,0.2311465660459362,colour,0.06
159,23,1,1,15,48,748,1078.824162879173,1079.5291060471209,"[99, 0, 155]",155,l,0.18148684946936555,colour,0.06
159,23,1,1,15,49,749,1080.0431281655328,1080.777099792831,"[88, 0, 166]",166,l,0.21068308743997477,colour,0.06
159,23,1,1,15,50,750,1081.2931923625292,1082.2730711365584,"[67, 0, 187]",187,a,0.4564500248088734,colour,0.06
159,23,1,1,16,1,751,1087.714793663792,1088.3530964215024,"[61, 0, 193]",193,a,0.11407292462536134,colour,0.06
159,23,1,1,16,2,752,1088.871906926186,1089.641067954275,"[56, 0, 198]",198,a,0.25018825865117833,colour,0.06
159,23,1,1,16,3,753,1090.1488413034676,1090.8010527518054,"[94, 0, 160]",160,l,0.12879175758280326,colour,0.06
159,23,1,1,16,4,754,1091.3208080943295,1092.0652001134295,"[68, 0, 186]",186,a,0.22103613149374723,colour,0.06
159,23,1,1,16,5,755,1092.5708616574557,1093.3771013682126,"[93, 0, 161]",161,l,0.2827573983959155,colour,0.06
159,23,1,1,16,6,756,1093.883488771433,1094.6411266374053,"[90, 0, 164]",164,l,0.23422408291662578,colour,0.06
159,23,1,1,16,7,757,1095.1494836671773,1095.7691574834753,"[83, 0, 171]",171,l,0.09650264271476772,colour,0.06
159,23,1,1,16,8,758,1096.2899399777816,1096.9450997613312,"[87, 0, 167]",167,l,0.13178932361188345,colour,0.06
159,23,1,1,16,9,759,1097.4618406024238,1098.0810831567505,"[88, 0, 166]",166,l,0.09567162650637329,colour,0.06
159,23,1,1,16,10,760,1098.6026427102915,1099.3290713886236,"[76, 0, 178]",178,l,0.2029412459814921,colour,0.06
159,23,1,1,16,11,761,1099.8371728119819,1100.5850988160964,"[75, 0, 179]",179,l,0.22465164274035487,colour,0.06
159,23,1,1,16,12,762,1101.1028813812882,1101.7771576882806,"[71, 0, 183]",183,a,0.15093026553222444,colour,0.06
159,23,1,1,16,13,763,1102.2904606429074,1102.977104125137,"[67, 0, 187]",187,a,0.1632174899277743,colour,0.06
159,23,1,1,16,14,764,1103.4936586768308,1104.2170531613956,"[69, 0, 185]",185,a,0.19993895378138404,colour,0.06
159,23,1,1,16,15,765,1104.728236433948,1105.3850763668452,"[58, 0, 196]",196,a,0.13354312226874754,colour,0.06
159,23,1,1,16,16,766,1105.9000937354722,1106.5131131205999,"[65, 0, 189]",189,a,0.08969382369832601,colour,0.06
159,23,1,1,16,17,767,1107.0252262648282,1107.737109796537,"[79, 0, 175]",175,l,0.18861862264748197,colour,0.06
159,23,1,1,16,18,768,1108.243986357149,1108.9291107732715,"[48, 0, 206]",206,a,0.1615054390131263,colour,0.06
159,23,1,1,16,19,769,1109.4473238127393,1110.1931502209482,"[62, 0, 192]",192,a,0.22243192362657283,colour,0.06
159,23,1,1,16,20,770,1110.7130008743407,1112.081066221348,"[60, 0, 194]",194,a,0.8444916622684104,colour,0.06
159,23,1,1,16,21,771,1112.5882003576116,1113.4011433365085,"[40, 0, 214]",214,a,0.289607177459402,colour,0.06
159,23,1,1,16,22,772,1113.9163410868496,1114.6010645671922,"[84, 0, 170]",170,l,0.1612762203294551,colour,0.06
159,23,1,1,16,23,773,1115.1195572377183,1115.8171535922738,"[82, 0, 172]",172,l,0.1742243192420574,colour,0.06
159,23,1,1,16,24,774,1116.3384870778973,1117.0811855568609,"[74, 0, 180]",180,l,0.21938315755687654,colour,0.06
159,23,1,1,16,25,775,1117.588346474673,1118.481091821377,"[64, 0, 190]",190,a,0.3691952927474631,colour,0.06
159,23,1,1,16,26,776,1118.9949772750551,1119.6331110726023,"[92, 0, 162]",162,l,0.11472513451008126,colour,0.06
159,23,1,1,16,27,777,1120.151200838096,1120.737147999651,"[63, 0, 191]",191,a,0.06246327381813899,colour,0.06
159,23,1,1,16,28,778,1121.2453281923226,1122.1931387993973,"[17, 0, 237]",237,a,0.4247280489653349,colour,0.06
159,23,1,1,16,29,779,1122.7139441368054,1123.7531062676717,"[66, 0, 188]",188,l,0.5157656770606991,colour,0.06
159,23,1,1,16,30,780,1124.2609599615535,1125.113140689864,"[52, 0, 202]",202,a,0.3290130993409548,colour,0.06
159,23,1,1,16,31,781,1125.6204028262437,1126.329102896343,"[51, 0, 203]",203,a,0.18528510551550426,colour,0.06
159,23,1,1,16,32,782,1126.8392964325321,1128.0491650453332,"[95, 0, 159]",159,l,0.6866281222173711,colour,0.06
159,23,1,1,16,33,783,1128.5581329310808,1130.521107417706,"[57, 0, 197]",197,l,1.4395673989638453,colour,0.06
159,23,1,1,16,34,784,1131.042773309804,1131.8251427693613,"[54, 0, 200]",200,l,0.25891117184073664,colour,0.06
159,23,1,1,16,35,785,1132.339776531473,1133.073190078212,"[73, 0, 181]",181,l,0.21024631163163576,colour,0.06
159,23,1,1,16,36,786,1133.5897678668407,1134.3210948146152,"[55, 0, 199]",199,a,0.20795963860291522,colour,0.06
159,23,1,1,16,37,787,1134.8400163840124,1135.4811284491007,"[78, 0, 176]",176,l,0.11802478082245216,colour,0.06
159,23,1,1,16,38,788,1135.9962301008927,1136.705186565101,"[53, 0, 201]",201,a,0.18546469953435007,colour,0.06
159,23,1,1,16,39,789,1137.2150847163866,1138.4011401857279,"[50, 0, 204]",204,a,0.6626011201005895,colour,0.06
159,23,1,1,16,40,790,1138.9183662457654,1139.6571416193328,"[85, 0, 169]",169,l,0.2152922735112952,colour,0.06
159,23,1,1,16,41,791,1140.168340645745,1140.8731384843122,"[98, 0, 156]",156,l,0.18122375996608753,colour,0.06
159,23,1,1,16,42,792,1141.3873291690543,1142.1612124171952,"[86, 0, 168]",168,l,0.2503847880725516,colour,0.06
159,23,1,1,16,43,793,1142.6687163753522,1143.5211999716412,"[81, 0, 173]",173,l,0.3290989578817971,colour,0.06
159,23,1,1,16,44,794,1144.0282194985484,1144.6491618945583,"[80, 0, 174]",174,l,0.09751561601296999,colour,0.06
159,23,1,1,16,45,795,1145.1689243263245,1145.9051767189376,"[70, 0, 184]",184,l,0.21284254803322256,colour,0.06
159,23,1,1,16,46,796,1146.418952683278,1147.1052302820754,"[89, 0, 165]",165,l,0.16236166140879504,colour,0.06
159,23,1,1,16,47,797,1147.6221684402844,1148.2571160193038,"[96, 0, 158]",158,l,0.11156294061220251,colour,0.06
159,23,1,1,16,48,798,1148.7628917788388,1149.2891550416243,"[97, 0, 157]",157,l,0.002786464276141487,colour,0.06
159,23,1,1,16,49,799,1149.8098284404405,1150.6011126164813,"[77, 0, 177]",177,l,0.26804801778052934,colour,0.06
159,23,1,1,16,50,800,1151.1224346805393,1151.8011527888157,"[99, 0, 155]",155,l,0.15540436223091092,colour,0.06
