id,age,condition,counterbalance,block,trialinblock,trial,tstart,tend,trialstim,trialintensity,response,RT,trialtype,colourfreq
010,74,0,2,Practice,1,NA,5.907611921429634e-06,4.607901094248518,"[2, 0, 252]",252,a,4.0834771525114775,colour,0.5
010,74,0,2,Practice,2,NA,5.126778902020305,6.903921757126227,"[24, 0, 230]",230,a,1.2540036377031356,colour,0.5
010,74,0,2,Practice,3,NA,7.423668388277292,9.255925997858867,"[94, 0, 160]",160,l,1.3090841276571155,colour,0.5
010,74,0,2,Practice,4,NA,9.767601157305762,13.67188249528408,"[76, 0, 178]",178,l,3.380911720916629,colour,0.5
010,74,0,2,Practice,5,NA,14.191115551861003,15.927886868594214,"[9, 0, 245]",245,a,1.2257452150806785,colour,0.5
010,74,0,2,Practice,6,NA,16.441743538714945,17.951882700202987,"[11, 0, 243]",243,a,0.987063353182748,colour,0.5
010,74,0,2,Practice,7,NA,18.472774240653962,19.67187934461981,"[3, 0, 251]",251,a,0.6757602992001921,colour,0.5
010,74,0,2,Practice,8,NA,20.191667329519987,21.663838986307383,"[88, 0, 166]",166,l,0.9488552089314908,colour,0.5
010,74,0,2,Practice,9,NA,22.18215792742558,23.407887388486415,"[74, 0, 180]",180,l,0.7075243415310979,colour,0.5
010,74,0,2,Practice,10,NA,23.92721299873665,25.255879524163902,"[63, 0, 191]",191,l,0.8054036404937506,colour,0.5
010,74,0,2,1,1,1,4.861221409868449,6.743992476025596,"[12, 0, 242]",242,a,1.358663776423782,colour,0.5
010,74,0,2,1,2,2,7.252811860758811,8.479985947720706,"[64, 0, 190]",190,l,0.7039332573767751,colour,0.5
010,74,0,2,1,3,3,8.987324866699055,9.807999477023259,"[79, 0, 175]",175,l,0.29746646992862225,colour,0.5
010,74,0,2,1,4,4,10.315517989685759,11.328016680199653,"[63, 0, 191]",191,a,0.48904282110743225,colour,0.5
010,74,0,2,1,5,5,11.846928752725944,12.84799449890852,"[6, 0, 248]",248,a,0.4777335445396602,colour,0.5
010,74,0,2,1,6,6,13.362594749545678,13.967948450474069,"[82, 0, 172]",172,l,0.08000579755753279,colour,0.5
010,74,0,2,1,7,7,14.474060540553182,15.103991389041767,"[42, 0, 212]",212,a,0.11899533146061003,colour,0.5
010,74,0,2,1,8,8,15.618043800350279,16.4639832128305,"[1, 0, 253]",253,a,0.3227013398427516,colour,0.5
010,74,0,2,1,9,9,16.97738656657748,20.127943897619843,"[88, 0, 166]",166,l,2.627805657684803,colour,0.5
010,74,0,2,1,10,10,20.62351352837868,21.57593225245364,"[91, 0, 163]",163,l,0.4290455626323819,colour,0.5
010,74,0,2,1,11,11,22.08735180576332,22.655959711177275,"[13, 0, 241]",241,a,0.0436266721226275,colour,0.5
010,74,0,2,1,12,12,23.167189825093374,23.879974368726835,"[49, 0, 205]",205,a,0.18952520354650915,colour,0.5
010,74,0,2,1,13,13,24.386184526141733,27.639955400954932,"[92, 0, 162]",162,l,2.730907349381596,colour,0.5
010,74,0,2,1,14,14,28.15344697632827,28.879939710255712,"[84, 0, 170]",170,l,0.20316604617983103,colour,0.5
010,74,0,2,1,15,15,29.387920597568154,33.727977925911546,"[37, 0, 217]",217,a,3.817125273635611,colour,0.5
010,74,0,2,1,16,16,34.24750045896508,34.89593496196903,"[32, 0, 222]",222,a,0.12511884281411767,colour,0.5
010,74,0,2,1,17,17,35.40384574490599,38.183940866496414,"[83, 0, 171]",171,l,2.263873408548534,colour,0.5
010,74,0,2,1,18,18,38.70182539569214,39.40795434243046,"[94, 0, 160]",160,l,0.18990211375057697,colour,0.5
010,74,0,2,1,19,19,39.92908849171363,43.39197051199153,"[33, 0, 221]",221,a,2.9394938924815506,colour,0.5
010,74,0,2,1,20,20,43.8996209630277,44.47995956009254,"[44, 0, 210]",210,a,0.0569374724291265,colour,0.5
010,74,0,2,1,21,21,44.99340859986842,45.79993036808446,"[46, 0, 208]",208,a,0.2833203230984509,colour,0.5
010,74,0,2,1,22,22,46.30604442744516,48.92792625329457,"[86, 0, 168]",168,l,2.0988808483816683,colour,0.5
010,74,0,2,1,23,23,49.446885587181896,50.87192889046855,"[60, 0, 194]",194,l,0.9015945233404636,colour,0.5
010,74,0,2,1,24,24,51.3845607007388,55.19191033253446,"[27, 0, 227]",227,a,3.2836322491057217,colour,0.5
010,74,0,2,1,25,25,55.698179960716516,56.255907881073654,"[48, 0, 206]",206,l,0.034448887687176466,colour,0.5
010,74,0,2,1,26,26,56.77636855444871,59.03189558698796,"[35, 0, 219]",219,l,1.732479581143707,colour,0.5
010,74,0,2,1,27,27,59.54227578174323,60.51988290180452,"[56, 0, 198]",198,a,0.4670331529341638,colour,0.5
010,74,0,2,1,28,28,61.02779014012776,61.679927185876295,"[74, 0, 180]",180,l,0.1265764655545354,colour,0.5
010,74,0,2,1,29,29,62.18636774318293,62.76794537832029,"[19, 0, 235]",235,a,0.05822731647640467,colour,0.5
010,74,0,2,1,30,30,63.28021445684135,63.91191170294769,"[34, 0, 220]",220,a,0.10844578268006444,colour,0.5
010,74,0,2,1,31,31,64.43319078767672,67.35988706094213,"[75, 0, 179]",179,l,2.4020943134091794,colour,0.5
010,74,0,2,1,32,32,67.87221521628089,70.35192074580118,"[0, 0, 254]",254,l,1.9565029030200094,colour,0.5
010,74,0,2,1,33,33,70.87240189895965,72.22394849127159,"[77, 0, 177]",177,l,0.8285983901005238,colour,0.5
010,74,0,2,1,34,34,72.73222515685484,73.40788069320843,"[5, 0, 249]",249,a,0.15218667010776699,colour,0.5
010,74,0,2,1,35,35,73.91983115067706,74.91989889205433,"[78, 0, 176]",176,l,0.47782846144400537,colour,0.5
010,74,0,2,1,36,36,75.43665938591585,76.09587738174014,"[43, 0, 211]",211,a,0.13587634195573628,colour,0.5
010,74,0,2,1,37,37,76.60840915516019,77.23192386492155,"[72, 0, 182]",182,l,0.1001852648332715,colour,0.5
010,74,0,2,1,38,38,77.7500478522852,78.39190631522797,"[21, 0, 233]",233,a,0.11975663481280208,colour,0.5
010,74,0,2,1,39,39,78.90516867232509,79.58391629066318,"[20, 0, 234]",234,a,0.15534176747314632,colour,0.5
010,74,0,2,1,40,40,80.09348083124496,80.88790366239846,"[3, 0, 251]",251,a,0.271328512346372,colour,0.5
010,74,0,2,1,41,41,81.4080661945045,81.97590176877566,"[68, 0, 186]",186,l,0.0444403572473675,colour,0.5
010,74,0,2,1,42,42,82.48626660369337,83.41589584527537,"[65, 0, 189]",189,l,0.40625253529287875,colour,0.5
010,74,0,2,1,43,43,83.92390312044881,84.58386154612526,"[25, 0, 229]",229,a,0.1367085378151387,colour,0.5
010,74,0,2,1,44,44,85.09586399095133,86.29592929058708,"[67, 0, 187]",187,l,0.676698045572266,colour,0.5
010,74,0,2,1,45,45,86.81475786771625,87.71986470627598,"[98, 0, 156]",156,l,0.38175573223270476,colour,0.5
010,74,0,2,1,46,46,88.2367275999859,89.20787643967196,"[73, 0, 181]",181,l,0.44772802270017564,colour,0.5
010,74,0,2,1,47,47,89.72121953521855,90.25584289664403,"[10, 0, 244]",244,a,0.011298642959445715,colour,0.5
010,74,0,2,1,48,48,90.76812654733658,91.83186455187388,"[70, 0, 184]",184,l,0.5526284074876457,colour,0.5
010,74,0,2,1,49,49,92.34967149351723,93.32792885275558,"[66, 0, 188]",188,l,0.45484520704485476,colour,0.5
010,74,0,2,1,50,50,93.83418784709647,94.45603501447476,"[18, 0, 236]",236,a,0.09774302830919623,colour,0.5
010,74,0,2,2,1,51,99.4287545105908,99.96787440753542,"[1, 0, 253]",253,a,0.015012606978416443,colour,0.5
010,74,0,2,2,2,52,100.4765232570935,101.4638351269532,"[56, 0, 198]",198,a,0.46427387092262506,colour,0.5
010,74,0,2,2,3,53,101.97661187243648,104.47183728194796,"[72, 0, 182]",182,l,1.9721578722819686,colour,0.5
010,74,0,2,2,4,54,104.99259649030864,105.79188095149584,"[95, 0, 159]",159,l,0.2746399659663439,colour,0.5
010,74,0,2,2,5,55,106.30638904240914,108.44787335186265,"[57, 0, 197]",197,l,1.617926828097552,colour,0.5
010,74,0,2,2,6,56,108.96309154643677,110.44782845349982,"[53, 0, 201]",201,a,0.9597710338421166,colour,0.5
010,74,0,2,2,7,57,110.9649170206394,111.55186552857049,"[19, 0, 235]",235,l,0.06376281660050154,colour,0.5
010,74,0,2,2,8,58,112.05861683003604,113.43180917715654,"[43, 0, 211]",211,a,0.8499889329541475,colour,0.5
010,74,0,2,2,9,59,113.9500001182314,114.93585515301675,"[65, 0, 189]",189,l,0.4624889623373747,colour,0.5
010,74,0,2,2,10,60,115.45031283167191,116.3998643597588,"[39, 0, 215]",215,a,0.42642530775628984,colour,0.5
010,74,0,2,2,11,61,116.91904149018228,118.13584719737992,"[61, 0, 193]",193,l,0.6935570007190108,colour,0.5
010,74,0,2,2,12,62,118.6548660020344,119.56784226954915,"[18, 0, 236]",236,a,0.3896267367526889,colour,0.5
010,74,0,2,2,13,63,120.07689402322285,121.12780487001874,"[54, 0, 200]",200,a,0.5281560227740556,colour,0.5
010,74,0,2,2,14,64,121.63900505146012,122.57582630775869,"[44, 0, 210]",210,a,0.4135083530563861,colour,0.5
010,74,0,2,2,15,65,123.09224809450097,123.77581283845939,"[78, 0, 176]",176,l,0.15900216856971383,colour,0.5
010,74,0,2,2,16,66,124.29699424910359,125.12780998996459,"[5, 0, 249]",249,a,0.30730473319999874,colour,0.5
010,74,0,2,2,17,67,125.64088133210316,126.43180642020889,"[25, 0, 229]",229,a,0.26765865879133344,colour,0.5
010,74,0,2,2,18,68,126.9253973707091,127.59184834128246,"[90, 0, 164]",164,l,0.14320659660734236,colour,0.5
010,74,0,2,2,19,69,128.1130321151577,128.94402075419202,"[82, 0, 172]",172,l,0.30771708977408707,colour,0.5
010,74,0,2,2,20,70,129.45691919792444,130.11180252907798,"[99, 0, 155]",155,l,0.1315794864203781,colour,0.5
010,74,0,2,2,21,71,130.6306551308371,131.27980131283402,"[0, 0, 254]",254,a,0.12580846645869315,colour,0.5
010,74,0,2,2,22,72,131.78696654597297,133.99182022060268,"[52, 0, 202]",202,l,1.6814852391835302,colour,0.5
010,74,0,2,2,23,73,134.50664023705758,135.55179069796577,"[26, 0, 228]",228,a,0.5226433656644076,colour,0.5
010,74,0,2,2,24,74,136.06984064239077,137.72781447996385,"[83, 0, 171]",171,l,1.134996490785852,colour,0.5
010,74,0,2,2,25,75,138.24192084814422,139.2798233681824,"[41, 0, 213]",213,a,0.5146731119602919,colour,0.5
010,74,0,2,2,26,76,139.78886527568102,140.79178839782253,"[12, 0, 242]",242,a,0.4795751664787531,colour,0.5
010,74,0,2,2,27,77,141.30694239540026,143.0477919834666,"[20, 0, 234]",234,a,1.217474457109347,colour,0.5
010,74,0,2,2,28,78,143.5570564137306,144.5597924592439,"[55, 0, 199]",199,a,0.4793620961718261,colour,0.5
010,74,0,2,2,29,79,145.0729685642291,146.01580384280533,"[29, 0, 225]",225,a,0.41960626444779336,colour,0.5
010,74,0,2,2,30,80,146.5261068441905,147.15978907211684,"[64, 0, 190]",190,l,0.11059933062642813,colour,0.5
010,74,0,2,2,31,81,147.6667688039597,148.7117589698173,"[14, 0, 240]",240,a,0.5216044010594487,colour,0.5
010,74,0,2,2,32,82,149.22949108062312,150.06378644751385,"[27, 0, 227]",227,a,0.31094229128211737,colour,0.5
010,74,0,2,2,33,83,150.57340258196928,151.6957920747809,"[80, 0, 174]",174,l,0.5990793465171009,colour,0.5
010,74,0,2,2,34,84,152.2155221644789,153.16775066126138,"[51, 0, 203]",203,a,0.4288821166846901,colour,0.5
010,74,0,2,2,35,85,153.6843288044911,154.5439531703014,"[2, 0, 252]",252,a,0.3361562874633819,colour,0.5
010,74,0,2,2,36,86,155.0594462689478,155.95977772935294,"[96, 0, 158]",158,l,0.3774238242767751,colour,0.5
010,74,0,2,2,37,87,156.46563815209083,157.33574511273764,"[10, 0, 244]",244,a,0.3466447899118066,colour,0.5
010,74,0,2,2,38,88,157.85649250564165,159.35172303533182,"[79, 0, 175]",175,l,0.9718861188739538,colour,0.5
010,74,0,2,2,39,89,159.87242198525928,160.75976362964138,"[76, 0, 178]",178,l,0.3640712765045464,colour,0.5
010,74,0,2,2,40,90,161.27869775751606,162.27974262996577,"[71, 0, 183]",183,l,0.4777469353284687,colour,0.5
010,74,0,2,2,41,91,162.79443582799286,165.57576565560885,"[21, 0, 233]",233,a,2.258031890494749,colour,0.5
010,74,0,2,2,42,92,166.09160021832213,167.44774850294925,"[92, 0, 162]",162,l,0.8315380539279431,colour,0.5
010,74,0,2,2,43,93,167.9682536807377,168.95172752509825,"[7, 0, 247]",247,a,0.45449429051950574,colour,0.5
010,74,0,2,2,44,94,169.46763258613646,170.63173544919118,"[4, 0, 250]",250,a,0.6407135536428541,colour,0.5
010,74,0,2,2,45,95,171.13213874725625,172.43181154015474,"[66, 0, 188]",188,l,0.7764477173332125,colour,0.5
010,74,0,2,2,46,96,172.94473400851712,174.09573323419318,"[45, 0, 209]",209,a,0.6277245252858847,colour,0.5
010,74,0,2,2,47,97,174.61681342683733,175.7357394413557,"[9, 0, 245]",245,a,0.5956568282563239,colour,0.5
010,74,0,2,2,48,98,176.2418247498572,177.15173926157877,"[63, 0, 191]",191,l,0.38662957143969834,colour,0.5
010,74,0,2,2,49,99,177.66382362646982,178.94373876065947,"[30, 0, 224]",224,a,0.7564880156423897,colour,0.5
010,74,0,2,2,50,100,179.46084150648676,180.4797779971268,"[15, 0, 239]",239,a,0.4956732119899243,colour,0.5
010,74,0,2,3,1,101,185.7431913940236,188.79170411499217,"[74, 0, 180]",180,l,2.5243109080474824,colour,0.5
010,74,0,2,3,2,102,189.3068159709219,190.2477525200229,"[2, 0, 252]",252,a,0.4176141934003681,colour,0.5
010,74,0,2,3,3,103,190.7600208108779,191.85571150970645,"[58, 0, 196]",196,l,0.572615678422153,colour,0.5
010,74,0,2,3,4,104,192.3695071337279,193.40769519191235,"[45, 0, 209]",209,a,0.5139098393265158,colour,0.5
010,74,0,2,3,5,105,193.91747122770175,195.03973941598088,"[44, 0, 210]",210,a,0.5990088479593396,colour,0.5
010,74,0,2,3,6,106,195.55826985207386,196.60775615926832,"[5, 0, 249]",249,a,0.5263069176580757,colour,0.5
010,74,0,2,3,7,107,197.1208534950856,199.07973010558635,"[61, 0, 193]",193,l,1.4355077813379467,colour,0.5
010,74,0,2,3,8,108,199.58976647327654,200.87176623218693,"[42, 0, 212]",212,a,0.7586088741663843,colour,0.5
010,74,0,2,3,9,109,201.38674654392526,202.43973610782996,"[28, 0, 226]",226,a,0.5299271463882178,colour,0.5
010,74,0,2,3,10,110,202.94943770673126,204.17568625626154,"[96, 0, 158]",158,l,0.702896655537188,colour,0.5
010,74,0,2,3,11,111,204.68541463674046,206.74375577480532,"[53, 0, 201]",201,a,1.5350758901331574,colour,0.5
010,74,0,2,3,12,112,207.26371783972718,208.67171038500965,"[12, 0, 242]",242,a,0.8849785709753633,colour,0.5
010,74,0,2,3,13,113,209.18586716544814,210.34375356929377,"[63, 0, 191]",191,l,0.6345979189500213,colour,0.5
010,74,0,2,3,14,114,210.85858973348513,211.9836778563913,"[24, 0, 230]",230,a,0.6022722527850419,colour,0.5
010,74,0,2,3,15,115,212.49873299873434,213.55969321005978,"[7, 0, 247]",247,a,0.5365973156876862,colour,0.5
010,74,0,2,3,16,116,214.07794322795235,215.27974262996577,"[87, 0, 167]",167,l,0.6786534893326461,colour,0.5
010,74,0,2,3,17,117,215.79674573265947,217.37568342057057,"[88, 0, 166]",166,l,1.055515295593068,colour,0.5
010,74,0,2,3,18,118,217.8906436462421,218.9436942562461,"[38, 0, 216]",216,a,0.5297392820939422,colour,0.5
010,74,0,2,3,19,119,219.45513783418573,220.63167243404314,"[32, 0, 222]",222,a,0.6531783735845238,colour,0.5
010,74,0,2,3,20,120,221.14579928223975,222.68769224593416,"[77, 0, 177]",177,l,1.0187915556598455,colour,0.5
010,74,0,2,3,21,121,223.20847902353853,224.29570716177113,"[99, 0, 155]",155,l,0.5640164534561336,colour,0.5
010,74,0,2,3,22,122,224.80223515280522,226.02369926590472,"[75, 0, 179]",179,l,0.6981508161406964,colour,0.5
010,74,0,2,3,23,123,226.52571063535288,227.63968128454871,"[40, 0, 214]",214,a,0.59082788717933,colour,0.5
010,74,0,2,3,24,124,228.1508026968222,229.4957259874791,"[4, 0, 250]",250,a,0.8216458335518837,colour,0.5
010,74,0,2,3,25,125,230.01037074276246,231.16765810735524,"[48, 0, 206]",206,a,0.6341572056990117,colour,0.5
010,74,0,2,3,26,126,231.68381916824728,232.77565923845395,"[23, 0, 231]",231,a,0.568697308190167,colour,0.5
010,74,0,2,3,27,127,233.29317512828857,234.55163709819317,"[27, 0, 227]",227,a,0.7353680448140949,colour,0.5
010,74,0,2,3,28,128,235.05894411564805,236.22368303942494,"[70, 0, 184]",184,l,0.6401586253196001,colour,0.5
010,74,0,2,3,29,129,236.7322645415552,238.01568647683598,"[83, 0, 171]",171,l,0.7600007245782763,colour,0.5
010,74,0,2,3,30,130,238.53108741575852,239.80764462216757,"[46, 0, 208]",208,a,0.7657240889966488,colour,0.5
010,74,0,2,3,31,131,240.31266891071573,241.57562780962326,"[78, 0, 176]",176,l,0.7388378246687353,colour,0.5
010,74,0,2,3,32,132,242.09247022331692,243.94365959777497,"[56, 0, 198]",198,a,1.327979658730328,colour,0.5
010,74,0,2,3,33,133,244.4504018407315,245.78364051994868,"[55, 0, 199]",199,a,0.8099765819497406,colour,0.5
010,74,0,2,3,34,134,246.29426844371483,247.4636661671102,"[86, 0, 168]",168,l,0.6460781248752028,colour,0.5
010,74,0,2,3,35,135,247.98328598006628,250.15965595236048,"[59, 0, 195]",195,l,1.6531326873227954,colour,0.5
010,74,0,2,3,36,136,250.66966435709037,251.81563574960455,"[25, 0, 229]",229,a,0.6226261940319091,colour,0.5
010,74,0,2,3,37,137,252.3260210645385,253.32765473611653,"[18, 0, 236]",236,a,0.47848697123117745,colour,0.5
010,74,0,2,3,38,138,253.83841381059028,254.89565375633538,"[65, 0, 189]",189,l,0.5338778118602931,colour,0.5
010,74,0,2,3,39,139,255.40625056624413,256.583624844905,"[13, 0, 241]",241,a,0.6549463465344161,colour,0.5
010,74,0,2,3,40,140,257.083928105887,258.2316158777103,"[8, 0, 246]",246,a,0.6244091331027448,colour,0.5
010,74,0,2,3,41,141,258.7466040663421,259.84764555166475,"[16, 0, 238]",238,a,0.5776919545605779,colour,0.5
010,74,0,2,3,42,142,260.35620539216325,261.38373008044437,"[97, 0, 157]",157,l,0.5043212741147727,colour,0.5
010,74,0,2,3,43,143,261.9031127982307,263.2716238964349,"[82, 0, 172]",172,l,0.8429020750336349,colour,0.5
010,74,0,2,3,44,144,263.7804988133721,266.1116256923415,"[93, 0, 161]",161,l,1.8090809769928455,colour,0.5
010,74,0,2,3,45,145,266.6232693439815,267.7836172829848,"[3, 0, 251]",251,a,0.6369109742809087,colour,0.5
010,74,0,2,3,46,146,268.29647516063415,269.31162443198264,"[30, 0, 224]",224,a,0.4917733527254313,colour,0.5
010,74,0,2,3,47,147,269.8291296879761,270.84760419791564,"[50, 0, 204]",204,a,0.49519193288870156,colour,0.5
010,74,0,2,3,48,148,271.3604742847383,272.6236104143318,"[71, 0, 183]",183,l,0.7398118048440665,colour,0.5
010,74,0,2,3,49,149,273.14176551555283,274.28759039752185,"[17, 0, 237]",237,a,0.6198267394211143,colour,0.5
010,74,0,2,3,50,150,274.8007330256514,275.99163550697267,"[79, 0, 175]",175,l,0.6674899351783097,colour,0.5
010,74,0,2,4,1,151,280.6754401028156,282.6635770793073,"[82, 0, 172]",172,l,1.4642392124515027,colour,0.5
010,74,0,2,4,2,152,283.17783350264654,284.2956256356556,"[46, 0, 208]",208,a,0.5944878943264484,colour,0.5
010,74,0,2,4,3,153,284.8028995702043,285.83163612149656,"[53, 0, 201]",201,a,0.5053677218966186,colour,0.5
010,74,0,2,4,4,154,286.3521747761406,287.351613546256,"[16, 0, 238]",238,a,0.47636138647794724,colour,0.5
010,74,0,2,4,5,155,287.86797783127986,289.17555825645104,"[49, 0, 205]",205,a,0.7843017864506692,colour,0.5
010,74,0,2,4,6,156,289.6962379079778,290.85560674685985,"[30, 0, 224]",224,a,0.6360582986380905,colour,0.5
010,74,0,2,4,7,157,291.3691640943289,292.4556006027851,"[44, 0, 210]",210,a,0.5630621653981507,colour,0.5
010,74,0,2,4,8,158,292.96305806958117,294.0315848425962,"[8, 0, 246]",246,a,0.5451697590760887,colour,0.5
010,74,0,2,4,9,159,294.54130101390183,295.64759836904705,"[11, 0, 243]",243,a,0.5829541257116944,colour,0.5
010,74,0,2,4,10,160,296.1664525461383,297.2716069610324,"[21, 0, 233]",233,a,0.5818458441644907,colour,0.5
010,74,0,2,4,11,161,297.79156272439286,299.0075850726571,"[1, 0, 253]",253,a,0.6926862082909793,colour,0.5
010,74,0,2,4,12,162,299.52607179176994,300.45556200598367,"[14, 0, 240]",240,a,0.4064254336990416,colour,0.5
010,74,0,2,4,13,163,300.96366537944414,302.1116056062747,"[57, 0, 197]",197,l,0.6292124742176384,colour,0.5
010,74,0,2,4,14,164,302.6311659484636,303.67961959238164,"[88, 0, 166]",166,l,0.5251486175693572,colour,0.5
010,74,0,2,4,15,165,304.1987218922004,305.45556279364973,"[98, 0, 156]",156,l,0.7336422132793814,colour,0.5
010,74,0,2,4,16,166,305.96455113822594,306.9517523373943,"[12, 0, 242]",242,a,0.4639769112691283,colour,0.5
010,74,0,2,4,17,167,307.4661340035964,308.5915309016127,"[90, 0, 164]",164,l,0.6007067165337503,colour,0.5
010,74,0,2,4,18,168,309.10656280699186,310.271578210406,"[65, 0, 189]",189,l,0.6417407032568008,colour,0.5
010,74,0,2,4,19,169,310.77855676063336,311.9996258467436,"[86, 0, 168]",168,l,0.6978160473518074,colour,0.5
010,74,0,2,4,20,170,312.5130280191079,313.68795257783495,"[9, 0, 245]",245,a,0.6515797539614141,colour,0.5
010,74,0,2,4,21,171,314.200678123394,315.38354182220064,"[85, 0, 169]",169,l,0.6594846295192838,colour,0.5
010,74,0,2,4,22,172,315.90398437855765,320.08752194722183,"[50, 0, 204]",204,l,3.660257354611531,colour,0.5
010,74,0,2,4,23,173,320.60888807149604,321.57552068377845,"[5, 0, 249]",249,a,0.4435095426160842,colour,0.5
010,74,0,2,4,24,174,322.0923886974342,323.14355751289986,"[95, 0, 159]",159,l,0.5279937582090497,colour,0.5
010,74,0,2,4,25,175,323.6549628879875,326.9195566403214,"[28, 0, 226]",226,a,2.741297390544787,colour,0.5
010,74,0,2,4,26,176,327.43655698606744,328.43162249424495,"[84, 0, 170]",170,l,0.4717758418992162,colour,0.5
010,74,0,2,4,27,177,328.9523068720009,330.5035182228312,"[56, 0, 198]",198,l,1.0267141538206488,colour,0.5
010,74,0,2,4,28,178,331.0161161625292,332.14355711918324,"[68, 0, 186]",186,l,0.6041378995869309,colour,0.5
010,74,0,2,4,29,179,332.6568887929898,333.85556893772446,"[91, 0, 163]",163,l,0.675347549142316,colour,0.5
010,74,0,2,4,30,180,334.375748405233,335.47166005149484,"[39, 0, 215]",215,a,0.5729894379619509,colour,0.5
010,74,0,2,4,31,181,335.9853044387419,337.8315219061915,"[80, 0, 174]",174,l,1.3215020799543709,colour,0.5
010,74,0,2,4,32,182,338.3471107094083,339.5754824806936,"[6, 0, 248]",248,a,0.705921390093863,colour,0.5
010,74,0,2,4,33,183,340.0964090733323,341.4635527394712,"[59, 0, 195]",195,a,0.8417508641723543,colour,0.5
010,74,0,2,4,34,184,341.97365448554046,343.4635917302221,"[62, 0, 192]",192,a,0.96667435974814,colour,0.5
010,74,0,2,4,35,185,343.9738214761019,345.13550612702966,"[83, 0, 171]",171,l,0.6387057285755873,colour,0.5
010,74,0,2,4,36,186,345.6347857834771,346.927524136845,"[0, 0, 254]",254,a,0.7788328463211656,colour,0.5
010,74,0,2,4,37,187,347.44355562259443,348.5195516778622,"[92, 0, 162]",162,l,0.5655071591027081,colour,0.5
010,74,0,2,4,38,188,349.02768734656274,352.43951043416746,"[10, 0, 244]",244,a,2.8884916736278683,colour,0.5
010,74,0,2,4,39,189,352.9498150108848,353.9995561360847,"[76, 0, 178]",178,l,0.5263746590353549,colour,0.5
010,74,0,2,4,40,190,354.5124329184182,355.631566489581,"[13, 0, 241]",241,a,0.5957667110487819,colour,0.5
010,74,0,2,4,41,191,356.1376049304381,357.19152515148744,"[2, 0, 252]",252,a,0.5293462241534144,colour,0.5
010,74,0,2,4,42,192,357.70139807322994,358.67946481122635,"[17, 0, 237]",237,a,0.45498462836258113,colour,0.5
010,74,0,2,4,43,193,359.1844583796337,360.1995017065201,"[79, 0, 175]",175,l,0.49171742680482566,colour,0.5
010,74,0,2,4,44,194,360.7134080012329,361.87147478642873,"[81, 0, 173]",173,l,0.632835459895432,colour,0.5
010,74,0,2,4,45,195,362.38727626623586,363.2954578574281,"[66, 0, 188]",188,l,0.3853483919519931,colour,0.5
010,74,0,2,4,46,196,363.81070007639937,365.1355053393636,"[45, 0, 209]",209,a,0.8019476451445371,colour,0.5
010,74,0,2,4,47,197,365.6542386058718,366.83945041219704,"[26, 0, 228]",228,a,0.6619004784151912,colour,0.5
010,74,0,2,4,48,198,367.35902847745456,368.4394797142595,"[24, 0, 230]",230,a,0.5573041425086558,colour,0.5
010,74,0,2,4,49,199,368.9529118188657,371.255490798736,"[54, 0, 200]",200,a,1.7793814733158797,colour,0.5
010,74,0,2,4,50,200,371.76552480319515,373.22346839355305,"[19, 0, 235]",235,a,0.9344928411301225,colour,0.5
010,74,0,2,5,1,201,378.1090948404744,382.6794699311722,"[80, 0, 174]",174,a,4.044800332048908,colour,0.5
010,74,0,2,5,2,202,383.1899513443932,384.3274499364197,"[99, 0, 155]",155,a,0.6141376395244151,colour,0.5
010,74,0,2,5,3,203,384.8462619720958,386.1834521042183,"[77, 0, 177]",177,l,0.8138528105337173,colour,0.5
010,74,0,2,5,4,204,386.6923604980111,387.743462753715,"[30, 0, 224]",224,a,0.5279157769400626,colour,0.5
010,74,0,2,5,5,205,388.2549906147178,390.87947300309315,"[87, 0, 167]",167,l,2.1011533373966813,colour,0.5
010,74,0,2,5,6,206,391.3968159945216,392.46343970578164,"[49, 0, 205]",205,a,0.5432592141442001,colour,0.5
010,74,0,2,5,7,207,392.97513967752457,394.2074715665076,"[73, 0, 181]",181,l,0.7090977549087256,colour,0.5
010,74,0,2,5,8,208,394.7266778415069,396.0155765940435,"[64, 0, 190]",190,l,0.7658457874786109,colour,0.5
010,74,0,2,5,9,209,396.514366700314,398.2074373017531,"[47, 0, 207]",207,a,1.1697443074081093,colour,0.5
010,74,0,2,5,10,210,398.72606304846704,399.75941940862685,"[8, 0, 246]",246,a,0.5077957799658179,colour,0.5
010,74,0,2,5,11,211,400.27523191599175,401.31143853696994,"[0, 0, 254]",254,a,0.5129988745320588,colour,0.5
010,74,0,2,5,12,212,401.8223134018481,403.023423967883,"[81, 0, 173]",173,l,0.6778082966338843,colour,0.5
010,74,0,2,5,13,213,403.54313121456653,404.45546748302877,"[90, 0, 164]",164,l,0.38934159255586565,colour,0.5
010,74,0,2,5,14,214,404.96504186978564,406.18342611030675,"[29, 0, 225]",225,a,0.6950953619088978,colour,0.5
010,74,0,2,5,15,215,406.6995316389948,407.6634585317224,"[33, 0, 221]",221,a,0.44062856188975275,colour,0.5
010,74,0,2,5,16,216,408.1840999801643,409.03943615499884,"[56, 0, 198]",198,a,0.33213118533603847,colour,0.5
010,74,0,2,5,17,217,409.55913434317335,410.61542630242184,"[65, 0, 189]",189,a,0.5331078434828669,colour,0.5
010,74,0,2,5,18,218,411.1218050259631,412.19145741011016,"[44, 0, 210]",210,a,0.5449492058251053,colour,0.5
010,74,0,2,5,19,219,412.7001759703271,413.54339981707744,"[36, 0, 218]",218,a,0.3203307830262929,colour,0.5
010,74,0,2,5,20,220,414.0596053826157,415.2634323015809,"[55, 0, 199]",199,a,0.6807113324757665,colour,0.5
010,74,0,2,5,21,221,415.77848626230843,416.895404845709,"[75, 0, 179]",179,l,0.5938226890284568,colour,0.5
010,74,0,2,5,22,222,417.40364409587346,418.6074442334939,"[61, 0, 193]",193,l,0.6805096834432334,colour,0.5
010,74,0,2,5,23,223,419.12252615741454,420.15940546640195,"[25, 0, 229]",229,a,0.5136168180033565,colour,0.5
010,74,0,2,5,24,224,420.6709006384481,421.5834212265909,"[20, 0, 234]",234,a,0.40183437522500753,colour,0.5
010,74,0,2,5,25,225,422.0927549737971,422.9514522270765,"[12, 0, 242]",242,a,0.3356679189018905,colour,0.5
010,74,0,2,5,26,226,423.46869596932083,424.23947861162014,"[42, 0, 212]",212,a,0.24737876071594656,colour,0.5
010,74,0,2,5,27,227,424.7504416978918,425.7993718951475,"[52, 0, 202]",202,a,0.5257618352770805,colour,0.5
010,74,0,2,5,28,228,426.3130261285696,427.65542171825655,"[28, 0, 226]",226,a,0.8192024154122919,colour,0.5
010,74,0,2,5,29,229,428.1726666421164,429.78344123391435,"[50, 0, 204]",204,a,1.087516827043146,colour,0.5
010,74,0,2,5,30,230,430.2990564247593,430.88738851225935,"[82, 0, 172]",172,l,0.06498058745637536,colour,0.5
010,74,0,2,5,31,231,431.4085778000299,432.63147236034274,"[59, 0, 195]",195,l,0.6996683031320572,colour,0.5
010,74,0,2,5,32,232,433.14309631986544,434.15137259149924,"[5, 0, 249]",249,a,0.483295826241374,colour,0.5
010,74,0,2,5,33,233,434.66238845326006,436.7754347466398,"[66, 0, 188]",188,l,1.5895884551573545,colour,0.5
010,74,0,2,5,34,234,437.2877195789479,439.119473853847,"[97, 0, 157]",157,l,1.3085024177562445,colour,0.5
010,74,0,2,5,35,235,439.62053802469745,440.7113737887703,"[60, 0, 194]",194,l,0.5673924980219454,colour,0.5
010,74,0,2,5,36,236,441.2300215905998,442.5433899711352,"[57, 0, 197]",197,a,0.7900255448184907,colour,0.5
010,74,0,2,5,37,237,443.05837658420205,444.25536555587314,"[14, 0, 240]",240,a,0.6738143081311136,colour,0.5
010,74,0,2,5,38,238,444.7641420112923,445.92735399561934,"[43, 0, 211]",211,a,0.6420282104518265,colour,0.5
010,74,0,2,5,39,239,446.4340395247564,447.5993975738529,"[39, 0, 215]",215,a,0.6420640503056347,colour,0.5
010,74,0,2,5,40,240,448.10604096157476,448.94343549967743,"[32, 0, 222]",222,a,0.3139997150283307,colour,0.5
010,74,0,2,5,41,241,449.44923960231245,451.3273451735731,"[48, 0, 206]",206,a,1.3547190187964588,colour,0.5
010,74,0,2,5,42,242,451.8417232951615,452.9033439855557,"[84, 0, 170]",170,l,0.5383526855148375,colour,0.5
010,74,0,2,5,43,243,453.4199197657872,454.6953489985317,"[88, 0, 166]",166,l,0.7645260107237846,colour,0.5
010,74,0,2,5,44,244,455.203127843095,456.3194836212788,"[9, 0, 245]",245,a,0.6021442532073706,colour,0.5
010,74,0,2,5,45,245,456.8273794380948,458.1753652722109,"[67, 0, 187]",187,a,0.8337254722137004,colour,0.5
010,74,0,2,5,46,246,458.69352825032547,459.5833121314645,"[16, 0, 238]",238,a,0.37561095296405256,colour,0.5
010,74,0,2,5,47,247,460.09073454583995,461.19138179160655,"[19, 0, 235]",235,a,0.577196890488267,colour,0.5
010,74,0,2,5,48,248,461.7002693116665,462.4873256543651,"[1, 0, 253]",253,a,0.2637458024546504,colour,0.5
010,74,0,2,5,49,249,462.9976987601258,464.48737921752036,"[54, 0, 200]",200,a,0.9662698803003877,colour,0.5
010,74,0,2,5,50,250,464.9988637554925,466.09536223160103,"[38, 0, 216]",216,a,0.573613682994619,colour,0.5
010,74,0,2,6,1,251,471.4197145723738,473.60730284289457,"[23, 0, 231]",231,a,1.663492796011269,colour,0.5
010,74,0,2,6,2,252,474.1253429411445,475.81533524533734,"[5, 0, 249]",249,a,1.1668404839001596,colour,0.5
010,74,0,2,6,3,253,476.33052271977067,477.61534280725755,"[12, 0, 242]",242,a,0.7615249073132873,colour,0.5
010,74,0,2,6,4,254,478.1275409935042,479.73536962014623,"[58, 0, 196]",196,l,1.0845570771489292,colour,0.5
010,74,0,2,6,5,255,480.25340853701346,482.7593174027279,"[49, 0, 205]",205,l,1.9825223134830594,colour,0.5
010,74,0,2,6,6,256,483.269301782595,484.2793424827978,"[38, 0, 216]",216,a,0.48481173790059984,colour,0.5
010,74,0,2,6,7,257,484.787055948982,486.9352982554119,"[59, 0, 195]",195,a,1.624911286169663,colour,0.5
010,74,0,2,6,8,258,487.443506391719,488.64732149546035,"[76, 0, 178]",178,l,0.6811134486924857,colour,0.5
010,74,0,2,6,9,259,489.16249873000197,490.2713434784673,"[13, 0, 241]",241,a,0.5856397589668632,colour,0.5
010,74,0,2,6,10,260,490.789258727571,491.87129007279873,"[82, 0, 172]",172,l,0.5587310451082885,colour,0.5
010,74,0,2,6,11,261,492.3831586104352,493.3513461248949,"[0, 0, 254]",254,a,0.445137306349352,colour,0.5
010,74,0,2,6,12,262,493.8675989517942,495.7352770664729,"[57, 0, 197]",197,l,1.3443100729491562,colour,0.5
010,74,0,2,6,13,263,496.24422681424767,497.8473497736268,"[50, 0, 204]",204,a,1.079812025418505,colour,0.5
010,74,0,2,6,14,264,498.35371510637924,499.15932433423586,"[24, 0, 230]",230,a,0.28223961079493165,colour,0.5
010,74,0,2,6,15,265,499.6677073382307,500.8633190316614,"[40, 0, 214]",214,a,0.6726205621380359,colour,0.5
010,74,0,2,6,16,266,501.3709293103311,502.3993015543092,"[95, 0, 159]",159,l,0.5049687563441694,colour,0.5
010,74,0,2,6,17,267,502.91795171936974,504.13530881050974,"[51, 0, 203]",203,a,0.6939827480819076,colour,0.5
010,74,0,2,6,18,268,504.65453595947474,505.6552811153233,"[15, 0, 239]",239,a,0.477455883519724,colour,0.5
010,74,0,2,6,19,269,506.1691921360325,509.79931833199225,"[66, 0, 188]",188,l,3.1069578339811414,colour,0.5
010,74,0,2,6,20,270,510.31107068504207,511.7912527679,"[60, 0, 194]",194,l,0.9567730810958892,colour,0.5
010,74,0,2,6,21,271,512.3109103899915,513.4313381377142,"[35, 0, 219]",219,a,0.5970439522061497,colour,0.5
010,74,0,2,6,22,272,513.9373631880153,515.1432570088655,"[80, 0, 174]",174,l,0.6825202654581517,colour,0.5
010,74,0,2,6,23,273,515.6561948370654,516.3761194078252,"[89, 0, 165]",165,l,0.19657622138038278,colour,0.5
010,74,0,2,6,24,274,516.8842562581412,518.6952607771382,"[77, 0, 177]",177,l,1.2875191115308553,colour,0.5
010,74,0,2,6,25,275,519.2133694044314,520.3352732856292,"[25, 0, 229]",229,a,0.5986106703057885,colour,0.5
010,74,0,2,6,26,276,520.8540916228667,521.9753263602033,"[44, 0, 210]",210,a,0.5979864248074591,colour,0.5
010,74,0,2,6,27,277,522.4957271690946,524.119298198726,"[45, 0, 209]",209,a,1.100306175649166,colour,0.5
010,74,0,2,6,28,278,524.6271896832623,526.0873297504149,"[37, 0, 217]",217,a,0.9368114101234823,colour,0.5
010,74,0,2,6,29,279,526.6056163960602,527.8312887495849,"[43, 0, 211]",211,a,0.7023901701904833,colour,0.5
010,74,0,2,6,30,280,528.3400258205365,530.1752238816116,"[41, 0, 213]",213,a,1.3117646409664303,colour,0.5
010,74,0,2,6,31,281,530.6839601648971,531.8792894710787,"[6, 0, 248]",248,a,0.6720274304971099,colour,0.5
010,74,0,2,6,32,282,532.3872518478893,533.7032152768224,"[91, 0, 163]",163,l,0.7929317315574735,colour,0.5
010,74,0,2,6,33,283,534.2155028660782,535.4072702324484,"[46, 0, 208]",208,a,0.6683808139059693,colour,0.5
010,74,0,2,6,34,284,535.9201737963594,537.7512813766953,"[61, 0, 193]",193,a,1.3079010155051947,colour,0.5
010,74,0,2,6,35,285,538.2634362399112,539.3032402466051,"[36, 0, 218]",218,a,0.5164422665257007,colour,0.5
010,74,0,2,6,36,286,539.8104381691664,541.7112646934111,"[17, 0, 237]",237,a,1.377447061240673,colour,0.5
010,74,0,2,6,37,287,542.2324256242719,544.3672377953772,"[83, 0, 171]",171,l,1.610057792859152,colour,0.5
010,74,0,2,6,38,288,544.8742832995486,546.1032151193358,"[48, 0, 206]",206,a,0.7056449104566127,colour,0.5
010,74,0,2,6,39,289,546.610111749731,548.0231943558902,"[87, 0, 167]",167,l,0.8901064407546073,colour,0.5
010,74,0,2,6,40,290,548.5321708850097,549.8632906747516,"[63, 0, 191]",191,l,0.8078155510593206,colour,0.5
010,74,0,2,6,41,291,550.3760465462692,551.8312785096932,"[52, 0, 202]",202,a,0.9324696562252939,colour,0.5
010,74,0,2,6,42,292,552.344918170711,553.5832195777912,"[99, 0, 155]",155,l,0.7127715467941016,colour,0.5
010,74,0,2,6,43,293,554.0979056865908,555.1752845337614,"[39, 0, 215]",215,a,0.5541325036901981,colour,0.5
010,74,0,2,6,44,294,555.6916366098449,556.7832439173944,"[81, 0, 173]",173,l,0.5686784037388861,colour,0.5
010,74,0,2,6,45,295,557.3011556218844,558.4151857416146,"[31, 0, 223]",223,a,0.590710127260536,colour,0.5
010,74,0,2,6,46,296,558.9165968904272,560.0952342317905,"[55, 0, 199]",199,a,0.6554323518648744,colour,0.5
010,74,0,2,6,47,297,560.6041682257783,561.679200146813,"[94, 0, 160]",160,l,0.5516808147076517,colour,0.5
010,74,0,2,6,48,298,562.1980208470486,563.3112124695908,"[7, 0, 247]",247,a,0.5898483931086957,colour,0.5
010,74,0,2,6,49,299,563.8231058192905,565.0552262132987,"[70, 0, 184]",184,l,0.7086487710475922,colour,0.5
010,74,0,2,6,50,300,565.5746770664118,566.90322189359,"[69, 0, 185]",185,l,0.8059786553494632,colour,0.5
010,74,0,2,7,1,301,572.1186243288685,573.0712155574001,"[38, 0, 216]",216,a,0.4285753108561039,colour,0.5
010,74,0,2,7,2,302,573.5916399967391,575.7832183174323,"[15, 0, 239]",239,a,1.6682701434474438,colour,0.5
010,74,0,2,7,3,303,576.2949718518648,577.3512063098606,"[89, 0, 165]",165,l,0.5328073394484818,colour,0.5
010,74,0,2,7,4,304,577.8587204902433,579.7112146751024,"[59, 0, 195]",195,l,1.3292986475862563,colour,0.5
010,74,0,2,7,5,305,580.2179766104091,581.3911812454462,"[95, 0, 159]",159,l,0.6498444704338908,colour,0.5
010,74,0,2,7,6,306,581.9056660993956,583.3831932689063,"[86, 0, 168]",168,l,0.9542568016331643,colour,0.5
010,74,0,2,7,7,307,583.8916451956611,585.0471744334791,"[1, 0, 253]",253,a,0.6322127899620682,colour,0.5
010,74,0,2,7,8,308,585.5645469634328,587.5272072488442,"[99, 0, 155]",155,l,1.4400527596008033,colour,0.5
010,74,0,2,7,9,309,588.0210380509961,589.5271623502485,"[12, 0, 242]",242,a,0.9826995437033474,colour,0.5
010,74,0,2,7,10,310,590.0368375615217,591.1591498607304,"[30, 0, 224]",224,a,0.5990553218871355,colour,0.5
010,74,0,2,7,11,311,591.6775377246086,593.6471946772654,"[58, 0, 196]",196,a,1.4462215634994209,colour,0.5
010,74,0,2,7,12,312,594.1621773520019,595.1511603086255,"[44, 0, 210]",210,a,0.4657582747749984,colour,0.5
010,74,0,2,7,13,313,595.6636448206846,597.0791779339779,"[97, 0, 157]",157,l,0.8921347456052899,colour,0.5
010,74,0,2,7,14,314,597.5856622082647,599.2312003707048,"[61, 0, 193]",193,a,1.1229499352630228,colour,0.5
010,74,0,2,7,15,315,599.7420555432327,601.223171827849,"[42, 0, 212]",212,a,0.9579183841124177,colour,0.5
010,74,0,2,7,16,316,601.7422942137346,603.1271514801774,"[69, 0, 185]",185,a,0.8618094213306904,colour,0.5
010,74,0,2,7,17,317,603.6220086442772,605.0551415362861,"[18, 0, 236]",236,a,0.9100622038822621,colour,0.5
010,74,0,2,7,18,318,605.5613449986558,607.1351737214718,"[24, 0, 230]",230,a,1.0505701703950763,colour,0.5
010,74,0,2,7,19,319,607.6542283659801,608.8951724770013,"[45, 0, 209]",209,a,0.7175914293620735,colour,0.5
010,74,0,2,7,20,320,609.4035121577326,610.9911337476224,"[47, 0, 207]",207,a,1.0641732036601752,colour,0.5
010,74,0,2,7,21,321,611.4974486681167,613.0071656270884,"[96, 0, 158]",158,l,0.9864032678306103,colour,0.5
010,74,0,2,7,22,322,613.5143265279476,614.751165586058,"[11, 0, 243]",243,a,0.7136254038196057,colour,0.5
010,74,0,2,7,23,323,615.2631971756928,616.4231355153024,"[51, 0, 203]",203,a,0.6366415838710964,colour,0.5
010,74,0,2,7,24,324,616.9351990062278,618.2471333947033,"[40, 0, 214]",214,a,0.8010063541587442,colour,0.5
010,74,0,2,7,25,325,618.7645063186064,619.7991454338189,"[22, 0, 232]",232,a,0.5123513920698315,colour,0.5
010,74,0,2,7,26,326,620.3104980336502,621.535145600792,"[6, 0, 248]",248,a,0.701328756287694,colour,0.5
010,74,0,2,7,27,327,622.044972442789,623.2951388424262,"[16, 0, 238]",238,a,0.7268282903824002,colour,0.5
010,74,0,2,7,28,328,623.8108020825312,625.0471448951866,"[36, 0, 218]",218,a,0.7123032642994076,colour,0.5
010,74,0,2,7,29,329,625.5616076935548,627.0071660210378,"[27, 0, 227]",227,a,0.9222970178816468,colour,0.5
010,74,0,2,7,30,330,627.5147755120415,629.5031078357715,"[68, 0, 186]",186,l,1.4649311990942806,colour,0.5
010,74,0,2,7,31,331,630.0160980455112,631.1671331112739,"[26, 0, 228]",228,a,0.6275201195385307,colour,0.5
010,74,0,2,7,32,332,631.6732129058801,633.7111398444977,"[63, 0, 191]",191,l,1.5146353030577302,colour,0.5
010,74,0,2,7,33,333,634.2112745395862,635.8870986418333,"[91, 0, 163]",163,l,1.1525139559525996,colour,0.5
010,74,0,2,7,34,334,636.3988974685781,637.7031089386437,"[70, 0, 184]",184,l,0.7808560314588249,colour,0.5
010,74,0,2,7,35,335,638.2141275571194,639.4710877938196,"[53, 0, 201]",201,a,0.7335642320103943,colour,0.5
010,74,0,2,7,36,336,639.9799536522478,641.1671161758713,"[19, 0, 235]",235,a,0.6638574972748756,colour,0.5
010,74,0,2,7,37,337,641.6838829712942,642.9750711482484,"[9, 0, 245]",245,a,0.7679040245711803,colour,0.5
010,74,0,2,7,38,338,643.4965759064071,644.6871180189773,"[88, 0, 166]",166,l,0.6672693816944957,colour,0.5
010,74,0,2,7,39,339,645.2013559318148,646.551105406601,"[71, 0, 183]",183,l,0.8264515376649797,colour,0.5
010,74,0,2,7,40,340,647.0605616397224,648.2951254516374,"[41, 0, 213]",213,a,0.7112260963767767,colour,0.5
010,74,0,2,7,41,341,648.810684716329,650.4391126502305,"[83, 0, 171]",171,l,1.1064757672138512,colour,0.5
010,74,0,2,7,42,342,650.9502958962694,653.2231344124302,"[67, 0, 187]",187,l,1.7478631904814392,colour,0.5
010,74,0,2,7,43,343,653.7346339167561,655.1110865178052,"[52, 0, 202]",202,a,0.854656791081652,colour,0.5
010,74,0,2,7,44,344,655.6227679785807,656.8390947696753,"[79, 0, 175]",175,l,0.693086355458945,colour,0.5
010,74,0,2,7,45,345,657.3499369453639,659.1350992845837,"[93, 0, 161]",161,l,1.2618395898025483,colour,0.5
010,74,0,2,7,46,346,659.6548203160055,660.9830819680355,"[98, 0, 156]",156,l,0.80484753055498,colour,0.5
010,74,0,2,7,47,347,661.4914559132885,662.5510782313067,"[20, 0, 234]",234,a,0.5362881470937282,colour,0.5
010,74,0,2,7,48,348,663.0696909809485,664.1591215038206,"[43, 0, 211]",211,a,0.5661219519097358,colour,0.5
010,74,0,2,7,49,349,664.6792607991956,666.2791065692436,"[76, 0, 178]",178,l,1.076506873127073,colour,0.5
010,74,0,2,7,50,350,666.7887959589716,667.9751144712791,"[21, 0, 233]",233,a,0.6629989137873054,colour,0.5
010,74,0,2,8,1,351,672.8834760498721,673.6790682086721,"[48, 0, 206]",206,a,0.2789383970666677,colour,0.5
010,74,0,2,8,2,352,674.1894019297324,675.2630916251801,"[25, 0, 229]",229,a,0.5586026515811682,colour,0.5
010,74,0,2,8,3,353,675.7749960026704,676.9190702408087,"[86, 0, 168]",168,l,0.6208676733076572,colour,0.5
010,74,0,2,8,4,354,677.4314153315499,678.6390783067327,"[31, 0, 223]",223,a,0.6844237211626023,colour,0.5
010,74,0,2,8,5,355,679.150208777748,680.2790762430523,"[5, 0, 249]",249,a,0.6055269930511713,colour,0.5
010,74,0,2,8,6,356,680.7785268283915,682.2790404031985,"[39, 0, 215]",215,a,0.9778832059819251,colour,0.5
010,74,0,2,8,7,357,682.7819678576197,683.8710612487048,"[13, 0, 241]",241,a,0.5658273554872721,colour,0.5
010,74,0,2,8,8,358,684.3850006263237,685.5190802444704,"[92, 0, 162]",162,l,0.6110223208088428,colour,0.5
010,74,0,2,8,9,359,686.0292627289891,687.1750151433516,"[6, 0, 248]",248,a,0.6225348217412829,colour,0.5
010,74,0,2,8,10,360,687.6855233381502,688.871032891795,"[54, 0, 200]",200,a,0.6621584473177791,colour,0.5
010,74,0,2,8,11,361,689.3855965146795,690.9430345648434,"[41, 0, 213]",213,a,1.0345067833550274,colour,0.5
010,74,0,2,8,12,362,691.4531181938946,692.7510364048649,"[7, 0, 247]",247,a,0.7745608030818403,colour,0.5
010,74,0,2,8,13,363,693.2615481442772,694.7190364489798,"[85, 0, 169]",169,l,0.9340982078574598,colour,0.5
010,74,0,2,8,14,364,695.2303953501396,696.2550217285752,"[0, 0, 254]",254,a,0.49984403722919524,colour,0.5
010,74,0,2,8,15,365,696.7633117847145,697.6230523351114,"[23, 0, 231]",231,a,0.33663284056819975,colour,0.5
010,74,0,2,8,16,366,698.1382744680159,699.319014551118,"[59, 0, 195]",195,a,0.6574078814592212,colour,0.5
010,74,0,2,8,17,367,699.8259994029067,700.8150693995412,"[61, 0, 193]",193,a,0.46593944379128516,colour,0.5
010,74,0,2,8,18,368,701.3259218153544,702.3350188613404,"[30, 0, 224]",224,a,0.48590308404527605,colour,0.5
010,74,0,2,8,19,369,702.8416921813041,703.9829945343081,"[58, 0, 196]",196,a,0.6180516772437841,colour,0.5
010,74,0,2,8,20,370,704.4981520764995,705.7430204651318,"[66, 0, 188]",188,a,0.7219024633523077,colour,0.5
010,74,0,2,8,21,371,706.2651754622348,708.9350217757747,"[15, 0, 239]",239,a,2.1466700746677816,colour,0.5
010,74,0,2,8,22,372,709.4516389097553,710.9270491590723,"[29, 0, 225]",225,a,0.9521257029846311,colour,0.5
010,74,0,2,8,23,373,711.4383454390336,712.6470174465794,"[17, 0, 237]",237,a,0.6853311413433403,colour,0.5
010,74,0,2,8,24,374,713.1572204111144,714.4470084670465,"[81, 0, 173]",173,l,0.7664475834462792,colour,0.5
010,74,0,2,8,25,375,714.9542363216169,716.1911628134549,"[73, 0, 181]",181,l,0.7135273364838213,colour,0.5
010,74,0,2,8,26,376,716.7043460076675,717.8629582689609,"[44, 0, 210]",210,a,0.6352095613256097,colour,0.5
010,74,0,2,8,27,377,718.3764309396502,719.5590209157672,"[10, 0, 244]",244,a,0.6598426352720708,colour,0.5
010,74,0,2,8,28,378,720.0796001364943,721.2230465849862,"[50, 0, 204]",204,a,0.6186818303540349,colour,0.5
010,74,0,2,8,29,379,721.7373475129716,722.9430889154319,"[40, 0, 214]",214,a,0.6824340131133795,colour,0.5
010,74,0,2,8,30,380,723.4562555681914,724.9591365486849,"[95, 0, 159]",159,l,0.9795672895852476,colour,0.5
010,74,0,2,8,31,381,725.459673360223,726.1430368490983,"[82, 0, 172]",172,l,0.1603184004779905,colour,0.5
010,74,0,2,8,32,382,726.662866581697,728.4870212117676,"[62, 0, 192]",192,l,1.3008011607453227,colour,0.5
010,74,0,2,8,33,383,729.0068143168464,730.2710142233409,"[49, 0, 205]",205,a,0.7395258727483451,colour,0.5
010,74,0,2,8,34,384,730.789563564118,731.8309728854802,"[64, 0, 190]",190,a,0.5181578581687063,colour,0.5
010,74,0,2,8,35,385,732.3521873792633,733.4949989484157,"[32, 0, 222]",222,a,0.6195096937008202,colour,0.5
010,74,0,2,8,36,386,734.0085417237133,735.0469495477155,"[38, 0, 216]",216,a,0.5150870438665152,colour,0.5
010,74,0,2,8,37,387,735.5570481428877,736.5029900758527,"[45, 0, 209]",209,a,0.43525571981444955,colour,0.5
010,74,0,2,8,38,388,737.0134210770484,738.6229861690663,"[75, 0, 179]",179,l,1.086223438149318,colour,0.5
010,74,0,2,8,39,389,739.1390448298771,740.2069741394371,"[28, 0, 226]",226,a,0.5486907390877604,colour,0.5
010,74,0,2,8,40,390,740.7131968999747,741.8469834972639,"[91, 0, 163]",163,l,0.6215313032735139,colour,0.5
010,74,0,2,8,41,391,742.3584566137288,743.5189739062916,"[99, 0, 155]",155,l,0.6371882418170571,colour,0.5
010,74,0,2,8,42,392,744.0304296936374,745.3349259137176,"[71, 0, 183]",183,l,0.7843955217394978,colour,0.5
010,74,0,2,8,43,393,745.8535016421229,747.1589501809794,"[65, 0, 189]",189,l,0.7821143679320812,colour,0.5
010,74,0,2,8,44,394,747.6661114757881,748.8549872275908,"[63, 0, 191]",191,l,0.6654931379016489,colour,0.5
010,74,0,2,8,45,395,749.3717993153259,750.65492350352,"[52, 0, 202]",202,a,0.759754965081811,colour,0.5
010,74,0,2,8,46,396,751.1687896258663,752.263002222171,"[56, 0, 198]",198,a,0.5708894531708211,colour,0.5
010,74,0,2,8,47,397,752.7782924904022,753.8069246723317,"[70, 0, 184]",184,a,0.5053649649489671,colour,0.5
010,74,0,2,8,48,398,754.3252707887441,755.462958032731,"[21, 0, 233]",233,a,0.6143916700966656,colour,0.5
010,74,0,2,8,49,399,755.9817570713349,757.6789996793959,"[74, 0, 180]",180,a,1.1744346148334444,colour,0.5
010,74,0,2,8,50,400,758.186297244858,759.398929764051,"[9, 0, 245]",245,a,0.6900005750358105,colour,0.5
010,74,0,2,9,1,401,767.4530536031816,769.2789096464403,"[64, 0, 190]",190,l,1.301657774951309,colour,0.5
010,74,0,2,9,2,402,769.7978918233421,770.9909210710321,"[5, 0, 249]",249,a,0.669701378326863,colour,0.5
010,74,0,2,9,3,403,771.5024540519807,772.6309737518895,"[83, 0, 171]",171,l,0.6052312150131911,colour,0.5
010,74,0,2,9,4,404,773.1432767009828,774.5829301010817,"[61, 0, 193]",193,l,0.9166339116636664,colour,0.5
010,74,0,2,9,5,405,775.0964527903125,777.3269525093492,"[68, 0, 186]",186,l,1.7072439235635102,colour,0.5
010,74,0,2,9,6,406,777.8467653067783,778.8869312575553,"[82, 0, 172]",172,l,0.5169314229860902,colour,0.5
010,74,0,2,9,7,407,779.3936033959035,780.4309423230588,"[41, 0, 213]",213,a,0.5141607190016657,colour,0.5
010,74,0,2,9,8,408,780.9406214726623,781.5189061646815,"[24, 0, 230]",230,a,0.053881624015048146,colour,0.5
010,74,0,2,9,9,409,782.036042781081,783.1108836871572,"[79, 0, 175]",175,l,0.5518170853611082,colour,0.5
010,74,0,2,9,10,410,783.6299422702286,784.6548845127691,"[1, 0, 253]",253,a,0.5015805023722351,colour,0.5
010,74,0,2,9,11,411,785.1613309776876,786.1829003263265,"[21, 0, 233]",233,a,0.49823242076672614,colour,0.5
010,74,0,2,9,12,412,786.6989322057925,787.9829126144759,"[18, 0, 236]",236,a,0.7609498926904052,colour,0.5
010,74,0,2,9,13,413,788.4959859256633,789.6149099709,"[42, 0, 212]",212,a,0.595630046678707,colour,0.5
010,74,0,2,9,14,414,790.1211512424052,791.118922076188,"[45, 0, 209]",209,a,0.47416333411820233,colour,0.5
010,74,0,2,9,15,415,791.6374213984236,792.654924291186,"[84, 0, 170]",170,l,0.49403560208156705,colour,0.5
010,74,0,2,9,16,416,793.1688494903501,794.4228602172807,"[16, 0, 238]",238,a,0.7306832512840629,colour,0.5
010,74,0,2,9,17,417,794.9345519179478,795.8948566126637,"[27, 0, 227]",227,a,0.4370571698527783,colour,0.5
010,74,0,2,9,18,418,796.4034219670575,797.5028939775657,"[98, 0, 156]",156,l,0.5761547749862075,colour,0.5
010,74,0,2,9,19,419,798.0129972991999,799.1109431579243,"[51, 0, 203]",203,a,0.5733269634656608,colour,0.5
010,74,0,2,9,20,420,799.6232000272721,800.6948858359829,"[55, 0, 199]",199,a,0.5485178406815976,colour,0.5
010,74,0,2,9,21,421,801.2012747996487,801.9988692693878,"[9, 0, 245]",245,a,0.27429377590306103,colour,0.5
010,74,0,2,9,22,422,802.5154426863883,803.6788720735349,"[92, 0, 162]",162,l,0.6403374311048537,colour,0.5
010,74,0,2,9,23,423,804.1871869419701,805.502906186739,"[52, 0, 202]",202,a,0.7923063046764582,colour,0.5
010,74,0,2,9,24,424,806.0154682863504,807.2308384263888,"[88, 0, 166]",166,l,0.6920170644298196,colour,0.5
010,74,0,2,9,25,425,807.751382595161,811.1988691906445,"[77, 0, 177]",177,l,2.924246553797275,colour,0.5
010,74,0,2,9,26,426,811.7061903865542,812.7588888986502,"[31, 0, 223]",223,a,0.529342285823077,colour,0.5
010,74,0,2,9,27,427,813.2687720602844,814.9269254915416,"[23, 0, 231]",231,a,1.1348318632226437,colour,0.5
010,74,0,2,9,28,428,815.440824697027,817.1428450462408,"[54, 0, 200]",200,a,1.1787547073327005,colour,0.5
010,74,0,2,9,29,429,817.6620060291607,818.3188633143436,"[80, 0, 174]",174,l,0.13340850523672998,colour,0.5
010,74,0,2,9,30,430,818.8339271212462,820.0868677694816,"[26, 0, 228]",228,a,0.7416286144871265,colour,0.5
010,74,0,2,9,31,431,820.6048972338904,821.5508923360612,"[39, 0, 215]",215,a,0.42267747269943357,colour,0.5
010,74,0,2,9,32,432,822.0581087691244,823.214860110078,"[32, 0, 222]",222,a,0.6335124806500971,colour,0.5
010,74,0,2,9,33,433,823.7301448644139,824.7028348220047,"[11, 0, 243]",243,a,0.4493640575092286,colour,0.5
010,74,0,2,9,34,434,825.214628135087,826.214884134708,"[14, 0, 240]",240,a,0.4769470349419862,colour,0.5
010,74,0,2,9,35,435,826.7303965317551,827.7828646439593,"[15, 0, 239]",239,a,0.5291146428789943,colour,0.5
010,74,0,2,9,36,436,828.2952629039064,829.3748504372779,"[76, 0, 178]",178,l,0.5562084640841931,colour,0.5
010,74,0,2,9,37,437,829.875451839529,830.9348709329497,"[20, 0, 234]",234,a,0.5362298577092588,colour,0.5
010,74,0,2,9,38,438,831.4531729384325,832.4628434237093,"[87, 0, 167]",167,l,0.4862634527962655,colour,0.5
010,74,0,2,9,39,439,832.9846313565504,834.0148653087672,"[10, 0, 244]",244,a,0.5077875091228634,colour,0.5
010,74,0,2,9,40,440,834.5289110247977,836.0308861606754,"[63, 0, 191]",191,l,0.9738159624394029,colour,0.5
010,74,0,2,9,41,441,836.5496800793335,837.9268518425524,"[2, 0, 252]",252,a,0.8538553153630346,colour,0.5
010,74,0,2,9,42,442,838.4404769313987,839.6148540447466,"[93, 0, 161]",161,l,0.6511126530822366,colour,0.5
010,74,0,2,9,43,443,840.1236139589455,841.4868203506339,"[73, 0, 181]",181,l,0.8342796131037176,colour,0.5
010,74,0,2,9,44,444,842.0043082772754,843.2148482946213,"[12, 0, 242]",242,a,0.6871735511813313,colour,0.5
010,74,0,2,9,45,445,843.713531275047,845.5188498448115,"[43, 0, 211]",211,a,1.281978885177523,colour,0.5
010,74,0,2,9,46,446,846.026152923936,847.8069002539851,"[72, 0, 182]",182,l,1.2578030661679804,colour,0.5
010,74,0,2,9,47,447,848.324722555466,849.4868262582459,"[75, 0, 179]",179,l,0.6387651995755732,colour,0.5
010,74,0,2,9,48,448,849.9967543184757,851.1268108037766,"[28, 0, 226]",226,a,0.6074513227213174,colour,0.5
010,74,0,2,9,49,449,851.6253583012149,852.7188867875375,"[50, 0, 204]",204,a,0.5703171952627599,colour,0.5
010,74,0,2,9,50,450,853.2318683327176,854.702809615992,"[65, 0, 189]",189,a,0.9476303493138403,colour,0.5
010,74,0,2,10,1,451,859.2177765367087,860.406807463849,"[73, 0, 181]",181,l,0.6663682628422976,colour,0.5
010,74,0,2,10,2,452,860.9203793837223,862.0148806688376,"[19, 0, 235]",235,a,0.5690222310367972,colour,0.5
010,74,0,2,10,3,453,862.5320610019844,863.5108425698709,"[41, 0, 213]",213,a,0.454092568019405,colour,0.5
010,74,0,2,10,4,454,864.0178971323185,865.0308148744516,"[46, 0, 208]",208,a,0.4894933805335313,colour,0.5
010,74,0,2,10,5,455,865.5492263692431,866.438808995299,"[16, 0, 238]",238,a,0.36614723689854145,colour,0.5
010,74,0,2,10,6,456,866.9556892181281,868.1267710253596,"[96, 0, 158]",158,l,0.6478110454045236,colour,0.5
010,74,0,2,10,7,457,868.6433290825225,869.7348005133681,"[29, 0, 225]",225,a,0.5683857765980065,colour,0.5
010,74,0,2,10,8,458,870.2527642054483,871.286808220204,"[97, 0, 157]",157,l,0.5110406740568578,colour,0.5
010,74,0,2,10,9,459,871.799787402153,873.6627925387584,"[67, 0, 187]",187,l,1.339675297960639,colour,0.5
010,74,0,2,10,10,460,874.1763061694801,875.2947918644641,"[40, 0, 214]",214,a,0.5953578993212432,colour,0.5
010,74,0,2,10,11,461,875.8013501816895,876.8387871761806,"[75, 0, 179]",179,l,0.5139960914384574,colour,0.5
010,74,0,2,10,12,462,877.3499944468495,878.4709948461968,"[72, 0, 182]",182,l,0.5976110899355263,colour,0.5
010,74,0,2,10,13,463,878.9814991024323,880.0307979392819,"[6, 0, 248]",248,a,0.5329814192373306,colour,0.5
010,74,0,2,10,14,464,880.5385047101881,881.7507559866644,"[95, 0, 159]",159,l,0.6889222257304937,colour,0.5
010,74,0,2,10,15,465,882.2490604813211,883.3987749826629,"[49, 0, 205]",205,a,0.6263610320165753,colour,0.5
010,74,0,2,10,16,466,883.9128616587259,885.1347597897984,"[61, 0, 193]",193,a,0.6985805018339306,colour,0.5
010,74,0,2,10,17,467,885.6497558550909,886.6387951318175,"[2, 0, 252]",252,a,0.4656988042406738,colour,0.5
010,74,0,2,10,18,468,887.1425362713635,888.1988112952095,"[22, 0, 232]",232,a,0.532983782235533,colour,0.5
010,74,0,2,10,19,469,888.7129818603862,889.8387351885904,"[23, 0, 231]",231,a,0.6023852867074311,colour,0.5
010,74,0,2,10,20,470,890.3536713893991,891.4307520955335,"[78, 0, 176]",176,l,0.5537678028922528,colour,0.5
010,74,0,2,10,21,471,891.947607900016,893.1027488061227,"[87, 0, 167]",167,l,0.6303361156024039,colour,0.5
010,74,0,2,10,22,472,893.621115796268,894.82279310585,"[15, 0, 239]",239,a,0.6782714587170631,colour,0.5
010,74,0,2,10,23,473,895.3401644541882,896.5507466131821,"[34, 0, 220]",220,a,0.6873094278853387,colour,0.5
010,74,0,2,10,24,474,897.0589779864531,898.7667524199933,"[90, 0, 164]",164,l,1.1846627853810787,colour,0.5
010,74,0,2,10,25,475,899.2793432704639,900.4547518654726,"[94, 0, 160]",160,l,0.6521858824416995,colour,0.5
010,74,0,2,10,26,476,900.9669209071435,903.2947568122763,"[51, 0, 203]",203,l,1.8043709774501622,colour,0.5
010,74,0,2,10,27,477,903.81188830873,904.9587513676379,"[85, 0, 169]",169,l,0.6235088019166142,colour,0.5
010,74,0,2,10,28,478,905.4682568316348,906.4787595125381,"[57, 0, 197]",197,a,0.4872453100979328,colour,0.5
010,74,0,2,10,29,479,906.9994958776515,907.9907631389797,"[62, 0, 192]",192,a,0.4655180291738361,colour,0.5
010,74,0,2,10,30,480,908.5019641080871,909.5667398958467,"[43, 0, 211]",211,a,0.5508549206424505,colour,0.5
010,74,0,2,10,31,481,910.0866200407036,911.1827246712055,"[54, 0, 200]",200,a,0.5727925149258226,colour,0.5
010,74,0,2,10,32,482,911.6961138467304,913.1347160728183,"[83, 0, 171]",171,l,0.915263329166919,colour,0.5
010,74,0,2,10,33,483,913.650079596322,914.8067060881294,"[36, 0, 218]",218,a,0.6333903884515166,colour,0.5
010,74,0,2,10,34,484,915.3220959992614,919.7667220940348,"[39, 0, 215]",215,a,3.9216235419735312,colour,0.5
010,74,0,2,10,35,485,920.280345607549,921.3267457403708,"[84, 0, 170]",170,l,0.523126614280045,colour,0.5
010,74,0,2,10,36,486,921.8387210101355,924.1106757367961,"[70, 0, 184]",184,l,1.7486540325917304,colour,0.5
010,74,0,2,10,37,487,924.6264819425996,925.5907026443165,"[47, 0, 207]",207,a,0.44112559501081705,colour,0.5
010,74,0,2,10,38,488,926.1059184756596,927.1747217285447,"[81, 0, 173]",173,l,0.5453824358992279,colour,0.5
010,74,0,2,10,39,489,927.6716891173273,929.2547779381275,"[5, 0, 249]",249,a,1.057258456479758,colour,0.5
010,74,0,2,10,40,490,929.7680580182932,930.8707453843672,"[82, 0, 172]",172,l,0.5846878339070827,colour,0.5
010,74,0,2,10,41,491,931.3878615207504,932.4707124589477,"[35, 0, 219]",219,a,0.5598728037439287,colour,0.5
010,74,0,2,10,42,492,932.9693111563101,933.9106813294347,"[42, 0, 212]",212,a,0.41471745911985636,colour,0.5
010,74,0,2,10,43,493,934.4210485273506,935.4386872968171,"[28, 0, 226]",226,a,0.49007036443799734,colour,0.5
010,74,0,2,10,44,494,935.9567817458883,937.28672866337,"[45, 0, 209]",209,a,0.8065930544398725,colour,0.5
010,74,0,2,10,45,495,937.8060542736202,939.0227185902186,"[1, 0, 253]",253,a,0.6933108472730964,colour,0.5
010,74,0,2,10,46,496,939.5404215566814,940.7347024457995,"[99, 0, 155]",155,l,0.6708903983235359,colour,0.5
010,74,0,2,10,47,497,941.2437837379985,942.3747452804819,"[44, 0, 210]",210,a,0.6075226087123156,colour,0.5
010,74,0,2,10,48,498,942.8845410083886,943.9906670406926,"[79, 0, 175]",175,l,0.5827843782026321,colour,0.5
010,74,0,2,10,49,499,944.5096752112731,945.5586763008032,"[48, 0, 206]",206,a,0.5258075213059783,colour,0.5
010,74,0,2,10,50,500,946.0722769713029,947.390657824697,"[76, 0, 178]",178,l,0.7936402598861605,colour,0.5
010,74,0,2,11,1,501,953.0904013523832,954.1426871141884,"[93, 0, 161]",161,l,0.5281556288246065,colour,0.5
010,74,0,2,11,2,502,954.6538112834096,955.6866954227444,"[40, 0, 214]",214,a,0.5095405161846429,colour,0.5
010,74,0,2,11,3,503,956.2007423203904,957.1746787992306,"[33, 0, 221]",221,a,0.4505944310221821,colour,0.5
010,74,0,2,11,4,504,957.6853752522729,958.4866758091375,"[45, 0, 209]",209,a,0.2780640597920865,colour,0.5
010,74,0,2,11,5,505,958.9978681136854,960.2706558238715,"[47, 0, 207]",207,a,0.7485457251314074,colour,0.5
010,74,0,2,11,6,506,960.7810785542242,961.7266723276116,"[59, 0, 195]",195,a,0.42296734312549233,colour,0.5
010,74,0,2,11,7,507,962.2335717149545,963.3826682725921,"[88, 0, 166]",166,l,0.6258080727420747,colour,0.5
010,74,0,2,11,8,508,963.8900276715867,965.0786749932449,"[52, 0, 202]",202,a,0.6633214734029025,colour,0.5
010,74,0,2,11,9,509,965.596532740863,966.8146716156043,"[16, 0, 238]",238,a,0.6947393254376948,colour,0.5
010,74,0,2,11,10,510,967.33103353763,968.2866644663736,"[21, 0, 233]",233,a,0.4305331171490252,colour,0.5
010,74,0,2,11,11,511,968.7905729901977,970.510666126851,"[3, 0, 251]",251,a,1.1967715686187148,colour,0.5
010,74,0,2,11,12,512,971.0133832676802,972.1506420078222,"[80, 0, 174]",174,l,0.6139210246037692,colour,0.5
010,74,0,2,11,13,513,972.6697498215362,973.7986385545228,"[22, 0, 232]",232,a,0.6059598291758448,colour,0.5
010,74,0,2,11,14,514,974.3104893690906,975.6147390420083,"[43, 0, 211]",211,a,0.7808548498433083,colour,0.5
010,74,0,2,11,15,515,976.1231421318371,977.4466512489598,"[6, 0, 248]",248,a,0.7985578160732985,colour,0.5
010,74,0,2,11,16,516,977.954157552449,978.9746631241869,"[81, 0, 173]",173,l,0.49944585910998285,colour,0.5
010,74,0,2,11,17,517,979.4832560478244,980.5586471562274,"[69, 0, 185]",185,l,0.5520234606228769,colour,0.5
010,74,0,2,11,18,518,981.0772067366634,982.0466644035187,"[9, 0, 245]",245,a,0.4438691237010062,colour,0.5
010,74,0,2,11,19,519,982.5639313827269,983.4466685783118,"[94, 0, 160]",160,l,0.3593451294582337,colour,0.5
010,74,0,2,11,20,520,983.9547416255809,984.9986573804636,"[12, 0, 242]",242,a,0.520617030095309,colour,0.5
010,74,0,2,11,21,521,985.5173583514988,986.3666568731423,"[14, 0, 240]",240,a,0.3260730521287769,colour,0.5
010,74,0,2,11,22,522,986.8768834683578,988.0146857153159,"[99, 0, 155]",155,l,0.6147469189018011,colour,0.5
010,74,0,2,11,23,523,988.521366124507,989.8066178667359,"[68, 0, 186]",186,l,0.7619455344974995,colour,0.5
010,74,0,2,11,24,524,990.3183229581919,991.342645681696,"[11, 0, 243]",243,a,0.5017167730256915,colour,0.5
010,74,0,2,11,25,525,991.8497431734577,993.2946138463449,"[89, 0, 165]",165,l,0.9214876652695239,colour,0.5
010,74,0,2,11,26,526,993.8043083560187,994.8546378866304,"[29, 0, 225]",225,a,0.5269811812322587,colour,0.5
010,74,0,2,11,27,527,995.3669199619908,996.4866253968794,"[39, 0, 215]",215,a,0.5964137993287295,colour,0.5
010,74,0,2,11,28,528,997.0076539956499,998.1506652447861,"[24, 0, 230]",230,a,0.6185605258215219,colour,0.5
010,74,0,2,11,29,529,998.6655175564811,1000.166614416521,"[74, 0, 180]",180,l,0.9781096670776606,colour,0.5
010,74,0,2,11,30,530,1000.6813288824633,1001.7185851018876,"[7, 0, 247]",247,a,0.5139590699691325,colour,0.5
010,74,0,2,11,31,531,1002.2283394760452,1003.4066235381179,"[84, 0, 170]",170,l,0.6549140510614961,colour,0.5
010,74,0,2,11,32,532,1003.9159557097591,1004.9666180398781,"[76, 0, 178]",178,l,0.5273064975626767,colour,0.5
010,74,0,2,11,33,533,1005.480111584533,1006.5025993811432,"[46, 0, 208]",208,a,0.49915520125068724,colour,0.5
010,74,0,2,11,34,534,1007.0113967105281,1007.942618269939,"[54, 0, 200]",200,a,0.40785863786004484,colour,0.5
010,74,0,2,11,35,535,1008.4490194427781,1009.5026257687714,"[50, 0, 204]",204,a,0.53024813067168,colour,0.5
010,74,0,2,11,36,536,1010.0117173008621,1011.0386169559788,"[51, 0, 203]",203,a,0.5036221980117261,colour,0.5
010,74,0,2,11,37,537,1011.5586518822238,1012.6866079890169,"[97, 0, 157]",157,l,0.6046660465653986,colour,0.5
010,74,0,2,11,38,538,1013.2007962770294,1013.8706036000513,"[31, 0, 223]",223,a,0.1530444659292698,colour,0.5
010,74,0,2,11,39,539,1014.3718528782483,1015.7985731761437,"[61, 0, 193]",193,a,0.9033648592885584,colour,0.5
010,74,0,2,11,40,540,1016.3095476841554,1018.2545849536546,"[70, 0, 184]",184,l,1.4219484643545002,colour,0.5
010,74,0,2,11,41,541,1018.7628517730627,1019.9025629898533,"[48, 0, 206]",206,a,0.6162671628408134,colour,0.5
010,74,0,2,11,42,542,1020.4192884312943,1021.6865760874934,"[15, 0, 239]",239,a,0.7440814850851893,colour,0.5
010,74,0,2,11,43,543,1022.2006253481377,1023.4146564130206,"[8, 0, 246]",246,a,0.6907284015323967,colour,0.5
010,74,0,2,11,44,544,1023.9208067061845,1025.1505463032518,"[98, 0, 156]",156,l,0.707175788236782,colour,0.5
010,74,0,2,11,45,545,1025.6698912121356,1026.76657952182,"[57, 0, 197]",197,a,0.5734679603483528,colour,0.5
010,74,0,2,11,46,546,1027.281724854838,1028.7345449074637,"[42, 0, 212]",212,a,0.9295299923978746,colour,0.5
010,74,0,2,11,47,547,1029.250255015213,1030.3585854012053,"[83, 0, 171]",171,l,0.5850686826743186,colour,0.5
010,74,0,2,11,48,548,1030.875449476298,1031.998541195877,"[36, 0, 218]",218,a,0.6001636034343392,colour,0.5
010,74,0,2,11,49,549,1032.5175540929195,1034.9745847489685,"[92, 0, 162]",162,l,1.9337181467562914,colour,0.5
010,74,0,2,11,50,550,1035.4870598088019,1036.5425825875718,"[67, 0, 187]",187,l,0.5321251987479627,colour,0.5
010,74,0,2,12,1,551,1044.5512176526245,1046.4065294088796,"[82, 0, 172]",172,l,1.3312552724964917,colour,0.5
010,74,0,2,12,2,552,1046.92723662965,1048.7105636482593,"[81, 0, 173]",173,l,1.2585966649930924,colour,0.5
010,74,0,2,12,3,553,1049.2257397011854,1050.8705587016884,"[27, 0, 227]",227,a,1.121770367724821,colour,0.5
010,74,0,2,12,4,554,1051.383458720753,1052.798520006938,"[42, 0, 212]",212,a,0.8920744871720672,colour,0.5
010,74,0,2,12,5,555,1053.3054954067338,1054.910555298673,"[91, 0, 163]",163,l,1.0817847978323698,colour,0.5
010,74,0,2,12,6,556,1055.4306666310877,1056.7665818848182,"[46, 0, 208]",208,a,0.812638190574944,colour,0.5
010,74,0,2,12,7,557,1057.2760396935046,1058.6625381144695,"[44, 0, 210]",210,a,0.8633670806884766,colour,0.5
010,74,0,2,12,8,558,1059.1818243402522,1060.3425003525335,"[0, 0, 254]",254,a,0.6384627260267735,colour,0.5
010,74,0,2,12,9,559,1060.855451571755,1062.0465151360258,"[35, 0, 219]",219,a,0.6678140703588724,colour,0.5
010,74,0,2,12,10,560,1062.55864833761,1063.6064970348962,"[15, 0, 239]",239,a,0.5245901446323842,colour,0.5
010,74,0,2,12,11,561,1064.1213233529124,1065.2465115126688,"[30, 0, 224]",224,a,0.6019083396531641,colour,0.5
010,74,0,2,12,12,562,1065.762006580364,1067.190526359016,"[99, 0, 155]",155,l,0.9051292876247317,colour,0.5
010,74,0,2,12,13,563,1067.6996671217494,1068.7824940353166,"[9, 0, 245]",245,a,0.5594364227727056,colour,0.5
010,74,0,2,12,14,564,1069.2936083583627,1071.3185943178833,"[76, 0, 178]",178,l,1.5019207850564271,colour,0.5
010,74,0,2,12,15,565,1071.8264917100314,1072.9344826012384,"[84, 0, 170]",170,l,0.5847807817626745,colour,0.5
010,74,0,2,12,16,566,1073.4534576889127,1074.5585293963086,"[71, 0, 183]",183,l,0.581763924099505,colour,0.5
010,74,0,2,12,17,567,1075.075801889412,1076.1985037019476,"[14, 0, 240]",240,a,0.5994452291633934,colour,0.5
010,74,0,2,12,18,568,1076.7165603416506,1078.8465234853793,"[63, 0, 191]",191,a,1.6065572930965573,colour,0.5
010,74,0,2,12,19,569,1079.358101758873,1080.462509836303,"[83, 0, 171]",171,l,0.5811507066246122,colour,0.5
010,74,0,2,12,20,570,1080.9839893882163,1081.99052604381,"[89, 0, 165]",165,l,0.48328991839662194,colour,0.5
010,74,0,2,12,21,571,1082.499712492805,1083.4545025613625,"[1, 0, 253]",253,a,0.4312735472340137,colour,0.5
010,74,0,2,12,22,572,1083.9685439448804,1084.9345113518648,"[51, 0, 203]",203,a,0.44254186376929283,colour,0.5
010,74,0,2,12,23,573,1085.453052421799,1086.2144824122079,"[3, 0, 251]",251,a,0.2380241397768259,colour,0.5
010,74,0,2,12,24,574,1086.7343944585882,1087.7505244056229,"[50, 0, 204]",204,a,0.4927197638899088,colour,0.5
010,74,0,2,12,25,575,1088.2657902552746,1089.3424960202537,"[19, 0, 235]",235,a,0.5533381171990186,colour,0.5
010,74,0,2,12,26,576,1089.8610492993612,1091.5344626726583,"[53, 0, 201]",201,a,1.1500500577967614,colour,0.5
010,74,0,2,12,27,577,1092.0488908127882,1093.030510431854,"[56, 0, 198]",198,a,0.45853357086889446,colour,0.5
010,74,0,2,12,28,578,1093.550175143173,1094.8304545846768,"[52, 0, 202]",202,a,0.7569972581695765,colour,0.5
010,74,0,2,12,29,579,1095.3472993613686,1096.430463406723,"[77, 0, 177]",177,l,0.5599299112800509,colour,0.5
010,74,0,2,12,30,580,1096.9411011766642,1098.1344927623868,"[21, 0, 233]",233,a,0.670071987202391,colour,0.5
010,74,0,2,12,31,581,1098.645715393126,1100.0144836723339,"[93, 0, 161]",161,l,0.8454218991100788,colour,0.5
010,74,0,2,12,32,582,1100.5209120204672,1101.286498263711,"[40, 0, 214]",214,a,0.24224655842408538,colour,0.5
010,74,0,2,12,33,583,1101.8046021647751,1102.8464478671085,"[26, 0, 228]",228,a,0.518657254287973,colour,0.5
010,74,0,2,12,34,584,1103.3608535579406,1104.6304381217342,"[72, 0, 182]",182,l,0.7461755620315671,colour,0.5
010,74,0,2,12,35,585,1105.146723637823,1107.2624835274182,"[38, 0, 216]",216,a,1.589321427512914,colour,0.5
010,74,0,2,12,36,586,1107.7750590178184,1108.7664562482387,"[8, 0, 246]",246,a,0.46816979162395,colour,0.5
010,74,0,2,12,37,587,1109.275122426916,1110.5984578581993,"[5, 0, 249]",249,a,0.800050884950906,colour,0.5
010,74,0,2,12,38,588,1111.119027232984,1112.3184556842316,"[75, 0, 179]",179,l,0.6747422083280981,colour,0.5
010,74,0,2,12,39,589,1112.8255504190456,1114.086458957754,"[97, 0, 157]",157,l,0.7377456906251609,colour,0.5
010,74,0,2,12,40,590,1114.607004307909,1115.6864914107136,"[20, 0, 234]",234,a,0.5560517134144902,colour,0.5
010,74,0,2,12,41,591,1116.2032101568766,1118.30247067241,"[66, 0, 188]",188,l,1.5760496181901544,colour,0.5
010,74,0,2,12,42,592,1118.8105126058217,1120.054453094257,"[59, 0, 195]",195,l,0.7205598435830325,colour,0.5
010,74,0,2,12,43,593,1120.5607337502297,1121.6864614784718,"[87, 0, 167]",167,l,0.602372289635241,colour,0.5
010,74,0,2,12,44,594,1122.202969517326,1124.2144579936285,"[92, 0, 162]",162,l,1.488164939219132,colour,0.5
010,74,0,2,12,45,595,1124.7331581772305,1125.7744036586955,"[55, 0, 199]",199,a,0.5179341537877917,colour,0.5
010,74,0,2,12,46,596,1126.2815803135745,1126.8704110095277,"[36, 0, 218]",218,a,0.06554142362438142,colour,0.5
010,74,0,2,12,47,597,1127.3910193748306,1128.2944086526986,"[2, 0, 252]",252,a,0.37901496049016714,colour,0.5
010,74,0,2,12,48,598,1128.8142785576638,1130.4064392182045,"[23, 0, 231]",231,a,1.0687898620963097,colour,0.5
010,74,0,2,12,49,599,1130.92380938516,1133.7424170935992,"[25, 0, 229]",229,a,2.3076406836044043,colour,0.5
010,74,0,2,12,50,600,1134.2555557831656,1135.8944722195156,"[48, 0, 206]",206,a,1.1156799390446395,colour,0.5
010,74,0,2,13,1,601,1142.9127230250742,1144.8623958574608,"[83, 0, 171]",171,l,1.4254962257109582,colour,0.5
010,74,0,2,13,2,602,1145.3824142422527,1147.2624276014976,"[16, 0, 238]",238,a,1.3569395204540342,colour,0.5
010,74,0,2,13,3,603,1147.7803345797583,1149.2944767880253,"[21, 0, 233]",233,a,0.990735569735989,colour,0.5
010,74,0,2,13,4,604,1149.8054725637194,1150.9904327024706,"[38, 0, 216]",216,a,0.6590494299307466,colour,0.5
010,74,0,2,13,5,605,1151.511386864353,1152.6944132214412,"[43, 0, 211]",211,a,0.6596847029868513,colour,0.5
010,74,0,2,13,6,606,1153.2146509781014,1154.5184339438565,"[89, 0, 165]",165,l,0.7804397365543991,colour,0.5
010,74,0,2,13,7,607,1155.0273041347973,1156.2544128431473,"[13, 0, 241]",241,a,0.7038249496836215,colour,0.5
010,74,0,2,13,8,608,1156.7510068663396,1157.9104150896892,"[79, 0, 175]",175,l,0.6359555048402399,colour,0.5
010,74,0,2,13,9,609,1158.4187713121064,1159.5183756547049,"[12, 0, 242]",242,a,0.5763229471631348,colour,0.5
010,74,0,2,13,10,610,1160.0311783940997,1164.966386064887,"[73, 0, 181]",181,l,4.411923518404365,colour,0.5
010,74,0,2,13,11,611,1165.487502885051,1166.534385085106,"[0, 0, 254]",254,a,0.5244038556702435,colour,0.5
010,74,0,2,13,12,612,1167.051136914175,1168.0943906146567,"[40, 0, 214]",214,a,0.5199053511023521,colour,0.5
010,74,0,2,13,13,613,1168.6137461571489,1169.8143699297216,"[35, 0, 219]",219,a,0.6772242232691497,colour,0.5
010,74,0,2,13,14,614,1170.3325884400401,1171.18242180394,"[6, 0, 248]",248,a,0.3263798577245325,colour,0.5
010,74,0,2,13,15,615,1171.6921308860183,1173.0464009207208,"[63, 0, 191]",191,l,0.8310626819729805,colour,0.5
010,74,0,2,13,16,616,1173.5529446655419,1174.9663651911542,"[67, 0, 187]",187,l,0.8899910440668464,colour,0.5
010,74,0,2,13,17,617,1175.4672690667212,1176.8943698194344,"[7, 0, 247]",247,a,0.9038595294114202,colour,0.5
010,74,0,2,13,18,618,1177.412318151677,1178.5663700746372,"[57, 0, 197]",197,a,0.6307539858389646,colour,0.5
010,74,0,2,13,19,619,1179.084273508517,1180.302384420298,"[44, 0, 210]",210,a,0.6947290855459869,colour,0.5
010,74,0,2,13,20,620,1180.8207963085733,1181.9183735279366,"[93, 0, 161]",161,l,0.5742406852077693,colour,0.5
010,74,0,2,13,21,621,1182.4302483669017,1183.5903804786503,"[53, 0, 201]",201,a,0.6371354663278908,colour,0.5
010,74,0,2,13,22,622,1184.102218296146,1185.3503481203225,"[99, 0, 155]",155,l,0.7247657210100442,colour,0.5
010,74,0,2,13,23,623,1185.8694468755275,1186.950434529921,"[80, 0, 174]",174,l,0.557696018833667,colour,0.5
010,74,0,2,13,24,624,1187.46338141663,1188.718342886772,"[75, 0, 179]",179,l,0.7316194223240018,colour,0.5
010,74,0,2,13,25,625,1189.2315020563547,1190.326357014943,"[28, 0, 226]",226,a,0.5715333907864988,colour,0.5
010,74,0,2,13,26,626,1190.8409986193292,1191.9343419983052,"[1, 0, 253]",253,a,0.570080887991935,colour,0.5
010,74,0,2,13,27,627,1192.4492537807673,1193.5743485991843,"[54, 0, 200]",200,a,0.6018346904311329,colour,0.5
010,74,0,2,13,28,628,1194.0899756052531,1195.0143446449656,"[15, 0, 239]",239,a,0.3988817147910595,colour,0.5
010,74,0,2,13,29,629,1195.5353937235195,1197.478349519195,"[66, 0, 188]",188,a,1.4196818829514086,colour,0.5
010,74,0,2,13,30,630,1197.9970910563134,1199.1503162975423,"[50, 0, 204]",204,a,0.6299395132809877,colour,0.5
010,74,0,2,13,31,631,1199.6716005019844,1201.0223310461733,"[42, 0, 212]",212,a,0.840001008240506,colour,0.5
010,74,0,2,13,32,632,1201.5293757626787,1202.6783088743687,"[34, 0, 220]",220,a,0.6256800729315728,colour,0.5
010,74,0,2,13,33,633,1203.1890380163677,1204.2943531204946,"[48, 0, 206]",206,a,0.5819439117331058,colour,0.5
010,74,0,2,13,34,634,1204.8029499824625,1207.7903677967843,"[39, 0, 215]",215,a,2.4641123940236866,colour,0.5
010,74,0,2,13,35,635,1208.3032272497658,1209.3982779495418,"[59, 0, 195]",195,a,0.5715936489868909,colour,0.5
010,74,0,2,13,36,636,1209.9126505574677,1211.734353104839,"[30, 0, 224]",224,a,1.2983648318331689,colour,0.5
010,74,0,2,13,37,637,1212.2419303003699,1213.5982920492534,"[61, 0, 193]",193,a,0.8332390729337931,colour,0.5
010,74,0,2,13,38,638,1214.1171946693212,1215.7104742452502,"[58, 0, 196]",196,a,1.070052137132734,colour,0.5
010,74,0,2,13,39,639,1216.2265762293246,1217.2943712372798,"[86, 0, 168]",168,l,0.5444891939405352,colour,0.5
010,74,0,2,13,40,640,1217.8048758874647,1218.854369677836,"[72, 0, 182]",182,l,0.5259902658872306,colour,0.5
010,74,0,2,13,41,641,1219.3675729581155,1220.4304271729197,"[25, 0, 229]",229,a,0.5395952684339136,colour,0.5
010,74,0,2,13,42,642,1220.9368925425224,1222.398417764809,"[95, 0, 159]",159,l,0.9442881753202528,colour,0.5
010,74,0,2,13,43,643,1222.9154539504088,1224.3183438319247,"[31, 0, 223]",223,a,0.8794832429848611,colour,0.5
010,74,0,2,13,44,644,1224.8375430179294,1225.9823498090263,"[4, 0, 250]",250,a,0.62059355690144,colour,0.5
010,74,0,2,13,45,645,1226.4948154164013,1227.8462623658124,"[70, 0, 184]",184,l,0.8281537382863462,colour,0.5
010,74,0,2,13,46,646,1228.3543322624173,1229.7023031304125,"[14, 0, 240]",240,a,0.8247268877457827,colour,0.5
010,74,0,2,13,47,647,1230.2139136991464,1231.8783060386777,"[90, 0, 164]",164,l,1.1411066118162125,colour,0.5
010,74,0,2,13,48,648,1232.3865905809216,1233.5262927392032,"[10, 0, 244]",244,a,0.6168921957723796,colour,0.5
010,74,0,2,13,49,649,1234.0429216886405,1235.2382785638329,"[76, 0, 178]",178,l,0.6723350239917636,colour,0.5
010,74,0,2,13,50,650,1235.7462602390442,1236.9822773414198,"[56, 0, 198]",198,a,0.7127750914078206,colour,0.5
010,74,0,2,14,1,651,1245.1074402951635,1246.4222521195188,"[42, 0, 212]",212,a,0.7929049499798566,colour,0.5
010,74,0,2,14,2,652,1246.9218582739122,1247.9423169780057,"[8, 0, 246]",246,a,0.4972111792303622,colour,0.5
010,74,0,2,14,3,653,1248.4532473753206,1249.6942686799448,"[62, 0, 192]",192,a,0.7177367582917213,colour,0.5
010,74,0,2,14,4,654,1250.2025394379161,1251.6702271623071,"[68, 0, 186]",186,l,0.9445146364159882,colour,0.5
010,74,0,2,14,5,655,1252.1894086252432,1253.3022481496446,"[29, 0, 225]",225,a,0.5896109042223543,colour,0.5
010,74,0,2,14,6,656,1253.8145432218444,1254.9662513697986,"[97, 0, 157]",157,l,0.628498432226479,colour,0.5
010,74,0,2,14,7,657,1255.4883035731036,1256.7743260711432,"[28, 0, 226]",226,a,0.7626481547486037,colour,0.5
010,74,0,2,14,8,658,1257.2854845051188,1258.4862673913594,"[44, 0, 210]",210,a,0.6776208260562271,colour,0.5
010,74,0,2,14,9,659,1259.004235809669,1260.3742781796027,"[65, 0, 189]",189,a,0.8467341929208487,colour,0.5
010,74,0,2,14,10,660,1260.8806714753155,1262.0222522770055,"[79, 0, 175]",175,l,0.618535713525489,colour,0.5
010,74,0,2,14,11,661,1262.5371006503701,1263.5902162450366,"[59, 0, 195]",195,l,0.5298085990361869,colour,0.5
010,74,0,2,14,12,662,1264.100061203586,1267.9182309559546,"[53, 0, 201]",201,l,3.293612690642476,colour,0.5
010,74,0,2,14,13,663,1268.4298446753528,1270.3422715282068,"[89, 0, 165]",165,l,1.3891746019944549,colour,0.5
010,74,0,2,14,14,664,1270.8519152319059,1271.8222641712055,"[3, 0, 251]",251,a,0.4470250082667917,colour,0.5
010,74,0,2,14,15,665,1272.3363563611638,1273.42226275336,"[5, 0, 249]",249,a,0.5625147200189531,colour,0.5
010,74,0,2,14,16,666,1273.930287751602,1275.0542471129447,"[84, 0, 170]",170,l,0.6009788638912141,colour,0.5
010,74,0,2,14,17,667,1275.5722879988607,1276.710199341178,"[57, 0, 197]",197,a,0.6146011960227042,colour,0.5
010,74,0,2,14,18,668,1277.22874710639,1278.3582226694562,"[80, 0, 174]",174,l,0.6062461552210152,colour,0.5
010,74,0,2,14,19,669,1278.869469718542,1280.0462130564265,"[6, 0, 248]",248,a,0.6535340161062777,colour,0.5
010,74,0,2,14,20,670,1280.5571796873119,1281.694209603127,"[14, 0, 240]",240,a,0.6137367046903819,colour,0.5
010,74,0,2,14,21,671,1282.199558026623,1283.334251256194,"[4, 0, 250]",250,a,0.6112810773774981,colour,0.5
010,74,0,2,14,22,672,1283.840362558607,1285.006239696173,"[41, 0, 213]",213,a,0.6425658096559346,colour,0.5
010,74,0,2,14,23,673,1285.5124159830157,1286.774250058923,"[91, 0, 163]",163,l,0.7385514988563955,colour,0.5
010,74,0,2,14,24,674,1287.295934410533,1288.8702841911,"[61, 0, 193]",193,l,1.0511625139042735,colour,0.5
010,74,0,2,14,25,675,1289.3885472060647,1290.5262612316292,"[18, 0, 236]",236,a,0.6144141191616654,colour,0.5
010,74,0,2,14,26,676,1291.0343449127395,1292.2782101766206,"[24, 0, 230]",230,a,0.7204932838212699,colour,0.5
010,74,0,2,14,27,677,1292.7844884693623,1294.2222002106719,"[48, 0, 206]",206,a,0.9143716625403613,colour,0.5
010,74,0,2,14,28,678,1294.7378016170114,1296.7262028637342,"[27, 0, 227]",227,a,1.4651344234589487,colour,0.5
010,74,0,2,14,29,679,1297.2392923224252,1298.4622120889835,"[58, 0, 196]",196,a,0.6999156381934881,colour,0.5
010,74,0,2,14,30,680,1298.9738293529954,1300.3021693804767,"[20, 0, 234]",234,a,0.8050275179557502,colour,0.5
010,74,0,2,14,31,681,1300.8064327591565,1302.286197759444,"[56, 0, 198]",198,a,0.9562929833773524,colour,0.5
010,74,0,2,14,32,682,1302.8066706419922,1304.1501902670134,"[0, 0, 254]",254,a,0.820212235674262,colour,0.5
010,74,0,2,14,33,683,1304.666163857095,1305.8142297207378,"[25, 0, 229]",229,a,0.6246710403356701,colour,0.5
010,74,0,2,14,34,684,1306.3226710136514,1307.5101891797967,"[92, 0, 162]",162,l,0.6642324381973594,colour,0.5
010,74,0,2,14,35,685,1308.02588707814,1309.2862280856352,"[90, 0, 164]",164,l,0.7356149861589074,colour,0.5
010,74,0,2,14,36,686,1309.7930242854636,1310.8621788485907,"[71, 0, 183]",183,l,0.5460846626665443,colour,0.5
010,74,0,2,14,37,687,1311.371294799028,1312.5822294498794,"[93, 0, 161]",161,l,0.6877855872735381,colour,0.5
010,74,0,2,14,38,688,1313.080076689599,1314.6141971102916,"[67, 0, 187]",187,l,1.0107385944575071,colour,0.5
010,74,0,2,14,39,689,1315.1223914620932,1316.630173851503,"[70, 0, 184]",184,l,0.9844391599763185,colour,0.5
010,74,0,2,14,40,690,1317.138123624958,1318.398258651141,"[12, 0, 242]",242,a,0.7368122767657042,colour,0.5
010,74,0,2,14,41,691,1318.919557821704,1320.414192069089,"[69, 0, 185]",185,l,0.9712977134622633,colour,0.5
010,74,0,2,14,42,692,1320.920734238578,1322.190149448812,"[15, 0, 239]",239,a,0.7451310837641358,colour,0.5
010,74,0,2,14,43,693,1322.7030900339596,1324.1501678177156,"[9, 0, 245]",245,a,0.9347200898919255,colour,0.5
010,74,0,2,14,44,694,1324.6611183010973,1326.8541739364155,"[2, 0, 252]",252,a,1.6697517905849963,colour,0.5
010,74,0,2,14,45,695,1327.3716547738295,1329.9181324944366,"[52, 0, 202]",202,a,2.0220474773086607,colour,0.5
010,74,0,2,14,46,696,1330.4200410703197,1331.6702228300273,"[98, 0, 156]",156,l,0.7267810287885368,colour,0.5
010,74,0,2,14,47,697,1332.1739104064181,1333.334229594795,"[13, 0, 241]",241,a,0.6401279054116458,colour,0.5
010,74,0,2,14,48,698,1333.8523149851244,1335.0701186973602,"[21, 0, 233]",233,a,0.6944939596578479,colour,0.5
010,74,0,2,14,49,699,1335.5868047543336,1336.822161771357,"[86, 0, 168]",168,l,0.711988975526765,colour,0.5
010,74,0,2,14,50,700,1337.3380053925794,1338.3821625749115,"[35, 0, 219]",219,a,0.5208620021585375,colour,0.5
010,74,0,2,15,1,701,1344.1033049160615,1346.014160325285,"[10, 0, 244]",244,a,1.38534287805669,colour,0.5
010,74,0,2,15,2,702,1346.5291075538844,1347.7662983161863,"[66, 0, 188]",188,a,0.7139239390380681,colour,0.5
010,74,0,2,15,3,703,1348.278039247496,1349.4941143712495,"[24, 0, 230]",230,a,0.6926932975184172,colour,0.5
010,74,0,2,15,4,704,1350.012612118153,1351.2381588348653,"[28, 0, 226]",226,a,0.7008789845276624,colour,0.5
010,74,0,2,15,5,705,1351.7517102747224,1353.174188067671,"[37, 0, 217]",217,a,0.899000262375921,colour,0.5
010,74,0,2,15,6,706,1353.685222046217,1355.0540891808923,"[32, 0, 222]",222,a,0.8455908589530736,colour,0.5
010,74,0,2,15,7,707,1355.5755482527893,1356.678161182208,"[3, 0, 251]",251,a,0.5794528382830322,colour,0.5
010,74,0,2,15,8,708,1357.1761159419548,1358.430102250306,"[44, 0, 210]",210,a,0.7360757854767144,colour,0.5
010,74,0,2,15,9,709,1358.9382115313783,1360.2781392843463,"[17, 0, 237]",237,a,0.8190968646667898,colour,0.5
010,74,0,2,15,10,710,1360.795856429264,1362.038118741475,"[81, 0, 173]",173,l,0.7186087325681001,colour,0.5
010,74,0,2,15,11,711,1362.548776597483,1363.5180999627337,"[86, 0, 168]",168,l,0.4461006526835263,colour,0.5
010,74,0,2,15,12,712,1364.02989248815,1365.1740974832792,"[41, 0, 213]",213,a,0.6207932366523892,colour,0.5
010,74,0,2,15,13,713,1365.68782575964,1367.030126038473,"[39, 0, 215]",215,a,0.8163698776625097,colour,0.5
010,74,0,2,15,14,714,1367.549871882191,1370.8060877504759,"[61, 0, 193]",193,l,2.7328990267124027,colour,0.5
010,74,0,2,15,15,715,1371.318446232006,1372.302126845112,"[43, 0, 211]",211,a,0.4586915031541139,colour,0.5
010,74,0,2,15,16,716,1372.8202181432862,1373.8460973445326,"[83, 0, 171]",171,l,0.5027025686576962,colour,0.5
010,74,0,2,15,17,717,1374.3672035308555,1375.3901702438015,"[64, 0, 190]",190,l,0.4998026832472533,colour,0.5
010,74,0,2,15,18,718,1375.8984764476772,1376.902523605153,"[94, 0, 160]",160,l,0.48070077737793326,colour,0.5
010,74,0,2,15,19,719,1377.4143389735837,1378.8220900914166,"[27, 0, 227]",227,a,0.8844724791124463,colour,0.5
010,74,0,2,15,20,720,1379.3363417887595,1380.4060646709986,"[6, 0, 248]",248,a,0.5464418805204332,colour,0.5
010,74,0,2,15,21,721,1380.9067972239573,1382.01410242985,"[82, 0, 172]",172,l,0.5909365883562714,colour,0.5
010,74,0,2,15,22,722,1382.5250407040585,1383.8220908790827,"[60, 0, 194]",194,l,0.7743902679067105,colour,0.5
010,74,0,2,15,23,723,1384.3376371469349,1385.4860956745688,"[11, 0, 243]",243,a,0.6250971814151853,colour,0.5
010,74,0,2,15,24,724,1385.981550696306,1387.1261077893432,"[48, 0, 206]",206,a,0.6211776298005134,colour,0.5
010,74,0,2,15,25,725,1387.6380255576223,1388.8940764046274,"[50, 0, 204]",204,a,0.7327273099217564,colour,0.5
010,74,0,2,15,26,726,1389.4037575235125,1390.6061031892896,"[97, 0, 157]",157,l,0.6793773774988949,colour,0.5
010,74,0,2,15,27,727,1391.1226462803315,1393.566092807334,"[65, 0, 189]",189,l,1.920046977698803,colour,0.5
010,74,0,2,15,28,728,1394.0761220860295,1395.2300723968074,"[70, 0, 184]",184,l,0.6308445704635233,colour,0.5
010,74,0,2,15,29,729,1395.748516974505,1396.942060584668,"[23, 0, 231]",231,a,0.6688156197778881,colour,0.5
010,74,0,2,15,30,730,1397.4531556093134,1398.5340692207683,"[56, 0, 198]",198,a,0.5575806221459061,colour,0.5
010,74,0,2,15,31,731,1399.047054310562,1400.342060033232,"[85, 0, 169]",169,l,0.7722382955253124,colour,0.5
010,74,0,2,15,32,732,1400.8596814735793,1401.99011171842,"[14, 0, 240]",240,a,0.6074135135859251,colour,0.5
010,74,0,2,15,33,733,1402.500481279334,1403.86203115643,"[77, 0, 177]",177,l,0.8383149551227689,colour,0.5
010,74,0,2,15,34,734,1404.3756007130723,1405.446095139021,"[5, 0, 249]",249,a,0.5477774110622704,colour,0.5
010,74,0,2,15,35,735,1405.9538696513046,1407.6460655217525,"[4, 0, 250]",250,a,1.1688455517869443,colour,0.5
010,74,0,2,15,36,736,1408.1584448770154,1410.494083257392,"[9, 0, 245]",245,a,1.8126224367879331,colour,0.5
010,74,0,2,15,37,737,1411.0024154551793,1412.534032986965,"[53, 0, 201]",201,a,1.0068966303952038,colour,0.5
010,74,0,2,15,38,738,1413.0509191176388,1415.1580140099395,"[59, 0, 195]",195,a,1.5837615090422332,colour,0.5
010,74,0,2,15,39,739,1415.676056077471,1419.318007094087,"[71, 0, 183]",183,l,3.1183498185127974,colour,0.5
010,74,0,2,15,40,740,1419.8345860249829,1420.8860514063854,"[96, 0, 158]",158,l,0.528180047404021,colour,0.5
010,74,0,2,15,41,741,1421.3969892866444,1422.5740437626373,"[0, 0, 254]",254,a,0.6535470129456371,colour,0.5
010,74,0,2,15,42,742,1423.0847047695424,1424.2780301892199,"[20, 0, 234]",234,a,0.6686876199673861,colour,0.5
010,74,0,2,15,43,743,1424.7893571888562,1425.717990001198,"[31, 0, 223]",223,a,0.4053892258089036,colour,0.5
010,74,0,2,15,44,744,1426.226998431841,1427.4220055721235,"[68, 0, 186]",186,l,0.6718391722533852,colour,0.5
010,74,0,2,15,45,745,1427.9302251301706,1429.5260241364595,"[49, 0, 205]",205,a,1.0717886025086045,colour,0.5
010,74,0,2,15,46,746,1430.0412730509415,1431.1740486463532,"[69, 0, 185]",185,l,0.6097167227417231,colour,0.5
010,74,0,2,15,47,747,1431.6820724629797,1433.1099802053068,"[67, 0, 187]",187,l,0.9046948759350926,colour,0.5
010,74,0,2,15,48,748,1433.6196613244247,1435.094002676662,"[75, 0, 179]",179,l,0.950982762966305,colour,0.5
010,74,0,2,15,49,749,1435.6053663040511,1436.870029767044,"[30, 0, 224]",224,a,0.7412903013173491,colour,0.5
010,74,0,2,15,50,750,1437.386791442288,1439.078041295521,"[54, 0, 200]",200,a,1.168339460156858,colour,0.5
010,74,0,2,16,1,751,1445.4126359850634,1447.0620023268275,"[34, 0, 220]",220,a,1.1252184857148677,colour,0.5
010,74,0,2,16,2,752,1447.576530110091,1448.7900129419286,"[97, 0, 157]",157,l,0.6903369191568345,colour,0.5
010,74,0,2,16,3,753,1449.304631309351,1450.4300163919106,"[17, 0, 237]",237,a,0.613590981811285,colour,0.5
010,74,0,2,16,4,754,1450.95129941497,1452.3498888963368,"[7, 0, 247]",247,a,0.8752651566173881,colour,0.5
010,74,0,2,16,5,755,1452.8591080342885,1454.038053363096,"[18, 0, 236]",236,a,0.6666880657430738,colour,0.5
010,74,0,2,16,6,756,1454.5513176892418,1455.9019871875644,"[45, 0, 209]",209,a,0.8273565950803459,colour,0.5
010,74,0,2,16,7,757,1456.410814449191,1458.1739623942412,"[57, 0, 197]",197,a,1.2398212573025376,colour,0.5
010,74,0,2,16,8,758,1458.6922171381302,1459.8459850985091,"[94, 0, 160]",160,l,0.6305239801295102,colour,0.5
010,74,0,2,16,9,759,1460.364265442593,1461.3180224539246,"[99, 0, 155]",155,l,0.43047561566345394,colour,0.5
010,74,0,2,16,10,760,1461.8385095149279,1462.6620135121047,"[16, 0, 238]",238,a,0.30025883531197906,colour,0.5
010,74,0,2,16,11,761,1463.1823383087758,1465.3499664838891,"[4, 0, 250]",250,a,1.644216810585931,colour,0.5
010,74,0,2,16,12,762,1465.8568721727934,1466.9739557774737,"[68, 0, 186]",186,l,0.5938325352035463,colour,0.5
010,74,0,2,16,13,763,1467.4727084685583,1468.557991403155,"[50, 0, 204]",204,a,0.5619436437264085,colour,0.5
010,74,0,2,16,14,764,1469.0739854734857,1470.2459857286885,"[69, 0, 185]",185,l,0.6487350072711706,colour,0.5
010,74,0,2,16,15,765,1470.7649115857203,1471.829970548395,"[3, 0, 251]",251,a,0.551897824043408,colour,0.5
010,74,0,2,16,16,766,1472.3487727376632,1473.541967006866,"[56, 0, 198]",198,a,0.6698656119406223,colour,0.5
010,74,0,2,16,17,767,1474.0594218503684,1475.2939687271137,"[26, 0, 228]",228,a,0.7114876098930836,colour,0.5
010,74,0,2,16,18,768,1475.8095709211193,1476.9179592023138,"[84, 0, 170]",170,l,0.5853703683242202,colour,0.5
010,74,0,2,16,19,769,1477.4346606193576,1478.0939400552306,"[95, 0, 159]",159,l,0.13599370792508125,colour,0.5
010,74,0,2,16,20,770,1478.6066151885316,1479.709965790622,"[32, 0, 222]",222,a,0.5794169981963933,colour,0.5
010,74,0,2,16,21,771,1480.2162389636505,1481.6779205424245,"[21, 0, 233]",233,a,0.9381772666238248,colour,0.5
010,74,0,2,16,22,772,1482.1730726968963,1483.3899961640127,"[96, 0, 158]",158,l,0.6963706340175122,colour,0.5
010,74,0,2,16,23,773,1483.9049489065073,1485.0619830284268,"[15, 0, 239]",239,a,0.6337097971700132,colour,0.5
010,74,0,2,16,24,774,1485.580371679971,1486.6699349288829,"[54, 0, 200]",200,a,0.5662310470361263,colour,0.5
010,74,0,2,16,25,775,1487.1898221629672,1488.2539079331327,"[42, 0, 212]",212,a,0.5407240299973637,colour,0.5
010,74,0,2,16,26,776,1488.7681060673203,1489.9659256592859,"[25, 0, 229]",229,a,0.6744897533208132,colour,0.5
010,74,0,2,16,27,777,1490.4870188487694,1491.525969785871,"[31, 0, 223]",223,a,0.5156514246482402,colour,0.5
010,74,0,2,16,28,778,1492.0340227470733,1493.3419017072301,"[90, 0, 164]",164,l,0.7831356097012758,colour,0.5
010,74,0,2,16,29,779,1493.8480791756883,1496.1899044767488,"[59, 0, 195]",195,a,1.818500976311043,colour,0.5
010,74,0,2,16,30,780,1496.7076873937622,1497.8379089003429,"[93, 0, 161]",161,l,0.6069546833168715,colour,0.5
010,74,0,2,16,31,781,1498.3484293043148,1499.501925905235,"[98, 0, 156]",156,l,0.6302144175861031,colour,0.5
010,74,0,2,16,32,782,1500.0204181380104,1502.4619832648896,"[39, 0, 215]",215,a,1.917698476696387,colour,0.5
010,74,0,2,16,33,783,1502.9751956034452,1505.061914105434,"[81, 0, 173]",173,l,1.563553290674463,colour,0.5
010,74,0,2,16,34,784,1505.5690836710855,1506.7738881148398,"[37, 0, 217]",217,a,0.68563361489214,colour,0.5
010,74,0,2,16,35,785,1507.2890874047298,1508.6619315922726,"[20, 0, 234]",234,a,0.8495367981959134,colour,0.5
010,74,0,2,16,36,786,1509.1799756288528,1510.3578961712774,"[70, 0, 184]",184,l,0.6546923159621656,colour,0.5
010,74,0,2,16,37,787,1510.868850986939,1512.405896105105,"[46, 0, 208]",208,a,1.013742848765105,colour,0.5
010,74,0,2,16,38,788,1512.9158426760696,1514.1178929575253,"[14, 0, 240]",240,a,0.6786810583434999,colour,0.5
010,74,0,2,16,39,789,1514.6346995313652,1515.8459169631824,"[80, 0, 174]",174,l,0.6878147318493575,colour,0.5
010,74,0,2,16,40,790,1516.3536591802258,1517.6779055763036,"[92, 0, 162]",162,l,0.8009027729276568,colour,0.5
010,74,0,2,16,41,791,1518.1975360231008,1519.5179625106975,"[73, 0, 181]",181,l,0.7970686857588589,colour,0.5
010,74,0,2,16,42,792,1520.027233242523,1521.8139209458604,"[53, 0, 201]",201,l,1.2641380729619414,colour,0.5
010,74,0,2,16,43,793,1522.3243204392493,1523.7179002042394,"[77, 0, 177]",177,l,0.8702991572208703,colour,0.5
010,74,0,2,16,44,794,1524.230643472867,1525.3898791919928,"[67, 0, 187]",187,l,0.6358881574124098,colour,0.5
010,74,0,2,16,45,795,1525.9040513322689,1526.9739069407806,"[23, 0, 231]",231,a,0.546504502184689,colour,0.5
010,74,0,2,16,46,796,1527.470142170554,1528.6619292292744,"[86, 0, 168]",168,l,0.6684745494276285,colour,0.5
010,74,0,2,16,47,797,1529.1692185236607,1530.3578784482088,"[6, 0, 248]",248,a,0.6653269350063056,colour,0.5
010,74,0,2,16,48,798,1530.873858734034,1532.0458830138668,"[49, 0, 205]",205,a,0.6610273227561265,colour,0.5
010,74,0,2,16,49,799,1532.5649376583751,1534.173860782059,"[47, 0, 207]",207,a,1.0857327065896243,colour,0.5
010,74,0,2,16,50,800,1534.6881605284289,1536.0138578517362,"[33, 0, 221]",221,a,0.8047435553744435,colour,0.5
