id,age,condition,counterbalance,block,trialinblock,trial,tstart,tend,trialstim,trialintensity,response,RT,trialtype,colourfreq
78,71,1,2,Practice,1,NA,4.170418833382428e-06,2.572690237659117,"[24, 0, 230]",230,a,2.047721780460506,colour,0.5
78,71,1,2,Practice,2,NA,3.0752202382077485,4.804569688177708,"[70, 0, 184]",184,a,1.1962730572022338,colour,0.5
78,71,1,2,Practice,3,NA,5.308971565122647,6.5406229258182975,"[3, 0, 251]",251,a,0.698961854463505,colour,0.5
78,71,1,2,Practice,4,NA,7.042149138664172,7.9326640987578685,"[89, 0, 165]",165,a,0.35772408060711314,colour,0.5
78,71,1,2,Practice,5,NA,8.44209838787674,17.996569349411402,"[42, 0, 212]",212,a,9.021626829009165,colour,0.5
78,71,1,2,Practice,6,NA,18.512200880728415,20.260655018794296,"[97, 0, 157]",157,a,1.2190916635577196,colour,0.5
78,71,1,2,Practice,7,NA,20.775157649847188,21.6046831235667,"[10, 0, 244]",244,a,0.2964763490745099,colour,0.5
78,71,1,2,Practice,8,NA,22.108854023475487,24.020596735588697,"[86, 0, 168]",168,l,1.3790653963355908,colour,0.5
78,71,1,2,Practice,9,NA,24.525532105326874,25.324622825728056,"[51, 0, 203]",203,a,0.266445163966182,colour,0.5
78,71,1,2,Practice,10,NA,25.842935936273534,26.804646359721573,"[14, 0, 240]",240,a,0.4298014271171269,colour,0.5
78,71,1,2,1,1,1,6.2076005560134035,7.615972126204724,"[45, 0, 209]",209,a,0.8751597992168172,colour,0.5
78,71,1,2,1,2,2,8.125983216310487,10.89587202332359,"[79, 0, 175]",175,l,2.2384144966317763,colour,0.5
78,71,1,2,1,3,3,11.408455620168752,12.463884655201127,"[71, 0, 183]",183,a,0.523113262476727,colour,0.5
78,71,1,2,1,4,4,12.975484995635725,13.799870588699832,"[34, 0, 220]",220,a,0.2924377797589841,colour,0.5
78,71,1,2,1,5,5,14.307557151578749,15.33590894115332,"[69, 0, 185]",185,a,0.4951358481812349,colour,0.5
78,71,1,2,1,6,6,15.841345723540599,16.447997926339667,"[24, 0, 230]",230,a,0.0739148971524628,colour,0.5
78,71,1,2,1,7,7,16.957927853681213,24.28784518635848,"[93, 0, 161]",161,l,6.797069671335521,colour,0.5
78,71,1,2,1,8,8,24.791378333006833,26.535859986853666,"[55, 0, 199]",199,a,1.2118283981772038,colour,0.5
78,71,1,2,1,9,9,27.04133301980346,28.231842558353037,"[35, 0, 219]",219,a,0.6578242027362649,colour,0.5
78,71,1,2,1,10,10,28.741138582051462,29.767827336966548,"[61, 0, 193]",193,a,0.4938147878556265,colour,0.5
78,71,1,2,1,11,11,30.274186102689328,31.007854502432565,"[88, 0, 166]",166,l,0.20051950585047962,colour,0.5
78,71,1,2,1,12,12,31.524197892142183,32.11982511188762,"[38, 0, 216]",216,a,0.06250431076932728,colour,0.5
78,71,1,2,1,13,13,32.62417341499258,33.56783458707923,"[62, 0, 192]",192,a,0.4105065037683744,colour,0.5
78,71,1,2,1,14,14,34.07488403829984,34.711823746557,"[30, 0, 224]",224,a,0.10447636703929675,colour,0.5
78,71,1,2,1,15,15,35.225330609943285,35.79982728050527,"[22, 0, 232]",232,a,0.0424994538352621,colour,0.5
78,71,1,2,1,16,16,36.308202283272294,37.02380474997881,"[23, 0, 231]",231,a,0.18316831842003012,colour,0.5
78,71,1,2,1,17,17,37.54065693077109,38.519813498875465,"[51, 0, 203]",203,a,0.44585689753557745,colour,0.5
78,71,1,2,1,18,18,39.02396226348537,39.58389166150482,"[58, 0, 196]",196,a,0.02661304577577539,colour,0.5
78,71,1,2,1,19,19,40.09123272123361,40.83181022156805,"[91, 0, 163]",163,l,0.2078504603341571,colour,0.5
78,71,1,2,1,20,20,41.340805975119565,45.95185796965416,"[25, 0, 229]",229,a,4.077913366288158,colour,0.5
78,71,1,2,1,21,21,46.457931222096704,48.34390555862319,"[19, 0, 235]",235,a,1.3533323089077385,colour,0.5
78,71,1,2,1,22,22,48.8579106266443,49.55180927199581,"[70, 0, 184]",184,l,0.16123929445484464,colour,0.5
78,71,1,2,1,23,23,50.05761305122951,51.607929313327986,"[68, 0, 186]",186,a,1.0173608114737362,colour,0.5
78,71,1,2,1,24,24,52.12453479781334,52.90380063088833,"[98, 0, 156]",156,l,0.24658178046729518,colour,0.5
78,71,1,2,1,25,25,53.408114929040494,58.66398262796065,"[48, 0, 206]",206,a,4.723435154640811,colour,0.5
78,71,1,2,1,26,26,59.1752855854611,60.3599648786585,"[44, 0, 210]",210,a,0.6527866577398527,colour,0.5
78,71,1,2,1,27,27,60.87437479809569,61.687871427916434,"[53, 0, 201]",201,a,0.28069227667356245,colour,0.5
78,71,1,2,1,28,28,62.191009026390475,62.895795672581244,"[92, 0, 162]",162,l,0.1719537417156971,colour,0.5
78,71,1,2,1,29,29,63.407692433545435,64.19976690567455,"[83, 0, 171]",171,l,0.25925921173302413,colour,0.5
78,71,1,2,1,30,30,64.70709288773605,65.31179044736746,"[0, 0, 254]",254,a,0.07130068622655017,colour,0.5
78,71,1,2,1,31,31,65.8242479692467,66.51989562404424,"[37, 0, 217]",217,a,0.16271209386150076,colour,0.5
78,71,1,2,1,32,32,67.02460418716464,67.56779159968619,"[84, 0, 170]",170,l,0.010654457391410688,colour,0.5
78,71,1,2,1,33,33,68.07481153717481,68.77575754853842,"[47, 0, 207]",207,a,0.16862093556619584,colour,0.5
78,71,1,2,1,34,34,69.29122194230513,70.15985567784901,"[74, 0, 180]",180,l,0.3360600386308761,colour,0.5
78,71,1,2,1,35,35,70.67421234424728,72.75991990229704,"[2, 0, 252]",252,a,1.5527780923416685,colour,0.5
78,71,1,2,1,36,36,73.27462110944089,77.17577192044291,"[32, 0, 222]",222,a,3.368638066363019,colour,0.5
78,71,1,2,1,37,37,77.69073810957525,79.4637736579034,"[7, 0, 247]",247,a,1.2400313358848507,colour,0.5
78,71,1,2,1,38,38,79.97435994498937,80.8478486895101,"[50, 0, 204]",204,a,0.3407812734080835,colour,0.5
78,71,1,2,1,39,39,81.35731185075838,82.09576628716968,"[8, 0, 246]",246,a,0.20537387322519862,colour,0.5
78,71,1,2,1,40,40,82.60746992566737,83.21582847132049,"[21, 0, 233]",233,a,0.07544704482552334,colour,0.5
78,71,1,2,1,41,41,83.72386278295926,86.19172730081209,"[76, 0, 178]",178,l,1.9346591629068826,colour,0.5
78,71,1,2,1,42,42,86.70781276616526,87.31187674295461,"[1, 0, 253]",253,a,0.07151016956595413,colour,0.5
78,71,1,2,1,43,43,87.82381873692157,88.61589160504354,"[78, 0, 176]",176,l,0.25886815477906566,colour,0.5
78,71,1,2,1,44,44,89.12365163145205,92.13576284817782,"[4, 0, 250]",250,a,2.478731345797314,colour,0.5
78,71,1,2,1,45,45,92.64207221047945,93.74372392084842,"[56, 0, 198]",198,a,0.5700378513620308,colour,0.5
78,71,1,2,1,46,46,94.25688046906316,94.79185215673215,"[59, 0, 195]",195,a,0.0014840274566267908,colour,0.5
78,71,1,2,1,47,47,95.30704675648894,95.97572142629633,"[20, 0, 234]",234,a,0.13539873854460893,colour,0.5
78,71,1,2,1,48,48,96.490956767836,97.23975961706583,"[87, 0, 167]",167,l,0.21611173899054847,colour,0.5
78,71,1,2,1,49,49,97.75800600091179,98.35179887802906,"[36, 0, 218]",218,a,0.06147453814992332,colour,0.5
78,71,1,2,1,50,50,98.85732965523812,99.58370976708875,"[9, 0, 245]",245,a,0.1934028467276221,colour,0.5
78,71,1,2,2,1,51,105.49052946031907,106.88768741621107,"[26, 0, 228]",228,a,0.8640866959476625,colour,0.5
78,71,1,2,2,2,52,107.39052153652347,109.82374848140626,"[73, 0, 181]",181,l,1.9001604969598702,colour,0.5
78,71,1,2,2,3,53,110.3404893440993,111.93569791796699,"[84, 0, 170]",170,l,1.062128331483109,colour,0.5
78,71,1,2,2,4,54,112.44073241534943,113.35969283903842,"[38, 0, 216]",216,a,0.38612816081649726,colour,0.5
78,71,1,2,2,5,55,113.87430101376503,115.78368936411744,"[28, 0, 226]",226,a,1.3767594755927348,colour,0.5
78,71,1,2,2,6,56,116.29081292047067,116.97577692494497,"[2, 0, 252]",252,a,0.1522218868062737,colour,0.5
78,71,1,2,2,7,57,117.49045792159814,118.319800859299,"[35, 0, 219]",219,a,0.29622516154768164,colour,0.5
78,71,1,2,2,8,58,118.8240673580367,119.7996758622262,"[52, 0, 202]",202,a,0.44278137413994045,colour,0.5
78,71,1,2,2,9,59,120.30725944784308,120.93576753187926,"[36, 0, 218]",218,a,0.09559080878216264,colour,0.5
78,71,1,2,2,10,60,121.44077893155827,122.08768080770142,"[8, 0, 246]",246,a,0.1141783649586614,colour,0.5
78,71,1,2,2,11,61,122.59050081275063,123.23165521031297,"[80, 0, 174]",174,l,0.10813446584825215,colour,0.5
78,71,1,2,2,12,62,123.7407241065921,124.52766447249178,"[89, 0, 165]",165,l,0.2541741881236703,colour,0.5
78,71,1,2,2,13,63,125.0403991668145,125.71176279428346,"[31, 0, 223]",223,a,0.1382487385285458,colour,0.5
78,71,1,2,2,14,64,126.22390111873119,127.35962033791338,"[5, 0, 249]",249,a,0.6028073975530788,colour,0.5
78,71,1,2,2,15,65,127.87428914411157,129.07977818505333,"[16, 0, 238]",238,a,0.6729641058477682,colour,0.5
78,71,1,2,2,16,66,129.59092940347318,130.2237827429999,"[95, 0, 159]",159,l,0.10032263000721287,colour,0.5
78,71,1,2,2,17,67,130.7408931689506,132.87176026636826,"[22, 0, 232]",232,a,1.5982789644403965,colour,0.5
78,71,1,2,2,18,68,133.3740836707898,134.0716798735275,"[77, 0, 177]",177,l,0.16489354364648534,colour,0.5
78,71,1,2,2,19,69,134.57326543463978,135.47165350364912,"[42, 0, 212]",212,a,0.36485293018404263,colour,0.5
78,71,1,2,2,20,70,135.97312389704484,137.04764190090282,"[56, 0, 198]",198,a,0.5408728301390511,colour,0.5
78,71,1,2,2,21,71,137.5566103863316,138.3996422422356,"[18, 0, 236]",236,a,0.30956151896907613,colour,0.5
78,71,1,2,2,22,72,138.9070744095734,140.87204353403877,"[30, 0, 224]",224,a,1.4319344358850685,colour,0.5
78,71,1,2,2,23,73,141.37356525566474,142.9517283658729,"[63, 0, 191]",191,a,1.044974436937082,colour,0.5
78,71,1,2,2,24,74,143.45693994565,144.23165873912876,"[3, 0, 251]",251,a,0.24158144843795526,colour,0.5
78,71,1,2,2,25,75,144.74021724031854,145.35963766119085,"[37, 0, 217]",217,a,0.08625452450314697,colour,0.5
78,71,1,2,2,26,76,145.87453166999967,146.90380512210868,"[0, 0, 254]",254,a,0.4970843961218634,colour,0.5
78,71,1,2,2,27,77,147.40664854566285,148.10380075920875,"[46, 0, 208]",208,a,0.163748924112042,colour,0.5
78,71,1,2,2,28,78,148.60753119874198,150.24772351278898,"[66, 0, 188]",188,a,1.1076670581514918,colour,0.5
78,71,1,2,2,29,79,150.7574051398169,151.6796284349416,"[51, 0, 203]",203,a,0.3895989115849261,colour,0.5
78,71,1,2,2,30,80,152.19039757884775,153.06375992760195,"[78, 0, 176]",176,l,0.34039951969634785,colour,0.5
78,71,1,2,2,31,81,153.5732388081201,154.32760820391968,"[55, 0, 199]",199,a,0.22092921420016864,colour,0.5
78,71,1,2,2,32,82,154.8409155288109,155.79977627307653,"[90, 0, 164]",164,l,0.4263627564928356,colour,0.5
78,71,1,2,2,33,83,156.30742273577562,157.17570615614795,"[9, 0, 245]",245,a,0.33564684637758546,colour,0.5
78,71,1,2,2,34,84,157.69039004001388,158.87171214615228,"[69, 0, 185]",185,a,0.6484019436716153,colour,0.5
78,71,1,2,2,35,85,159.37383408727055,160.06368999288816,"[6, 0, 248]",248,a,0.1570576476979113,colour,0.5
78,71,1,2,2,36,86,160.57323335449564,161.45579500531449,"[58, 0, 196]",196,a,0.3491343012769903,colour,0.5
78,71,1,2,2,37,87,161.9573856992497,162.64761116812497,"[33, 0, 221]",221,a,0.15765754638869112,colour,0.5
78,71,1,2,2,38,88,163.1574349101902,163.9835897231901,"[85, 0, 169]",169,l,0.29364367236803446,colour,0.5
78,71,1,2,2,39,89,164.49070878832345,165.143745029583,"[57, 0, 197]",197,a,0.12046960197858425,colour,0.5
78,71,1,2,2,40,90,165.65635108252854,166.83968397208673,"[12, 0, 242]",242,a,0.6497284576221318,colour,0.5
78,71,1,2,2,41,91,167.35679247322832,168.57562043800317,"[92, 0, 162]",162,l,0.6856912613366148,colour,0.5
78,71,1,2,2,42,92,169.09094560394578,169.91160829631053,"[68, 0, 186]",186,a,0.28835173183051666,colour,0.5
78,71,1,2,2,43,93,170.42368117726437,171.59963370891728,"[59, 0, 195]",195,a,0.6430416724278984,colour,0.5
78,71,1,2,2,44,94,172.1070883323555,173.19958982328035,"[17, 0, 237]",237,a,0.5596817393084166,colour,0.5
78,71,1,2,2,45,95,173.70723051155346,174.8157043853239,"[75, 0, 179]",179,l,0.5757968787947902,colour,0.5
78,71,1,2,2,46,96,175.3246414322116,179.11956911233938,"[70, 0, 184]",184,l,3.2629923780787067,colour,0.5
78,71,1,2,2,47,97,179.6239103578123,180.65566168023634,"[93, 0, 161]",161,l,0.4991269388838191,colour,0.5
78,71,1,2,2,48,98,181.156866129239,182.54370743165418,"[79, 0, 175]",175,l,0.8538512052350598,colour,0.5
78,71,1,2,2,49,99,183.05745329211277,183.72760781895795,"[40, 0, 214]",214,a,0.13773609782901985,colour,0.5
78,71,1,2,2,50,100,184.2401984734347,185.27958711571637,"[7, 0, 247]",247,a,0.506400790711723,colour,0.5
78,71,1,2,3,1,101,191.22281263944842,194.2398147949134,"[60, 0, 194]",194,a,2.4833383752625195,colour,0.5
78,71,1,2,3,2,102,194.7578796051448,197.87156906871041,"[73, 0, 181]",181,l,2.5817458206788615,colour,0.5
78,71,1,2,3,3,103,198.37324188781395,200.06353825380756,"[90, 0, 164]",164,l,1.1570990310833622,colour,0.5
78,71,1,2,3,4,104,200.57364013072038,202.05554324034483,"[23, 0, 231]",231,a,0.9491119093363523,colour,0.5
78,71,1,2,3,5,105,202.55688467156187,203.89552202895402,"[96, 0, 158]",158,l,0.8057762223897953,colour,0.5
78,71,1,2,3,6,106,204.40752144637827,205.74353176078648,"[64, 0, 190]",190,a,0.8038016895329747,colour,0.5
78,71,1,2,3,7,107,206.25674669486307,207.7275324306197,"[78, 0, 176]",176,l,0.937806866626488,colour,0.5
78,71,1,2,3,8,108,208.24018371656848,209.71952233948969,"[74, 0, 180]",180,l,0.9464742799050327,colour,0.5
78,71,1,2,3,9,109,210.22411284768077,211.35955938563984,"[48, 0, 206]",206,a,0.6031824144351958,colour,0.5
78,71,1,2,3,10,110,211.8733661983715,212.53564312508115,"[69, 0, 185]",185,a,0.12927880949337123,colour,0.5
78,71,1,2,3,11,111,213.0400424356144,214.06362230378454,"[24, 0, 230]",230,a,0.4906086982746274,colour,0.5
78,71,1,2,3,12,112,214.57376267687005,215.41562906114586,"[1, 0, 253]",253,a,0.30926991046089825,colour,0.5
78,71,1,2,3,13,113,215.92377308687674,217.06370090013706,"[91, 0, 163]",163,l,0.6073515499360838,colour,0.5
78,71,1,2,3,14,114,217.57399204989906,218.60752831152922,"[9, 0, 245]",245,a,0.5011758976747842,colour,0.5
78,71,1,2,3,15,115,219.12369269403598,220.33554258590993,"[46, 0, 208]",208,a,0.6792152426878602,colour,0.5
78,71,1,2,3,16,116,220.8398979466465,222.2634937907278,"[70, 0, 184]",184,a,0.8905111104763819,colour,0.5
78,71,1,2,3,17,117,222.7742356665117,223.51149672156998,"[94, 0, 160]",160,l,0.2051839587734321,colour,0.5
78,71,1,2,3,18,118,224.02319939766357,224.79947504052552,"[19, 0, 235]",235,a,0.24317166117089073,colour,0.5
78,71,1,2,3,19,119,225.30701852596258,226.2716014054954,"[7, 0, 247]",247,a,0.4319684408374087,colour,0.5
78,71,1,2,3,20,120,226.77277634076563,227.76762683606694,"[56, 0, 198]",198,a,0.4613073364398588,colour,0.5
78,71,1,2,3,21,121,228.2735313469525,229.0876204970309,"[66, 0, 188]",188,a,0.28134157878594124,colour,0.5
78,71,1,2,3,22,122,229.58954642846948,230.5275948585795,"[13, 0, 241]",241,a,0.4046525191092769,colour,0.5
78,71,1,2,3,23,123,231.0406901337201,231.831466001624,"[16, 0, 238]",238,a,0.2585409373109542,colour,0.5
78,71,1,2,3,24,124,232.3401396705308,233.455644228638,"[32, 0, 222]",222,a,0.5826909017182516,colour,0.5
78,71,1,2,3,25,125,233.97293141618138,234.66365252327978,"[41, 0, 213]",213,a,0.15740539645730678,colour,0.5
78,71,1,2,3,26,126,235.17304703301988,235.89557496119141,"[0, 0, 254]",254,a,0.18927926503101844,colour,0.5
78,71,1,2,3,27,127,236.40706430432783,237.14346112030944,"[17, 0, 237]",237,a,0.2038962617971265,colour,0.5
78,71,1,2,3,28,128,237.65667605438648,238.48757487906596,"[3, 0, 251]",251,a,0.29801747918691035,colour,0.5
78,71,1,2,3,29,129,238.98975937646492,240.1915996218395,"[82, 0, 172]",172,l,0.668709637163829,colour,0.5
78,71,1,2,3,30,130,240.70635279881617,241.4075156719523,"[10, 0, 244]",244,a,0.16796874624060365,colour,0.5
78,71,1,2,3,31,131,241.92328418548368,243.96753200716194,"[72, 0, 182]",182,l,1.5113263760058544,colour,0.5
78,71,1,2,3,32,132,244.47353307928006,245.4475430298994,"[83, 0, 171]",171,l,0.4413313516361086,colour,0.5
78,71,1,2,3,33,133,245.95684354481773,246.7514683883869,"[40, 0, 214]",214,a,0.2619379037487306,colour,0.5
78,71,1,2,3,34,134,247.256860579374,248.29546325812998,"[87, 0, 167]",167,l,0.5059462150720719,colour,0.5
78,71,1,2,3,35,135,248.80719961837485,249.40755865934534,"[42, 0, 212]",212,a,0.06805706287696012,colour,0.5
78,71,1,2,3,36,136,249.9230663613066,250.93559622391058,"[49, 0, 205]",205,a,0.47943582575726396,colour,0.5
78,71,1,2,3,37,137,251.43988582035217,252.51153521774268,"[61, 0, 193]",193,a,0.538717686072232,colour,0.5
78,71,1,2,3,38,138,253.02405240868984,254.12762443647216,"[2, 0, 252]",252,a,0.5714837034470293,colour,0.5
78,71,1,2,3,39,139,254.63967935254595,255.78345774547824,"[51, 0, 203]",203,a,0.6106545215520782,colour,0.5
78,71,1,2,3,40,140,256.2892573542931,257.5114729822635,"[95, 0, 159]",159,l,0.6886737523150259,colour,0.5
78,71,1,2,3,41,141,258.024041822242,258.7835956900972,"[31, 0, 223]",223,a,0.2274751675627158,colour,0.5
78,71,1,2,3,42,142,259.2902178338013,260.3115652447573,"[62, 0, 192]",192,a,0.4887826964836677,colour,0.5
78,71,1,2,3,43,143,260.8231235602034,261.88744841913876,"[88, 0, 166]",166,l,0.5313488770184449,colour,0.5
78,71,1,2,3,44,144,262.3899088057751,263.42345469144857,"[53, 0, 201]",201,a,0.5007001491403571,colour,0.5
78,71,1,2,3,45,145,263.93949909421735,264.85543275632926,"[27, 0, 227]",227,a,0.38268179095712185,colour,0.5
78,71,1,2,3,46,146,265.37345778718236,266.3994253804626,"[80, 0, 174]",174,l,0.49334641775476484,colour,0.5
78,71,1,2,3,47,147,266.9072733064654,268.1274916246766,"[26, 0, 228]",228,a,0.6880870064828741,colour,0.5
78,71,1,2,3,48,148,268.63985932215337,269.42341876168757,"[92, 0, 162]",162,l,0.2506495427137452,colour,0.5
78,71,1,2,3,49,149,269.93961137472115,271.1354115706022,"[33, 0, 221]",221,a,0.6626939685797879,colour,0.5
78,71,1,2,3,50,150,271.63948141805804,272.6715509755095,"[45, 0, 209]",209,a,0.4988420672061693,colour,0.5
78,71,1,2,4,1,151,277.72284038877297,279.91954716952114,"[61, 0, 193]",193,a,1.6635222778954812,colour,0.5
78,71,1,2,4,2,152,280.4235518942846,282.3755003299443,"[23, 0, 231]",231,a,1.4194982473013624,colour,0.5
78,71,1,2,4,3,153,282.8900927854006,283.5914064352128,"[14, 0, 240]",240,a,0.16875182255307664,colour,0.5
78,71,1,2,4,4,154,284.10672293951666,286.00749392161515,"[82, 0, 172]",172,l,1.368180603511064,colour,0.5
78,71,1,2,4,5,155,286.52416067917557,287.5833937776715,"[74, 0, 180]",180,l,0.5274087937450531,colour,0.5
78,71,1,2,4,6,156,288.08962229801,288.67136715628476,"[29, 0, 225]",225,a,0.04874962827125273,colour,0.5
78,71,1,2,4,7,157,289.17336013522436,290.3274997730332,"[9, 0, 245]",245,a,0.6215479760157905,colour,0.5
78,71,1,2,4,8,158,290.8404128329562,291.88738105083667,"[2, 0, 252]",252,a,0.5147781994892284,colour,0.5
78,71,1,2,4,9,159,292.38914369434315,293.3113968240018,"[8, 0, 246]",246,a,0.3887965871858796,colour,0.5
78,71,1,2,4,10,160,293.8230087132879,294.5273706183739,"[93, 0, 161]",161,l,0.17144398822938456,colour,0.5
78,71,1,2,4,11,161,295.03968698762037,295.82348927384373,"[43, 0, 211]",211,a,0.2509129206951002,colour,0.5
78,71,1,2,4,12,162,296.33944609781975,297.50352256020096,"[13, 0, 241]",241,a,0.6309407213475424,colour,0.5
78,71,1,2,4,13,163,298.006051277544,299.2633725277842,"[65, 0, 189]",189,a,0.7241402762037978,colour,0.5
78,71,1,2,4,14,164,299.7731375631861,301.10335933642864,"[21, 0, 233]",233,a,0.7974700315312475,colour,0.5
78,71,1,2,4,15,165,301.60659317533464,302.65546759536574,"[33, 0, 221]",221,a,0.5162179563471909,colour,0.5
78,71,1,2,4,16,166,303.1726976802529,303.83941000765753,"[60, 0, 194]",194,a,0.13353231577229963,colour,0.5
78,71,1,2,4,17,167,304.35659518034345,305.1113344602022,"[38, 0, 216]",216,a,0.22212740757504434,colour,0.5
78,71,1,2,4,18,168,305.62296880558915,306.7194475927545,"[88, 0, 166]",166,l,0.5635518878684707,colour,0.5
78,71,1,2,4,19,169,307.2240817299412,308.0234553972118,"[71, 0, 183]",183,a,0.2675981243382921,colour,0.5
78,71,1,2,4,20,170,308.5400194983117,309.85565443012365,"[85, 0, 169]",169,l,0.7831135255337358,colour,0.5
78,71,1,2,4,21,171,310.37402079370804,314.3993326688469,"[57, 0, 197]",197,a,3.4934936656154605,colour,0.5
78,71,1,2,4,22,172,314.90636768400327,315.9033216743401,"[35, 0, 219]",219,a,0.46417883012054517,colour,0.5
78,71,1,2,4,23,173,316.40619557403124,317.6233370856412,"[94, 0, 160]",160,l,0.684200176248396,colour,0.5
78,71,1,2,4,24,174,318.13976292132065,319.75135033345714,"[26, 0, 228]",228,a,1.078892452279888,colour,0.5
78,71,1,2,4,25,175,320.2564951865352,320.8394007044162,"[28, 0, 226]",226,a,0.05028755036983057,colour,0.5
78,71,1,2,4,26,176,321.35592278052764,322.2233948940602,"[97, 0, 157]",157,l,0.3342741370197473,colour,0.5
78,71,1,2,4,27,177,322.739933331045,323.76741029509594,"[63, 0, 191]",191,a,0.4949635778089032,colour,0.5
78,71,1,2,4,28,178,324.27319771345583,325.73530416628046,"[76, 0, 178]",178,l,0.9295317935075218,colour,0.5
78,71,1,2,4,29,179,326.2398638775335,326.95131324881095,"[50, 0, 204]",204,a,0.17888818562096276,colour,0.5
78,71,1,2,4,30,180,327.4565893096774,328.7673515884326,"[0, 0, 254]",254,a,0.7782658949895449,colour,0.5
78,71,1,2,4,31,181,329.2730068365995,330.3354594983375,"[44, 0, 210]",210,a,0.5297214513188919,colour,0.5
78,71,1,2,4,32,182,330.839150800095,333.92748604273174,"[66, 0, 188]",188,a,2.5550875419007752,colour,0.5
78,71,1,2,4,33,183,334.439142523418,335.4873214459294,"[49, 0, 205]",205,a,0.5149264097540254,colour,0.5
78,71,1,2,4,34,184,335.9900811403081,336.8473091014898,"[52, 0, 202]",202,a,0.32493785274118636,colour,0.5
78,71,1,2,4,35,185,337.35628689016085,338.6713228856861,"[45, 0, 209]",209,a,0.7822935570557092,colour,0.5
78,71,1,2,4,36,186,339.17277659740694,340.3192606296757,"[78, 0, 176]",176,l,0.6135754186539089,colour,0.5
78,71,1,2,4,37,187,340.82196578780986,341.9914281855504,"[1, 0, 253]",253,a,0.6357585173582265,colour,0.5
78,71,1,2,4,38,188,342.50733785171496,343.5674095251725,"[46, 0, 208]",208,a,0.5284010325958661,colour,0.5
78,71,1,2,4,39,189,344.0727949793295,345.24747713728357,"[91, 0, 163]",163,l,0.6418059452844318,colour,0.5
78,71,1,2,4,40,190,345.75639140726935,346.4392965081088,"[59, 0, 195]",195,a,0.1503156846561069,colour,0.5
78,71,1,2,4,41,191,346.9562394757081,348.35133628235417,"[47, 0, 207]",207,a,0.8623572553897247,colour,0.5
78,71,1,2,4,42,192,348.85659598234724,349.5592685470551,"[48, 0, 206]",206,a,0.17030289751073724,colour,0.5
78,71,1,2,4,43,193,350.0723577269682,351.4153085805083,"[77, 0, 177]",177,l,0.8096765262848749,colour,0.5
78,71,1,2,4,44,194,351.9238738185286,353.7512839275596,"[70, 0, 184]",184,a,1.2956656838382514,colour,0.5
78,71,1,2,4,45,195,354.2559777338138,355.07926394034666,"[98, 0, 156]",156,l,0.29033300151786534,colour,0.5
78,71,1,2,4,46,196,355.58968276908126,356.7673615332769,"[55, 0, 199]",199,a,0.6450980096515195,colour,0.5
78,71,1,2,4,47,197,357.27272581453917,357.94325022544353,"[39, 0, 215]",215,a,0.1376603886897101,colour,0.5
78,71,1,2,4,48,198,358.4562441273288,358.9992429086042,"[17, 0, 237]",237,a,0.01032723992375395,colour,0.5
78,71,1,2,4,49,199,359.5062946054354,360.39944655335785,"[79, 0, 175]",175,l,0.36052307316231236,colour,0.5
78,71,1,2,4,50,200,360.9062390426261,361.4794602066668,"[36, 0, 218]",218,a,0.04055475551240306,colour,0.5
78,71,1,2,5,1,201,367.23897974876763,375.8792878721338,"[69, 0, 185]",185,a,8.107091540369765,colour,0.4
78,71,1,2,5,2,202,376.38988987849007,377.6953364774017,"[61, 0, 193]",193,a,0.7731564904711377,colour,0.4
78,71,1,2,5,3,203,378.206220789024,378.7993903489455,"[56, 0, 198]",198,a,0.06058367255400299,colour,0.4
78,71,1,2,5,4,204,379.3056365133634,379.9352324350789,"[57, 0, 197]",197,a,0.0964271381335493,colour,0.4
78,71,1,2,5,5,205,380.43974049730014,381.53523410324624,"[44, 0, 210]",210,a,0.5630950666190984,colour,0.4
78,71,1,2,5,6,206,382.03989871656995,383.02327478600137,"[23, 0, 231]",231,a,0.4511555749031686,colour,0.4
78,71,1,2,5,7,207,383.5394930631501,385.2713993005891,"[80, 0, 174]",174,l,1.1992914779420971,colour,0.4
78,71,1,2,5,8,208,385.7900745959587,388.0312239248583,"[66, 0, 188]",188,a,1.7091113703900191,colour,0.4
78,71,1,2,5,9,209,388.53952289768404,389.13520304966687,"[81, 0, 173]",173,l,0.06311768312070853,colour,0.4
78,71,1,2,5,10,210,389.63860402612227,390.7273062656054,"[17, 0, 237]",237,a,0.5552373561727109,colour,0.4
78,71,1,2,5,11,211,391.23985040387333,391.871184427785,"[28, 0, 226]",226,a,0.09911352938343043,colour,0.4
78,71,1,2,5,12,212,392.3719259603113,393.00720070909983,"[48, 0, 206]",206,a,0.10180120383938629,colour,0.4
78,71,1,2,5,13,213,393.5226808221373,394.3032045176542,"[43, 0, 211]",211,a,0.24777965304019745,colour,0.4
78,71,1,2,5,14,214,394.8053848446343,396.09521097987863,"[74, 0, 180]",180,l,0.7564809108707777,colour,0.4
78,71,1,2,5,15,215,396.6059791613802,397.3991552656512,"[96, 0, 158]",158,l,0.26044328984471576,colour,0.4
78,71,1,2,5,16,216,397.90563401111194,399.11127222472305,"[92, 0, 162]",162,l,0.672559896034727,colour,0.4
78,71,1,2,5,17,217,399.622797818422,400.4231704613735,"[59, 0, 195]",195,a,0.2678137029051868,colour,0.4
78,71,1,2,5,18,218,400.9392074857092,402.1353576759607,"[11, 0, 243]",243,a,0.6633083033357252,colour,0.4
78,71,1,2,5,19,219,402.6389286771787,404.503191493116,"[73, 0, 181]",181,a,1.3311819319496863,colour,0.4
78,71,1,2,5,20,220,405.0055440904689,406.7751868427781,"[37, 0, 217]",217,a,1.2364486254136864,colour,0.4
78,71,1,2,5,21,221,407.28960221583975,407.8311939620039,"[21, 0, 233]",233,a,0.009209888512032194,colour,0.4
78,71,1,2,5,22,222,408.339395090391,409.6951805679023,"[1, 0, 253]",253,a,0.8231979861370746,colour,0.4
78,71,1,2,5,23,223,410.2052747455805,411.247187132783,"[91, 0, 163]",163,l,0.5085373282950059,colour,0.4
78,71,1,2,5,24,224,411.75602729763614,412.4312844921701,"[55, 0, 199]",199,a,0.14259880604140562,colour,0.4
78,71,1,2,5,25,225,412.9387644589219,413.6631764539443,"[87, 0, 167]",167,l,0.1912011864519627,colour,0.4
78,71,1,2,5,26,226,414.1724394350945,414.82320761018036,"[40, 0, 214]",214,a,0.11787945116020637,colour,0.4
78,71,1,2,5,27,227,415.339056965674,415.99130403539357,"[95, 0, 159]",159,l,0.11935257136792643,colour,0.4
78,71,1,2,5,28,228,416.50610565338775,417.03935592053494,"[27, 0, 227]",227,a,0.0007564497927887714,colour,0.4
78,71,1,2,5,29,229,417.55603262294017,418.15931737303436,"[47, 0, 207]",207,a,0.07071394039439838,colour,0.4
78,71,1,2,5,30,230,418.67228529000295,419.26334750527167,"[4, 0, 250]",250,a,0.05804324595874277,colour,0.4
78,71,1,2,5,31,231,419.7724677297815,420.415244741022,"[84, 0, 170]",170,l,0.109897269755038,colour,0.4
78,71,1,2,5,32,232,420.92172059927,421.4871934461553,"[53, 0, 201]",201,a,0.031926480009587976,colour,0.4
78,71,1,2,5,33,233,421.9891017335149,422.99127837127844,"[64, 0, 190]",190,a,0.46938383346787305,colour,0.4
78,71,1,2,5,34,234,423.50592568378033,425.56719330500255,"[41, 0, 213]",213,a,1.5286297640218436,colour,0.4
78,71,1,2,5,35,235,426.07258998721,427.14314898050907,"[83, 0, 171]",171,l,0.537941988192415,colour,0.4
78,71,1,2,5,36,236,427.65539413183615,428.27925861504264,"[65, 0, 189]",189,a,0.09072681736415689,colour,0.4
78,71,1,2,5,37,237,428.7902077285562,429.4632565259835,"[97, 0, 157]",157,l,0.1413932342334192,colour,0.4
78,71,1,2,5,38,238,429.9722538835422,430.6311117085147,"[2, 0, 252]",252,a,0.12592354724256438,colour,0.4
78,71,1,2,5,39,239,431.138320598051,431.7993303590765,"[93, 0, 161]",161,l,0.12747686781040102,colour,0.4
78,71,1,2,5,40,240,432.30505810836894,433.18313720068045,"[98, 0, 156]",156,l,0.3446241538463255,colour,0.4
78,71,1,2,5,41,241,433.68864520098714,434.46327032044564,"[0, 0, 254]",254,a,0.2414229725268342,colour,0.4
78,71,1,2,5,42,242,434.9726603389654,436.2873088063525,"[77, 0, 177]",177,l,0.7821360435491442,colour,0.4
78,71,1,2,5,43,243,436.78827618309197,439.00728026785646,"[67, 0, 187]",187,a,1.6854051064528903,colour,0.4
78,71,1,2,5,44,244,439.52266766927823,440.12711147497157,"[99, 0, 155]",155,l,0.07196314119801173,colour,0.4
78,71,1,2,5,45,245,440.63911025079324,441.2872417588519,"[79, 0, 175]",175,a,0.11542788656333869,colour,0.4
78,71,1,2,5,46,246,441.788951470121,443.23920591378237,"[33, 0, 221]",221,a,0.9174051783129471,colour,0.4
78,71,1,2,5,47,247,443.7556567719744,445.8551183709192,"[15, 0, 239]",239,a,1.5666626994220678,colour,0.4
78,71,1,2,5,48,248,446.3723747615245,447.2232004883881,"[5, 0, 249]",249,a,0.31808360919558254,colour,0.4
78,71,1,2,5,49,249,447.73917495644355,448.4232583609678,"[60, 0, 194]",194,a,0.15149527154699172,colour,0.4
78,71,1,2,5,50,250,448.93876157170916,449.58323337695174,"[88, 0, 166]",166,l,0.11147432962934545,colour,0.4
78,71,1,2,6,1,251,455.3222578775203,462.6070798311175,"[77, 0, 177]",177,a,6.752023054074471,colour,0.28
78,71,1,2,6,2,252,463.1217191235837,464.02314935263894,"[51, 0, 203]",203,a,0.36814146573533435,colour,0.28
78,71,1,2,6,3,253,464.5399165210497,465.2230583733508,"[61, 0, 193]",193,a,0.15139518149817377,colour,0.28
78,71,1,2,6,4,254,465.7392574024134,467.09508201769995,"[4, 0, 250]",250,a,0.8234196599310053,colour,0.28
78,71,1,2,6,5,255,467.6063673311214,470.00716991216177,"[82, 0, 172]",172,l,1.868854767735229,colour,0.28
78,71,1,2,6,6,256,470.5225358198868,471.6952213096847,"[85, 0, 169]",169,l,0.640201938089831,colour,0.28
78,71,1,2,6,7,257,472.2050983047893,472.91908553625035,"[66, 0, 188]",188,a,0.18077931010384418,colour,0.28
78,71,1,2,6,8,258,473.42232450797883,474.23107006848795,"[3, 0, 251]",251,a,0.2760736983559582,colour,0.28
78,71,1,2,6,9,259,474.7388387565352,475.43116322922606,"[18, 0, 236]",236,a,0.15954129243846182,colour,0.28
78,71,1,2,6,10,260,475.9387240379406,477.0711842353044,"[27, 0, 227]",227,a,0.59956217019635,colour,0.28
78,71,1,2,6,11,261,477.5883742200117,478.39122537488083,"[65, 0, 189]",189,a,0.26961628619073963,colour,0.28
78,71,1,2,6,12,262,478.9051188040012,480.7110589559261,"[75, 0, 179]",179,a,1.2727909372306385,colour,0.28
78,71,1,2,6,13,263,481.22309879433215,482.3270551422388,"[78, 0, 176]",176,l,0.5721310807512054,colour,0.28
78,71,1,2,6,14,264,482.83862211932365,484.5751835064434,"[98, 0, 156]",156,l,1.2036056156935047,colour,0.28
78,71,1,2,6,15,265,485.08926139639107,485.831020729227,"[92, 0, 162]",162,l,0.20945125951493537,colour,0.28
78,71,1,2,6,16,266,486.33819368900186,486.9910477150438,"[97, 0, 157]",157,l,0.11945907744575379,colour,0.28
78,71,1,2,6,17,267,487.5050421966175,488.70303186232013,"[55, 0, 199]",199,a,0.6648189573120362,colour,0.28
78,71,1,2,6,18,268,489.20520673567535,489.91110431724974,"[47, 0, 207]",207,a,0.17290459718105922,colour,0.28
78,71,1,2,6,19,269,490.4219870248653,491.4630293985647,"[89, 0, 165]",165,l,0.5081132287923538,colour,0.28
78,71,1,2,6,20,270,491.97231996863866,492.7270515492628,"[52, 0, 202]",202,a,0.22217777340074463,colour,0.28
78,71,1,2,6,21,271,493.23844753918047,494.41520720725384,"[96, 0, 158]",158,l,0.6436579319920384,colour,0.28
78,71,1,2,6,22,272,494.9217565290314,495.5190098912708,"[70, 0, 184]",184,a,0.0641541925697311,colour,0.28
78,71,1,2,6,23,273,496.02179845777937,497.2710326245442,"[72, 0, 182]",182,a,0.7161895333397297,colour,0.28
78,71,1,2,6,24,274,497.7881318224445,499.3990468347647,"[95, 0, 159]",159,l,1.0775421990233554,colour,0.28
78,71,1,2,6,25,275,499.90540399648035,500.59102339829496,"[50, 0, 204]",204,a,0.1528487328182564,colour,0.28
78,71,1,2,6,26,276,501.1053585709965,501.9349905507938,"[58, 0, 196]",196,a,0.29683757149450685,colour,0.28
78,71,1,2,6,27,277,502.43861737146244,503.1830011808702,"[25, 0, 229]",229,a,0.21153261925064726,colour,0.28
78,71,1,2,6,28,278,503.68853548689503,504.50297848096034,"[59, 0, 195]",195,a,0.28150486671802355,colour,0.28
78,71,1,2,6,29,279,505.005376311316,506.2950346674079,"[90, 0, 164]",164,l,0.7569018023586978,colour,0.28
78,71,1,2,6,30,280,506.8057752599857,507.39909559658327,"[41, 0, 213]",213,a,0.06097505030948014,colour,0.28
78,71,1,2,6,31,281,507.90587782020566,508.59901103332413,"[60, 0, 194]",194,a,0.1608745432190517,colour,0.28
78,71,1,2,6,32,282,509.10533515249153,510.19107126186964,"[57, 0, 197]",197,a,0.5529689691979911,colour,0.28
78,71,1,2,6,33,283,510.70474847082005,511.2549569436351,"[9, 0, 245]",245,a,0.016852341193043685,colour,0.28
78,71,1,2,6,34,284,511.7718530742245,513.7029298474622,"[56, 0, 198]",198,a,1.39814057069907,colour,0.28
78,71,1,2,6,35,285,514.2047723705273,514.9031285518736,"[94, 0, 160]",160,l,0.16504656593269829,colour,0.28
78,71,1,2,6,36,286,515.4044420733658,516.3029860518745,"[12, 0, 242]",242,a,0.3649132408550031,colour,0.28
78,71,1,2,6,37,287,516.8055523029857,517.7109819635807,"[69, 0, 185]",185,a,0.37284281082338566,colour,0.28
78,71,1,2,6,38,288,518.2221530716902,518.8550057696143,"[62, 0, 192]",192,a,0.10028220902631801,colour,0.28
78,71,1,2,6,39,289,519.3718194542334,519.9350855080197,"[53, 0, 201]",201,a,0.030370913831575308,colour,0.28
78,71,1,2,6,40,290,520.4381377733112,521.5831063395822,"[79, 0, 175]",175,l,0.611716374315165,colour,0.28
78,71,1,2,6,41,291,522.0883939493001,523.0630227258948,"[31, 0, 223]",223,a,0.44165536108903325,colour,0.28
78,71,1,2,6,42,292,523.5716970364047,524.4949622946033,"[34, 0, 220]",220,a,0.3902417976687502,colour,0.28
78,71,1,2,6,43,293,525.006051598345,526.0469688594835,"[99, 0, 155]",155,l,0.5089434629167044,colour,0.28
78,71,1,2,6,44,294,526.5555860673371,528.9910188429144,"[67, 0, 187]",187,a,1.9029761711899482,colour,0.28
78,71,1,2,6,45,295,529.505422025521,531.5829735277862,"[43, 0, 211]",211,a,1.54497363493374,colour,0.28
78,71,1,2,6,46,296,532.0888600737908,535.006943747147,"[64, 0, 190]",190,a,2.3856174449256287,colour,0.28
78,71,1,2,6,47,297,535.5218643824751,536.5590998054981,"[71, 0, 183]",183,l,0.5044769444816666,colour,0.28
78,71,1,2,6,48,298,537.0725316013481,538.0870934202667,"[15, 0, 239]",239,a,0.48247349458324607,colour,0.28
78,71,1,2,6,49,299,538.5887107407211,540.8789731659222,"[46, 0, 208]",208,a,1.757690332295624,colour,0.28
78,71,1,2,6,50,300,541.3889650079418,541.9428934942434,"[86, 0, 168]",168,l,0.02162875381827689,colour,0.28
78,71,1,2,7,1,301,549.9870944789113,555.6790837140979,"[58, 0, 196]",196,l,5.157872804154067,colour,0.14
78,71,1,2,7,2,302,556.1879277285689,556.9348997639868,"[88, 0, 166]",166,l,0.21370444499279984,colour,0.14
78,71,1,2,7,3,303,557.4378076686303,558.1030683695235,"[91, 0, 163]",163,l,0.13189045400758914,colour,0.14
78,71,1,2,7,4,304,558.6053936987541,560.7429985887948,"[86, 0, 168]",168,l,1.6051556640863964,colour,0.14
78,71,1,2,7,5,305,561.2543608945616,561.8629545876693,"[49, 0, 205]",205,a,0.07512528098186522,colour,0.14
78,71,1,2,7,6,306,562.3715256001155,563.119003860204,"[84, 0, 170]",170,l,0.21451831824333567,colour,0.14
78,71,1,2,7,7,307,563.6219059904215,565.6548699422847,"[62, 0, 192]",192,a,1.5003998789934485,colour,0.14
78,71,1,2,7,8,308,566.1712755674739,567.6069970643462,"[83, 0, 171]",171,l,0.902521595550752,colour,0.14
78,71,1,2,7,9,309,568.1219584414571,568.7830641221126,"[3, 0, 251]",251,a,0.1286064096766495,colour,0.14
78,71,1,2,7,10,310,569.2884502178727,570.3189074272914,"[61, 0, 193]",193,a,0.49771894136802075,colour,0.14
78,71,1,2,7,11,311,570.8215458587265,572.566957515945,"[73, 0, 181]",181,a,1.2125065724194428,colour,0.14
78,71,1,2,7,12,312,573.0713183303055,574.1909018787096,"[77, 0, 177]",177,l,0.586458393817793,colour,0.14
78,71,1,2,7,13,313,574.7045351378629,575.5588765276966,"[80, 0, 174]",174,l,0.32111871160986993,colour,0.14
78,71,1,2,7,14,314,576.071613788431,577.1188909380976,"[75, 0, 179]",179,l,0.5144756837321438,colour,0.14
78,71,1,2,7,15,315,577.6214680964576,578.2389492726311,"[92, 0, 162]",162,l,0.08453791600322802,colour,0.14
78,71,1,2,7,16,316,578.7551630585594,579.4309739563769,"[22, 0, 232]",232,a,0.14323463449318297,colour,0.14
78,71,1,2,7,17,317,579.9377273078699,582.0308864417443,"[98, 0, 156]",156,l,1.5597949822163173,colour,0.14
78,71,1,2,7,18,318,582.5384148495141,583.7908602386829,"[82, 0, 172]",172,l,0.7197975871240487,colour,0.14
78,71,1,2,7,19,319,584.3047228708651,584.982901924905,"[70, 0, 184]",184,a,0.14519152327102347,colour,0.14
78,71,1,2,7,20,320,585.4880499859973,586.1110008267055,"[71, 0, 183]",183,a,0.08997967081268143,colour,0.14
78,71,1,2,7,21,321,586.6218014091528,587.3268607365667,"[52, 0, 202]",202,a,0.17249814175784195,colour,0.14
78,71,1,2,7,22,322,587.8386147408905,588.5108855948288,"[90, 0, 164]",164,l,0.13981072073511314,colour,0.14
78,71,1,2,7,23,323,589.021727881463,589.7990733971237,"[38, 0, 216]",216,a,0.24469193919003374,colour,0.14
78,71,1,2,7,24,324,590.3046747506492,590.9508095905517,"[55, 0, 199]",199,a,0.11314345951632276,colour,0.14
78,71,1,2,7,25,325,591.4547886512,592.0468806390882,"[57, 0, 197]",197,a,0.05921385040983296,colour,0.14
78,71,1,2,7,26,326,592.5545351218229,597.2309350110822,"[74, 0, 180]",180,a,4.143287245929059,colour,0.14
78,71,1,2,7,27,327,597.7382295546026,598.4947945154504,"[60, 0, 194]",194,a,0.22382380558383375,colour,0.14
78,71,1,2,7,28,328,599.0048447433319,601.0947888051851,"[99, 0, 155]",155,l,1.5571223854285563,colour,0.14
78,71,1,2,7,29,329,601.6048464114992,602.9189687645267,"[59, 0, 195]",195,a,0.7813548920457833,colour,0.14
78,71,1,2,7,30,330,603.4213473467958,604.8069157091013,"[93, 0, 161]",161,l,0.852639859001556,colour,0.14
78,71,1,2,7,31,331,605.321349367845,606.0308386423299,"[72, 0, 182]",182,a,0.17658162327415994,colour,0.14
78,71,1,2,7,32,332,606.5382464287586,607.4949157783944,"[54, 0, 200]",200,a,0.4239820890138617,colour,0.14
78,71,1,2,7,33,333,608.0047953399103,608.6147800280573,"[33, 0, 221]",221,a,0.07720407430633713,colour,0.14
78,71,1,2,7,34,334,609.1207368295773,609.7429215964494,"[46, 0, 208]",208,a,0.08869710665976527,colour,0.14
78,71,1,2,7,35,335,610.2546627687157,611.1109376288218,"[97, 0, 157]",157,l,0.3233672088958883,colour,0.14
78,71,1,2,7,36,336,611.6212534802949,612.5428945208077,"[76, 0, 178]",178,a,0.38867339943317347,colour,0.14
78,71,1,2,7,37,337,613.0546873421058,614.1269279765484,"[95, 0, 159]",159,l,0.5393852738666283,colour,0.14
78,71,1,2,7,38,338,614.6383252496721,615.3428032848788,"[96, 0, 158]",158,l,0.17193032321074497,colour,0.14
78,71,1,2,7,39,339,615.8555594728978,616.9589271501636,"[53, 0, 201]",201,a,0.571390991831322,colour,0.14
78,71,1,2,7,40,340,617.4718546461513,618.7508896625909,"[30, 0, 224]",224,a,0.7466916549601592,colour,0.14
78,71,1,2,7,41,341,619.2555080805073,620.414888972226,"[56, 0, 198]",198,a,0.6273679557216383,colour,0.14
78,71,1,2,7,42,342,620.9213494320052,621.5348289310286,"[50, 0, 204]",204,a,0.08065236897391515,colour,0.14
78,71,1,2,7,43,343,622.0380345394078,623.7107878787101,"[67, 0, 187]",187,a,1.1399480237505486,colour,0.14
78,71,1,2,7,44,344,624.2210880109128,625.0547694672741,"[94, 0, 160]",160,l,0.3006259156877604,colour,0.14
78,71,1,2,7,45,345,625.5712774281224,626.9669138227887,"[78, 0, 176]",176,a,0.8627566531808952,colour,0.14
78,71,1,2,7,46,346,627.4724545448421,628.758798380466,"[81, 0, 173]",173,l,0.7546269993545138,colour,0.14
78,71,1,2,7,47,347,629.2705873521468,630.2627867443566,"[79, 0, 175]",175,l,0.4586693862074753,colour,0.14
78,71,1,2,7,48,348,630.771388874542,631.766789865113,"[69, 0, 185]",185,a,0.4626778001875209,colour,0.14
78,71,1,2,7,49,349,632.2716171247662,633.2547747284179,"[68, 0, 186]",186,a,0.4506355557709867,colour,0.14
78,71,1,2,7,50,350,633.7707062090799,634.5908097445363,"[89, 0, 165]",165,l,0.2867156444917782,colour,0.14
78,71,1,2,8,1,351,640.7712595915623,643.3107443138747,"[91, 0, 163]",163,l,2.0066665747035586,colour,0.06
78,71,1,2,8,2,352,643.8206729580106,644.3748632182865,"[34, 0, 220]",220,a,0.020816484574424976,colour,0.06
78,71,1,2,8,3,353,644.8876222935187,650.8787893466979,"[17, 0, 237]",237,l,5.45808841480175,colour,0.06
78,71,1,2,8,4,354,651.3880067740433,653.2867586318848,"[56, 0, 198]",198,a,1.3660748628653892,colour,0.06
78,71,1,2,8,5,355,653.8044147410828,654.654747396135,"[81, 0, 173]",173,l,0.31741441739404763,colour,0.06
78,71,1,2,8,6,356,655.1707908364997,656.3668406159004,"[57, 0, 197]",197,a,0.6628261387727434,colour,0.06
78,71,1,2,8,7,357,656.8720804262043,658.2467553340462,"[92, 0, 162]",162,l,0.8427710443338583,colour,0.06
78,71,1,2,8,8,358,658.7546449642355,660.982768792308,"[74, 0, 180]",180,l,1.6954484371035505,colour,0.06
78,71,1,2,8,9,359,661.4874346888373,662.1667946129742,"[98, 0, 156]",156,l,0.1461609852199217,colour,0.06
78,71,1,2,8,10,360,662.6705170324713,663.7188178595297,"[86, 0, 168]",168,l,0.5148705903038717,colour,0.06
78,71,1,2,8,11,361,664.2206459465297,666.5106815651134,"[97, 0, 157]",157,l,1.756745251256234,colour,0.06
78,71,1,2,8,12,362,667.0210179478781,668.5748540433656,"[73, 0, 181]",181,a,1.0209265194680484,colour,0.06
78,71,1,2,8,13,363,669.0878540404783,669.7268959605649,"[59, 0, 195]",195,a,0.10628312074368296,colour,0.06
78,71,1,2,8,14,364,670.2380019459815,671.446717928598,"[65, 0, 189]",189,a,0.676118867198511,colour,0.06
78,71,1,2,8,15,365,671.9552802794055,674.2546342173873,"[53, 0, 201]",201,a,1.7674135031097649,colour,0.06
78,71,1,2,8,16,366,674.7707414972383,675.6548693006821,"[84, 0, 170]",170,l,0.3509779471469301,colour,0.06
78,71,1,2,8,17,367,676.1711510965156,676.9509019813663,"[96, 0, 158]",158,l,0.2470267320632047,colour,0.06
78,71,1,2,8,18,368,677.4545387468793,678.5908184061755,"[68, 0, 186]",186,a,0.6036119675618465,colour,0.06
78,71,1,2,8,19,369,679.1040249994148,679.8787819682648,"[67, 0, 187]",187,a,0.24158112763643658,colour,0.06
78,71,1,2,8,20,370,680.3882967785444,681.3907079221599,"[62, 0, 192]",192,a,0.4701941779030676,colour,0.06
78,71,1,2,8,21,371,681.9037383954092,683.1267974103625,"[82, 0, 172]",172,l,0.6896034348851572,colour,0.06
78,71,1,2,8,22,372,683.637842122705,687.2627777619159,"[78, 0, 176]",176,l,3.09227725071878,colour,0.06
78,71,1,2,8,23,373,687.7710241233062,690.2866675242763,"[54, 0, 200]",200,a,1.9828287821769663,colour,0.06
78,71,1,2,8,24,374,690.8047034623783,692.8706749950998,"[23, 0, 231]",231,a,1.5335325724136055,colour,0.06
78,71,1,2,8,25,375,693.3870408409107,694.1346766145057,"[55, 0, 199]",199,a,0.21419976241440963,colour,0.06
78,71,1,2,8,26,376,694.6375075268038,695.5428233028883,"[83, 0, 171]",171,l,0.3723850271703668,colour,0.06
78,71,1,2,8,27,377,696.053761509153,696.8626854352619,"[51, 0, 203]",203,a,0.2755414887687948,colour,0.06
78,71,1,2,8,28,378,697.3708188745454,699.9106455711922,"[72, 0, 182]",182,l,2.0068571307583625,colour,0.06
78,71,1,2,8,29,379,700.4204414035321,701.6146205897421,"[71, 0, 183]",183,a,0.6608753452223937,colour,0.06
78,71,1,2,8,30,380,702.1212125781112,702.9186514919033,"[75, 0, 179]",179,a,0.264920073925623,colour,0.06
78,71,1,2,8,31,381,703.4212321790792,704.6547336016733,"[52, 0, 202]",202,a,0.7009819411246099,colour,0.06
78,71,1,2,8,32,382,705.1706400598232,706.1506570173874,"[88, 0, 166]",166,l,0.4469347903709604,colour,0.06
78,71,1,2,8,33,383,706.6541834272052,707.9827854739829,"[79, 0, 175]",175,l,0.7957415533783205,colour,0.06
78,71,1,2,8,34,384,708.4877269389481,709.254636142196,"[70, 0, 184]",184,a,0.23426075960014714,colour,0.06
78,71,1,2,8,35,385,709.7707649157433,710.4867882739377,"[95, 0, 159]",159,l,0.1830849100456362,colour,0.06
78,71,1,2,8,36,386,711.0043439722854,711.6146331009986,"[69, 0, 185]",185,a,0.07761213373714781,colour,0.06
78,71,1,2,8,37,387,712.1208885686578,713.2946654249513,"[77, 0, 177]",177,a,0.6409814855865079,colour,0.06
78,71,1,2,8,38,388,713.8045276631897,715.0386309092828,"[80, 0, 174]",174,l,0.7016129575549712,colour,0.06
78,71,1,2,8,39,389,715.5537838048526,716.42283971509,"[85, 0, 169]",169,l,0.3358361192263146,colour,0.06
78,71,1,2,8,40,390,716.9372063263331,717.6546203587654,"[64, 0, 190]",190,a,0.18429914349235332,colour,0.06
78,71,1,2,8,41,391,718.171101051491,718.9825917099138,"[58, 0, 196]",196,a,0.27886146286118674,colour,0.06
78,71,1,2,8,42,392,719.4873455060374,720.9026229688056,"[50, 0, 204]",204,a,0.8823021224543481,colour,0.06
78,71,1,2,8,43,393,721.4034171127682,722.4227328882107,"[61, 0, 193]",193,a,0.4857787118089618,colour,0.06
78,71,1,2,8,44,394,722.9376599395678,723.606646107572,"[89, 0, 165]",165,l,0.1363483108038963,colour,0.06
78,71,1,2,8,45,395,724.1209585033716,724.8946346921734,"[76, 0, 178]",178,a,0.24100978027354358,colour,0.06
78,71,1,2,8,46,396,725.4040904749886,726.6866273599358,"[60, 0, 194]",194,a,0.7496468778158487,colour,0.06
78,71,1,2,8,47,397,727.2042042311787,727.8306290306696,"[93, 0, 161]",161,l,0.09368877705037448,colour,0.06
78,71,1,2,8,48,398,728.3368614006258,729.1506069723628,"[94, 0, 160]",160,l,0.28033843268576675,colour,0.06
78,71,1,2,8,49,399,729.6545064742545,731.5347163297238,"[90, 0, 164]",164,l,1.3477660831395042,colour,0.06
78,71,1,2,8,50,400,732.0371776787642,732.6866296055459,"[66, 0, 188]",188,a,0.11636526836809935,colour,0.06
78,71,1,2,9,1,401,739.3031557558356,749.3505698877166,"[96, 0, 158]",158,a,9.513701269058402,colour,0.06
78,71,1,2,9,2,402,749.854092127116,750.8387530063105,"[9, 0, 245]",245,a,0.4519360848044016,colour,0.06
78,71,1,2,9,3,403,751.3535421130487,752.0145595733088,"[88, 0, 166]",166,l,0.1277492282320054,colour,0.06
78,71,1,2,9,4,404,752.5204749914428,753.1105497798821,"[57, 0, 197]",197,a,0.05707667122305793,colour,0.06
78,71,1,2,9,5,405,753.6212262121726,754.2947379260768,"[85, 0, 169]",169,l,0.1412790289214172,colour,0.06
78,71,1,2,9,6,406,754.8040301001574,755.5507182263018,"[84, 0, 170]",170,l,0.21392483558111053,colour,0.06
78,71,1,2,9,7,407,756.0542735082495,756.7346972099581,"[50, 0, 204]",204,a,0.14788657616009004,colour,0.06
78,71,1,2,9,8,408,757.2370337672387,758.3186899239158,"[54, 0, 200]",200,a,0.5485929167684844,colour,0.06
78,71,1,2,9,9,409,758.8208570980369,760.0705936398549,"[70, 0, 184]",184,a,0.7171573912810345,colour,0.06
78,71,1,2,9,10,410,760.5875208881839,761.3667171073466,"[90, 0, 164]",164,l,0.24661546461857142,colour,0.06
78,71,1,2,9,11,411,761.8717596247652,763.0947243240958,"[63, 0, 191]",191,a,0.6913190809809748,colour,0.06
78,71,1,2,9,12,412,763.6049943009625,764.3586720488597,"[94, 0, 160]",160,l,0.22194198434317514,colour,0.06
78,71,1,2,9,13,413,764.8704299028004,766.2785496438623,"[92, 0, 162]",162,l,0.8751203406395689,colour,0.06
78,71,1,2,9,14,414,766.7874116232138,767.7905477780814,"[56, 0, 198]",198,a,0.4704864280138281,colour,0.06
78,71,1,2,9,15,415,768.304099553669,771.1426703447623,"[78, 0, 176]",176,l,2.3059525027806558,colour,0.06
78,71,1,2,9,16,416,771.6536717489103,772.2865366372889,"[27, 0, 227]",227,a,0.09978657080273479,colour,0.06
78,71,1,2,9,17,417,772.8041189621563,774.1345213466093,"[52, 0, 202]",202,a,0.7978203467032472,colour,0.06
78,71,1,2,9,18,418,774.6366368716986,775.7506593271578,"[95, 0, 159]",159,l,0.5806169204151956,colour,0.06
78,71,1,2,9,19,419,776.2539666295929,777.2626536117591,"[62, 0, 192]",192,a,0.4759252956105229,colour,0.06
78,71,1,2,9,20,420,777.7706192718902,778.5666604538123,"[99, 0, 155]",155,l,0.26332697397947413,colour,0.06
78,71,1,2,9,21,421,779.0704281063126,780.2305718638536,"[61, 0, 193]",193,a,0.6272444471678682,colour,0.06
78,71,1,2,9,22,422,780.7371712306553,781.4625414595762,"[97, 0, 157]",157,l,0.19249048743540698,colour,0.06
78,71,1,2,9,23,423,781.9708702669359,782.8386814675896,"[51, 0, 203]",203,a,0.33537288194838766,colour,0.06
78,71,1,2,9,24,424,783.3538401375854,784.9105117969921,"[25, 0, 229]",229,a,1.0238875167501647,colour,0.06
78,71,1,2,9,25,425,785.4203586367607,786.9505705934798,"[68, 0, 186]",186,a,0.997273508570288,colour,0.06
78,71,1,2,9,26,426,787.4537652946096,788.4384951461138,"[80, 0, 174]",174,l,0.45187737814103457,colour,0.06
78,71,1,2,9,27,427,788.9536130743272,789.5344978639437,"[93, 0, 161]",161,l,0.04788538919456187,colour,0.06
78,71,1,2,9,28,428,790.0370791927226,791.3105383593511,"[76, 0, 178]",178,l,0.7405848787675495,colour,0.06
78,71,1,2,9,29,429,791.820406372015,792.5265785596212,"[98, 0, 156]",156,l,0.17329982455385107,colour,0.06
78,71,1,2,9,30,430,793.0371520146491,793.6544724693017,"[71, 0, 183]",183,a,0.08453214157725597,colour,0.06
78,71,1,2,9,31,431,794.1697985976489,794.9024818161724,"[65, 0, 189]",189,a,0.1992446409317381,colour,0.06
78,71,1,2,9,32,432,795.4211853420693,797.990488878937,"[77, 0, 177]",177,a,2.0372553127122046,colour,0.06
78,71,1,2,9,33,433,798.503818339128,799.6225408564696,"[83, 0, 171]",171,l,0.585996118944422,colour,0.06
78,71,1,2,9,34,434,800.1364009222402,801.1184892946958,"[58, 0, 196]",196,a,0.44861161949211237,colour,0.06
78,71,1,2,9,35,435,801.6199503848497,802.3584542246826,"[89, 0, 165]",165,l,0.20522630456343904,colour,0.06
78,71,1,2,9,36,436,802.8702152866381,804.054484274795,"[87, 0, 167]",167,l,0.6512946102470778,colour,0.06
78,71,1,2,9,37,437,804.570489539788,805.4385551359833,"[59, 0, 195]",195,a,0.33536454111117564,colour,0.06
78,71,1,2,9,38,438,805.9541363014741,806.9671184941071,"[53, 0, 201]",201,a,0.48057467086573524,colour,0.06
78,71,1,2,9,39,439,807.4697107301345,808.0866904936593,"[55, 0, 199]",199,a,0.08350621857562146,colour,0.06
78,71,1,2,9,40,440,808.603361421638,809.4705618163521,"[73, 0, 181]",181,a,0.33405406723250053,colour,0.06
78,71,1,2,9,41,441,809.9872013057902,811.0384608845202,"[69, 0, 185]",185,a,0.518635195189745,colour,0.06
78,71,1,2,9,42,442,811.5535005371821,812.1824757081131,"[81, 0, 173]",173,l,0.09599116897788917,colour,0.06
78,71,1,2,9,43,443,812.6870200208973,813.8464403711932,"[74, 0, 180]",180,a,0.6266249795889962,colour,0.06
78,71,1,2,9,44,444,814.3531744745997,814.9424517506618,"[86, 0, 168]",168,l,0.05598113430914964,colour,0.06
78,71,1,2,9,45,445,815.4533867489117,816.5504936652947,"[79, 0, 175]",175,a,0.5640247491896844,colour,0.06
78,71,1,2,9,46,446,817.0535481761958,817.7184191033411,"[91, 0, 163]",163,l,0.1319863736384832,colour,0.06
78,71,1,2,9,47,447,818.2205150595428,819.3104825399005,"[82, 0, 172]",172,l,0.5573671569259204,colour,0.06
78,71,1,2,9,48,448,819.8199931797617,820.55840013756,"[66, 0, 188]",188,a,0.20527634958762064,colour,0.06
78,71,1,2,9,49,449,821.0702786128418,821.9024391495814,"[75, 0, 179]",179,a,0.2993266698599655,colour,0.06
78,71,1,2,9,50,450,822.419975920644,823.4544367320218,"[60, 0, 194]",194,a,0.5013449600332933,colour,0.06
78,71,1,2,10,1,451,828.4857463108638,832.0544464202248,"[65, 0, 189]",189,l,3.0346889012002976,colour,0.06
78,71,1,2,10,2,452,832.5703965073708,833.5504275801982,"[99, 0, 155]",155,l,0.44738038356945253,colour,0.06
78,71,1,2,10,3,453,834.0533438256793,835.0144758441329,"[75, 0, 179]",179,l,0.4280671745377731,colour,0.06
78,71,1,2,10,4,454,835.521128463974,836.2065184927596,"[92, 0, 162]",162,l,0.15349482691635785,colour,0.06
78,71,1,2,10,5,455,836.7200009752364,837.6544416723636,"[79, 0, 175]",175,l,0.4014133869795842,colour,0.06
78,71,1,2,10,6,456,838.1703157295683,838.8544353846555,"[57, 0, 197]",197,a,0.15139582310121114,colour,0.06
78,71,1,2,10,7,457,839.3707098020559,840.2464217005495,"[81, 0, 173]",173,l,0.34340735398791367,colour,0.06
78,71,1,2,10,8,458,840.7535292168309,841.5664698977575,"[86, 0, 168]",168,l,0.28014980144007495,colour,0.06
78,71,1,2,10,9,459,842.069955565793,843.0384028194599,"[62, 0, 192]",192,a,0.43541673550544147,colour,0.06
78,71,1,2,10,10,460,843.5537972785132,844.366558952237,"[70, 0, 184]",184,a,0.28022518977786604,colour,0.06
78,71,1,2,10,11,461,844.8704103339128,845.8383956335078,"[68, 0, 186]",186,a,0.43541737710847883,colour,0.06
78,71,1,2,10,12,462,846.3531882690613,847.4464176584511,"[67, 0, 187]",187,a,0.560119954073798,colour,0.06
78,71,1,2,10,13,463,847.9527058478575,851.0064702442232,"[80, 0, 174]",174,l,2.5201769669060923,colour,0.06
78,71,1,2,10,14,464,851.5203935078775,852.0864142836203,"[60, 0, 194]",194,a,0.03347947977590593,colour,0.06
78,71,1,2,10,15,465,852.6038743831391,853.3823776711934,"[87, 0, 167]",167,l,0.24611308956491484,colour,0.06
78,71,1,2,10,16,466,853.886511037334,854.4623797756508,"[71, 0, 183]",183,a,0.042792666350578656,colour,0.06
78,71,1,2,10,17,467,854.9704987788696,855.9184105700228,"[53, 0, 201]",201,a,0.41542920184929244,colour,0.06
78,71,1,2,10,18,468,856.4195040217273,857.3424847290498,"[5, 0, 249]",249,a,0.3895456585460124,colour,0.06
78,71,1,2,10,19,469,857.8543545426928,858.5584251600721,"[88, 0, 166]",166,l,0.17219081397934133,colour,0.06
78,71,1,2,10,20,470,859.0700296709251,860.6224272927602,"[76, 0, 178]",178,l,1.0195319956128515,colour,0.06
78,71,1,2,10,21,471,861.1370341842808,862.1343657579114,"[94, 0, 160]",160,l,0.4647806536204371,colour,0.06
78,71,1,2,10,22,472,862.6369326506251,863.7345422628628,"[58, 0, 196]",196,a,0.5649996647621265,colour,0.06
78,71,1,2,10,23,473,864.2372410049684,865.4783582537239,"[72, 0, 182]",182,a,0.7087844737234263,colour,0.06
78,71,1,2,10,24,474,865.9865763845874,867.0144963754251,"[95, 0, 159]",159,l,0.49496133219827243,colour,0.06
78,71,1,2,10,25,475,867.5201974981983,868.5903439408471,"[73, 0, 181]",181,a,0.5374922245750895,colour,0.06
78,71,1,2,10,26,476,869.103218504597,870.0864649702476,"[78, 0, 176]",176,l,0.45028941101827513,colour,0.06
78,71,1,2,10,27,477,870.6035731505881,871.5823527770017,"[50, 0, 204]",204,a,0.4461853982093089,colour,0.06
78,71,1,2,10,28,478,872.0863831658808,873.2623780433232,"[2, 0, 252]",252,a,0.6428835173182961,colour,0.06
78,71,1,2,10,29,479,873.7702304605459,874.8384052575507,"[52, 0, 202]",202,a,0.5355994960850694,colour,0.06
78,71,1,2,10,30,480,875.3528960189506,876.0144511424223,"[31, 0, 223]",223,a,0.12830485632412092,colour,0.06
78,71,1,2,10,31,481,876.5199357242241,877.6784770785771,"[85, 0, 169]",169,l,0.6256497432145807,colour,0.06
78,71,1,2,10,32,482,878.1866172546906,879.0783435610183,"[90, 0, 164]",164,l,0.3588744745675285,colour,0.06
78,71,1,2,10,33,483,879.5861019834192,880.8545325874916,"[64, 0, 190]",190,a,0.7350792844717944,colour,0.06
78,71,1,2,10,34,484,881.3702247502802,882.0704024421975,"[89, 0, 165]",165,l,0.16761105263640275,colour,0.06
78,71,1,2,10,35,485,882.5858228861675,883.8784476931651,"[83, 0, 171]",171,l,0.7590033725855392,colour,0.06
78,71,1,2,10,36,486,884.3867110570313,885.3503373066733,"[82, 0, 172]",172,l,0.43090370086156327,colour,0.06
78,71,1,2,10,37,487,885.8532307752521,886.9424796603871,"[69, 0, 185]",185,a,0.5563899957433023,colour,0.06
78,71,1,2,10,38,488,887.452974839864,888.4223716657907,"[84, 0, 170]",170,l,0.4362748793546416,colour,0.06
78,71,1,2,10,39,489,888.9367976252997,889.582441959802,"[51, 0, 203]",203,a,0.11302380057986738,colour,0.06
78,71,1,2,10,40,490,890.086205121082,891.1983274696181,"[55, 0, 199]",199,a,0.5789160311860542,colour,0.06
78,71,1,2,10,41,491,891.7032002830756,892.8063796498968,"[56, 0, 198]",198,a,0.5703172694152272,colour,0.06
78,71,1,2,10,42,492,893.3197819320139,893.934479834903,"[61, 0, 193]",193,a,0.08176009634325965,colour,0.06
78,71,1,2,10,43,493,894.4367576855207,896.254408052373,"[97, 0, 157]",157,l,1.2850317577385795,colour,0.06
78,71,1,2,10,44,494,896.7694663115185,897.9024577560649,"[74, 0, 180]",180,a,0.5997030020280363,colour,0.06
78,71,1,2,10,45,495,898.4198270687766,899.1102880059079,"[54, 0, 200]",200,a,0.15760236854112009,colour,0.06
78,71,1,2,10,46,496,899.6195304557659,900.2862976402171,"[96, 0, 158]",158,l,0.13361572414669354,colour,0.06
78,71,1,2,10,47,497,900.803409990976,902.4303021981636,"[77, 0, 177]",177,a,1.094287713337053,colour,0.06
78,71,1,2,10,48,498,902.936848311927,903.5823948019902,"[59, 0, 195]",195,l,0.11305652232613284,colour,0.06
78,71,1,2,10,49,499,904.0866359574143,906.6303696947866,"[98, 0, 156]",156,l,2.0110493639631386,colour,0.06
78,71,1,2,10,50,500,907.1366309368718,910.7664219058624,"[63, 0, 191]",191,a,3.0971181444333524,colour,0.06
78,71,1,2,11,1,501,919.4697373566542,921.8303797679519,"[98, 0, 156]",156,l,1.8277655570254865,colour,0.06
78,71,1,2,11,2,502,922.3362342338123,923.1502630732202,"[64, 0, 190]",190,a,0.2810024916648217,colour,0.06
78,71,1,2,11,3,503,923.6532643310825,925.1824317583159,"[79, 0, 175]",175,l,0.9965452893034126,colour,0.06
78,71,1,2,11,4,504,925.6861660474665,926.6702138751116,"[95, 0, 159]",159,l,0.45101538467451974,colour,0.06
78,71,1,2,11,5,505,927.1866156506835,928.3023608098697,"[56, 0, 198]",198,a,0.5831018483613661,colour,0.06
78,71,1,2,11,6,506,928.8197981324865,929.6943410305362,"[63, 0, 191]",191,a,0.34181553724783953,colour,0.06
78,71,1,2,11,7,507,930.2036887032664,931.4383802991988,"[88, 0, 166]",166,l,0.7025323744792331,colour,0.06
78,71,1,2,11,8,508,931.9533298066563,932.9664098437283,"[66, 0, 188]",188,a,0.4805714628514579,colour,0.06
78,71,1,2,11,9,509,933.4704880320214,934.6062200832612,"[33, 0, 221]",221,a,0.603728739285998,colour,0.06
78,71,1,2,11,10,510,935.1188752188268,935.9342292889792,"[62, 0, 192]",192,a,0.2817278237184837,colour,0.06
78,71,1,2,11,11,511,936.4368959509407,937.5823636842506,"[24, 0, 230]",230,a,0.6131882113168103,colour,0.06
78,71,1,2,11,12,512,938.086259336525,939.1102350736705,"[87, 0, 167]",167,l,0.49110561970337585,colour,0.06
78,71,1,2,11,13,513,939.6193735838624,940.4383315373802,"[80, 0, 174]",174,l,0.2858770695302155,colour,0.06
78,71,1,2,11,14,514,940.9524828908575,941.6942204091952,"[60, 0, 194]",194,a,0.20843496055567812,colour,0.06
78,71,1,2,11,15,515,942.2030012257824,943.2462359565161,"[78, 0, 176]",176,l,0.5104412848354514,colour,0.06
78,71,1,2,11,16,516,943.7527317044537,945.6542068457106,"[74, 0, 180]",180,a,1.3684202421859482,colour,0.06
78,71,1,2,11,17,517,946.1691201026051,947.270209768853,"[91, 0, 163]",163,l,0.5677617651517721,colour,0.06
78,71,1,2,11,18,518,947.7873285356409,948.99831900046,"[61, 0, 193]",193,a,0.6792396235973683,colour,0.06
78,71,1,2,11,19,519,949.5027683560179,950.702234029141,"[55, 0, 199]",199,a,0.6664989944479203,colour,0.06
78,71,1,2,11,20,520,951.2190858891317,952.2542117218923,"[84, 0, 170]",170,l,0.5018200669642283,colour,0.06
78,71,1,2,11,21,521,952.7693152140405,953.8302257832611,"[50, 0, 204]",204,a,0.5278245524100385,colour,0.06
78,71,1,2,11,22,522,954.3366750149899,955.3742395802892,"[58, 0, 196]",196,a,0.5051823868461724,colour,0.06
78,71,1,2,11,23,523,955.8858110485944,957.8542143524642,"[72, 0, 182]",182,l,1.435180946447872,colour,0.06
78,71,1,2,11,24,524,958.3696405708602,960.7743928592167,"[73, 0, 181]",181,a,1.8720374388108212,colour,0.06
78,71,1,2,11,25,525,961.2862184022615,962.3502558231075,"[82, 0, 172]",172,l,0.5312295388830535,colour,0.06
78,71,1,2,11,26,526,962.8528852721024,963.9662151172547,"[59, 0, 195]",195,a,0.5805351160483951,colour,0.06
78,71,1,2,11,27,527,964.4695885047863,965.8462071485469,"[57, 0, 197]",197,a,0.8438726764752573,colour,0.06
78,71,1,2,11,28,528,966.3522390176036,967.1183362724096,"[51, 0, 203]",203,a,0.2326804917120171,colour,0.06
78,71,1,2,11,29,529,967.6360061760697,968.6942807198657,"[86, 0, 168]",168,l,0.5252844466158422,colour,0.06
78,71,1,2,11,30,530,969.2021610468137,970.2701889167597,"[71, 0, 183]",183,a,0.5345459841596494,colour,0.06
78,71,1,2,11,31,531,970.7862596252462,973.9583384795233,"[68, 0, 186]",186,a,2.6393736287741376,colour,0.06
78,71,1,2,11,32,532,974.4694749410769,975.526263532608,"[76, 0, 178]",178,l,0.5239800679651125,colour,0.06
78,71,1,2,11,33,533,976.0355168897149,976.9263090222521,"[75, 0, 179]",179,l,0.35736253738559753,colour,0.06
78,71,1,2,11,34,534,977.4356284644555,979.1101433244589,"[89, 0, 165]",165,l,1.1412071693985126,colour,0.06
78,71,1,2,11,35,535,979.6190117198394,980.3183168318424,"[54, 0, 200]",200,a,0.1660615816858808,colour,0.06
78,71,1,2,11,36,536,980.8365048298265,981.5821497096908,"[90, 0, 164]",164,l,0.21323639569300212,colour,0.06
78,71,1,2,11,37,537,982.087193831117,982.8541643074395,"[53, 0, 201]",201,a,0.23522669273279462,colour,0.06
78,71,1,2,11,38,538,983.3693329222801,984.4461613381013,"[83, 0, 171]",171,l,0.5439236518236612,colour,0.06
78,71,1,2,11,39,539,984.9531620275038,985.670195268628,"[99, 0, 155]",155,l,0.1846382306130181,colour,0.06
78,71,1,2,11,40,540,986.185597426916,987.7423204145525,"[65, 0, 189]",189,a,1.023440640345143,colour,0.06
78,71,1,2,11,41,541,988.2531819492733,989.1502791132921,"[42, 0, 212]",212,a,0.36474289529041926,colour,0.06
78,71,1,2,11,42,542,989.65243890898,990.638160678534,"[93, 0, 161]",161,l,0.45261393824512197,colour,0.06
78,71,1,2,11,43,543,991.1519152006308,991.942140573266,"[81, 0, 173]",173,l,0.2566180534859086,colour,0.06
78,71,1,2,11,44,544,992.4527018378394,993.1982283419734,"[52, 0, 202]",202,a,0.21270931892922817,colour,0.06
78,71,1,2,11,45,545,993.702426830806,994.9981489756974,"[92, 0, 162]",162,l,0.7626335616691904,colour,0.06
78,71,1,2,11,46,546,995.5023067227471,997.1981183070798,"[70, 0, 184]",184,a,1.1626100790040255,colour,0.06
78,71,1,2,11,47,547,997.7026103292292,998.6860941879445,"[67, 0, 187]",187,a,0.4506076460456825,colour,0.06
78,71,1,2,11,48,548,999.202665346676,1001.590191880965,"[96, 0, 158]",158,l,1.8546907426007238,colour,0.06
78,71,1,2,11,49,549,1002.1032781736649,1002.7422180788935,"[94, 0, 160]",160,l,0.1067312803538698,colour,0.06
78,71,1,2,11,50,550,1003.2525262311319,1004.406132055346,"[85, 0, 169]",169,l,0.6206705840800169,colour,0.06
78,71,1,2,12,1,551,1009.2856140123504,1010.7502381148684,"[58, 0, 196]",196,a,0.9314559605390968,colour,0.06
78,71,1,2,12,2,552,1011.2528614686357,1013.2061486087005,"[54, 0, 200]",200,a,1.420728520819921,colour,0.06
78,71,1,2,12,3,553,1013.7186664412502,1014.9182649261693,"[59, 0, 195]",195,a,0.666193591478077,colour,0.06
78,71,1,2,12,4,554,1015.4353901089862,1017.3101023901954,"[98, 0, 156]",156,l,1.3413808512977994,colour,0.06
78,71,1,2,12,5,555,1017.8194337020518,1018.9342135697084,"[92, 0, 162]",162,l,0.5820823413882863,colour,0.06
78,71,1,2,12,6,556,1019.4350317737785,1020.694206935535,"[83, 0, 171]",171,l,0.7255043239224506,colour,0.06
78,71,1,2,12,7,557,1021.2019589419074,1022.1981019462064,"[91, 0, 163]",163,l,0.4627307324249159,colour,0.06
78,71,1,2,12,8,558,1022.7023219287353,1023.7181496301323,"[28, 0, 226]",226,a,0.48277761434746935,colour,0.06
78,71,1,2,12,9,559,1024.236085478185,1025.2462455805594,"[64, 0, 190]",190,a,0.47755977894212265,colour,0.06
78,71,1,2,12,10,560,1025.7526643361512,1030.110091354626,"[76, 0, 178]",178,a,3.8247535523146325,colour,0.06
78,71,1,2,12,11,561,1030.6194749571173,1031.766176813563,"[77, 0, 177]",177,l,0.6141990566516142,colour,0.06
78,71,1,2,12,12,562,1032.2693994244182,1032.9661605810102,"[84, 0, 170]",170,l,0.16411560015694704,colour,0.06
78,71,1,2,12,13,563,1033.4692202247343,1034.4380774626406,"[9, 0, 245]",245,a,0.4360868897115324,colour,0.06
78,71,1,2,12,14,564,1034.9528389804545,1036.7502214331935,"[69, 0, 185]",185,l,1.2649300187699737,colour,0.06
78,71,1,2,12,15,565,1037.252685027844,1038.3260956251347,"[63, 0, 191]",191,a,0.540802253822676,colour,0.06
78,71,1,2,12,16,566,1038.8354756988101,1039.7420576781742,"[66, 0, 188]",188,a,0.3734311606626761,colour,0.06
78,71,1,2,12,17,567,1040.2522657403633,1041.214164153455,"[53, 0, 201]",201,a,0.4288839350019771,colour,0.06
78,71,1,2,12,18,568,1041.719019002032,1042.5582034862778,"[50, 0, 204]",204,a,0.3062675297937858,colour,0.06
78,71,1,2,12,19,569,1043.0689960486889,1044.014044045396,"[23, 0, 231]",231,a,0.4121223806159833,colour,0.06
78,71,1,2,12,20,570,1044.5199360450251,1045.7261212250896,"[89, 0, 165]",165,l,0.6742072114238908,colour,0.06
78,71,1,2,12,21,571,1046.2353781110123,1046.9902155561113,"[67, 0, 187]",187,a,0.22165101743803461,colour,0.06
78,71,1,2,12,22,572,1047.5023670334176,1048.4941179452157,"[60, 0, 194]",194,a,0.45889843843497147,colour,0.06
78,71,1,2,12,23,573,1049.002217058745,1049.9501365491328,"[85, 0, 169]",169,l,0.41492586439153456,colour,0.06
78,71,1,2,12,24,574,1050.452360184307,1051.0701939212622,"[57, 0, 197]",197,a,0.08498094279048019,colour,0.06
78,71,1,2,12,25,575,1051.585255709223,1052.5500596209476,"[81, 0, 173]",173,l,0.4315215644332966,colour,0.06
78,71,1,2,12,26,576,1053.0515483000254,1054.318022336121,"[95, 0, 159]",159,l,0.7327964614314624,colour,0.06
78,71,1,2,12,27,577,1054.8359190463989,1055.5180401085208,"[56, 0, 198]",198,a,0.14952940032890183,colour,0.06
78,71,1,2,12,28,578,1056.0358412199694,1057.3341547988848,"[75, 0, 179]",179,l,0.7656327343220255,colour,0.06
78,71,1,2,12,29,579,1057.836256850314,1058.5340256442255,"[55, 0, 199]",199,a,0.16549985836581982,colour,0.06
78,71,1,2,12,30,580,1059.0359567084874,1060.9019999724114,"[68, 0, 186]",186,a,1.3335042135668118,colour,0.06
78,71,1,2,12,31,581,1061.4187982585618,1062.7260657264405,"[61, 0, 193]",193,a,0.774212248006279,colour,0.06
78,71,1,2,12,32,582,1063.235885618889,1064.166153651699,"[82, 0, 172]",172,l,0.39767284220124566,colour,0.06
78,71,1,2,12,33,583,1064.6683763244691,1065.750023819507,"[96, 0, 158]",158,l,0.5481745916918044,colour,0.06
78,71,1,2,12,34,584,1066.2520216104685,1066.9100453516999,"[93, 0, 161]",161,l,0.1249200803417807,colour,0.06
78,71,1,2,12,35,585,1067.4187251158337,1068.4221557664223,"[74, 0, 180]",180,a,0.47037895953189945,colour,0.06
78,71,1,2,12,36,586,1068.9357518126085,1069.701998560885,"[94, 0, 160]",160,l,0.23355627964019732,colour,0.06
78,71,1,2,12,37,587,1070.2182838855342,1071.0139872635414,"[79, 0, 175]",175,l,0.2621701639905041,colour,0.06
78,71,1,2,12,38,588,1071.5189178212581,1072.2620277281517,"[51, 0, 203]",203,a,0.21026898238233116,colour,0.06
78,71,1,2,12,39,589,1072.7692122367785,1073.4300038528254,"[99, 0, 155]",155,l,0.12824807446941122,colour,0.06
78,71,1,2,12,40,590,1073.9358772459714,1074.6380028442259,"[88, 0, 166]",166,l,0.1695833398830473,colour,0.06
78,71,1,2,12,41,591,1075.152623209407,1076.2380048331947,"[80, 0, 174]",174,l,0.5529423426783069,colour,0.06
78,71,1,2,12,42,592,1076.752096196803,1077.4699333663334,"[71, 0, 183]",183,a,0.18487786928835703,colour,0.06
78,71,1,2,12,43,593,1077.9853101813073,1078.854139605729,"[52, 0, 202]",202,a,0.3357103650623685,colour,0.06
78,71,1,2,12,44,594,1079.368795900671,1080.1259979731767,"[97, 0, 157]",157,l,0.22427773961999264,colour,0.06
78,71,1,2,12,45,595,1080.6354681920561,1081.3020194771389,"[87, 0, 167]",167,l,0.13363593463736834,colour,0.06
78,71,1,2,12,46,596,1081.8190718380288,1083.0779621281072,"[62, 0, 192]",192,a,0.7262508288708887,colour,0.06
78,71,1,2,12,47,597,1083.5853083206594,1085.0541673229732,"[72, 0, 182]",182,a,0.9357996120229473,colour,0.06
78,71,1,2,12,48,598,1085.568947447271,1086.8140692603893,"[65, 0, 189]",189,a,0.7123758458328666,colour,0.06
78,71,1,2,12,49,599,1087.3198005384975,1088.1581243124824,"[78, 0, 176]",176,l,0.3064446121875335,colour,0.06
78,71,1,2,12,50,600,1088.6686230207756,1090.6219640554823,"[73, 0, 181]",181,l,1.4202989676932702,colour,0.06
78,71,1,2,13,1,601,1097.067736903041,1098.2139877126633,"[57, 0, 197]",197,a,0.6123669596331638,colour,0.06
78,71,1,2,13,2,602,1098.7187261103181,1099.3019723193274,"[95, 0, 159]",159,l,0.050370317141187115,colour,0.06
78,71,1,2,13,3,603,1099.819043286701,1100.5899342774096,"[84, 0, 170]",170,l,0.2382858552550715,colour,0.06
78,71,1,2,13,4,604,1101.1021601806501,1102.0620564719607,"[76, 0, 178]",178,l,0.4270932213694323,colour,0.06
78,71,1,2,13,5,605,1102.5686372322793,1103.51818703558,"[67, 0, 187]",187,a,0.4165937110728919,colour,0.06
78,71,1,2,13,6,606,1104.0353619426196,1104.9179287262614,"[72, 0, 182]",182,a,0.34965560361524695,colour,0.06
78,71,1,2,13,7,607,1105.435108766124,1107.4541566723656,"[60, 0, 194]",194,a,1.4859038243703253,colour,0.06
78,71,1,2,13,8,608,1107.968466822555,1108.6300585173908,"[88, 0, 166]",166,l,0.12846365303676066,colour,0.06
78,71,1,2,13,9,609,1109.1355966730325,1110.5421245973544,"[85, 0, 169]",169,l,0.8738903879229838,colour,0.06
78,71,1,2,13,10,610,1111.0516820742255,1111.829929683533,"[79, 0, 175]",175,l,0.2450194774596639,colour,0.06
78,71,1,2,13,11,611,1112.3349677097312,1113.2939866091065,"[48, 0, 206]",206,a,0.42577953947647984,colour,0.06
78,71,1,2,13,12,612,1113.8016712471767,1115.4620955455762,"[74, 0, 180]",180,a,1.127205469792898,colour,0.06
78,71,1,2,13,13,613,1115.9687786415539,1116.8859194794804,"[89, 0, 165]",165,l,0.3843775473637834,colour,0.06
78,71,1,2,13,14,614,1117.402317405435,1118.6140980041982,"[94, 0, 160]",160,l,0.6791921449844267,colour,0.06
78,71,1,2,13,15,615,1119.1190853437693,1120.454107589745,"[58, 0, 196]",196,a,0.8025957969234696,colour,0.06
78,71,1,2,13,16,616,1120.968767092702,1121.7099707974453,"[68, 0, 186]",186,a,0.2084381685704102,colour,0.06
78,71,1,2,13,17,617,1122.2191474830083,1123.5340590075753,"[96, 0, 158]",158,l,0.7825816367480911,colour,0.06
78,71,1,2,13,18,618,1124.0515200694986,1129.2698565664687,"[77, 0, 177]",177,a,4.6850547912818,colour,0.06
78,71,1,2,13,19,619,1129.785673200216,1130.8220607450357,"[56, 0, 198]",198,a,0.5039386396670125,colour,0.06
78,71,1,2,13,20,620,1131.335550605946,1132.16587744166,"[55, 0, 199]",199,a,0.29777687810792486,colour,0.06
78,71,1,2,13,21,621,1132.6686621585513,1133.6058979986165,"[50, 0, 204]",204,a,0.40445939664323305,colour,0.06
78,71,1,2,13,22,622,1134.1193153584013,1135.4059078151404,"[93, 0, 161]",161,l,0.754486488324801,colour,0.06
78,71,1,2,13,23,623,1135.9188892057696,1138.0780041530957,"[78, 0, 176]",176,l,1.626549912052269,colour,0.06
78,71,1,2,13,24,624,1138.585033393826,1139.2140541185613,"[92, 0, 162]",162,l,0.09598571535343581,colour,0.06
78,71,1,2,13,25,625,1139.7187270727222,1140.9338914850637,"[70, 0, 184]",184,a,0.6824899837770317,colour,0.06
78,71,1,2,13,26,626,1141.4349435533832,1142.0778761533215,"[51, 0, 203]",203,a,0.10982733504170028,colour,0.06
78,71,1,2,13,27,627,1142.5852611628475,1144.8058166433711,"[52, 0, 202]",202,a,1.6877710170656428,colour,0.06
78,71,1,2,13,28,628,1145.3184259043314,1146.4858791226598,"[90, 0, 164]",164,l,0.6344785196170051,colour,0.06
78,71,1,2,13,29,629,1147.0014509849088,1148.2218149469732,"[75, 0, 179]",179,l,0.687132622201716,colour,0.06
78,71,1,2,13,30,630,1148.7351556352141,1149.4539914596244,"[63, 0, 191]",191,a,0.18597340620226532,colour,0.06
78,71,1,2,13,31,631,1149.9686528873895,1151.221854726352,"[83, 0, 171]",171,l,0.7205059167013133,colour,0.06
78,71,1,2,13,32,632,1151.7356028324202,1152.7579604471075,"[86, 0, 168]",168,l,0.4899763986381913,colour,0.06
78,71,1,2,13,33,633,1153.267968329199,1154.6699309282426,"[64, 0, 190]",190,a,0.8685779160932725,colour,0.06
78,71,1,2,13,34,634,1155.1852801542927,1158.053988957373,"[71, 0, 183]",183,a,2.3360067855919624,colour,0.06
78,71,1,2,13,35,635,1158.5686622547914,1159.6458621586794,"[81, 0, 173]",173,l,0.544575199546216,colour,0.06
78,71,1,2,13,36,636,1160.1519860977492,1161.1258581037491,"[59, 0, 195]",195,a,0.44124184803422395,colour,0.06
78,71,1,2,13,37,637,1161.635099591203,1162.7259287442262,"[53, 0, 201]",201,a,0.5579850204976537,colour,0.06
78,71,1,2,13,38,638,1163.235097409753,1164.7420031419297,"[62, 0, 192]",192,a,0.9740664116725384,colour,0.06
78,71,1,2,13,39,639,1165.2522057504943,1166.405993148323,"[61, 0, 193]",193,a,0.6214010489566135,colour,0.06
78,71,1,2,13,40,640,1166.918647642286,1168.1578865986162,"[91, 0, 163]",163,l,0.7066363872881993,colour,0.06
78,71,1,2,13,41,641,1168.6684699984894,1169.621834451701,"[87, 0, 167]",167,l,0.42059121780403075,colour,0.06
78,71,1,2,13,42,642,1170.1351696863176,1171.4218760275671,"[97, 0, 157]",157,l,0.7539170657701106,colour,0.06
78,71,1,2,13,43,643,1171.935076846381,1172.7578382217594,"[36, 0, 218]",218,a,0.2899502854011189,colour,0.06
78,71,1,2,13,44,644,1173.2688466835389,1174.3179071684044,"[66, 0, 188]",188,a,0.5166673991629978,colour,0.06
78,71,1,2,13,45,645,1174.8353531526604,1176.0858163097378,"[38, 0, 216]",216,a,0.7179443172108222,colour,0.06
78,71,1,2,13,46,646,1176.6019245519929,1177.6218495293683,"[80, 0, 174]",174,l,0.4872948194097262,colour,0.06
78,71,1,2,13,47,647,1178.134493436884,1179.1899231135194,"[73, 0, 181]",181,a,0.5220385776565308,colour,0.06
78,71,1,2,13,48,648,1179.7017480149611,1180.8538165586797,"[82, 0, 172]",172,l,0.61927606022482,colour,0.06
78,71,1,2,13,49,649,1181.3681482025659,1182.6219598850635,"[69, 0, 185]",185,a,0.7207737859030203,colour,0.06
78,71,1,2,13,50,650,1183.1348623585386,1184.0619121113132,"[98, 0, 156]",156,l,0.39408692371625875,colour,0.06
78,71,1,2,14,1,651,1190.9006532479702,1192.0218882821823,"[82, 0, 172]",172,l,0.5874301013764125,colour,0.06
78,71,1,2,14,2,652,1192.5351362588076,1193.3578995589946,"[94, 0, 160]",160,l,0.2900901548287038,colour,0.06
78,71,1,2,14,3,653,1193.8685423071338,1195.4377759092877,"[75, 0, 179]",179,l,1.0366663212703315,colour,0.06
78,71,1,2,14,4,654,1195.9518185110774,1196.8138819123487,"[78, 0, 176]",176,l,0.3294181656378896,colour,0.06
78,71,1,2,14,5,655,1197.319072960834,1200.013869208612,"[88, 0, 166]",166,l,2.162775291744765,colour,0.06
78,71,1,2,14,6,656,1200.5182515166694,1202.253853386685,"[53, 0, 201]",201,a,1.2027805143925434,colour,0.06
78,71,1,2,14,7,657,1202.7678061640713,1204.16591754184,"[91, 0, 163]",163,l,0.8648643186352274,colour,0.06
78,71,1,2,14,8,658,1204.6679432425262,1205.9737664623271,"[71, 0, 183]",183,l,0.7727115388747734,colour,0.06
78,71,1,2,14,9,659,1206.4851906827716,1207.341762284209,"[86, 0, 168]",168,l,0.3240296638673499,colour,0.06
78,71,1,2,14,10,660,1207.851771128705,1208.717887856158,"[65, 0, 189]",189,a,0.3335192912340972,colour,0.06
78,71,1,2,14,11,661,1209.2345263831917,1210.0457642500805,"[89, 0, 165]",165,l,0.27807870735023243,colour,0.06
78,71,1,2,14,12,662,1210.5509809626806,1211.4778144952847,"[70, 0, 184]",184,a,0.39346360652007206,colour,0.06
78,71,1,2,14,13,663,1211.9842107947761,1213.3817681484593,"[60, 0, 194]",194,a,0.8640443501572008,colour,0.06
78,71,1,2,14,14,664,1213.885991980606,1215.045756550846,"[57, 0, 197]",197,a,0.6280926461722629,colour,0.06
78,71,1,2,14,15,665,1215.5514361799223,1216.4697245245966,"[61, 0, 193]",193,a,0.38541437761477937,colour,0.06
78,71,1,2,14,16,666,1216.9858391828802,1218.061891580021,"[55, 0, 199]",199,a,0.5442502276887353,colour,0.06
78,71,1,2,14,17,667,1218.567451550161,1219.597762153322,"[77, 0, 177]",177,l,0.49679503322386154,colour,0.06
78,71,1,2,14,18,668,1220.1013661970883,1220.733779397041,"[56, 0, 198]",198,a,0.09947218539218738,colour,0.06
78,71,1,2,14,19,669,1221.251461491156,1221.9737690287384,"[99, 0, 155]",155,l,0.18947719951893305,colour,0.06
78,71,1,2,14,20,670,1222.4849975603051,1223.4697312614267,"[79, 0, 175]",175,l,0.452101297545596,colour,0.06
78,71,1,2,14,21,671,1223.985066372214,1224.7097154394996,"[62, 0, 192]",192,a,0.1920824280045963,colour,0.06
78,71,1,2,14,22,672,1225.218346441815,1225.997741237068,"[90, 0, 164]",164,l,0.24680505826836452,colour,0.06
78,71,1,2,14,23,673,1226.502208557507,1227.4777163300446,"[85, 0, 169]",169,l,0.4434560195663835,colour,0.06
78,71,1,2,14,24,674,1227.9841629953617,1229.0698387940693,"[96, 0, 158]",158,l,0.5522522987830598,colour,0.06
78,71,1,2,14,25,675,1229.5850205617685,1230.2138606752937,"[74, 0, 180]",180,a,0.0962802110748271,colour,0.06
78,71,1,2,14,26,676,1230.7182689682677,1231.2858950344112,"[72, 0, 182]",182,a,0.0349927001634569,colour,0.06
78,71,1,2,14,27,677,1231.8015573626658,1232.5018935304938,"[64, 0, 190]",190,a,0.1676351127439375,colour,0.06
78,71,1,2,14,28,678,1233.01824943146,1235.7097568228855,"[51, 0, 203]",203,a,2.1588656846079175,colour,0.06
78,71,1,2,14,29,679,1236.2179999762611,1236.98969361217,"[59, 0, 195]",195,a,0.23881132801216154,colour,0.06
78,71,1,2,14,30,680,1237.5008149960559,1238.3418132916381,"[92, 0, 162]",162,l,0.30760591339731036,colour,0.06
78,71,1,2,14,31,681,1238.8517284621134,1239.6138387966357,"[83, 0, 171]",171,l,0.2296418604819337,colour,0.06
78,71,1,2,14,32,682,1240.1182063478268,1240.6698603519258,"[95, 0, 159]",159,l,0.019000748429789382,colour,0.06
78,71,1,2,14,33,683,1241.1842555144967,1241.7816352725035,"[52, 0, 202]",202,a,0.06416413741499127,colour,0.06
78,71,1,2,14,34,684,1242.283802767426,1243.461840508432,"[87, 0, 167]",167,l,0.6443393142485547,colour,0.06
78,71,1,2,14,35,685,1243.967440899553,1258.4456310533228,"[17, 0, 237]",237,l,13.94479263876201,colour,0.06
78,71,1,2,14,36,686,1258.9513802963115,1259.8696728114046,"[93, 0, 161]",161,l,0.38557606154017776,colour,0.06
78,71,1,2,14,37,687,1260.3847987596537,1262.6056782496307,"[97, 0, 157]",157,l,1.6881992869866735,colour,0.06
78,71,1,2,14,38,688,1263.117399853009,1263.909667768406,"[81, 0, 173]",173,l,0.2589108213705913,colour,0.06
78,71,1,2,14,39,689,1264.4178380998546,1265.2856794558438,"[23, 0, 231]",231,a,0.33494717843905164,colour,0.06
78,71,1,2,14,40,690,1265.801422946863,1267.0376720337817,"[69, 0, 185]",185,l,0.7036195705559294,colour,0.06
78,71,1,2,14,41,691,1267.550576432066,1268.4856423711976,"[80, 0, 174]",174,l,0.4016129254750922,colour,0.06
78,71,1,2,14,42,692,1269.0015164284023,1269.653673673719,"[58, 0, 196]",196,a,0.11965155830921503,colour,0.06
78,71,1,2,14,43,693,1270.1677358443962,1271.2537353317553,"[76, 0, 178]",178,l,0.5530488487556795,colour,0.06
78,71,1,2,14,44,694,1271.7676804099074,1272.3736300575551,"[66, 0, 188]",188,a,0.07294254799126065,colour,0.06
78,71,1,2,14,45,695,1272.8848072608916,1273.9817592301793,"[67, 0, 187]",187,a,0.5643757059633572,colour,0.06
78,71,1,2,14,46,696,1274.4844939020459,1275.5018450894763,"[15, 0, 239]",239,a,0.484502884486119,colour,0.06
78,71,1,2,14,47,697,1276.0181134116497,1276.573635318699,"[84, 0, 170]",170,l,0.022956550973958656,colour,0.06
78,71,1,2,14,48,698,1277.0843216958338,1277.8137433261272,"[54, 0, 200]",200,a,0.19640939781402267,colour,0.06
78,71,1,2,14,49,699,1278.3181089525096,1279.4696298881722,"[98, 0, 156]",156,l,0.6189866973268181,colour,0.06
78,71,1,2,14,50,700,1279.9847898413736,1281.141739058185,"[63, 0, 191]",191,a,0.6244223569092355,colour,0.06
78,71,1,2,15,1,701,1286.9672477770869,1289.5016218116748,"[94, 0, 160]",160,l,2.00101950697308,colour,0.06
78,71,1,2,15,2,702,1290.017888529841,1291.3817383139258,"[96, 0, 158]",158,l,0.8311468041924854,colour,0.06
78,71,1,2,15,3,703,1291.8844951210917,1293.0296305041106,"[99, 0, 155]",155,l,0.6123817164993852,colour,0.06
78,71,1,2,15,4,704,1293.5338463162211,1294.6455923646695,"[95, 0, 159]",159,l,0.5783164532963383,colour,0.06
78,71,1,2,15,5,705,1295.1521246839707,1296.2697362659292,"[82, 0, 172]",172,l,0.5858392470404397,colour,0.06
78,71,1,2,15,6,706,1296.7840553985593,1297.7417278942949,"[81, 0, 173]",173,l,0.42446104556256614,colour,0.06
78,71,1,2,15,7,707,1298.2511929803513,1299.069655295646,"[80, 0, 174]",174,l,0.2857372001026306,colour,0.06
78,71,1,2,15,8,708,1299.583954217785,1300.6775772305405,"[76, 0, 178]",178,l,0.5603615175573395,colour,0.06
78,71,1,2,15,9,709,1301.1840258206666,1301.917732074979,"[90, 0, 164]",164,l,0.2005307339004503,colour,0.06
78,71,1,2,15,10,710,1302.435127051806,1303.7256656870463,"[11, 0, 243]",243,a,0.7584515941107384,colour,0.06
78,71,1,2,15,11,711,1304.2342960477586,1305.3495827816887,"[68, 0, 186]",186,a,0.5824085964518417,colour,0.06
78,71,1,2,15,12,712,1305.8515680613941,1307.5255718847056,"[74, 0, 180]",180,a,1.1417425870008628,colour,0.06
78,71,1,2,15,13,713,1308.034547427766,1309.2457374310802,"[69, 0, 185]",185,a,0.6785810182432215,colour,0.06
78,71,1,2,15,14,714,1309.7515559671797,1310.6855886048766,"[61, 0, 193]",193,a,0.4017704389816572,colour,0.06
78,71,1,2,15,15,715,1311.2005766085067,1312.4297058282887,"[86, 0, 168]",168,l,0.6958808774434146,colour,0.06
78,71,1,2,15,16,716,1312.9336229742594,1313.909547147065,"[53, 0, 201]",201,a,0.4424118108827315,colour,0.06
78,71,1,2,15,17,717,1314.417909317774,1315.381715216222,"[54, 0, 200]",200,a,0.4312591488560429,colour,0.06
78,71,1,2,15,18,718,1315.8846353113204,1316.9975760243274,"[92, 0, 162]",162,l,0.580401341848301,colour,0.06
78,71,1,2,15,19,719,1317.5006934123107,1318.2855594761058,"[89, 0, 165]",165,l,0.2517864630135591,colour,0.06
78,71,1,2,15,20,720,1318.8005753894613,1320.133805638599,"[83, 0, 171]",171,l,0.8000268190003226,colour,0.06
78,71,1,2,15,21,721,1320.6519657268577,1321.5496137069476,"[85, 0, 169]",169,l,0.3658599259015318,colour,0.06
78,71,1,2,15,22,722,1322.0510494537875,1323.3096962555737,"[57, 0, 197]",197,a,0.725944784298008,colour,0.06
78,71,1,2,15,23,723,1323.8178021059334,1326.2616264055514,"[73, 0, 181]",181,a,1.9112169185546009,colour,0.06
78,71,1,2,15,24,724,1326.7668270780796,1327.9576773077574,"[72, 0, 182]",182,a,0.6572743490696666,colour,0.06
78,71,1,2,15,25,725,1328.4677682774218,1329.605693327298,"[56, 0, 198]",198,a,0.6053138191955441,colour,0.06
78,71,1,2,15,26,726,1330.118040814284,1330.765693686596,"[63, 0, 191]",191,a,0.11531239804571669,colour,0.06
78,71,1,2,15,27,727,1331.2675795178548,1331.9175620502165,"[78, 0, 176]",176,l,0.1171903696690606,colour,0.06
78,71,1,2,15,28,728,1332.4337132798646,1333.0455451426974,"[91, 0, 163]",163,l,0.07849754570861478,colour,0.06
78,71,1,2,15,29,729,1333.550750306446,1334.7416723956458,"[62, 0, 192]",192,a,0.6579778666255152,colour,0.06
78,71,1,2,15,30,730,1335.2501320899928,1336.2535598533682,"[97, 0, 157]",157,l,0.46984450433456004,colour,0.06
78,71,1,2,15,31,731,1336.7677416829824,1338.037645086461,"[93, 0, 161]",161,l,0.7372992304294712,colour,0.06
78,71,1,2,15,32,732,1338.5514220646592,1339.7657052354475,"[58, 0, 196]",196,a,0.6820363705423915,colour,0.06
78,71,1,2,15,33,733,1340.267087087646,1341.437550065075,"[79, 0, 175]",175,l,0.6372107854726892,colour,0.06
78,71,1,2,15,34,734,1341.9503700925802,1343.1175265695774,"[0, 0, 254]",254,a,0.6338898489761959,colour,0.06
78,71,1,2,15,35,735,1343.6343315925578,1345.0936826818233,"[55, 0, 199]",199,a,0.9267113072564825,colour,0.06
78,71,1,2,15,36,736,1345.6019168527582,1346.6616657999684,"[50, 0, 204]",204,a,0.5280385269697945,colour,0.06
78,71,1,2,15,37,737,1347.1682651667707,1348.0135047781773,"[60, 0, 194]",194,a,0.3132260338065862,colour,0.06
78,71,1,2,15,38,738,1348.517770635312,1349.9174927571057,"[98, 0, 156]",156,l,0.8672145099772024,colour,0.06
78,71,1,2,15,39,739,1350.433759796073,1351.7656853457584,"[71, 0, 183]",183,a,0.7987503500744424,colour,0.06
78,71,1,2,15,40,740,1352.2670357594156,1353.3016444602567,"[88, 0, 166]",166,l,0.5013885890289203,colour,0.06
78,71,1,2,15,41,741,1353.8178037099406,1355.5336997099635,"[67, 0, 187]",187,a,1.1834137315204316,colour,0.06
78,71,1,2,15,42,742,1356.0514154882294,1357.3654990242826,"[84, 0, 170]",170,l,0.7819349010469523,colour,0.06
78,71,1,2,15,43,743,1357.868147400562,1359.365625099248,"[77, 0, 177]",177,l,0.9653983567909563,colour,0.06
78,71,1,2,15,44,744,1359.8669796833242,1360.9895636875872,"[65, 0, 189]",189,a,0.5893449651657647,colour,0.06
78,71,1,2,15,45,745,1361.5009914368475,1362.2054954569708,"[64, 0, 190]",190,a,0.1719174911531809,colour,0.06
78,71,1,2,15,46,746,1362.7181714446301,1363.9254996402215,"[17, 0, 237]",237,a,0.6752783674287457,colour,0.06
78,71,1,2,15,47,747,1364.4335663528054,1365.013638231576,"[51, 0, 203]",203,a,0.04677477461291346,colour,0.06
78,71,1,2,15,48,748,1365.5176227458487,1366.4934943072185,"[75, 0, 179]",179,l,0.44330299728017053,colour,0.06
78,71,1,2,15,49,749,1367.0007275776638,1368.0455627867768,"[87, 0, 167]",167,l,0.5120517080595164,colour,0.06
78,71,1,2,15,50,750,1368.5506502163967,1369.7735311865517,"[59, 0, 195]",195,a,0.6900284967919106,colour,0.06
78,71,1,2,16,1,751,1374.9837360086462,1376.2375589191947,"[98, 0, 156]",156,l,0.7207574250296602,colour,0.06
78,71,1,2,16,2,752,1376.7506291718223,1378.5095725545389,"[88, 0, 166]",166,l,1.2261117614471004,colour,0.06
78,71,1,2,16,3,753,1379.017507738533,1380.2134869416172,"[55, 0, 199]",199,a,0.6633435914941401,colour,0.06
78,71,1,2,16,4,754,1380.7178423023538,1381.7095053145572,"[80, 0, 174]",174,l,0.4593972846723773,colour,0.06
78,71,1,2,16,5,755,1382.2178703724794,1383.013435805868,"[77, 0, 177]",177,l,0.26333210680286356,colour,0.06
78,71,1,2,16,6,756,1383.5182194365252,1384.72543920123,"[61, 0, 193]",193,a,0.675347660539046,colour,0.06
78,71,1,2,16,7,757,1385.2338642490217,1386.2454676370699,"[93, 0, 161]",161,l,0.47873487461311015,colour,0.06
78,71,1,2,16,8,758,1386.7506606103634,1388.3494929572857,"[73, 0, 181]",181,a,1.0660992116945636,colour,0.06
78,71,1,2,16,9,759,1388.8673004847633,1389.9894988856963,"[87, 0, 167]",167,l,0.5894524336476934,colour,0.06
78,71,1,2,16,10,760,1390.5001050624714,1391.6374417625088,"[82, 0, 172]",172,l,0.6040466535114319,colour,0.06
78,71,1,2,16,11,761,1392.150880295189,1392.949493663049,"[85, 0, 169]",169,l,0.26612083371173867,colour,0.06
78,71,1,2,16,12,762,1393.4674895009712,1394.5574419036616,"[97, 0, 157]",157,l,0.5574072571057513,colour,0.06
78,71,1,2,16,13,763,1395.0665852258749,1395.7494296952423,"[94, 0, 160]",160,l,0.14940525017254913,colour,0.06
78,71,1,2,16,14,764,1396.2668564314113,1397.485551263589,"[2, 0, 252]",252,a,0.6855289358086338,colour,0.06
78,71,1,2,16,15,765,1398.0003406911283,1398.781423864355,"[59, 0, 195]",195,a,0.24808184799576338,colour,0.06
78,71,1,2,16,16,766,1399.2838704565297,1400.4374352181594,"[74, 0, 180]",180,a,0.6207629748942054,colour,0.06
78,71,1,2,16,17,767,1400.950295987448,1401.5734287225719,"[54, 0, 200]",200,a,0.09009836734503551,colour,0.06
78,71,1,2,16,18,768,1402.0834811960635,1405.4053980616536,"[76, 0, 178]",178,a,2.7887394203694384,colour,0.06
78,71,1,2,16,19,769,1405.9177461902427,1406.8453875008704,"[18, 0, 236]",236,a,0.3954214577024686,colour,0.06
78,71,1,2,16,20,770,1407.3496607364386,1408.4456044268036,"[64, 0, 190]",190,a,0.562305253476552,colour,0.06
78,71,1,2,16,21,771,1408.9502584536795,1409.5894373559804,"[15, 0, 239]",239,a,0.10614902574207008,colour,0.06
78,71,1,2,16,22,772,1410.1001933470275,1410.6693881322076,"[52, 0, 202]",202,a,0.03611197638383601,colour,0.06
78,71,1,2,16,23,773,1411.1838695903657,1413.2693519458053,"[67, 0, 187]",187,a,1.5527511450204656,colour,0.06
78,71,1,2,16,24,774,1413.7836746072512,1414.5255170276596,"[57, 0, 197]",197,a,0.20890621786975316,colour,0.06
78,71,1,2,16,25,775,1415.0332943773456,1419.013404367327,"[71, 0, 183]",183,a,3.446813206625393,colour,0.06
78,71,1,2,16,26,776,1419.5171222956042,1420.44537409137,"[86, 0, 168]",168,l,0.39547791875565963,colour,0.06
78,71,1,2,16,27,777,1420.9510947830308,1421.6534744560254,"[56, 0, 198]",198,a,0.17024996527334224,colour,0.06
78,71,1,2,16,28,778,1422.1670413092806,1423.5254053887588,"[75, 0, 179]",179,l,0.8255391950388002,colour,0.06
78,71,1,2,16,29,779,1424.033680622278,1424.981544934818,"[72, 0, 182]",182,a,0.4150105559710937,colour,0.06
78,71,1,2,16,30,780,1425.4834487309577,1426.109361210551,"[84, 0, 170]",170,l,0.09283095400269303,colour,0.06
78,71,1,2,16,31,781,1426.617289016112,1427.1573954516134,"[95, 0, 159]",159,l,0.007538833816397528,colour,0.06
78,71,1,2,16,32,782,1427.6671672238454,1428.6133880706138,"[78, 0, 176]",176,a,0.4135457766010404,colour,0.06
78,71,1,2,16,33,783,1429.1181707388669,1429.8614644649851,"[62, 0, 192]",192,a,0.21161763163217984,colour,0.06
78,71,1,2,16,34,784,1430.3672592617781,1431.5414477063182,"[90, 0, 164]",164,l,0.6416141060244627,colour,0.06
78,71,1,2,16,35,785,1432.0506904769773,1432.8853830994744,"[60, 0, 194]",194,a,0.3022254316620092,colour,0.06
78,71,1,2,16,36,786,1433.3998635952285,1434.4614844188345,"[69, 0, 185]",185,a,0.5283278898673416,colour,0.06
78,71,1,2,16,37,787,1434.9674585436323,1435.637365732568,"[58, 0, 196]",196,a,0.1375352761283466,colour,0.06
78,71,1,2,16,38,788,1436.1502868125267,1436.6933606613388,"[66, 0, 188]",188,a,0.010216563427547953,colour,0.06
78,71,1,2,16,39,789,1437.2006407687945,1437.797352618205,"[65, 0, 189]",189,a,0.06421771125496889,colour,0.06
78,71,1,2,16,40,790,1438.300382106594,1438.9413430608888,"[99, 0, 155]",155,l,0.10821530781095134,colour,0.06
78,71,1,2,16,41,791,1439.4505999468115,1440.2533728261292,"[96, 0, 158]",158,l,0.27022837533604616,colour,0.06
78,71,1,2,16,42,792,1440.7669775339546,1442.085438405643,"[92, 0, 162]",162,l,0.7856526689238308,colour,0.06
78,71,1,2,16,43,793,1442.600298409499,1446.2614079397717,"[83, 0, 171]",171,l,3.128297798692529,colour,0.06
78,71,1,2,16,44,794,1446.7672053029764,1447.341442765976,"[51, 0, 203]",203,a,0.041705791075401066,colour,0.06
78,71,1,2,16,45,795,1447.8502649659486,1449.1014974048771,"[53, 0, 201]",201,a,0.7184178201350733,colour,0.06
78,71,1,2,16,46,796,1449.6178401529842,1450.9254040413925,"[89, 0, 165]",165,l,0.7756430224244468,colour,0.06
78,71,1,2,16,47,797,1451.4334540723016,1452.1654450013202,"[50, 0, 204]",204,a,0.19905344327389685,colour,0.06
78,71,1,2,16,48,798,1452.6678020898935,1453.6774957469752,"[79, 0, 175]",175,l,0.4777843399492667,colour,0.06
78,71,1,2,16,49,799,1454.1837444778043,1455.2773302775927,"[70, 0, 184]",184,a,0.5609155416423164,colour,0.06
78,71,1,2,16,50,800,1455.784101273165,1456.5653515839413,"[68, 0, 186]",186,a,0.2489833000395265,colour,0.06
