id,age,condition,counterbalance,block,trialinblock,trial,tstart,tend,trialstim,trialintensity,response,RT,trialtype,colourfreq
156,22,0,1,Practice,1,NA,5.907728336751461e-06,1.373480148613453,"[65, 0, 189]",189,a,0.8179340891074389,colour,0.5
156,22,0,1,Practice,2,NA,1.8821983218658715,2.5014997653197497,"[4, 0, 250]",250,a,0.09614645398687571,colour,0.5
156,22,0,1,Practice,3,NA,3.022795014199801,6.03752918401733,"[68, 0, 186]",186,a,2.4914696912746876,colour,0.5
156,22,0,1,Practice,4,NA,6.555693751666695,7.429496853961609,"[81, 0, 173]",173,l,0.35052326368167996,colour,0.5
156,22,0,1,Practice,5,NA,7.9463321916991845,8.645568603184074,"[31, 0, 223]",223,a,0.17616097896825522,colour,0.5
156,22,0,1,Practice,6,NA,9.16529358853586,9.709490977809764,"[64, 0, 190]",190,a,0.021133772213943303,colour,0.5
156,22,0,1,Practice,7,NA,10.227515730191953,12.037545725470409,"[18, 0, 236]",236,a,1.2868458612356335,colour,0.5
156,22,0,1,Practice,8,NA,12.545969302067533,13.08547401719261,"[34, 0, 220]",220,a,0.016541922581382096,colour,0.5
156,22,0,1,Practice,9,NA,13.592865323647857,14.157491107005626,"[6, 0, 248]",248,a,0.046285954187624156,colour,0.5
156,22,0,1,Practice,10,NA,14.666128147975542,15.253466631751508,"[95, 0, 159]",159,l,0.06408778973855078,colour,0.5
156,22,0,1,1,1,1,4.625920811784454,5.687979113543406,"[44, 0, 210]",210,a,0.5378438668558374,colour,0.5
156,22,0,1,1,2,2,6.20627601351589,6.896040036808699,"[40, 0, 214]",214,a,0.1664440124295652,colour,0.5
156,22,0,1,1,3,3,7.4093551797559485,8.015973996720277,"[21, 0, 233]",233,a,0.08331022772472352,colour,0.5
156,22,0,1,1,4,4,8.534483967348933,10.063989328336902,"[30, 0, 224]",224,a,1.006263331626542,colour,0.5
156,22,0,1,1,5,5,10.581268924288452,11.143971558078192,"[81, 0, 173]",173,l,0.039331423002295196,colour,0.5
156,22,0,1,1,6,6,11.659466638113372,12.928014811710455,"[97, 0, 157]",157,l,0.7446641754359007,colour,0.5
156,22,0,1,1,7,7,13.441227160859853,14.127990472130477,"[36, 0, 218]",218,a,0.16360753413755447,colour,0.5
156,22,0,1,1,8,8,14.644376825424843,15.663938364712521,"[96, 0, 158]",158,l,0.49411160964518785,colour,0.5
156,22,0,1,1,9,9,16.177685162751004,16.736002716002986,"[26, 0, 228]",228,a,0.03492389328312129,colour,0.5
156,22,0,1,1,10,10,17.255804501241073,17.95200869301334,"[54, 0, 200]",200,a,0.17290938715450466,colour,0.5
156,22,0,1,1,11,11,18.458966768812388,19.919957511941902,"[87, 0, 167]",167,l,0.9383816241752356,colour,0.5
156,22,0,1,1,12,12,20.427715488825925,21.167986706946976,"[60, 0, 194]",194,a,0.21697208110708743,colour,0.5
156,22,0,1,1,13,13,21.679615007713437,22.271988417720422,"[12, 0, 242]",242,a,0.06973829725757241,colour,0.5
156,22,0,1,1,14,14,22.7889037062414,23.36800332716666,"[38, 0, 216]",216,a,0.05559529014863074,colour,0.5
156,22,0,1,1,15,15,23.882653213921003,24.44796822767239,"[95, 0, 159]",159,l,0.04227581503801048,colour,0.5
156,22,0,1,1,16,16,24.96076703851577,26.58403844886925,"[64, 0, 190]",190,a,1.1091882678447291,colour,0.5
156,22,0,1,1,17,17,27.092134345555678,27.863979403395206,"[65, 0, 189]",189,l,0.2531645519193262,colour,0.5
156,22,0,1,1,18,18,28.387217888142914,28.968358812504448,"[8, 0, 246]",246,a,0.057854390353895724,colour,0.5
156,22,0,1,1,19,19,29.48092289129272,30.08800172037445,"[14, 0, 240]",240,a,0.08360364299733192,colour,0.5
156,22,0,1,1,20,20,30.609414729173295,31.183970549725927,"[31, 0, 223]",223,a,0.05128504044841975,colour,0.5
156,22,0,1,1,21,21,31.70318156608846,34.00798404449597,"[88, 0, 166]",166,l,1.7815395751968026,colour,0.5
156,22,0,1,1,22,22,34.52226529142354,35.144034967175685,"[3, 0, 251]",251,a,0.09850204642862082,colour,0.5
156,22,0,1,1,23,23,35.66286631603725,36.35196158895269,"[1, 0, 253]",253,a,0.17091337591409683,colour,0.5
156,22,0,1,1,24,24,36.8609684513649,37.49597765156068,"[41, 0, 213]",213,a,0.111647441633977,colour,0.5
156,22,0,1,1,25,25,38.017295743571594,39.255966765689664,"[27, 0, 227]",227,a,0.7154026050120592,colour,0.5
156,22,0,1,1,26,26,39.76871870888863,40.903966185986064,"[76, 0, 178]",178,l,0.6118825677549466,colour,0.5
156,22,0,1,1,27,27,41.42381129425485,42.791957193636335,"[79, 0, 175]",175,l,0.845310319098644,colour,0.5
156,22,0,1,1,28,28,43.29881168808788,44.07194659137167,"[50, 0, 204]",204,a,0.24987278785556555,colour,0.5
156,22,0,1,1,29,29,44.58003618661314,45.143984948750585,"[10, 0, 244]",244,l,0.04096509574446827,colour,0.5
156,22,0,1,1,30,30,45.658146072761156,46.640060667996295,"[58, 0, 196]",196,l,0.45881789503619075,colour,0.5
156,22,0,1,1,31,31,47.15819018345792,47.83995322685223,"[62, 0, 192]",192,l,0.15874511236324906,colour,0.5
156,22,0,1,1,32,32,48.34560530970339,49.40795820823405,"[6, 0, 248]",248,a,0.5373566794442013,colour,0.5
156,22,0,1,1,33,33,49.925325631862506,50.51193904527463,"[51, 0, 203]",203,a,0.06344542710576206,colour,0.5
156,22,0,1,1,34,34,51.00729875266552,51.86393529269844,"[93, 0, 161]",161,l,0.3500482855597511,colour,0.5
156,22,0,1,1,35,35,52.38322310894728,53.03992691799067,"[80, 0, 174]",174,l,0.13335977355018258,colour,0.5
156,22,0,1,1,36,36,53.55509195511695,55.1119353431277,"[61, 0, 193]",193,l,1.0335225894814357,colour,0.5
156,22,0,1,1,37,37,55.63337040739134,56.26394687173888,"[71, 0, 183]",183,l,0.10825130832381546,colour,0.5
156,22,0,1,1,38,38,56.7738607613137,58.22397505538538,"[9, 0, 245]",245,a,0.9254142472054809,colour,0.5
156,22,0,1,1,39,39,58.744128545047715,59.34397478750907,"[23, 0, 231]",231,a,0.07425334688741714,colour,0.5
156,22,0,1,1,40,40,59.85578465135768,60.40798262669705,"[86, 0, 168]",168,l,0.028872056864202023,colour,0.5
156,22,0,1,1,41,41,60.918279728270136,61.45608578599058,"[19, 0, 235]",235,a,0.01442342542577535,colour,0.5
156,22,0,1,1,42,42,61.96512770059053,63.240004584309645,"[46, 0, 208]",208,a,0.7514836175832897,colour,0.5
156,22,0,1,1,43,43,63.74751561996527,64.2720246516401,"[83, 0, 171]",171,l,0.0010228179162368178,colour,0.5
156,22,0,1,1,44,44,64.794554213644,65.36798284726683,"[48, 0, 206]",206,a,0.04748009506147355,colour,0.5
156,22,0,1,1,45,45,65.87725988787133,66.53599751717411,"[5, 0, 249]",249,a,0.13536129845306277,colour,0.5
156,22,0,1,1,46,46,67.05039494868834,68.05594266229309,"[90, 0, 164]",164,l,0.48219816433265805,colour,0.5
156,22,0,1,1,47,47,68.57381617790088,69.26398940710351,"[55, 0, 199]",199,a,0.16689102759119123,colour,0.5
156,22,0,1,1,48,48,69.78487033012789,70.31996948481537,"[2, 0, 252]",252,a,0.011551894713193178,colour,0.5
156,22,0,1,1,49,49,70.83195933618117,71.8482594373636,"[82, 0, 172]",172,l,0.4930194749031216,colour,0.5
156,22,0,1,1,50,50,72.35678935225587,72.98402403399814,"[45, 0, 209]",209,a,0.10406472615431994,colour,0.5
156,22,0,1,2,1,51,78.54768725798931,80.10394066479057,"[11, 0, 243]",243,a,1.0321630333783105,colour,0.5
156,22,0,1,2,2,52,80.6108439960517,81.1519650547998,"[31, 0, 223]",223,a,0.017582463449798524,colour,0.5
156,22,0,1,2,3,53,81.67466751532629,82.68007856432814,"[90, 0, 164]",164,l,0.4821461766259745,colour,0.5
156,22,0,1,2,4,54,83.19062300119549,84.43995818926487,"[20, 0, 234]",234,a,0.7261183648370206,colour,0.5
156,22,0,1,2,5,55,84.95634926890489,85.8719358787639,"[48, 0, 206]",206,l,0.39230204524938017,colour,0.5
156,22,0,1,2,6,56,86.39351981680375,86.944325152901,"[99, 0, 155]",155,l,0.02753613144159317,colour,0.5
156,22,0,1,2,7,57,87.45732994517311,87.99993934773374,"[55, 0, 199]",199,a,0.02003691124264151,colour,0.5
156,22,0,1,2,8,58,88.51980769296642,89.52795833430719,"[94, 0, 160]",160,l,0.4855108024785295,colour,0.5
156,22,0,1,2,9,59,90.03537563444115,90.91191596584395,"[92, 0, 162]",162,l,0.35329396976158023,colour,0.5
156,22,0,1,2,10,60,91.42594003141858,92.0319519318873,"[72, 0, 182]",182,l,0.08273915108293295,colour,0.5
156,22,0,1,2,11,61,92.55097626522183,93.12796053977218,"[21, 0, 233]",233,a,0.053728460567072034,colour,0.5
156,22,0,1,2,12,62,93.64607745211106,94.23202762904111,"[75, 0, 179]",179,l,0.06260495993774384,colour,0.5
156,22,0,1,2,13,63,94.73984586447477,95.26438561605755,"[17, 0, 237]",237,a,0.0012429776834324002,colour,0.5
156,22,0,1,2,14,64,95.78675567056052,97.01597242138814,"[45, 0, 209]",209,a,0.7058754722820595,colour,0.5
156,22,0,1,2,15,65,97.53678717825096,98.08003973122686,"[18, 0, 236]",236,a,0.020016825175844133,colour,0.5
156,22,0,1,2,16,66,98.59911762760021,99.67995489679743,"[9, 0, 245]",245,a,0.557470784522593,colour,0.5
156,22,0,1,2,17,67,100.19494073407259,101.03190900268964,"[14, 0, 240]",240,a,0.31364235014189035,colour,0.5
156,22,0,1,2,18,68,101.53870914631989,102.30397461424582,"[3, 0, 251]",251,a,0.24178634327836335,colour,0.5
156,22,0,1,2,19,69,102.82003998325672,103.49592093774118,"[84, 0, 170]",170,l,0.15132702444680035,colour,0.5
156,22,0,1,2,20,70,104.0090923269745,104.54398313711863,"[73, 0, 181]",181,l,0.011545593151822686,colour,0.5
156,22,0,1,2,21,71,105.05602615769021,105.58394313813187,"[56, 0, 198]",198,l,0.004709215718321502,colour,0.5
156,22,0,1,2,22,72,106.10284262232017,106.80795167037286,"[85, 0, 169]",169,l,0.17987533984705806,colour,0.5
156,22,0,1,2,23,73,107.32342745200731,107.85594534047414,"[51, 0, 203]",203,a,0.009288068395107985,colour,0.5
156,22,0,1,2,24,74,108.37037624884397,109.48002886096947,"[25, 0, 229]",229,a,0.5863585950573906,colour,0.5
156,22,0,1,2,25,75,109.9890203634277,110.62391849909909,"[89, 0, 165]",165,l,0.11165965092368424,colour,0.5
156,22,0,1,2,26,76,111.1374431680888,111.71990702080075,"[98, 0, 156]",156,l,0.059091460425406694,colour,0.5
156,22,0,1,2,27,77,112.23121551878285,112.8079087411752,"[93, 0, 161]",161,l,0.05326293467078358,colour,0.5
156,22,0,1,2,28,78,113.32604731502943,114.07194344059099,"[40, 0, 214]",214,a,0.22260919772088528,colour,0.5
156,22,0,1,2,29,79,114.59161880123429,115.19200855121017,"[64, 0, 190]",190,l,0.0773505512624979,colour,0.5
156,22,0,1,2,30,80,115.68866834393702,116.69595094886608,"[22, 0, 232]",232,a,0.4840543601894751,colour,0.5
156,22,0,1,2,31,81,117.20428394083865,118.09598143247422,"[69, 0, 185]",185,l,0.3684590068878606,colour,0.5
156,22,0,1,2,32,82,118.61047850700561,119.39193261764012,"[7, 0, 247]",247,a,0.25813764438498765,colour,0.5
156,22,0,1,2,33,83,119.9073918578215,121.35992672888096,"[1, 0, 253]",253,a,0.9276024550199509,colour,0.5
156,22,0,1,2,34,84,121.87765609694179,122.89588919386733,"[68, 0, 186]",186,l,0.49500327685382217,colour,0.5
156,22,0,1,2,35,85,123.40893888461869,124.19194199121557,"[91, 0, 163]",163,l,0.2591167453210801,colour,0.5
156,22,0,1,2,36,86,124.70580969995353,125.25593447033316,"[34, 0, 220]",220,a,0.02763853140641004,colour,0.5
156,22,0,1,2,37,87,125.76831068459433,126.3279464400839,"[6, 0, 248]",248,a,0.03634804009925574,colour,0.5
156,22,0,1,2,38,88,126.84643750614487,127.4239341741195,"[4, 0, 250]",250,a,0.05421879864297807,colour,0.5
156,22,0,1,2,39,89,127.9401807122631,128.93591457325965,"[47, 0, 207]",207,a,0.4725123116513714,colour,0.5
156,22,0,1,2,40,90,129.4572732313536,130.76790896174498,"[52, 0, 202]",202,a,0.7883255404885858,colour,0.5
156,22,0,1,2,41,91,131.28535988065414,132.46389181213453,"[43, 0, 211]",211,a,0.6556987141957507,colour,0.5
156,22,0,1,2,42,92,132.97210389340762,133.71190289023798,"[30, 0, 224]",224,a,0.2165305798407644,colour,0.5
156,22,0,1,2,43,93,134.20978006068617,135.01585938758217,"[42, 0, 212]",212,a,0.2827380483504385,colour,0.5
156,22,0,1,2,44,94,135.5223326390842,136.30392695893534,"[66, 0, 188]",188,l,0.25850352726411074,colour,0.5
156,22,0,1,2,45,95,136.8191573745571,137.57590710592922,"[29, 0, 225]",225,a,0.23334110528230667,colour,0.5
156,22,0,1,2,46,96,138.08471862075385,138.67192398454063,"[38, 0, 216]",216,a,0.06386881147045642,colour,0.5
156,22,0,1,2,47,97,139.17845158686396,140.10388710175175,"[87, 0, 167]",167,l,0.4020576087059453,colour,0.5
156,22,0,1,2,48,98,140.61607820831705,141.29593031131662,"[81, 0, 173]",173,l,0.15436357643920928,colour,0.5
156,22,0,1,2,49,99,141.80569453944918,142.42388730647508,"[83, 0, 171]",171,l,0.09488732856698334,colour,0.5
156,22,0,1,2,50,100,142.93077961017843,143.58385531045496,"[77, 0, 177]",177,l,0.12965644034557045,colour,0.5
156,22,0,1,3,1,101,149.91748612874653,150.4638847229071,"[40, 0, 214]",214,a,0.02705091331154108,colour,0.5
156,22,0,1,3,2,102,150.97601950960234,151.6880511873169,"[87, 0, 167]",167,l,0.18227425531949848,colour,0.5
156,22,0,1,3,3,103,152.20131788717117,152.75986308336724,"[84, 0, 170]",170,l,0.03563990502152592,colour,0.5
156,22,0,1,3,4,104,153.2793923272984,154.0078820383642,"[81, 0, 173]",173,l,0.20509683876298368,colour,0.5
156,22,0,1,3,5,105,154.5293832687894,155.887914601597,"[91, 0, 163]",163,l,0.8352491311961785,colour,0.5
156,22,0,1,3,6,106,156.40600236936007,157.1199052091688,"[29, 0, 225]",225,a,0.1965121793327853,colour,0.5
156,22,0,1,3,7,107,157.63439676980488,158.1759423945332,"[11, 0, 243]",243,a,0.018617096706293523,colour,0.5
156,22,0,1,3,8,108,158.6968560067471,159.6398483851226,"[88, 0, 166]",166,l,0.4295941339805722,colour,0.5
156,22,0,1,3,9,109,160.15576330490876,160.79192253528163,"[89, 0, 165]",165,l,0.11335436999797821,colour,0.5
156,22,0,1,3,10,110,161.31195511412807,161.95192559144925,"[90, 0, 164]",164,l,0.11699390003923327,colour,0.5
156,22,0,1,3,11,111,162.46819457877427,163.08012519578915,"[21, 0, 233]",233,l,0.08939042105339468,colour,0.5
156,22,0,1,3,12,112,163.59316661569756,164.63195571280085,"[54, 0, 200]",200,l,0.5155155600514263,colour,0.5
156,22,0,1,3,13,113,165.14005318493582,165.68789364898112,"[41, 0, 213]",213,a,0.02459961618296802,colour,0.5
156,22,0,1,3,14,114,166.2046490360517,166.77591230464168,"[6, 0, 248]",248,a,0.04796767618972808,colour,0.5
156,22,0,1,3,15,115,167.2828243005788,168.28000712068751,"[39, 0, 215]",215,a,0.471835290431045,colour,0.5
156,22,0,1,3,16,116,168.79806928848848,169.5040121084312,"[1, 0, 253]",253,a,0.18285714741796255,colour,0.5
156,22,0,1,3,17,117,170.01694719004445,170.78387271845713,"[32, 0, 222]",222,a,0.24377762828953564,colour,0.5
156,22,0,1,3,18,118,171.29806101776194,172.0080687213922,"[17, 0, 237]",237,a,0.18690706498455256,colour,0.5
156,22,0,1,3,19,119,172.51684951619245,174.33591236767825,"[53, 0, 201]",201,a,1.2958125513978302,colour,0.5
156,22,0,1,3,20,120,174.84630084154196,175.72792257298715,"[46, 0, 208]",208,l,0.3590614494169131,colour,0.5
156,22,0,1,3,21,121,176.23692274000496,176.8718858603388,"[47, 0, 207]",207,a,0.11160451255273074,colour,0.5
156,22,0,1,3,22,122,177.37692196806893,177.99186708172783,"[51, 0, 203]",203,a,0.0916636997135356,colour,0.5
156,22,0,1,3,23,123,178.50195426342543,179.8478951298166,"[24, 0, 230]",230,a,0.8226633908925578,colour,0.5
156,22,0,1,3,24,124,180.36128943576477,181.12790658290032,"[78, 0, 176]",176,l,0.24322939477860928,colour,0.5
156,22,0,1,3,25,125,181.64386758266483,182.19989807263482,"[23, 0, 231]",231,a,0.032645100727677345,colour,0.5
156,22,0,1,3,26,126,182.70641464728396,183.40787392517086,"[59, 0, 195]",195,l,0.1776229350361973,colour,0.5
156,22,0,1,3,27,127,183.92767767969053,184.57590001670178,"[43, 0, 211]",211,a,0.12512524297926575,colour,0.5
156,22,0,1,3,28,128,185.08393329195678,185.79988806904294,"[61, 0, 193]",193,l,0.19271314155776054,colour,0.5
156,22,0,1,3,29,129,186.3201266293181,187.0639070145553,"[27, 0, 227]",227,a,0.2203969651600346,colour,0.5
156,22,0,1,3,30,130,187.57019279547967,188.25585648883134,"[60, 0, 194]",194,l,0.16249137476552278,colour,0.5
156,22,0,1,3,31,131,188.77328141394537,189.31988362642005,"[12, 0, 242]",242,a,0.021899408660829067,colour,0.5
156,22,0,1,3,32,132,189.8378445757553,190.51181616529357,"[73, 0, 181]",181,l,0.15098437841515988,colour,0.5
156,22,0,1,3,33,133,191.0253168096533,191.6878412674414,"[99, 0, 155]",155,l,0.13350628421176225,colour,0.5
156,22,0,1,3,34,134,192.2028141078772,192.8398374360986,"[16, 0, 238]",238,a,0.11371867742855102,colour,0.5
156,22,0,1,3,35,135,193.3590535725234,193.8958821046399,"[97, 0, 157]",157,l,0.0135250628227368,colour,0.5
156,22,0,1,3,36,136,194.4059881909052,194.93587085639592,"[26, 0, 228]",228,a,0.006603220710530877,colour,0.5
156,22,0,1,3,37,137,195.45452261145692,196.15990223165136,"[85, 0, 169]",169,l,0.1830347718205303,colour,0.5
156,22,0,1,3,38,138,196.67544614861254,197.30389466357883,"[75, 0, 179]",179,l,0.10535693471319973,colour,0.5
156,22,0,1,3,39,139,197.8219402898103,198.5599071154138,"[30, 0, 224]",224,a,0.22337365266866982,colour,0.5
156,22,0,1,3,40,140,199.07885031646583,199.82380475639366,"[20, 0, 234]",234,a,0.2216785397613421,colour,0.5
156,22,0,1,3,41,141,200.34446591336746,200.9118864274351,"[66, 0, 188]",188,l,0.04414067545440048,colour,0.5
156,22,0,1,3,42,142,201.42484356439672,202.07987982977647,"[92, 0, 162]",162,l,0.13232868490740657,colour,0.5
156,22,0,1,3,43,143,202.5967191059608,203.28784701763652,"[38, 0, 216]",216,a,0.1678988792700693,colour,0.5
156,22,0,1,3,44,144,203.79970020451583,204.36789659492206,"[76, 0, 178]",178,l,0.04481139499694109,colour,0.5
156,22,0,1,3,45,145,204.87788255827036,205.6478280973388,"[35, 0, 219]",219,a,0.24666254967451096,colour,0.5
156,22,0,1,3,46,146,206.15918149368372,206.9278852364514,"[25, 0, 229]",229,a,0.24532898736651987,colour,0.5
156,22,0,1,3,47,147,207.4418167482363,208.47193060116842,"[64, 0, 190]",190,l,0.5071451526600868,colour,0.5
156,22,0,1,3,48,148,208.99102661455981,209.71986881783232,"[58, 0, 196]",196,l,0.20552219240926206,colour,0.5
156,22,0,1,3,49,149,210.23883289273363,210.84785771451425,"[94, 0, 160]",160,l,0.08568708784878254,colour,0.5
156,22,0,1,3,50,150,211.36383289273363,211.99990272009745,"[31, 0, 223]",223,a,0.11274075810797513,colour,0.5
156,22,0,1,4,1,151,217.07105059188325,217.8238283871906,"[10, 0, 244]",244,a,0.2286531572462991,colour,0.5
156,22,0,1,4,2,152,218.33747948065866,219.00783044460695,"[47, 0, 207]",207,a,0.14711523614823818,colour,0.5
156,22,0,1,4,3,153,219.5261801199522,220.07997514039744,"[51, 0, 203]",203,a,0.03040805587079376,colour,0.5
156,22,0,1,4,4,154,220.58874884608667,221.17585496068932,"[69, 0, 185]",185,l,0.06378689152188599,colour,0.5
156,22,0,1,4,5,155,221.68309699953534,222.34389326150995,"[27, 0, 227]",227,a,0.13787127856630832,colour,0.5
156,22,0,1,4,6,156,222.85504658403806,223.51185909449123,"[63, 0, 191]",191,l,0.13353109650779516,colour,0.5
156,22,0,1,4,7,157,224.02685477794148,224.59988483949564,"[40, 0, 214]",214,a,0.04976518906187266,colour,0.5
156,22,0,1,4,8,158,225.1212454668712,225.66386510932352,"[59, 0, 195]",195,a,0.019396517775021493,colour,0.5
156,22,0,1,4,9,159,226.18372203304898,227.99189031869173,"[53, 0, 201]",201,a,1.284836065606214,colour,0.5
156,22,0,1,4,10,160,228.51329426909797,229.21585552790202,"[41, 0, 213]",213,a,0.1796343062305823,colour,0.5
156,22,0,1,4,11,161,229.73194767837413,230.5278464820003,"[72, 0, 182]",182,l,0.2726473220391199,colour,0.5
156,22,0,1,4,12,162,231.0444041583687,231.61585923004895,"[35, 0, 219]",219,a,0.04811458080075681,colour,0.5
156,22,0,1,4,13,163,232.1225770598976,232.6798702199012,"[5, 0, 249]",249,a,0.03240170399658382,colour,0.5
156,22,0,1,4,14,164,233.186865317286,233.71987787622493,"[25, 0, 229]",229,a,0.00965631427243352,colour,0.5
156,22,0,1,4,15,165,234.23369753581937,234.8478726806352,"[23, 0, 231]",231,a,0.09080196486320347,colour,0.5
156,22,0,1,4,16,166,235.35879599722102,236.7758500770433,"[6, 0, 248]",248,a,0.8939049980835989,colour,0.5
156,22,0,1,4,17,167,237.29622490808833,238.22384902462363,"[75, 0, 179]",179,l,0.40431395184714347,colour,0.5
156,22,0,1,4,18,168,238.7352126610931,239.43983255245257,"[70, 0, 184]",184,l,0.18136762210633606,colour,0.5
156,22,0,1,4,19,169,239.95398816256784,240.54383032489568,"[32, 0, 222]",222,a,0.06666393601335585,colour,0.5
156,22,0,1,4,20,170,241.0633024610579,242.16788312548306,"[58, 0, 196]",196,l,0.5812169366981834,colour,0.5
156,22,0,1,4,21,171,242.68828631343786,243.41580401279498,"[71, 0, 183]",183,l,0.2042421931400895,colour,0.5
156,22,0,1,4,22,172,243.92547174869105,244.93583541025873,"[94, 0, 160]",160,l,0.48673014948144555,colour,0.5
156,22,0,1,4,23,173,245.45667222246993,246.20787699718494,"[39, 0, 215]",215,a,0.2279891329817474,colour,0.5
156,22,0,1,4,24,174,246.72107910632621,247.37582274409942,"[66, 0, 188]",188,l,0.13146064849570394,colour,0.5
156,22,0,1,4,25,175,247.89289320784155,248.47990637493785,"[56, 0, 198]",198,a,0.06373963004443794,colour,0.5
156,22,0,1,4,26,176,248.98682506626938,250.3838768932037,"[20, 0, 234]",234,a,0.8737396930810064,colour,0.5
156,22,0,1,4,27,177,250.8929302294273,251.81588372727856,"[0, 0, 254]",254,a,0.3974866329226643,colour,0.5
156,22,0,1,4,28,178,252.33193255471997,252.92785845487379,"[64, 0, 190]",190,l,0.07279335998464376,colour,0.5
156,22,0,1,4,29,179,253.441246459377,254.17586283769924,"[57, 0, 197]",197,l,0.21151377051137388,colour,0.5
156,22,0,1,4,30,180,254.6912689085584,255.3278885447653,"[52, 0, 202]",202,l,0.11099759594071656,colour,0.5
156,22,0,1,4,31,181,255.83424994407687,256.4558735030005,"[44, 0, 210]",210,a,0.0983634126605466,colour,0.5
156,22,0,1,4,32,182,256.9748812948819,257.7678333433578,"[29, 0, 225]",225,a,0.26998295437078923,colour,0.5
156,22,0,1,4,33,183,258.2873933070805,258.93583029019646,"[38, 0, 216]",216,a,0.12512327369768173,colour,0.5
156,22,0,1,4,34,184,259.4435945687583,260.12780812138226,"[50, 0, 204]",204,a,0.16085848957300186,colour,0.5
156,22,0,1,4,35,185,260.64800217712764,261.2799248069059,"[80, 0, 174]",174,l,0.10821625601965934,colour,0.5
156,22,0,1,4,36,186,261.78903682611417,262.5440504847793,"[13, 0, 241]",241,a,0.23179919843096286,colour,0.5
156,22,0,1,4,37,187,263.05651688971557,263.67185388004873,"[18, 0, 236]",236,a,0.09230960707645863,colour,0.5
156,22,0,1,4,38,188,264.18144008971285,264.8158250441775,"[95, 0, 159]",159,l,0.11097869137302041,colour,0.5
156,22,0,1,4,39,189,265.3221100374358,266.0158700214233,"[73, 0, 181]",181,l,0.1704120101640001,colour,0.5
156,22,0,1,4,40,190,266.52531405270565,267.1038299940992,"[54, 0, 200]",200,l,0.055657911812886596,colour,0.5
156,22,0,1,4,41,191,267.62040578736924,268.1838437314145,"[60, 0, 194]",194,a,0.040218757814727724,colour,0.5
156,22,0,1,4,42,192,268.6984495073557,269.2398139629513,"[17, 0, 237]",237,l,0.018084223149344325,colour,0.5
156,22,0,1,4,43,193,269.7609508858295,270.52779803890735,"[42, 0, 212]",212,a,0.24353383760899305,colour,0.5
156,22,0,1,4,44,194,271.0422525780741,271.7037924211472,"[15, 0, 239]",239,a,0.1384002136765048,colour,0.5
156,22,0,1,4,45,195,272.2141084274044,272.93577121337876,"[68, 0, 186]",186,l,0.1984207567293197,colour,0.5
156,22,0,1,4,46,196,273.44443700509146,274.38385641318746,"[98, 0, 156]",156,l,0.4160761602688581,colour,0.5
156,22,0,1,4,47,197,274.89756422047503,275.4958157809451,"[36, 0, 218]",218,l,0.07519582018721849,colour,0.5
156,22,0,1,4,48,198,276.00701715273317,277.9438226055354,"[43, 0, 211]",211,a,1.4090026876656339,colour,0.5
156,22,0,1,4,49,199,278.46466768858954,279.2398127814522,"[21, 0, 233]",233,a,0.25209171569440514,colour,0.5
156,22,0,1,4,50,200,279.73561005154625,280.3278483725153,"[61, 0, 193]",193,l,0.06884466088376939,colour,0.5
156,22,0,1,5,1,201,285.1907766010845,285.78386287228204,"[74, 0, 180]",180,l,0.06921369442716241,colour,0.5
156,22,0,1,5,2,202,286.3000042535132,287.60782674246,"[59, 0, 195]",195,l,0.7844981458038092,colour,0.5
156,22,0,1,5,3,203,288.11676153098233,288.6638139093993,"[33, 0, 221]",221,a,0.027785829734057188,colour,0.5
156,22,0,1,5,4,204,289.1755343701225,289.95179798535537,"[4, 0, 250]",250,a,0.2532003918895498,colour,0.5
156,22,0,1,5,5,205,290.4722803364275,291.08777959120926,"[28, 0, 226]",226,a,0.09258687449619174,colour,0.5
156,22,0,1,5,6,206,291.5941685597645,292.1998334819218,"[32, 0, 222]",222,a,0.08243825286626816,colour,0.5
156,22,0,1,5,7,207,292.70650129334535,293.3358083923813,"[39, 0, 215]",215,a,0.10604262037668377,colour,0.5
156,22,0,1,5,8,208,293.8471306748688,294.60779484093655,"[95, 0, 159]",159,l,0.23752099194098264,colour,0.5
156,22,0,1,5,9,209,295.1283476903336,295.8798100402346,"[38, 0, 216]",216,a,0.22812540363520384,colour,0.5
156,22,0,1,5,10,210,296.3823361679679,297.0718178037787,"[30, 0, 224]",224,a,0.16622857877518982,colour,0.5
156,22,0,1,5,11,211,297.58546456485055,298.3437940123258,"[1, 0, 253]",253,a,0.2353583840886131,colour,0.5
156,22,0,1,5,12,212,298.8510892202612,299.5761012720177,"[90, 0, 164]",164,l,0.20175033004488796,colour,0.5
156,22,0,1,5,13,213,300.08545432484243,301.4159111388726,"[50, 0, 204]",204,l,0.8071348338853568,colour,0.5
156,22,0,1,5,14,214,301.92915184493177,302.5197950898437,"[79, 0, 175]",175,l,0.06731063104234636,colour,0.5
156,22,0,1,5,15,215,303.0385126172332,303.5758578751702,"[70, 0, 184]",184,l,0.012486884952522814,colour,0.5
156,22,0,1,5,16,216,304.0869785086252,304.86412315722555,"[62, 0, 192]",192,l,0.25386205315589905,colour,0.5
156,22,0,1,5,17,217,305.38382726861164,306.6957575705601,"[48, 0, 206]",206,a,0.7889545124489814,colour,0.5
156,22,0,1,5,18,218,307.2119210071396,308.1837791407015,"[37, 0, 217]",217,a,0.4485310334712267,colour,0.5
156,22,0,1,5,19,219,308.69632982858457,309.9438060639659,"[56, 0, 198]",198,l,0.7240573691669852,colour,0.5
156,22,0,1,5,20,220,310.4623487237841,311.04778768867254,"[52, 0, 202]",202,a,0.06246711383573711,colour,0.5
156,22,0,1,5,21,221,311.5560616038274,312.39179280237295,"[26, 0, 228]",228,a,0.3123942523961887,colour,0.5
156,22,0,1,5,22,222,312.90138885821216,313.68782393832225,"[82, 0, 172]",172,l,0.2631666630040854,colour,0.5
156,22,0,1,5,23,223,314.1981194644468,315.3278085939819,"[46, 0, 208]",208,a,0.6107384453061968,colour,0.5
156,22,0,1,5,24,224,315.8378953819629,316.4159544619033,"[17, 0, 237]",237,a,0.05479105678386986,colour,0.5
156,22,0,1,5,25,225,316.93144678510725,317.70377509191167,"[6, 0, 248]",248,a,0.24878813605755568,colour,0.5
156,22,0,1,5,26,226,318.2128256711876,319.81584197958,"[58, 0, 196]",196,l,1.079639189876616,colour,0.5
156,22,0,1,5,27,227,320.3132768610958,321.1039457847364,"[83, 0, 171]",171,l,0.27568032941780984,colour,0.5
156,22,0,1,5,28,228,321.6207334671635,322.40780618367717,"[91, 0, 163]",163,l,0.2635924103669822,colour,0.5
156,22,0,1,5,29,229,322.9176338210236,323.4878155887127,"[18, 0, 236]",236,a,0.04689956607762724,colour,0.5
156,22,0,1,5,30,230,323.9955999533413,324.5679167598719,"[81, 0, 173]",173,l,0.04890306037850678,colour,0.5
156,22,0,1,5,31,231,325.07392606092617,325.7358069745824,"[85, 0, 169]",169,l,0.13872395502403378,colour,0.5
156,22,0,1,5,32,232,326.2456858117366,326.8078220951138,"[49, 0, 205]",205,a,0.03874498640652746,colour,0.5
156,22,0,1,5,33,233,327.32385123020504,327.97578950354364,"[36, 0, 218]",218,a,0.12873681006021798,colour,0.5
156,22,0,1,5,34,234,328.49575473484583,329.30377493437845,"[10, 0, 244]",244,a,0.2848431548336521,colour,0.5
156,22,0,1,5,35,235,329.8238654086599,330.56775764608756,"[71, 0, 183]",183,l,0.2209794633090496,colour,0.5
156,22,0,1,5,36,236,331.0753923492739,331.79174845537636,"[97, 0, 157]",157,l,0.19321687053889036,colour,0.5
156,22,0,1,5,37,237,332.3097972323885,332.9357503395295,"[92, 0, 162]",162,l,0.102719348622486,colour,0.5
156,22,0,1,5,38,238,333.4504612723831,334.31997933099046,"[63, 0, 191]",191,l,0.3464749214472249,colour,0.5
156,22,0,1,5,39,239,334.84112137381453,335.46381540596485,"[94, 0, 160]",160,l,0.09958906110841781,colour,0.5
156,22,0,1,5,40,240,335.98157313093543,336.5837714212248,"[65, 0, 189]",189,l,0.07875303644686937,colour,0.5
156,22,0,1,5,41,241,337.09101582318544,337.66375640791375,"[11, 0, 243]",243,a,0.04974667832721025,colour,0.5
156,22,0,1,5,42,242,338.184789355495,338.85580001131166,"[41, 0, 213]",213,a,0.14808882330544293,colour,0.5
156,22,0,1,5,43,243,339.37234193389304,340.07979160826653,"[78, 0, 176]",176,l,0.1842419096501544,colour,0.5
156,22,0,1,5,44,244,340.5910142477369,341.4957787593594,"[12, 0, 242]",242,a,0.381887971307151,colour,0.5
156,22,0,1,5,45,245,342.01417963474523,342.74377329600975,"[7, 0, 247]",247,a,0.2064315826864913,colour,0.5
156,22,0,1,5,46,246,343.26412449625786,343.9758044696646,"[0, 0, 254]",254,a,0.18866086087655276,colour,0.5
156,22,0,1,5,47,247,344.48287242860533,345.16779529780615,"[53, 0, 201]",201,a,0.16161231067962945,colour,0.5
156,22,0,1,5,48,248,345.6873355692951,346.31175937270746,"[20, 0, 234]",234,a,0.10113805718719959,colour,0.5
156,22,0,1,5,49,249,346.8279897631146,347.5277893743478,"[80, 0, 174]",174,l,0.17661272024270147,colour,0.5
156,22,0,1,5,50,250,348.04681843391154,348.8717960633803,"[25, 0, 229]",229,a,0.3017422955017537,colour,0.5
156,22,0,1,6,1,251,353.85901733872015,354.3838501117425,"[33, 0, 221]",221,a,0.0006447258638218045,colour,0.5
156,22,0,1,6,2,252,354.906777064316,355.6557325848844,"[30, 0, 224]",224,a,0.22859801875893027,colour,0.5
156,22,0,1,6,3,253,356.16950261988677,356.84773128991947,"[22, 0, 232]",232,a,0.15064488328061998,colour,0.5
156,22,0,1,6,4,254,357.36129455582704,357.98384640959557,"[51, 0, 203]",203,a,0.09923420601990074,colour,0.5
156,22,0,1,6,5,255,358.5019385096384,359.19976928504184,"[67, 0, 187]",187,l,0.17455408768728375,colour,0.5
156,22,0,1,6,6,256,359.7207112542819,360.4877498165006,"[1, 0, 253]",253,a,0.24378432368393987,colour,0.5
156,22,0,1,6,7,257,361.00196332193445,361.583864762797,"[57, 0, 197]",197,l,0.05860348546411842,colour,0.5
156,22,0,1,6,8,258,362.10059179284144,362.8957986092428,"[7, 0, 247]",247,a,0.27194548852276057,colour,0.5
156,22,0,1,6,9,259,363.41028898837976,363.95978084835224,"[50, 0, 204]",204,a,0.026236833655275404,colour,0.5
156,22,0,1,6,10,260,364.4728451113915,365.00879497325514,"[85, 0, 169]",169,l,0.01249554951209575,colour,0.5
156,22,0,1,6,11,261,365.5196938714944,366.25573991041165,"[26, 0, 228]",228,a,0.2135349876480177,colour,0.5
156,22,0,1,6,12,262,366.7690062164329,367.8477651607245,"[38, 0, 216]",216,l,0.5554987980285659,colour,0.5
156,22,0,1,6,13,263,368.36267616727855,369.11974491388537,"[40, 0, 214]",214,a,0.2337597634177655,colour,0.5
156,22,0,1,6,14,264,369.6296355664963,370.32776566478424,"[29, 0, 225]",225,a,0.17469193367287517,colour,0.5
156,22,0,1,6,15,265,370.84834332647733,371.5117708730977,"[5, 0, 249]",249,a,0.1400882372399792,colour,0.5
156,22,0,1,6,16,266,372.0202633726876,372.5677848214982,"[84, 0, 170]",170,l,0.024208921124227345,colour,0.5
156,22,0,1,6,17,267,373.0828230403131,373.6318277128739,"[61, 0, 193]",193,a,0.025718532502651215,colour,0.5
156,22,0,1,6,18,268,374.14534608030226,374.67975285381544,"[48, 0, 206]",206,a,0.011145445751026273,colour,0.5
156,22,0,1,6,19,269,375.19217948033474,375.8797375726281,"[54, 0, 200]",200,a,0.16449486906640232,colour,0.5
156,22,0,1,6,20,270,376.3974795436952,377.10373586486094,"[64, 0, 190]",190,l,0.1829823903972283,colour,0.5
156,22,0,1,6,21,271,377.61616682366,378.1837590545183,"[25, 0, 229]",229,a,0.04423244157806039,colour,0.5
156,22,0,1,6,22,272,378.69438344205264,379.335762706236,"[55, 0, 199]",199,a,0.11809076101053506,colour,0.5
156,22,0,1,6,23,273,379.85062645131256,380.42382783582434,"[23, 0, 231]",231,a,0.04997117049060762,colour,0.5
156,22,0,1,6,24,274,380.94434484513476,381.67175226775,"[69, 0, 185]",185,l,0.20196852064691484,colour,0.5
156,22,0,1,6,25,275,382.18107460066676,382.7357640453847,"[18, 0, 236]",236,a,0.031663636676967144,colour,0.5
156,22,0,1,6,26,276,383.24349681613967,383.76783531252295,"[24, 0, 230]",230,a,0.001001550117507577,colour,0.5
156,22,0,1,6,27,277,384.2903818100458,385.00775600771885,"[80, 0, 174]",174,l,0.19409199606161565,colour,0.5
156,22,0,1,6,28,278,385.5248166252859,386.0717748744646,"[73, 0, 181]",181,l,0.024105339543893933,colour,0.5
156,22,0,1,6,29,279,386.5886669260217,387.1757856438635,"[44, 0, 210]",210,a,0.0638235192745924,colour,0.5
156,22,0,1,6,30,280,387.6823853199603,388.351749306079,"[77, 0, 177]",177,l,0.14599907689262182,colour,0.5
156,22,0,1,6,31,281,388.8704707719153,389.53574978816323,"[97, 0, 157]",157,l,0.14201571920420974,colour,0.5
156,22,0,1,6,32,282,390.04230850422755,390.6397739482345,"[96, 0, 158]",158,l,0.07420647924300283,colour,0.5
156,22,0,1,6,33,283,391.1517413503025,392.3197583834408,"[59, 0, 195]",195,l,0.6450585727579892,colour,0.5
156,22,0,1,6,34,284,392.83912772580516,393.47175179515034,"[71, 0, 183]",183,l,0.10930405848193914,colour,0.5
156,22,0,1,6,35,285,393.9798346949974,394.7277760623256,"[3, 0, 251]",251,a,0.2250943654216826,colour,0.5
156,22,0,1,6,36,286,395.24537585501093,396.0157333568204,"[28, 0, 226]",226,a,0.2470611217431724,colour,0.5
156,22,0,1,6,37,287,396.5275451898342,397.2797523024492,"[19, 0, 235]",235,a,0.22889222169760615,colour,0.5
156,22,0,1,6,38,288,397.7931682699127,398.80779688898474,"[56, 0, 198]",198,a,0.4914011621149257,colour,0.5
156,22,0,1,6,39,289,399.3244353036862,400.2638759794645,"[16, 0, 238]",238,a,0.41628686792682856,colour,0.5
156,22,0,1,6,40,290,400.7775463714497,401.5357616035035,"[37, 0, 217]",217,a,0.23500274121761322,colour,0.5
156,22,0,1,6,41,291,402.0431663006311,402.7757078986615,"[81, 0, 173]",173,l,0.20791716943494976,colour,0.5
156,22,0,1,6,42,292,403.2931536976248,403.85575865756255,"[94, 0, 160]",160,l,0.03925265383441001,colour,0.5
156,22,0,1,6,43,293,404.37129509146325,404.935807053349,"[63, 0, 191]",191,l,0.041130511090159416,colour,0.5
156,22,0,1,6,44,294,405.4507160906214,406.14379432739224,"[53, 0, 201]",201,l,0.1696195921394974,colour,0.5
156,22,0,1,6,45,295,406.6537999829743,407.1837354237214,"[34, 0, 220]",220,a,0.0065705315209925175,colour,0.5
156,22,0,1,6,46,296,407.7007535060402,408.47973387048114,"[15, 0, 239]",239,a,0.25572848902083933,colour,0.5
156,22,0,1,6,47,297,408.99755421688315,409.7277528254781,"[60, 0, 194]",194,l,0.20681912708096206,colour,0.5
156,22,0,1,6,48,298,410.2475514599355,410.8397370054154,"[35, 0, 219]",219,a,0.0688466300489381,colour,0.5
156,22,0,1,6,49,299,411.35691144457087,412.13572678749915,"[45, 0, 209]",209,a,0.25549848284572363,colour,0.5
156,22,0,1,6,50,300,412.6538629983552,413.19974722969346,"[98, 0, 156]",156,l,0.022561069810763,colour,0.5
156,22,0,1,7,1,301,418.1550902222516,418.80776735045947,"[71, 0, 183]",183,l,0.12858399783726782,colour,0.5
156,22,0,1,7,2,302,419.3278011109214,420.1037177479593,"[12, 0, 242]",242,a,0.25269823835697025,colour,0.5
156,22,0,1,7,3,303,420.62459945864975,421.3277184033068,"[85, 0, 169]",169,l,0.17991275526583195,colour,0.5
156,22,0,1,7,4,304,421.843326910981,422.5757279060781,"[37, 0, 217]",217,a,0.20913060882594436,colour,0.5
156,22,0,1,7,5,305,423.0933670833474,423.78374944464304,"[87, 0, 167]",167,l,0.16709228279069066,colour,0.5
156,22,0,1,7,6,306,424.2964671233203,424.8637568805134,"[74, 0, 180]",180,l,0.04389452177565545,colour,0.5
156,22,0,1,7,7,307,425.3747664493276,426.47177306283265,"[47, 0, 207]",207,l,0.5743069099262357,colour,0.5
156,22,0,1,7,8,308,426.9852461379487,427.6797079553362,"[39, 0, 215]",215,a,0.1718211907427758,colour,0.5
156,22,0,1,7,9,309,428.1884603932267,428.7996911460068,"[46, 0, 208]",208,a,0.08783630502875894,colour,0.5
156,22,0,1,7,10,310,429.31350962398574,429.999757784768,"[70, 0, 184]",184,l,0.17545363178942353,colour,0.5
156,22,0,1,7,11,311,430.52012395113707,431.4237396143144,"[68, 0, 186]",186,l,0.3806386920623481,colour,0.5
156,22,0,1,7,12,312,431.9393024358433,432.55175450479146,"[72, 0, 182]",182,l,0.08900327049195766,colour,0.5
156,22,0,1,7,13,313,433.0643646635581,433.81569153047167,"[42, 0, 212]",212,a,0.22801236994564533,colour,0.5
156,22,0,1,7,14,314,434.3300334296655,435.0157621075632,"[20, 0, 234]",234,a,0.16239645786117762,colour,0.5
156,22,0,1,7,15,315,435.53313622658607,436.1197744522942,"[9, 0, 245]",245,a,0.06340131640899926,colour,0.5
156,22,0,1,7,16,316,436.62684871279635,437.1597293333616,"[99, 0, 155]",155,l,0.00959054206032306,colour,0.5
156,22,0,1,7,17,317,437.6740109741222,438.3277128895279,"[61, 0, 193]",193,a,0.1305079353041947,colour,0.5
156,22,0,1,7,18,318,438.8458999064751,439.54374013410416,"[86, 0, 168]",168,l,0.17447965068276972,colour,0.5
156,22,0,1,7,19,319,440.0648672109237,440.8797293017851,"[5, 0, 249]",249,a,0.28974850568920374,colour,0.5
156,22,0,1,7,20,320,441.3928211340681,442.01577274140436,"[24, 0, 230]",230,a,0.09958945494145155,colour,0.5
156,22,0,1,7,21,321,442.5333788356511,443.271739113261,"[98, 0, 156]",156,l,0.21497449453454465,colour,0.5
156,22,0,1,7,22,322,443.7834375187522,444.49570629175287,"[35, 0, 219]",219,a,0.20037541387137026,colour,0.5
156,22,0,1,7,23,323,445.00637360848486,445.6317138914019,"[84, 0, 170]",170,l,0.10202657361514866,colour,0.5
156,22,0,1,7,24,324,446.14711523614824,447.56769423687365,"[64, 0, 190]",190,l,0.8973436667583883,colour,0.5
156,22,0,1,7,25,325,448.08459889155347,448.8399941868847,"[19, 0, 235]",235,a,0.23227653978392482,colour,0.5
156,22,0,1,7,26,326,449.35013965773396,450.0397036073264,"[10, 0, 244]",244,a,0.16664172313176095,colour,0.5
156,22,0,1,7,27,327,450.55324009165633,451.2717170579126,"[62, 0, 192]",192,l,0.19522824161686003,colour,0.5
156,22,0,1,7,28,328,451.78767293773126,452.3597557997564,"[6, 0, 248]",248,a,0.04873055580537766,colour,0.5
156,22,0,1,7,29,329,452.8813795162132,453.5917877611937,"[1, 0, 253]",253,a,0.18560264736879617,colour,0.5
156,22,0,1,7,30,330,454.08925533189904,454.7596992434701,"[27, 0, 227]",227,a,0.14718573458958417,colour,0.5
156,22,0,1,7,31,331,455.27677325182594,455.94370996556245,"[81, 0, 173]",173,l,0.14373682590667158,colour,0.5
156,22,0,1,7,32,332,456.4641639596084,457.1996979989344,"[8, 0, 246]",246,a,0.21307143103331327,colour,0.5
156,22,0,1,7,33,333,457.7141879842384,458.3117507081479,"[65, 0, 189]",189,l,0.0744510575896129,colour,0.5
156,22,0,1,7,34,334,458.8235239442438,459.4316953019006,"[80, 0, 174]",174,l,0.08488167298492044,colour,0.5
156,22,0,1,7,35,335,459.9486153165344,460.5196852068184,"[78, 0, 176]",176,l,0.04810119001194835,colour,0.5
156,22,0,1,7,36,336,461.02670196571853,461.6077719979221,"[44, 0, 210]",210,a,0.05774568906053901,colour,0.5
156,22,0,1,7,37,337,462.1204719534144,463.3358060292667,"[53, 0, 201]",201,a,0.6920617202995345,colour,0.5
156,22,0,1,7,38,338,463.8549303995678,464.47171319823246,"[66, 0, 188]",188,l,0.09356321860104799,colour,0.5
156,22,0,1,7,39,339,464.9798646272393,465.5357104034629,"[34, 0, 220]",220,a,0.03118747693952173,colour,0.5
156,22,0,1,7,40,340,466.0436696357792,466.77571971400175,"[95, 0, 159]",159,l,0.20880253508221358,colour,0.5
156,22,0,1,7,41,341,467.2936960234074,468.3357197770383,"[56, 0, 198]",198,l,0.5188415888696909,colour,0.5
156,22,0,1,7,42,342,468.85613556811586,469.66372765717097,"[16, 0, 238]",238,a,0.28424490289762616,colour,0.5
156,22,0,1,7,43,343,470.1841658973135,470.93571134877857,"[22, 0, 232]",232,a,0.2284778958419338,colour,0.5
156,22,0,1,7,44,344,471.44987050350755,472.1116667401511,"[26, 0, 228]",228,a,0.1384443243732676,colour,0.5
156,22,0,1,7,45,345,472.6216991773108,473.1997334450716,"[73, 0, 181]",181,l,0.05473552457988262,colour,0.5
156,22,0,1,7,46,346,473.7155109127052,474.30371822055895,"[17, 0, 237]",237,a,0.06498457700945437,colour,0.5
156,22,0,1,7,47,347,474.8248236357467,475.3997677884763,"[91, 0, 163]",163,l,0.05173560022376478,colour,0.5
156,22,0,1,7,48,348,475.9186117403442,476.47972323664,"[41, 0, 213]",213,a,0.035591855994425714,colour,0.5
156,22,0,1,7,49,349,476.9989216498798,477.71973924245685,"[11, 0, 243]",243,a,0.19754169252701104,colour,0.5
156,22,0,1,7,50,350,478.23768089339137,478.76771400799043,"[92, 0, 162]",162,l,0.00665875303093344,colour,0.5
156,22,0,1,8,1,351,483.3299247281393,483.89572968625,"[99, 0, 155]",155,l,0.041636209236457944,colour,0.5
156,22,0,1,8,2,352,484.4088636599481,485.1117620508885,"[4, 0, 250]",250,a,0.17977766611147672,colour,0.5
156,22,0,1,8,3,353,485.6232284810394,486.1596946748905,"[66, 0, 188]",188,l,0.02554720954503864,colour,0.5
156,22,0,1,8,4,354,486.6738321681041,487.2237076340243,"[40, 0, 214]",214,a,0.02668069815263152,colour,0.5
156,22,0,1,8,5,355,487.7362441434525,488.3917266363278,"[88, 0, 166]",166,l,0.13221643888391554,colour,0.5
156,22,0,1,8,6,356,488.9081842757296,489.4637480583042,"[86, 0, 168]",168,l,0.03264628222677857,colour,0.5
156,22,0,1,8,7,357,489.9582220062148,490.5436814511195,"[82, 0, 172]",172,l,0.06231351394671947,colour,0.5
156,22,0,1,8,8,358,491.05196678778157,491.6717199723935,"[23, 0, 231]",231,a,0.09909754141699523,colour,0.5
156,22,0,1,8,9,359,492.1906328473706,493.2797148870304,"[24, 0, 230]",230,a,0.5658663979265839,colour,0.5
156,22,0,1,8,10,360,493.8000696320087,494.40769039303996,"[35, 0, 219]",219,a,0.08434052870143205,colour,0.5
156,22,0,1,8,11,361,494.9250944443047,495.50375610857736,"[47, 0, 207]",207,a,0.052414984442293644,colour,0.5
156,22,0,1,8,12,362,496.0218434825074,496.59174404421356,"[17, 0, 237]",237,a,0.04662229854147881,colour,0.5
156,22,0,1,8,13,363,497.09992934402544,497.7996399460826,"[69, 0, 185]",185,l,0.17647369264159352,colour,0.5
156,22,0,1,8,14,364,498.3172322557075,499.0556705148192,"[53, 0, 201]",201,a,0.21520489442627877,colour,0.5
156,22,0,1,8,15,365,499.56719523412175,500.2396473661065,"[81, 0, 173]",173,l,0.14907422580290586,colour,0.5
156,22,0,1,8,16,366,500.7546481695026,501.5997186364839,"[73, 0, 181]",181,l,0.319332635961473,colour,0.5
156,22,0,1,8,17,367,502.11637280508876,502.8637891758699,"[97, 0, 157]",157,l,0.22392976307310164,colour,0.5
156,22,0,1,8,18,368,503.38498635718133,504.0556815424934,"[5, 0, 249]",249,a,0.14729916222859174,colour,0.5
156,22,0,1,8,19,369,504.57255075103603,505.11172936169896,"[92, 0, 162]",162,l,0.01596099976450205,colour,0.5
156,22,0,1,8,20,370,505.61933019408025,506.30372373445425,"[74, 0, 180]",180,l,0.16107786179054528,colour,0.5
156,22,0,1,8,21,371,506.82255429564975,507.48765608109534,"[34, 0, 220]",220,a,0.14183809456881136,colour,0.5
156,22,0,1,8,22,372,507.9943817879539,508.53570764663164,"[29, 0, 225]",225,a,0.01802160171791911,colour,0.5
156,22,0,1,8,23,373,509.05688119714614,509.7916598400334,"[31, 0, 223]",223,a,0.21182727185077965,colour,0.5
156,22,0,1,8,24,374,510.30924742342904,510.9838003296172,"[19, 0, 235]",235,a,0.15122423076536506,colour,0.5
156,22,0,1,8,25,375,511.49674998340197,512.0558603485115,"[21, 0, 233]",233,a,0.03569425584282726,colour,0.5
156,22,0,1,8,26,376,512.5748240296962,513.1997035128297,"[20, 0, 234]",234,a,0.10178553988225758,colour,0.5
156,22,0,1,8,27,377,513.7154534112196,514.4556470415555,"[83, 0, 171]",171,l,0.21692009340040386,colour,0.5
156,22,0,1,8,28,378,514.9654616819462,515.5756542568561,"[95, 0, 159]",159,l,0.08728019462432712,colour,0.5
156,22,0,1,8,29,379,516.0904514419381,516.6317264945246,"[87, 0, 167]",167,l,0.016444248729385436,colour,0.5
156,22,0,1,8,30,380,517.1409054675605,517.8476796961622,"[39, 0, 215]",215,a,0.18418795277830213,colour,0.5
156,22,0,1,8,31,381,518.3596793937031,519.1516818796517,"[79, 0, 175]",175,l,0.2686470290645957,colour,0.5
156,22,0,1,8,32,382,519.6722193689784,520.2956814006902,"[10, 0, 244]",244,a,0.09562460810411721,colour,0.5
156,22,0,1,8,33,383,520.8026402642718,521.4476476371055,"[32, 0, 222]",222,a,0.12178227887488902,colour,0.5
156,22,0,1,8,34,384,521.9607154447585,522.5596735647414,"[8, 0, 246]",246,a,0.08185181627050042,colour,0.5
156,22,0,1,8,35,385,523.079498586827,523.6559996124124,"[28, 0, 226]",226,a,0.05313887319061905,colour,0.5
156,22,0,1,8,36,386,524.1732181622647,524.7516915681772,"[3, 0, 251]",251,a,0.05513252119999379,colour,0.5
156,22,0,1,8,37,387,525.2588067885954,526.2077163080685,"[63, 0, 191]",191,l,0.42571908386889845,colour,0.5
156,22,0,1,8,38,388,526.7288410217734,527.3197249064688,"[14, 0, 240]",240,a,0.06755678472109139,colour,0.5
156,22,0,1,8,39,389,527.8381628033239,528.3676520166919,"[51, 0, 203]",203,a,0.006359823979437351,colour,0.5
156,22,0,1,8,40,390,528.8850800924702,529.5597082232125,"[0, 0, 254]",254,a,0.1513349013403058,colour,0.5
156,22,0,1,8,41,391,530.0726039201254,530.6476823743433,"[96, 0, 158]",158,l,0.05178089253604412,colour,0.5
156,22,0,1,8,42,392,531.1684876789805,531.7356671591988,"[65, 0, 189]",189,l,0.044508133665658534,colour,0.5
156,22,0,1,8,43,393,532.246685786522,533.5436755433911,"[61, 0, 193]",193,a,0.7735870383912697,colour,0.5
156,22,0,1,8,44,394,534.0591942542233,534.7996344321873,"[57, 0, 197]",197,a,0.21725328697357327,colour,0.5
156,22,0,1,8,45,395,535.3091887404444,535.9517097639618,"[9, 0, 245]",245,a,0.11936564033385366,colour,0.5
156,22,0,1,8,46,396,536.465435688151,537.0877016097074,"[18, 0, 236]",236,a,0.09960875345859677,colour,0.5
156,22,0,1,8,47,397,537.6074407733977,538.3198202172061,"[2, 0, 252]",252,a,0.18930479895789176,colour,0.5
156,22,0,1,8,48,398,538.8261493211612,539.5757523244247,"[70, 0, 184]",184,l,0.22623139864299446,colour,0.5
156,22,0,1,8,49,399,540.0917790965177,540.8316564686829,"[54, 0, 200]",200,a,0.21680469647981226,colour,0.5
156,22,0,1,8,50,400,541.3417649180628,541.887672780198,"[75, 0, 179]",179,l,0.022769808070734143,colour,0.5
156,22,0,1,9,1,401,546.3738854160765,546.9116524829296,"[41, 0, 213]",213,a,0.013759401044808328,colour,0.5
156,22,0,1,9,2,402,547.4215325016994,548.1516740027582,"[20, 0, 234]",234,a,0.20684078859630972,colour,0.5
156,22,0,1,9,3,403,548.6714592464268,549.271643408807,"[43, 0, 211]",211,a,0.07671488402411342,colour,0.5
156,22,0,1,9,4,404,549.7815687197726,550.4476314893691,"[97, 0, 157]",157,l,0.1425895526772365,colour,0.5
156,22,0,1,9,5,405,550.9691539874766,551.6876585229766,"[82, 0, 172]",172,l,0.1952132754959166,colour,0.5
156,22,0,1,9,6,406,552.2045931098983,552.8718189065112,"[94, 0, 160]",160,l,0.14396328723523766,colour,0.5
156,22,0,1,9,7,407,553.3849513048772,554.7596791574033,"[69, 0, 185]",185,l,0.8512892940780148,colour,0.5
156,22,0,1,9,8,408,555.2672563589877,555.7996320691891,"[66, 0, 188]",188,l,0.009066727012395859,colour,0.5
156,22,0,1,9,9,409,556.3141200852115,557.0396598904626,"[92, 0, 162]",162,l,0.20217332057654858,colour,0.5
156,22,0,1,9,10,410,557.5484391098144,558.0797415898414,"[76, 0, 178]",178,l,0.007837140001356602,colour,0.5
156,22,0,1,9,11,411,558.5953099252656,559.1596694687614,"[24, 0, 230]",230,a,0.04126875102519989,colour,0.5
156,22,0,1,9,12,412,559.6735478113405,560.23967926763,"[68, 0, 186]",186,l,0.0429299931274727,colour,0.5
156,22,0,1,9,13,413,560.7516277652467,561.3117022650549,"[17, 0, 237]",237,l,0.036427596933208406,colour,0.5
156,22,0,1,9,14,414,561.8300995957106,562.623626265442,"[34, 0, 220]",220,a,0.2701916927471757,colour,0.5
156,22,0,1,9,15,415,563.1425757680554,563.6641518292017,"[88, 0, 166]",166,l,0.010587366065010428,colour,0.5
156,22,0,1,9,16,416,564.175511133275,564.911643424537,"[4, 0, 250]",250,a,0.21323369559831917,colour,0.5
156,22,0,1,9,17,417,565.4254638716811,566.1036665480351,"[31, 0, 223]",223,a,0.15507564996369183,colour,0.5
156,22,0,1,9,18,418,566.6118935954291,567.2236107478384,"[30, 0, 224]",224,a,0.08839241543319076,colour,0.5
156,22,0,1,9,19,419,567.734136280138,568.663719386328,"[63, 0, 191]",191,l,0.40651988284662366,colour,0.5
156,22,0,1,9,20,420,569.1716585324612,569.7996458536945,"[74, 0, 180]",180,l,0.10502964863553643,colour,0.5
156,22,0,1,9,21,421,570.302442947519,571.0476778056473,"[16, 0, 238]",238,a,0.22069077414926142,colour,0.5
156,22,0,1,9,22,422,571.5652059183922,572.551706849481,"[79, 0, 175]",175,l,0.4630119603825733,colour,0.5
156,22,0,1,9,23,423,573.0652921706205,573.6716333263321,"[9, 0, 245]",245,a,0.08304832025896758,colour,0.5
156,22,0,1,9,24,424,574.1902886260068,574.8797462371876,"[90, 0, 164]",164,l,0.1661954956362024,colour,0.5
156,22,0,1,9,25,425,575.393378032255,576.127617893857,"[61, 0, 193]",193,l,0.2109013400040567,colour,0.5
156,22,0,1,9,26,426,576.6447466467507,577.1757155392552,"[8, 0, 246]",246,a,0.007649669307284057,colour,0.5
156,22,0,1,9,27,427,577.6916190375341,578.3516370599391,"[51, 0, 203]",203,a,0.13694180210586637,colour,0.5
156,22,0,1,9,28,428,578.8635115145007,579.4956267349189,"[26, 0, 228]",228,a,0.10862309893127531,colour,0.5
156,22,0,1,9,29,429,580.0042669266695,580.6396660343744,"[38, 0, 216]",216,a,0.11517039348836988,colour,0.5
156,22,0,1,9,30,430,581.157512768521,581.8156407242641,"[49, 0, 205]",205,a,0.13497296639252454,colour,0.5
156,22,0,1,9,31,431,582.3293410484912,582.9596508792602,"[1, 0, 253]",253,a,0.10697052150499076,colour,0.5
156,22,0,1,9,32,432,583.4699330147123,584.1516401319532,"[54, 0, 200]",200,a,0.15844066953286529,colour,0.5
156,22,0,1,9,33,433,584.6730720454361,585.3357764908578,"[25, 0, 229]",229,a,0.13967194210272282,colour,0.5
156,22,0,1,9,34,434,585.8449330147123,586.4956700579496,"[28, 0, 226]",226,a,0.12739930930547416,colour,0.5
156,22,0,1,9,35,435,587.0026454631006,587.5516887325794,"[96, 0, 158]",158,l,0.025778790935873985,colour,0.5
156,22,0,1,9,36,436,588.0649995431304,588.7516584851546,"[15, 0, 239]",239,a,0.16321093123406172,colour,0.5
156,22,0,1,9,37,437,589.2682445184328,590.0556299486198,"[65, 0, 189]",189,l,0.264170182403177,colour,0.5
156,22,0,1,9,38,438,590.5526079689153,591.1596525333589,"[53, 0, 201]",201,a,0.08375251665711403,colour,0.5
156,22,0,1,9,39,439,591.6756060500629,592.3436175693059,"[57, 0, 197]",197,a,0.14497980359010398,colour,0.5
156,22,0,1,9,40,440,592.8631456316216,593.4715966198128,"[37, 0, 217]",217,a,0.08523692190647125,colour,0.5
156,22,0,1,9,41,441,593.9881074285368,594.6637170233298,"[10, 0, 244]",244,a,0.14911557966843247,colour,0.5
156,22,0,1,9,42,442,595.1789883988677,595.7676773803541,"[29, 0, 225]",225,a,0.06561866891570389,colour,0.5
156,22,0,1,9,43,443,596.2882920635166,596.8956119263312,"[19, 0, 235]",235,a,0.0840262396959588,colour,0.5
156,22,0,1,9,44,444,597.4132574050454,598.0637010331266,"[95, 0, 159]",159,l,0.12704878649674356,colour,0.5
156,22,0,1,9,45,445,598.5851806020364,599.2475963582983,"[42, 0, 212]",212,a,0.13905833009630442,colour,0.5
156,22,0,1,9,46,446,599.7569836758776,600.3196532265283,"[78, 0, 176]",176,l,0.03936726285610348,colour,0.5
156,22,0,1,9,47,447,600.8351266450481,601.4156421421794,"[62, 0, 192]",192,l,0.057134834001772106,colour,0.5
156,22,0,1,9,48,448,601.9289242019877,602.5995969381183,"[99, 0, 155]",155,l,0.14798642334062606,colour,0.5
156,22,0,1,9,49,449,603.1158131500706,603.6557002895279,"[21, 0, 233]",233,a,0.014262736192904413,colour,0.5
156,22,0,1,9,50,450,604.1527074543992,604.8316218102118,"[93, 0, 161]",161,l,0.15563766798004508,colour,0.5
156,22,0,1,10,1,451,609.4652797251474,610.095751820365,"[60, 0, 194]",194,l,0.10679604765027761,colour,0.5
156,22,0,1,10,2,452,610.6067369708326,611.2875988946762,"[13, 0, 241]",241,a,0.15764037449844182,colour,0.5
156,22,0,1,10,3,453,611.794167457032,612.3276979232905,"[56, 0, 198]",198,a,0.010171070927754045,colour,0.5
156,22,0,1,10,4,454,612.840920118615,613.6956181490095,"[75, 0, 179]",179,l,0.33176792704034597,colour,0.5
156,22,0,1,10,5,455,614.2160197616322,614.7836230201647,"[51, 0, 203]",203,a,0.04418281698599458,colour,0.5
156,22,0,1,10,6,456,615.2941107432125,615.9116753260605,"[41, 0, 213]",213,a,0.09418313205242157,colour,0.5
156,22,0,1,10,7,457,616.4191107432125,617.1356129660271,"[85, 0, 169]",169,l,0.19340197800192982,colour,0.5
156,22,0,1,10,8,458,617.6535912445979,618.2316357523669,"[20, 0, 234]",234,a,0.053097125492058694,colour,0.5
156,22,0,1,10,9,459,618.7493812680477,619.4076195007656,"[29, 0, 225]",225,a,0.134989901795052,colour,0.5
156,22,0,1,10,10,460,619.9211839480558,620.4796365904622,"[40, 0, 214]",214,a,0.03516374540049583,colour,0.5
156,22,0,1,10,11,461,620.9992757173022,621.5516643141164,"[33, 0, 221]",221,a,0.02917689352761954,colour,0.5
156,22,0,1,10,12,462,622.0617904865649,622.6476008482277,"[98, 0, 156]",156,l,0.06250295392237604,colour,0.5
156,22,0,1,10,13,463,623.1555754403817,623.8715999281267,"[18, 0, 236]",236,a,0.19280136295128614,colour,0.5
156,22,0,1,10,14,464,624.3908077937085,625.095608066651,"[76, 0, 178]",178,l,0.18161732039880008,colour,0.5
156,22,0,1,10,15,465,625.6095671475632,626.1596088164952,"[87, 0, 167]",167,l,0.02682681498117745,colour,0.5
156,22,0,1,10,16,466,626.6720555290813,627.2637440410908,"[26, 0, 228]",228,a,0.06917155301198363,colour,0.5
156,22,0,1,10,17,467,627.781277667731,629.0076335216872,"[48, 0, 206]",206,a,0.7028873632661998,colour,0.5
156,22,0,1,10,18,468,629.5157546245027,630.1515775104053,"[3, 0, 251]",251,a,0.11259227804839611,colour,0.5
156,22,0,1,10,19,469,630.6453980678925,631.1916233698139,"[52, 0, 202]",202,l,0.023195555433630943,colour,0.5
156,22,0,1,10,20,470,631.704750254401,632.2320741028525,"[15, 0, 239]",239,a,0.0039943852461874485,colour,0.5
156,22,0,1,10,21,471,632.7516911743442,633.7115779672749,"[47, 0, 207]",207,a,0.43658883741591126,colour,0.5
156,22,0,1,10,22,472,634.2203764851438,634.8955812063068,"[91, 0, 163]",163,l,0.15188825491350144,colour,0.5
156,22,0,1,10,23,473,635.4079318204895,636.0716449053725,"[81, 0, 173]",173,a,0.1405907846055925,colour,0.5
156,22,0,1,10,24,474,636.5815520995529,637.3915919410065,"[74, 0, 180]",180,l,0.28672967676538974,colour,0.5
156,22,0,1,10,25,475,637.9096950687235,638.4796373781282,"[97, 0, 157]",157,l,0.04658645857125521,colour,0.5
156,22,0,1,10,26,476,638.9878329179483,639.5116917099804,"[2, 0, 252]",252,a,0.0011772054713219404,colour,0.5
156,22,0,1,10,27,477,640.0344520658255,640.80758224288,"[19, 0, 235]",235,a,0.24988578469492495,colour,0.5
156,22,0,1,10,28,478,641.3156927119708,641.8956347693456,"[95, 0, 159]",159,l,0.0553444103570655,colour,0.5
156,22,0,1,10,29,479,642.4112074370496,643.1195842247689,"[5, 0, 249]",249,a,0.18500872771255672,colour,0.5
156,22,0,1,10,30,480,643.6272839125013,644.311598289758,"[28, 0, 226]",226,a,0.16140436008572578,colour,0.5
156,22,0,1,10,31,481,644.8304493309697,645.3916817378486,"[27, 0, 227]",227,a,0.03782653762027621,colour,0.5
156,22,0,1,10,32,482,645.9086620109156,646.5115849777358,"[45, 0, 209]",209,a,0.0803071524715051,colour,0.5
156,22,0,1,10,33,483,647.0178057741141,647.6395975052146,"[6, 0, 248]",248,a,0.09847368951886892,colour,0.5
156,22,0,1,10,34,484,648.1605564097408,648.8076050860109,"[88, 0, 166]",166,l,0.12380546540953219,colour,0.5
156,22,0,1,10,35,485,649.3167395544006,649.8956375262933,"[68, 0, 186]",186,l,0.05554527183994651,colour,0.5
156,22,0,1,10,36,486,650.4042548750294,650.9676140499068,"[83, 0, 171]",171,l,0.04005216096993536,colour,0.5
156,22,0,1,10,37,487,651.4883665791713,653.0956017650897,"[94, 0, 160]",160,l,1.083967556594871,colour,0.5
156,22,0,1,10,38,488,653.6133575207787,654.1436182782054,"[84, 0, 170]",170,l,0.019412665395066142,colour,0.5
156,22,0,1,10,39,489,654.6427297617774,655.2876008639578,"[49, 0, 205]",205,a,0.1215124943992123,colour,0.5
156,22,0,1,10,40,490,655.7989637126448,656.3996409700485,"[16, 0, 238]",238,a,0.0777294309809804,colour,0.5
156,22,0,1,10,41,491,656.9083465402946,657.5356237574015,"[53, 0, 201]",201,a,0.10412577237002552,colour,0.5
156,22,0,1,10,42,492,658.0489617433632,658.7915928862058,"[86, 0, 168]",168,l,0.21960139647126198,colour,0.5
156,22,0,1,10,43,493,659.2929725284921,660.0875917266821,"[82, 0, 172]",172,l,0.2713429043069482,colour,0.5
156,22,0,1,10,44,494,660.585148700513,661.3035843129037,"[90, 0, 164]",164,l,0.1938383593223989,colour,0.5
156,22,0,1,10,45,495,661.8206433551386,662.4235990112647,"[70, 0, 184]",184,l,0.07963249448221177,colour,0.5
156,22,0,1,10,46,496,662.9300159428967,663.5275597621221,"[42, 0, 212]",212,a,0.06990134937223047,colour,0.5
156,22,0,1,10,47,497,664.0439890447306,664.7675734050572,"[36, 0, 218]",218,a,0.20026868174318224,colour,0.5
156,22,0,1,10,48,498,665.2784341000952,665.8555806392105,"[1, 0, 253]",253,a,0.05402502662036568,colour,0.5
156,22,0,1,10,49,499,666.3721009001601,666.9675695452606,"[37, 0, 217]",217,a,0.0725991940125823,colour,0.5
156,22,0,1,10,50,500,667.4814085032558,668.2555863105226,"[78, 0, 176]",176,l,0.25084795022848994,colour,0.5
156,22,0,1,11,1,501,672.8733249732759,673.4556273493217,"[8, 0, 246]",246,a,0.058284864062443376,colour,0.5
156,22,0,1,11,2,502,673.9678412990179,674.6235884561902,"[43, 0, 211]",211,a,0.13243423553649336,colour,0.5
156,22,0,1,11,3,503,675.1397223543609,675.6955886106007,"[78, 0, 176]",176,l,0.03261950076557696,colour,0.5
156,22,0,1,11,4,504,676.2040117933648,677.0395385858137,"[52, 0, 202]",202,a,0.31218315090518445,colour,0.5
156,22,0,1,11,5,505,677.5478365255985,678.2476711890195,"[80, 0, 174]",174,l,0.17652883101254702,colour,0.5
156,22,0,1,11,6,506,678.7665545255877,679.3116085297661,"[65, 0, 189]",189,l,0.02171115030068904,colour,0.5
156,22,0,1,11,7,507,679.8291063163197,680.607519936515,"[26, 0, 228]",228,a,0.25515189848374575,colour,0.5
156,22,0,1,11,8,508,681.125953500974,681.6955917613814,"[24, 0, 230]",230,a,0.04409223247785121,colour,0.5
156,22,0,1,11,9,509,682.2066761610331,682.9035325616132,"[99, 0, 155]",155,l,0.1735281189903617,colour,0.5
156,22,0,1,11,10,510,683.4098545763409,684.0395582781639,"[48, 0, 206]",206,a,0.10639156796969473,colour,0.5
156,22,0,1,11,11,511,684.5494556261692,685.0876748282462,"[85, 0, 169]",169,l,0.012338798958808184,colour,0.5
156,22,0,1,11,12,512,685.5987942800857,686.1515901135281,"[94, 0, 160]",160,l,0.029400991857983172,colour,0.5
156,22,0,1,11,13,513,686.66349253105,687.2075627081795,"[82, 0, 172]",172,l,0.020714326296001673,colour,0.5
156,22,0,1,11,14,514,687.7258635465987,688.3035713160643,"[10, 0, 244]",244,a,0.05446062015835196,colour,0.5
156,22,0,1,11,15,515,688.8196445619687,689.5275904821465,"[69, 0, 185]",185,l,0.1845628940500319,colour,0.5
156,22,0,1,11,16,516,690.0383751649642,690.5835847383132,"[44, 0, 210]",210,l,0.020182634238153696,colour,0.5
156,22,0,1,11,17,517,691.1025826840196,691.6476205404615,"[97, 0, 157]",157,l,0.021375199663452804,colour,0.5
156,22,0,1,11,18,518,692.1655070530251,692.8235814457294,"[73, 0, 181]",181,l,0.13482054800260812,colour,0.5
156,22,0,1,11,19,519,693.3373120961478,693.959631974576,"[11, 0, 243]",243,a,0.09900380612816662,colour,0.5
156,22,0,1,11,20,520,694.4780765668256,695.2315424109111,"[15, 0, 239]",239,a,0.23026556242257357,colour,0.5
156,22,0,1,11,21,521,695.7436437206343,696.3756088857772,"[54, 0, 200]",200,a,0.10653217090293765,colour,0.5
156,22,0,1,11,22,522,696.8863415810047,697.503571788664,"[27, 0, 227]",227,a,0.09384324308484793,colour,0.5
156,22,0,1,11,23,523,698.0113758456428,698.559602278634,"[36, 0, 218]",218,a,0.025341228116303682,colour,0.5
156,22,0,1,11,24,524,699.0738705287222,699.6316020392114,"[29, 0, 225]",225,a,0.03469979495275766,colour,0.5
156,22,0,1,11,25,525,700.1520347655751,700.7355348269921,"[51, 0, 203]",203,a,0.06006622908171266,colour,0.5
156,22,0,1,11,26,526,701.2457448886707,701.8075739721535,"[6, 0, 248]",248,a,0.03846220497507602,colour,0.5
156,22,0,1,11,27,527,702.3238394148648,702.8876243371051,"[9, 0, 245]",245,a,0.040459003765136003,colour,0.5
156,22,0,1,11,28,528,703.4019591471879,704.0158125199378,"[4, 0, 250]",250,a,0.09051170037128031,colour,0.5
156,22,0,1,11,29,529,704.5270174363395,705.2235894802725,"[56, 0, 198]",198,a,0.17348794674035162,colour,0.5
156,22,0,1,11,30,530,705.7325703487732,706.4875584073598,"[37, 0, 217]",217,a,0.23175508773420006,colour,0.5
156,22,0,1,11,31,531,706.9980843334924,707.5276263221167,"[89, 0, 165]",165,l,0.006178654846735299,colour,0.5
156,22,0,1,11,32,532,708.0450154072605,708.6555781973293,"[81, 0, 173]",173,l,0.08731012686621398,colour,0.5
156,22,0,1,11,33,533,709.1700193457073,709.8075968151679,"[31, 0, 223]",223,a,0.11429093556944281,colour,0.5
156,22,0,1,11,34,534,710.3266026377678,710.9595677776961,"[20, 0, 234]",234,a,0.10959314135834575,colour,0.5
156,22,0,1,11,35,535,711.4673348130891,712.0395783643471,"[3, 0, 251]",251,a,0.04934338014572859,colour,0.5
156,22,0,1,11,36,536,712.561064628535,713.2395630830433,"[66, 0, 188]",188,l,0.15521546523086727,colour,0.5
156,22,0,1,11,37,537,713.7484821177786,714.3435419509187,"[1, 0, 253]",253,a,0.07160709623713046,colour,0.5
156,22,0,1,11,38,538,714.8579295362579,715.7998337182216,"[76, 0, 178]",178,l,0.4187968479236588,colour,0.5
156,22,0,1,11,39,539,716.3133887132863,717.0315769906156,"[40, 0, 214]",214,a,0.19510496780276299,colour,0.5
156,22,0,1,11,40,540,717.5478696086211,718.207585945027,"[39, 0, 215]",215,a,0.1368090760661289,colour,0.5
156,22,0,1,11,41,541,718.7196726825787,719.3035724975634,"[19, 0, 235]",235,a,0.06060028413776308,colour,0.5
156,22,0,1,11,42,542,719.8133788672276,720.3678615427343,"[57, 0, 197]",197,l,0.03106735402252525,colour,0.5
156,22,0,1,11,43,543,720.875889697927,721.5915549981873,"[55, 0, 199]",199,a,0.1924945570062846,colour,0.5
156,22,0,1,11,44,544,722.1102898548124,722.8235290643061,"[84, 0, 170]",170,l,0.19000899547245353,colour,0.5
156,22,0,1,11,45,545,723.3468727058498,723.8955583632924,"[71, 0, 183]",183,l,0.025625584879890084,colour,0.5
156,22,0,1,11,46,546,724.4093394258525,724.9835915912408,"[72, 0, 182]",182,l,0.0509845360647887,colour,0.5
156,22,0,1,11,47,547,725.5031204412226,726.5756077830447,"[50, 0, 204]",204,l,0.5491582725662738,colour,0.5
156,22,0,1,11,48,548,727.0957896296168,727.7115732411621,"[18, 0, 236]",236,a,0.0926333483075723,colour,0.5
156,22,0,1,11,49,549,728.2209388971096,729.0235740414355,"[95, 0, 159]",159,l,0.27939350879751146,colour,0.5
156,22,0,1,11,50,550,729.53568952973,730.2315676170401,"[47, 0, 207]",207,a,0.17248757812194526,colour,0.5
156,22,0,1,12,1,551,734.7124239483383,735.2715744856978,"[30, 0, 224]",224,a,0.034999511670321226,colour,0.5
156,22,0,1,12,2,552,735.7913947816705,736.5515607326524,"[12, 0, 242]",242,a,0.2370783091755584,colour,0.5
156,22,0,1,12,3,553,737.0726110093528,737.6875596676255,"[44, 0, 210]",210,a,0.09165936731733382,colour,0.5
156,22,0,1,12,4,554,738.1990016793134,740.1915130929556,"[92, 0, 162]",162,l,1.4819504352053627,colour,0.5
156,22,0,1,12,5,555,740.7022115236614,741.3917030055309,"[3, 0, 251]",251,a,0.16625654185190797,colour,0.5
156,22,0,1,12,6,556,741.9053414958762,742.551520560286,"[42, 0, 212]",212,l,0.12328480102587491,colour,0.5
156,22,0,1,12,7,557,743.0644209834281,743.6315791960806,"[51, 0, 203]",203,a,0.04394887248054147,colour,0.5
156,22,0,1,12,8,558,744.1424469804624,745.1596033025999,"[41, 0, 213]",213,a,0.4940434742020443,colour,0.5
156,22,0,1,12,9,559,745.6754327579401,746.5356095789466,"[9, 0, 245]",245,a,0.3371596777578816,colour,0.5
156,22,0,1,12,10,560,747.050462690182,747.7675103896763,"[17, 0, 237]",237,a,0.19431648834142834,colour,0.5
156,22,0,1,12,11,561,748.2845150810899,748.8235452119261,"[79, 0, 175]",175,l,0.015615203068591654,colour,0.5
156,22,0,1,12,12,562,749.3313299703877,749.9115386614576,"[13, 0, 241]",241,a,0.0567496526055038,colour,0.5
156,22,0,1,12,13,563,750.4251582472352,750.9915409772657,"[88, 0, 166]",166,l,0.043277365155518055,colour,0.5
156,22,0,1,12,14,564,751.5033248473192,752.2076399018988,"[61, 0, 193]",193,l,0.18136486515868455,colour,0.5
156,22,0,1,12,15,565,752.7221495795529,753.4315432773437,"[24, 0, 230]",230,a,0.18409854965284467,colour,0.5
156,22,0,1,12,16,566,753.9429459044477,754.5835823751986,"[19, 0, 235]",235,a,0.11732000450138003,colour,0.5
156,22,0,1,12,17,567,755.0992802859982,755.84754618234,"[66, 0, 188]",188,a,0.22504946705885231,colour,0.5
156,22,0,1,12,18,568,756.3647954522166,757.0638243069407,"[59, 0, 195]",195,a,0.17568954546004534,colour,0.5
156,22,0,1,12,19,569,757.5835445660632,758.3915049009956,"[16, 0, 238]",238,a,0.28458912414498627,colour,0.5
156,22,0,1,12,20,570,758.9117202244233,759.6075640472118,"[63, 0, 191]",191,a,0.1716301755513996,colour,0.5
156,22,0,1,12,21,571,760.1159557222854,760.823559390381,"[36, 0, 218]",218,a,0.18433682643808424,colour,0.5
156,22,0,1,12,22,572,761.3347729714587,761.9754866360454,"[48, 0, 206]",206,a,0.11745273065753281,colour,0.5
156,22,0,1,12,23,573,762.4788571693935,763.2555142367491,"[14, 0, 240]",240,a,0.25333941960707307,colour,0.5
156,22,0,1,12,24,574,763.7757768216543,764.4155421053292,"[82, 0, 172]",172,l,0.11677846650127321,colour,0.5
156,22,0,1,12,25,575,764.9319536648691,765.5995035965461,"[39, 0, 215]",215,a,0.144127914798446,colour,0.5
156,22,0,1,12,26,576,766.145147975767,766.9995525910053,"[53, 0, 201]",201,a,0.32548096461687237,colour,0.5
156,22,0,1,12,27,577,767.5018073589308,768.1754697794095,"[94, 0, 160]",160,l,0.15030972042586654,colour,0.5
156,22,0,1,12,28,578,768.6892831374425,769.4635298677022,"[33, 0, 221]",221,a,0.2508097472600639,colour,0.5
156,22,0,1,12,29,579,769.9705915250815,770.6074978810502,"[76, 0, 178]",178,l,0.11369189585093409,colour,0.5
156,22,0,1,12,30,580,771.126833746559,771.6555384189123,"[81, 0, 173]",173,l,0.005354729131795466,colour,0.5
156,22,0,1,12,31,581,772.1737931773532,772.7515442698495,"[25, 0, 229]",229,a,0.05456617078743875,colour,0.5
156,22,0,1,12,32,582,773.2674442235148,774.0315206706291,"[27, 0, 227]",227,a,0.24072217161301523,colour,0.5
156,22,0,1,12,33,583,774.5406976743834,775.2155199710978,"[32, 0, 222]",222,a,0.15155821200460196,colour,0.5
156,22,0,1,12,34,584,775.7281001975061,776.4555414909264,"[65, 0, 189]",189,l,0.20311855082400143,colour,0.5
156,22,0,1,12,35,585,776.9718293828191,777.5435235189507,"[69, 0, 185]",185,l,0.04841272218618542,colour,0.5
156,22,0,1,12,36,586,778.0499254843453,778.8875573833939,"[28, 0, 226]",226,a,0.3142685651546344,colour,0.5
156,22,0,1,12,37,587,779.3936974412063,779.9355754719581,"[90, 0, 164]",164,l,0.01856629061512649,colour,0.5
156,22,0,1,12,38,588,780.4418722804403,780.9675431576325,"[58, 0, 196]",196,a,0.002734866109676659,colour,0.5
156,22,0,1,12,39,589,781.488854948082,782.1755434286315,"[74, 0, 180]",180,l,0.1634251835057512,colour,0.5
156,22,0,1,12,40,590,782.6918703112751,783.3195228634868,"[54, 0, 200]",200,a,0.10492449183948338,colour,0.5
156,22,0,1,12,41,591,783.8318734777858,784.3675866381964,"[80, 0, 174]",174,l,0.012253728113137186,colour,0.5
156,22,0,1,12,42,592,784.8787931300467,785.4555619708262,"[18, 0, 236]",236,l,0.05341771605890244,colour,0.5
156,22,0,1,12,43,593,785.9754775775364,786.5755353153218,"[5, 0, 249]",249,a,0.07699569594115019,colour,0.5
156,22,0,1,12,44,594,787.0848934883252,788.111542678671,"[37, 0, 217]",217,a,0.5037151485448703,colour,0.5
156,22,0,1,12,45,595,788.606477820198,789.1995522759389,"[62, 0, 192]",192,a,0.06864419323392212,colour,0.5
156,22,0,1,12,46,596,789.717051637941,790.3515413553687,"[2, 0, 252]",252,a,0.11111023591365665,colour,0.5
156,22,0,1,12,47,597,790.8452004360734,791.4395143250003,"[73, 0, 181]",181,l,0.07125657331198454,colour,0.5
156,22,0,1,12,48,598,791.9546525806654,792.6875450953376,"[71, 0, 183]",183,l,0.20958077465184033,colour,0.5
156,22,0,1,12,49,599,793.1928454737645,793.7355919346446,"[87, 0, 167]",167,l,0.019441416137851775,colour,0.5
156,22,0,1,12,50,600,794.2554197136778,794.8155202073976,"[70, 0, 184]",184,l,0.0368375905090943,colour,0.5
156,22,0,1,13,1,601,803.4250763272867,804.2076170588844,"[29, 0, 225]",225,a,0.2585909611079842,colour,0.5
156,22,0,1,13,2,602,804.7224741085665,805.3115010098554,"[33, 0, 221]",221,a,0.06565923511516303,colour,0.5
156,22,0,1,13,3,603,805.8317714716541,806.5115392915905,"[2, 0, 252]",252,a,0.1566467012744397,colour,0.5
156,22,0,1,13,4,604,807.0208462645533,807.823471168871,"[35, 0, 219]",219,a,0.2793462472036481,colour,0.5
156,22,0,1,13,5,605,808.3332653292455,808.9835234559141,"[19, 0, 235]",235,a,0.13632425176911056,colour,0.5
156,22,0,1,13,6,606,809.4958067224361,810.0714972130954,"[89, 0, 165]",165,l,0.05240907671395689,colour,0.5
156,22,0,1,13,7,607,810.5894660394406,811.1915249084122,"[73, 0, 181]",181,l,0.07858447055332363,colour,0.5
156,22,0,1,13,8,608,811.6989622947294,812.2955439484213,"[44, 0, 210]",210,a,0.07331796281505376,colour,0.5
156,22,0,1,13,9,609,812.7958046745043,813.871492408216,"[34, 0, 220]",220,a,0.5523988367058337,colour,0.5
156,22,0,1,13,10,610,814.389564028359,815.0395354351494,"[17, 0, 237]",237,a,0.12670298980083317,colour,0.5
156,22,0,1,13,11,611,815.536400815472,816.1275340046268,"[86, 0, 168]",168,l,0.06781672302167863,colour,0.5
156,22,0,1,13,12,612,816.6414765440859,817.1915028530639,"[23, 0, 231]",231,a,0.027178519405424595,colour,0.5
156,22,0,1,13,13,613,817.7067943147849,818.7114751734771,"[97, 0, 157]",157,l,0.4811418695608154,colour,0.5
156,22,0,1,13,14,614,819.223468963406,819.8315257118084,"[8, 0, 246]",246,a,0.08482653449755162,colour,0.5
156,22,0,1,13,15,615,820.3484181571985,820.9515486808959,"[71, 0, 183]",183,l,0.07980263594072312,colour,0.5
156,22,0,1,13,16,616,821.4578561233357,822.1194995478727,"[72, 0, 182]",182,l,0.14136154111474752,colour,0.5
156,22,0,1,13,17,617,822.627327629365,823.2237320524873,"[63, 0, 191]",191,l,0.07311395066790283,colour,0.5
156,22,0,1,13,18,618,823.736729755532,824.4395844294922,"[5, 0, 249]",249,a,0.1795070938533172,colour,0.5
156,22,0,1,13,19,619,824.9555182539625,825.6954547029454,"[51, 0, 203]",203,a,0.21564600174315274,colour,0.5
156,22,0,1,13,20,620,826.2067368132994,826.9274957227753,"[43, 0, 211]",211,a,0.19809150137007236,colour,0.5
156,22,0,1,13,21,621,827.4423756155884,828.4635294738691,"[75, 0, 179]",179,l,0.49804849352221936,colour,0.5
156,22,0,1,13,22,622,828.9715324229328,829.5435432111844,"[37, 0, 217]",217,a,0.0487841188441962,colour,0.5
156,22,0,1,13,23,623,830.0528832671698,830.7434755484574,"[1, 0, 253]",253,a,0.16734513186383992,colour,0.5
156,22,0,1,13,24,624,831.2560156026157,831.8315387087641,"[88, 0, 166]",166,l,0.052218455355614424,colour,0.5
156,22,0,1,13,25,625,832.3497020949144,832.9675053483807,"[98, 0, 156]",156,l,0.09462266403716058,colour,0.5
156,22,0,1,13,26,626,833.4776008009212,834.0638392730616,"[99, 0, 155]",155,l,0.06296020897570997,colour,0.5
156,22,0,1,13,27,627,834.5713152562967,835.119481037138,"[90, 0, 164]",164,l,0.024879246833734214,colour,0.5
156,22,0,1,13,28,628,835.6338272686116,836.1995243128622,"[78, 0, 176]",176,l,0.04241484263911843,colour,0.5
156,22,0,1,13,29,629,836.7119497578824,838.0314982214477,"[56, 0, 198]",198,a,0.7962355419294909,colour,0.5
156,22,0,1,13,30,630,838.5401009978959,839.2474384261295,"[53, 0, 201]",201,a,0.18397645745426416,colour,0.5
156,22,0,1,13,31,631,839.7614014456049,840.5114892731654,"[0, 0, 254]",254,a,0.22555792203638703,colour,0.5
156,22,0,1,13,32,632,841.028560918523,841.6314464700408,"[21, 0, 233]",233,a,0.0795659344876185,colour,0.5
156,22,0,1,13,33,633,842.1379205093253,842.8554892669199,"[47, 0, 207]",207,a,0.19427710364107043,colour,0.5
156,22,0,1,13,34,634,843.3723127893172,844.0554464164888,"[22, 0, 232]",232,a,0.1598132224753499,colour,0.5
156,22,0,1,13,35,635,844.5754230692983,845.1514739289414,"[74, 0, 180]",180,l,0.052955734892748296,colour,0.5
156,22,0,1,13,36,636,845.6691635184688,846.3994527116884,"[7, 0, 247]",247,a,0.20472701755352318,colour,0.5
156,22,0,1,13,37,637,846.9058152926154,847.6234372194158,"[82, 0, 172]",172,l,0.1944161313585937,colour,0.5
156,22,0,1,13,38,638,848.1402843724936,849.1834876947105,"[60, 0, 194]",194,a,0.5199282098328695,colour,0.5
156,22,0,1,13,39,639,849.7035234243376,850.2635069459211,"[79, 0, 175]",175,l,0.04050390224438161,colour,0.5
156,22,0,1,13,40,640,850.7778645989019,852.1675499317935,"[58, 0, 196]",196,l,0.8664377896348014,colour,0.5
156,22,0,1,13,41,641,852.6884154948639,853.2474793860456,"[31, 0, 223]",223,a,0.035784446517936885,colour,0.5
156,22,0,1,13,42,642,853.7670866114786,854.5035127117299,"[18, 0, 236]",236,a,0.2112857336178422,colour,0.5
156,22,0,1,13,43,643,855.0189924318111,855.6874643568881,"[50, 0, 204]",204,a,0.14642364264000207,colour,0.5
156,22,0,1,13,44,644,856.2052338971989,856.8554939930327,"[48, 0, 206]",206,a,0.12699404184240848,colour,0.5
156,22,0,1,13,45,645,857.3727015152108,858.2154679835076,"[70, 0, 184]",184,l,0.3181365259224549,colour,0.5
156,22,0,1,13,46,646,858.73336000985,859.4394828173099,"[24, 0, 230]",230,a,0.18276144284754992,colour,0.5
156,22,0,1,13,47,647,859.9536888396833,860.6714746063808,"[77, 0, 177]",177,l,0.19448899279814214,colour,0.5
156,22,0,1,13,48,648,861.1880559135461,861.703474587528,"[55, 0, 199]",199,l,0.004754508030600846,colour,0.5
156,22,0,1,13,49,649,862.2224642623914,862.9354892196134,"[20, 0, 234]",234,a,0.18701064644847065,colour,0.5
156,22,0,1,13,50,650,863.4568695393391,864.1354755137581,"[38, 0, 216]",216,a,0.15568926185369492,colour,0.5
156,22,0,1,14,1,651,869.3468888535863,870.3194704820635,"[4, 0, 250]",250,a,0.44745544029865414,colour,0.5
156,22,0,1,14,2,652,870.8330176002346,871.4154995699646,"[28, 0, 226]",226,a,0.05921788502018899,colour,0.5
156,22,0,1,14,3,653,871.9255142840557,872.9994627941633,"[2, 0, 252]",252,a,0.5511188374366611,colour,0.5
156,22,0,1,14,4,654,873.5060112703359,874.4314857758582,"[5, 0, 249]",249,a,0.402137165539898,colour,0.5
156,22,0,1,14,5,655,874.9436111102114,875.7354666916654,"[19, 0, 235]",235,a,0.2685627460014075,colour,0.5
156,22,0,1,14,6,656,876.2561727471184,876.9354793735547,"[21, 0, 233]",233,a,0.155997249414213,colour,0.5
156,22,0,1,14,7,657,877.4435646364,878.1034743512282,"[76, 0, 178]",178,l,0.13657788862474263,colour,0.5
156,22,0,1,14,8,658,878.6153992179316,879.2874874363188,"[12, 0, 242]",242,a,0.14679543324746192,colour,0.5
156,22,0,1,14,9,659,879.8048729768489,880.3675200783182,"[60, 0, 194]",194,l,0.039401921443641186,colour,0.5
156,22,0,1,14,10,660,880.8830868382938,881.671445855638,"[77, 0, 177]",177,l,0.2652477448573336,colour,0.5
156,22,0,1,14,11,661,882.1799068475375,882.94347641489,"[69, 0, 185]",185,l,0.2401916611706838,colour,0.5
156,22,0,1,14,12,662,883.4611407982884,884.4795523075154,"[90, 0, 164]",164,l,0.4955483595840633,colour,0.5
156,22,0,1,14,13,663,884.9923916844418,885.5834976984188,"[30, 0, 224]",224,a,0.06690300058107823,colour,0.5
156,22,0,1,14,14,664,886.1031395820901,886.6554757973645,"[84, 0, 170]",170,l,0.029182801255956292,colour,0.5
156,22,0,1,14,15,665,887.1682029282674,887.7754767111037,"[46, 0, 208]",208,a,0.0842704240931198,colour,0.5
156,22,0,1,14,16,666,888.2931552729569,889.0554460226558,"[34, 0, 220]",220,a,0.23899476346559823,colour,0.5
156,22,0,1,14,17,667,889.5744266391266,890.3114746221108,"[51, 0, 203]",203,a,0.21382446447387338,colour,0.5
156,22,0,1,14,18,668,890.8243856790941,891.3515330846421,"[79, 0, 175]",175,l,0.001805389765650034,colour,0.5
156,22,0,1,14,19,669,891.8700651106192,892.4955712025985,"[94, 0, 160]",160,l,0.10225776105653495,colour,0.5
156,22,0,1,14,20,670,893.0106688921805,893.6394632037263,"[13, 0, 241]",241,a,0.10552668222226202,colour,0.5
156,22,0,1,14,21,671,894.1535841553705,894.7194655195344,"[73, 0, 181]",181,l,0.041414473904296756,colour,0.5
156,22,0,1,14,22,672,895.2356328946771,895.8477950929664,"[42, 0, 212]",212,a,0.08914899348746985,colour,0.5
156,22,0,1,14,23,673,896.3635229360079,897.0874601821415,"[86, 0, 168]",168,l,0.19929391297046095,colour,0.5
156,22,0,1,14,24,674,897.5932276617968,898.751446596114,"[58, 0, 196]",196,l,0.634979267953895,colour,0.5
156,22,0,1,14,25,675,899.2635553888977,899.983424600563,"[38, 0, 216]",216,a,0.19657401309814304,colour,0.5
156,22,0,1,14,26,676,900.4979673612397,901.1114513064967,"[33, 0, 221]",221,a,0.09033880208153278,colour,0.5
156,22,0,1,14,27,677,901.6229764196323,902.27144766727,"[80, 0, 174]",174,l,0.1251752614043653,colour,0.5
156,22,0,1,14,28,678,902.7792367581278,903.3834562657867,"[48, 0, 206]",206,a,0.08097984141204506,colour,0.5
156,22,0,1,14,29,679,903.9041296320502,904.6234809362795,"[93, 0, 161]",161,l,0.1966689300024882,colour,0.5
156,22,0,1,14,30,680,905.1385987119284,905.6954755767947,"[44, 0, 210]",210,a,0.03354622016195208,colour,0.5
156,22,0,1,14,31,681,906.2166160442866,906.9194187306566,"[65, 0, 189]",189,l,0.17936334013938904,colour,0.5
156,22,0,1,14,32,682,907.4354356565746,908.1194369263249,"[68, 0, 186]",186,l,0.16102508641779423,colour,0.5
156,22,0,1,14,33,683,908.6385620842921,909.2474431522423,"[14, 0, 240]",240,a,0.08351857215166092,colour,0.5
156,22,0,1,14,34,684,909.7656293815235,910.5194461423671,"[82, 0, 172]",172,l,0.23079567903187126,colour,0.5
156,22,0,1,14,35,685,911.0312646707753,911.6234265855746,"[0, 0, 254]",254,a,0.06884308555163443,colour,0.5
156,22,0,1,14,36,686,912.1405864523258,912.7674394974019,"[29, 0, 225]",225,a,0.10353776044212282,colour,0.5
156,22,0,1,14,37,687,913.281252855435,913.8634382591117,"[41, 0, 213]",213,a,0.05891580518800765,colour,0.5
156,22,0,1,14,38,688,914.3754285043105,915.135603513685,"[99, 0, 155]",155,l,0.2371409306069836,colour,0.5
156,22,0,1,14,39,689,915.6423626973992,916.2314916048199,"[37, 0, 217]",217,a,0.06601172720547765,colour,0.5
156,22,0,1,14,40,690,916.75168014667,917.311494708294,"[18, 0, 236]",236,a,0.03640869236551225,colour,0.5
156,22,0,1,14,41,691,917.8308022168931,918.4317067234078,"[75, 0, 179]",179,l,0.07759434182662517,colour,0.5
156,22,0,1,14,42,692,918.940146841458,919.6314240208594,"[95, 0, 159]",159,l,0.16828090988565236,colour,0.5
156,22,0,1,14,43,693,920.14327996457,920.7914140801877,"[88, 0, 166]",166,l,0.12479244323913008,colour,0.5
156,22,0,1,14,44,694,921.3013724742923,921.8634922159836,"[7, 0, 247]",247,a,0.038841478526592255,colour,0.5
156,22,0,1,14,45,695,922.379461092758,923.3434344310081,"[57, 0, 197]",197,a,0.4405981890158728,colour,0.5
156,22,0,1,14,46,696,923.8638490404701,924.431420003646,"[59, 0, 195]",195,a,0.04285791935399175,colour,0.5
156,22,0,1,14,47,697,924.9434689318296,925.7034273259342,"[24, 0, 230]",230,a,0.23675811244174838,colour,0.5
156,22,0,1,14,48,698,926.2245197442826,926.9514860594645,"[25, 0, 229]",229,a,0.20375146123114973,colour,0.5
156,22,0,1,14,49,699,927.4589317166246,928.1434457737487,"[55, 0, 199]",199,a,0.16188839671667665,colour,0.5
156,22,0,1,14,50,700,928.6620569627266,929.2074544004863,"[85, 0, 169]",169,l,0.02211917459499091,colour,0.5
156,22,0,1,15,1,701,934.3341117041418,935.8794559726957,"[22, 0, 232]",232,a,1.0212034827563912,colour,0.5
156,22,0,1,15,2,702,936.397459851345,936.9674084623111,"[19, 0, 235]",235,a,0.046677830861881375,colour,0.5
156,22,0,1,15,3,703,937.4755350790219,938.3594442676986,"[49, 0, 205]",205,a,0.3607924022944644,colour,0.5
156,22,0,1,15,4,704,938.8662093590247,939.5834539814387,"[39, 0, 215]",215,a,0.19398132537025958,colour,0.5
156,22,0,1,15,5,705,940.0992448398611,940.9114268092671,"[96, 0, 158]",158,a,0.2892821922432631,colour,0.5
156,22,0,1,15,6,706,941.4273641783511,941.9914602389326,"[45, 0, 209]",209,a,0.03804039605893195,colour,0.5
156,22,0,1,15,7,707,942.5081356752198,943.6794708601665,"[64, 0, 190]",190,l,0.6481837402097881,colour,0.5
156,22,0,1,15,8,708,944.1956220874563,944.7355021378025,"[18, 0, 236]",236,a,0.016535227186977863,colour,0.5
156,22,0,1,15,9,709,945.2424696659436,946.0154387601651,"[10, 0, 244]",244,a,0.2499082339927554,colour,0.5
156,22,0,1,15,10,710,946.5254042434972,947.1994061591104,"[54, 0, 200]",200,a,0.15085007704328746,colour,0.5
156,22,0,1,15,11,711,947.7129556403961,948.3674161029048,"[32, 0, 222]",222,a,0.1311971655813977,colour,0.5
156,22,0,1,15,12,712,948.8847795880865,949.5034256718354,"[61, 0, 193]",193,a,0.09564626961946487,colour,0.5
156,22,0,1,15,13,713,950.0098122772761,950.663412580383,"[14, 0, 240]",240,a,0.13032440305687487,colour,0.5
156,22,0,1,15,14,714,951.1825349814026,951.7434436469339,"[99, 0, 155]",155,l,0.03783717146143317,colour,0.5
156,22,0,1,15,15,715,952.2606996120885,952.8234621104784,"[43, 0, 211]",211,a,0.039848148822784424,colour,0.5
156,22,0,1,15,16,716,953.3387657813728,954.0714078100864,"[87, 0, 167]",167,l,0.20928539021406323,colour,0.5
156,22,0,1,15,17,717,954.588761842926,955.119441258721,"[2, 0, 252]",252,a,0.007375158718787134,colour,0.5
156,22,0,1,15,18,718,955.6375845586881,956.1674309902592,"[17, 0, 237]",237,a,0.006531540653668344,colour,0.5
156,22,0,1,15,19,719,956.6868290834827,957.2794147764798,"[82, 0, 172]",172,l,0.06660761602688581,colour,0.5
156,22,0,1,15,20,720,957.7989144818857,958.3274293204304,"[44, 0, 210]",210,a,0.00509518466424197,colour,0.5
156,22,0,1,15,21,721,958.8457904172828,959.5274416083703,"[71, 0, 183]",183,l,0.1582693464588374,colour,0.5
156,22,0,1,15,22,722,960.0350885208463,960.7274302656297,"[69, 0, 185]",185,l,0.16904851549770683,colour,0.5
156,22,0,1,15,23,723,961.2381164870458,961.7754349634051,"[67, 0, 187]",187,l,0.013998071663081646,colour,0.5
156,22,0,1,15,24,724,962.2816628490109,962.8553998639109,"[86, 0, 168]",168,l,0.05039061640854925,colour,0.5
156,22,0,1,15,25,725,963.3755293289432,963.9594059070805,"[62, 0, 192]",192,l,0.0607956318417564,colour,0.5
156,22,0,1,15,26,726,964.4692150335759,965.0314426891273,"[59, 0, 195]",195,l,0.03972133039496839,colour,0.5
156,22,0,1,15,27,727,965.5473863596562,966.1114001064561,"[42, 0, 212]",212,l,0.04081110202241689,colour,0.5
156,22,0,1,15,28,728,966.6285390994744,967.3513527031755,"[72, 0, 182]",182,l,0.2023359788581729,colour,0.5
156,22,0,1,15,29,729,967.8480380959809,968.7354229748016,"[4, 0, 250]",250,a,0.36409243720117956,colour,0.5
156,22,0,1,15,30,730,969.2518959742738,970.1674081472447,"[23, 0, 231]",231,a,0.4045608933083713,colour,0.5
156,22,0,1,15,31,731,970.6770179877058,971.4713752784301,"[35, 0, 219]",219,a,0.27140395040623844,colour,0.5
156,22,0,1,15,32,732,971.9859475775156,972.6474984482629,"[16, 0, 238]",238,a,0.13825685367919505,colour,0.5
156,22,0,1,15,33,733,973.1578487190418,973.8874010265572,"[53, 0, 201]",201,a,0.2064020442776382,colour,0.5
156,22,0,1,15,34,734,974.3958561107283,975.4474357479485,"[60, 0, 194]",194,l,0.5354299851460382,colour,0.5
156,22,0,1,15,35,735,975.9555694538867,976.62342422246,"[83, 0, 171]",171,l,0.1448616498382762,colour,0.5
156,22,0,1,15,36,736,977.1431129738921,977.7113904966973,"[77, 0, 177]",177,l,0.0455258316360414,colour,0.5
156,22,0,1,15,37,737,978.2211822939571,979.1113859280013,"[30, 0, 224]",224,a,0.36717979540117085,colour,0.5
156,22,0,1,15,38,738,979.6273847370176,980.2474159769481,"[68, 0, 186]",186,l,0.09671713679563254,colour,0.5
156,22,0,1,15,39,739,980.7680523216259,981.3594155168394,"[13, 0, 241]",241,a,0.08028352179098874,colour,0.5
156,22,0,1,15,40,740,981.8621381737757,982.6234470654745,"[55, 0, 199]",199,a,0.23486568278167397,colour,0.5
156,22,0,1,15,41,741,983.1309667656897,983.7913813908817,"[41, 0, 213]",213,a,0.13713163579814136,colour,0.5
156,22,0,1,15,42,742,984.3006572501035,984.8320325915702,"[94, 0, 160]",160,l,0.00798404449597001,colour,0.5
156,22,0,1,15,43,743,985.3632220376749,986.1277273830492,"[24, 0, 230]",230,a,0.24114713142625988,colour,0.5
156,22,0,1,15,44,744,986.6444776500575,987.2713602335425,"[12, 0, 242]",242,a,0.11528027651365846,colour,0.5
156,22,0,1,15,45,745,987.7890372200636,988.3593970061047,"[50, 0, 204]",204,a,0.04707167681772262,colour,0.5
156,22,0,1,15,46,746,988.8578326501884,989.6317249190761,"[27, 0, 227]",227,a,0.2506569349206984,colour,0.5
156,22,0,1,15,47,747,990.1391626993427,991.0154080401408,"[51, 0, 203]",203,a,0.35301079449709505,colour,0.5
156,22,0,1,15,48,748,991.5297428501071,992.2474474846385,"[1, 0, 253]",253,a,0.1946922173956409,colour,0.5
156,22,0,1,15,49,749,992.7516876297304,993.4074040669948,"[84, 0, 170]",170,l,0.1327536446042359,colour,0.5
156,22,0,1,15,50,750,993.9234521067701,994.5434089096962,"[57, 0, 197]",197,l,0.09687940124422312,colour,0.5
156,22,0,1,16,1,751,999.0486179159489,1001.3914450363955,"[80, 0, 174]",174,l,1.8187335962429643,colour,0.5
156,22,0,1,16,2,752,1001.9108766064746,1002.503418188775,"[2, 0, 252]",252,a,0.07028416777029634,colour,0.5
156,22,0,1,16,3,753,1003.019178721006,1003.711360958172,"[56, 0, 198]",198,l,0.16887719254009426,colour,0.5
156,22,0,1,16,4,754,1004.2222693086369,1004.8393967226148,"[6, 0, 248]",248,a,0.0937881045974791,colour,0.5
156,22,0,1,16,5,755,1005.3350801712368,1006.0474111719523,"[79, 0, 175]",175,l,0.18900665757246315,colour,0.5
156,22,0,1,16,6,756,1006.5537749343785,1007.1273819801863,"[14, 0, 240]",240,l,0.05029412417206913,colour,0.5
156,22,0,1,16,7,757,1007.6475843066582,1008.2634163612965,"[17, 0, 237]",237,a,0.09257230220828205,colour,0.5
156,22,0,1,16,8,758,1008.7754199972842,1010.1913791854167,"[59, 0, 195]",195,l,0.89292156486772,colour,0.5
156,22,0,1,16,9,759,1010.7129540649476,1011.327407658915,"[69, 0, 185]",185,l,0.09103472775314003,colour,0.5
156,22,0,1,16,10,760,1011.8379300403176,1012.4153735392028,"[10, 0, 244]",244,a,0.05411915574222803,colour,0.5
156,22,0,1,16,11,761,1012.931612200453,1013.7033997568069,"[54, 0, 200]",200,l,0.24839547171723098,colour,0.5
156,22,0,1,16,12,762,1014.2138110736851,1014.9594350516563,"[58, 0, 196]",196,l,0.2222645825240761,colour,0.5
156,22,0,1,16,13,763,1015.4793750768295,1016.0874255237868,"[26, 0, 228]",228,a,0.08212002541404217,colour,0.5
156,22,0,1,16,14,764,1016.6069717030041,1017.1993781960336,"[94, 0, 160]",160,l,0.06903291924390942,colour,0.5
156,22,0,1,16,15,765,1017.7097737591248,1018.247639287496,"[0, 0, 254]",254,a,0.014502982143312693,colour,0.5
156,22,0,1,16,16,766,1018.7477160874987,1019.503409524099,"[51, 0, 203]",203,a,0.2324490441242233,colour,0.5
156,22,0,1,16,17,767,1020.0133155367803,1020.6473665098893,"[74, 0, 180]",180,l,0.1094127600081265,colour,0.5
156,22,0,1,16,18,768,1021.1553682774538,1021.7194422826869,"[67, 0, 187]",187,l,0.040284923859871924,colour,0.5
156,22,0,1,16,19,769,1022.2347467413638,1023.0954150820617,"[46, 0, 208]",208,a,0.3410512692062184,colour,0.5
156,22,0,1,16,20,770,1023.5952941713622,1024.1674219318666,"[38, 0, 216]",216,a,0.0492216816637665,colour,0.5
156,22,0,1,16,21,771,1024.6754941978725,1025.5673488340108,"[13, 0, 241]",241,a,0.3688615174032748,colour,0.5
156,22,0,1,16,22,772,1026.0816005425295,1026.7353627163684,"[92, 0, 162]",162,l,0.13660585158504546,colour,0.5
156,22,0,1,16,23,773,1027.2475904506864,1027.8874116603984,"[16, 0, 238]",238,a,0.11644527281168848,colour,0.5
156,22,0,1,16,24,774,1028.403803527588,1028.9673864069628,"[84, 0, 170]",170,l,0.04021836398169398,colour,0.5
156,22,0,1,16,25,775,1029.4818996291142,1030.0474651288241,"[37, 0, 217]",217,a,0.04216829501092434,colour,0.5
156,22,0,1,16,26,776,1030.5600808013696,1031.1194129018113,"[53, 0, 201]",201,a,0.03607668029144406,colour,0.5
156,22,0,1,16,27,777,1031.6385939858155,1032.3993715794059,"[20, 0, 234]",234,a,0.23740874591749161,colour,0.5
156,22,0,1,16,28,778,1032.8959943506634,1033.6473795067286,"[88, 0, 166]",166,l,0.2280442713527009,colour,0.5
156,22,0,1,16,29,779,1034.161609553732,1034.7274499579798,"[98, 0, 156]",156,l,0.042899667052552104,colour,0.5
156,22,0,1,16,30,780,1035.235623836168,1036.1753374472028,"[25, 0, 229]",229,a,0.41631404333747923,colour,0.5
156,22,0,1,16,31,781,1036.6887864976889,1037.5034634810872,"[27, 0, 227]",227,a,0.2914219570811838,colour,0.5
156,22,0,1,16,32,782,1038.0168841746636,1038.7273916687118,"[50, 0, 204]",204,a,0.18751634459476918,colour,0.5
156,22,0,1,16,33,783,1039.2357234791853,1039.7834194018506,"[82, 0, 172]",172,l,0.024389696423895657,colour,0.5
156,22,0,1,16,34,784,1040.298062199261,1041.135384141584,"[40, 0, 214]",214,a,0.31392513145692647,colour,0.5
156,22,0,1,16,35,785,1041.643270512228,1042.215411663521,"[71, 0, 183]",183,l,0.04890542337670922,colour,0.5
156,22,0,1,16,36,786,1042.7369534600293,1043.3034964853432,"[8, 0, 246]",246,a,0.04353139584418386,colour,0.5
156,22,0,1,16,37,787,1043.81499206007,1044.5993539351039,"[55, 0, 199]",199,a,0.2609926334116608,colour,0.5
156,22,0,1,16,38,788,1045.1119778784923,1045.839393571834,"[39, 0, 215]",215,a,0.20411655632779002,colour,0.5
156,22,0,1,16,39,789,1046.3463835491566,1047.1593504535267,"[90, 0, 164]",164,l,0.28966028429567814,colour,0.5
156,22,0,1,16,40,790,1047.6758132131072,1048.2713838643394,"[31, 0, 223]",223,a,0.072552326368168,colour,0.5
156,22,0,1,16,41,791,1048.785186194582,1049.3513723955257,"[81, 0, 173]",173,l,0.04290754394605756,colour,0.5
156,22,0,1,16,42,792,1049.863613520516,1050.8153989028651,"[43, 0, 211]",211,l,0.4292152541456744,colour,0.5
156,22,0,1,16,43,793,1051.3342322210083,1052.0793670422863,"[89, 0, 165]",165,l,0.22184474277310073,colour,0.5
156,22,0,1,16,44,794,1052.5974110931857,1053.2473655645736,"[1, 0, 253]",253,a,0.1266336728585884,colour,0.5
156,22,0,1,16,45,795,1053.745765368687,1054.303371242364,"[64, 0, 190]",190,l,0.03429373982362449,colour,0.5
156,22,0,1,16,46,796,1054.8250926325563,1055.5113069225335,"[77, 0, 177]",177,l,0.1630317313829437,colour,0.5
156,22,0,1,16,47,797,1056.0282738048118,1056.6233415148454,"[41, 0, 213]",213,l,0.07179968687705696,colour,0.5
156,22,0,1,16,48,798,1057.1376259125536,1057.7593758959556,"[44, 0, 210]",210,a,0.10678501997608691,colour,0.5
156,22,0,1,16,49,799,1058.2702488003997,1058.8633819391252,"[15, 0, 239]",239,a,0.06980091868899763,colour,0.5
156,22,0,1,16,50,800,1059.3764942514244,1060.0474170796806,"[33, 0, 221]",221,a,0.14766701427288353,colour,0.5
