id,age,condition,counterbalance,block,trialinblock,trial,tstart,tend,trialstim,trialintensity,response,RT,trialtype,colourfreq
118,20,1,2,Practice,1,NA,8.664675988256931e-06,2.394052690360695,"[90, 0, 164]",164,l,1.869729160098359,colour,0.5
118,20,1,2,Practice,2,NA,2.9069798949640244,4.065993216470815,"[18, 0, 236]",236,a,0.6357232428854331,colour,0.5
118,20,1,2,Practice,3,NA,4.578826291952282,5.777988660382107,"[42, 0, 212]",212,a,0.6758403884014115,colour,0.5
118,20,1,2,Practice,4,NA,6.297559651895426,7.386042651953176,"[98, 0, 156]",156,l,0.5652169460663572,colour,0.5
118,20,1,2,Practice,5,NA,7.907002344261855,9.201997271506116,"[59, 0, 195]",195,a,0.7717170579126105,colour,0.5
118,20,1,2,Practice,6,NA,9.719766417867504,10.626025574863888,"[77, 0, 177]",177,l,0.3832947890041396,colour,0.5
118,20,1,2,Practice,7,NA,11.141383596579544,11.738006997853518,"[2, 0, 252]",252,a,0.07330614735838026,colour,0.5
118,20,1,2,Practice,8,NA,12.250744762714021,12.834007728844881,"[28, 0, 226]",226,a,0.05999927525408566,colour,0.5
118,20,1,2,Practice,9,NA,13.344430467346683,13.882108918973245,"[39, 0, 215]",215,a,0.014369468437507749,colour,0.5
118,20,1,2,Practice,10,NA,14.39135248272214,14.946003724238835,"[78, 0, 176]",176,l,0.031363526126369834,colour,0.5
118,20,1,2,1,1,1,4.426210209727287,5.136007993482053,"[86, 0, 168]",168,l,0.1858239887515083,colour,0.5
118,20,1,2,1,2,2,5.645667852368206,7.824017433216795,"[39, 0, 215]",215,a,1.6547877485863864,colour,0.5
118,20,1,2,1,3,3,8.333209009259008,9.351970647461712,"[54, 0, 200]",200,a,0.4954585627419874,colour,0.5
118,20,1,2,1,4,4,9.864425630890764,10.81598337017931,"[96, 0, 158]",158,l,0.42824639310128987,colour,0.5
118,20,1,2,1,5,5,11.333261784631759,12.263977197813801,"[17, 0, 237]",237,a,0.4079081896925345,colour,0.5
118,20,1,2,1,6,6,12.77071629546117,13.696007662685588,"[85, 0, 169]",169,l,0.40202295023482293,colour,0.5
118,20,1,2,1,7,7,14.208041230915114,15.11200387228746,"[35, 0, 219]",219,a,0.38055519678164274,colour,0.5
118,20,1,2,1,8,8,15.630023504723795,16.503993203747086,"[44, 0, 210]",210,a,0.3506508697755635,colour,0.5
118,20,1,2,1,9,9,17.020615076995455,17.91198016272392,"[75, 0, 179]",179,l,0.36803956096991897,colour,0.5
118,20,1,2,1,10,10,18.426845089299604,19.287976592895575,"[55, 0, 199]",199,a,0.3377854989375919,colour,0.5
118,20,1,2,1,11,11,19.801840757019818,20.695994665729813,"[30, 0, 224]",224,a,0.3710851715877652,colour,0.5
118,20,1,2,1,12,12,21.20807628321927,22.00799231522251,"[82, 0, 172]",172,l,0.2765393073204905,colour,0.5
118,20,1,2,1,13,13,22.520646978518926,23.368006477947347,"[45, 0, 209]",209,a,0.32408556854352355,colour,0.5
118,20,1,2,1,14,14,23.879982544691302,24.967984265065752,"[68, 0, 186]",186,l,0.5647234572097659,colour,0.5
118,20,1,2,1,15,15,25.489416572381742,26.70401848864276,"[11, 0, 243]",243,a,0.6912720592226833,colour,0.5
118,20,1,2,1,16,16,27.223886440042406,28.152015073224902,"[81, 0, 173]",173,l,0.4049433176405728,colour,0.5
118,20,1,2,1,17,17,28.66132756008301,29.55994965066202,"[25, 0, 229]",229,a,0.37530601827893406,colour,0.5
118,20,1,2,1,18,18,30.06745596008841,31.135985544300638,"[73, 0, 181]",181,l,0.5452009087894112,colour,0.5
118,20,1,2,1,19,19,31.645627680118196,32.60796143778134,"[36, 0, 218]",218,a,0.43907085445243865,colour,0.5
118,20,1,2,1,20,20,33.114391366252676,34.15996997314505,"[90, 0, 164]",164,l,0.5230581032810733,colour,0.5
118,20,1,2,1,21,21,34.677666651899926,35.79999834578484,"[74, 0, 180]",180,l,0.5998505748575553,colour,0.5
118,20,1,2,1,22,22,36.31752685236279,37.279997274512425,"[78, 0, 176]",176,l,0.4393343373667449,colour,0.5
118,20,1,2,1,23,23,37.78626218158752,38.6959722165484,"[19, 0, 235]",235,a,0.3865719808964059,colour,0.5
118,20,1,2,1,24,24,39.208050289424136,40.15200365171768,"[64, 0, 190]",190,l,0.4207176344934851,colour,0.5
118,20,1,2,1,25,25,40.66106486483477,41.5599461060483,"[6, 0, 248]",248,a,0.3754332304233685,colour,0.5
118,20,1,2,1,26,26,42.0674157878384,42.959944294416346,"[94, 0, 160]",160,l,0.3692246434511617,colour,0.5
118,20,1,2,1,27,27,43.47376198472921,44.33595765999053,"[28, 0, 226]",226,a,0.33902808278799057,colour,0.5
118,20,1,2,1,28,28,44.84866943093948,46.05597968387883,"[52, 0, 202]",202,a,0.6840205682674423,colour,0.5
118,20,1,2,1,29,29,46.56742681551259,47.431959966314025,"[79, 0, 175]",175,l,0.341300573782064,colour,0.5
118,20,1,2,1,30,30,47.94240357866511,48.84799359133467,"[1, 0, 253]",253,a,0.38229560188483447,colour,0.5
118,20,1,2,1,31,31,49.36433189548552,50.247982721193694,"[22, 0, 232]",232,a,0.3605710609117523,colour,0.5
118,20,1,2,1,32,32,50.75498057552613,51.75997375405859,"[93, 0, 161]",161,l,0.4817877769237384,colour,0.5
118,20,1,2,1,33,33,52.27056427090429,53.11997728294227,"[48, 0, 206]",206,a,0.3260839427821338,colour,0.5
118,20,1,2,1,34,34,53.629952612449415,54.527976057259366,"[12, 0, 242]",242,a,0.37474006169941276,colour,0.5
118,20,1,2,1,35,35,55.0361385140568,55.919991776463576,"[13, 0, 241]",241,a,0.36056987929623574,colour,0.5
118,20,1,2,1,36,36,56.426746627897955,57.19203848345205,"[77, 0, 177]",177,l,0.2419828724814579,colour,0.5
118,20,1,2,1,37,37,57.70807864621747,58.520019975840114,"[40, 0, 214]",214,a,0.28901752771344036,colour,0.5
118,20,1,2,1,38,38,59.03619404626079,59.8719981063623,"[88, 0, 166]",166,l,0.3126880613854155,colour,0.5
118,20,1,2,1,39,39,60.37986636022106,61.18397882056888,"[87, 0, 167]",167,l,0.2807341603329405,colour,0.5
118,20,1,2,1,40,40,61.6924146063393,62.51996286818758,"[66, 0, 188]",188,l,0.3042325833812356,colour,0.5
118,20,1,2,1,41,41,63.03606289555319,63.839964648359455,"[41, 0, 213]",213,a,0.2803993913112208,colour,0.5
118,20,1,2,1,42,42,64.34855836641509,65.22398056916427,"[20, 0, 234]",234,a,0.3521581180393696,colour,0.5
118,20,1,2,1,43,43,65.73920862178784,66.64800020796247,"[21, 0, 233]",233,a,0.38529670785646886,colour,0.5
118,20,1,2,1,44,44,67.16117908013985,68.01600589824375,"[8, 0, 246]",246,a,0.3316123579861596,colour,0.5
118,20,1,2,1,45,45,68.536076286342,69.23201817669906,"[76, 0, 178]",178,l,0.1726762301987037,colour,0.5
118,20,1,2,1,46,46,69.73926376015879,70.86396837572102,"[32, 0, 222]",222,a,0.6014854293316603,colour,0.5
118,20,1,2,1,47,47,71.37981004023459,72.24801659188233,"[91, 0, 163]",163,l,0.34483809780795127,colour,0.5
118,20,1,2,1,48,48,72.75483839714434,73.55998352146707,"[24, 0, 230]",230,a,0.2818282642401755,colour,0.5
118,20,1,2,1,49,49,74.06732796016149,75.07994520815555,"[60, 0, 194]",194,l,0.48930511402431875,colour,0.5
118,20,1,2,1,50,50,75.59853670478333,76.40793142665643,"[10, 0, 244]",244,a,0.2863716707797721,colour,0.5
118,20,1,2,2,1,51,84.73845046828501,85.55196757544763,"[21, 0, 233]",233,a,0.2894409120781347,colour,0.5
118,20,1,2,2,2,52,86.0673169324873,86.9839992217021,"[1, 0, 253]",253,a,0.3934481367468834,colour,0.5
118,20,1,2,2,3,53,87.5048068894539,88.51196149445605,"[78, 0, 176]",176,l,0.4838641326641664,colour,0.5
118,20,1,2,2,4,54,89.02047092944849,89.90399533056188,"[75, 0, 179]",179,l,0.360258347238414,colour,0.5
118,20,1,2,2,5,55,90.41101208946202,91.44000702619087,"[57, 0, 197]",197,l,0.5056737443665043,colour,0.5
118,20,1,2,2,6,56,91.95790692942683,92.83196681924164,"[42, 0, 212]",212,a,0.35075957130175084,colour,0.5
118,20,1,2,2,7,57,93.34853119100444,94.19191757275257,"[68, 0, 186]",186,l,0.32005613087676466,colour,0.5
118,20,1,2,2,8,58,94.70792189554777,95.7759780769702,"[60, 0, 194]",194,l,0.5451642810367048,colour,0.5
118,20,1,2,2,9,59,96.28603926487267,97.36796748719644,"[66, 0, 188]",188,l,0.5585971837863326,colour,0.5
118,20,1,2,2,10,60,97.87977420026436,98.75194953731261,"[45, 0, 209]",209,a,0.348904556944035,colour,0.5
118,20,1,2,2,11,61,99.27031181566417,100.15995973313693,"[23, 0, 231]",231,a,0.36662683566100895,colour,0.5
118,20,1,2,2,12,62,100.67662296025082,101.52793430967722,"[27, 0, 227]",227,a,0.32818550465162843,colour,0.5
118,20,1,2,2,13,63,102.03602036018856,102.78393100760877,"[36, 0, 218]",218,a,0.22476550412829965,colour,0.5
118,20,1,2,2,14,64,103.30162768636364,103.9600238512503,"[0, 0, 254]",254,a,0.13515374169219285,colour,0.5
118,20,1,2,2,15,65,104.47353552328423,105.29593109898269,"[6, 0, 248]",248,a,0.2990476017585024,colour,0.5
118,20,1,2,2,16,66,105.81718302494846,106.631966346642,"[69, 0, 185]",185,l,0.2914522832725197,colour,0.5
118,20,1,2,2,17,67,107.14533190184738,108.06389362376649,"[73, 0, 181]",181,l,0.39521059731487185,colour,0.5
118,20,1,2,2,18,68,108.58287463407032,109.55996185995173,"[96, 0, 158]",158,l,0.45380659960210323,colour,0.5
118,20,1,2,2,19,69,110.06725706788711,110.91193132579792,"[94, 0, 160]",160,l,0.3214196254266426,colour,0.5
118,20,1,2,2,20,70,111.4265560064232,112.2879545375472,"[82, 0, 172]",172,l,0.3380659172544256,colour,0.5
118,20,1,2,2,21,71,112.80152843717951,113.63999765261542,"[43, 0, 211]",211,a,0.3155343858525157,colour,0.5
118,20,1,2,2,22,72,114.16101366479415,115.33592378918547,"[46, 0, 208]",208,a,0.6516007473692298,colour,0.5
118,20,1,2,2,23,73,115.84842012648005,117.15999754238874,"[22, 0, 232]",232,a,0.7882385004777461,colour,0.5
118,20,1,2,2,24,74,117.67659578484017,118.57592522283085,"[91, 0, 163]",163,l,0.3760602332185954,colour,0.5
118,20,1,2,2,25,75,119.08288329874631,119.9679570896551,"[18, 0, 236]",236,a,0.361844758503139,colour,0.5
118,20,1,2,2,26,76,120.48911685566418,121.40792118664831,"[61, 0, 193]",193,l,0.3956296492833644,colour,0.5
118,20,1,2,2,27,77,121.926618234138,122.77594302466605,"[83, 0, 171]",171,l,0.3261166319716722,colour,0.5
118,20,1,2,2,28,78,123.28589551104233,124.11194952158257,"[9, 0, 245]",245,a,0.30283600580878556,colour,0.5
118,20,1,2,2,29,79,124.62989668629598,125.44793041842058,"[92, 0, 162]",162,l,0.2949957149103284,colour,0.5
118,20,1,2,2,30,80,125.95777420338709,128.9359575024573,"[48, 0, 206]",206,a,2.454895977396518,colour,0.5
118,20,1,2,2,31,81,129.44205975113437,130.41591940959916,"[29, 0, 225]",225,a,0.45036990009248257,colour,0.5
118,20,1,2,2,32,82,130.92654104030225,131.87992071092594,"[56, 0, 198]",198,a,0.4301305520348251,colour,0.5
118,20,1,2,2,33,83,132.39527085563168,133.2159177555004,"[47, 0, 207]",207,a,0.2973926612176001,colour,0.5
118,20,1,2,2,34,84,133.7233972833492,134.54393863247242,"[50, 0, 204]",204,a,0.2972107044188306,colour,0.5
118,20,1,2,2,35,85,135.05153001262806,135.9199165519094,"[15, 0, 239]",239,a,0.345033839228563,colour,0.5
118,20,1,2,2,36,86,136.4265528556425,137.31188579730224,"[64, 0, 190]",190,l,0.3621019399724901,colour,0.5
118,20,1,2,2,37,87,137.832788775675,138.6559058771236,"[76, 0, 178]",178,l,0.2998636505799368,colour,0.5
118,20,1,2,2,38,88,139.17650992644485,140.09592865710147,"[55, 0, 199]",199,a,0.3962176612112671,colour,0.5
118,20,1,2,2,39,89,140.61408889258746,141.43192255101167,"[25, 0, 229]",229,a,0.29466606595087796,colour,0.5
118,20,1,2,2,40,90,141.94204951112624,142.632021878846,"[31, 0, 223]",223,a,0.16657476918771863,colour,0.5
118,20,1,2,2,41,91,143.14521729259286,143.78391722298693,"[40, 0, 214]",214,a,0.11534368572756648,colour,0.5
118,20,1,2,2,42,92,144.30151071411092,145.00791748450138,"[79, 0, 175]",175,l,0.183302587014623,colour,0.5
118,20,1,2,2,43,93,145.52017672650982,146.3679281026125,"[34, 0, 220]",220,a,0.3244427867466584,colour,0.5
118,20,1,2,2,44,94,146.8796355664963,147.71188949944917,"[30, 0, 224]",224,a,0.3089949683053419,colour,0.5
118,20,1,2,2,45,95,148.2233039418934,149.22403176920488,"[67, 0, 187]",187,l,0.4773369241738692,colour,0.5
118,20,1,2,2,46,96,149.73902233259287,150.575935856672,"[77, 0, 177]",177,l,0.31367464549839497,colour,0.5
118,20,1,2,2,47,97,151.08275687415153,151.8959112490993,"[39, 0, 215]",215,a,0.2898493302054703,colour,0.5
118,20,1,2,2,48,98,152.41082028648816,153.25589114730246,"[16, 0, 238]",238,a,0.32181780377868563,colour,0.5
118,20,1,2,2,49,99,153.77018854185008,154.57587953668553,"[54, 0, 200]",200,a,0.2823788608657196,colour,0.5
118,20,1,2,2,50,100,155.08266904647462,155.72790130530484,"[58, 0, 196]",196,a,0.12190318945795298,colour,0.5
118,20,1,2,3,1,101,160.37885575159453,161.36001455655787,"[10, 0, 244]",244,a,0.4571011207299307,colour,0.5
118,20,1,2,3,2,102,161.87959303113166,162.6958989611594,"[41, 0, 213]",213,a,0.29298079921863973,colour,0.5
118,20,1,2,3,3,103,163.20767298492137,163.84792900062166,"[69, 0, 185]",185,l,0.1169352171709761,colour,0.5
118,20,1,2,3,4,104,164.36390851112083,165.13587644894142,"[77, 0, 177]",177,l,0.2486432008445263,colour,0.5
118,20,1,2,3,5,105,165.64512276963796,166.35186667204835,"[34, 0, 220]",220,a,0.18348375614732504,colour,0.5
118,20,1,2,3,6,106,166.86399240035098,167.71989441779442,"[58, 0, 196]",196,l,0.3326753481524065,colour,0.5
118,20,1,2,3,7,107,168.23889275733382,169.29595276049804,"[52, 0, 202]",202,a,0.5336545277386904,colour,0.5
118,20,1,2,3,8,108,169.81693490198813,170.6798847921891,"[17, 0, 237]",237,a,0.33951211941894144,colour,0.5
118,20,1,2,3,9,109,171.19196050195023,171.94391003926285,"[86, 0, 168]",168,l,0.22856651106849313,colour,0.5
118,20,1,2,3,10,110,172.4576454157941,173.26392205944285,"[79, 0, 175]",175,l,0.2829511190066114,colour,0.5
118,20,1,2,3,11,111,173.7701944495784,174.69596945960075,"[72, 0, 182]",182,l,0.402578666806221,colour,0.5
118,20,1,2,3,12,112,175.20766944030765,175.92788563028444,"[15, 0, 239]",239,a,0.19695092365145683,colour,0.5
118,20,1,2,3,13,113,176.44195065577514,177.17592782224528,"[96, 0, 158]",158,l,0.21058350638486445,colour,0.5
118,20,1,2,3,14,114,177.69193805276882,178.37588891026098,"[80, 0, 174]",174,l,0.1605690128635615,colour,0.5
118,20,1,2,3,15,115,178.89518224040512,179.72790721303318,"[78, 0, 176]",176,l,0.30944867874495685,colour,0.5
118,20,1,2,3,16,116,180.23885100963525,180.98388500639703,"[16, 0, 238]",238,a,0.22162221977487206,colour,0.5
118,20,1,2,3,17,117,181.50452095724177,182.30392617115285,"[11, 0, 243]",243,a,0.276151369092986,colour,0.5
118,20,1,2,3,18,118,182.81701052037533,183.59990531939548,"[31, 0, 223]",223,a,0.2596177173545584,colour,0.5
118,20,1,2,3,19,119,184.11384431424085,184.84792900062166,"[66, 0, 188]",188,l,0.2113975859247148,colour,0.5
118,20,1,2,3,20,120,185.3638805480441,186.11196370003745,"[3, 0, 251]",251,a,0.22558982367627323,colour,0.5
118,20,1,2,3,21,121,186.62944967113435,187.3759026947664,"[2, 0, 252]",252,a,0.2230148590169847,colour,0.5
118,20,1,2,3,22,122,187.89514640031848,188.51190478063654,"[82, 0, 172]",172,l,0.09344388323370367,colour,0.5
118,20,1,2,3,23,123,189.02010110812262,189.7198822085047,"[13, 0, 241]",241,a,0.1765213479520753,colour,0.5
118,20,1,2,3,24,124,190.2389305664692,190.9918855924625,"[46, 0, 208]",208,a,0.22978940268512815,colour,0.5
118,20,1,2,3,25,125,191.50444179424085,192.2879336636979,"[23, 0, 231]",231,a,0.26020060933660716,colour,0.5
118,20,1,2,3,26,126,192.80130394501612,193.5278764142422,"[24, 0, 230]",230,a,0.20340054447297007,colour,0.5
118,20,1,2,3,27,127,194.03572497575078,194.87188546638936,"[28, 0, 226]",226,a,0.31298187049105763,colour,0.5
118,20,1,2,3,28,128,195.38018655695487,196.055941480794,"[44, 0, 210]",210,a,0.1532115772133693,colour,0.5
118,20,1,2,3,29,129,196.56697310507298,198.36787178262603,"[98, 0, 156]",156,l,1.277793312794529,colour,0.5
118,20,1,2,3,30,130,198.87943194806576,199.73590582981706,"[88, 0, 166]",166,l,0.3331680493429303,colour,0.5
118,20,1,2,3,31,131,200.25450520345476,201.06392552528996,"[33, 0, 221]",221,a,0.2861314248293638,colour,0.5
118,20,1,2,3,32,132,201.58254813577514,202.4078731375048,"[56, 0, 198]",198,a,0.30198569234926254,colour,0.5
118,20,1,2,3,33,133,202.9264126465423,203.7358794421889,"[50, 0, 204]",204,a,0.28639608924277127,colour,0.5
118,20,1,2,3,34,134,204.25438311125617,204.82391818403266,"[81, 0, 173]",173,l,0.04624341882299632,colour,0.5
118,20,1,2,3,35,135,205.3325142650865,206.27188759320416,"[71, 0, 183]",183,l,0.4160021173302084,colour,0.5
118,20,1,2,3,36,136,206.78564108663704,207.8558980789967,"[87, 0, 167]",167,l,0.5470862491056323,colour,0.5
118,20,1,2,3,37,137,208.363750185119,209.14390224113595,"[94, 0, 160]",160,l,0.2569135712692514,colour,0.5
118,20,1,2,3,38,138,209.66065447742585,210.46394891978707,"[42, 0, 212]",212,a,0.2799708870006725,colour,0.5
118,20,1,2,3,39,139,210.97321414505132,211.75994579098187,"[40, 0, 214]",214,a,0.2635727181332186,colour,0.5
118,20,1,2,3,40,140,212.2700644803699,213.07187097286806,"[51, 0, 203]",203,a,0.2786125122802332,colour,0.5
118,20,1,2,3,41,141,213.58250481274445,214.52784884499852,"[67, 0, 187]",187,l,0.42234618740621954,colour,0.5
118,20,1,2,3,42,142,215.03564344963524,215.8318963208003,"[48, 0, 206]",206,a,0.27321642939932644,colour,0.5
118,20,1,2,3,43,143,216.34811686503235,217.167889426928,"[90, 0, 164]",164,l,0.2964769694954157,colour,0.5
118,20,1,2,3,44,144,217.67620942206122,218.4239231464453,"[22, 0, 232]",232,a,0.22439016902353615,colour,0.5
118,20,1,2,3,45,145,218.94180808356032,219.89592621533666,"[35, 0, 219]",219,a,0.4307158071314916,colour,0.5
118,20,1,2,3,46,146,220.4106139112264,221.20787739101797,"[6, 0, 248]",248,a,0.27393953048158437,colour,0.5
118,20,1,2,3,47,147,221.7228982805973,222.47987211029977,"[85, 0, 169]",169,l,0.23340096976608038,colour,0.5
118,20,1,2,3,48,148,222.98881871427875,223.83985752228182,"[49, 0, 205]",205,a,0.32779323402792215,colour,0.5
118,20,1,2,3,49,149,224.34815782506485,225.11989496916067,"[14, 0, 240]",240,a,0.249044923693873,colour,0.5
118,20,1,2,3,50,150,225.6293267912697,226.42388494336046,"[92, 0, 162]",162,l,0.2711648859549314,colour,0.5
118,20,1,2,4,1,151,237.12857021321543,237.7919646766968,"[76, 0, 178]",178,l,0.13928597304038703,colour,0.5
118,20,1,2,4,2,152,238.30125313892495,239.07189657283016,"[97, 0, 157]",157,l,0.2475766659481451,colour,0.5
118,20,1,2,4,3,153,239.58246385282837,240.30386748816818,"[89, 0, 165]",165,l,0.19807968602981418,colour,0.5
118,20,1,2,4,4,154,240.81689079117496,241.3998311975738,"[43, 0, 211]",211,a,0.05975469702389091,colour,0.5
118,20,1,2,4,5,155,241.91057216352783,242.66383754007984,"[65, 0, 189]",189,l,0.2300162579631433,colour,0.5
118,20,1,2,4,6,156,243.17619169899262,244.07188712060452,"[70, 0, 184]",184,l,0.3724565430311486,colour,0.5
118,20,1,2,4,7,157,244.58240477589425,245.50386284082197,"[22, 0, 232]",232,a,0.39808173407800496,colour,0.5
118,20,1,2,4,8,158,246.0198876436334,246.87988211400807,"[11, 0, 243]",243,a,0.33667406567838043,colour,0.5
118,20,1,2,4,9,159,247.39492230210453,248.3438727814937,"[26, 0, 228]",228,a,0.4256773362867534,colour,0.5
118,20,1,2,4,10,160,248.86361745896284,250.1278841336025,"[99, 0, 155]",155,l,0.7408655314939097,colour,0.5
118,20,1,2,4,11,161,250.64489630819298,251.7038743410958,"[21, 0, 233]",233,a,0.535576889757067,colour,0.5
118,20,1,2,4,12,162,252.2229794128798,253.07189854211174,"[0, 0, 254]",254,a,0.3255479184444994,colour,0.5
118,20,1,2,4,13,163,253.58236066519748,254.28792381752282,"[67, 0, 187]",187,l,0.1822762246010825,colour,0.5
118,20,1,2,4,14,164,254.80117082514334,255.839844131493,"[46, 0, 208]",208,a,0.5154655416263267,colour,0.5
118,20,1,2,4,15,165,256.3480215544114,257.2078785725171,"[74, 0, 180]",180,l,0.33726877300068736,colour,0.5
118,20,1,2,4,16,166,257.7229805943789,259.01586135674734,"[81, 0, 173]",173,l,0.769518609973602,colour,0.5
118,20,1,2,4,17,167,259.5355363235576,260.3118645296199,"[8, 0, 246]",246,a,0.25316415820270777,colour,0.5
118,20,1,2,4,18,168,260.8323366405675,261.6158785284497,"[93, 0, 161]",161,l,0.2602805601200089,colour,0.5
118,20,1,2,4,19,169,262.12929843435995,262.8639203264611,"[57, 0, 197]",197,a,0.21135859505739063,colour,0.5
118,20,1,2,4,20,170,263.37921848357655,264.2958747789962,"[6, 0, 248]",248,a,0.39337724447250366,colour,0.5
118,20,1,2,4,21,171,264.8167356159538,265.479908344103,"[80, 0, 174]",174,l,0.13985586806666106,colour,0.5
118,20,1,2,4,22,172,265.9886785050621,269.1678701285273,"[24, 0, 230]",230,a,2.656027575605549,colour,0.5
118,20,1,2,4,23,173,269.6761767328717,270.7278410468716,"[96, 0, 158]",158,l,0.5284510354977101,colour,0.5
118,20,1,2,4,24,174,271.23864108975977,272.5758755982388,"[17, 0, 237]",237,a,0.8140078390715644,colour,0.5
118,20,1,2,4,25,175,273.0823319144547,273.95187360374257,"[5, 0, 249]",249,a,0.34626066929195076,colour,0.5
118,20,1,2,4,26,176,274.47298768360633,275.311905489536,"[41, 0, 213]",213,a,0.31557495205197483,colour,0.5
118,20,1,2,4,27,177,275.83234491129406,276.7598103079945,"[59, 0, 195]",195,a,0.4041638965718448,colour,0.5
118,20,1,2,4,28,178,277.269872283563,278.1358551812591,"[47, 0, 207]",207,a,0.3427388990530744,colour,0.5
118,20,1,2,4,29,179,278.64485062204767,279.4718380473787,"[75, 0, 179]",179,l,0.30371743289288133,colour,0.5
118,20,1,2,4,30,180,279.9885772867128,280.92787460261025,"[72, 0, 182]",182,l,0.4159713974222541,colour,0.5
118,20,1,2,4,31,181,281.4415997391334,282.3517918413272,"[92, 0, 162]",162,l,0.3860422580037266,colour,0.5
118,20,1,2,4,32,182,282.8635170282796,283.7358554175589,"[56, 0, 198]",198,a,0.3489640277111903,colour,0.5
118,20,1,2,4,33,183,284.2541865821695,285.1678567377385,"[45, 0, 209]",209,a,0.39030052023008466,colour,0.5
118,20,1,2,4,34,184,285.67606645601336,286.57585078594275,"[63, 0, 191]",191,a,0.37656159908510745,colour,0.5
118,20,1,2,4,35,185,287.0822696867399,287.97584070346784,"[25, 0, 229]",229,a,0.37014978751540184,colour,0.5
118,20,1,2,4,36,186,288.488514665165,289.3358643184183,"[87, 0, 167]",167,l,0.32403239933773875,colour,0.5
118,20,1,2,4,37,187,289.8478998559294,291.0318231442943,"[39, 0, 215]",215,a,0.6606788958888501,colour,0.5
118,20,1,2,4,38,188,291.55105542822275,292.69580404425506,"[95, 0, 159]",159,l,0.6216282850364223,colour,0.5
118,20,1,2,4,39,189,293.2071472007083,294.4718900350854,"[88, 0, 166]",166,l,0.741357838967815,colour,0.5
118,20,1,2,4,40,190,294.9885205728933,295.9118813073728,"[50, 0, 204]",204,a,0.3999729821225628,colour,0.5
118,20,1,2,4,41,191,296.42595224059187,297.35185682598967,"[86, 0, 168]",168,l,0.4025778791401535,colour,0.5
118,20,1,2,4,42,192,297.86348512675613,298.695811921265,"[44, 0, 210]",210,a,0.308897688286379,colour,0.5
118,20,1,2,4,43,193,299.2072117914213,300.16782326088287,"[14, 0, 240]",240,a,0.4372800370911136,colour,0.5
118,20,1,2,4,44,194,300.6759947759565,301.5118130145129,"[20, 0, 234]",234,a,0.31255297223106027,colour,0.5
118,20,1,2,4,45,195,302.01980257290415,303.5519073170144,"[28, 0, 226]",226,a,1.0089997731847689,colour,0.5
118,20,1,2,4,46,196,304.0666277020937,305.50383724074345,"[13, 0, 241]",241,a,0.9139588446123526,colour,0.5
118,20,1,2,4,47,197,306.0197466467507,307.12780930288136,"[23, 0, 231]",231,a,0.5847587930038571,colour,0.5
118,20,1,2,4,48,198,307.6447816990549,308.6958643026883,"[73, 0, 181]",181,l,0.5278567220084369,colour,0.5
118,20,1,2,4,49,199,309.2073716928717,310.19981300190557,"[49, 0, 205]",205,a,0.469252448878251,colour,0.5
118,20,1,2,4,50,200,310.70730592054315,311.55977438925765,"[32, 0, 222]",222,a,0.3295375775778666,colour,0.5
118,20,1,2,5,1,201,316.05014091799967,317.55180767399725,"[25, 0, 229]",229,a,0.9775755947921425,colour,0.4
118,20,1,2,5,2,202,318.066544206813,318.7997809428489,"[36, 0, 218]",218,a,0.21002660819794983,colour,0.4
118,20,1,2,5,3,203,319.3166009206325,320.167840590002,"[1, 0, 253]",253,a,0.32792438473552465,colour,0.4
118,20,1,2,5,4,204,320.6759770528879,321.2558281319216,"[75, 0, 179]",179,l,0.05698477861005813,colour,0.4
118,20,1,2,5,5,205,321.76964897301514,322.6558085971046,"[64, 0, 190]",190,l,0.36280062259174883,colour,0.4
118,20,1,2,5,6,206,323.17595184675884,324.1438372565899,"[57, 0, 197]",197,a,0.4446272327331826,colour,0.4
118,20,1,2,5,7,207,324.66025432990864,325.7198262824677,"[55, 0, 199]",199,a,0.536242489470169,colour,0.4
118,20,1,2,5,8,208,326.23845992062707,327.2078234341461,"[67, 0, 187]",187,a,0.44613841956015676,colour,0.4
118,20,1,2,5,9,209,327.7227175052976,328.69586272735614,"[37, 0, 217]",217,a,0.44983702653553337,colour,0.4
118,20,1,2,5,10,210,329.2071885544574,330.1517850671662,"[74, 0, 180]",180,l,0.4212863480206579,colour,0.4
118,20,1,2,5,11,211,330.6602696898626,331.6158974330174,"[16, 0, 238]",238,a,0.43230497534386814,colour,0.4
118,20,1,2,5,12,212,332.12905070523266,333.431797701749,"[62, 0, 192]",192,a,0.779495908645913,colour,0.4
118,20,1,2,5,13,213,333.94146504381206,334.9198145457776,"[73, 0, 181]",181,l,0.45499562041368335,colour,0.4
118,20,1,2,5,14,214,335.4415457821451,336.32782356010284,"[38, 0, 216]",216,a,0.3629912439500913,colour,0.4
118,20,1,2,5,15,215,336.8477738252841,337.96786886814516,"[58, 0, 196]",196,l,0.5968376535456628,colour,0.4
118,20,1,2,5,16,216,338.4883693361189,339.30379147583153,"[18, 0, 236]",236,a,0.29217302124015987,colour,0.4
118,20,1,2,5,17,217,339.8165375114186,340.5838293165434,"[30, 0, 224]",224,a,0.24402811424806714,colour,0.4
118,20,1,2,5,18,218,341.0984063418582,341.7518349281745,"[69, 0, 185]",185,l,0.13083207048475742,colour,0.4
118,20,1,2,5,19,219,342.26960564998444,342.99182060791645,"[51, 0, 203]",203,a,0.19896150706335902,colour,0.4
118,20,1,2,5,20,220,343.5039935975801,344.1517929441761,"[28, 0, 226]",226,a,0.12438678194303066,colour,0.4
118,20,1,2,5,21,221,344.6601759545738,345.20781161868945,"[53, 0, 201]",201,a,0.02427154255565256,colour,0.4
118,20,1,2,5,22,222,345.72272341302596,348.33578003547154,"[90, 0, 164]",164,l,2.089743306976743,colour,0.4
118,20,1,2,5,23,223,348.8477092345711,349.9838231726317,"[87, 0, 167]",167,l,0.612821496441029,colour,0.4
118,20,1,2,5,24,224,350.50400816986803,351.5597936877748,"[34, 0, 220]",220,a,0.5324532977538183,colour,0.4
118,20,1,2,5,25,225,352.0664591360837,353.20776396337897,"[95, 0, 159]",159,l,0.6179714256431907,colour,0.4
118,20,1,2,5,26,226,353.72271002223715,354.75981542805675,"[31, 0, 223]",223,a,0.5138306872686371,colour,0.4
118,20,1,2,5,27,227,355.2696261298843,356.2717812547926,"[44, 0, 210]",210,a,0.4790091939503327,colour,0.4
118,20,1,2,5,28,228,356.78526575141586,357.751818386605,"[96, 0, 158]",158,l,0.44337480270769447,colour,0.4
118,20,1,2,5,29,229,358.2695607515052,359.16777206084225,"[7, 0, 247]",247,a,0.37523630750365555,colour,0.4
118,20,1,2,5,30,230,359.67578879452776,360.5278051281348,"[83, 0, 171]",171,l,0.3286896273493767,colour,0.4
118,20,1,2,5,31,231,361.0352559052408,361.91982793656643,"[4, 0, 250]",250,a,0.36136505426838994,colour,0.4
118,20,1,2,5,32,232,362.4258372376207,363.26377633644734,"[82, 0, 172]",172,l,0.31468525412492454,colour,0.4
118,20,1,2,5,33,233,363.7851586253382,364.6878444182221,"[29, 0, 225]",225,a,0.3794067420531064,colour,0.4
118,20,1,2,5,34,234,365.2070806407137,365.88778423855547,"[24, 0, 230]",230,a,0.15732608549296856,colour,0.4
118,20,1,2,5,35,235,366.39451349002775,367.191786815878,"[92, 0, 162]",162,l,0.27396828122437,colour,0.4
118,20,1,2,5,36,236,367.70704676990863,369.0478428270435,"[88, 0, 166]",166,a,0.8177477999124676,colour,0.4
118,20,1,2,5,37,237,369.5663799730828,370.47977876884397,"[93, 0, 161]",161,l,0.3900295542553067,colour,0.4
118,20,1,2,5,38,238,370.9882488192525,371.9278017410543,"[48, 0, 206]",206,a,0.4161549295531586,colour,0.4
118,20,1,2,5,39,239,372.4414575607516,373.34380110143684,"[85, 0, 169]",169,l,0.37908772681839764,colour,0.4
118,20,1,2,5,40,240,373.86319092381746,374.7277796069393,"[41, 0, 213]",213,a,0.3411591830663383,colour,0.4
118,20,1,2,5,41,241,375.2381968315458,376.2637861826224,"[68, 0, 186]",186,l,0.5022945463424549,colour,0.4
118,20,1,2,5,42,242,376.7851704406785,377.79976715822704,"[99, 0, 155]",155,l,0.4917512909742072,colour,0.4
118,20,1,2,5,43,243,378.31639375770465,379.1918009943329,"[65, 0, 189]",189,a,0.35203129972796887,colour,0.4
118,20,1,2,5,44,244,379.7069561854005,380.65578772337176,"[78, 0, 176]",176,l,0.4258313300088048,colour,0.4
118,20,1,2,5,45,245,381.17569860385265,382.03984460409265,"[12, 0, 242]",242,a,0.34076809405814856,colour,0.4
118,20,1,2,5,46,246,382.5507312930422,383.85576298984233,"[66, 0, 188]",188,a,0.7816782090812922,colour,0.4
118,20,1,2,5,47,247,384.3631405115593,385.4397715063533,"[27, 0, 227]",227,a,0.5532030701870099,colour,0.4
118,20,1,2,5,48,248,385.9569928130368,386.9038023460889,"[91, 0, 163]",163,l,0.42353875294793397,colour,0.4
118,20,1,2,5,49,249,387.4101034869673,388.4238116880879,"[59, 0, 195]",195,a,0.49038031336385757,colour,0.4
118,20,1,2,5,50,250,388.94139848381747,389.79976479522884,"[79, 0, 175]",175,l,0.3350577220553532,colour,0.4
118,20,1,2,6,1,251,394.64373209967744,395.47188215807546,"[99, 0, 155]",155,l,0.3040971002774313,colour,0.28
118,20,1,2,6,2,252,395.98830435145646,396.7598091264954,"[55, 0, 199]",199,a,0.2482718040701002,colour,0.28
118,20,1,2,6,3,253,397.26945677620824,397.9037688691169,"[94, 0, 160]",160,l,0.11123429739382118,colour,0.28
118,20,1,2,6,4,254,398.40997548704036,398.9757989557693,"[93, 0, 161]",161,l,0.042461316450499,colour,0.28
118,20,1,2,6,5,255,399.4881582346279,400.31177355116233,"[31, 0, 223]",223,a,0.30032366258092225,colour,0.28
118,20,1,2,6,6,256,400.8319506715052,401.5437905463623,"[86, 0, 168]",168,l,0.18857854697853327,colour,0.28
118,20,1,2,6,7,257,402.05066748999525,403.10375831404235,"[73, 0, 181]",181,l,0.5292725980980322,colour,0.28
118,20,1,2,6,8,258,403.6132244007895,404.3437739261426,"[67, 0, 187]",187,a,0.2071964314673096,colour,0.28
118,20,1,2,6,9,259,404.86312397010624,406.23979111982044,"[46, 0, 208]",208,a,0.8532195328734815,colour,0.28
118,20,1,2,6,10,260,406.75374508078676,407.83987248840276,"[12, 0, 242]",242,a,0.562752258265391,colour,0.28
118,20,1,2,6,11,261,408.3476005330449,409.7357809806708,"[92, 0, 162]",162,l,0.8656256793765351,colour,0.28
118,20,1,2,6,12,262,410.25373365927953,411.6557881172048,"[97, 0, 157]",157,l,0.8787962808273733,colour,0.28
118,20,1,2,6,13,263,412.17552609939594,413.255834827316,"[39, 0, 215]",215,a,0.5568760772002861,colour,0.28
118,20,1,2,6,14,264,413.76933113927953,414.65577236330137,"[41, 0, 213]",213,a,0.3631003393093124,colour,0.28
118,20,1,2,6,15,265,415.1755201916676,416.12775455834344,"[68, 0, 186]",186,l,0.42879186978098005,colour,0.28
118,20,1,2,6,16,266,416.64443117612973,417.51178583921865,"[59, 0, 195]",195,a,0.34413783985655755,colour,0.28
118,20,1,2,6,17,267,418.0194095146144,418.9277828364866,"[61, 0, 193]",193,a,0.3852128186263144,colour,0.28
118,20,1,2,6,18,268,419.44121613318566,420.3037686328171,"[64, 0, 190]",190,a,0.33916277810931206,colour,0.28
118,20,1,2,6,19,269,420.81618501932826,421.8877936908975,"[70, 0, 184]",184,a,0.5482394299469888,colour,0.28
118,20,1,2,6,20,270,422.39441778545734,423.4318040033104,"[57, 0, 197]",197,a,0.5141020470764488,colour,0.28
118,20,1,2,6,21,271,423.9412244039122,424.84773798531387,"[50, 0, 204]",204,a,0.38315418595448136,colour,0.28
118,20,1,2,6,22,272,425.3631558716297,426.34379361837637,"[42, 0, 212]",212,a,0.4574284066911787,colour,0.28
118,20,1,2,6,23,273,426.8631566592958,428.51977460982744,"[40, 0, 214]",214,a,1.1334795026341453,colour,0.28
118,20,1,2,6,24,274,429.0350018746685,429.9757560265716,"[96, 0, 158]",158,l,0.41762594401370734,colour,0.28
118,20,1,2,6,25,275,430.4881058532046,431.5597771462053,"[72, 0, 182]",182,l,0.5488325619371608,colour,0.28
118,20,1,2,6,26,276,432.0662118009059,432.9597284668125,"[91, 0, 163]",163,l,0.370555842644535,colour,0.28
118,20,1,2,6,27,277,433.47242409014143,434.7517384358216,"[81, 0, 173]",173,l,0.7559577071806416,colour,0.28
118,20,1,2,6,28,278,435.26929805625696,436.3677382689202,"[75, 0, 179]",179,l,0.5753569032531232,colour,0.28
118,20,1,2,6,29,279,436.8787490193499,437.79975061677396,"[16, 0, 238]",238,a,0.3977709896862507,colour,0.28
118,20,1,2,6,30,280,438.3161944716703,439.1997334450716,"[82, 0, 172]",172,l,0.36050213780254126,colour,0.28
118,20,1,2,6,31,281,439.70686481310986,440.4797515934333,"[53, 0, 201]",201,a,0.25000866455957294,colour,0.28
118,20,1,2,6,32,282,440.98808064695913,441.8877460354706,"[52, 0, 202]",202,a,0.3763926391256973,colour,0.28
118,20,1,2,6,33,283,442.39431696082465,442.9677148744231,"[80, 0, 174]",174,l,0.050143281114287674,colour,0.28
118,20,1,2,6,34,284,443.48805307783186,444.36776426271535,"[22, 0, 232]",232,a,0.3565006632125005,colour,0.28
118,20,1,2,6,35,285,444.87873602239415,445.4157744743861,"[85, 0, 169]",169,l,0.013816902646794915,colour,0.28
118,20,1,2,6,36,286,445.92547962558456,446.7517581281718,"[74, 0, 180]",180,l,0.302700916538015,colour,0.28
118,20,1,2,6,37,287,447.26930672081653,448.0637223008089,"[38, 0, 216]",216,a,0.2712944613303989,colour,0.28
118,20,1,2,6,38,288,448.58189474546816,449.46373703063,"[27, 0, 227]",227,a,0.35859237890690565,colour,0.28
118,20,1,2,6,39,289,449.97246780700516,450.9357849978842,"[87, 0, 167]",167,l,0.4400601953966543,colour,0.28
118,20,1,2,6,40,290,451.456826216192,452.31976271572057,"[34, 0, 220]",220,a,0.33960191637743264,colour,0.28
118,20,1,2,6,41,291,452.83181912696455,453.70372704265174,"[51, 0, 203]",203,a,0.3485579724656418,colour,0.28
118,20,1,2,6,42,292,454.222441419377,455.03974929335527,"[89, 0, 165]",165,l,0.2939736847765744,colour,0.28
118,20,1,2,6,43,293,455.55054657929577,456.35175639519,"[33, 0, 221]",221,a,0.27787798969075084,colour,0.28
118,20,1,2,6,44,294,456.86306646850426,457.7117130564293,"[6, 0, 248]",248,a,0.325310823158361,colour,0.28
118,20,1,2,6,45,295,458.2223551670322,459.04772349179257,"[78, 0, 176]",176,l,0.3019715138943866,colour,0.28
118,20,1,2,6,46,296,459.5661440594122,460.567780489102,"[90, 0, 164]",164,a,0.4783215388888493,colour,0.28
118,20,1,2,6,47,297,461.0817261793418,463.03975677653216,"[69, 0, 185]",185,a,1.4345743156736717,colour,0.28
118,20,1,2,6,48,298,463.55052294861525,464.38372959475964,"[95, 0, 159]",159,l,0.30989096767734736,colour,0.28
118,20,1,2,6,49,299,464.89433113927953,465.85571454674937,"[65, 0, 189]",189,a,0.438142953440547,colour,0.28
118,20,1,2,6,50,300,466.3631212131586,467.56772416923195,"[62, 0, 192]",192,a,0.6814003112958744,colour,0.28
118,20,1,2,7,1,301,472.51852690591477,473.99175286642276,"[63, 0, 191]",191,l,0.949239956215024,colour,0.14
118,20,1,2,7,2,302,474.503636379377,475.4717080781702,"[26, 0, 228]",228,a,0.44477925717364997,colour,0.14
118,20,1,2,7,3,303,475.9880176316947,476.8637104065856,"[71, 0, 183]",183,l,0.35236764408182353,colour,0.14
118,20,1,2,7,4,304,477.37862613936886,478.2317609953461,"[75, 0, 179]",179,l,0.32983965741004795,colour,0.14
118,20,1,2,7,5,305,478.7379912439501,479.56773874151986,"[99, 0, 155]",155,l,0.3063947975169867,colour,0.14
118,20,1,2,7,6,306,480.08173681318294,480.87972654483747,"[95, 0, 159]",159,l,0.27465869311708957,colour,0.14
118,20,1,2,7,7,307,481.3942807270214,482.2316983739147,"[70, 0, 184]",184,a,0.31417522369883955,colour,0.14
118,20,1,2,7,8,308,482.7380022716243,483.5117767807096,"[86, 0, 168]",168,l,0.250445045880042,colour,0.14
118,20,1,2,7,9,309,484.01925355172716,484.7036868704017,"[67, 0, 187]",187,a,0.16133898159023374,colour,0.14
118,20,1,2,7,10,310,485.22230121016037,485.99978062778246,"[36, 0, 218]",218,a,0.2540522806812078,colour,0.14
118,20,1,2,7,11,311,486.51912003790494,487.21575785405,"[81, 0, 173]",173,l,0.17339027300477028,colour,0.14
118,20,1,2,7,12,312,487.7223216901766,488.5117062822683,"[88, 0, 166]",166,l,0.26597123977262527,colour,0.14
118,20,1,2,7,13,313,489.0192204685882,489.88773540162947,"[54, 0, 200]",200,a,0.3452803867403418,colour,0.14
118,20,1,2,7,14,314,490.3941739947768,491.2238777753664,"[61, 0, 193]",193,a,0.30632075434550643,colour,0.14
118,20,1,2,7,15,315,491.7378979024943,492.51969820377417,"[0, 0, 254]",254,a,0.2584397243335843,colour,0.14
118,20,1,2,7,16,316,493.0348774193553,493.8477403484285,"[89, 0, 165]",165,l,0.2897737119346857,colour,0.14
118,20,1,2,7,17,317,494.36300975480117,495.199739746633,"[80, 0, 174]",174,l,0.31361281173303723,colour,0.14
118,20,1,2,7,18,318,495.70677265315317,496.5357596342219,"[58, 0, 196]",196,a,0.30600370839238167,colour,0.14
118,20,1,2,7,19,319,497.0504725363571,497.8396960454993,"[77, 0, 177]",177,l,0.2659661198267713,colour,0.14
118,20,1,2,7,20,320,498.347368163988,499.1517173256725,"[96, 0, 158]",158,l,0.2817632796941325,colour,0.14
118,20,1,2,7,21,321,499.6597746255575,500.3997252531117,"[59, 0, 195]",195,a,0.2166251027956605,colour,0.14
118,20,1,2,7,22,322,500.9098014071351,501.5837544858223,"[53, 0, 201]",201,a,0.15071892633568496,colour,0.14
118,20,1,2,7,23,323,502.0973146009492,502.8237098394893,"[98, 0, 156]",156,l,0.20305002154782414,colour,0.14
118,20,1,2,7,24,324,503.3317186962813,504.0396791888634,"[90, 0, 164]",164,l,0.1846987708704546,colour,0.14
118,20,1,2,7,25,325,504.55109993286896,505.1837169129867,"[93, 0, 161]",161,l,0.10989915975369513,colour,0.14
118,20,1,2,7,26,326,505.69112712400965,508.03172231966164,"[84, 0, 170]",170,l,1.8173645879141986,colour,0.14
118,20,1,2,7,27,327,508.550422517932,509.3677126688417,"[64, 0, 190]",190,a,0.29402764164842665,colour,0.14
118,20,1,2,7,28,328,509.87853594869375,510.5116743807448,"[56, 0, 198]",198,a,0.10989915963727981,colour,0.14
118,20,1,2,7,29,329,511.01908695488237,511.6237042469438,"[68, 0, 186]",186,a,0.08151625958271325,colour,0.14
118,20,1,2,7,30,330,512.1440266964491,512.8477001760621,"[76, 0, 178]",178,l,0.1801912043010816,colour,0.14
118,20,1,2,7,31,331,513.3628411886748,514.0077166231349,"[92, 0, 162]",162,l,0.12150894978549331,colour,0.14
118,20,1,2,7,32,332,514.5191578471567,515.2317133400356,"[62, 0, 192]",192,a,0.1895005403785035,colour,0.14
118,20,1,2,7,33,333,515.7379116871161,516.4397230632603,"[85, 0, 169]",169,l,0.17854886676650494,colour,0.14
118,20,1,2,7,34,334,516.9566379579483,517.647717426531,"[50, 0, 204]",204,a,0.1677704855101183,colour,0.14
118,20,1,2,7,35,335,518.1597364224726,518.8317482348066,"[60, 0, 194]",194,a,0.14954999170731753,colour,0.14
118,20,1,2,7,36,336,519.3472488286206,520.0237087367568,"[4, 0, 250]",250,a,0.15384488145355135,colour,0.14
118,20,1,2,7,37,337,520.5347198810196,521.2157263463596,"[82, 0, 172]",172,l,0.1577998821157962,colour,0.14
118,20,1,2,7,38,338,521.7223252347903,522.463672439917,"[94, 0, 160]",160,l,0.21811265882570297,colour,0.14
118,20,1,2,7,39,339,522.9722200778779,523.5916932381224,"[97, 0, 157]",157,l,0.0965343922143802,colour,0.14
118,20,1,2,7,40,340,524.1128557609627,524.8797312710667,"[6, 0, 248]",248,a,0.2435405331198126,colour,0.14
118,20,1,2,7,41,341,525.3940294533968,526.1517244149,"[83, 0, 171]",171,l,0.2343662860803306,colour,0.14
118,20,1,2,7,42,342,526.6596903426107,527.287700900808,"[79, 0, 175]",175,l,0.10475001810118556,colour,0.14
118,20,1,2,7,43,343,527.8003224809654,528.4796795196598,"[73, 0, 181]",181,l,0.15601733548101038,colour,0.14
118,20,1,2,7,44,344,528.9878309486667,530.4477015939774,"[34, 0, 220]",220,a,0.9366219205548987,colour,0.14
118,20,1,2,7,45,345,530.9566993978806,531.8876952293795,"[87, 0, 167]",167,l,0.4078246944118291,colour,0.14
118,20,1,2,7,46,346,532.394096800941,533.0956852603704,"[69, 0, 185]",185,a,0.1782924730796367,colour,0.14
118,20,1,2,7,47,347,533.6128533979645,534.3516823522514,"[51, 0, 203]",203,a,0.21556408191099763,colour,0.14
118,20,1,2,7,48,348,534.8628467025701,536.1916741760215,"[78, 0, 176]",176,l,0.8055405457271263,colour,0.14
118,20,1,2,7,49,349,536.7065607641125,539.951702674618,"[28, 0, 226]",226,a,2.7220983795123175,colour,0.14
118,20,1,2,7,50,350,540.4721767548472,541.1916800836334,"[74, 0, 180]",180,l,0.19685640058014542,colour,0.14
118,20,1,2,8,1,351,545.7526198630221,546.7596937295748,"[51, 0, 203]",203,a,0.48302720999345183,colour,0.06
118,20,1,2,8,2,352,547.2690885302145,548.6317513067042,"[62, 0, 192]",192,l,0.8380529202986509,colour,0.06
118,20,1,2,8,3,353,549.1440904994961,552.5676662737969,"[63, 0, 191]",191,a,2.900380218750797,colour,0.06
118,20,1,2,8,4,354,553.0814374902984,554.0956517835148,"[72, 0, 182]",182,a,0.4908785285660997,colour,0.06
118,20,1,2,8,5,355,554.612772265682,555.2956731299637,"[83, 0, 171]",171,l,0.15958676114678383,colour,0.06
118,20,1,2,8,6,356,555.8158723056549,556.6476457465906,"[92, 0, 162]",162,l,0.30856370693072677,colour,0.06
118,20,1,2,8,7,357,557.1595765211387,558.2396899014711,"[70, 0, 184]",184,l,0.556842994177714,colour,0.06
118,20,1,2,8,8,358,558.7533807733562,559.7996415214147,"[98, 0, 156]",156,l,0.5229635803261772,colour,0.06
118,20,1,2,8,9,359,560.3158707303228,561.3836653978797,"[71, 0, 183]",183,l,0.5444722936954349,colour,0.06
118,20,1,2,8,10,360,561.893926659599,563.079716383596,"[73, 0, 181]",181,l,0.6624429316725582,colour,0.06
118,20,1,2,8,11,361,563.5971401272109,564.5517891632626,"[50, 0, 204]",204,a,0.4313550191000104,colour,0.06
118,20,1,2,8,12,362,565.0659443794284,565.959705229965,"[90, 0, 164]",164,l,0.37058026110753417,colour,0.06
118,20,1,2,8,13,363,566.472101924126,567.4636582614621,"[99, 0, 155]",155,l,0.4682229356840253,colour,0.06
118,20,1,2,8,14,364,567.9721235856414,568.9196688227821,"[76, 0, 178]",178,l,0.42425673396792263,colour,0.06
118,20,1,2,8,15,365,569.4408837271621,570.4156984620495,"[96, 0, 158]",158,l,0.45153371477499604,colour,0.06
118,20,1,2,8,16,366,570.9252035395475,571.8557070636889,"[66, 0, 188]",188,a,0.40712246717885137,colour,0.06
118,20,1,2,8,17,367,572.3626655334374,573.3916848886292,"[84, 0, 170]",170,l,0.5056355413980782,colour,0.06
118,20,1,2,8,18,368,573.9095946380403,575.0796474606032,"[95, 0, 159]",159,l,0.6468080363702029,colour,0.06
118,20,1,2,8,19,369,575.5971306748688,576.57569364144,"[55, 0, 199]",199,a,0.45527249411679804,colour,0.06
118,20,1,2,8,20,370,577.097036545747,578.0476533871843,"[22, 0, 232]",232,a,0.427259415271692,colour,0.06
118,20,1,2,8,21,371,578.5658262256766,579.5276542851934,"[97, 0, 157]",157,l,0.4384576363954693,colour,0.06
118,20,1,2,8,22,372,580.0345808534184,581.0236760475673,"[77, 0, 177]",177,l,0.4658208694308996,colour,0.06
118,20,1,2,8,23,373,581.5345666749636,582.5116554761771,"[60, 0, 194]",194,a,0.45380029804073274,colour,0.06
118,20,1,2,8,24,374,583.0189160257578,583.9196770936251,"[82, 0, 172]",172,l,0.3771381895057857,colour,0.06
118,20,1,2,8,25,375,584.4408581272,585.479650375084,"[88, 0, 166]",166,l,0.5155770001001656,colour,0.06
118,20,1,2,8,26,376,585.9876690780511,586.8876601770753,"[68, 0, 186]",186,a,0.376743555883877,colour,0.06
118,20,1,2,8,27,377,587.3939160257578,588.4476744185667,"[52, 0, 202]",202,a,0.530537631129846,colour,0.06
118,20,1,2,8,28,378,588.9564209488453,589.7836639800807,"[93, 0, 161]",161,l,0.3039580727927387,colour,0.06
118,20,1,2,8,29,379,590.3001161057036,591.1757017546333,"[75, 0, 179]",179,a,0.3522022288525477,colour,0.06
118,20,1,2,8,30,380,591.690872699488,592.4396750141168,"[61, 0, 193]",193,a,0.225650082109496,colour,0.06
118,20,1,2,8,31,381,592.9563480872894,594.5116720177466,"[65, 0, 189]",189,a,1.0319858026923612,colour,0.06
118,20,1,2,8,32,382,595.0189112995286,595.8237334702862,"[94, 0, 160]",160,l,0.28171601821668446,colour,0.06
118,20,1,2,8,33,383,596.3314079518896,597.2876378854271,"[89, 0, 165]",165,l,0.43295442732051015,colour,0.06
118,20,1,2,8,34,384,597.8000964134699,598.5837438519811,"[31, 0, 223]",223,a,0.2603534215595573,colour,0.06
118,20,1,2,8,35,385,599.0969514750177,599.9356782656396,"[91, 0, 163]",163,l,0.3154130813200027,colour,0.06
118,20,1,2,8,36,386,600.4563161857659,601.2636680288706,"[53, 0, 201]",201,a,0.2839822076493874,colour,0.06
118,20,1,2,8,37,387,601.7844835733995,602.559682623134,"[56, 0, 198]",198,a,0.2519329957431182,colour,0.06
118,20,1,2,8,38,388,603.0657537580701,603.9836703604087,"[54, 0, 200]",200,a,0.3946871760999784,colour,0.06
118,20,1,2,8,39,389,604.5031999980565,605.3596797875362,"[78, 0, 176]",176,l,0.3332247631624341,colour,0.06
118,20,1,2,8,40,390,605.8782118135132,606.6876687629847,"[86, 0, 168]",168,l,0.28619601554237306,colour,0.06
118,20,1,2,8,41,391,607.2063614780782,608.0237174013164,"[79, 0, 175]",175,l,0.29403670015744865,colour,0.06
118,20,1,2,8,42,392,608.5344367057551,609.4796421043575,"[85, 0, 169]",169,l,0.4219365876633674,colour,0.06
118,20,1,2,8,43,393,609.9875907027163,610.8077185135335,"[59, 0, 195]",195,a,0.2968550615478307,colour,0.06
118,20,1,2,8,44,394,611.3156596288318,612.2236812462797,"[58, 0, 196]",196,a,0.38499305257573724,colour,0.06
118,20,1,2,8,45,395,612.73763441958,613.4956381564261,"[80, 0, 174]",174,l,0.23476052598562092,colour,0.06
118,20,1,2,8,46,396,614.0033008226892,614.8476477946388,"[16, 0, 238]",238,a,0.32122900406830013,colour,0.06
118,20,1,2,8,47,397,615.3625371396774,616.4236624204786,"[57, 0, 197]",197,a,0.5377788823097944,colour,0.06
118,20,1,2,8,48,398,616.940680108848,617.7996600321494,"[81, 0, 173]",173,l,0.3356181647395715,colour,0.06
118,20,1,2,8,49,399,618.3157517887885,619.3596423721174,"[74, 0, 180]",180,l,0.5205103140324354,colour,0.06
118,20,1,2,8,50,400,619.8782334750285,620.7836312908912,"[67, 0, 187]",187,a,0.38210182962939143,colour,0.06
118,20,1,2,9,1,401,628.8460948601132,630.0636584977619,"[80, 0, 174]",174,l,0.6935035903006792,colour,0.06
118,20,1,2,9,2,402,630.5813157919329,631.327640815638,"[11, 0, 243]",243,a,0.22310229286085814,colour,0.06
118,20,1,2,9,3,403,631.8469010627596,634.6236546223518,"[61, 0, 193]",193,a,2.2534721456468105,colour,0.06
118,20,1,2,9,4,404,635.1438211088534,635.6956579274265,"[83, 0, 171]",171,l,0.028618813841603696,colour,0.06
118,20,1,2,9,5,405,636.2063433611766,636.8716377373785,"[77, 0, 177]",177,l,0.1420842483639717,colour,0.06
118,20,1,2,9,6,406,637.3780601827893,637.943629620946,"[56, 0, 198]",198,a,0.04221201199106872,colour,0.06
118,20,1,2,9,7,407,638.456237416598,639.0956348481122,"[97, 0, 157]",157,l,0.11611286678817123,colour,0.06
118,20,1,2,9,8,408,639.6124859396368,642.8956064124359,"[95, 0, 159]",159,l,2.7597547757904977,colour,0.06
118,20,1,2,9,9,409,643.4093150073895,644.1116466539679,"[69, 0, 185]",185,l,0.17878438660409302,colour,0.06
118,20,1,2,9,10,410,644.6281389519572,645.4156047267606,"[75, 0, 179]",179,l,0.2642213823273778,colour,0.06
118,20,1,2,9,11,411,645.9250101612415,647.0396134165348,"[71, 0, 183]",183,a,0.5913675274932757,colour,0.06
118,20,1,2,9,12,412,647.5499325735727,648.0956407557242,"[68, 0, 186]",186,a,0.022383445175364614,colour,0.06
118,20,1,2,9,13,413,648.6124347397126,649.4876206349581,"[78, 0, 176]",176,l,0.3518107460113242,colour,0.06
118,20,1,2,9,14,414,650.0030755427433,652.3356067432323,"[66, 0, 188]",188,a,1.80962630326394,colour,0.06
118,20,1,2,9,15,415,652.8469065765385,653.4076277714921,"[55, 0, 199]",199,a,0.03748783015180379,colour,0.06
118,20,1,2,9,16,416,653.9249755027704,654.4716048905393,"[52, 0, 202]",202,a,0.0233995676971972,colour,0.06
118,20,1,2,9,17,417,654.9874524627812,655.6076782625169,"[81, 0, 173]",173,l,0.09699558583088219,colour,0.06
118,20,1,2,9,18,418,656.1280755427433,656.7115925395628,"[84, 0, 170]",170,l,0.060258425888605416,colour,0.06
118,20,1,2,9,19,419,657.2217494320357,657.975624482031,"[88, 0, 166]",166,l,0.23046721145510674,colour,0.06
118,20,1,2,9,20,420,658.4873985059094,659.256053017918,"[89, 0, 165]",165,l,0.24533213814720511,colour,0.06
118,20,1,2,9,21,421,659.7686277305475,660.56760247075,"[13, 0, 241]",241,a,0.27555548027157784,colour,0.06
118,20,1,2,9,22,422,661.0811744012171,662.0396090842551,"[72, 0, 182]",182,a,0.43522179825231433,colour,0.06
118,20,1,2,9,23,423,662.5499487211928,663.3436045723502,"[92, 0, 162]",162,l,0.2703594710910693,colour,0.06
118,20,1,2,9,24,424,663.8623654227704,664.7275748070097,"[62, 0, 192]",192,a,0.3418775579193607,colour,0.06
118,20,1,2,9,25,425,665.2374764874112,665.9436221378855,"[87, 0, 167]",167,l,0.1828153997194022,colour,0.06
118,20,1,2,9,26,426,666.4561740073841,667.2396729660686,"[53, 0, 201]",201,a,0.2602715016109869,colour,0.06
118,20,1,2,9,27,427,667.7529640843859,668.4477149846498,"[86, 0, 168]",168,l,0.17151241551619023,colour,0.06
118,20,1,2,9,28,428,668.956164161209,669.6636264387053,"[58, 0, 196]",196,a,0.1842005557846278,colour,0.06
118,20,1,2,9,29,429,670.1749353305204,670.9356002841378,"[99, 0, 155]",155,l,0.23727759520988911,colour,0.06
118,20,1,2,9,30,430,671.4561369859148,672.2716036302736,"[60, 0, 194]",194,a,0.2921072489116341,colour,0.06
118,20,1,2,9,31,431,672.7842051243642,673.4636007599765,"[76, 0, 178]",178,l,0.15607365558389574,colour,0.06
118,20,1,2,9,32,432,673.9718443489401,674.6396479174728,"[94, 0, 160]",160,l,0.14460801298264414,colour,0.06
118,20,1,2,9,33,433,675.159832127043,675.9515912162606,"[51, 0, 203]",203,a,0.2689105118624866,colour,0.06
118,20,1,2,9,34,434,676.4717293458525,677.2236056278925,"[70, 0, 184]",184,a,0.2285889603663236,colour,0.06
118,20,1,2,9,35,435,677.7373354905285,678.3196894603316,"[96, 0, 158]",158,l,0.058961097500286996,colour,0.06
118,20,1,2,9,36,436,678.8310601859121,680.991611475707,"[73, 0, 181]",181,a,1.6372293097665533,colour,0.06
118,20,1,2,9,37,437,681.5030105581973,682.3436144185252,"[18, 0, 236]",236,a,0.3175725385081023,colour,0.06
118,20,1,2,9,38,438,682.8622862597695,683.6395813574782,"[50, 0, 204]",204,a,0.2539573637768626,colour,0.06
118,20,1,2,9,39,439,684.1591074506287,684.8315973917488,"[85, 0, 169]",169,l,0.14888911822345108,colour,0.06
118,20,1,2,9,40,440,685.3466868104879,686.0475864333566,"[59, 0, 195]",195,a,0.1782676607836038,colour,0.06
118,20,1,2,9,41,441,686.5654020536458,687.2715650333557,"[93, 0, 161]",161,l,0.18272993504069746,colour,0.06
118,20,1,2,9,42,442,687.7841637704987,688.5436141034588,"[57, 0, 197]",197,a,0.2360747897764668,colour,0.06
118,20,1,2,9,43,443,689.0498167828191,689.6795764107956,"[82, 0, 172]",172,l,0.10677674924954772,colour,0.06
118,20,1,2,9,44,444,690.1905099673895,690.7915692554088,"[98, 0, 156]",156,l,0.07782316638622433,colour,0.06
118,20,1,2,9,45,445,691.2998270228272,692.0555673271883,"[67, 0, 187]",187,a,0.23251560423523188,colour,0.06
118,20,1,2,9,46,446,692.5654052044265,693.1915776836686,"[64, 0, 190]",190,a,0.10281308379489928,colour,0.06
118,20,1,2,9,47,447,693.7061125674518,694.4955436333548,"[79, 0, 175]",175,l,0.2664521256228909,colour,0.06
118,20,1,2,9,48,448,695.0030014996883,695.6635984756285,"[74, 0, 180]",180,l,0.13746167882345617,colour,0.06
118,20,1,2,9,49,449,696.1749865304446,698.7515895621618,"[54, 0, 200]",200,a,2.053533506928943,colour,0.06
118,20,1,2,9,50,450,699.2685777121224,700.0955545034958,"[91, 0, 163]",163,l,0.30384779581800103,colour,0.06
118,20,1,2,10,1,451,704.8928294047946,706.1195917078294,"[93, 0, 161]",161,l,0.7028846063185483,colour,0.06
118,20,1,2,10,2,452,706.627875862876,707.5837611812167,"[92, 0, 162]",162,l,0.43254364596214145,colour,0.06
118,20,1,2,10,3,453,708.0966592413606,708.7675765557215,"[86, 0, 168]",168,l,0.1475831251591444,colour,0.06
118,20,1,2,10,4,454,709.2841054813471,710.047601793427,"[58, 0, 196]",196,a,0.24018299661111087,colour,0.06
118,20,1,2,10,5,455,710.5653709397884,711.3835783579852,"[83, 0, 171]",171,l,0.29484841658268124,colour,0.06
118,20,1,2,10,6,456,711.8935946474085,712.6556227018591,"[68, 0, 186]",186,a,0.23884037579409778,colour,0.06
118,20,1,2,10,7,457,713.1747391951503,713.9835368465865,"[60, 0, 194]",194,a,0.28542289591860026,colour,0.06
118,20,1,2,10,8,458,714.5029313951964,715.2556012766436,"[40, 0, 214]",214,a,0.22795368684455752,colour,0.06
118,20,1,2,10,9,459,715.7684560136404,716.4555954477983,"[98, 0, 156]",156,l,0.16389504168182611,colour,0.06
118,20,1,2,10,10,460,716.9716202506097,717.6956193305086,"[99, 0, 155]",155,l,0.20073381369002163,colour,0.06
118,20,1,2,10,11,461,718.2059199768119,718.8635627144249,"[79, 0, 175]",175,a,0.1342360806884244,colour,0.06
118,20,1,2,10,12,462,719.3778061521007,720.0395956934663,"[81, 0, 173]",173,a,0.13842266285791993,colour,0.06
118,20,1,2,10,13,463,720.5496891767252,721.2075890958076,"[76, 0, 178]",178,a,0.13452004361897707,colour,0.06
118,20,1,2,10,14,464,721.7215718075167,722.4076029591961,"[57, 0, 197]",197,a,0.16271311009768397,colour,0.06
118,20,1,2,10,15,465,722.9248293859418,723.5677080214955,"[63, 0, 191]",191,a,0.11967008316423744,colour,0.06
118,20,1,2,10,16,466,724.0809825982433,724.6875821168069,"[95, 0, 159]",159,l,0.08337087999098003,colour,0.06
118,20,1,2,10,17,467,725.2060085921548,725.8875963740284,"[70, 0, 184]",184,a,0.15832212183158845,colour,0.06
118,20,1,2,10,18,468,726.3934796444373,727.0795655406546,"[53, 0, 201]",201,a,0.16287537454627454,colour,0.06
118,20,1,2,10,19,469,727.5966001644265,728.359580144519,"[51, 0, 203]",203,a,0.23968360002618283,colour,0.06
118,20,1,2,10,20,470,728.8778778321575,729.6715651908889,"[66, 0, 188]",188,a,0.27048313862178475,colour,0.06
118,20,1,2,10,21,471,730.1903614875628,730.9596063746139,"[59, 0, 195]",195,a,0.24639079603366554,colour,0.06
118,20,1,2,10,22,472,731.4715729890158,732.2955935730133,"[71, 0, 183]",183,a,0.30088252993300557,colour,0.06
118,20,1,2,10,23,473,732.8160609578481,733.479576725862,"[61, 0, 193]",193,a,0.1409027106128633,colour,0.06
118,20,1,2,10,24,474,733.9871570783434,734.6480139925843,"[69, 0, 185]",185,a,0.13748885423410684,colour,0.06
118,20,1,2,10,25,475,735.1704360346776,735.8155615612632,"[67, 0, 187]",187,a,0.12175392196513712,colour,0.06
118,20,1,2,10,26,476,736.3266821947182,736.8715766912792,"[74, 0, 180]",180,a,0.0216016611084342,colour,0.06
118,20,1,2,10,27,477,737.3891532470006,738.0395964812487,"[75, 0, 179]",179,a,0.12712361721787602,colour,0.06
118,20,1,2,10,28,478,738.5453990132082,739.5275837867521,"[13, 0, 241]",241,a,0.45892344578169286,colour,0.06
118,20,1,2,10,29,479,740.0454021638725,740.639594748267,"[87, 0, 167]",167,l,0.07080089359078556,colour,0.06
118,20,1,2,10,30,480,741.1547786900774,741.8555830022087,"[77, 0, 177]",177,l,0.17752959358040243,colour,0.06
118,20,1,2,10,31,481,742.3735049609095,742.9916012356989,"[56, 0, 198]",198,a,0.09491883625742048,colour,0.06
118,20,1,2,10,32,482,743.4984994470142,744.1916233698139,"[78, 0, 176]",176,l,0.16975704429205507,colour,0.06
118,20,1,2,10,33,483,744.7017038562335,745.3595498183277,"[91, 0, 163]",163,l,0.1346598588861525,colour,0.06
118,20,1,2,10,34,484,745.8735597054474,746.4475542955333,"[90, 0, 164]",164,l,0.050671822391450405,colour,0.06
118,20,1,2,10,35,485,746.9672339885728,747.5115885223495,"[73, 0, 181]",181,a,0.021006166003644466,colour,0.06
118,20,1,2,10,36,486,748.0298046838725,748.6875742399134,"[52, 0, 202]",202,a,0.13469766813796014,colour,0.06
118,20,1,2,10,37,487,749.2016306008445,749.8235463934252,"[55, 0, 199]",199,a,0.09874544315971434,colour,0.06
118,20,1,2,10,38,488,750.3422162655042,750.9115969506092,"[94, 0, 160]",160,l,0.04664750467054546,colour,0.06
118,20,1,2,10,39,489,751.4203663239023,752.15157987352,"[85, 0, 169]",169,l,0.2078687264584005,colour,0.06
118,20,1,2,10,40,490,752.6704226438887,753.5035836040042,"[54, 0, 200]",200,a,0.3098704876611009,colour,0.06
118,20,1,2,10,41,491,754.0141170131974,754.8395818300778,"[96, 0, 158]",158,l,0.30214519996661693,colour,0.06
118,20,1,2,10,42,492,755.357915357803,755.9995328986552,"[72, 0, 182]",182,a,0.11828335165046155,colour,0.06
118,20,1,2,10,43,493,756.514125677757,757.1515542735578,"[82, 0, 172]",172,l,0.1140597480116412,colour,0.06
118,20,1,2,10,44,494,757.6703281209338,759.3835779641522,"[65, 0, 189]",189,a,1.1898896601051092,colour,0.06
118,20,1,2,10,45,495,759.9047629362904,760.4395828541601,"[89, 0, 165]",165,l,0.011584190069697797,colour,0.06
118,20,1,2,10,46,496,760.9516940100584,763.1515932643088,"[50, 0, 204]",204,a,1.6770569785730913,colour,0.06
118,20,1,2,10,47,497,763.6703159116441,764.5197257729014,"[97, 0, 157]",157,l,0.3259957212721929,colour,0.06
118,20,1,2,10,48,498,765.0297672685701,766.0715755884303,"[88, 0, 166]",166,a,0.518438684521243,colour,0.06
118,20,1,2,10,49,499,766.5921284378273,767.9436118978774,"[4, 0, 250]",250,a,0.8280673507833853,colour,0.06
118,20,1,2,10,50,500,768.451598699321,769.4315161019331,"[80, 0, 174]",174,l,0.456757293199189,colour,0.06
118,20,1,2,11,1,501,773.84135531832,774.9915512172738,"[71, 0, 183]",183,l,0.6260519624920562,colour,0.06
118,20,1,2,11,2,502,775.4984096501721,776.2555402305443,"[76, 0, 178]",178,l,0.23377039725892246,colour,0.06
118,20,1,2,11,3,503,776.7640918070683,777.463559406111,"[80, 0, 174]",174,l,0.1764268249971792,colour,0.06
118,20,1,2,11,4,504,777.9827487609582,778.7115118011134,"[94, 0, 160]",160,l,0.2054134908830747,colour,0.06
118,20,1,2,11,5,505,779.2328602193156,779.8075432521291,"[53, 0, 201]",201,a,0.051418948103673756,colour,0.06
118,20,1,2,11,6,506,780.3265604962362,781.2075248989277,"[96, 0, 158]",158,l,0.35776215174701065,colour,0.06
118,20,1,2,11,7,507,781.7172883392777,782.4715722013498,"[60, 0, 194]",194,a,0.23133761098142713,colour,0.06
118,20,1,2,11,8,508,782.9828806993319,783.7115531549789,"[50, 0, 204]",204,a,0.2053949801484123,colour,0.06
118,20,1,2,11,9,509,784.232851160923,784.8555495253531,"[88, 0, 166]",166,l,0.09927083365619183,colour,0.06
118,20,1,2,11,10,510,785.3735266224248,786.0795336391311,"[97, 0, 157]",157,l,0.1826889751246199,colour,0.06
118,20,1,2,11,11,511,786.5922473793617,787.3515657738317,"[89, 0, 165]",165,l,0.23600350366905332,colour,0.06
118,20,1,2,11,12,512,787.8579267793102,788.5275538545102,"[68, 0, 186]",186,a,0.14631021511740983,colour,0.06
118,20,1,2,11,13,513,789.0453159116441,789.7675359896384,"[55, 0, 199]",199,a,0.19885359331965446,colour,0.06
118,20,1,2,11,14,514,790.2796818040079,790.8315398902632,"[72, 0, 182]",182,a,0.02855501079466194,colour,0.06
118,20,1,2,11,15,515,791.3421638839645,792.0555492102867,"[56, 0, 198]",198,a,0.19072067504748702,colour,0.06
118,20,1,2,11,16,516,792.5766439916333,794.751552146743,"[46, 0, 208]",208,a,1.6516940888250247,colour,0.06
118,20,1,2,11,17,517,795.2640429701423,796.0955517465482,"[91, 0, 163]",163,l,0.30810960254166275,colour,0.06
118,20,1,2,11,18,518,796.6078389516333,797.4076474637259,"[2, 0, 252]",252,a,0.27648219966795295,colour,0.06
118,20,1,2,11,19,519,797.9204250070034,798.6154988609487,"[59, 0, 195]",195,a,0.17185624304693192,colour,0.06
118,20,1,2,11,20,520,799.1235155947506,799.9035585554084,"[85, 0, 169]",169,l,0.25676509144250304,colour,0.06
118,20,1,2,11,21,521,800.4202398994239,801.1755457916297,"[62, 0, 192]",192,a,0.23187836143188179,colour,0.06
118,20,1,2,11,22,522,801.6858696747804,802.3835500010755,"[93, 0, 161]",161,l,0.17454857379198074,colour,0.06
118,20,1,2,11,23,523,802.9047011024086,803.6475571312476,"[92, 0, 162]",162,l,0.219588793348521,colour,0.06
118,20,1,2,11,24,524,804.1547030716902,804.8475071915891,"[73, 0, 181]",181,a,0.16946126602124423,colour,0.06
118,20,1,2,11,25,525,805.3578763670521,806.0475722549018,"[83, 0, 171]",171,a,0.16641604935284704,colour,0.06
118,20,1,2,11,26,526,806.5610020069871,807.5355390805053,"[84, 0, 170]",170,a,0.4512737764744088,colour,0.06
118,20,1,2,11,27,527,808.045289524016,808.6395667851903,"[90, 0, 164]",164,l,0.07094504113774747,colour,0.06
118,20,1,2,11,28,528,809.1546416316414,809.7915078154765,"[67, 0, 187]",187,a,0.11349694221280515,colour,0.06
118,20,1,2,11,29,529,810.310927963932,811.0475596518954,"[63, 0, 191]",191,a,0.21334357862360775,colour,0.06
118,20,1,2,11,30,530,811.5609559270088,812.33550513105,"[78, 0, 176]",176,a,0.251172085525468,colour,0.06
118,20,1,2,11,31,531,812.8420638471143,814.999546289444,"[98, 0, 156]",156,l,1.6341514037922025,colour,0.06
118,20,1,2,11,32,532,815.5139393886784,816.335551210912,"[75, 0, 179]",179,a,0.2981630237773061,colour,0.06
118,20,1,2,11,33,533,816.8420732994564,817.9915350695373,"[87, 0, 167]",167,l,0.6260176978539675,colour,0.06
118,20,1,2,11,34,534,818.4983812932624,819.3195457066176,"[51, 0, 203]",203,a,0.2979566486319527,colour,0.06
118,20,1,2,11,35,535,819.8264628225006,820.5595069678966,"[70, 0, 184]",184,a,0.20971665147226304,colour,0.06
118,20,1,2,11,36,536,821.076549468562,821.663492137217,"[61, 0, 193]",193,a,0.06373293465003371,colour,0.06
118,20,1,2,11,37,537,822.1701812163228,822.7435480160639,"[58, 0, 196]",196,a,0.05003182275686413,colour,0.06
118,20,1,2,11,38,538,823.2641122869682,823.9675746653229,"[13, 0, 241]",241,a,0.1801746628480032,colour,0.06
118,20,1,2,11,39,539,824.4826955917524,825.1834880885435,"[82, 0, 172]",172,l,0.17765444284304976,colour,0.06
118,20,1,2,11,40,540,825.7014746378409,826.6395486682886,"[86, 0, 168]",168,l,0.41482727497350425,colour,0.06
118,20,1,2,11,41,541,827.154570739367,828.0555247918237,"[77, 0, 177]",177,a,0.3774958016583696,colour,0.06
118,20,1,2,11,42,542,828.5765526193427,829.6315161806997,"[69, 0, 185]",185,a,0.5317372857825831,colour,0.06
118,20,1,2,11,43,543,830.1389945270494,831.0075362416683,"[57, 0, 197]",197,a,0.34522682370152324,colour,0.06
118,20,1,2,11,44,544,831.5139909824356,832.4395430757431,"[54, 0, 200]",200,a,0.4021962424740195,colour,0.06
118,20,1,2,11,45,545,832.9515597085701,833.9034979031421,"[74, 0, 180]",180,l,0.42875524214468896,colour,0.06
118,20,1,2,11,46,546,834.4203123670304,835.4634672461543,"[66, 0, 188]",188,a,0.5198588928906247,colour,0.06
118,20,1,2,11,47,547,835.9827668778598,836.8395054240245,"[64, 0, 190]",190,a,0.3334275938104838,colour,0.06
118,20,1,2,11,48,548,837.3577975977678,838.263601468876,"[65, 0, 189]",189,a,0.38249094947241247,colour,0.06
118,20,1,2,11,49,549,838.7796026408905,839.7435452591162,"[52, 0, 202]",202,a,0.44070925342384726,colour,0.06
118,20,1,2,11,50,550,840.2639019732596,841.0555149456486,"[81, 0, 173]",173,l,0.2681822908343747,colour,0.06
118,20,1,2,12,1,551,846.325635746005,848.1034975880757,"[83, 0, 171]",171,l,1.2538077023345977,colour,0.06
118,20,1,2,12,2,552,848.623384444043,849.3355130079435,"[80, 0, 174]",174,l,0.18879161775112152,colour,0.06
118,20,1,2,12,3,553,849.8420197364176,850.6395088898716,"[76, 0, 178]",178,l,0.27398245967924595,colour,0.06
118,20,1,2,12,4,554,851.1546243025223,852.5274676021654,"[71, 0, 183]",183,a,0.849544950411655,colour,0.06
118,20,1,2,12,5,555,853.0451796409907,854.4715497521684,"[68, 0, 186]",186,a,0.9029725127620623,colour,0.06
118,20,1,2,12,6,556,854.9826955917524,856.5034969579428,"[57, 0, 197]",197,a,0.9974140076665208,colour,0.06
118,20,1,2,12,7,557,857.0139200901613,857.9754893928766,"[66, 0, 188]",188,a,0.4381366518791765,colour,0.06
118,20,1,2,12,8,558,858.4827400962822,859.9035187769914,"[81, 0, 173]",173,l,0.8975177466636524,colour,0.06
118,20,1,2,12,9,559,860.4201489209663,861.4794782643439,"[86, 0, 168]",168,l,0.5361286678817123,colour,0.06
118,20,1,2,12,10,560,861.9982792871306,862.8635182097787,"[88, 0, 166]",166,l,0.3418314780574292,colour,0.06
118,20,1,2,12,11,561,863.3732528995024,864.3835515764076,"[53, 0, 201]",201,a,0.4868234908208251,colour,0.06
118,20,1,2,12,12,562,864.9046325732488,866.1435087890131,"[64, 0, 190]",190,a,0.7156365495175123,colour,0.06
118,20,1,2,12,13,563,866.6545352933463,868.1275529091945,"[65, 0, 189]",189,a,0.9497054819948971,colour,0.06
118,20,1,2,12,14,564,868.6389161517145,869.9195108906133,"[61, 0, 193]",193,a,0.7572959957178682,colour,0.06
118,20,1,2,12,15,565,870.4358330471441,871.7434983914718,"[16, 0, 238]",238,a,0.7845910934265703,colour,0.06
118,20,1,2,12,16,566,872.2638854318066,873.4074879561085,"[79, 0, 175]",175,l,0.6202557319775224,colour,0.06
118,20,1,2,12,17,567,873.9201867302181,874.8315359518165,"[77, 0, 177]",177,l,0.3881784783443436,colour,0.06
118,20,1,2,12,18,568,875.3419492379762,876.7195273532998,"[85, 0, 169]",169,l,0.8545633350731805,colour,0.06
118,20,1,2,12,19,569,877.232703862479,878.1754922285909,"[90, 0, 164]",164,l,0.4195014382712543,colour,0.06
118,20,1,2,12,20,570,878.6857775148237,879.7995343953371,"[56, 0, 198]",198,a,0.5906503341393545,colour,0.06
118,20,1,2,12,21,571,880.3107428563526,881.1355330152437,"[58, 0, 196]",196,a,0.301349631161429,colour,0.06
118,20,1,2,12,22,572,881.6544829118066,882.5834748552879,"[2, 0, 252]",252,a,0.4056514527183026,colour,0.06
118,20,1,2,12,23,573,883.0919035518309,884.0555397579446,"[51, 0, 203]",203,a,0.44018228771165013,colour,0.06
118,20,1,2,12,24,574,884.576411228627,885.9595350885065,"[87, 0, 167]",167,l,0.8600058919982985,colour,0.06
118,20,1,2,12,25,575,886.4670039825141,887.575579819968,"[78, 0, 176]",176,l,0.58519556815736,colour,0.06
118,20,1,2,12,26,576,888.0919996502344,889.0478507040534,"[89, 0, 165]",165,l,0.43279570748563856,colour,0.06
118,20,1,2,12,27,577,889.5607168625575,890.6954436752712,"[95, 0, 159]",159,l,0.6113804142223671,colour,0.06
118,20,1,2,12,28,578,891.2169433302479,892.3914875717601,"[70, 0, 184]",184,a,0.6510729938745499,colour,0.06
118,20,1,2,12,29,579,892.904520720942,894.2794726717984,"[67, 0, 187]",187,a,0.8516571461223066,colour,0.06
118,20,1,2,12,30,580,894.7951134748291,895.4074623561464,"[35, 0, 219]",219,a,0.08905368275009096,colour,0.06
118,20,1,2,12,31,581,895.9201063856017,897.0634978086455,"[91, 0, 163]",163,l,0.6200174553086981,colour,0.06
118,20,1,2,12,32,582,897.5763694810448,898.4314617512282,"[54, 0, 200]",200,a,0.3318376378156245,colour,0.06
118,20,1,2,12,33,583,898.9513371856883,899.6474311006023,"[82, 0, 172]",172,l,0.17281250096857548,colour,0.06
118,20,1,2,12,34,584,900.154450222617,901.0714920931496,"[74, 0, 180]",180,l,0.3937242227839306,colour,0.06
118,20,1,2,12,35,585,901.592002013349,902.4714867367875,"[98, 0, 156]",156,l,0.35622221417725086,colour,0.06
118,20,1,2,12,36,586,902.9826365148183,903.8474874993553,"[92, 0, 162]",162,l,0.3415636628633365,colour,0.06
118,20,1,2,12,37,587,904.3575805886649,905.1755186163355,"[62, 0, 192]",192,a,0.29459517367649823,colour,0.06
118,20,1,2,12,38,588,905.6856644810177,906.5514473050134,"[55, 0, 199]",199,a,0.34257033304311335,colour,0.06
118,20,1,2,12,39,589,907.0607645178679,907.895470141666,"[60, 0, 194]",194,a,0.3113950651604682,colour,0.06
118,20,1,2,12,40,590,908.4045120563824,909.223426034092,"[59, 0, 195]",195,a,0.29555221914779395,colour,0.06
118,20,1,2,12,41,591,909.732639271766,910.5354737021262,"[50, 0, 204]",204,a,0.2795128441648558,colour,0.06
118,20,1,2,12,42,592,911.0450949640945,911.8715483343694,"[94, 0, 160]",160,l,0.30313060246407986,colour,0.06
118,20,1,2,12,43,593,912.3888582563959,913.4155554960016,"[63, 0, 191]",191,a,0.5034303979482502,colour,0.06
118,20,1,2,12,44,594,913.9356888994807,914.8074373075506,"[97, 0, 157]",157,l,0.3485178002156317,colour,0.06
118,20,1,2,12,45,595,915.3263462440809,916.231517598615,"[73, 0, 181]",181,a,0.381837165215984,colour,0.06
118,20,1,2,12,46,596,916.7482135149185,917.6794708600501,"[69, 0, 185]",185,a,0.40790110046509653,colour,0.06
118,20,1,2,12,47,597,918.1858401363716,919.1674558025552,"[72, 0, 182]",182,a,0.45858395064715296,colour,0.06
118,20,1,2,12,48,598,919.6856983518228,920.5914388136007,"[99, 0, 155]",155,l,0.38251733710058033,colour,0.06
118,20,1,2,12,49,599,921.1075368718011,922.031446233741,"[84, 0, 170]",170,a,0.4005172773031518,colour,0.06
118,20,1,2,12,50,600,922.5450398257235,923.8394491040381,"[75, 0, 179]",179,a,0.7711148675298318,colour,0.06
118,20,1,2,13,1,601,928.5911643030122,929.4234564390499,"[53, 0, 201]",201,a,0.3082017624983564,colour,0.06
118,20,1,2,13,2,602,929.9356924440945,930.5754585154355,"[81, 0, 173]",173,l,0.1165327065391466,colour,0.06
118,20,1,2,13,3,603,931.0919208810665,931.8954673848348,"[88, 0, 166]",166,l,0.2802103452850133,colour,0.06
118,20,1,2,13,4,604,932.4045620748075,933.3115273974836,"[59, 0, 195]",195,a,0.38375125639140606,colour,0.06
118,20,1,2,13,5,605,933.8263088287786,934.5354993020883,"[98, 0, 156]",156,l,0.1859425363363698,colour,0.06
118,20,1,2,13,6,606,935.0450756656937,935.791442043148,"[60, 0, 194]",194,a,0.22309165890328586,colour,0.06
118,20,1,2,13,7,607,936.3107058348833,937.1995227375301,"[51, 0, 203]",203,a,0.3662747375201434,colour,0.06
118,20,1,2,13,8,608,937.7169338780222,940.3114793482237,"[89, 0, 165]",165,l,2.071591736166738,colour,0.06
118,20,1,2,13,9,609,940.826258022571,942.9274449166842,"[38, 0, 216]",216,a,1.5778231663862243,colour,0.06
118,20,1,2,13,10,610,943.4356822040863,944.3034381960751,"[63, 0, 191]",191,a,0.34456555638462305,colour,0.06
118,20,1,2,13,11,611,944.810661330237,945.7195100241806,"[86, 0, 168]",168,l,0.38503243715967983,colour,0.06
118,20,1,2,13,12,612,946.2324896103237,946.9755016021663,"[55, 0, 199]",199,a,0.21956831344868988,colour,0.06
118,20,1,2,13,13,613,947.4824478626251,948.3354251802666,"[80, 0, 174]",174,l,0.3296604575589299,colour,0.06
118,20,1,2,13,14,614,948.8418724379735,950.5114928177791,"[85, 0, 169]",169,l,1.1462523196823895,colour,0.06
118,20,1,2,13,15,615,951.029392327182,952.3594482060289,"[58, 0, 196]",196,a,0.8066752157174051,colour,0.06
118,20,1,2,13,16,616,952.8731953980168,953.895430363249,"[94, 0, 160]",160,l,0.49890628980938345,colour,0.06
118,20,1,2,13,17,617,954.4043131641811,955.1034440250369,"[83, 0, 171]",171,l,0.17581872688606381,colour,0.06
118,20,1,2,13,18,618,955.6231347456342,956.3434458525153,"[68, 0, 186]",186,a,0.19700330519117415,colour,0.06
118,20,1,2,13,19,619,956.8574655856937,957.6714391602436,"[93, 0, 161]",161,l,0.29060078831389546,colour,0.06
118,20,1,2,13,20,620,958.1855608995538,959.0634993839776,"[87, 0, 167]",167,l,0.3545511258998886,colour,0.06
118,20,1,2,13,21,621,959.5762237580493,960.4634329815162,"[52, 0, 202]",202,a,0.36384588957298547,colour,0.06
118,20,1,2,13,22,622,960.9825045764446,961.8234676242573,"[56, 0, 198]",198,a,0.31763634155504405,colour,0.06
118,20,1,2,13,23,623,962.3418822841486,963.1194656770676,"[82, 0, 172]",172,l,0.25500775082036853,colour,0.06
118,20,1,2,13,24,624,963.6387235610746,965.9034490662161,"[13, 0, 241]",241,a,1.7414460603613406,colour,0.06
118,20,1,2,13,25,625,966.4200425825547,967.1114402787061,"[72, 0, 182]",182,l,0.16828012210316956,colour,0.06
118,20,1,2,13,26,626,967.6230764564825,968.2554181383457,"[90, 0, 164]",164,l,0.10893896338529885,colour,0.06
118,20,1,2,13,27,627,968.7638235979248,969.3674192536855,"[67, 0, 187]",187,a,0.08034023561049253,colour,0.06
118,20,1,2,13,28,628,969.8887491610367,970.4954333564965,"[96, 0, 158]",158,l,0.08346067683305591,colour,0.06
118,20,1,2,13,29,629,971.0138019364094,971.5435046142666,"[99, 0, 155]",155,l,0.006452377769164741,colour,0.06
118,20,1,2,13,30,630,972.0761201765854,972.703441504389,"[62, 0, 192]",192,a,0.10393200011458248,colour,0.06
118,20,1,2,13,31,631,973.2167495581089,973.7514564421726,"[64, 0, 190]",190,a,0.011352214845828712,colour,0.06
118,20,1,2,13,32,632,974.2636550319148,974.9994048987282,"[73, 0, 181]",181,a,0.2124085882678628,colour,0.06
118,20,1,2,13,33,633,975.513675118098,977.4394237403758,"[54, 0, 200]",200,a,1.40237780532334,colour,0.06
118,20,1,2,13,34,634,977.9512414811179,978.8474587484961,"[75, 0, 179]",179,l,0.37301541038323194,colour,0.06
118,20,1,2,13,35,635,979.3574521949049,980.0314269352239,"[76, 0, 178]",178,a,0.1505460279295221,colour,0.06
118,20,1,2,13,36,636,980.544829905848,981.2154152081348,"[77, 0, 177]",177,a,0.14723023923579603,colour,0.06
118,20,1,2,13,37,637,981.7323978442,982.359433239908,"[50, 0, 204]",204,a,0.10380754480138421,colour,0.06
118,20,1,2,13,38,638,982.8733423025114,983.6474468543893,"[71, 0, 183]",183,a,0.2512146207736805,colour,0.06
118,20,1,2,13,39,639,984.1542832319392,984.9514194994699,"[65, 0, 189]",189,a,0.27382846595719457,colour,0.06
118,20,1,2,13,40,640,985.4667739765719,986.2394425661769,"[84, 0, 170]",170,l,0.24930092343129218,colour,0.06
118,20,1,2,13,41,641,986.747939791996,987.367435795255,"[57, 0, 197]",197,a,0.09612400480546057,colour,0.06
118,20,1,2,13,42,642,987.8886546380818,988.5754679676611,"[69, 0, 185]",185,a,0.16362919565290213,colour,0.06
118,20,1,2,13,43,643,989.0917243519798,989.7674587958027,"[74, 0, 180]",180,a,0.1524041930679232,colour,0.06
118,20,1,2,13,44,644,990.2792414842406,991.0954028728884,"[16, 0, 238]",238,a,0.2928547685733065,colour,0.06
118,20,1,2,13,45,645,991.6073714565719,992.8634303822182,"[70, 0, 184]",184,a,0.7325687734410167,colour,0.06
118,20,1,2,13,46,646,993.3731469549239,994.5914592936169,"[95, 0, 159]",159,l,0.694918678724207,colour,0.06
118,20,1,2,13,47,647,995.1074159611017,996.007435810985,"[79, 0, 175]",175,a,0.3763906699605286,colour,0.06
118,20,1,2,13,48,648,996.5137172595132,997.8634516499005,"[92, 0, 162]",162,l,0.8263619979843497,colour,0.06
118,20,1,2,13,49,649,998.3730634595267,999.8474473269889,"[66, 0, 188]",188,a,0.9510595243191347,colour,0.06
118,20,1,2,13,50,650,1000.3574876410421,1001.1513904336607,"[78, 0, 176]",176,l,0.2705146464286372,colour,0.06
118,20,1,2,14,1,651,1005.6848311030772,1006.5753911677748,"[99, 0, 155]",155,l,0.36647520505357534,colour,0.06
118,20,1,2,14,2,652,1007.0919283641269,1007.7274137240602,"[20, 0, 234]",234,a,0.1123280074680224,colour,0.06
118,20,1,2,14,3,653,1008.2480587334139,1008.8314142534509,"[86, 0, 168]",168,l,0.060039841453544796,colour,0.06
118,20,1,2,14,4,654,1009.3417574350024,1010.0794020945905,"[68, 0, 186]",186,a,0.21503790374845266,colour,0.06
118,20,1,2,14,5,655,1010.5917783088516,1011.2313714817865,"[78, 0, 176]",176,a,0.11624992522411048,colour,0.06
118,20,1,2,14,6,656,1011.748084333376,1012.895405944786,"[82, 0, 172]",172,l,0.6240457112435251,colour,0.06
118,20,1,2,14,7,657,1013.4042737795971,1013.9834041205468,"[88, 0, 166]",166,l,0.055745739373378456,colour,0.06
118,20,1,2,14,8,658,1014.4980634595267,1016.0074224201962,"[46, 0, 208]",208,a,0.9859597868053243,colour,0.06
118,20,1,2,14,9,659,1016.5136621211423,1017.3114088498987,"[51, 0, 203]",203,a,0.27437512413598597,colour,0.06
118,20,1,2,14,10,660,1017.826129234978,1020.0154037077446,"[83, 0, 171]",171,l,1.6658965665847063,colour,0.06
118,20,1,2,14,11,661,1020.5292458165204,1021.599477602751,"[65, 0, 189]",189,a,0.5468054369557649,colour,0.06
118,20,1,2,14,12,662,1022.1074006011477,1023.2793722411152,"[96, 0, 158]",158,l,0.6485645892098546,colour,0.06
118,20,1,2,14,13,663,1023.7948350257939,1024.7674111404922,"[85, 0, 169]",169,l,0.4491986023494974,colour,0.06
118,20,1,2,14,14,664,1025.2792257304536,1026.0474407103611,"[87, 0, 167]",167,l,0.24478941841516644,colour,0.06
118,20,1,2,14,15,665,1026.5604553489247,1027.2313494263217,"[79, 0, 175]",175,l,0.14759100193623453,colour,0.06
118,20,1,2,14,16,666,1027.7480224996107,1028.367396804504,"[77, 0, 177]",177,l,0.09605547564569861,colour,0.06
118,20,1,2,14,17,667,1028.8887011118932,1029.527414826909,"[94, 0, 160]",160,l,0.11542442417703569,colour,0.06
118,20,1,2,14,18,668,1030.0448503857478,1030.711399948923,"[57, 0, 197]",197,a,0.14312045695260167,colour,0.06
118,20,1,2,14,19,669,1031.2322607858805,1033.0954016912729,"[98, 0, 156]",156,l,1.339711799286306,colour,0.06
118,20,1,2,14,20,670,1033.6074167487677,1034.5194339330774,"[75, 0, 179]",179,l,0.38870898878667504,colour,0.06
118,20,1,2,14,21,671,1035.0292765365448,1037.3433603878366,"[60, 0, 194]",194,a,1.7907378466334194,colour,0.06
118,20,1,2,14,22,672,1037.8573151365854,1038.927354332176,"[50, 0, 204]",204,a,0.5465923664160073,colour,0.06
118,20,1,2,14,23,673,1039.4354951273417,1040.2233744403347,"[91, 0, 163]",163,l,0.2647719789529219,colour,0.06
118,20,1,2,14,24,674,1040.7323226196459,1041.5914285735926,"[70, 0, 184]",184,a,0.3357784600229934,colour,0.06
118,20,1,2,14,25,675,1042.1073281335412,1043.01540488936,"[76, 0, 178]",178,l,0.3847020004177466,colour,0.06
118,20,1,2,14,26,676,1043.529208007385,1044.2793856317876,"[55, 0, 199]",199,a,0.22690487513318658,colour,0.06
118,20,1,2,14,27,677,1044.7947905211477,1046.2233842865098,"[93, 0, 161]",161,l,0.9052859636722133,colour,0.06
118,20,1,2,14,28,678,1046.7323308903724,1047.495425873436,"[74, 0, 180]",180,a,0.23977536603342742,colour,0.06
118,20,1,2,14,29,679,1048.0135416042758,1048.6793932724977,"[92, 0, 162]",162,l,0.14250999584328383,colour,0.06
118,20,1,2,14,30,680,1049.2010670073796,1050.0233692415059,"[63, 0, 191]",191,a,0.2989648941438645,colour,0.06
118,20,1,2,14,31,681,1050.5447991858236,1051.3594269383466,"[89, 0, 165]",165,l,0.29129238170571625,colour,0.06
118,20,1,2,14,32,682,1051.8729275827063,1052.719393445761,"[69, 0, 185]",185,a,0.32306629535742104,colour,0.06
118,20,1,2,14,33,683,1053.2323222258128,1054.0553802503273,"[59, 0, 195]",195,a,0.2997206844156608,colour,0.06
118,20,1,2,14,34,684,1054.5759744535899,1055.3994243547786,"[95, 0, 159]",159,l,0.30002749047707766,colour,0.06
118,20,1,2,14,35,685,1055.9198767734924,1056.9353828812018,"[64, 0, 190]",190,a,0.49239168444182724,colour,0.06
118,20,1,2,14,36,686,1057.4511020596838,1058.503329179599,"[71, 0, 183]",183,a,0.5289689429337159,colour,0.06
118,20,1,2,14,37,687,1059.013592410367,1059.8313823519275,"[90, 0, 164]",164,l,0.29446796141564846,colour,0.06
118,20,1,2,14,38,688,1060.3417278965935,1062.183349060826,"[61, 0, 193]",193,a,1.3190982976229861,colour,0.06
118,20,1,2,14,39,689,1062.7011028473498,1063.5193614654709,"[67, 0, 187]",187,a,0.29489528422709554,colour,0.06
118,20,1,2,14,40,690,1064.029213521164,1064.9753795098513,"[81, 0, 173]",173,l,0.42287472856696695,colour,0.06
118,20,1,2,14,41,691,1065.482293868903,1066.2313813278452,"[53, 0, 201]",201,a,0.22522669762838632,colour,0.06
118,20,1,2,14,42,692,1066.7479512135033,1067.5113904178143,"[58, 0, 196]",196,a,0.24007232580333948,colour,0.06
118,20,1,2,14,43,693,1068.0292253365042,1068.7033903044648,"[84, 0, 170]",170,l,0.1508532278239727,colour,0.06
118,20,1,2,14,44,694,1069.216677484219,1069.9194053398678,"[80, 0, 174]",174,l,0.17950276157353073,colour,0.06
118,20,1,2,14,45,695,1070.4354963088408,1071.0313706152374,"[73, 0, 181]",181,a,0.07271695393137634,colour,0.06
118,20,1,2,14,46,696,1071.5448133642785,1072.463396747713,"[56, 0, 198]",198,a,0.3951507327146828,colour,0.06
118,20,1,2,14,47,697,1072.9822769335005,1073.7194202272221,"[72, 0, 182]",182,a,0.2138118613511324,colour,0.06
118,20,1,2,14,48,698,1074.2322757520014,1074.8553691438865,"[66, 0, 188]",188,a,0.09975920256692916,colour,0.06
118,20,1,2,14,49,699,1075.3729043458588,1077.9753952637548,"[97, 0, 157]",157,l,2.079092137864791,colour,0.06
118,20,1,2,14,50,700,1078.4823155304184,1079.0393392997794,"[8, 0, 246]",246,a,0.03369430627208203,colour,0.06
118,20,1,2,15,1,701,1083.4190563923912,1083.983360403683,"[60, 0, 194]",194,a,0.04017779778223485,colour,0.06
118,20,1,2,15,2,702,1084.4979492442217,1085.0234109892044,"[74, 0, 180]",180,l,0.002078718738630414,colour,0.06
118,20,1,2,15,3,703,1085.544854718144,1087.2713555073133,"[3, 0, 251]",251,a,1.203168175299652,colour,0.06
118,20,1,2,15,4,704,1087.7792162781116,1088.6073316781549,"[97, 0, 157]",157,l,0.30476151849143207,colour,0.06
118,20,1,2,15,5,705,1089.1229598780628,1089.9593999993522,"[83, 0, 171]",171,l,0.3130964796291664,colour,0.06
118,20,1,2,15,6,706,1090.4666932381224,1091.3193771404913,"[96, 0, 158]",158,l,0.32936349767260253,colour,0.06
118,20,1,2,15,7,707,1091.8259949334897,1092.7034324459964,"[92, 0, 162]",162,l,0.3540044678375125,colour,0.06
118,20,1,2,15,8,708,1093.2167330165394,1095.9433598364703,"[80, 0, 174]",174,a,2.203319412190467,colour,0.06
118,20,1,2,15,9,709,1096.4510752781061,1097.1994782328838,"[17, 0, 237]",237,a,0.225570525159128,colour,0.06
118,20,1,2,15,10,710,1097.716725927312,1098.4633345201146,"[52, 0, 202]",202,a,0.22366391716059297,colour,0.06
118,20,1,2,15,11,711,1098.9823045027442,1099.8713841005228,"[63, 0, 191]",191,l,0.36571862699929625,colour,0.06
118,20,1,2,15,12,712,1100.3885022196919,1101.0953839682043,"[58, 0, 196]",196,a,0.18354322691448033,colour,0.06
118,20,1,2,15,13,713,1101.6073127734708,1102.3513637308497,"[53, 0, 201]",201,a,0.2206970757106319,colour,0.06
118,20,1,2,15,14,714,1102.8572804781143,1103.6953633306548,"[95, 0, 159]",159,l,0.31469549401663244,colour,0.06
118,20,1,2,15,15,715,1104.216632192023,1104.8953783756588,"[59, 0, 195]",195,a,0.15548012976069003,colour,0.06
118,20,1,2,15,16,716,1105.4041642904049,1106.0553648903733,"[62, 0, 192]",192,a,0.12778094608802348,colour,0.06
118,20,1,2,15,17,717,1106.5759409766179,1107.543358497438,"[75, 0, 179]",179,l,0.4439852638170123,colour,0.06
118,20,1,2,15,18,718,1108.060451804311,1109.0313757352997,"[70, 0, 184]",184,a,0.44778115081135184,colour,0.06
118,20,1,2,15,19,719,1109.5447271120502,1110.167340011918,"[99, 0, 155]",155,l,0.09919757838360965,colour,0.06
118,20,1,2,15,20,720,1110.6854092689464,1111.3112997545395,"[71, 0, 183]",183,a,0.10274219163693488,colour,0.06
118,20,1,2,15,21,721,1111.8259567305213,1112.5673551355721,"[85, 0, 169]",169,l,0.21849784010555595,colour,0.06
118,20,1,2,15,22,722,1113.075871265959,1113.687315876945,"[88, 0, 166]",166,l,0.08797612029593438,colour,0.06
118,20,1,2,15,23,723,1114.20117885957,1114.8473398070782,"[56, 0, 198]",198,a,0.12288898590486497,colour,0.06
118,20,1,2,15,24,724,1115.357487641042,1115.9993509418564,"[86, 0, 168]",168,l,0.11846688378136605,colour,0.06
118,20,1,2,15,25,725,1116.5136518811341,1117.2153187158983,"[73, 0, 181]",181,a,0.17834170395508409,colour,0.06
118,20,1,2,15,26,726,1117.732406902709,1118.391387928743,"[76, 0, 178]",178,a,0.1356531382771209,colour,0.06
118,20,1,2,15,27,727,1118.904264327255,1119.5273679591483,"[93, 0, 161]",161,l,0.09985411947127432,colour,0.06
118,20,1,2,15,28,728,1120.044894496561,1120.6473090082873,"[64, 0, 190]",190,a,0.07908701780252159,colour,0.06
118,20,1,2,15,29,729,1121.1542686596513,1121.911304323119,"[91, 0, 163]",163,l,0.23361797886900604,colour,0.06
118,20,1,2,15,30,730,1122.4199630257208,1124.4073241162114,"[66, 0, 188]",188,a,1.4637760213809088,colour,0.06
118,20,1,2,15,31,731,1124.9200295857154,1125.8072923722211,"[57, 0, 197]",197,a,0.3639959448482841,colour,0.06
118,20,1,2,15,32,732,1126.3263872041134,1127.047360365861,"[65, 0, 189]",189,a,0.1977772123645991,colour,0.06
118,20,1,2,15,33,733,1127.5605545979924,1128.1273162078578,"[55, 0, 199]",199,a,0.043451445177197456,colour,0.06
118,20,1,2,15,34,734,1128.6387479795376,1129.4713138384977,"[79, 0, 175]",175,l,0.3092556942719966,colour,0.06
118,20,1,2,15,35,735,1129.9824837025953,1130.591378949117,"[68, 0, 186]",186,a,0.0855031618848443,colour,0.06
118,20,1,2,15,36,736,1131.1074998503318,1132.871377799078,"[67, 0, 187]",187,a,1.2404972856165841,colour,0.06
118,20,1,2,15,37,737,1133.3887444349239,1134.2393519816687,"[87, 0, 167]",167,l,0.32729304977692664,colour,0.06
118,20,1,2,15,38,738,1134.7481855518417,1135.7353642917005,"[54, 0, 200]",200,a,0.46393040905240923,colour,0.06
118,20,1,2,15,39,739,1136.248099299497,1136.911301960121,"[98, 0, 156]",156,l,0.13994566502515227,colour,0.06
118,20,1,2,15,40,740,1137.419933093479,1138.1753606840502,"[81, 0, 173]",173,l,0.23212018283084035,colour,0.06
118,20,1,2,15,41,741,1138.685546721099,1140.7753404403338,"[61, 0, 193]",193,a,1.5666509390575811,colour,0.06
118,20,1,2,15,42,742,1141.2949523918796,1141.9513253702316,"[89, 0, 165]",165,l,0.13311598286964,colour,0.06
118,20,1,2,15,43,743,1142.4668318718905,1143.175315391738,"[78, 0, 176]",176,l,0.18522494903299958,colour,0.06
118,20,1,2,15,44,744,1143.685620764154,1145.7593447820982,"[51, 0, 203]",203,a,1.5506115639582276,colour,0.06
118,20,1,2,15,45,745,1146.279312770348,1147.0793469562195,"[82, 0, 172]",172,l,0.2766925134928897,colour,0.06
118,20,1,2,15,46,746,1147.5918283272767,1148.231365180225,"[69, 0, 185]",185,a,0.11611956218257546,colour,0.06
118,20,1,2,15,47,747,1148.7481390780304,1149.3193283036817,"[47, 0, 207]",207,a,0.047798716463148594,colour,0.06
118,20,1,2,15,48,748,1149.8262466010638,1150.3513905124273,"[50, 0, 204]",204,a,0.0016738452250137925,colour,0.06
118,20,1,2,15,49,749,1150.8731760994997,1151.4233225313947,"[90, 0, 164]",164,l,0.026828784146346152,colour,0.06
118,20,1,2,15,50,750,1151.9356487272307,1152.6232592009474,"[94, 0, 160]",160,l,0.16449605044908822,colour,0.06
118,20,1,2,16,1,751,1157.0910902599571,1157.7993248692947,"[61, 0, 193]",193,a,0.18415880808606744,colour,0.06
118,20,1,2,16,2,752,1158.3106420318363,1158.8713600760093,"[73, 0, 181]",181,l,0.03743820555973798,colour,0.06
118,20,1,2,16,3,753,1159.3887562502641,1159.9433436888503,"[63, 0, 191]",191,a,0.031239858479239047,colour,0.06
118,20,1,2,16,4,754,1160.451252508792,1160.975787140429,"[86, 0, 168]",168,l,0.0012075315462425351,colour,0.06
118,20,1,2,16,5,755,1161.4980764564825,1163.2393185046967,"[65, 0, 189]",189,a,1.2179204620188102,colour,0.06
118,20,1,2,16,6,756,1163.7481012687786,1165.8793106435332,"[92, 0, 162]",162,l,1.6078212285647169,colour,0.06
118,20,1,2,16,7,757,1166.388754674932,1167.255301166093,"[85, 0, 169]",169,l,0.3431551941903308,colour,0.06
118,20,1,2,16,8,758,1167.7637471918715,1168.5992491721408,"[56, 0, 198]",198,a,0.312953119748272,colour,0.06
118,20,1,2,16,9,759,1169.107476613368,1170.1433102906449,"[84, 0, 170]",170,l,0.5124384418595582,colour,0.06
118,20,1,2,16,10,760,1170.6543454595376,1171.4233107160544,"[94, 0, 160]",160,l,0.24563421797938645,colour,0.06
118,20,1,2,16,11,761,1171.9355884687975,1172.6152944549685,"[77, 0, 177]",177,a,0.15654036297928542,colour,0.06
118,20,1,2,16,12,762,1173.1230874841567,1173.7273168379907,"[74, 0, 180]",180,a,0.08086405065841973,colour,0.06
118,20,1,2,16,13,763,1174.2480311641702,1175.183318340918,"[79, 0, 175]",175,l,0.41190493816975504,colour,0.06
118,20,1,2,16,14,764,1175.70122690883,1176.2313254018081,"[89, 0, 165]",165,l,0.0067749376175925136,colour,0.06
118,20,1,2,16,15,765,1176.7480953610502,1177.4713319553994,"[60, 0, 194]",194,a,0.19996542041189969,colour,0.06
118,20,1,2,16,16,766,1177.982420687331,1180.3192964021582,"[66, 0, 188]",188,a,1.8135096241021529,colour,0.06
118,20,1,2,16,17,767,1180.8261485334951,1181.567270458676,"[69, 0, 185]",185,a,0.21768848679494113,colour,0.06
118,20,1,2,16,18,768,1182.0760843366152,1182.607332465821,"[88, 0, 166]",166,l,0.007748130825348198,colour,0.06
118,20,1,2,16,19,769,1183.1230477057397,1183.663354291115,"[55, 0, 199]",199,a,0.016996026854030788,colour,0.06
118,20,1,2,16,20,770,1184.1698838627199,1184.7113424474373,"[62, 0, 192]",192,a,0.018235066207125783,colour,0.06
118,20,1,2,16,21,771,1185.2324805518147,1185.7673882973613,"[68, 0, 186]",186,a,0.011687771533615887,colour,0.06
118,20,1,2,16,22,772,1186.2792678718688,1186.8953240248375,"[90, 0, 164]",164,l,0.09295315120834857,colour,0.06
118,20,1,2,16,23,773,1187.404272204265,1187.951308040996,"[37, 0, 217]",217,a,0.024379456299357116,colour,0.06
118,20,1,2,16,24,774,1188.4667424688814,1189.3673121276079,"[75, 0, 179]",179,l,0.37717875570524484,colour,0.06
118,20,1,2,16,25,775,1189.8730382533977,1190.5833263753448,"[54, 0, 200]",200,a,0.1868542896118015,colour,0.06
118,20,1,2,16,26,776,1191.0917920934735,1192.9273366091074,"[64, 0, 190]",190,a,1.312654190696776,colour,0.06
118,20,1,2,16,27,777,1193.4354970965069,1194.367347967578,"[93, 0, 161]",161,l,0.40868800471071154,colour,0.06
118,20,1,2,16,28,778,1194.8886282503372,1195.7513158392394,"[58, 0, 196]",196,a,0.3394179902970791,colour,0.06
118,20,1,2,16,29,779,1196.2635991057614,1197.16728172265,"[10, 0, 244]",244,a,0.3803145568817854,colour,0.06
118,20,1,2,16,30,780,1197.685620764154,1198.5593171342043,"[83, 0, 171]",171,l,0.3506244821473956,colour,0.06
118,20,1,2,16,31,781,1199.0760378626874,1199.9512808657018,"[98, 0, 156]",156,l,0.3516874723136425,colour,0.06
118,20,1,2,16,32,782,1200.4667574350024,1201.3753036551643,"[87, 0, 167]",167,l,0.3852332985261455,colour,0.06
118,20,1,2,16,33,783,1201.8886211611098,1202.7673059835797,"[72, 0, 182]",182,a,0.3554546084487811,colour,0.06
118,20,1,2,16,34,784,1203.2791847704211,1204.159273653524,"[76, 0, 178]",178,a,0.3567070384742692,colour,0.06
118,20,1,2,16,35,785,1204.6698590504238,1205.5352921391604,"[53, 0, 201]",201,a,0.34228873322717845,colour,0.06
118,20,1,2,16,36,786,1206.044797610375,1206.9193041215185,"[78, 0, 176]",176,l,0.35112860484514385,colour,0.06
118,20,1,2,16,37,787,1207.4354604688706,1208.1913354684366,"[95, 0, 159]",159,l,0.23258649639319628,colour,0.06
118,20,1,2,16,38,788,1208.7010193519527,1209.639279671479,"[91, 0, 163]",163,l,0.4147902533877641,colour,0.06
118,20,1,2,16,39,789,1210.1542855949374,1210.903295466327,"[81, 0, 173]",173,l,0.22580446966458112,colour,0.06
118,20,1,2,16,40,790,1211.4198369950755,1212.263275758247,"[57, 0, 197]",197,a,0.32032315840478987,colour,0.06
118,20,1,2,16,41,791,1212.7791603519581,1213.3672861338127,"[70, 0, 184]",184,a,0.06477032485418022,colour,0.06
118,20,1,2,16,42,792,1213.8885467242217,1214.4872740505962,"[71, 0, 183]",183,a,0.07572436146438122,colour,0.06
118,20,1,2,16,43,793,1214.9979236442596,1215.6713154925965,"[82, 0, 172]",172,l,0.1499517144402489,colour,0.06
118,20,1,2,16,44,794,1216.1854407765204,1216.9193324784283,"[67, 0, 187]",187,a,0.21069535869173706,colour,0.06
118,20,1,2,16,45,795,1217.4354750411585,1218.2472761615645,"[80, 0, 174]",174,a,0.2886465248884633,colour,0.06
118,20,1,2,16,46,796,1218.7635262443218,1220.4633132524323,"[59, 0, 195]",195,a,1.1763964989222586,colour,0.06
118,20,1,2,16,47,797,1220.982274176553,1222.6552520928672,"[99, 0, 155]",155,l,1.149631517706439,colour,0.06
118,20,1,2,16,48,798,1223.1697704350809,1223.9592983870534,"[12, 0, 242]",242,a,0.26638399029616266,colour,0.06
118,20,1,2,16,49,799,1224.4666207705159,1226.6232662901748,"[51, 0, 203]",203,a,1.6332869119942188,colour,0.06
118,20,1,2,16,50,800,1227.1385565703968,1228.0393223643769,"[50, 0, 204]",204,a,0.3775556661421433,colour,0.06
