id,age,condition,counterbalance,block,trialinblock,trial,tstart,tend,trialstim,trialintensity,response,RT,trialtype,colourfreq
138,20,1,1,Practice,1,NA,5.9076701290905476e-06,3.666215843637474,"[93, 0, 161]",161,l,3.0012945735943504,colour,0.5
138,20,1,1,Practice,2,NA,4.1729612533818,5.3944176190998405,"[76, 0, 178]",178,l,0.6982367490418255,colour,0.5
138,20,1,1,Practice,3,NA,5.907470481179189,7.050190227862913,"[34, 0, 220]",220,a,0.619486739160493,colour,0.5
138,20,1,1,Practice,4,NA,7.5638326781918295,10.922217671119142,"[64, 0, 190]",190,l,2.8351342623354867,colour,0.5
138,20,1,1,Practice,5,NA,11.44063787383493,12.594204548106063,"[18, 0, 236]",236,a,0.6304494576761499,colour,0.5
138,20,1,1,Practice,6,NA,13.112957157369237,14.154265358054545,"[52, 0, 202]",202,a,0.5188900617067702,colour,0.5
138,20,1,1,Practice,7,NA,14.675145132408943,15.482238702476025,"[48, 0, 206]",206,a,0.2838129071169533,colour,0.5
138,20,1,1,Practice,8,NA,16.003414255625103,16.586217734089587,"[98, 0, 156]",156,l,0.05957204633159563,colour,0.5
138,20,1,1,Practice,9,NA,17.09727970190579,17.674293636227958,"[8, 0, 246]",246,a,0.053810465324204415,colour,0.5
138,20,1,1,Practice,10,NA,18.191034083487466,18.930244263610803,"[20, 0, 234]",234,a,0.2158613817882724,colour,0.5
138,20,1,1,1,1,1,4.93377391633112,5.7039660346345045,"[22, 0, 232]",232,a,0.2460111221880652,colour,0.5
138,20,1,1,1,2,2,6.215944089519326,7.039965971605852,"[30, 0, 224]",224,a,0.30518302047858015,colour,0.5
138,20,1,1,1,3,3,7.555741101037711,8.359969437471591,"[17, 0, 237]",237,a,0.28094727970892563,colour,0.5
138,20,1,1,1,4,4,8.857944672403391,9.64002780552255,"[74, 0, 180]",180,l,0.25881389173446223,colour,0.5
138,20,1,1,1,5,5,10.155017211043742,12.807962001650594,"[43, 0, 211]",211,a,2.1297326569329016,colour,0.5
138,20,1,1,1,6,6,13.323154632002115,14.127987129089888,"[1, 0, 253]",253,a,0.2816306034801528,colour,0.5
138,20,1,1,1,7,7,14.63574275514111,16.0959469252266,"[90, 0, 164]",164,l,0.9370184241561219,colour,0.5
138,20,1,1,1,8,8,16.604877001722343,17.455954959674273,"[84, 0, 170]",170,l,0.32796074135694653,colour,0.5
138,20,1,1,1,9,9,17.964308444818016,18.775987176341005,"[52, 0, 202]",202,a,0.2885433979681693,colour,0.5
138,20,1,1,1,10,10,19.29413995728828,20.087941994250286,"[37, 0, 217]",217,a,0.27135435945820063,colour,0.5
138,20,1,1,1,11,11,20.606811969773844,21.415963387989905,"[16, 0, 238]",238,a,0.28593889076728374,colour,0.5
138,20,1,1,1,12,12,21.935048403742258,22.72800012602238,"[98, 0, 156]",156,l,0.2697002040222287,colour,0.5
138,20,1,1,1,13,13,23.247639677661937,24.072000267799012,"[75, 0, 179]",179,l,0.3012106842943467,colour,0.5
138,20,1,1,1,14,14,24.59143659460824,25.38397556572454,"[8, 0, 246]",246,a,0.26932447438593954,colour,0.5
138,20,1,1,1,15,15,25.904103487089742,27.208028167893644,"[63, 0, 191]",191,l,0.7931829102453776,colour,0.5
138,20,1,1,1,16,16,27.7198270225781,28.71200207946822,"[86, 0, 168]",168,l,0.4689101478434168,colour,0.5
138,20,1,1,1,17,17,29.21994517656276,30.007954518601764,"[95, 0, 159]",159,l,0.26467157137813047,colour,0.5
138,20,1,1,1,18,18,30.51699408440618,31.312043827201705,"[85, 0, 169]",169,l,0.271828944562003,colour,0.5
138,20,1,1,1,19,19,31.829593629110605,32.600020873826,"[72, 0, 182]",182,l,0.24723519728286192,colour,0.5
138,20,1,1,1,20,20,33.11233448598068,33.88800264662132,"[39, 0, 215]",215,a,0.25245681474916637,colour,0.5
138,20,1,1,1,21,21,34.40931959066074,35.16801099618897,"[44, 0, 210]",210,a,0.23550644726492465,colour,0.5
138,20,1,1,1,22,22,35.67503643076634,36.35200270963833,"[41, 0, 213]",213,a,0.1627310894546099,colour,0.5
138,20,1,1,1,23,23,36.86938512674533,37.495986703725066,"[83, 0, 171]",171,l,0.10348120960406959,colour,0.5
138,20,1,1,1,24,24,38.010011185193434,38.94402219715994,"[56, 0, 198]",198,a,0.4151993257110007,colour,0.5
138,20,1,1,1,25,25,39.45628263999242,40.22395059588598,"[3, 0, 251]",251,a,0.24441525607835501,colour,0.5
138,20,1,1,1,26,26,40.73758477543015,42.071989240066614,"[57, 0, 197]",197,a,0.8112084786989726,colour,0.5
138,20,1,1,1,27,27,42.5889722967986,43.42400100821396,"[73, 0, 181]",181,l,0.3118398147053085,colour,0.5
138,20,1,1,1,28,28,43.93275857990375,44.70402235467918,"[78, 0, 176]",176,l,0.24804337037494406,colour,0.5
138,20,1,1,1,29,29,45.214072924572974,45.984007467282936,"[76, 0, 178]",178,l,0.2468815230531618,colour,0.5
138,20,1,1,1,30,30,46.495562924828846,47.25597622740315,"[13, 0, 241]",241,a,0.23560648428974673,colour,0.5
138,20,1,1,1,31,31,47.7629780312418,48.512019014859106,"[25, 0, 229]",229,a,0.22579458536347374,colour,0.5
138,20,1,1,1,32,32,49.028813812939916,49.736023567733355,"[79, 0, 175]",175,l,0.1840614242828451,colour,0.5
138,20,1,1,1,33,33,50.24758099450264,50.96802123618545,"[45, 0, 209]",209,a,0.19729112350614741,colour,0.5
138,20,1,1,1,34,34,51.48219419782981,52.1679692484322,"[49, 0, 205]",205,a,0.16271257866173983,colour,0.5
138,20,1,1,1,35,35,52.685426102543715,53.48802352050552,"[66, 0, 188]",188,l,0.2794215182075277,colour,0.5
138,20,1,1,1,36,36,53.99794333335012,54.79998542764224,"[47, 0, 207]",207,a,0.2788244468392804,colour,0.5
138,20,1,1,1,37,37,55.31054839189164,55.97599584097043,"[15, 0, 239]",239,a,0.1428548360709101,colour,0.5
138,20,1,1,1,38,38,56.48248446272919,57.232072499231435,"[88, 0, 166]",166,l,0.22474419663194567,colour,0.5
138,20,1,1,1,39,39,57.749756602803245,58.44805715500843,"[70, 0, 184]",184,l,0.17503446160117164,colour,0.5
138,20,1,1,1,40,40,58.96859546442283,59.67997054028092,"[71, 0, 183]",183,l,0.1881779083632864,colour,0.5
138,20,1,1,1,41,41,60.187418966030236,60.92804147989955,"[36, 0, 218]",218,a,0.21744267566828057,colour,0.5
138,20,1,1,1,42,42,61.4251313477871,62.17604546563234,"[18, 0, 236]",236,a,0.22774058114737272,colour,0.5
138,20,1,1,1,43,43,62.690787535510026,64.04802722262684,"[46, 0, 208]",208,a,0.8340397627325729,colour,0.5
138,20,1,1,1,44,44,64.56602167728124,65.78404094424332,"[62, 0, 192]",192,l,0.6947326963418163,colour,0.5
138,20,1,1,1,45,45,66.30048364354298,67.15202909737127,"[42, 0, 212]",212,a,0.32860349892871454,colour,0.5
138,20,1,1,1,46,46,67.66009783145273,68.26400321378605,"[67, 0, 187]",187,l,0.08080825192155316,colour,0.5
138,20,1,1,1,47,47,68.78506021911744,70.47203610785073,"[50, 0, 204]",204,a,1.1636684442637488,colour,0.5
138,20,1,1,1,48,48,70.98840752086835,71.96008522837656,"[27, 0, 227]",227,a,0.44854158628731966,colour,0.5
138,20,1,1,1,49,49,72.47416287916712,73.21601537574315,"[10, 0, 244]",244,a,0.21870377223240212,colour,0.5
138,20,1,1,1,50,50,73.72425110079348,74.48000716796378,"[14, 0, 240]",240,a,0.23267350904643536,colour,0.5
138,20,1,1,2,1,51,78.92978267546277,79.76008995453594,"[80, 0, 174]",174,l,0.3065012248698622,colour,0.5
138,20,1,1,2,2,52,80.27952352445573,81.39208565372974,"[38, 0, 216]",216,a,0.5847514434717596,colour,0.5
138,20,1,1,2,3,53,81.89798665646231,82.67201680934522,"[88, 0, 166]",166,l,0.25097358867060393,colour,0.5
138,20,1,1,2,4,54,83.17929942574119,84.00807976175565,"[68, 0, 186]",186,l,0.30577536567579955,colour,0.5
138,20,1,1,2,5,55,84.5199495088309,85.21601655730046,"[95, 0, 159]",159,l,0.17326333367964253,colour,0.5
138,20,1,1,2,6,56,85.72318889666349,86.47202271706192,"[63, 0, 191]",191,l,0.22559687442844734,colour,0.5
138,20,1,1,2,7,57,86.9923455924145,87.70404874242377,"[94, 0, 160]",160,l,0.18848944100318477,colour,0.5
138,20,1,1,2,8,58,88.21115215861937,88.96804092853563,"[8, 0, 246]",246,a,0.2336014115717262,colour,0.5
138,20,1,1,2,9,59,89.46658330247737,90.05604278744431,"[81, 0, 173]",173,l,0.06635802221717313,colour,0.5
138,20,1,1,2,10,60,90.57603246869985,91.20802226016531,"[13, 0, 241]",241,a,0.10876663017552346,colour,0.5
138,20,1,1,2,11,61,91.71177758695558,92.40807227871846,"[77, 0, 177]",177,l,0.17309673660201952,colour,0.5
138,20,1,1,2,12,62,92.90576355025405,93.5920293336385,"[84, 0, 170]",170,l,0.16312926827231422,colour,0.5
138,20,1,1,2,13,63,94.10894661804195,94.73602435545763,"[69, 0, 185]",185,l,0.10389947460498661,colour,0.5
138,20,1,1,2,14,64,95.2496396303759,96.1040416531614,"[65, 0, 189]",189,l,0.3312048552907072,colour,0.5
138,20,1,1,2,15,65,96.62483320594765,97.25607587059494,"[78, 0, 176]",176,l,0.10819949116557837,colour,0.5
138,20,1,1,2,16,66,97.76551834138809,98.51206036878284,"[46, 0, 208]",208,a,0.2232771182898432,colour,0.5
138,20,1,1,2,17,67,99.03316896804608,99.96805038081948,"[60, 0, 194]",194,l,0.41175986389862373,colour,0.5
138,20,1,1,2,18,68,100.4863610942266,101.24006088863825,"[6, 0, 248]",248,a,0.23040534683968872,colour,0.5
138,20,1,1,2,19,69,101.75213622360025,102.52805053838529,"[7, 0, 247]",247,a,0.25264822418102995,colour,0.5
138,20,1,1,2,20,70,103.04906028212281,103.67199790471932,"[4, 0, 250]",250,a,0.10940072312951088,colour,0.5
138,20,1,1,2,21,71,104.18005679262569,104.80810811871197,"[99, 0, 155]",155,l,0.10528187593445182,colour,0.5
138,20,1,1,2,22,72,105.31559907994233,106.12008262897143,"[29, 0, 225]",225,a,0.2813462462509051,colour,0.5
138,20,1,1,2,23,73,106.62817656924017,107.38407678430667,"[66, 0, 188]",188,l,0.23266366292955354,colour,0.5
138,20,1,1,2,24,74,107.89391979709035,108.61605239729397,"[11, 0, 243]",243,a,0.19896536512533203,colour,0.5
138,20,1,1,2,25,75,109.12844202184351,109.84802958572982,"[0, 0, 254]",254,a,0.1967649445286952,colour,0.5
138,20,1,1,2,26,76,110.36541672900785,111.0640552014811,"[54, 0, 200]",200,a,0.1766614416264929,colour,0.5
138,20,1,1,2,27,77,111.58357581146993,112.32004600123037,"[36, 0, 218]",218,a,0.21323166840011254,colour,0.5
138,20,1,1,2,28,78,112.83521854539867,113.5680937039433,"[10, 0, 244]",244,a,0.20953423710307106,colour,0.5
138,20,1,1,2,29,79,114.08634809730574,114.85604948282707,"[24, 0, 230]",230,a,0.24533213075483218,colour,0.5
138,20,1,1,2,30,80,115.36896331713069,116.04005616251379,"[55, 0, 199]",199,l,0.14787322870688513,colour,0.5
138,20,1,1,2,31,81,116.5566280434141,117.23206619772827,"[96, 0, 158]",158,l,0.15229573153192177,colour,0.5
138,20,1,1,2,32,82,117.74411829572637,118.68807038821978,"[31, 0, 223]",223,a,0.42076398350764066,colour,0.5
138,20,1,1,2,33,83,119.19737343740417,119.83205595769687,"[23, 0, 231]",231,a,0.11171457153977826,colour,0.5
138,20,1,1,2,34,84,120.33948666037759,121.08808535442222,"[47, 0, 207]",207,a,0.2253333911066875,colour,0.5
138,20,1,1,2,35,85,121.5953825431061,122.26409655541647,"[44, 0, 210]",210,a,0.13646231283200905,colour,0.5
138,20,1,1,2,36,86,122.77675754018128,123.38405906117987,"[20, 0, 234]",234,a,0.08414255664683878,colour,0.5
138,20,1,1,2,37,87,123.9018542295089,124.86405992764048,"[9, 0, 245]",245,a,0.4390140445320867,colour,0.5
138,20,1,1,2,38,88,125.37074271577876,126.12808559072437,"[42, 0, 212]",212,a,0.23417682136641815,colour,0.5
138,20,1,1,2,39,89,126.6364367127535,127.4881164683029,"[18, 0, 236]",236,a,0.32836758490884677,colour,0.5
138,20,1,1,2,40,90,127.99588745436631,128.73608697706368,"[27, 0, 227]",227,a,0.21700905059697106,colour,0.5
138,20,1,1,2,41,91,129.24740455124993,129.9841291658813,"[93, 0, 161]",161,l,0.21405480767134577,colour,0.5
138,20,1,1,2,42,92,130.49750104366103,131.15210510976613,"[17, 0, 237]",237,a,0.13164635736029595,colour,0.5
138,20,1,1,2,43,93,131.66956747771474,132.49606862379005,"[28, 0, 226]",226,a,0.30339101870777085,colour,0.5
138,20,1,1,2,44,94,133.01334667159244,133.6401325687184,"[74, 0, 180]",180,l,0.10412751173134893,colour,0.5
138,20,1,1,2,45,95,134.1540676470613,134.90411648404552,"[86, 0, 168]",168,l,0.2269769127597101,colour,0.5
138,20,1,1,2,46,96,135.42113892541965,136.1201499767485,"[87, 0, 167]",167,l,0.17594227788504213,colour,0.5
138,20,1,1,2,47,97,136.63994115928654,137.28812434518477,"[21, 0, 233]",233,a,0.12491276295622811,colour,0.5
138,20,1,1,2,48,98,137.79738997895038,138.5920726567856,"[70, 0, 184]",184,l,0.27167691983049735,colour,0.5
138,20,1,1,2,49,99,139.1099662866909,139.84008176252246,"[98, 0, 156]",156,l,0.2196403393172659,colour,0.5
138,20,1,1,2,50,100,140.34760974533856,141.07207391707925,"[61, 0, 193]",193,a,0.20149425376439467,colour,0.5
138,20,1,1,3,1,101,145.5503509172704,147.35222483909456,"[90, 0, 164]",164,l,1.2778055658563972,colour,0.5
138,20,1,1,3,2,102,147.8652674611658,148.48814128059894,"[25, 0, 229]",229,a,0.09965971659403294,colour,0.5
138,20,1,1,3,3,103,149.00592227041489,149.9681193039869,"[21, 0, 233]",233,a,0.4390215276507661,colour,0.5
138,20,1,1,3,4,104,150.48919560777722,151.12814506154973,"[61, 0, 193]",193,l,0.11571999086299911,colour,0.5
138,20,1,1,3,5,105,151.64551842020592,152.496087922249,"[11, 0, 243]",243,a,0.3272931714891456,colour,0.5
138,20,1,1,3,6,106,153.00511685427045,154.00015005550813,"[92, 0, 162]",162,l,0.4722239726688713,colour,0.5
138,20,1,1,3,7,107,154.5208021866274,155.23210046236636,"[38, 0, 216]",216,a,0.1881979945464991,colour,0.5
138,20,1,1,3,8,108,155.73959811899113,156.5041239671409,"[28, 0, 226]",226,a,0.23975605150917545,colour,0.5
138,20,1,1,3,9,109,157.02254889602773,157.75217166979564,"[55, 0, 199]",199,l,0.20643269555876032,colour,0.5
138,20,1,1,3,10,110,158.27265917306067,158.99210298294201,"[24, 0, 230]",230,a,0.1968488338170573,colour,0.5
138,20,1,1,3,11,111,159.50647877558367,160.19214866915718,"[42, 0, 212]",212,a,0.1623880491242744,colour,0.5
138,20,1,1,3,12,112,160.7096842926112,161.2401479287073,"[79, 0, 175]",175,l,0.007159342407248914,colour,0.5
138,20,1,1,3,13,113,161.75670878199162,162.424096712959,"[60, 0, 194]",194,a,0.142709506675601,colour,0.5
138,20,1,1,3,14,114,162.94139405922033,163.6881105605862,"[45, 0, 209]",209,a,0.23314376187045127,colour,0.5
138,20,1,1,3,15,115,164.19766409613658,165.1441245972528,"[75, 0, 179]",179,l,0.42348388774553314,colour,0.5
138,20,1,1,3,16,116,165.65081920078956,166.2481107180938,"[2, 0, 252]",252,a,0.07405496522551402,colour,0.5
138,20,1,1,3,17,117,166.7602801824105,167.36010846530553,"[98, 0, 156]",156,l,0.07653107843361795,colour,0.5
138,20,1,1,3,18,118,167.86973446863703,168.4401420210488,"[20, 0, 234]",234,a,0.04710483405506238,colour,0.5
138,20,1,1,3,19,119,168.94809299503686,169.50414365943288,"[69, 0, 185]",185,l,0.03296495554968715,colour,0.5
138,20,1,1,3,20,120,170.01063425047323,170.58420911675785,"[4, 0, 250]",250,a,0.050422991218511015,colour,0.5
138,20,1,1,3,21,121,171.10580490413122,171.70410939480644,"[27, 0, 227]",227,a,0.07516128016868606,colour,0.5
138,20,1,1,3,22,122,172.2166601025383,172.85615227679955,"[53, 0, 201]",201,a,0.1162820098688826,colour,0.5
138,20,1,1,3,23,123,173.37295928411186,173.98414491972653,"[22, 0, 232]",232,a,0.09745417593512684,colour,0.5
138,20,1,1,3,24,124,174.50444967817748,175.29610131308436,"[31, 0, 223]",223,a,0.2685651382780634,colour,0.5
138,20,1,1,3,25,125,175.81702204752946,176.4001445416361,"[73, 0, 181]",181,l,0.06000803445931524,colour,0.5
138,20,1,1,3,26,126,176.91321197606158,178.68820665910607,"[9, 0, 245]",245,a,1.2519168510916643,colour,0.5
138,20,1,1,3,27,127,179.19470118859317,179.8161264404771,"[99, 0, 155]",155,l,0.09825841058045626,colour,0.5
138,20,1,1,3,28,128,180.32815018156543,182.0241286145174,"[65, 0, 189]",189,l,1.1727229762473144,colour,0.5
138,20,1,1,3,29,129,182.53150732943323,183.3201448567561,"[71, 0, 183]",183,l,0.2654037321335636,colour,0.5
138,20,1,1,3,30,130,183.82848849572474,184.36015178845264,"[5, 0, 249]",249,a,0.00853859301423654,colour,0.5
138,20,1,1,3,31,131,184.8754657235113,185.75210865435656,"[78, 0, 176]",176,l,0.35347175726201385,colour,0.5
138,20,1,1,3,32,132,186.2661815789761,187.11212023347616,"[64, 0, 190]",190,l,0.3227084039244801,colour,0.5
138,20,1,1,3,33,133,187.62566579756094,188.24813001661096,"[12, 0, 242]",242,a,0.09931667626369745,colour,0.5
138,20,1,1,3,34,134,188.76641591766383,189.4801328050089,"[6, 0, 248]",248,a,0.20316061849007383,colour,0.5
138,20,1,1,3,35,135,189.9885079517262,190.57614313956583,"[16, 0, 238]",238,a,0.06439154647523537,colour,0.5
138,20,1,1,3,36,136,191.0824100257596,191.9521074728109,"[30, 0, 224]",224,a,0.3438819877919741,colour,0.5
138,20,1,1,3,37,137,192.47144297492923,193.11213913810207,"[49, 0, 205]",205,a,0.11760690965456888,colour,0.5
138,20,1,1,3,38,138,193.62782368273474,194.26415878313128,"[59, 0, 195]",195,a,0.1131209974992089,colour,0.5
138,20,1,1,3,39,139,194.7841650058981,195.33613542019157,"[93, 0, 161]",161,l,0.02884216996608302,colour,0.5
138,20,1,1,3,40,140,195.8466822367045,196.81615243433043,"[72, 0, 182]",182,l,0.44633092562435195,colour,0.5
138,20,1,1,3,41,141,197.3364717651275,198.0001740801381,"[96, 0, 158]",158,l,0.14367285527987406,colour,0.5
138,20,1,1,3,42,142,198.52094436518382,199.23215678241104,"[88, 0, 166]",166,l,0.18800579744856805,colour,0.5
138,20,1,1,3,43,143,199.73977731913328,200.28815939754713,"[3, 0, 251]",251,a,0.025220357114449143,colour,0.5
138,20,1,1,3,44,144,200.80457255832152,201.59213724761503,"[86, 0, 168]",168,l,0.2645041865762323,colour,0.5
138,20,1,1,3,45,145,202.1027608642471,202.64811780734453,"[13, 0, 241]",241,a,0.02248784981202334,colour,0.5
138,20,1,1,3,46,146,203.16533283970784,204.23212921316735,"[77, 0, 177]",177,l,0.5437106646131724,colour,0.5
138,20,1,1,3,47,147,204.75291722128168,205.49621080240468,"[81, 0, 173]",173,l,0.22423180233454332,colour,0.5
138,20,1,1,3,48,148,206.00864611309953,206.84014911029954,"[44, 0, 210]",210,a,0.3083499405765906,colour,0.5
138,20,1,1,3,49,149,207.35379943758016,207.9041739856475,"[58, 0, 196]",196,a,0.03939213725971058,colour,0.5
138,20,1,1,3,50,150,208.4076536198263,208.96019314229488,"[14, 0, 240]",240,a,0.03010681114392355,colour,0.5
138,20,1,1,4,1,151,213.3495817349758,214.0401928272331,"[64, 0, 190]",190,l,0.16657857631798834,colour,0.5
138,20,1,1,4,2,152,214.5535710065742,215.48815585294506,"[82, 0, 172]",172,l,0.41126794955926016,colour,0.5
138,20,1,1,4,3,153,215.9975183728966,216.65613612910965,"[21, 0, 233]",233,a,0.13562420738162473,colour,0.5
138,20,1,1,4,4,154,217.16625956061762,217.7121781288879,"[55, 0, 199]",199,a,0.022759603918530047,colour,0.5
138,20,1,1,4,5,155,218.21639031765517,219.26423046324635,"[16, 0, 238]",238,a,0.5246063504018821,colour,0.5
138,20,1,1,4,6,156,219.77897568390472,220.36819767940324,"[52, 0, 202]",202,a,0.06599647109396756,colour,0.5
138,20,1,1,4,7,157,220.88842091162223,221.55218624213012,"[69, 0, 185]",185,l,0.14047718449728563,colour,0.5
138,20,1,1,4,8,158,222.06111750012496,222.93614684173372,"[48, 0, 206]",206,a,0.35175025404896587,colour,0.5
138,20,1,1,4,9,159,223.4518357187044,224.08817239449127,"[40, 0, 214]",214,a,0.1130898836418055,colour,0.5
138,20,1,1,4,10,160,224.60817467881134,225.16816499014385,"[84, 0, 170]",170,l,0.037158239632844925,colour,0.5
138,20,1,1,4,11,161,225.68635479267687,226.26419541088399,"[83, 0, 171]",171,l,0.05465369072044268,colour,0.5
138,20,1,1,4,12,162,226.77706237736857,227.32822501240298,"[56, 0, 198]",198,a,0.027946169080678374,colour,0.5
138,20,1,1,4,13,163,227.82833528943593,228.70414917328162,"[44, 0, 210]",210,a,0.35249107936397195,colour,0.5
138,20,1,1,4,14,164,229.21919804962818,229.8081628634245,"[80, 0, 174]",174,l,0.06617606518557295,colour,0.5
138,20,1,1,4,15,165,230.32857041578973,230.8961848085164,"[98, 0, 156]",156,l,0.04447236377745867,colour,0.5
138,20,1,1,4,16,166,231.4067753420095,232.05621056607924,"[18, 0, 236]",236,a,0.13024071900872514,colour,0.5
138,20,1,1,4,17,167,232.574750104337,233.77621048729634,"[37, 0, 217]",217,l,0.6871223996276967,colour,0.5
138,20,1,1,4,18,168,234.28496096975869,234.84819185052766,"[74, 0, 180]",180,l,0.040012839424889535,colour,0.5
138,20,1,1,4,19,169,235.3631363575114,236.84017589181894,"[85, 0, 169]",169,l,0.9538789945654571,colour,0.5
138,20,1,1,4,20,170,237.34876095876098,237.87218931410462,"[41, 0, 213]",213,a,0.0009235701290890574,colour,0.5
138,20,1,1,4,21,171,238.39553535555024,239.08822674531257,"[42, 0, 212]",212,a,0.16933471441734582,colour,0.5
138,20,1,1,4,22,172,239.59891495277407,240.17619000730338,"[47, 0, 207]",207,a,0.054068434750661254,colour,0.5
138,20,1,1,4,23,173,240.69279497134266,241.35211416822858,"[54, 0, 200]",200,a,0.13588414614787325,colour,0.5
138,20,1,1,4,24,174,241.864682205196,242.4641386969597,"[73, 0, 181]",181,l,0.07636960136005655,colour,0.5
138,20,1,1,4,25,175,242.97424283000873,244.40819673420629,"[94, 0, 160]",160,l,0.9108264475944452,colour,0.5
138,20,1,1,4,26,176,244.92749245779123,245.4881916929735,"[93, 0, 161]",161,l,0.04913944529835135,colour,0.5
138,20,1,1,4,27,177,245.99095334490994,247.2163406930049,"[4, 0, 250]",250,a,0.6984915677458048,colour,0.5
138,20,1,1,4,28,178,247.71793616533978,248.2882389545557,"[14, 0, 240]",240,a,0.047213141864631325,colour,0.5
138,20,1,1,4,29,179,248.78632998035755,249.53626302647172,"[1, 0, 253]",253,a,0.22669137397315353,colour,0.5
138,20,1,1,4,30,180,250.05198931886116,250.64021882112138,"[65, 0, 189]",189,l,0.06473261758219451,colour,0.5
138,20,1,1,4,31,181,251.16159050987335,251.90424566570437,"[67, 0, 187]",187,l,0.2192610651254654,colour,0.5
138,20,1,1,4,32,182,252.42428103310522,252.98430797219044,"[13, 0, 241]",241,a,0.03683686087606475,colour,0.5
138,20,1,1,4,33,183,253.50248202087823,254.22422983305296,"[29, 0, 225]",225,a,0.19851126003777608,colour,0.5
138,20,1,1,4,34,184,254.7369664363796,255.44022315344773,"[26, 0, 228]",228,a,0.18004143267171457,colour,0.5
138,20,1,1,4,35,185,255.9557446456165,256.65622041223105,"[8, 0, 246]",246,a,0.17715493135619909,colour,0.5
138,20,1,1,4,36,186,257.16855765518267,257.72820492618484,"[61, 0, 193]",193,l,0.036383543512783945,colour,0.5
138,20,1,1,4,37,187,258.2393913495471,259.08820232684957,"[32, 0, 222]",222,a,0.32560475141508505,colour,0.5
138,20,1,1,4,38,188,259.60238789155846,260.13656825752696,"[91, 0, 163]",163,l,0.010921758424956352,colour,0.5
138,20,1,1,4,39,189,260.64928674389375,261.2322032562806,"[63, 0, 191]",191,l,0.055315746751148254,colour,0.5
138,20,1,1,4,40,190,261.7474443297833,262.69624349166406,"[17, 0, 237]",237,a,0.42606988415354863,colour,0.5
138,20,1,1,4,41,191,263.21638007764705,263.984194544435,"[45, 0, 209]",209,a,0.2568938898621127,colour,0.5
138,20,1,1,4,42,192,264.5010157302022,265.1522122360184,"[24, 0, 230]",230,a,0.1280489630298689,colour,0.5
138,20,1,1,4,43,193,265.67306168423966,266.248212724342,"[28, 0, 226]",226,a,0.05217482056468725,colour,0.5
138,20,1,1,4,44,194,266.76682866882766,267.75223507912597,"[90, 0, 164]",164,l,0.4622005781857297,colour,0.5
138,20,1,1,4,45,195,268.26690310583217,268.80022606789134,"[19, 0, 235]",235,a,0.010198656178545207,colour,0.5
138,20,1,1,4,46,196,269.3138244074071,269.8722448464832,"[62, 0, 192]",192,l,0.03291139239445329,colour,0.5
138,20,1,1,4,47,197,270.37871062516933,270.97619670268614,"[33, 0, 221]",221,a,0.07437673781532794,colour,0.5
138,20,1,1,4,48,198,271.47568588372087,272.48024977743626,"[5, 0, 249]",249,a,0.4813958709128201,colour,0.5
138,20,1,1,4,49,199,272.98795617272845,274.0082046111347,"[97, 0, 157]",157,l,0.4972025080351159,colour,0.5
138,20,1,1,4,50,200,274.519387489825,275.4161870928365,"[87, 0, 167]",167,l,0.3736768725211732,colour,0.5
138,20,1,1,5,1,201,279.83413152897265,280.59225067542866,"[8, 0, 246]",246,a,0.23204611154505983,colour,0.4
138,20,1,1,5,2,202,281.1027529872954,281.8322469732375,"[84, 0, 170]",170,l,0.20632753852987662,colour,0.4
138,20,1,1,5,3,203,282.3529250982683,283.1682110702386,"[86, 0, 168]",168,l,0.2921742692706175,colour,0.4
138,20,1,1,5,4,204,283.68107094749575,284.4322493363288,"[91, 0, 163]",163,l,0.2282210739213042,colour,0.4
138,20,1,1,5,5,205,284.94678896910045,285.5362516049063,"[48, 0, 206]",206,a,0.06642458232818171,colour,0.4
138,20,1,1,5,6,206,286.05623971071327,286.7922022322891,"[49, 0, 205]",205,a,0.2128063141135499,colour,0.4
138,20,1,1,5,7,207,287.2999196552555,287.90426772111095,"[88, 0, 166]",166,l,0.08119028300279751,colour,0.4
138,20,1,1,5,8,208,288.4190058525419,289.088238166878,"[4, 0, 250]",250,a,0.14595204527722672,colour,0.4
138,20,1,1,5,9,209,289.6065744803054,290.36028845317196,"[57, 0, 197]",197,a,0.23049514385638759,colour,0.4
138,20,1,1,5,10,210,290.86412254924653,291.45624522457365,"[67, 0, 187]",187,a,0.06707521679345518,colour,0.4
138,20,1,1,5,11,211,291.9634411947336,292.7362370325718,"[58, 0, 196]",196,a,0.24975778436055407,colour,0.4
138,20,1,1,5,12,212,293.24477326252963,293.81632100063143,"[40, 0, 214]",214,a,0.048228872066829354,colour,0.4
138,20,1,1,5,13,213,294.32842114794767,294.88032066985033,"[64, 0, 190]",190,a,0.028795302205253392,colour,0.4
138,20,1,1,5,14,214,295.3908966309973,295.93624372797785,"[3, 0, 251]",251,a,0.0220880956039764,colour,0.4
138,20,1,1,5,15,215,296.4536375666503,297.76032862550346,"[15, 0, 239]",239,a,0.7835116144851781,colour,0.4
138,20,1,1,5,16,216,298.2661106865853,298.80829874047777,"[96, 0, 158]",158,l,0.0189814341138117,colour,0.4
138,20,1,1,5,17,217,299.3286676958669,300.33638039272046,"[62, 0, 192]",192,l,0.48439225542824715,colour,0.4
138,20,1,1,5,18,218,300.84447827143595,301.51225217204774,"[60, 0, 194]",194,a,0.14462478243513033,colour,0.4
138,20,1,1,5,19,219,302.0337101131445,302.72023583529517,"[72, 0, 182]",182,l,0.16327696078224108,colour,0.4
138,20,1,1,5,20,220,303.2369120855583,303.7842634675326,"[23, 0, 231]",231,a,0.02402463898761198,colour,0.4
138,20,1,1,5,21,221,304.29951281182,304.88028325443156,"[5, 0, 249]",249,a,0.05763707833830267,colour,0.4
138,20,1,1,5,22,222,305.3983635675977,305.968215796398,"[87, 0, 167]",167,l,0.05100273329298943,colour,0.4
138,20,1,1,5,23,223,306.4879093049676,307.08824643760454,"[54, 0, 200]",200,a,0.07714035897515714,colour,0.4
138,20,1,1,5,24,224,307.5973064834834,308.3122785597807,"[71, 0, 183]",183,l,0.19187927816528827,colour,0.4
138,20,1,1,5,25,225,308.8318164990051,309.4482899183058,"[53, 0, 201]",201,a,0.09340188890928403,colour,0.4
138,20,1,1,5,26,226,309.95690412982367,310.99225737078814,"[2, 0, 252]",252,a,0.511814214696642,colour,0.4
138,20,1,1,5,27,227,311.50389474839903,312.1682343071443,"[78, 0, 176]",176,l,0.14112978818593547,colour,0.4
138,20,1,1,5,28,228,312.6759131331928,313.6722704464919,"[80, 0, 174]",174,l,0.4857002197531983,colour,0.4
138,20,1,1,5,29,229,314.1668247304042,315.0162666498218,"[35, 0, 219]",219,a,0.3262916197418235,colour,0.4
138,20,1,1,5,30,230,315.53664033144014,316.3203315400169,"[13, 0, 241]",241,a,0.26051727804588154,colour,0.4
138,20,1,1,5,31,231,316.8336376454099,317.7042618134292,"[50, 0, 204]",204,a,0.34743724059080705,colour,0.4
138,20,1,1,5,32,232,318.22435940860305,319.19232353701955,"[75, 0, 179]",179,l,0.44475435791537166,colour,0.4
138,20,1,1,5,33,233,319.7113030018518,320.34433609287953,"[82, 0, 172]",172,l,0.11023764702258632,colour,0.4
138,20,1,1,5,34,234,320.8506608744501,321.4963041440351,"[81, 0, 173]",173,l,0.12247052061138675,colour,0.4
138,20,1,1,5,35,235,322.0069423329551,322.92028309684247,"[16, 0, 238]",238,a,0.3900943656335585,colour,0.4
138,20,1,1,5,36,236,323.4290312162484,324.16028648393694,"[29, 0, 225]",225,a,0.21965373010607436,colour,0.4
138,20,1,1,5,37,237,324.66753641108517,325.24031373811886,"[6, 0, 248]",248,a,0.04721944342600182,colour,0.4
138,20,1,1,5,38,238,325.7481438012328,326.92025513376575,"[99, 0, 155]",155,l,0.6496152119361795,colour,0.4
138,20,1,1,5,39,239,327.43833269004244,328.1842681937269,"[24, 0, 230]",230,a,0.2234980662469752,colour,0.4
138,20,1,1,5,40,240,328.7085752207204,329.56031877937494,"[70, 0, 184]",184,l,0.3285365450428799,colour,0.4
138,20,1,1,5,41,241,330.0676435373607,330.8242767007905,"[97, 0, 157]",157,l,0.23345490061910823,colour,0.4
138,20,1,1,5,42,242,331.33363567618653,332.0562830338604,"[46, 0, 208]",208,a,0.19937181478599086,colour,0.4
138,20,1,1,5,43,243,332.56813623936614,333.2642556693754,"[83, 0, 171]",171,l,0.17297149338992313,colour,0.4
138,20,1,1,5,44,244,333.7713311224943,334.4642769371276,"[9, 0, 245]",245,a,0.16976085636997595,colour,0.4
138,20,1,1,5,45,245,334.9745949287899,335.6722739911638,"[90, 0, 164]",164,l,0.17488440609304234,colour,0.4
138,20,1,1,5,46,246,336.1785708096577,336.9123364551924,"[47, 0, 207]",207,a,0.21050546265905723,colour,0.4
138,20,1,1,5,47,247,337.42869684053585,338.0243086023838,"[51, 0, 203]",203,a,0.06960134854307398,colour,0.4
138,20,1,1,5,48,248,338.5410600773175,339.5043047426734,"[27, 0, 227]",227,a,0.4400888517848216,colour,0.4
138,20,1,1,5,49,249,340.0255358282011,340.7763065858744,"[92, 0, 162]",162,l,0.22793238441227004,colour,0.4
138,20,1,1,5,50,250,341.2911904405337,342.0482895244495,"[69, 0, 185]",185,l,0.23390467336867005,colour,0.4
138,20,1,1,6,1,251,347.15152773068985,347.9043382196105,"[16, 0, 238]",238,a,0.22870786825660616,colour,0.28
138,20,1,1,6,2,252,348.41807716240874,349.1842902491335,"[73, 0, 181]",181,l,0.24295408540638164,colour,0.28
138,20,1,1,6,3,253,349.69946436869213,350.37631249357946,"[95, 0, 159]",159,l,0.15369506826391444,colour,0.28
138,20,1,1,6,4,254,350.8904941198416,351.5762967396877,"[87, 0, 167]",167,l,0.16259284928673878,colour,0.28
138,20,1,1,6,5,255,352.0903381566168,352.76029948086943,"[94, 0, 160]",160,l,0.14673698140541092,colour,0.28
138,20,1,1,6,6,256,353.2779843721655,354.7123057351564,"[66, 0, 188]",188,l,0.922337006602902,colour,0.28
138,20,1,1,6,7,257,355.2200574228191,355.9922766693053,"[62, 0, 192]",192,a,0.2491221160744317,colour,0.28
138,20,1,1,6,8,258,356.50152969994815,357.48027301440015,"[68, 0, 186]",186,l,0.45764692447846755,colour,0.28
138,20,1,1,6,9,259,357.9995695257094,358.60029184026644,"[90, 0, 164]",164,l,0.07757201482309029,colour,0.28
138,20,1,1,6,10,260,359.1089962426922,359.69626121473266,"[72, 0, 182]",182,l,0.06400518299778923,colour,0.28
138,20,1,1,6,11,261,360.20288335048826,360.7443160066614,"[15, 0, 239]",239,a,0.01825596869457513,colour,0.28
138,20,1,1,6,12,262,361.2655065259896,361.8002863263828,"[80, 0, 174]",174,l,0.013223791436757892,colour,0.28
138,20,1,1,6,13,263,362.31101549387677,362.8563145415974,"[12, 0, 242]",242,a,0.020008979714475572,colour,0.28
138,20,1,1,6,14,264,363.3757752868696,364.1683465534006,"[63, 0, 191]",191,l,0.269390246772673,colour,0.28
138,20,1,1,6,15,265,364.6883996439283,365.31229825207265,"[89, 0, 165]",165,l,0.10080384078901261,colour,0.28
138,20,1,1,6,16,266,365.82910289632855,366.4003296495066,"[75, 0, 179]",179,l,0.0482119366643019,colour,0.28
138,20,1,1,6,17,267,366.9073196379468,367.8402920765802,"[57, 0, 197]",197,a,0.409824108122848,colour,0.28
138,20,1,1,6,18,268,368.3605783242383,369.0643245925312,"[64, 0, 190]",190,a,0.17942073050653562,colour,0.28
138,20,1,1,6,19,269,369.5806956117158,370.1443297913065,"[0, 0, 254]",254,a,0.0406406307592988,colour,0.28
138,20,1,1,6,20,270,370.6546808661078,371.3203134230571,"[79, 0, 175]",175,l,0.15185856184689328,colour,0.28
138,20,1,1,6,21,271,371.83281883841846,373.29633171326714,"[39, 0, 215]",215,a,0.9402786857681349,colour,0.28
138,20,1,1,6,22,272,373.81732806627406,374.60834363894537,"[76, 0, 178]",178,l,0.2677498759003356,colour,0.28
138,20,1,1,6,23,273,375.11574283393566,375.9363630634616,"[58, 0, 196]",196,l,0.29742384975543246,colour,0.28
138,20,1,1,6,24,274,376.443911920127,377.19229478621855,"[6, 0, 248]",248,a,0.22513646783772856,colour,0.28
138,20,1,1,6,25,275,377.7097433695453,378.456342504709,"[30, 0, 224]",224,a,0.22457641805522144,colour,0.28
138,20,1,1,6,26,276,378.97424637462245,379.70433231192874,"[98, 0, 156]",156,l,0.20686671446310356,colour,0.28
138,20,1,1,6,27,277,380.2104857703089,380.8883342653862,"[3, 0, 251]",251,a,0.1545835860306397,colour,0.28
138,20,1,1,6,28,278,381.39808590576285,382.048392712255,"[84, 0, 170]",170,l,0.12737981777172536,colour,0.28
138,20,1,1,6,29,279,382.5544579490088,383.2403562735417,"[50, 0, 204]",204,a,0.16248611686751246,colour,0.28
138,20,1,1,6,30,280,383.75776153377956,384.48834962543333,"[85, 0, 169]",169,l,0.20734760107006878,colour,0.28
138,20,1,1,6,31,281,384.9953439461533,385.62432553776307,"[37, 0, 217]",217,a,0.10572180256713182,colour,0.28
138,20,1,1,6,32,282,386.1369002701249,386.752321725362,"[74, 0, 180]",180,l,0.0979386072140187,colour,0.28
138,20,1,1,6,33,283,387.26020653313026,387.8563180862111,"[96, 0, 158]",158,l,0.07278756704181433,colour,0.28
138,20,1,1,6,34,284,388.3697143824538,389.0323332256521,"[28, 0, 226]",226,a,0.1394669680739753,colour,0.28
138,20,1,1,6,35,285,389.5416012224741,390.2083834174555,"[69, 0, 185]",185,a,0.14352910133311525,colour,0.28
138,20,1,1,6,36,286,390.72924389340915,391.40831961430376,"[93, 0, 161]",161,l,0.15622080612229183,colour,0.28
138,20,1,1,6,37,287,391.9169046812458,392.72034414310474,"[54, 0, 200]",200,a,0.28095751971704885,colour,0.28
138,20,1,1,6,38,288,393.2294542074087,393.88032421446405,"[97, 0, 157]",157,l,0.1276267595239915,colour,0.28
138,20,1,1,6,39,289,394.40134380437667,394.96835167345125,"[44, 0, 210]",210,a,0.04364725528284907,colour,0.28
138,20,1,1,6,40,290,395.47959087218624,396.3523496884154,"[56, 0, 198]",198,a,0.3495978826540522,colour,0.28
138,20,1,1,6,41,291,396.8726024591597,397.47237245278666,"[65, 0, 189]",189,a,0.07659212464932352,colour,0.28
138,20,1,1,6,42,292,397.9820508376579,398.5284010617761,"[61, 0, 193]",193,a,0.023160933575127274,colour,0.28
138,20,1,1,6,43,293,399.0446259638993,399.64839980145916,"[60, 0, 194]",194,a,0.08058375935070217,colour,0.28
138,20,1,1,6,44,294,400.16980063484516,400.8083282789448,"[19, 0, 235]",235,a,0.1153942797682248,colour,0.28
138,20,1,1,6,45,295,401.3260710656177,401.96833158726804,"[99, 0, 155]",155,l,0.11899758176878095,colour,0.28
138,20,1,1,6,46,296,402.48237182263983,403.14435775444144,"[41, 0, 213]",213,a,0.13880569976754487,colour,0.28
138,20,1,1,6,47,297,403.6542937149643,404.43233401334146,"[67, 0, 187]",187,a,0.2547163123381324,colour,0.28
138,20,1,1,6,48,298,404.95136073976755,405.60032649873756,"[86, 0, 168]",168,l,0.12575716996798292,colour,0.28
138,20,1,1,6,49,299,406.10763156443136,406.86435452487785,"[88, 0, 166]",166,l,0.23377234092913568,colour,0.28
138,20,1,1,6,50,300,407.3734775861958,408.0164564838633,"[32, 0, 222]",222,a,0.11980733025120571,colour,0.28
138,20,1,1,7,1,301,412.62365324172424,413.88031751906965,"[78, 0, 176]",176,l,0.7376796925091185,colour,0.14
138,20,1,1,7,2,302,414.3905894306954,415.0163576283958,"[55, 0, 199]",199,a,0.10256591020151973,colour,0.14
138,20,1,1,7,3,303,415.5312950461521,416.1443305790308,"[53, 0, 201]",201,a,0.09054807684151456,colour,0.14
138,20,1,1,7,4,304,416.6564094586065,417.56837018422084,"[69, 0, 185]",185,l,0.388768284348771,colour,0.14
138,20,1,1,7,5,305,418.07846959109884,418.672366938903,"[46, 0, 208]",208,a,0.07074153423309326,colour,0.14
138,20,1,1,7,6,306,419.1754409112036,419.87235709273955,"[90, 0, 164]",164,l,0.17379108804743737,colour,0.14
138,20,1,1,7,7,307,420.37862673588097,421.0563854339416,"[81, 0, 173]",173,l,0.15461942605907097,colour,0.14
138,20,1,1,7,8,308,421.5662694067578,422.1844726000563,"[89, 0, 165]",165,l,0.09496467193821445,colour,0.14
138,20,1,1,7,9,309,422.69131647143513,423.2163981946069,"[60, 0, 194]",194,a,0.0018920387956313789,colour,0.14
138,20,1,1,7,10,310,423.73824249918107,424.2724291666527,"[87, 0, 167]",167,l,0.010965869238134474,colour,0.14
138,20,1,1,7,11,311,424.78527880395995,425.3523796207737,"[86, 0, 168]",168,l,0.04397257254458964,colour,0.14
138,20,1,1,7,12,312,425.86339432699606,426.5043622442754,"[74, 0, 180]",180,a,0.11807204241631553,colour,0.14
138,20,1,1,7,13,313,427.0197785794735,428.0563350216253,"[59, 0, 195]",195,a,0.513349034707062,colour,0.14
138,20,1,1,7,14,314,428.5667731364956,429.2164237946272,"[93, 0, 161]",161,l,0.1264983891742304,colour,0.14
138,20,1,1,7,15,315,429.7231692043133,430.27238032972673,"[52, 0, 202]",202,a,0.026113207277376205,colour,0.14
138,20,1,1,7,16,316,430.7856998259085,431.39238418941386,"[92, 0, 162]",162,l,0.08379439637064934,colour,0.14
138,20,1,1,7,17,317,431.91084771527676,432.4723905696883,"[11, 0, 243]",243,a,0.03838585928315297,colour,0.14
138,20,1,1,7,18,318,432.9889990783995,433.6243944609305,"[62, 0, 192]",192,a,0.11215331661514938,colour,0.14
138,20,1,1,7,19,319,434.14532464765944,434.7763928382774,"[84, 0, 170]",170,l,0.10793167550582439,colour,0.14
138,20,1,1,7,20,320,435.28735988907283,435.8884027947206,"[29, 0, 225]",225,a,0.07769804575946182,colour,0.14
138,20,1,1,7,21,321,436.39692287694197,437.10445361665916,"[94, 0, 160]",160,l,0.18440604000352323,colour,0.14
138,20,1,1,7,22,322,437.6158629571437,438.2643939095433,"[71, 0, 183]",183,a,0.12682055565528572,colour,0.14
138,20,1,1,7,23,323,438.77083605743246,439.35241861158283,"[91, 0, 163]",163,l,0.05807267257478088,colour,0.14
138,20,1,1,7,24,324,439.8648204453639,441.1123856860213,"[64, 0, 190]",190,a,0.724666608904954,colour,0.14
138,20,1,1,7,25,325,441.6305967562366,442.2563673169934,"[50, 0, 204]",204,a,0.1002599386847578,colour,0.14
138,20,1,1,7,26,326,442.7736162201618,443.44841122301295,"[97, 0, 157]",157,l,0.1516592754633166,colour,0.14
138,20,1,1,7,27,327,443.9599883421324,444.7444514898816,"[82, 0, 172]",172,a,0.26129866956034675,colour,0.14
138,20,1,1,7,28,328,445.2570033791708,446.0243806762737,"[75, 0, 179]",179,l,0.2441631942638196,colour,0.14
138,20,1,1,7,29,329,446.53830354538513,447.31240774143953,"[67, 0, 187]",187,a,0.2480866935220547,colour,0.14
138,20,1,1,7,30,330,447.82245752360905,448.5763979582698,"[72, 0, 182]",182,l,0.23078383336542174,colour,0.14
138,20,1,1,7,31,331,449.08819760067854,449.6724114436074,"[79, 0, 175]",175,l,0.06113286019535735,colour,0.14
138,20,1,1,7,32,332,450.1696304931538,451.10438941966277,"[56, 0, 198]",198,a,0.41154167288914323,colour,0.14
138,20,1,1,7,33,333,451.6228174993885,452.38436271686805,"[57, 0, 197]",197,a,0.2407505139708519,colour,0.14
138,20,1,1,7,34,334,452.90179278946016,453.60846533754375,"[99, 0, 155]",155,l,0.1911947728949599,colour,0.14
138,20,1,1,7,35,335,454.1284707726445,454.7523918300285,"[83, 0, 171]",171,l,0.09830055217025802,colour,0.14
138,20,1,1,7,36,336,455.27228620037204,455.88043961150106,"[95, 0, 159]",159,l,0.0944294345099479,colour,0.14
138,20,1,1,7,37,337,456.38787425262854,457.03240963188,"[63, 0, 191]",191,a,0.12154183042002842,colour,0.14
138,20,1,1,7,38,338,457.5438394523808,458.18438949843403,"[61, 0, 193]",193,a,0.11724575236439705,colour,0.14
138,20,1,1,7,39,339,458.7002394586452,459.25640433857916,"[68, 0, 186]",186,a,0.0329618047690019,colour,0.14
138,20,1,1,7,40,340,459.76284451724496,460.2963766118046,"[70, 0, 184]",184,a,0.010269548569340259,colour,0.14
138,20,1,1,7,41,341,460.811640922213,461.90441423200537,"[65, 0, 189]",189,a,0.5695989854284562,colour,0.14
138,20,1,1,7,42,342,462.419843170268,463.040417713637,"[98, 0, 156]",156,l,0.09735138202086091,colour,0.14
138,20,1,1,7,43,343,463.5604893148993,464.40037100343034,"[73, 0, 181]",181,l,0.3165994501905516,colour,0.14
138,20,1,1,7,44,344,464.90800020477036,465.53644970973255,"[51, 0, 203]",203,a,0.10590336582390592,colour,0.14
138,20,1,1,7,45,345,466.04802958574146,466.95241309772246,"[7, 0, 247]",247,a,0.3814005970489234,colour,0.14
138,20,1,1,7,46,346,467.47000740427757,468.0884476932115,"[10, 0, 244]",244,a,0.09533882618416101,colour,0.14
138,20,1,1,7,47,347,468.59510606282856,469.31248139071977,"[80, 0, 174]",174,a,0.1942703205277212,colour,0.14
138,20,1,1,7,48,348,469.8296204106882,470.48837758851005,"[77, 0, 177]",177,l,0.132613250578288,colour,0.14
138,20,1,1,7,49,349,471.004533173691,471.63238127494697,"[19, 0, 235]",235,a,0.10459737066412345,colour,0.14
138,20,1,1,7,50,350,472.14538451237604,472.73645286046667,"[38, 0, 216]",216,a,0.06794798071496189,colour,0.14
138,20,1,1,8,1,351,477.4900746732601,478.23241435806267,"[76, 0, 178]",178,l,0.2183819996425882,colour,0.06
138,20,1,1,8,2,352,478.741011634178,479.76845840585884,"[53, 0, 201]",201,a,0.5042866257717833,colour,0.06
138,20,1,1,8,3,353,480.2867561223102,481.2724457082222,"[72, 0, 182]",182,l,0.46253298461670056,colour,0.06
138,20,1,1,8,4,354,481.78686088550603,482.3844351846492,"[61, 0, 193]",193,a,0.07291320408694446,colour,0.06
138,20,1,1,8,5,355,482.8977369577624,483.48847526247846,"[65, 0, 189]",189,a,0.06760100193787366,colour,0.06
138,20,1,1,8,6,356,484.0072420501965,485.77644009987125,"[90, 0, 164]",164,l,1.246029633039143,colour,0.06
138,20,1,1,8,7,357,486.2900262301555,487.7364764912636,"[88, 0, 166]",166,l,0.9231156412279233,colour,0.06
138,20,1,1,8,8,358,488.24335502111353,488.7844355785055,"[87, 0, 167]",167,l,0.01782943296711892,colour,0.06
138,20,1,1,8,9,359,489.3059092735057,490.120417398517,"[77, 0, 177]",177,l,0.2916563610197045,colour,0.06
138,20,1,1,8,10,360,490.63411853200523,491.35250328859547,"[12, 0, 242]",242,a,0.1951718352502212,colour,0.06
138,20,1,1,8,11,361,491.86865572293755,493.15258087636903,"[69, 0, 185]",185,l,0.7607161705382168,colour,0.06
138,20,1,1,8,12,362,493.6656065630377,494.192508251057,"[82, 0, 172]",172,l,0.0036615912686102092,colour,0.06
138,20,1,1,8,13,363,494.71256016002735,495.5684083873057,"[66, 0, 188]",188,a,0.3422160168993287,colour,0.06
138,20,1,1,8,14,364,496.0655057383119,496.6164442746085,"[92, 0, 162]",162,l,0.03612714941846207,colour,0.06
138,20,1,1,8,15,365,497.13534615171375,499.4404248028295,"[67, 0, 187]",187,l,1.7824911581119522,colour,0.06
138,20,1,1,8,16,366,499.94805203500437,500.7284408402629,"[97, 0, 157]",157,l,0.2572518963715993,colour,0.06
138,20,1,1,8,17,367,501.2450899151154,501.8404358305852,"[17, 0, 237]",237,a,0.07213063107337803,colour,0.06
138,20,1,1,8,18,368,502.3558620119002,503.1924330263864,"[68, 0, 186]",186,l,0.31337975471979007,colour,0.06
138,20,1,1,8,19,369,503.6997644797666,505.48048372229096,"[79, 0, 175]",175,l,1.2575571274501272,colour,0.06
138,20,1,1,8,20,370,505.9967354059918,506.97650075220736,"[83, 0, 171]",171,l,0.45662686188006774,colour,0.06
138,20,1,1,8,21,371,507.4968728584354,508.48866233957233,"[60, 0, 194]",194,a,0.46861673216335475,colour,0.06
138,20,1,1,8,22,372,508.98723897815216,509.568443045835,"[93, 0, 161]",161,l,0.057972635549958795,colour,0.06
138,20,1,1,8,23,373,510.08100438740803,510.86443447571946,"[59, 0, 195]",195,a,0.26032586861401796,colour,0.06
138,20,1,1,8,24,374,511.3779709813534,512.2004667081055,"[73, 0, 181]",181,l,0.3119111009291373,colour,0.06
138,20,1,1,8,25,375,512.7160898127477,513.5365544728702,"[85, 0, 169]",169,l,0.30645199405262247,colour,0.06
138,20,1,1,8,26,376,514.0507376745227,514.9365178451408,"[74, 0, 180]",180,l,0.3625148676801473,colour,0.06
138,20,1,1,8,27,377,515.45719400089,516.3524241254199,"[58, 0, 196]",196,a,0.37213496334152296,colour,0.06
138,20,1,1,8,28,378,516.863504604029,517.7284534433857,"[91, 0, 163]",163,l,0.3418784904642962,colour,0.06
138,20,1,1,8,29,379,518.2385867210687,519.136520208267,"[70, 0, 184]",184,l,0.3747969721443951,colour,0.06
138,20,1,1,8,30,380,519.6460024575936,520.520474112418,"[80, 0, 174]",174,l,0.35127369966357946,colour,0.06
138,20,1,1,8,31,381,521.0367521838634,521.9364733404946,"[78, 0, 176]",176,l,0.3765897615812719,colour,0.06
138,20,1,1,8,32,382,522.4430935070268,523.2884981055977,"[51, 0, 203]",203,a,0.3222424834384583,colour,0.06
138,20,1,1,8,33,383,523.802517073229,524.6404866367811,"[81, 0, 173]",173,l,0.3146640883060172,colour,0.06
138,20,1,1,8,34,384,525.1472533142078,526.0484966877266,"[56, 0, 198]",198,a,0.378169086179696,colour,0.06
138,20,1,1,8,35,385,526.5691759942565,527.552517073229,"[25, 0, 229]",229,a,0.4600265452754684,colour,0.06
138,20,1,1,8,36,386,528.0693677975214,528.9284944034298,"[55, 0, 199]",199,a,0.3359353461419232,colour,0.06
138,20,1,1,8,37,387,529.4444042282994,530.2966897197766,"[89, 0, 165]",165,l,0.32940379506908357,colour,0.06
138,20,1,1,8,38,388,530.8038809638238,531.6804624545621,"[52, 0, 202]",202,a,0.35333115403773263,colour,0.06
138,20,1,1,8,39,389,532.1946988255368,533.0964514426305,"[95, 0, 159]",159,l,0.37894575158134103,colour,0.06
138,20,1,1,8,40,390,533.6167266626144,534.5124644553289,"[57, 0, 197]",197,a,0.3712452640174888,colour,0.06
138,20,1,1,8,41,391,535.0244023378473,535.7524552393006,"[99, 0, 155]",155,l,0.20489905710564926,colour,0.06
138,20,1,1,8,42,392,536.2588686363888,537.0484340661205,"[94, 0, 160]",160,l,0.27213772025424987,colour,0.06
138,20,1,1,8,43,393,537.5553098390228,538.9524721747148,"[71, 0, 183]",183,l,0.8783282001968473,colour,0.06
138,20,1,1,8,44,394,539.4729671610403,540.2564712925232,"[84, 0, 170]",170,l,0.2603168101632036,colour,0.06
138,20,1,1,8,45,395,540.77007435821,541.5444936314598,"[98, 0, 156]",156,l,0.25136822287458926,colour,0.06
138,20,1,1,8,46,396,542.040504753706,542.8164832654293,"[96, 0, 158]",158,l,0.2527707103872672,colour,0.06
138,20,1,1,8,47,397,543.3343883169,544.1124546091887,"[63, 0, 191]",191,a,0.25481871247757226,colour,0.06
138,20,1,1,8,48,398,544.6314171386184,545.3684828242986,"[64, 0, 190]",190,a,0.21435373718850315,colour,0.06
138,20,1,1,8,49,399,545.8705556386849,546.680461666896,"[75, 0, 179]",179,l,0.2865863745100796,colour,0.06
138,20,1,1,8,50,400,547.1987952233758,547.9524824147229,"[62, 0, 192]",192,a,0.23062983941053972,colour,0.06
138,20,1,1,9,1,401,552.4538368529757,553.0964872826589,"[77, 0, 177]",177,l,0.11857340903952718,colour,0.06
138,20,1,1,9,2,402,553.6110304600443,554.2404980583233,"[50, 0, 204]",204,a,0.10612628294620663,colour,0.06
138,20,1,1,9,3,403,554.7517541924608,555.3685332366731,"[53, 0, 201]",201,a,0.0935188612784259,colour,0.06
138,20,1,1,9,4,404,555.8769422541955,556.5045406567515,"[94, 0, 160]",160,l,0.10443904437124729,colour,0.06
138,20,1,1,9,5,405,557.0175722511485,558.0165163485217,"[62, 0, 192]",192,a,0.4757362960954197,colour,0.06
138,20,1,1,9,6,406,558.5347085141693,559.4005293297232,"[97, 0, 157]",157,l,0.3425748111330904,colour,0.06
138,20,1,1,9,7,407,559.9097642434062,560.4805034146411,"[87, 0, 167]",167,l,0.0475746929878369,colour,0.06
138,20,1,1,9,8,408,560.987747040228,561.6325191212236,"[55, 0, 199]",199,a,0.12152135040378198,colour,0.06
138,20,1,1,9,9,409,562.1441186895827,562.9204815955018,"[83, 0, 171]",171,l,0.2530881506972946,colour,0.06
138,20,1,1,9,10,410,563.4410588957835,564.2164887792896,"[91, 0, 163]",163,l,0.25218348525231704,colour,0.06
138,20,1,1,9,11,411,564.7379746835213,565.5686127936933,"[86, 0, 168]",168,l,0.3072751333238557,colour,0.06
138,20,1,1,9,12,412,566.0821579639451,566.9124995076563,"[74, 0, 180]",180,l,0.3075740628410131,colour,0.06
138,20,1,1,9,13,413,567.4270064511802,568.1845509755076,"[93, 0, 161]",161,l,0.23416382441064343,colour,0.06
138,20,1,1,9,14,414,568.6809244366013,569.5605566626764,"[96, 0, 158]",158,l,0.35667530505452305,colour,0.06
138,20,1,1,9,15,415,570.0835880207596,570.744510960707,"[85, 0, 169]",169,l,0.13849180401302874,colour,0.06
138,20,1,1,9,16,416,571.2549368663458,572.0805010515614,"[58, 0, 196]",196,a,0.3148141438141465,colour,0.06
138,20,1,1,9,17,417,572.5862941403175,573.1445271084085,"[90, 0, 164]",164,l,0.032916118565481156,colour,0.06
138,20,1,1,9,18,418,573.6511823273031,574.288494954817,"[88, 0, 166]",166,l,0.11402605689363554,colour,0.06
138,20,1,1,9,19,419,574.8075827274588,575.7685147259035,"[84, 0, 170]",170,l,0.4376607878366485,colour,0.06
138,20,1,1,9,20,420,576.2764026844525,577.0086039715097,"[67, 0, 187]",187,a,0.2089844272704795,colour,0.06
138,20,1,1,9,21,421,577.528284877073,578.1444932376035,"[57, 0, 197]",197,a,0.09303915617056191,colour,0.06
138,20,1,1,9,22,422,578.653355178656,579.408537017589,"[63, 0, 191]",191,a,0.23205477616284043,colour,0.06
138,20,1,1,9,23,423,579.9256260190741,580.6885390655953,"[81, 0, 173]",173,l,0.24010460561839864,colour,0.06
138,20,1,1,9,24,424,581.2069376067957,581.9127113971044,"[66, 0, 188]",188,a,0.18364709772868082,colour,0.06
138,20,1,1,9,25,425,582.4333804636262,583.1045623183018,"[80, 0, 174]",174,l,0.14794569642981514,colour,0.06
138,20,1,1,9,26,426,583.6210251037264,584.3765259584179,"[79, 0, 175]",175,l,0.23221152712358162,colour,0.06
138,20,1,1,9,27,427,584.8807609902578,585.6646912636934,"[70, 0, 184]",184,a,0.2611647617886774,colour,0.06
138,20,1,1,9,28,428,586.1777610611753,586.9685615936178,"[52, 0, 202]",202,a,0.2677199436002411,colour,0.06
138,20,1,1,9,29,429,587.4687021968421,588.2565130402218,"[99, 0, 155]",155,l,0.26453845121432096,colour,0.06
138,20,1,1,9,30,430,588.7656380707631,589.6165387977962,"[69, 0, 185]",185,a,0.3278307720320299,colour,0.06
138,20,1,1,9,31,431,590.1251423754729,590.7765224137693,"[95, 0, 159]",159,l,0.1285593881038949,colour,0.06
138,20,1,1,9,32,432,591.2863106818986,591.9845352216507,"[68, 0, 186]",186,a,0.17493324301904067,colour,0.06
138,20,1,1,9,33,433,592.4969996770378,593.192498798715,"[75, 0, 179]",179,a,0.17237678507808596,colour,0.06
138,20,1,1,9,34,434,593.7002248863573,594.5285550557892,"[76, 0, 178]",178,a,0.30075776076409966,colour,0.06
138,20,1,1,9,35,435,595.0494738210109,596.008566556091,"[71, 0, 183]",183,a,0.43588178302161396,colour,0.06
138,20,1,1,9,36,436,596.5201350105926,597.1606507920078,"[27, 0, 227]",227,a,0.12433695932850242,colour,0.06
138,20,1,1,9,37,437,597.6694824068691,598.4165321023902,"[82, 0, 172]",172,l,0.22384346963372082,colour,0.06
138,20,1,1,9,38,438,598.9351815238479,599.9045465644449,"[72, 0, 182]",182,l,0.44616157159907743,colour,0.06
138,20,1,1,9,39,439,600.4114054020029,601.2565008309903,"[65, 0, 189]",189,a,0.3219482800923288,colour,0.06
138,20,1,1,9,40,440,601.7708431466599,602.4564988617785,"[92, 0, 162]",162,l,0.1624644553521648,colour,0.06
138,20,1,1,9,41,441,602.9741026206175,603.7365962206386,"[89, 0, 165]",165,l,0.23933227261295542,colour,0.06
138,20,1,1,9,42,442,604.2555811993079,604.800512788177,"[51, 0, 203]",203,a,0.022259418852627277,colour,0.06
138,20,1,1,9,43,443,605.3180499869632,606.0085401684046,"[78, 0, 176]",176,l,0.1656392523436807,colour,0.06
138,20,1,1,9,44,444,606.5228108039591,608.9365749529097,"[20, 0, 234]",234,l,1.8904263782897033,colour,0.06
138,20,1,1,9,45,445,609.4450339889154,610.2245610579848,"[2, 0, 252]",252,a,0.256325175461825,colour,0.06
138,20,1,1,9,46,446,610.741881247377,611.616547068581,"[61, 0, 193]",193,l,0.35143320757197216,colour,0.06
138,20,1,1,9,47,447,612.1326561798342,612.8725193575374,"[60, 0, 194]",194,a,0.2174190448713489,colour,0.06
138,20,1,1,9,48,448,613.3830063093919,613.9925606326433,"[98, 0, 156]",156,l,0.08634849113877863,colour,0.06
138,20,1,1,9,49,449,614.5081041802769,615.1765594353783,"[59, 0, 195]",195,a,0.1452328814775683,colour,0.06
138,20,1,1,9,50,450,615.697387222026,616.2645380573813,"[56, 0, 198]",198,a,0.04405449260957539,colour,0.06
138,20,1,1,10,1,451,620.5902231534128,621.2805309838732,"[88, 0, 166]",166,l,0.16636826226022094,colour,0.06
138,20,1,1,10,2,452,621.7907706001424,622.3845702740364,"[59, 0, 195]",195,a,0.07055957720149308,colour,0.06
138,20,1,1,10,3,453,622.9036489881692,623.4966566367075,"[78, 0, 176]",176,l,0.06983096105977893,colour,0.06
138,20,1,1,10,4,454,624.01491693774,624.96055823809,"[60, 0, 194]",194,a,0.422773388621863,colour,0.06
138,20,1,1,10,5,455,625.4680539254332,626.0245614518644,"[62, 0, 192]",192,a,0.03319850657135248,colour,0.06
138,20,1,1,10,6,456,626.5307625656715,627.1765515584266,"[93, 0, 161]",161,l,0.1270206297049299,colour,0.06
138,20,1,1,10,7,457,627.6825344812241,628.2965585688944,"[50, 0, 204]",204,a,0.09069301234558225,colour,0.06
138,20,1,1,10,8,458,628.8058517719037,629.43255338585,"[65, 0, 189]",189,l,0.10374075442086905,colour,0.06
138,20,1,1,10,9,459,629.9380865359562,630.592588989588,"[71, 0, 183]",183,a,0.1310792182921432,colour,0.06
138,20,1,1,10,10,460,631.0978125762776,631.8165722747799,"[94, 0, 160]",160,l,0.19603042071685195,colour,0.06
138,20,1,1,10,11,461,632.3239679250983,632.9445712192683,"[80, 0, 174]",174,l,0.09743881598114967,colour,0.06
138,20,1,1,10,12,462,633.4646991405752,634.0645845312392,"[55, 0, 199]",199,a,0.0769158664625138,colour,0.06
138,20,1,1,10,13,463,634.5742132915184,635.2165667609079,"[92, 0, 162]",162,l,0.11918111424893141,colour,0.06
138,20,1,1,10,14,464,635.7304628484417,636.3845553078572,"[84, 0, 170]",170,l,0.1294691736693494,colour,0.06
138,20,1,1,10,15,465,636.9042673272779,637.472599702247,"[86, 0, 168]",168,l,0.046696809062268585,colour,0.06
138,20,1,1,10,16,466,637.9809527935577,638.6405850984156,"[35, 0, 219]",219,a,0.13662182068219408,colour,0.06
138,20,1,1,10,17,467,639.1529144643573,640.1205556386849,"[95, 0, 159]",159,l,0.44440107757691294,colour,0.06
138,20,1,1,10,18,468,640.6374181783758,641.2405780091649,"[7, 0, 247]",247,a,0.08003394957631826,colour,0.06
138,20,1,1,10,19,469,641.7468059045495,642.3365674698143,"[90, 0, 164]",164,l,0.0664907485479489,colour,0.06
138,20,1,1,10,20,470,642.8563157230965,643.4805313777179,"[52, 0, 202]",202,a,0.10100903484271839,colour,0.06
138,20,1,1,10,21,471,643.9970244893339,644.6405681630131,"[58, 0, 196]",196,a,0.12038786010816693,colour,0.06
138,20,1,1,10,22,472,645.1548222570564,645.8245929596014,"[47, 0, 207]",207,a,0.14645341190043837,colour,0.06
138,20,1,1,10,23,473,646.3424468109733,647.0646077682031,"[66, 0, 188]",188,a,0.19900790054816753,colour,0.06
138,20,1,1,10,24,474,647.5764735768316,648.2326053736033,"[89, 0, 165]",165,l,0.13288539851782843,colour,0.06
138,20,1,1,10,25,475,648.7500626215478,649.3685698644258,"[63, 0, 191]",191,a,0.09526714612729847,colour,0.06
138,20,1,1,10,26,476,649.8752565910108,650.8086409930838,"[73, 0, 181]",181,l,0.41035973944235593,colour,0.06
138,20,1,1,10,27,477,651.3301119311363,652.2805723377969,"[70, 0, 184]",184,a,0.42732743616215885,colour,0.06
138,20,1,1,10,28,478,652.798907469667,653.3366139437421,"[67, 0, 187]",187,a,0.014593983651138842,colour,0.06
138,20,1,1,10,29,479,653.845890999015,656.008576008433,"[69, 0, 185]",185,a,1.6395158050581813,colour,0.06
138,20,1,1,10,30,480,656.519819933339,657.128627129714,"[72, 0, 182]",182,a,0.08553244115319103,colour,0.06
138,20,1,1,10,31,481,657.6449063826585,658.1846037509968,"[91, 0, 163]",163,l,0.016806613479275256,colour,0.06
138,20,1,1,10,32,482,658.6918375304085,659.6245890210848,"[87, 0, 167]",167,l,0.4095015478087589,colour,0.06
138,20,1,1,10,33,483,660.1451013367041,661.6486231124727,"[99, 0, 155]",155,a,0.9803328791167587,colour,0.06
138,20,1,1,10,34,484,662.1598367111874,664.4806066024466,"[51, 0, 203]",203,a,1.797731443948578,colour,0.06
138,20,1,1,10,35,485,664.9909950926667,665.6085996392067,"[68, 0, 186]",186,a,0.09436051134252921,colour,0.06
138,20,1,1,10,36,486,666.1295463675051,666.6885910533601,"[98, 0, 156]",156,l,0.03604719857685268,colour,0.06
138,20,1,1,10,37,487,667.207770986075,667.7445857915445,"[57, 0, 197]",197,a,0.013570770272053778,colour,0.06
138,20,1,1,10,38,488,668.254701739992,670.5206009310205,"[64, 0, 190]",190,a,1.7426508235512301,colour,0.06
138,20,1,1,10,39,489,671.0380077666487,671.7046056414256,"[76, 0, 178]",178,l,0.1434554519946687,colour,0.06
138,20,1,1,10,40,490,672.225498806627,672.8006990776048,"[61, 0, 193]",193,a,0.05196253734175116,colour,0.06
138,20,1,1,10,41,491,673.3193748867488,673.9686509968014,"[82, 0, 172]",172,a,0.12607185338856652,colour,0.06
138,20,1,1,10,42,492,674.4756807637168,675.3606555181323,"[83, 0, 171]",171,l,0.361747654620558,colour,0.06
138,20,1,1,10,43,493,675.8820094838156,676.4486298078555,"[97, 0, 157]",157,l,0.043637802940793335,colour,0.06
138,20,1,1,10,44,494,676.9602600962389,677.7126034831745,"[77, 0, 177]",177,l,0.22919387492584065,colour,0.06
138,20,1,1,10,45,495,678.2273778484669,678.816606539418,"[56, 0, 198]",198,a,0.06609335739631206,colour,0.06
138,20,1,1,10,46,496,679.3368183500716,679.8805999070173,"[96, 0, 158]",158,l,0.02041661087423563,colour,0.06
138,20,1,1,10,47,497,680.3994750025449,681.6566308003385,"[54, 0, 200]",200,a,0.7341145935934037,colour,0.06
138,20,1,1,10,48,498,682.1651650610729,682.9286629697308,"[75, 0, 179]",179,l,0.2403570612659678,colour,0.06
138,20,1,1,10,49,499,683.4465542365797,684.0166096901521,"[53, 0, 201]",201,a,0.04682953533483669,colour,0.06
138,20,1,1,10,50,500,684.5247497105156,685.1206088079489,"[81, 0, 173]",173,l,0.07261900074081495,colour,0.06
138,20,1,1,11,1,501,689.2118433593423,689.8726402684115,"[51, 0, 203]",203,a,0.13683646701974794,colour,0.06
138,20,1,1,11,2,502,690.386477278953,690.9209620883339,"[50, 0, 204]",204,a,0.0112596788094379,colour,0.06
138,20,1,1,11,3,503,691.4333918851335,692.008653202327,"[92, 0, 162]",162,l,0.05203973123570904,colour,0.06
138,20,1,1,11,4,504,692.5147924822522,693.2646172204986,"[66, 0, 188]",188,a,0.22709939896594733,colour,0.06
138,20,1,1,11,5,505,693.7805148361949,694.3845982371131,"[80, 0, 174]",174,l,0.08093152585206553,colour,0.06
138,20,1,1,11,6,506,694.9059470827342,695.6086323284544,"[77, 0, 177]",177,l,0.17952982598217204,colour,0.06
138,20,1,1,11,7,507,696.1247749166796,696.8806471686112,"[81, 0, 173]",173,l,0.23339858057443053,colour,0.06
138,20,1,1,11,8,508,697.3872578828014,697.9926189219113,"[58, 0, 196]",196,a,0.08227139175869524,colour,0.06
138,20,1,1,11,9,509,698.5123982891091,699.1766267830972,"[93, 0, 161]",161,l,0.15251392248319462,colour,0.06
138,20,1,1,11,10,510,699.6884189424454,700.4326305798022,"[91, 0, 163]",163,l,0.22072578041115776,colour,0.06
138,20,1,1,11,11,511,700.9386194103281,701.5926567311981,"[69, 0, 185]",185,a,0.13079998106695712,colour,0.06
138,20,1,1,11,12,512,702.1066485234187,702.7206615834148,"[78, 0, 176]",176,a,0.09081983100622892,colour,0.06
138,20,1,1,11,13,513,703.2316057910793,703.8086870731204,"[54, 0, 200]",200,a,0.06600119726499543,colour,0.06
138,20,1,1,11,14,514,704.3289682008326,704.9606283427565,"[2, 0, 252]",252,a,0.11530211969511583,colour,0.06
138,20,1,1,11,15,515,705.4784242987516,706.1206387403072,"[73, 0, 181]",181,l,0.11886958166724071,colour,0.06
138,20,1,1,11,16,516,706.634828243521,707.2806617409224,"[94, 0, 160]",160,l,0.13531976396916434,colour,0.06
138,20,1,1,11,17,517,707.7840043165488,708.4646038297215,"[62, 0, 192]",192,a,0.15740195190301165,colour,0.06
138,20,1,1,11,18,518,708.971590667381,709.5926327065681,"[65, 0, 189]",189,a,0.09776019473792985,colour,0.06
138,20,1,1,11,19,519,710.112365206005,710.6806581963319,"[53, 0, 201]",201,a,0.04546761402161792,colour,0.06
138,20,1,1,11,20,520,711.1905512275989,711.7846364402212,"[60, 0, 194]",194,a,0.07088213745737448,colour,0.06
138,20,1,1,11,21,521,712.2999724307447,713.5446881916723,"[16, 0, 238]",238,a,0.7214134364621714,colour,0.06
138,20,1,1,11,22,522,714.0657542555127,714.8086721069994,"[52, 0, 202]",202,a,0.21987664728658274,colour,0.06
138,20,1,1,11,23,523,715.315856655594,716.0886796688428,"[70, 0, 184]",184,a,0.2497684182599187,colour,0.06
138,20,1,1,11,24,524,716.5972166864667,717.2249395445106,"[85, 0, 169]",169,l,0.10455365368397906,colour,0.06
138,20,1,1,11,25,525,717.7379605050664,718.3046816537972,"[59, 0, 195]",195,a,0.04346844891551882,colour,0.06
138,20,1,1,11,26,526,718.8161299850908,719.880607390136,"[8, 0, 246]",246,a,0.5416929887724109,colour,0.06
138,20,1,1,11,27,527,720.3943664190592,721.1126416862826,"[68, 0, 186]",186,a,0.19506352744065225,colour,0.06
138,20,1,1,11,28,528,721.6289170007803,722.1686805352801,"[88, 0, 166]",166,l,0.016640410234685987,colour,0.06
138,20,1,1,11,29,529,722.6791710317484,723.3046576291672,"[89, 0, 165]",165,l,0.10611643677111715,colour,0.06
138,20,1,1,11,30,530,723.8167731364956,724.5847246618359,"[61, 0, 193]",193,a,0.24482997640734538,colour,0.06
138,20,1,1,11,31,531,725.0980878749979,725.6406729261507,"[56, 0, 198]",198,a,0.019509976089466363,colour,0.06
138,20,1,1,11,32,532,726.1607063243864,726.9206485864706,"[71, 0, 183]",183,l,0.2367510023759678,colour,0.06
138,20,1,1,11,33,533,727.4276759903296,727.9928063928965,"[64, 0, 190]",190,a,0.04198876750888303,colour,0.06
138,20,1,1,11,34,534,728.5058301103418,729.4646522728726,"[74, 0, 180]",180,l,0.436428835906554,colour,0.06
138,20,1,1,11,35,535,729.9739364173729,730.5446472316398,"[79, 0, 175]",175,l,0.04764440382132307,colour,0.06
138,20,1,1,11,36,536,731.0520802974352,732.6326463336591,"[86, 0, 168]",168,l,1.0572719825431705,colour,0.06
138,20,1,1,11,37,537,733.1479043425061,733.9766512016067,"[99, 0, 155]",155,l,0.3056772978743538,colour,0.06
138,20,1,1,11,38,538,734.4917075610138,735.128675572807,"[87, 0, 167]",167,l,0.11351996404118836,colour,0.06
138,20,1,1,11,39,539,735.6489452789538,736.1926657896838,"[84, 0, 170]",170,l,0.021334667166229337,colour,0.06
138,20,1,1,11,40,540,736.7108622876112,737.2646731467103,"[75, 0, 179]",179,l,0.030564854678232223,colour,0.06
138,20,1,1,11,41,541,737.7734779799939,738.4246551873512,"[82, 0, 172]",172,l,0.12804738763952628,colour,0.06
138,20,1,1,11,42,542,738.9454991216771,739.5366769591928,"[83, 0, 171]",171,l,0.06804565474158153,colour,0.06
138,20,1,1,11,43,543,740.0548580970499,740.6806869471329,"[76, 0, 178]",178,l,0.10251510405214503,colour,0.06
138,20,1,1,11,44,544,741.1996825596434,741.824696935073,"[57, 0, 197]",197,a,0.1018534418544732,colour,0.06
138,20,1,1,11,45,545,742.3374213291099,743.008696131641,"[96, 0, 158]",158,l,0.14822020748397335,colour,0.06
138,20,1,1,11,46,546,743.5249769599759,744.1846655848785,"[55, 0, 199]",199,a,0.13653596211224794,colour,0.06
138,20,1,1,11,47,547,744.6973683174001,745.3126763447654,"[97, 0, 157]",157,l,0.09212464455049485,colour,0.06
138,20,1,1,11,48,548,745.8326014351333,746.4967086244142,"[63, 0, 191]",191,a,0.14084936946164817,colour,0.06
138,20,1,1,11,49,549,747.0041598071693,747.592675635824,"[72, 0, 182]",182,a,0.06008247146382928,colour,0.06
138,20,1,1,11,50,550,748.103274833993,749.248736540263,"[95, 0, 159]",159,l,0.6222483911551535,colour,0.06
138,20,1,1,12,1,551,753.6194599575829,754.1607516166987,"[99, 0, 155]",155,l,0.017242207715753466,colour,0.06
138,20,1,1,12,2,552,754.6672607185319,755.4806826147833,"[87, 0, 167]",167,l,0.29027199040865526,colour,0.06
138,20,1,1,12,3,553,755.9978125763009,756.6327065921505,"[89, 0, 165]",165,l,0.11178467620629817,colour,0.06
138,20,1,1,12,4,554,757.1522122360184,757.7206576449098,"[92, 0, 162]",162,l,0.04523327527567744,colour,0.06
138,20,1,1,12,5,555,758.2303805344854,758.8726997392369,"[70, 0, 184]",184,a,0.11913267115596682,colour,0.06
138,20,1,1,12,6,556,759.3867651807959,760.1207245988189,"[93, 0, 161]",161,l,0.20954959705704823,colour,0.06
138,20,1,1,12,7,557,760.6383118161466,761.2887749797083,"[64, 0, 190]",190,a,0.12718250061152503,colour,0.06
138,20,1,1,12,8,558,761.7946842532256,762.5046658999636,"[24, 0, 230]",230,a,0.18683961784699932,colour,0.06
138,20,1,1,12,9,559,763.0133616377716,763.9366789283813,"[77, 0, 177]",177,l,0.4000740431365557,colour,0.06
138,20,1,1,12,10,560,764.4509999763686,765.2247044181568,"[61, 0, 193]",193,a,0.24971249204827473,colour,0.06
138,20,1,1,12,11,561,765.7331839341787,766.504706466163,"[55, 0, 199]",199,a,0.24823596136411652,colour,0.06
138,20,1,1,12,12,562,767.014594377426,767.6247512858827,"[66, 0, 188]",188,a,0.08704559953184798,colour,0.06
138,20,1,1,12,13,563,768.1397430545185,768.9447027639835,"[52, 0, 202]",202,a,0.28198033914668486,colour,0.06
138,20,1,1,12,14,564,769.4522748576128,770.1927335312939,"[60, 0, 194]",194,a,0.21717761689797044,colour,0.06
138,20,1,1,12,15,565,770.7023418114986,771.4567040558322,"[57, 0, 197]",197,a,0.23107724910369143,colour,0.06
138,20,1,1,12,16,566,771.9681165470392,772.6167144533829,"[95, 0, 159]",159,l,0.12534599419450387,colour,0.06
138,20,1,1,12,17,567,773.124435420963,773.8967314675101,"[69, 0, 185]",185,l,0.24998975999187678,colour,0.06
138,20,1,1,12,18,568,774.4058379872586,775.1127755941125,"[51, 0, 203]",203,a,0.1838475656695664,colour,0.06
138,20,1,1,12,19,569,775.6246847258299,776.2967389505939,"[88, 0, 166]",166,l,0.14892873738426715,colour,0.06
138,20,1,1,12,20,570,776.8121836427599,777.6887005426688,"[65, 0, 189]",189,a,0.3533634494524449,colour,0.06
138,20,1,1,12,21,571,778.2029310059152,778.9287204713328,"[80, 0, 174]",174,l,0.21507880871649832,colour,0.06
138,20,1,1,12,22,572,779.4406678061932,780.1047415185021,"[26, 0, 228]",228,a,0.14098800346255302,colour,0.06
138,20,1,1,12,23,573,780.6126416862826,781.2807038825122,"[78, 0, 176]",176,l,0.14477168716257438,colour,0.06
138,20,1,1,12,24,574,781.7908777263947,782.4567875512876,"[54, 0, 200]",200,a,0.14272801746847108,colour,0.06
138,20,1,1,12,25,575,782.9574310965254,783.6247162335203,"[97, 0, 157]",157,l,0.1439576063421555,colour,0.06
138,20,1,1,12,26,576,784.1450162658584,784.7527187226806,"[81, 0, 173]",173,l,0.08445527090225369,colour,0.06
138,20,1,1,12,27,577,785.2701594290556,785.8407977755414,"[94, 0, 160]",160,l,0.047443542105611414,colour,0.06
138,20,1,1,12,28,578,786.3484045276418,787.4407209754572,"[83, 0, 171]",171,l,0.5693414098350331,colour,0.06
138,20,1,1,12,29,579,787.9522681622184,788.6648306853604,"[53, 0, 201]",201,a,0.19977235671831295,colour,0.06
138,20,1,1,12,30,580,789.1653344150982,789.7447673548013,"[72, 0, 182]",182,l,0.056525643332861364,colour,0.06
138,20,1,1,12,31,581,790.2590525627602,791.0007589422748,"[90, 0, 164]",164,l,0.2184095688862726,colour,0.06
138,20,1,1,12,32,582,791.509230187512,792.160695296654,"[71, 0, 183]",183,l,0.13224224711302668,colour,0.06
138,20,1,1,12,33,583,792.6677987129078,793.6247760982369,"[84, 0, 170]",170,l,0.43405118433292955,colour,0.06
138,20,1,1,12,34,584,794.1379786219914,794.8007613053196,"[85, 0, 169]",169,l,0.14043189206859097,colour,0.06
138,20,1,1,12,35,585,795.3099619544228,795.9447181239957,"[86, 0, 168]",168,l,0.11155860830331221,colour,0.06
138,20,1,1,12,36,586,796.4505037296913,797.4407461816445,"[58, 0, 196]",196,l,0.46689995512133464,colour,0.06
138,20,1,1,12,37,587,797.9371133411187,799.7287543421262,"[82, 0, 172]",172,l,1.268451316631399,colour,0.06
138,20,1,1,12,38,588,800.2496959504206,802.3687301599421,"[56, 0, 198]",198,a,1.595783872762695,colour,0.06
138,20,1,1,12,39,589,802.8873933660216,803.5366852299194,"[48, 0, 206]",206,a,0.12625617353478447,colour,0.06
138,20,1,1,12,40,590,804.0325624443358,804.6967137444299,"[50, 0, 204]",204,a,0.1411451481981203,colour,0.06
138,20,1,1,12,41,591,805.204583192186,806.3367573038558,"[59, 0, 195]",195,a,0.6091435413109139,colour,0.06
138,20,1,1,12,42,592,806.8474707175046,807.8407481508912,"[74, 0, 180]",180,l,0.4771194852073677,colour,0.06
138,20,1,1,12,43,593,808.3562192306854,809.1527305380441,"[96, 0, 158]",158,l,0.2737899065250531,colour,0.06
138,20,1,1,12,44,594,809.6688853355008,810.3367254022742,"[62, 0, 192]",192,a,0.1523591407458298,colour,0.06
138,20,1,1,12,45,595,810.8491662268643,811.6167365087895,"[79, 0, 175]",175,l,0.24466849939199165,colour,0.06
138,20,1,1,12,46,596,812.1322288563242,812.824817058281,"[76, 0, 178]",178,l,0.1792178995674476,colour,0.06
138,20,1,1,12,47,597,813.34190172737,814.0087418177864,"[73, 0, 181]",181,a,0.1436535568209365,colour,0.06
138,20,1,1,12,48,598,814.5294849274796,815.128733468242,"[98, 0, 156]",156,l,0.07603365019895136,colour,0.06
138,20,1,1,12,49,599,815.6389403952635,816.3207620142493,"[63, 0, 191]",191,a,0.15852914069546387,colour,0.06
138,20,1,1,12,50,600,816.8265251707053,817.4167168164277,"[75, 0, 179]",179,l,0.0669842382776551,colour,0.06
138,20,1,1,13,1,601,823.2182205225108,823.9127425109618,"[68, 0, 186]",186,l,0.1705001062946394,colour,0.06
138,20,1,1,13,2,602,824.4222578434274,825.0809236489004,"[79, 0, 175]",175,l,0.13540562259731814,colour,0.06
138,20,1,1,13,3,603,825.5942120312247,826.2087981378427,"[66, 0, 188]",188,l,0.09135388681897894,colour,0.06
138,20,1,1,13,4,604,826.719302812824,827.8327833922813,"[65, 0, 189]",189,a,0.5905654061352834,colour,0.06
138,20,1,1,13,5,605,828.3457874173764,829.1287543421495,"[97, 0, 157]",157,l,0.25977881578728557,colour,0.06
138,20,1,1,13,6,606,829.6413290745113,830.2887285057805,"[52, 0, 202]",202,a,0.12418375303968787,colour,0.06
138,20,1,1,13,7,607,830.7986853402108,831.5287058990216,"[61, 0, 193]",193,a,0.20696478226454929,colour,0.06
138,20,1,1,13,8,608,832.0488420911715,832.8087930178735,"[0, 0, 254]",254,a,0.23694792564492673,colour,0.06
138,20,1,1,13,9,609,833.330148165056,834.0167841641814,"[67, 0, 187]",187,l,0.16335179161978886,colour,0.06
138,20,1,1,13,10,610,834.5334237867501,835.1767193370615,"[90, 0, 164]",164,l,0.11859191983239725,colour,0.06
138,20,1,1,13,11,611,835.6911900466657,836.8567682527937,"[89, 0, 165]",165,l,0.6432246579206549,colour,0.06
138,20,1,1,13,12,612,837.3632986223092,838.1847404157161,"[77, 0, 177]",177,l,0.29823911213316023,colour,0.06
138,20,1,1,13,13,613,838.6790993516915,839.4247410458629,"[51, 0, 203]",203,a,0.2224405882298015,colour,0.06
138,20,1,1,13,14,614,839.9422743062023,840.4887525304221,"[99, 0, 155]",155,l,0.023305869079194963,colour,0.06
138,20,1,1,13,15,615,841.0048143800814,841.7527722857776,"[72, 0, 182]",182,a,0.22469260275829583,colour,0.06
138,20,1,1,13,16,616,842.2706737926346,842.8088150732801,"[64, 0, 190]",190,a,0.015013430151157081,colour,0.06
138,20,1,1,13,17,617,843.3175112049212,843.8727844162495,"[98, 0, 156]",156,l,0.032076437724754214,colour,0.06
138,20,1,1,13,18,618,844.3801651004469,845.1768185863621,"[82, 0, 172]",172,l,0.2735618693404831,colour,0.06
138,20,1,1,13,19,619,845.6946562901139,846.4648192637833,"[3, 0, 251]",251,a,0.24720053875353187,colour,0.06
138,20,1,1,13,20,620,846.9692799697514,847.5688057785155,"[75, 0, 179]",179,l,0.07075256202369928,colour,0.06
138,20,1,1,13,21,621,848.0843233322375,848.840781627805,"[88, 0, 166]",166,l,0.2456145187607035,colour,0.06
138,20,1,1,13,22,622,849.3532901940052,850.0487700172234,"[80, 0, 174]",174,l,0.17296873644227162,colour,0.06
138,20,1,1,13,23,623,850.5565083140973,851.240752089303,"[62, 0, 192]",192,a,0.16105251549743116,colour,0.06
138,20,1,1,13,24,624,851.7596953202737,852.4487964049331,"[24, 0, 230]",230,a,0.16587752947816625,colour,0.06
138,20,1,1,13,25,625,852.9628807511181,853.6007762714871,"[96, 0, 158]",158,l,0.11461013130610809,colour,0.06
138,20,1,1,13,26,626,854.1193390467088,854.8647999652894,"[92, 0, 162]",162,l,0.2223326742532663,colour,0.06
138,20,1,1,13,27,627,855.3719278000062,856.1447543578688,"[63, 0, 191]",191,a,0.24942301481496543,colour,0.06
138,20,1,1,13,28,628,856.6540274746949,857.2728178931866,"[85, 0, 169]",169,l,0.09558655560249463,colour,0.06
138,20,1,1,13,29,629,857.7790639055311,858.3927819743985,"[84, 0, 170]",170,l,0.09125818213215098,colour,0.06
138,20,1,1,13,30,630,858.9041751671466,859.7927989098243,"[58, 0, 196]",196,a,0.36541121517075226,colour,0.06
138,20,1,1,13,31,631,860.31049246568,861.0087433931767,"[83, 0, 171]",171,l,0.17499153228709474,colour,0.06
138,20,1,1,13,32,632,861.5155829322175,862.2808121903217,"[55, 0, 199]",199,a,0.24220853386214003,colour,0.06
138,20,1,1,13,33,633,862.7968744338141,863.448824761901,"[91, 0, 163]",163,l,0.12877718528034166,colour,0.06
138,20,1,1,13,34,634,863.968807353871,864.6807995872223,"[60, 0, 194]",194,a,0.18875725660473108,colour,0.06
138,20,1,1,13,35,635,865.1876639386173,866.0567694343044,"[50, 0, 204]",204,a,0.3447027640067972,colour,0.06
138,20,1,1,13,36,636,866.5640941922902,867.3128039510339,"[94, 0, 160]",160,l,0.22558112058322877,colour,0.06
138,20,1,1,13,37,637,867.8224027789547,868.4647633375716,"[59, 0, 195]",195,a,0.11922798200976104,colour,0.06
138,20,1,1,13,38,638,868.9785826250445,869.6888293304946,"[54, 0, 200]",200,a,0.18690854095621035,colour,0.06
138,20,1,1,13,39,639,870.2070364622632,871.0008262899937,"[69, 0, 185]",185,a,0.2710097437375225,colour,0.06
138,20,1,1,13,40,640,871.5077241183608,872.1847569572856,"[73, 0, 181]",181,l,0.15384827455272898,colour,0.06
138,20,1,1,13,41,641,872.6969524154556,873.4007794222562,"[71, 0, 183]",183,l,0.18345568829681724,colour,0.06
138,20,1,1,13,42,642,873.9129508557962,874.4968106306624,"[78, 0, 176]",176,l,0.06076579517684877,colour,0.06
138,20,1,1,13,43,643,875.0067528928048,875.800863705459,"[95, 0, 159]",159,l,0.2709372760145925,colour,0.06
138,20,1,1,13,44,644,876.3071341362083,877.024809575174,"[87, 0, 167]",167,l,0.19441249914234504,colour,0.06
138,20,1,1,13,45,645,877.5416500594583,878.2408328278689,"[76, 0, 178]",178,l,0.17634833365445957,colour,0.06
138,20,1,1,13,46,646,878.760465684114,879.464904334629,"[53, 0, 201]",201,a,0.18118161836173385,colour,0.06
138,20,1,1,13,47,647,879.9792852472747,880.664828716137,"[57, 0, 197]",197,a,0.16232267062878236,colour,0.06
138,20,1,1,13,48,648,881.1824694965617,881.7768004694371,"[93, 0, 161]",161,l,0.071351996390149,colour,0.06
138,20,1,1,13,49,649,882.2934215812129,882.8248387197964,"[74, 0, 180]",180,l,0.008225878875236958,colour,0.06
138,20,1,1,13,50,650,883.3560317597585,884.2808165226015,"[86, 0, 168]",168,l,0.40161752770654857,colour,0.06
138,20,1,1,14,1,651,888.5431502209394,889.2248087874614,"[58, 0, 196]",196,a,0.15768906602170318,colour,0.06
138,20,1,1,14,2,652,889.7315333233564,890.3607677644468,"[83, 0, 171]",171,l,0.10617157531669363,colour,0.06
138,20,1,1,14,3,653,890.8744314825162,891.5848420281545,"[66, 0, 188]",188,a,0.18720313819358125,colour,0.06
138,20,1,1,14,4,654,892.0933451749734,892.7768134663929,"[90, 0, 164]",164,l,0.16067481669597328,colour,0.06
138,20,1,1,14,5,655,893.2965026426828,893.9848077634815,"[61, 0, 193]",193,a,0.16513158415909857,colour,0.06
138,20,1,1,14,6,656,894.4997128858231,895.1768682110705,"[93, 0, 161]",161,l,0.15407906868495047,colour,0.06
138,20,1,1,14,7,657,895.6873579198145,896.2728620039998,"[79, 0, 175]",175,l,0.06257788313087076,colour,0.06
138,20,1,1,14,8,658,896.7811233290704,897.432874370832,"[63, 0, 191]",191,a,0.128567265055608,colour,0.06
138,20,1,1,14,9,659,897.9541913148714,898.6808539380436,"[68, 0, 186]",186,a,0.2033866863930598,colour,0.06
138,20,1,1,14,10,660,899.1886083825957,899.9688593416358,"[71, 0, 183]",183,a,0.25688089296454564,colour,0.06
138,20,1,1,14,11,661,900.4868935747654,901.1368230762309,"[76, 0, 178]",178,l,0.12673233402892947,colour,0.06
138,20,1,1,14,12,662,901.6431521901395,902.3289040038362,"[87, 0, 167]",167,a,0.16252668312517926,colour,0.06
138,20,1,1,14,13,663,902.8463986671995,903.7048159554834,"[80, 0, 174]",174,l,0.33518900693161413,colour,0.06
138,20,1,1,14,14,664,904.2215209565475,904.9368463131832,"[50, 0, 204]",204,a,0.19206044758902863,colour,0.06
138,20,1,1,14,15,665,905.4559722889098,906.2168255180586,"[84, 0, 170]",170,l,0.2376808740082197,colour,0.06
138,20,1,1,14,16,666,906.7378108433331,907.4968448953587,"[82, 0, 172]",172,l,0.23578450293280184,colour,0.06
138,20,1,1,14,17,667,908.0035670680809,908.6969138184795,"[64, 0, 190]",190,a,0.17005151516059414,colour,0.06
138,20,1,1,14,18,668,909.2067773112794,909.8248446275247,"[59, 0, 195]",195,a,0.09212031227070838,colour,0.06
138,20,1,1,14,19,669,910.3346935479785,910.9368376485654,"[95, 0, 159]",159,l,0.07905484706861898,colour,0.06
138,20,1,1,14,20,670,911.4442478712299,912.0328239584342,"[91, 0, 163]",163,l,0.06692476739408448,colour,0.06
138,20,1,1,14,21,671,912.5521720636752,913.1928445959929,"[81, 0, 173]",173,l,0.11786330374889076,colour,0.06
138,20,1,1,14,22,672,913.7081797987921,914.5288961268961,"[85, 0, 169]",169,l,0.30468126002233475,colour,0.06
138,20,1,1,14,23,673,915.0467862121877,915.712870904943,"[65, 0, 189]",189,a,0.14287216524826363,colour,0.06
138,20,1,1,14,24,674,916.2188195631024,917.0008109299815,"[51, 0, 203]",203,a,0.2588446117588319,colour,0.06
138,20,1,1,14,25,675,917.5150295778294,918.0568375698058,"[56, 0, 198]",198,a,0.030661347147542983,colour,0.06
138,20,1,1,14,26,676,918.5654789567343,919.1848719604895,"[49, 0, 205]",205,a,0.09648058732273057,colour,0.06
138,20,1,1,14,27,677,919.7062735815416,920.4249210337293,"[92, 0, 162]",162,l,0.19558143563335761,colour,0.06
138,20,1,1,14,28,678,920.9406697754166,921.7048226508778,"[73, 0, 181]",181,l,0.24099942500470206,colour,0.06
138,20,1,1,14,29,679,922.2256622529239,922.8648157191928,"[89, 0, 165]",165,l,0.11595866188872606,colour,0.06
138,20,1,1,14,30,680,923.3820146038197,923.9928560175467,"[52, 0, 202]",202,a,0.08983639616053551,colour,0.06
138,20,1,1,14,31,681,924.5049648294807,925.5688144431333,"[70, 0, 184]",184,l,0.5406918308581226,colour,0.06
138,20,1,1,14,32,682,926.0831591218594,926.7368258331553,"[78, 0, 176]",176,l,0.13052507617976516,colour,0.06
138,20,1,1,14,33,683,927.24276622053,927.8328338045976,"[15, 0, 239]",239,a,0.0668188226991333,colour,0.06
138,20,1,1,14,34,684,928.3522575283423,929.0009924932383,"[55, 0, 199]",199,a,0.12590249930508435,colour,0.06
138,20,1,1,14,35,685,929.5086083038477,930.1689132985775,"[99, 0, 155]",155,l,0.13915582932531834,colour,0.06
138,20,1,1,14,36,686,930.6785771111608,931.2808972611674,"[94, 0, 160]",160,l,0.07943648437503725,colour,0.06
138,20,1,1,14,37,687,931.7880640866933,932.3928481406183,"[57, 0, 197]",197,a,0.09435893595218658,colour,0.06
138,20,1,1,14,38,688,932.900764062244,933.5448500625789,"[77, 0, 177]",177,l,0.12154931348050013,colour,0.06
138,20,1,1,14,39,689,934.0570207084529,935.4648385623004,"[88, 0, 166]",166,l,0.8845423109596595,colour,0.06
138,20,1,1,14,40,690,935.9818850283045,936.76089379529,"[60, 0, 194]",194,a,0.2559364488697611,colour,0.06
138,20,1,1,14,41,691,937.2758859577589,937.9128413664876,"[54, 0, 200]",200,a,0.11381495516980067,colour,0.06
138,20,1,1,14,42,692,938.432235551707,939.2088434302132,"[86, 0, 168]",168,l,0.2638200751389377,colour,0.06
138,20,1,1,14,43,693,939.7188538277987,940.4808507872513,"[75, 0, 179]",179,l,0.2512173796421848,colour,0.06
138,20,1,1,14,44,694,940.9877218340407,941.6728836655966,"[22, 0, 232]",232,a,0.16190283017931506,colour,0.06
138,20,1,1,14,45,695,942.1909734311048,942.8408351909602,"[72, 0, 182]",182,l,0.1352831362746656,colour,0.06
138,20,1,1,14,46,696,943.3547765708063,944.4408556709532,"[62, 0, 192]",192,a,0.5632186714792624,colour,0.06
138,20,1,1,14,47,697,944.9421758445678,945.656902554445,"[67, 0, 187]",187,a,0.190119965642225,colour,0.06
138,20,1,1,14,48,698,946.1780796829844,946.8169046812109,"[97, 0, 157]",157,l,0.11557938763871789,colour,0.06
138,20,1,1,14,49,699,947.3244058824494,947.9928367190878,"[53, 0, 201]",201,a,0.14515096141258255,colour,0.06
138,20,1,1,14,50,700,948.5120394949336,949.56890424015,"[69, 0, 185]",185,l,0.5337132639833726,colour,0.06
138,20,1,1,15,1,701,954.1224622497684,956.7928587744827,"[72, 0, 182]",182,l,2.1466377320466563,colour,0.06
138,20,1,1,15,2,702,957.309776058828,957.8569238221971,"[71, 0, 183]",183,l,0.024028183659538627,colour,0.06
138,20,1,1,15,3,703,958.3722716280608,959.152917615138,"[83, 0, 171]",171,l,0.25741416111122817,colour,0.06
138,20,1,1,15,4,704,959.6693114774534,960.2888746228418,"[53, 0, 201]",201,a,0.09637779335025698,colour,0.06
138,20,1,1,15,5,705,960.8100509637152,961.3529377013328,"[88, 0, 166]",166,l,0.01977661025011912,colour,0.06
138,20,1,1,15,6,706,961.8727119484683,962.4409277449013,"[89, 0, 165]",165,l,0.042932423821184784,colour,0.06
138,20,1,1,15,7,707,962.9530015044729,963.568933384784,"[74, 0, 180]",180,l,0.09263034351170063,colour,0.06
138,20,1,1,15,8,708,964.0781710554147,965.0249029168044,"[37, 0, 217]",217,a,0.4235886509413831,colour,0.06
138,20,1,1,15,9,709,965.5313446708606,966.1688979385654,"[82, 0, 172]",172,l,0.11314856680110097,colour,0.06
138,20,1,1,15,10,710,966.6890223153168,967.6008877300774,"[54, 0, 200]",200,a,0.3886119272210635,colour,0.06
138,20,1,1,15,11,711,968.1110316416016,969.0889624506235,"[87, 0, 167]",167,l,0.4546981953899376,colour,0.06
138,20,1,1,15,12,712,969.5975246744347,970.3209293990512,"[93, 0, 161]",161,l,0.2004076311714016,colour,0.06
138,20,1,1,15,13,713,970.8317523020087,971.4008920624037,"[78, 0, 176]",176,l,0.04608634690521285,colour,0.06
138,20,1,1,15,14,714,971.9091817443841,972.63290075853,"[50, 0, 204]",204,a,0.20095783477881923,colour,0.06
138,20,1,1,15,15,715,973.1435271320515,973.7209486975335,"[90, 0, 164]",164,l,0.05453553679399192,colour,0.06
138,20,1,1,15,16,716,974.2374784369022,974.8009149054997,"[65, 0, 189]",189,a,0.04024323960766196,colour,0.06
138,20,1,1,15,17,717,975.3159110064153,976.2008920623921,"[55, 0, 199]",199,a,0.36248099693330005,colour,0.06
138,20,1,1,15,18,718,976.721946310834,977.400917662424,"[85, 0, 169]",169,l,0.15568911330774426,colour,0.06
138,20,1,1,15,19,719,977.9096287602442,978.5929414822604,"[79, 0, 175]",175,l,0.16018605313729495,colour,0.06
138,20,1,1,15,20,720,979.1127468433115,979.8729124164092,"[52, 0, 202]",202,a,0.23692665790440515,colour,0.06
138,20,1,1,15,21,721,980.3941958834766,981.1689262955333,"[99, 0, 155]",155,l,0.2515190661069937,colour,0.06
138,20,1,1,15,22,722,981.6754684804473,982.7768973556813,"[68, 0, 186]",186,l,0.5782049262197688,colour,0.06
138,20,1,1,15,23,723,983.284995628288,984.2169243735843,"[12, 0, 242]",242,a,0.4086362670059316,colour,0.06
138,20,1,1,15,24,724,984.738352382381,985.4729069025489,"[98, 0, 156]",156,l,0.21144596819067374,colour,0.06
138,20,1,1,15,25,725,985.9883263884694,986.5769662788371,"[77, 0, 177]",177,l,0.06541672901948914,colour,0.06
138,20,1,1,15,26,726,987.0836104699993,987.760868982994,"[60, 0, 194]",194,a,0.15399793622782454,colour,0.06
138,20,1,1,15,27,727,988.2711574361892,988.944892598025,"[86, 0, 168]",168,l,0.15049939742311835,colour,0.06
138,20,1,1,15,28,728,989.4586083038594,990.2649291469716,"[64, 0, 190]",190,a,0.2834300883114338,colour,0.06
138,20,1,1,15,29,729,990.7708762297407,991.4969339046511,"[63, 0, 191]",191,a,0.2015210353420116,colour,0.06
138,20,1,1,15,30,730,992.0066130772466,992.7049089032807,"[96, 0, 158]",158,l,0.17520578484982252,colour,0.06
138,20,1,1,15,31,731,993.2254672988784,993.8729202933027,"[56, 0, 198]",198,a,0.12419832532759756,colour,0.06
138,20,1,1,15,32,732,994.3818035020377,995.0250699077151,"[91, 0, 163]",163,l,0.12017872754950076,colour,0.06
138,20,1,1,15,33,733,995.5381542775431,996.3289347238606,"[80, 0, 174]",174,l,0.26756043575005606,colour,0.06
138,20,1,1,15,34,734,996.8313706647023,997.5929343930329,"[70, 0, 184]",184,a,0.24989799375180155,colour,0.06
138,20,1,1,15,35,735,998.1035316219204,998.7929213960888,"[81, 0, 173]",173,l,0.1661784282187,colour,0.06
138,20,1,1,15,36,736,999.3084933006321,999.9369061778416,"[67, 0, 187]",187,a,0.10520113742677495,colour,0.06
138,20,1,1,15,37,737,1000.4491630760604,1001.4969500523293,"[66, 0, 188]",188,a,0.5248698336654343,colour,0.06
138,20,1,1,15,38,738,1002.011782706948,1002.745010751998,"[92, 0, 162]",162,l,0.21002890833187848,colour,0.06
138,20,1,1,15,39,739,1003.263484124036,1004.0409466495039,"[95, 0, 159]",159,l,0.254337431921158,colour,0.06
138,20,1,1,15,40,740,1004.5604739548871,1005.1609418445732,"[84, 0, 170]",170,l,0.07724275911459699,colour,0.06
138,20,1,1,15,41,741,1005.669872314902,1006.5449402534286,"[94, 0, 160]",160,l,0.3505541420308873,colour,0.06
138,20,1,1,15,42,742,1007.0619552117423,1008.2489409466507,"[75, 0, 179]",179,a,0.6636960135074332,colour,0.06
138,20,1,1,15,43,743,1008.7651890856796,1009.6250903877662,"[61, 0, 193]",193,a,0.3366994084790349,colour,0.06
138,20,1,1,15,44,744,1010.1403625751263,1010.7449103211402,"[97, 0, 157]",157,l,0.08131434471579269,colour,0.06
138,20,1,1,15,45,745,1011.2654462674982,1012.064910242334,"[59, 0, 195]",195,a,0.27630501048406586,colour,0.06
138,20,1,1,15,46,746,1012.5780402983655,1013.3369589532958,"[7, 0, 247]",247,a,0.23562381352530792,colour,0.06
138,20,1,1,15,47,747,1013.844199821935,1014.5529853567714,"[58, 0, 196]",196,a,0.18562893354101107,colour,0.06
138,20,1,1,15,48,748,1015.0629831512342,1015.8329897678341,"[51, 0, 203]",203,a,0.24678621219936758,colour,0.06
138,20,1,1,15,49,749,1016.3442711081589,1017.5209656329243,"[69, 0, 185]",185,a,0.6518853433663025,colour,0.06
138,20,1,1,15,50,750,1018.0334781375714,1018.8809638212551,"[62, 0, 192]",192,a,0.3241821776609868,colour,0.06
138,20,1,1,16,1,751,1023.1126058462542,1024.6009464132367,"[71, 0, 183]",183,a,0.9644407773157582,colour,0.06
138,20,1,1,16,2,752,1025.113510117866,1025.7529294305714,"[50, 0, 204]",204,a,0.11618276056833565,colour,0.06
138,20,1,1,16,3,753,1026.2698695579893,1026.8649326916202,"[98, 0, 156]",156,l,0.0721849818364717,colour,0.06
138,20,1,1,16,4,754,1027.3793766196468,1028.056925397541,"[60, 0, 194]",194,a,0.15446031204191968,colour,0.06
138,20,1,1,16,5,755,1028.566924767394,1029.6249572676024,"[74, 0, 180]",180,l,0.5347683788277209,colour,0.06
138,20,1,1,16,6,756,1030.145097004366,1030.7449729427462,"[59, 0, 195]",195,a,0.07664962625131011,colour,0.06
138,20,1,1,16,7,757,1031.2546032783575,1031.8649638054776,"[87, 0, 167]",167,l,0.08721337816677988,colour,0.06
138,20,1,1,16,8,758,1032.3798078816035,1033.0009582286002,"[66, 0, 188]",188,a,0.0980859057744965,colour,0.06
138,20,1,1,16,9,759,1033.5204693863052,1034.2249375752872,"[94, 0, 160]",160,l,0.1812076122732833,colour,0.06
138,20,1,1,16,10,760,1034.7392405063147,1036.5929769284558,"[81, 0, 173]",173,l,1.330455759249162,colour,0.06
138,20,1,1,16,11,761,1037.114432112663,1037.6729608594906,"[63, 0, 191]",191,a,0.03540798561880365,colour,0.06
138,20,1,1,16,12,762,1038.1794463305268,1038.7129740927485,"[69, 0, 185]",185,a,0.013891755195800215,colour,0.06
138,20,1,1,16,13,763,1039.222835616325,1039.768993643287,"[83, 0, 171]",171,l,0.02286909328540787,colour,0.06
138,20,1,1,16,14,764,1040.2829633801011,1041.2410073018982,"[33, 0, 221]",221,a,0.44651367043843493,colour,0.06
138,20,1,1,16,15,765,1041.7561325844727,1042.5210030483431,"[96, 0, 158]",158,l,0.25415193021763116,colour,0.06
138,20,1,1,16,16,766,1043.040687104629,1043.5689834032673,"[77, 0, 177]",177,l,0.005042811098974198,colour,0.06
138,20,1,1,16,17,767,1044.0815018155845,1044.696974076971,"[52, 0, 202]",202,a,0.09231447853380814,colour,0.06
138,20,1,1,16,18,768,1045.2064815324848,1046.1130914590321,"[78, 0, 176]",176,l,0.38339976215502247,colour,0.06
138,20,1,1,16,19,769,1046.631265901553,1047.320991232933,"[55, 0, 199]",199,a,0.16213716886704788,colour,0.06
138,20,1,1,16,20,770,1047.8388179089525,1048.7770415035193,"[56, 0, 198]",198,a,0.4149929501581937,colour,0.06
138,20,1,1,16,21,771,1049.2920781706343,1050.0489756051102,"[70, 0, 184]",184,a,0.232843650795985,colour,0.06
138,20,1,1,16,22,772,1050.5592223106069,1051.5449449795997,"[67, 0, 187]",187,a,0.46259836317040026,colour,0.06
138,20,1,1,16,23,773,1052.0593223476317,1053.0491796176066,"[86, 0, 168]",168,l,0.46666049637133256,colour,0.06
138,20,1,1,16,24,774,1053.5607657951768,1054.4009913117043,"[84, 0, 170]",170,l,0.31710357376141474,colour,0.06
138,20,1,1,16,25,775,1054.9202641922166,1055.5770064512035,"[65, 0, 189]",189,a,0.1335829008021392,colour,0.06
138,20,1,1,16,26,776,1056.092195536883,1057.0009976132424,"[64, 0, 190]",190,a,0.38563799200346693,colour,0.06
138,20,1,1,16,27,777,1057.5141465738998,1058.2089852149948,"[92, 0, 162]",162,l,0.1715650674304925,colour,0.06
138,20,1,1,16,28,778,1058.7174533094512,1059.5449693981209,"[61, 0, 193]",193,a,0.30429056426510215,colour,0.06
138,20,1,1,16,29,779,1060.0489157404518,1060.832979921659,"[14, 0, 240]",240,a,0.2609749276889488,colour,0.06
138,20,1,1,16,30,780,1061.3458500389825,1062.0970177939744,"[72, 0, 182]",182,l,0.22796979983104393,colour,0.06
138,20,1,1,16,31,781,1062.6115503375186,1063.3770229927613,"[90, 0, 164]",164,l,0.24217860156204551,colour,0.06
138,20,1,1,16,32,782,1063.89294778381,1064.5289953761967,"[89, 0, 165]",165,l,0.11280828336020932,colour,0.06
138,20,1,1,16,33,783,1065.0508369238814,1065.7609969830955,"[82, 0, 172]",172,l,0.18683922395575792,colour,0.06
138,20,1,1,16,34,784,1066.2696903578471,1066.881040621316,"[57, 0, 197]",197,a,0.08813773602014408,colour,0.06
138,20,1,1,16,35,785,1067.3974163666717,1068.001019274816,"[76, 0, 178]",178,l,0.08405945508275181,colour,0.06
138,20,1,1,16,36,786,1068.5192130157957,1069.1050518695847,"[54, 0, 200]",200,a,0.06268146482761949,colour,0.06
138,20,1,1,16,37,787,1069.6130611328408,1070.36898419098,"[58, 0, 196]",196,a,0.23269005067413673,colour,0.06
138,20,1,1,16,38,788,1070.8823733979953,1071.5770080265938,"[73, 0, 181]",181,l,0.17225587426219136,colour,0.06
138,20,1,1,16,39,789,1072.084868415841,1072.8330055216793,"[79, 0, 175]",175,l,0.22253038524650037,colour,0.06
138,20,1,1,16,40,790,1073.3528963474673,1073.9930356115801,"[93, 0, 161]",161,l,0.11682157963514328,colour,0.06
138,20,1,1,16,41,791,1074.5092372767394,1075.0890376753523,"[85, 0, 169]",169,l,0.05650319409323856,colour,0.06
138,20,1,1,16,42,792,1075.6031570738414,1076.2250076799537,"[80, 0, 174]",174,l,0.09860578319057822,colour,0.06
138,20,1,1,16,43,793,1076.7443305790075,1077.2731254873797,"[95, 0, 159]",159,l,0.0055209408164955676,colour,0.06
138,20,1,1,16,44,794,1077.7913322253153,1079.073067985766,"[68, 0, 186]",186,a,0.7583495466969907,colour,0.06
138,20,1,1,16,45,795,1079.5884268193622,1080.3290016777464,"[62, 0, 192]",192,a,0.21604964038124308,colour,0.06
138,20,1,1,16,46,796,1080.8270867958781,1081.4010102163302,"[75, 0, 179]",179,l,0.06331398233305663,colour,0.06
138,20,1,1,16,47,797,1081.9065043756273,1082.4889805676066,"[53, 0, 201]",201,a,0.06374642584705725,colour,0.06
138,20,1,1,16,48,798,1082.9957830850617,1083.6489811189822,"[48, 0, 206]",206,a,0.12995833106106147,colour,0.06
138,20,1,1,16,49,799,1084.16784400522,1084.873051050352,"[51, 0, 203]",203,a,0.18209652387304232,colour,0.06
138,20,1,1,16,50,800,1085.3867647869629,1086.4809866643045,"[97, 0, 157]",157,l,0.5710999345756136,colour,0.06
