id,age,condition,counterbalance,block,trialinblock,trial,tstart,tend,trialstim,trialintensity,response,RT,trialtype,colourfreq
029,68,1,2,Practice,1,NA,5.907844752073288e-06,2.21063982648775,"[61, 0, 193]",193,a,1.6862540685106069,colour,0.5
029,68,1,2,Practice,2,NA,2.7195115995127708,3.8665543680544943,"[65, 0, 189]",189,a,0.6239181051496416,colour,0.5
029,68,1,2,Practice,3,NA,4.375907814828679,5.258605927228928,"[32, 0, 222]",222,a,0.3595159475225955,colour,0.5
029,68,1,2,Practice,4,NA,5.7676691096276045,7.434527841862291,"[78, 0, 176]",176,a,1.143567078281194,colour,0.5
029,68,1,2,Practice,5,NA,7.955189392669126,9.074526675976813,"[18, 0, 236]",236,a,0.5960873770527542,colour,0.5
029,68,1,2,Practice,6,NA,9.59615630027838,10.266497024102136,"[4, 0, 250]",250,a,0.14739526063203812,colour,0.5
029,68,1,2,Practice,7,NA,10.783213026588783,13.282620682381094,"[68, 0, 186]",186,a,1.9761392388027161,colour,0.5
029,68,1,2,Practice,8,NA,13.798922358779237,15.41855660197325,"[69, 0, 185]",185,a,1.0963390446268022,colour,0.5
029,68,1,2,Practice,9,NA,15.925318542635068,17.090564869577065,"[34, 0, 220]",220,a,0.6420929129235446,colour,0.5
029,68,1,2,Practice,10,NA,17.597004250390455,18.570542924571782,"[20, 0, 234]",234,a,0.45032106316648424,colour,0.5
029,68,1,2,1,1,1,4.898166804807261,7.488063317723572,"[83, 0, 171]",171,a,2.0657234319951385,colour,0.5
029,68,1,2,1,2,2,8.008325902745128,9.079963718773797,"[23, 0, 231]",231,a,0.5484288698062301,colour,0.5
029,68,1,2,1,3,3,9.586399948922917,10.712001351639628,"[78, 0, 176]",176,l,0.6023038411512971,colour,0.5
029,68,1,2,1,4,4,11.227066745748743,12.312016160227358,"[5, 0, 249]",249,a,0.5619519634637982,colour,0.5
029,68,1,2,1,5,5,12.821980461943895,13.848008163506165,"[22, 0, 232]",232,a,0.5026344351936132,colour,0.5
029,68,1,2,1,6,6,14.368877665139735,15.312007889384404,"[19, 0, 235]",235,a,0.4199417580384761,colour,0.5
029,68,1,2,1,7,7,15.822042689658701,16.42401136783883,"[95, 0, 159]",159,l,0.0786266119685024,colour,0.5
029,68,1,2,1,8,8,16.931282551260665,17.85632894630544,"[90, 0, 164]",164,l,0.4015889319125563,colour,0.5
029,68,1,2,1,9,9,18.368935954291373,19.247989416588098,"[96, 0, 158]",158,l,0.35564129147678614,colour,0.5
029,68,1,2,1,10,10,19.759540523635224,20.58402033173479,"[7, 0, 247]",247,a,0.30122753884643316,colour,0.5
029,68,1,2,1,11,11,21.103243951220065,21.823984350077808,"[68, 0, 186]",186,l,0.19730656663887203,colour,0.5
029,68,1,2,1,12,12,22.33890323364176,23.27195730386302,"[75, 0, 179]",179,l,0.40973917953670025,colour,0.5
029,68,1,2,1,13,13,23.792037144303322,24.327963375486434,"[69, 0, 185]",185,a,0.012549112550914288,colour,0.5
029,68,1,2,1,14,14,24.838907959638163,25.783952275291085,"[1, 0, 253]",253,a,0.42188026779331267,colour,0.5
029,68,1,2,1,15,15,26.291993821272627,26.94395336229354,"[10, 0, 244]",244,a,0.1286387424916029,colour,0.5
029,68,1,2,1,16,16,27.463865030556917,28.29598348052241,"[52, 0, 202]",202,l,0.3089343160390854,colour,0.5
029,68,1,2,1,17,17,28.807631473522633,29.472004250390455,"[24, 0, 230]",230,a,0.14101101830601692,colour,0.5
029,68,1,2,1,18,18,29.979472356615588,30.66395136155188,"[36, 0, 218]",218,a,0.16123067401349545,colour,0.5
029,68,1,2,1,19,19,31.182672039605677,31.807991054840386,"[16, 0, 238]",238,a,0.10198955191299319,colour,0.5
029,68,1,2,1,20,20,32.32323998119682,32.95205162209459,"[91, 0, 163]",163,l,0.10546878702007234,colour,0.5
029,68,1,2,1,21,21,33.4638669998385,35.7440218126867,"[18, 0, 236]",236,a,1.7570336943026632,colour,0.5
029,68,1,2,1,22,22,36.26087447954342,37.000008270610124,"[93, 0, 161]",161,l,0.21588861080817878,colour,0.5
029,68,1,2,1,23,23,37.51198394363746,39.17595578520559,"[9, 0, 245]",245,a,1.1406620708294213,colour,0.5
029,68,1,2,1,24,24,39.68383230967447,40.20803571701981,"[50, 0, 204]",204,l,0.0008861534297466278,colour,0.5
029,68,1,2,1,25,25,40.73072281735949,41.44796113832854,"[73, 0, 181]",181,l,0.19428025442175567,colour,0.5
029,68,1,2,1,26,26,41.96510918973945,43.81630868697539,"[27, 0, 227]",227,a,1.3280114247463644,colour,0.5
029,68,1,2,1,27,27,44.324467992875725,45.07199582201429,"[94, 0, 160]",160,l,0.2242377505172044,colour,0.5
029,68,1,2,1,28,28,45.59007965121418,46.12797589972615,"[48, 0, 206]",206,a,0.014542760560289025,colour,0.5
029,68,1,2,1,29,29,46.63690990046598,47.40799916815013,"[82, 0, 172]",172,l,0.2477267214562744,colour,0.5
029,68,1,2,1,30,30,47.91818008525297,49.88001405238174,"[42, 0, 212]",212,a,1.4384552733972669,colour,0.5
029,68,1,2,1,31,31,50.387008361984044,51.16001487150788,"[51, 0, 203]",203,a,0.2497727507725358,colour,0.5
029,68,1,2,1,32,32,51.66818717448041,52.215970530873165,"[59, 0, 195]",195,a,0.022311765467748046,colour,0.5
029,68,1,2,1,33,33,52.73287400393747,53.45598535519093,"[20, 0, 234]",234,a,0.1999382448848337,colour,0.5
029,68,1,2,1,34,34,53.96707566245459,54.59200161951594,"[13, 0, 241]",241,a,0.10145431547425687,colour,0.5
029,68,1,2,1,35,35,55.10765187488869,55.759996990906075,"[61, 0, 193]",193,a,0.12877934542484581,colour,0.5
029,68,1,2,1,36,36,56.27964163175784,56.919942545704544,"[56, 0, 198]",198,a,0.11729243537411094,colour,0.5
029,68,1,2,1,37,37,57.4360685669817,59.87198471557349,"[35, 0, 219]",219,a,1.912739103892818,colour,0.5
029,68,1,2,1,38,38,60.388990194769576,61.71201041014865,"[84, 0, 170]",170,l,0.7997502230573446,colour,0.5
029,68,1,2,1,39,39,62.23420992936008,62.816049142507836,"[46, 0, 208]",208,a,0.058451854856684804,colour,0.5
029,68,1,2,1,40,40,63.32798621850088,63.99198366003111,"[38, 0, 216]",216,a,0.14077667985111475,colour,0.5
029,68,1,2,1,41,41,64.49985506455414,65.40799601725303,"[45, 0, 209]",209,a,0.38552553206682205,colour,0.5
029,68,1,2,1,42,42,65.92173100006767,66.7919713719748,"[3, 0, 251]",251,a,0.3467730628326535,colour,0.5
029,68,1,2,1,43,43,67.31235053529963,68.16005425620824,"[64, 0, 190]",190,l,0.32451367913745344,colour,0.5
029,68,1,2,1,44,44,68.67169831087813,69.2159689553082,"[6, 0, 248]",248,a,0.021196787478402257,colour,0.5
029,68,1,2,1,45,45,69.73479872895405,70.36795685323887,"[98, 0, 156]",156,l,0.11047929455526173,colour,0.5
029,68,1,2,1,46,46,70.87479204917327,71.5040054130368,"[99, 0, 155]",155,l,0.1057755930814892,colour,0.5
029,68,1,2,1,47,47,72.015475387685,72.62393779749982,"[29, 0, 225]",225,a,0.08516721124760807,colour,0.5
029,68,1,2,1,48,48,73.14042300614528,73.73605234036222,"[44, 0, 210]",210,a,0.0722912063356489,colour,0.5
029,68,1,2,1,49,49,74.24975187703967,74.87228128151037,"[60, 0, 194]",194,a,0.0995441626291722,colour,0.5
029,68,1,2,1,50,50,75.39041828014888,75.97595925093628,"[81, 0, 173]",173,l,0.062237895326688886,colour,0.5
029,68,1,2,2,1,51,80.76684439601377,82.16795204835944,"[58, 0, 196]",196,l,0.8769601711537689,colour,0.5
029,68,1,2,2,2,52,82.6738810047973,83.63997323415242,"[73, 0, 181]",181,l,0.4427670983131975,colour,0.5
029,68,1,2,2,3,53,84.15822720481083,84.77593554160558,"[85, 0, 169]",169,l,0.09431428276002407,colour,0.5
029,68,1,2,2,4,54,85.28333196789026,85.81597706861794,"[49, 0, 205]",205,a,0.009654344990849495,colour,0.5
029,68,1,2,2,5,55,86.33295812946744,87.05601434223354,"[13, 0, 241]",241,a,0.19982875580899417,colour,0.5
029,68,1,2,2,6,56,87.56722280336544,89.23993605514988,"[9, 0, 245]",245,a,1.1492672103922814,colour,0.5
029,68,1,2,2,7,57,89.7548013755586,90.29593306826428,"[45, 0, 209]",209,a,0.01784634031355381,colour,0.5
029,68,1,2,2,8,58,90.81727045867592,92.16794102080166,"[26, 0, 228]",228,a,0.819580758921802,colour,0.5
029,68,1,2,2,9,59,92.68438487569802,94.02392220124602,"[38, 0, 216]",216,a,0.8163768223021179,colour,0.5
029,68,1,2,2,10,60,94.54366530338302,96.31195472017862,"[32, 0, 222]",222,a,1.2449382920749485,colour,0.5
029,68,1,2,2,11,61,96.82496699574403,97.61594351287931,"[67, 0, 187]",187,a,0.26637571956962347,colour,0.5
029,68,1,2,2,12,62,98.12294648727402,98.72797022829764,"[17, 0, 237]",237,a,0.08158597024157643,colour,0.5
029,68,1,2,2,13,63,99.24794766888954,101.03995330561884,"[78, 0, 176]",176,l,1.268667115131393,colour,0.5
029,68,1,2,2,14,64,101.56044668424875,102.4879435885232,"[72, 0, 182]",182,l,0.4044710963498801,colour,0.5
029,68,1,2,2,15,65,102.99803037638776,103.70395350409672,"[28, 0, 226]",226,a,0.1825767292175442,colour,0.5
029,68,1,2,2,16,66,104.21682123793289,104.855941795744,"[5, 0, 249]",249,a,0.11584308231249452,colour,0.5
029,68,1,2,2,17,67,105.37295554578304,106.3600606364198,"[54, 0, 200]",200,l,0.4640918858349323,colour,0.5
029,68,1,2,2,18,68,106.87296814890578,107.83994692517444,"[18, 0, 236]",236,a,0.442388218594715,colour,0.5
029,68,1,2,2,19,69,108.35851360973902,109.09595622634515,"[23, 0, 231]",231,a,0.21412024274468422,colour,0.5
029,68,1,2,2,20,70,109.60850848956034,110.51990339742042,"[11, 0, 243]",243,a,0.3880666261538863,colour,0.5
029,68,1,2,2,21,71,111.03041553893127,111.75992137263529,"[66, 0, 188]",188,l,0.2063673858065158,colour,0.5
029,68,1,2,2,22,72,112.28044389584102,113.18390005128458,"[99, 0, 155]",155,l,0.3928869063965976,colour,0.5
029,68,1,2,2,23,73,113.70542648783885,114.30393877415918,"[39, 0, 215]",215,a,0.07516706944443285,colour,0.5
029,68,1,2,2,24,74,114.81493219546974,115.78397472435609,"[34, 0, 220]",220,a,0.4368527140468359,colour,0.5
029,68,1,2,2,25,75,116.29248927952722,117.02392141357996,"[79, 0, 175]",175,l,0.2082519386895001,colour,0.5
029,68,1,2,2,26,76,117.53103112010285,118.6079189023003,"[52, 0, 202]",202,l,0.5538060481194407,colour,0.5
029,68,1,2,2,27,77,119.12471840018407,119.75995760643855,"[22, 0, 232]",232,a,0.11186760175041854,colour,0.5
029,68,1,2,2,28,78,120.28094014176168,120.95198348676786,"[3, 0, 251]",251,a,0.14643506426364183,colour,0.5
029,68,1,2,2,29,79,121.46868452313356,122.30390254035592,"[42, 0, 212]",212,a,0.31210359395481646,colour,0.5
029,68,1,2,2,30,80,122.81216660933569,123.64807346323505,"[56, 0, 198]",198,a,0.3125825107563287,colour,0.5
029,68,1,2,2,31,81,124.17136078490876,125.06435836199671,"[64, 0, 190]",190,l,0.3696649633347988,colour,0.5
029,68,1,2,2,32,82,125.57763412012719,126.27991259773262,"[81, 0, 173]",173,l,0.1790498390328139,colour,0.5
029,68,1,2,2,33,83,126.79631116031669,127.80790637806058,"[89, 0, 165]",165,l,0.48844101605936885,colour,0.5
029,68,1,2,2,34,84,128.32746594795026,128.88026532600634,"[16, 0, 238]",238,a,0.029383268672972918,colour,0.5
029,68,1,2,2,35,85,129.39008469250984,130.04798933770508,"[94, 0, 160]",160,l,0.13454091735184193,colour,0.5
029,68,1,2,2,36,86,130.56189682497643,131.40811495878734,"[97, 0, 157]",157,l,0.3231064674910158,colour,0.5
029,68,1,2,2,37,87,131.92124972026795,132.64788205409423,"[4, 0, 250]",250,a,0.20203941292129457,colour,0.5
029,68,1,2,2,38,88,133.1568786764983,134.01595509215258,"[0, 0, 254]",254,a,0.3357634940184653,colour,0.5
029,68,1,2,2,39,89,134.5319042764604,135.45594636444002,"[50, 0, 204]",204,l,0.40075831091962755,colour,0.5
029,68,1,2,2,40,90,135.96944228257053,136.61592185148038,"[27, 0, 227]",227,a,0.12396969902329147,colour,0.5
029,68,1,2,2,41,91,137.12563842418604,137.89591282443143,"[59, 0, 195]",195,l,0.24692485108971596,colour,0.5
029,68,1,2,2,42,92,138.40688222111203,138.9363308683969,"[10, 0, 244]",244,a,0.006162113277241588,colour,0.5
029,68,1,2,2,43,93,139.46938793174922,140.02392023196444,"[88, 0, 166]",166,l,0.031051994068548083,colour,0.5
029,68,1,2,2,44,94,140.53186567965895,141.18389178044163,"[47, 0, 207]",207,a,0.12866591778583825,colour,0.5
029,68,1,2,2,45,95,141.70373570732772,142.40788810350932,"[71, 0, 183]",183,l,0.17944210930727422,colour,0.5
029,68,1,2,2,46,96,142.92432526312768,144.78392943227664,"[60, 0, 194]",194,a,1.3362187799066305,colour,0.5
029,68,1,2,2,47,97,145.2993386539165,146.06419137120247,"[20, 0, 234]",234,a,0.24182336474768817,colour,0.5
029,68,1,2,2,48,98,146.5805804815609,147.29588108044118,"[70, 0, 184]",184,l,0.1921873572282493,colour,0.5
029,68,1,2,2,49,99,147.8149172293488,148.6879101905506,"[92, 0, 162]",162,l,0.34968831040896475,colour,0.5
029,68,1,2,2,50,100,149.2055525186006,150.0479495592881,"[87, 0, 167]",167,l,0.3190041685011238,colour,0.5
029,68,1,2,3,1,101,155.0503701362759,160.07193123130128,"[7, 0, 247]",247,l,4.4976893060375005,colour,0.5
029,68,1,2,3,2,102,160.58237838814966,161.4639540396165,"[66, 0, 188]",188,l,0.35818080976605415,colour,0.5
029,68,1,2,3,3,103,161.9729750806,162.52788586658426,"[45, 0, 209]",209,a,0.03151318756863475,colour,0.5
029,68,1,2,3,4,104,163.0354650374502,163.6639249739237,"[27, 0, 227]",227,a,0.10512062720954418,colour,0.5
029,68,1,2,3,5,105,164.17609323747456,164.71995310066268,"[81, 0, 173]",173,l,0.02045872015878558,colour,0.5
029,68,1,2,3,6,106,165.23863754514605,165.89595496607944,"[79, 0, 175]",175,l,0.1341210778336972,colour,0.5
029,68,1,2,3,7,107,166.41048591118306,166.93629896687344,"[96, 0, 158]",158,l,0.0021905710455030203,colour,0.5
029,68,1,2,3,8,108,167.4576887388248,169.03188891639002,"[29, 0, 225]",225,a,1.0508313297759742,colour,0.5
029,68,1,2,3,9,109,169.55136814177968,170.1199398676399,"[19, 0, 235]",235,a,0.04519027494825423,colour,0.5
029,68,1,2,3,10,110,170.62951308023185,171.21595753380097,"[26, 0, 228]",228,a,0.06326583330519497,colour,0.5
029,68,1,2,3,11,111,171.72319642198272,173.49595835315995,"[86, 0, 168]",168,l,1.2493060436099768,colour,0.5
029,68,1,2,3,12,112,174.00455207098275,174.58393329195678,"[17, 0, 237]",237,a,0.056131708435714245,colour,0.5
029,68,1,2,3,13,113,175.09827676648274,176.27203252841718,"[50, 0, 204]",204,a,0.6505665078293532,colour,0.5
029,68,1,2,3,14,114,176.7860487170983,177.37590781482868,"[84, 0, 170]",170,l,0.06525081698782742,colour,0.5
029,68,1,2,3,15,115,177.89669894101098,178.57595554878935,"[30, 0, 224]",224,l,0.16536329919472337,colour,0.5
029,68,1,2,3,16,116,179.09022458666004,180.15990223153494,"[70, 0, 184]",184,l,0.5462946186307818,colour,0.5
029,68,1,2,3,17,117,180.6682872113306,181.27192894695327,"[88, 0, 166]",166,l,0.08027091878466308,colour,0.5
029,68,1,2,3,18,118,181.79335337737575,183.53599672950804,"[3, 0, 251]",251,a,1.2194017167203128,colour,0.5
029,68,1,2,3,19,119,184.04370862641372,185.063877082197,"[63, 0, 191]",191,a,0.4974289739038795,colour,0.5
029,68,1,2,3,20,120,185.5746188359335,186.1439195703715,"[58, 0, 196]",196,l,0.04596496978774667,colour,0.5
029,68,1,2,3,21,121,186.65276889433153,187.8958399631083,"[16, 0, 238]",238,a,0.7197380610741675,colour,0.5
029,68,1,2,3,22,122,188.4027574728243,189.0479007223621,"[13, 0, 241]",241,a,0.12172792805358768,colour,0.5
029,68,1,2,3,23,123,189.5589445559308,190.1601751667913,"[91, 0, 163]",163,l,0.07824536901898682,colour,0.5
029,68,1,2,3,24,124,190.6683537713252,191.3278542801272,"[6, 0, 248]",248,a,0.13620531023479998,colour,0.5
029,68,1,2,3,25,125,191.84018244501203,193.5919035517145,"[32, 0, 222]",222,a,1.2270202720537782,colour,0.5
029,68,1,2,3,26,126,194.10723912436515,194.7599036495667,"[93, 0, 161]",161,l,0.12971433578059077,colour,0.5
029,68,1,2,3,27,127,195.2790402288083,196.76795346615836,"[64, 0, 190]",190,l,0.9658196878153831,colour,0.5
029,68,1,2,3,28,128,197.2790000566747,198.2558773625642,"[43, 0, 211]",211,a,0.4534950675442815,colour,0.5
029,68,1,2,3,29,129,198.76346519822255,199.7041657869704,"[65, 0, 189]",189,l,0.41762161161750555,colour,0.5
029,68,1,2,3,30,130,200.21666881954297,200.87185671553016,"[52, 0, 202]",202,a,0.1319245989434421,colour,0.5
029,68,1,2,3,31,131,201.3885203364771,202.1439262656495,"[23, 0, 231]",231,a,0.23220485961064696,colour,0.5
029,68,1,2,3,32,132,202.65533795114607,203.30384937115014,"[72, 0, 182]",182,l,0.12530247354879975,colour,0.5
029,68,1,2,3,33,133,203.81148840673268,204.39213308528997,"[1, 0, 253]",253,a,0.05736720305867493,colour,0.5
029,68,1,2,3,34,134,204.90526390820742,205.54385277396068,"[83, 0, 171]",171,l,0.11532005481421947,colour,0.5
029,68,1,2,3,35,135,206.06144784064963,206.67186333215795,"[20, 0, 234]",234,a,0.08705727779306471,colour,0.5
029,68,1,2,3,36,136,207.18644902203232,208.14386443188414,"[14, 0, 240]",240,a,0.4339886666275561,colour,0.5
029,68,1,2,3,37,137,208.65525996964425,209.23185591213405,"[56, 0, 198]",198,l,0.053314922377467155,colour,0.5
029,68,1,2,3,38,138,209.7489909667056,210.48000326100737,"[22, 0, 232]",232,a,0.207724972628057,colour,0.5
029,68,1,2,3,39,139,210.99900750815868,211.63991021877155,"[33, 0, 221]",221,a,0.11763350595720112,colour,0.5
029,68,1,2,3,40,140,212.15781957446598,212.71985779004171,"[25, 0, 229]",229,a,0.039518105797469616,colour,0.5
029,68,1,2,3,41,141,213.23510474711657,214.07986565120518,"[55, 0, 199]",199,l,0.32138142245821655,colour,0.5
029,68,1,2,3,42,142,214.59454507636838,215.2718482085038,"[99, 0, 155]",155,l,0.15439390251412988,colour,0.5
029,68,1,2,3,43,143,215.78199289180338,217.35987749812193,"[59, 0, 195]",195,a,1.0546725091990083,colour,0.5
029,68,1,2,3,44,144,217.8758038394153,218.98384207719937,"[69, 0, 185]",185,l,0.5851187682710588,colour,0.5
029,68,1,2,3,45,145,219.5007234949153,220.4398573646322,"[87, 0, 167]",167,l,0.4160871880594641,colour,0.5
029,68,1,2,3,46,146,220.95382944261655,221.52789965108968,"[2, 0, 252]",252,a,0.05630460660904646,colour,0.5
029,68,1,2,3,47,147,222.03286722977646,222.77581975073554,"[68, 0, 186]",186,l,0.21976917469874024,colour,0.5
029,68,1,2,3,48,148,223.28286407887936,224.03185386420228,"[40, 0, 214]",214,l,0.2257150667719543,colour,0.5
029,68,1,2,3,49,149,224.54844029131345,225.7118765024934,"[15, 0, 239]",239,a,0.6401981203816831,colour,0.5
029,68,1,2,3,50,150,226.22020240523852,226.93583501619287,"[42, 0, 212]",212,a,0.1921637263149023,colour,0.5
029,68,1,2,4,1,151,231.7351295594126,234.21588309691288,"[52, 0, 202]",202,a,1.9566521362867206,colour,0.5
029,68,1,2,4,2,152,234.73591606970876,235.61587301455438,"[71, 0, 183]",183,l,0.3566125154029578,colour,0.5
029,68,1,2,4,3,153,236.12649740208872,236.89586871373467,"[3, 0, 251]",251,a,0.24599025468342006,colour,0.5
029,68,1,2,4,4,154,237.40892391838133,237.96788304648362,"[33, 0, 221]",221,a,0.035626908065751195,colour,0.5
029,68,1,2,4,5,155,238.48704168153927,239.03191333496943,"[32, 0, 222]",222,a,0.01881165662780404,colour,0.5
029,68,1,2,4,6,156,239.5523527567275,240.11983667989261,"[21, 0, 233]",233,a,0.04425567854195833,colour,0.5
029,68,1,2,4,7,157,240.63042759057134,241.16791423922405,"[13, 0, 241]",241,a,0.014498256146907806,colour,0.5
029,68,1,2,4,8,158,241.67709715059027,243.48794752708636,"[95, 0, 159]",159,l,1.288125860504806,colour,0.5
029,68,1,2,4,9,159,244.0052448459901,244.655944080092,"[45, 0, 209]",209,a,0.12580226408317685,colour,0.5
029,68,1,2,4,10,160,245.16154220607132,246.76786406314932,"[0, 0, 254]",254,a,1.0833058953285217,colour,0.5
029,68,1,2,4,11,161,247.28641381231137,247.8478994620964,"[56, 0, 198]",198,l,0.03762764553539455,colour,0.5
029,68,1,2,4,12,162,248.36460876907222,250.01593027985655,"[54, 0, 200]",200,l,1.1280144967604429,colour,0.5
029,68,1,2,4,13,163,250.53319609118626,251.52790949726477,"[94, 0, 160]",160,l,0.47180653968825936,colour,0.5
029,68,1,2,4,14,164,252.0487455218099,252.65592399402522,"[99, 0, 155]",155,l,0.07965927617624402,colour,0.5
029,68,1,2,4,15,165,253.16256738686934,253.79995502275415,"[29, 0, 225]",225,a,0.11460680002346635,colour,0.5
029,68,1,2,4,16,166,254.31874423008412,255.80016888095997,"[14, 0, 240]",240,a,0.9578151633031666,colour,0.5
029,68,1,2,4,17,167,256.31889231619425,256.9358763701748,"[96, 0, 158]",158,l,0.09395391377620399,colour,0.5
029,68,1,2,4,18,168,257.44392776233144,258.1918825204484,"[62, 0, 192]",192,a,0.2249923595227301,colour,0.5
029,68,1,2,4,19,169,258.7095228792168,260.1758502344601,"[12, 0, 242]",242,a,0.9433755902573466,colour,0.5
029,68,1,2,4,20,170,260.69383363309316,261.6238743881695,"[87, 0, 167]",167,l,0.406809359556064,colour,0.5
029,68,1,2,4,21,171,262.13134800852276,262.67187672294676,"[8, 0, 246]",246,a,0.017624604981392622,colour,0.5
029,68,1,2,4,22,172,263.1784141715616,264.42388927564025,"[75, 0, 179]",179,l,0.7223248409572989,colour,0.5
029,68,1,2,4,23,173,264.9437950362917,265.5038911977317,"[40, 0, 214]",214,a,0.03708728891797364,colour,0.5
029,68,1,2,4,24,174,266.02193091623485,266.6878889228683,"[70, 0, 184]",184,l,0.1431066724471748,colour,0.5
029,68,1,2,4,25,175,267.1952231214382,268.5358210741542,"[2, 0, 252]",252,a,0.8176839968655258,colour,0.5
029,68,1,2,4,26,176,269.0544235985726,270.3759015132673,"[51, 0, 203]",203,a,0.798443048261106,colour,0.5
029,68,1,2,4,27,177,270.88277136767283,271.5678301136941,"[89, 0, 165]",165,l,0.15408237045630813,colour,0.5
029,68,1,2,4,28,178,272.0778928769287,273.79982190276496,"[69, 0, 185]",185,l,1.198952448554337,colour,0.5
029,68,1,2,4,29,179,274.3121977231931,275.7038266856689,"[19, 0, 235]",235,a,0.8684046561829746,colour,0.5
029,68,1,2,4,30,180,276.2183036741335,276.9518850252498,"[77, 0, 177]",177,l,0.2100171558558941,colour,0.5
029,68,1,2,4,31,181,277.470663205022,278.3678772964049,"[72, 0, 182]",182,l,0.3737341791857034,colour,0.5
029,68,1,2,4,32,182,278.87694126646966,279.90381297981367,"[66, 0, 188]",188,l,0.5034394564572722,colour,0.5
029,68,1,2,4,33,183,280.42381483875215,281.1680536605418,"[93, 0, 161]",161,l,0.22082034940831363,colour,0.5
029,68,1,2,4,34,184,281.6893575740978,282.34391255979426,"[22, 0, 232]",232,a,0.13103962712921202,colour,0.5
029,68,1,2,4,35,185,282.8613244879525,284.3758601595182,"[23, 0, 231]",231,a,0.9914996235165745,colour,0.5
029,68,1,2,4,36,186,284.8925056634471,285.92787027033046,"[11, 0, 243]",243,a,0.5126341835130006,colour,0.5
029,68,1,2,4,37,187,286.4396005771123,288.03194799344055,"[38, 0, 216]",216,a,1.069591392762959,colour,0.5
029,68,1,2,4,38,188,288.550097594969,290.9122467963025,"[53, 0, 201]",201,l,1.8386429015081376,colour,0.5
029,68,1,2,4,39,189,291.4249688072596,292.1918435296975,"[64, 0, 190]",190,l,0.24403992970474064,colour,0.5
029,68,1,2,4,40,190,292.7062019703444,293.2958838373888,"[90, 0, 164]",164,l,0.0660940408706665,colour,0.5
029,68,1,2,4,41,191,293.8155135118868,294.4639036273584,"[17, 0, 237]",237,a,0.1252000737003982,colour,0.5
029,68,1,2,4,42,192,294.97190066892654,295.6558617663104,"[49, 0, 205]",205,a,0.1609396217390895,colour,0.5
029,68,1,2,4,43,193,296.17487940425053,297.5120501096826,"[37, 0, 217]",217,a,0.814295346615836,colour,0.5
029,68,1,2,4,44,194,298.0199475081172,299.0718445852399,"[41, 0, 213]",213,a,0.5284207095392048,colour,0.5
029,68,1,2,4,45,195,299.5825300188735,300.9518141329754,"[15, 0, 239]",239,a,0.8460869831033051,colour,0.5
029,68,1,2,4,46,196,301.47308653895743,302.119803203037,"[86, 0, 168]",168,l,0.12376489932648838,colour,0.5
029,68,1,2,4,47,197,302.6293409697246,304.42386564495973,"[76, 0, 178]",178,l,1.2713744121138006,colour,0.5
029,68,1,2,4,48,198,304.9416166744195,306.0239501642063,"[31, 0, 223]",223,a,0.5588161621708423,colour,0.5
029,68,1,2,4,49,199,306.53565132664517,308.7918366766535,"[50, 0, 204]",204,a,1.7329511977732182,colour,0.5
029,68,1,2,4,50,200,309.30117870192043,310.0401608622633,"[28, 0, 226]",226,a,0.21574210026301444,colour,0.5
029,68,1,2,5,1,201,315.0035387056414,316.4881070347037,"[93, 0, 161]",161,l,0.9605409710202366,colour,0.4
029,68,1,2,5,2,202,316.99798114574514,318.24006799352355,"[61, 0, 193]",193,a,0.718796769157052,colour,0.4
029,68,1,2,5,3,203,318.74797366256826,319.5117952914443,"[22, 0, 232]",232,a,0.24057251028716564,colour,0.4
029,68,1,2,5,4,204,320.0291898904834,320.58382183359936,"[51, 0, 203]",203,a,0.03141512000001967,colour,0.4
029,68,1,2,5,5,205,321.0917243519798,321.70386488875374,"[34, 0, 220]",220,a,0.08887527068145573,colour,0.4
029,68,1,2,5,6,206,322.2166432195809,322.7918083197437,"[23, 0, 231]",231,a,0.05172496638260782,colour,0.4
029,68,1,2,5,7,207,323.3103399518877,325.09579986939207,"[6, 0, 248]",248,a,1.2620627128053457,colour,0.4
029,68,1,2,5,8,208,325.60725802881643,326.62380270822905,"[55, 0, 199]",199,a,0.4931864654645324,colour,0.4
029,68,1,2,5,9,209,327.1385073396377,327.8318144008517,"[62, 0, 192]",192,a,0.16987401666119695,colour,0.4
029,68,1,2,5,10,210,328.34166173031554,329.8318289730232,"[50, 0, 204]",204,a,0.9669685363769531,colour,0.4
029,68,1,2,5,11,211,330.34154397039674,331.0321665778756,"[17, 0, 237]",237,a,0.1671742028556764,colour,0.4
029,68,1,2,5,12,212,331.5446574012749,333.2557792949956,"[70, 0, 184]",184,l,1.1880464612040669,colour,0.4
029,68,1,2,5,13,213,333.76479560974985,334.76779198949225,"[43, 0, 211]",211,a,0.4796787321101874,colour,0.4
029,68,1,2,5,14,214,335.2803824557923,336.06383336521685,"[63, 0, 191]",191,l,0.26034633233211935,colour,0.4
029,68,1,2,5,15,215,336.5772962004412,337.1997980356682,"[94, 0, 160]",160,l,0.09912904910743237,colour,0.4
029,68,1,2,5,16,216,337.71798308356665,338.30381825729273,"[54, 0, 200]",200,a,0.06254627672024071,colour,0.4
029,68,1,2,5,17,217,338.8117156557273,339.3917861068621,"[96, 0, 158]",158,l,0.05683354171924293,colour,0.4
029,68,1,2,5,18,218,339.9054958834313,340.50386402220465,"[58, 0, 196]",196,a,0.07515249704010785,colour,0.4
029,68,1,2,5,19,219,341.01483932649717,341.59979740553536,"[86, 0, 168]",168,l,0.06161995115689933,colour,0.4
029,68,1,2,5,20,220,342.10855102492496,342.70379399647936,"[53, 0, 201]",201,a,0.0719670713879168,colour,0.4
029,68,1,2,5,21,221,343.21790352649987,344.1119554291945,"[76, 0, 178]",178,l,0.3706338240299374,colour,0.4
029,68,1,2,5,22,222,344.62416701577604,345.4878175579943,"[91, 0, 163]",163,l,0.3403951220680028,colour,0.4
029,68,1,2,5,23,223,345.9991717420053,346.6637737369165,"[75, 0, 179]",179,l,0.14136823639273643,colour,0.4
029,68,1,2,5,24,224,347.17277193488553,347.8801160585135,"[69, 0, 185]",185,l,0.1843848756980151,colour,0.4
029,68,1,2,5,25,225,348.391647079261,349.9518141329754,"[15, 0, 239]",239,a,1.0370278181508183,colour,0.4
029,68,1,2,5,26,226,350.46966913784854,351.95976430666633,"[24, 0, 230]",230,a,0.9667192318011075,colour,0.4
029,68,1,2,5,27,227,352.4697242763359,353.47981972876005,"[56, 0, 198]",198,a,0.4867427523713559,colour,0.4
029,68,1,2,5,28,228,354.00099327927455,355.14376124413684,"[42, 0, 212]",212,a,0.6193865139503032,colour,0.4
029,68,1,2,5,29,229,355.6572276239749,356.20777853555046,"[95, 0, 159]",159,l,0.027360082138329744,colour,0.4
029,68,1,2,5,30,230,356.7196344793774,357.49576497473754,"[39, 0, 215]",215,a,0.25275889062322676,colour,0.4
029,68,1,2,5,31,231,358.0164804824162,358.6717660522554,"[81, 0, 173]",173,l,0.13189663598313928,colour,0.4
029,68,1,2,5,32,232,359.18842415930703,360.80777837801725,"[60, 0, 194]",194,a,1.0959593770094216,colour,0.4
029,68,1,2,5,33,233,361.32904842100106,363.3517630905844,"[11, 0, 243]",243,a,1.4994438895955682,colour,0.4
029,68,1,2,5,34,234,363.86159348487854,364.8077890118584,"[7, 0, 247]",247,a,0.42293065460398793,colour,0.4
029,68,1,2,5,35,235,365.3145241709426,365.8477982436307,"[32, 0, 222]",222,a,0.00968979112803936,colour,0.4
029,68,1,2,5,36,236,366.36162262945436,366.9837865449954,"[28, 0, 226]",226,a,0.09926413837820292,colour,0.4
029,68,1,2,5,37,237,367.50228470005095,368.2557529073674,"[64, 0, 190]",190,l,0.2308114329352975,colour,0.4
029,68,1,2,5,38,238,368.7678550048731,369.3837768563535,"[77, 0, 177]",177,l,0.0926156253553927,colour,0.4
029,68,1,2,5,39,239,369.8928447647486,370.9198275427334,"[40, 0, 214]",214,a,0.5035832102876157,colour,0.4
029,68,1,2,5,40,240,371.43972345697694,372.343811735278,"[44, 0, 210]",210,a,0.38121685781516135,colour,0.4
029,68,1,2,5,41,241,372.86278959480114,373.7277796068229,"[27, 0, 227]",227,a,0.3418251764960587,colour,0.4
029,68,1,2,5,42,242,374.23784630862065,375.0957967187278,"[90, 0, 164]",164,l,0.33464615303091705,colour,0.4
029,68,1,2,5,43,243,375.61282307165675,376.3357930323109,"[82, 0, 172]",172,l,0.19982048496603966,colour,0.4
029,68,1,2,5,44,244,376.84714879165404,378.26375546259806,"[73, 0, 181]",181,l,0.8935469922143966,colour,0.4
029,68,1,2,5,45,245,378.7846738009248,380.0319897411391,"[45, 0, 209]",209,a,0.7239364585839212,colour,0.4
029,68,1,2,5,46,246,380.5502720687073,381.29580624983646,"[8, 0, 246]",246,a,0.22225079801864922,colour,0.4
029,68,1,2,5,47,247,381.8158242565114,382.5997812577989,"[85, 0, 169]",169,l,0.2606460489332676,colour,0.4
029,68,1,2,5,48,248,383.1127911701333,384.3117979695089,"[66, 0, 188]",188,a,0.6758411759510636,colour,0.4
029,68,1,2,5,49,249,384.83146899798885,386.1757836744655,"[97, 0, 157]",157,l,0.8210159332957119,colour,0.4
029,68,1,2,5,50,250,386.690777388867,387.64779777103104,"[41, 0, 213]",213,a,0.43220139387995005,colour,0.4
029,68,1,2,6,1,251,392.9575075695757,394.71175953024067,"[84, 0, 170]",170,l,1.2301836425904185,colour,0.28
029,68,1,2,6,2,252,395.2240455537103,396.3037820234895,"[51, 0, 203]",203,a,0.5564625388942659,colour,0.28
029,68,1,2,6,3,253,396.8176560339052,399.04774791025557,"[46, 0, 208]",208,l,1.7071145116351545,colour,0.28
029,68,1,2,6,4,254,399.5676993569359,400.407786491327,"[94, 0, 160]",160,l,0.31682659429498017,colour,0.28
029,68,1,2,6,5,255,400.92707233829424,402.431757529499,"[73, 0, 181]",181,l,0.9813982632476836,colour,0.28
029,68,1,2,6,6,256,402.94396714679897,403.5677907289937,"[93, 0, 161]",161,l,0.1004578850697726,colour,0.28
029,68,1,2,6,7,257,404.0845748668071,404.68773926142603,"[61, 0, 193]",193,a,0.08056394010782242,colour,0.28
029,68,1,2,6,8,258,405.1939403654542,406.38382175471634,"[81, 0, 173]",173,l,0.6665412923321128,colour,0.28
029,68,1,2,6,9,259,406.8971026330255,408.12773722899146,"[34, 0, 220]",220,a,0.7121868529357016,colour,0.28
029,68,1,2,6,10,260,408.64215868525207,409.35176899819635,"[92, 0, 162]",162,l,0.1863478037994355,colour,0.28
029,68,1,2,6,11,261,409.86090582981706,411.359773916658,"[99, 0, 155]",155,l,0.9755795837845653,colour,0.28
029,68,1,2,6,12,262,411.87012930749916,412.7837746506557,"[49, 0, 205]",205,a,0.39838893385604024,colour,0.28
029,68,1,2,6,13,263,413.29959071520716,414.62376804999076,"[17, 0, 237]",237,a,0.8009636623319238,colour,0.28
029,68,1,2,6,14,264,415.14326775539666,416.03177470108494,"[71, 0, 183]",183,l,0.365069568855688,colour,0.28
029,68,1,2,6,15,265,416.54957259842195,417.3840832684655,"[89, 0, 165]",165,l,0.31137222237885,colour,0.28
029,68,1,2,6,16,266,417.8932657861151,418.53575372649357,"[32, 0, 222]",222,a,0.1191450865007937,colour,0.28
029,68,1,2,6,17,267,419.0495347890537,420.1277139922604,"[98, 0, 156]",156,l,0.5549103922676295,colour,0.28
029,68,1,2,6,18,268,420.6463090335019,421.455752592301,"[19, 0, 235]",235,a,0.2862787232734263,colour,0.28
029,68,1,2,6,19,269,421.97443034127355,422.6077511240728,"[36, 0, 218]",218,a,0.10993618122301996,colour,0.28
029,68,1,2,6,20,270,423.11508138431236,424.0877524157986,"[87, 0, 167]",167,l,0.4493813468143344,colour,0.28
029,68,1,2,6,21,271,424.59942837199196,425.54381693410687,"[11, 0, 243]",243,a,0.42118394817225635,colour,0.28
029,68,1,2,6,22,272,426.0526134825777,427.231757450616,"[50, 0, 204]",204,a,0.6558787017129362,colour,0.28
029,68,1,2,6,23,273,427.74129954958335,428.35975658730604,"[22, 0, 232]",232,a,0.09515986987389624,colour,0.28
029,68,1,2,6,24,274,428.8663499620743,430.29571842215955,"[0, 0, 254]",254,a,0.9061323385685682,colour,0.28
029,68,1,2,6,25,275,430.8036977404263,431.35175678902306,"[91, 0, 163]",163,l,0.024737462401390076,colour,0.28
029,68,1,2,6,26,276,431.86629718658514,432.42374473414384,"[57, 0, 197]",197,a,0.0342575057875365,colour,0.28
029,68,1,2,6,27,277,432.94439250044525,433.56777418754064,"[52, 0, 202]",202,a,0.10006915940903127,colour,0.28
029,68,1,2,6,28,278,434.0850171558559,434.67173336306587,"[37, 0, 217]",217,a,0.06336350715719163,colour,0.28
029,68,1,2,6,29,279,435.1787024666555,436.5517257540487,"[68, 0, 186]",186,l,0.8495890612248331,colour,0.28
029,68,1,2,6,30,280,437.06932909134775,437.7997447089292,"[65, 0, 189]",189,l,0.20584514597430825,colour,0.28
029,68,1,2,6,31,281,438.3205059028696,438.8717803095933,"[74, 0, 180]",180,l,0.027909497497603297,colour,0.28
029,68,1,2,6,32,282,439.38303366908804,440.10373507719487,"[53, 0, 201]",201,a,0.19730302202515304,colour,0.28
029,68,1,2,6,33,283,440.6118179769255,441.59170269034803,"[96, 0, 158]",158,l,0.45659069647081196,colour,0.28
029,68,1,2,6,34,284,442.1118179769255,442.95974343293346,"[88, 0, 166]",166,l,0.3185221010353416,colour,0.28
029,68,1,2,6,35,285,443.4776008008048,444.52775944187306,"[66, 0, 188]",188,l,0.5272608329541981,colour,0.28
029,68,1,2,6,36,286,445.0400486162398,445.9917457771953,"[56, 0, 198]",198,l,0.42836612230166793,colour,0.28
029,68,1,2,6,37,287,446.5087933978066,447.6237597791478,"[63, 0, 191]",191,a,0.5916660628281534,colour,0.28
029,68,1,2,6,38,288,448.13391982228495,449.3518402844202,"[79, 0, 175]",175,a,0.6946295958478004,colour,0.28
029,68,1,2,6,39,289,449.86823215172626,451.55969995236956,"[82, 0, 172]",172,l,1.1683104482945055,colour,0.28
029,68,1,2,6,40,290,452.0713337669149,452.85573660209775,"[85, 0, 169]",169,l,0.25989774195477366,colour,0.28
029,68,1,2,6,41,291,453.36939124017954,453.9997258831281,"[60, 0, 194]",194,a,0.10738917952403426,colour,0.28
029,68,1,2,6,42,292,454.51000762474723,455.62373693613335,"[18, 0, 236]",236,a,0.5904297805391252,colour,0.28
029,68,1,2,6,43,293,456.1349824187346,457.1997940973379,"[27, 0, 227]",227,a,0.5414227447472513,colour,0.28
029,68,1,2,6,44,294,457.71315413853154,458.94373595924117,"[72, 0, 182]",182,l,0.707476849667728,colour,0.28
029,68,1,2,6,45,295,459.46309821261093,460.3757628793828,"[70, 0, 184]",184,l,0.3895344897173345,colour,0.28
029,68,1,2,6,46,296,460.88499305257574,461.79170395061374,"[54, 0, 200]",200,a,0.38344129966571927,colour,0.28
029,68,1,2,6,47,297,462.30687686474994,463.2557359719649,"[33, 0, 221]",221,a,0.4255883269943297,colour,0.28
029,68,1,2,6,48,298,463.77571065560915,465.5996989440173,"[90, 0, 164]",164,l,1.3011546772904694,colour,0.28
029,68,1,2,6,49,299,466.1193908462301,467.039728813339,"[55, 0, 199]",199,a,0.3971116915345192,colour,0.28
029,68,1,2,6,50,300,467.55807967018336,468.3997268283274,"[80, 0, 174]",174,l,0.31840237183496356,colour,0.28
029,68,1,2,7,1,301,474.51035539084114,476.2077419080306,"[58, 0, 196]",196,a,1.1732847222592682,colour,0.14
029,68,1,2,7,2,302,476.71434237179346,477.279716856312,"[83, 0, 171]",171,l,0.042333710473030806,colour,0.14
029,68,1,2,7,3,303,477.79233843646944,478.37570183328353,"[32, 0, 222]",222,a,0.06008001370355487,colour,0.14
029,68,1,2,7,4,304,478.88607258419506,479.8156974380836,"[29, 0, 225]",225,a,0.40625009848736227,colour,0.14
029,68,1,2,7,5,305,480.3235396980308,481.07971953437664,"[85, 0, 169]",169,l,0.2327719978056848,colour,0.14
029,68,1,2,7,6,306,481.5891927103512,482.56771904905327,"[67, 0, 187]",187,a,0.45522602018900216,colour,0.14
029,68,1,2,7,7,307,483.07495714956895,484.0237520597875,"[79, 0, 175]",175,a,0.4255461855791509,colour,0.14
029,68,1,2,7,8,308,484.54369681095704,485.44768111384474,"[7, 0, 247]",247,a,0.38082340569235384,colour,0.14
029,68,1,2,7,9,309,485.965359675698,486.84768481599167,"[71, 0, 183]",183,l,0.35874007106758654,colour,0.14
029,68,1,2,7,10,310,487.35623481706716,488.08775753574446,"[59, 0, 195]",195,l,0.20853275060653687,colour,0.14
029,68,1,2,7,11,311,488.60617219563574,489.62387478211895,"[63, 0, 191]",191,l,0.4944853694178164,colour,0.14
029,68,1,2,7,12,312,490.13739157421514,490.82371456571855,"[56, 0, 198]",198,a,0.163035276113078,colour,0.14
029,68,1,2,7,13,313,491.3405944078695,492.5036808839068,"[89, 0, 165]",165,l,0.6397605573292822,colour,0.14
029,68,1,2,7,14,314,493.0136806317605,495.0637451438233,"[46, 0, 208]",208,a,1.5268693503458053,colour,0.14
029,68,1,2,7,15,315,495.57626432413235,496.3917124576401,"[86, 0, 168]",168,l,0.2922037411481142,colour,0.14
029,68,1,2,7,16,316,496.90449512097985,497.4477539754007,"[50, 0, 204]",204,a,0.020220049656927586,colour,0.14
029,68,1,2,7,17,317,497.96691064094193,498.66371859866194,"[90, 0, 164]",164,l,0.1735151221510023,colour,0.14
029,68,1,2,7,18,318,499.1699197026901,499.9357318286784,"[13, 0, 241]",241,a,0.24233615212142467,colour,0.14
029,68,1,2,7,19,319,500.45129780098796,501.8156899549067,"[80, 0, 174]",174,l,0.8411264938767999,colour,0.14
029,68,1,2,7,20,320,502.32622887799516,503.2157586417161,"[78, 0, 176]",176,l,0.3661522513721138,colour,0.14
029,68,1,2,7,21,321,503.73244589334354,504.42366793425754,"[96, 0, 158]",158,l,0.16790911927819252,colour,0.14
029,68,1,2,7,22,322,504.93569913948886,506.10376973543316,"[74, 0, 180]",180,a,0.6448309298139066,colour,0.14
029,68,1,2,7,23,323,506.61275729956105,507.71969591942616,"[97, 0, 157]",157,a,0.5837919013574719,colour,0.14
029,68,1,2,7,24,324,508.2340015848167,509.2476963950321,"[65, 0, 189]",189,a,0.49072807910852134,colour,0.14
029,68,1,2,7,25,325,509.7653005202301,511.37601454695687,"[87, 0, 167]",167,l,1.0874526989646256,colour,0.14
029,68,1,2,7,26,326,511.8901729141362,513.2956707668491,"[77, 0, 177]",177,a,0.8821636636275798,colour,0.14
029,68,1,2,7,27,327,513.8121059571858,514.3917463284452,"[55, 0, 199]",199,a,0.05645584361627698,colour,0.14
029,68,1,2,7,28,328,514.9058452248573,516.3197835895699,"[69, 0, 185]",185,a,0.8906486800406128,colour,0.14
029,68,1,2,7,29,329,516.8277058000676,518.3597561935894,"[95, 0, 159]",159,l,1.008745742496103,colour,0.14
029,68,1,2,7,30,330,518.8751984983683,519.3997272222769,"[81, 0, 173]",173,l,0.0018420175183564425,colour,0.14
029,68,1,2,7,31,331,519.9214257693384,521.1036775757093,"[75, 0, 179]",179,a,0.6590015061665326,colour,0.14
029,68,1,2,7,32,332,521.6245352616534,522.3357402570546,"[51, 0, 203]",203,a,0.18789089214988053,colour,0.14
029,68,1,2,7,33,333,522.8455895558,523.4556690969039,"[53, 0, 201]",201,a,0.08680600416846573,colour,0.14
029,68,1,2,7,34,334,523.9704647066537,525.27169657778,"[64, 0, 190]",190,a,0.7788236136548221,colour,0.14
029,68,1,2,7,35,335,525.7830074389931,526.3357268662658,"[57, 0, 197]",197,a,0.029501422541216016,colour,0.14
029,68,1,2,7,36,336,526.8454717958812,527.9676770651713,"[99, 0, 155]",155,l,0.5988789568655193,colour,0.14
029,68,1,2,7,37,337,528.4861271711998,529.911683202954,"[93, 0, 161]",161,l,0.9022064823657274,colour,0.14
029,68,1,2,7,38,338,530.4235419034958,531.0796525806654,"[68, 0, 186]",186,a,0.1327642786782235,colour,0.14
029,68,1,2,7,39,339,531.5954883373342,532.1596639547497,"[9, 0, 245]",245,l,0.04088672040961683,colour,0.14
029,68,1,2,7,40,340,532.674837656552,533.8476765453815,"[60, 0, 194]",194,a,0.6495834686793387,colour,0.14
029,68,1,2,7,41,341,534.3623992935754,535.1196889877319,"[54, 0, 200]",200,a,0.2340378186199814,colour,0.14
029,68,1,2,7,42,342,535.6279829889536,536.2956731298473,"[98, 0, 156]",156,l,0.14434846863150597,colour,0.14
029,68,1,2,7,43,343,536.8154599489644,537.3677252719644,"[52, 0, 202]",202,a,0.02896776143461466,colour,0.14
029,68,1,2,7,44,344,537.8783276041504,539.9437009070534,"[72, 0, 182]",182,a,1.542403027182445,colour,0.14
029,68,1,2,7,45,345,540.456123595126,541.2316853769589,"[38, 0, 216]",216,a,0.25229257717728615,colour,0.14
029,68,1,2,7,46,346,541.7531361950096,542.5357537264936,"[66, 0, 188]",188,a,0.25990522489883006,colour,0.14
029,68,1,2,7,47,347,543.0498541982379,543.6716979169287,"[62, 0, 192]",192,a,0.0986131108365953,colour,0.14
029,68,1,2,7,48,348,544.1904855489265,544.7202142206952,"[91, 0, 163]",163,l,0.006402359344065189,colour,0.14
029,68,1,2,7,49,349,545.2530838134699,546.5839029657654,"[94, 0, 160]",160,l,0.8077129998710006,colour,0.14
029,68,1,2,7,50,350,547.0967013828922,547.9837152587716,"[73, 0, 181]",181,a,0.36232800758443773,colour,0.14
029,68,1,2,8,1,351,552.8630534715485,556.5117243991699,"[55, 0, 199]",199,l,3.125042535364628,colour,0.06
029,68,1,2,8,2,352,557.0200207633898,558.9516762869898,"[83, 0, 171]",171,l,1.4085288909263909,colour,0.06
029,68,1,2,8,3,353,559.4732117818203,560.2636940225493,"[70, 0, 184]",184,a,0.267510783392936,colour,0.06
029,68,1,2,8,4,354,560.7700038282201,561.5117188852746,"[50, 0, 204]",204,a,0.21839859103783965,colour,0.06
029,68,1,2,8,5,355,562.0199238774367,563.4396631985437,"[65, 0, 189]",189,a,0.8952216249890625,colour,0.06
029,68,1,2,8,6,356,563.958678079769,564.5756589828525,"[90, 0, 164]",164,l,0.0939696675632149,colour,0.06
029,68,1,2,8,7,357,565.0837694520596,566.5596794723533,"[76, 0, 178]",178,a,0.9526388463564217,colour,0.06
029,68,1,2,8,8,358,567.0681251042988,567.9196428288706,"[3, 0, 251]",251,a,0.32822725223377347,colour,0.06
029,68,1,2,8,9,359,568.4274665780831,569.1997141465545,"[91, 0, 163]",163,l,0.2490338960196823,colour,0.06
029,68,1,2,8,10,360,569.7087182519026,570.4156701050233,"[58, 0, 196]",196,a,0.18395046354271472,colour,0.06
029,68,1,2,8,11,361,570.9274220736697,571.543674361892,"[67, 0, 187]",187,a,0.09288147138431668,colour,0.06
029,68,1,2,8,12,362,572.0525437719189,572.6956854965538,"[92, 0, 162]",162,l,0.11871343129314482,colour,0.06
029,68,1,2,8,13,363,573.2099549281411,573.7836765830871,"[56, 0, 198]",198,a,0.05074665299616754,colour,0.06
029,68,1,2,8,14,364,574.3035717098974,574.9437166608404,"[27, 0, 227]",227,a,0.1167371126357466,colour,0.06
029,68,1,2,8,15,365,575.4502879800275,576.0396760380827,"[61, 0, 193]",193,a,0.06604205328039825,colour,0.06
029,68,1,2,8,16,366,576.559683016967,577.2076410835143,"[98, 0, 156]",156,l,0.12468531727790833,colour,0.06
029,68,1,2,8,17,367,577.7158764016349,579.6796358814463,"[77, 0, 177]",177,l,1.4402929584030062,colour,0.06
029,68,1,2,8,18,368,580.2001461954787,580.7916436921805,"[59, 0, 195]",195,a,0.06802585511468351,colour,0.06
029,68,1,2,8,19,369,581.309716100106,582.3436167815235,"[73, 0, 181]",181,a,0.5106255691498518,colour,0.06
029,68,1,2,8,20,370,582.8565168108325,583.7276815392543,"[89, 0, 165]",165,l,0.3478829206433147,colour,0.06
029,68,1,2,8,21,371,584.2471517061349,584.9436579777393,"[99, 0, 155]",155,l,0.1733567959163338,colour,0.06
029,68,1,2,8,22,372,585.4502974322531,586.1357425411697,"[84, 0, 170]",170,l,0.16152566438540816,colour,0.06
029,68,1,2,8,23,373,586.6539898165502,587.2476625244599,"[97, 0, 157]",157,l,0.07026486936956644,colour,0.06
029,68,1,2,8,24,374,587.7633817028254,588.3116223143879,"[68, 0, 186]",186,a,0.025021031498908997,colour,0.06
029,68,1,2,8,25,375,588.8258433027659,589.3917329376563,"[53, 0, 201]",201,a,0.042547174729406834,colour,0.06
029,68,1,2,8,26,376,589.9040020259563,591.1516137442086,"[41, 0, 213]",213,a,0.7242054552771151,colour,0.06
029,68,1,2,8,27,377,591.6696707920637,592.9357361609582,"[82, 0, 172]",172,l,0.7410533961374313,colour,0.06
029,68,1,2,8,28,378,593.4526947725099,594.3516484813299,"[74, 0, 180]",180,l,0.37572782719507813,colour,0.06
029,68,1,2,8,29,379,594.8589681079611,595.519685994368,"[79, 0, 175]",175,l,0.13745774026028812,colour,0.06
029,68,1,2,8,30,380,596.0308219878934,596.6156674269587,"[85, 0, 169]",169,l,0.061859803507104516,colour,0.06
029,68,1,2,8,31,381,597.1246037909295,597.6876888489351,"[57, 0, 197]",197,a,0.040138413198292255,colour,0.06
029,68,1,2,8,32,382,598.2027388832066,598.791635815287,"[60, 0, 194]",194,a,0.06563087808899581,colour,0.06
029,68,1,2,8,33,383,599.3120488494169,599.8716251342557,"[71, 0, 183]",183,a,0.036311412462964654,colour,0.06
029,68,1,2,8,34,384,600.3901922125369,601.6396888773888,"[52, 0, 202]",202,a,0.726290081627667,colour,0.06
029,68,1,2,8,35,385,602.1465106825344,602.6716904339846,"[66, 0, 188]",188,a,0.006906482158228755,colour,0.06
029,68,1,2,8,36,386,603.1901878013741,603.7836498015095,"[96, 0, 158]",158,l,0.070074247661978,colour,0.06
029,68,1,2,8,37,387,604.2995607829653,605.7756437016651,"[86, 0, 168]",168,l,0.9527790555730462,colour,0.06
029,68,1,2,8,38,388,606.2841771612875,607.0556709086522,"[64, 0, 190]",190,a,0.2484147702343762,colour,0.06
029,68,1,2,8,39,389,607.5636687376536,608.2796235147398,"[94, 0, 160]",160,l,0.19273598468862474,colour,0.06
029,68,1,2,8,40,390,608.7981929560192,609.4557206907775,"[87, 0, 167]",167,l,0.134279009886086,colour,0.06
029,68,1,2,8,41,391,609.9699842145201,611.3276230925694,"[80, 0, 174]",174,l,0.834266091696918,colour,0.06
029,68,1,2,8,42,392,611.8449487683829,612.3836299518589,"[51, 0, 203]",203,a,0.015330452704802155,colour,0.06
029,68,1,2,8,43,393,612.891840063734,613.8396286978386,"[78, 0, 176]",176,a,0.42443199548870325,colour,0.06
029,68,1,2,8,44,394,614.3606112329289,615.1916277022101,"[81, 0, 173]",173,a,0.3077334798872471,colour,0.06
029,68,1,2,8,45,395,615.7043221439235,616.3195984819904,"[93, 0, 161]",161,a,0.09196932427585125,colour,0.06
029,68,1,2,8,46,396,616.829337503761,617.399655936053,"[95, 0, 159]",159,a,0.04712327057495713,colour,0.06
029,68,1,2,8,47,397,617.9079361527693,618.4876627763733,"[63, 0, 191]",191,l,0.056792187970131636,colour,0.06
029,68,1,2,8,48,398,619.0016541527584,620.4956176762935,"[72, 0, 182]",182,a,0.9706494202837348,colour,0.06
029,68,1,2,8,49,399,621.0017230757512,622.3596348890569,"[69, 0, 185]",185,a,0.8346363070886582,colour,0.06
029,68,1,2,8,50,400,622.8766061034985,623.4316476464737,"[62, 0, 192]",192,a,0.03170302137732506,colour,0.06
029,68,1,2,9,1,401,628.1114394909237,630.4876320564654,"[58, 0, 196]",196,a,1.8520947089418769,colour,0.06
029,68,1,2,9,2,402,631.0030692412984,632.0796640021726,"[79, 0, 175]",175,l,0.5534287439659238,colour,0.06
029,68,1,2,9,3,403,632.596593075199,633.1276198630221,"[89, 0, 165]",165,l,0.007875343086197972,colour,0.06
029,68,1,2,9,4,404,633.6434245060664,634.1836755590048,"[98, 0, 156]",156,l,0.016893232939764857,colour,0.06
029,68,1,2,9,5,405,634.6903417950962,635.2476136875339,"[57, 0, 197]",197,a,0.03397433063946664,colour,0.06
029,68,1,2,9,6,406,635.7684816136025,637.039614598034,"[56, 0, 198]",198,a,0.7478035213425756,colour,0.06
029,68,1,2,9,7,407,637.5498293859418,638.5115924607962,"[92, 0, 162]",162,l,0.4384355810470879,colour,0.06
029,68,1,2,9,8,408,639.0286558351945,639.7436157574411,"[85, 0, 169]",169,l,0.19180256966501474,colour,0.06
029,68,1,2,9,9,409,640.2629027862567,640.7995863829274,"[53, 0, 201]",201,a,0.013471499783918262,colour,0.06
029,68,1,2,9,10,410,641.3097822661512,642.5756006937008,"[78, 0, 176]",176,l,0.7425200783181936,colour,0.06
029,68,1,2,9,11,411,643.0908744323533,643.9036511091981,"[68, 0, 186]",186,a,0.28931369981728494,colour,0.06
029,68,1,2,9,12,412,644.4191792723723,645.0236189397983,"[60, 0, 194]",194,a,0.08115155808627605,colour,0.06
029,68,1,2,9,13,413,645.5441351614427,646.1036137726624,"[66, 0, 188]",188,a,0.03652251395396888,colour,0.06
029,68,1,2,9,14,414,646.6223316937685,648.3356429769192,"[71, 0, 183]",183,a,1.1899904846213758,colour,0.06
029,68,1,2,9,15,415,648.8421989362687,650.2156156755518,"[83, 0, 171]",171,l,0.8504007775336504,colour,0.06
029,68,1,2,9,16,416,650.732875973219,651.4955936516635,"[81, 0, 173]",173,l,0.23941814759746194,colour,0.06
029,68,1,2,9,17,417,652.0140650253743,652.6075825579464,"[95, 0, 159]",159,l,0.07049408764578402,colour,0.06
029,68,1,2,9,18,418,653.1234447024763,654.351587041514,"[61, 0, 193]",193,a,0.7047419836744666,colour,0.06
029,68,1,2,9,19,419,654.8578220161144,655.4796212303918,"[82, 0, 172]",172,l,0.09847250790335238,colour,0.06
029,68,1,2,9,20,420,655.9984777853824,656.7116130194627,"[67, 0, 187]",187,a,0.18114864360541105,colour,0.06
029,68,1,2,9,21,421,657.2258800880518,658.5358021694701,"[64, 0, 190]",190,a,0.7945349151268601,colour,0.06
029,68,1,2,9,22,422,659.0460299542174,659.9595851069316,"[94, 0, 160]",160,l,0.3902497140225023,colour,0.06
029,68,1,2,9,23,423,660.4678432680666,661.22361271712,"[38, 0, 216]",216,a,0.23275112407281995,colour,0.06
029,68,1,2,9,24,424,661.7334990373347,662.2636286441702,"[65, 0, 189]",189,a,0.006994309602305293,colour,0.06
029,68,1,2,9,25,425,662.7803604004439,663.5275605497882,"[93, 0, 161]",161,l,0.22406209539622068,colour,0.06
029,68,1,2,9,26,426,664.045977178961,664.6716258430388,"[88, 0, 166]",166,l,0.10236882558092475,colour,0.06
029,68,1,2,9,27,427,665.1865273974836,665.7916224244982,"[51, 0, 203]",203,a,0.08166513312608004,colour,0.06
029,68,1,2,9,28,428,666.3116313726641,667.6156268608756,"[54, 0, 200]",200,a,0.7810334833338857,colour,0.06
029,68,1,2,9,29,429,668.1268168112729,669.0718953912146,"[86, 0, 168]",168,l,0.42164277844130993,colour,0.06
029,68,1,2,9,30,430,669.5799416634254,670.4715855920222,"[77, 0, 177]",177,l,0.3683912653941661,colour,0.06
029,68,1,2,9,31,431,670.986333940411,671.6558255325072,"[87, 0, 167]",167,l,0.14626886136829853,colour,0.06
029,68,1,2,9,32,432,672.1736415466294,672.7042106853332,"[73, 0, 181]",181,a,0.007196352584287524,colour,0.06
029,68,1,2,9,33,433,673.2361862480175,673.7915999754332,"[50, 0, 204]",204,a,0.03210277506150305,colour,0.06
029,68,1,2,9,34,434,674.2986573004164,675.5116609900724,"[76, 0, 178]",178,a,0.6896639864426106,colour,0.06
029,68,1,2,9,35,435,676.033133469522,676.671590790851,"[59, 0, 195]",195,a,0.11533738416619599,colour,0.06
029,68,1,2,9,36,436,677.1893729341682,678.151565301232,"[74, 0, 180]",180,a,0.43767467071302235,colour,0.06
029,68,1,2,9,37,437,678.6591988226864,679.5035662746523,"[75, 0, 179]",179,a,0.32108840090222657,colour,0.06
029,68,1,2,9,38,438,680.0185324198101,680.74362914823,"[23, 0, 231]",231,a,0.20161169627681375,colour,0.06
029,68,1,2,9,39,439,681.2530452166684,682.1436493920628,"[69, 0, 185]",185,a,0.36737593077123165,colour,0.06
029,68,1,2,9,40,440,682.6592720781919,683.2715859070886,"[63, 0, 191]",191,a,0.0890442302916199,colour,0.06
029,68,1,2,9,41,441,683.7842035489157,684.3275900094304,"[70, 0, 184]",184,a,0.020012886496260762,colour,0.06
029,68,1,2,9,42,442,684.8467261951882,685.375564774964,"[80, 0, 174]",174,a,0.005672168917953968,colour,0.06
029,68,1,2,9,43,443,685.8935190290213,686.4475873785559,"[52, 0, 202]",202,a,0.030715255765244365,colour,0.06
029,68,1,2,9,44,444,686.9561680997722,687.6557317972183,"[62, 0, 192]",192,a,0.17628110200166702,colour,0.06
029,68,1,2,9,45,445,688.1748049673624,689.1675826208666,"[84, 0, 170]",170,l,0.4694363749586046,colour,0.06
029,68,1,2,9,46,446,689.6748738903552,690.5115774946753,"[91, 0, 163]",163,l,0.31336626410484314,colour,0.06
029,68,1,2,9,47,447,691.0185513242614,691.823639734881,"[99, 0, 155]",155,l,0.28162307059392333,colour,0.06
029,68,1,2,9,48,448,692.3334535874892,693.359577781288,"[55, 0, 199]",199,a,0.502839629072696,colour,0.06
029,68,1,2,9,49,449,693.8802755661309,694.7036033750046,"[33, 0, 221]",221,a,0.3001184689346701,colour,0.06
029,68,1,2,9,50,450,695.2241054181941,696.303587857401,"[90, 0, 164]",164,l,0.5562352896668017,colour,0.06
029,68,1,2,10,1,451,701.1607718435116,703.0795438790228,"[68, 0, 186]",186,l,1.3946915082633495,colour,0.06
029,68,1,2,10,2,452,703.600186919095,704.1515692395624,"[57, 0, 197]",197,a,0.028133989544585347,colour,0.06
029,68,1,2,10,3,453,704.6627072023693,705.303612669697,"[88, 0, 166]",166,l,0.11769730877131224,colour,0.06
029,68,1,2,10,4,454,705.8189324883278,707.2075784618501,"[91, 0, 163]",163,l,0.865296030184254,colour,0.06
029,68,1,2,10,5,455,707.7251814054325,708.3036036114208,"[61, 0, 193]",193,a,0.0556606687605381,colour,0.06
029,68,1,2,10,6,456,708.8188363900408,709.9915992664173,"[56, 0, 198]",198,a,0.6493676409590989,colour,0.06
029,68,1,2,10,7,457,710.5064204761293,711.3035433529876,"[92, 0, 162]",162,l,0.2741053397767246,colour,0.06
029,68,1,2,10,8,458,711.8190301621798,712.4157043697778,"[27, 0, 227]",227,a,0.07344241812825203,colour,0.06
029,68,1,2,10,9,459,712.9282920791302,713.6075593209825,"[69, 0, 185]",185,a,0.15597952622920275,colour,0.06
029,68,1,2,10,10,460,714.1158399314154,715.2876048022881,"[53, 0, 201]",201,a,0.6492014380637556,colour,0.06
029,68,1,2,10,11,461,715.8032660854515,716.7195797348395,"[67, 0, 187]",187,a,0.3928849371150136,colour,0.06
029,68,1,2,10,12,462,717.2408099991735,717.9035817922559,"[97, 0, 157]",157,l,0.13944941922090948,colour,0.06
029,68,1,2,10,13,463,718.4151183268987,719.4715560537297,"[74, 0, 180]",180,a,0.5329920791555196,colour,0.06
029,68,1,2,10,14,464,719.9776157669257,720.5755833645817,"[50, 0, 204]",204,a,0.07521984493359923,colour,0.06
029,68,1,2,10,15,465,721.0868910746649,721.6155579378828,"[59, 0, 195]",195,a,0.006110913353040814,colour,0.06
029,68,1,2,10,16,466,722.1337701608427,724.1755993545521,"[66, 0, 188]",188,l,1.5183213183190674,colour,0.06
029,68,1,2,10,17,467,724.696351883933,725.911569775315,"[62, 0, 192]",192,a,0.6919226928148419,colour,0.06
029,68,1,2,10,18,468,726.4307764593977,727.7515820791014,"[46, 0, 208]",208,a,0.7971622615586966,colour,0.06
029,68,1,2,10,19,469,728.258833570173,729.0395937243011,"[65, 0, 189]",189,a,0.2572924511041492,colour,0.06
029,68,1,2,10,20,470,729.5557354993653,730.2875346976798,"[96, 0, 158]",158,l,0.20839687366969883,colour,0.06
029,68,1,2,10,21,471,730.8057354993653,731.4235899527557,"[99, 0, 155]",155,l,0.09448284888640046,colour,0.06
029,68,1,2,10,22,472,731.9307358930819,732.6795705030672,"[75, 0, 179]",179,a,0.22580131888389587,colour,0.06
029,68,1,2,10,23,473,733.1964267145377,733.903583367588,"[90, 0, 164]",164,a,0.18393707275390625,colour,0.06
029,68,1,2,10,24,474,734.4150163209997,735.1596245702822,"[58, 0, 196]",196,a,0.2211133709643036,colour,0.06
029,68,1,2,10,25,475,735.6806933577172,736.223928187741,"[81, 0, 173]",173,l,0.02020587120205164,colour,0.06
029,68,1,2,10,26,476,736.7432396346703,737.3355866570491,"[72, 0, 182]",182,l,0.06902858684770763,colour,0.06
029,68,1,2,10,27,477,737.8526173424907,738.3915927286725,"[87, 0, 167]",167,l,0.015742415329441428,colour,0.06
029,68,1,2,10,28,478,738.8994550746866,739.6316469374578,"[77, 0, 177]",177,l,0.20897031342610717,colour,0.06
029,68,1,2,10,29,479,740.1494212038815,741.8315635209437,"[80, 0, 174]",174,a,1.159528078045696,colour,0.06
029,68,1,2,10,30,480,742.3525905609131,743.26386573934,"[84, 0, 170]",170,l,0.38784173992462456,colour,0.06
029,68,1,2,10,31,481,743.7743932409212,745.1676767501049,"[54, 0, 200]",200,a,0.8699398676399142,colour,0.06
029,68,1,2,10,32,482,745.6806204963941,747.0395740319509,"[98, 0, 156]",156,l,0.8357469523325562,colour,0.06
029,68,1,2,10,33,483,747.5570915108547,749.0155592767987,"[85, 0, 169]",169,l,0.9352005305700004,colour,0.06
029,68,1,2,10,34,484,749.5258772522211,750.3115077051334,"[70, 0, 184]",184,a,0.26280353707261384,colour,0.06
029,68,1,2,10,35,485,750.8226984431967,751.6315669869073,"[94, 0, 160]",160,l,0.28550127148628235,colour,0.06
029,68,1,2,10,36,486,752.150826839963,752.9915799680166,"[89, 0, 165]",165,l,0.31737955403514206,colour,0.06
029,68,1,2,10,37,487,753.5102758337744,754.2795924008824,"[55, 0, 199]",199,a,0.24625806999392807,colour,0.06
029,68,1,2,10,38,488,754.791539717,755.8875412356574,"[52, 0, 202]",202,a,0.5730544799007475,colour,0.06
029,68,1,2,10,39,489,756.4010154921561,756.927562676603,"[64, 0, 190]",190,a,0.003210238181054592,colour,0.06
029,68,1,2,10,40,490,757.4478524369188,758.2635506626684,"[83, 0, 171]",171,l,0.2926318517420441,colour,0.06
029,68,1,2,10,41,491,758.7759351476561,759.6795161522459,"[60, 0, 194]",194,a,0.38024917826987803,colour,0.06
029,68,1,2,10,42,492,760.19779099687,761.8555581897963,"[71, 0, 183]",183,a,1.134544461965561,colour,0.06
029,68,1,2,10,43,493,762.3714770481456,765.4955593871418,"[82, 0, 172]",172,a,2.600755632854998,colour,0.06
029,68,1,2,10,44,494,766.0120280543342,766.9275595257059,"[73, 0, 181]",181,a,0.3925005435012281,colour,0.06
029,68,1,2,10,45,495,767.4339610973839,768.0876917634159,"[93, 0, 161]",161,l,0.13036457519046962,colour,0.06
029,68,1,2,10,46,496,768.6058453035075,769.7115779672749,"[78, 0, 176]",176,l,0.5823248252272606,colour,0.06
029,68,1,2,10,47,497,770.2309161957819,770.8235286702402,"[10, 0, 244]",244,a,0.06972726946696639,colour,0.06
029,68,1,2,10,48,498,771.3402505803388,772.3436356862076,"[51, 0, 203]",203,a,0.48007454723119736,colour,0.06
029,68,1,2,10,49,499,772.8569937583525,773.7435350192245,"[76, 0, 178]",178,a,0.3633071086369455,colour,0.06
029,68,1,2,10,50,500,774.2630741090979,774.7995150969364,"[86, 0, 168]",168,l,0.013392336899414659,colour,0.06
029,68,1,2,11,1,501,779.621847657254,781.2555473197717,"[55, 0, 199]",199,a,1.1096644275821745,colour,0.06
029,68,1,2,11,2,502,781.7631733582821,782.3040537771303,"[68, 0, 186]",186,a,0.015671916771680117,colour,0.06
029,68,1,2,11,3,503,782.8120161602274,783.4955566301942,"[75, 0, 179]",179,a,0.16040596063248813,colour,0.06
029,68,1,2,11,4,504,784.0151815786958,784.5995445565786,"[92, 0, 162]",162,l,0.06117293634451926,colour,0.06
029,68,1,2,11,5,505,785.1088531047571,786.3515204815194,"[97, 0, 157]",157,l,0.7192185781896114,colour,0.06
029,68,1,2,11,6,506,786.858868858777,787.4156803451478,"[61, 0, 193]",193,a,0.03325319895520806,colour,0.06
029,68,1,2,11,7,507,787.9371421909891,788.607519936515,"[69, 0, 185]",185,a,0.14719361159950495,colour,0.06
029,68,1,2,11,8,508,789.1245250217617,790.0795631774236,"[79, 0, 175]",175,a,0.43181188008747995,colour,0.06
029,68,1,2,11,9,509,790.5944710334297,791.1355404984206,"[66, 0, 188]",188,a,0.01775811892002821,colour,0.06
029,68,1,2,11,10,510,791.657059451798,792.9595472975634,"[67, 0, 187]",187,a,0.7792694473173469,colour,0.06
029,68,1,2,11,11,511,793.4694710334297,794.5595282355789,"[80, 0, 174]",174,a,0.5671200095675886,colour,0.06
029,68,1,2,11,12,512,795.0788290486671,795.8075117443223,"[62, 0, 192]",192,a,0.20535717089660466,colour,0.06
029,68,1,2,11,13,513,796.3288818241563,796.8715349435806,"[42, 0, 212]",212,a,0.01946071465499699,colour,0.06
029,68,1,2,11,14,514,797.3913268826436,798.6475350758992,"[52, 0, 202]",202,a,0.7328480102587491,colour,0.06
029,68,1,2,11,15,515,799.1569976180326,799.8158033825457,"[95, 0, 159]",159,l,0.13549481215886772,colour,0.06
029,68,1,2,11,16,516,800.3288349565119,800.9275209289044,"[78, 0, 176]",176,l,0.07535769091919065,colour,0.06
029,68,1,2,11,17,517,801.4381134149153,802.687487593852,"[85, 0, 169]",169,l,0.7260297497268766,colour,0.06
029,68,1,2,11,18,518,803.2049908943009,803.7595216189511,"[81, 0, 173]",173,l,0.03122922475449741,colour,0.06
029,68,1,2,11,19,519,804.2675029064994,804.8155603797641,"[91, 0, 163]",163,l,0.02452163491398096,colour,0.06
029,68,1,2,11,20,520,805.3300609986763,805.9115130614955,"[59, 0, 195]",195,a,0.05822224263101816,colour,0.06
029,68,1,2,11,21,521,806.4237593065482,807.143491853727,"[72, 0, 182]",182,a,0.19624633342027664,colour,0.06
029,68,1,2,11,22,522,807.6582291740924,808.2235875108745,"[94, 0, 160]",160,l,0.04212497198022902,colour,0.06
029,68,1,2,11,23,523,808.7362949496601,809.4795444305055,"[70, 0, 184]",184,a,0.21981131634674966,colour,0.06
029,68,1,2,11,24,524,809.9865962415934,810.5435313957278,"[58, 0, 196]",196,a,0.03379513067193329,colour,0.06
029,68,1,2,11,25,525,811.0644962079823,811.7994678353425,"[50, 0, 204]",204,a,0.21221521007828414,colour,0.06
029,68,1,2,11,26,526,812.3144966019318,812.9755618604831,"[89, 0, 165]",165,l,0.13796934625133872,colour,0.06
029,68,1,2,11,27,527,813.4863087341655,814.047510814853,"[21, 0, 233]",233,a,0.038193208165466785,colour,0.06
029,68,1,2,11,28,528,814.555125432089,815.8395022731274,"[65, 0, 189]",189,a,0.7610410763882101,colour,0.06
029,68,1,2,11,29,529,816.3520635950845,817.8315517054871,"[73, 0, 181]",181,a,0.9562322965357453,colour,0.06
029,68,1,2,11,30,530,818.3520222411025,821.1435855890159,"[90, 0, 164]",164,l,2.2681145493406802,colour,0.06
029,68,1,2,11,31,531,821.6645303149708,822.3435545538086,"[64, 0, 190]",190,a,0.15612170472741127,colour,0.06
029,68,1,2,11,32,532,822.8519824626856,824.039510228904,"[53, 0, 201]",201,a,0.6641120507847518,colour,0.06
029,68,1,2,11,33,533,824.555141185876,825.2555059657898,"[51, 0, 203]",203,a,0.1770451630000025,colour,0.06
029,68,1,2,11,34,534,825.7739032965619,826.415503902128,"[83, 0, 171]",171,l,0.11840308085083961,colour,0.06
029,68,1,2,11,35,535,826.9301021951251,827.5835201474838,"[54, 0, 200]",200,a,0.13048587972298265,colour,0.06
029,68,1,2,11,36,536,828.1019678905141,828.8396286978386,"[34, 0, 220]",220,a,0.21422500582411885,colour,0.06
029,68,1,2,11,37,537,829.3520230287686,829.9755642234813,"[82, 0, 172]",172,l,0.10014792834408581,colour,0.06
029,68,1,2,11,38,538,830.4931525946595,832.0955482020508,"[84, 0, 170]",170,l,1.0790523595642298,colour,0.06
029,68,1,2,11,39,539,832.6026279763319,833.21548137418,"[96, 0, 158]",158,l,0.08966335630975664,colour,0.06
029,68,1,2,11,40,540,833.7274554716423,834.2796002777759,"[99, 0, 155]",155,l,0.02886693668551743,colour,0.06
029,68,1,2,11,41,541,834.790028530173,836.1035330342129,"[86, 0, 168]",168,l,0.7902337240520865,colour,0.06
029,68,1,2,11,42,542,836.6180773701053,837.2554992705118,"[98, 0, 156]",156,l,0.11398294800892472,colour,0.06
029,68,1,2,11,43,543,837.7759300277103,839.0875102004502,"[74, 0, 180]",180,a,0.7885149803478271,colour,0.06
029,68,1,2,11,44,544,839.6037468924187,840.5355524711777,"[71, 0, 183]",183,a,0.40876086615025997,colour,0.06
029,68,1,2,11,45,545,841.056926489342,841.887784238439,"[77, 0, 177]",177,a,0.30804619332775474,colour,0.06
029,68,1,2,11,46,546,842.4006228279322,843.2075000866316,"[60, 0, 194]",194,a,0.2837498385924846,colour,0.06
029,68,1,2,11,47,547,843.7417280541267,844.319516167976,"[63, 0, 191]",191,a,0.05181909538805485,colour,0.06
029,68,1,2,11,48,548,844.8381616217084,845.7755070370622,"[76, 0, 178]",178,a,0.41411362611688673,colour,0.06
029,68,1,2,11,49,549,846.2919040243141,847.0076228878461,"[87, 0, 167]",167,l,0.1930695720948279,colour,0.06
029,68,1,2,11,50,550,847.5257421631832,848.4635184460785,"[56, 0, 198]",198,a,0.4153774776495993,colour,0.06
029,68,1,2,12,1,551,853.9479071814567,855.959476405289,"[76, 0, 178]",178,l,1.4874315888155252,colour,0.06
029,68,1,2,12,2,552,856.4799623009749,857.1914894622751,"[92, 0, 162]",162,l,0.18845921172760427,colour,0.06
029,68,1,2,12,3,553,857.6986747870687,858.8634548005648,"[78, 0, 176]",176,a,0.6413556335028261,colour,0.06
029,68,1,2,12,4,554,859.3705731718801,860.2635356965475,"[82, 0, 172]",172,a,0.3695976154413074,colour,0.06
029,68,1,2,12,5,555,860.7768220887519,861.5436239496339,"[60, 0, 194]",194,a,0.24355116696096957,colour,0.06
029,68,1,2,12,6,556,862.0580962118693,862.887454589596,"[53, 0, 201]",201,a,0.3060304899699986,colour,0.06
029,68,1,2,12,7,557,863.4018059410155,864.4075033161789,"[69, 0, 185]",185,a,0.48270780104212463,colour,0.06
029,68,1,2,12,8,558,864.9174806147348,865.7514981897548,"[72, 0, 182]",182,a,0.3111020438373089,colour,0.06
029,68,1,2,12,9,559,866.2610954272095,868.0954568297602,"[96, 0, 158]",158,l,1.3109165425412357,colour,0.06
029,68,1,2,12,10,560,868.6060697957873,871.6155083132908,"[98, 0, 156]",156,l,2.4987790777813643,colour,0.06
029,68,1,2,12,11,561,872.1248050462455,872.7275200623553,"[57, 0, 197]",197,a,0.07930126995779574,colour,0.06
029,68,1,2,12,12,562,873.2342371046543,873.9594803438522,"[88, 0, 166]",166,l,0.20184288383461535,colour,0.06
029,68,1,2,12,13,563,874.4686538029928,876.1994506635237,"[81, 0, 173]",173,l,1.2074193481821567,colour,0.06
029,68,1,2,12,14,564,876.7186707383953,877.81549342582,"[73, 0, 181]",181,a,0.5735137041192502,colour,0.06
029,68,1,2,12,15,565,878.3291953254957,879.0797979095951,"[58, 0, 196]",196,a,0.22720656101591885,colour,0.06
029,68,1,2,12,16,566,879.5948428239208,880.4394832111429,"[94, 0, 160]",160,l,0.3215937055647373,colour,0.06
029,68,1,2,12,17,567,880.9542110792827,881.6474586697295,"[63, 0, 191]",191,a,0.16987441037781537,colour,0.06
029,68,1,2,12,18,568,882.1573686208576,882.9834683174267,"[66, 0, 188]",188,a,0.30276156892068684,colour,0.06
029,68,1,2,12,19,569,883.5009889469948,884.3434375815559,"[95, 0, 159]",159,l,0.31906206370331347,colour,0.06
029,68,1,2,12,20,570,884.8524152995087,885.4634723661002,"[64, 0, 190]",190,a,0.0878477266523987,colour,0.06
029,68,1,2,12,21,571,885.964991036104,886.6714568831958,"[97, 0, 157]",157,l,0.1902929584030062,colour,0.06
029,68,1,2,12,22,572,887.1922846371308,887.791442830814,"[70, 0, 184]",184,a,0.07904133177362382,colour,0.06
029,68,1,2,12,23,573,888.2983201683965,889.1514699903782,"[85, 0, 169]",169,l,0.3297482852358371,colour,0.06
029,68,1,2,12,24,574,889.6577498635743,890.4314806556795,"[2, 0, 252]",252,a,0.25079950713552535,colour,0.06
029,68,1,2,12,25,575,890.9387695621699,891.839479430113,"[90, 0, 164]",164,l,0.37715591257438064,colour,0.06
029,68,1,2,12,26,576,892.3608325745445,892.9434133996256,"[59, 0, 195]",195,a,0.05922300508245826,colour,0.06
029,68,1,2,12,27,577,893.4546112266835,894.7115019550547,"[74, 0, 180]",180,a,0.7338310496415943,colour,0.06
029,68,1,2,12,28,578,895.2201386021916,895.9114650122356,"[29, 0, 225]",225,a,0.1680977714713663,colour,0.06
029,68,1,2,12,29,579,896.4232626669109,897.2714283687528,"[67, 0, 187]",187,a,0.3248165464028716,colour,0.06
029,68,1,2,12,30,580,897.7837896167766,898.3915249870624,"[65, 0, 189]",189,a,0.08457762375473976,colour,0.06
029,68,1,2,12,31,581,898.9089436107315,899.455500924727,"[55, 0, 199]",199,a,0.02340508159250021,colour,0.06
029,68,1,2,12,32,582,899.971356373746,901.1914851299953,"[86, 0, 168]",168,l,0.6968378899618983,colour,0.06
029,68,1,2,12,33,583,901.705678943079,902.5915116751567,"[91, 0, 163]",163,l,0.3625186290591955,colour,0.06
029,68,1,2,12,34,584,903.1121826781891,903.8394766731653,"[83, 0, 171]",171,l,0.20427291304804385,colour,0.06
029,68,1,2,12,35,585,904.3464611368254,905.175461902516,"[68, 0, 186]",186,a,0.30605569621548057,colour,0.06
029,68,1,2,12,36,586,905.6902460905258,906.3594832583331,"[93, 0, 161]",161,l,0.14596914453431964,colour,0.06
029,68,1,2,12,37,587,906.8777033584192,907.4234721928369,"[50, 0, 204]",204,a,0.02243582671508193,colour,0.06
029,68,1,2,12,38,588,907.9403035920113,908.5994858734775,"[87, 0, 167]",167,l,0.13599972263909876,colour,0.06
029,68,1,2,12,39,589,909.1121149368118,909.6554395635612,"[52, 0, 202]",202,a,0.020439028041437268,colour,0.06
029,68,1,2,12,40,590,910.1746167091187,910.7039641379379,"[51, 0, 203]",203,a,0.005982125643640757,colour,0.06
029,68,1,2,12,41,591,911.2370129306801,911.7995001305826,"[61, 0, 193]",193,a,0.039033281384035945,colour,0.06
029,68,1,2,12,42,592,912.3152362443507,914.3434482153971,"[80, 0, 174]",174,l,1.5049116523005068,colour,0.06
029,68,1,2,12,43,593,914.8620818536729,915.7835572478361,"[77, 0, 177]",177,l,0.39837514935061336,colour,0.06
029,68,1,2,12,44,594,916.2996080445591,917.2474833244924,"[54, 0, 200]",200,a,0.42475967528298497,colour,0.06
029,68,1,2,12,45,595,917.7538195175584,918.4794825967401,"[71, 0, 183]",183,a,0.20223279134370387,colour,0.06
029,68,1,2,12,46,596,918.9882834777236,919.7675107833929,"[89, 0, 165]",165,l,0.2559770056977868,colour,0.06
029,68,1,2,12,47,597,920.2850975792389,921.1274902876467,"[84, 0, 170]",170,l,0.318925793049857,colour,0.06
029,68,1,2,12,48,598,921.6444646529853,922.3035177530255,"[99, 0, 155]",155,l,0.13576656603254378,colour,0.06
029,68,1,2,12,49,599,922.8163949390873,924.1354404613376,"[75, 0, 179]",179,a,0.7957637144718319,colour,0.06
029,68,1,2,12,50,600,924.6445000991225,925.4074686577078,"[46, 0, 208]",208,a,0.23963830759748816,colour,0.06
029,68,1,2,13,1,601,931.1905788904987,933.4395092048217,"[75, 0, 179]",179,a,1.7247796824667603,colour,0.06
029,68,1,2,13,2,602,933.958225156879,934.7355545193423,"[90, 0, 164]",164,l,0.2543795667588711,colour,0.06
029,68,1,2,13,3,603,935.2551495353691,936.3034208668396,"[74, 0, 180]",180,a,0.5250513574574143,colour,0.06
029,68,1,2,13,4,604,936.817643036833,937.5195792622399,"[89, 0, 165]",165,l,0.17867607902735472,colour,0.06
029,68,1,2,13,5,605,938.0364126306958,938.6554462588392,"[50, 0, 204]",204,a,0.09585264488123357,colour,0.06
029,68,1,2,13,6,606,939.1768722645938,940.1194912770297,"[83, 0, 171]",171,l,0.4192253523506224,colour,0.06
029,68,1,2,13,7,607,940.6301483537536,941.183446734678,"[51, 0, 203]",203,a,0.030393483582884073,colour,0.06
029,68,1,2,13,8,608,941.6925556031056,942.3034547376446,"[86, 0, 168]",168,l,0.08805922186002135,colour,0.06
029,68,1,2,13,9,609,942.8188419039361,943.3514511645772,"[34, 0, 220]",220,a,0.009456240572035313,colour,0.06
029,68,1,2,13,10,610,943.8656914515886,944.4474341724999,"[77, 0, 177]",177,l,0.05846839630976319,colour,0.06
029,68,1,2,13,11,611,944.959420873085,945.6556223079097,"[80, 0, 174]",174,l,0.17293459316715598,colour,0.06
029,68,1,2,13,12,612,946.1624929499812,946.7754518988077,"[98, 0, 156]",156,l,0.08963342406786978,colour,0.06
029,68,1,2,13,13,613,947.2875480884686,947.8154709765222,"[55, 0, 199]",199,a,0.004449277184903622,colour,0.06
029,68,1,2,13,14,614,948.3344165408053,948.895461870823,"[65, 0, 189]",189,a,0.03766545467078686,colour,0.06
029,68,1,2,13,15,615,949.4125886545517,950.0394377612974,"[91, 0, 163]",163,l,0.10355627117678523,colour,0.06
029,68,1,2,13,16,616,950.5530892484821,951.0878749019466,"[68, 0, 186]",186,a,0.01203750679269433,colour,0.06
029,68,1,2,13,17,617,951.5999896023422,952.2554256212898,"[82, 0, 172]",172,l,0.1320880448911339,colour,0.06
029,68,1,2,13,18,618,952.7731742877513,953.4554497248027,"[71, 0, 183]",183,a,0.15903380163945258,colour,0.06
029,68,1,2,13,19,619,953.9763184385374,955.1514195781201,"[76, 0, 178]",178,a,0.651927245547995,colour,0.06
029,68,1,2,13,20,620,955.6637249002233,956.215473103337,"[4, 0, 250]",250,l,0.02857076469808817,colour,0.06
029,68,1,2,13,21,621,956.7264417123515,959.1593910194933,"[69, 0, 185]",185,l,1.9102515729609877,colour,0.06
029,68,1,2,13,22,622,959.6793196231592,960.4474408680107,"[57, 0, 197]",197,a,0.24500288302078843,colour,0.06
029,68,1,2,13,23,623,960.9605358508416,962.5354406191036,"[96, 0, 158]",158,l,1.0515150465071201,colour,0.06
029,68,1,2,13,24,624,963.054259364726,963.9674151577055,"[93, 0, 161]",161,l,0.38986571435816586,colour,0.06
029,68,1,2,13,25,625,964.4762156447396,965.4634384952951,"[79, 0, 175]",175,a,0.4642187040299177,colour,0.06
029,68,1,2,13,26,626,965.9762247032486,966.5834622520488,"[66, 0, 188]",188,a,0.08400891022756696,colour,0.06
029,68,1,2,13,27,627,967.101246758597,967.727531877812,"[56, 0, 198]",198,a,0.10144840786233544,colour,0.06
029,68,1,2,13,28,628,968.2435149329249,968.9434256087989,"[94, 0, 160]",160,l,0.17682421556673944,colour,0.06
029,68,1,2,13,29,629,969.462208120618,971.0233920845203,"[73, 0, 181]",181,a,1.0378623774740845,colour,0.06
029,68,1,2,13,30,630,971.5403156438842,972.2554441320244,"[84, 0, 170]",170,l,0.19224013248458505,colour,0.06
029,68,1,2,13,31,631,972.7746157639194,973.5753958937712,"[99, 0, 155]",155,l,0.2775881190318614,colour,0.06
029,68,1,2,13,32,632,974.0874798744917,975.103454265045,"[10, 0, 244]",244,a,0.4929670933634043,colour,0.06
029,68,1,2,13,33,633,975.6184011115693,977.3514086292125,"[78, 0, 176]",176,l,1.2096524545922875,colour,0.06
029,68,1,2,13,34,634,977.8695511415135,978.9356514841784,"[61, 0, 193]",193,a,0.5427803318016231,colour,0.06
029,68,1,2,13,35,635,979.4477559446823,980.5195784745738,"[87, 0, 167]",167,l,0.5490763525012881,colour,0.06
029,68,1,2,13,36,636,981.0134585027117,981.9274295566138,"[63, 0, 191]",191,a,0.39552724943496287,colour,0.06
029,68,1,2,13,37,637,982.4489272423089,983.2393909723032,"[53, 0, 201]",201,a,0.26720515894703567,colour,0.06
029,68,1,2,13,38,638,983.745747251669,984.615375587251,"[81, 0, 173]",173,l,0.34638788155280054,colour,0.06
029,68,1,2,13,39,639,985.1363876608666,985.9356495148968,"[52, 0, 202]",202,a,0.2760529078077525,colour,0.06
029,68,1,2,13,40,640,986.4487783685327,987.1754028254654,"[95, 0, 159]",159,l,0.20327018131501973,colour,0.06
029,68,1,2,13,41,641,987.6831911285408,988.3673964105546,"[60, 0, 194]",194,a,0.16090299421921372,colour,0.06
029,68,1,2,13,42,642,988.886958737392,989.4794136735145,"[62, 0, 192]",192,a,0.06982770026661456,colour,0.06
029,68,1,2,13,43,643,989.9956649378873,990.5914053367451,"[72, 0, 182]",182,a,0.07239045575261116,colour,0.06
029,68,1,2,13,44,644,991.10505249165,992.6153996116482,"[85, 0, 169]",169,l,0.9871287213172764,colour,0.06
029,68,1,2,13,45,645,993.1218074848875,993.7194446455687,"[88, 0, 166]",166,l,0.07427264517173171,colour,0.06
029,68,1,2,13,46,646,994.231274595717,994.8074443966616,"[97, 0, 157]",157,l,0.05305813462473452,colour,0.06
029,68,1,2,13,47,647,995.3249823555816,996.9674352437723,"[92, 0, 162]",162,l,1.1191785633563995,colour,0.06
029,68,1,2,13,48,648,997.4811741649173,998.3833365365863,"[64, 0, 190]",190,a,0.37892428087070584,colour,0.06
029,68,1,2,13,49,649,998.9030705802143,1000.0075622354634,"[59, 0, 195]",195,a,0.5811432874761522,colour,0.06
029,68,1,2,13,50,650,1000.5279465187341,1001.5754195246845,"[67, 0, 187]",187,a,0.524118730565533,colour,0.06
029,68,1,2,14,1,651,1006.7316700168885,1008.1914012406487,"[9, 0, 245]",245,a,0.9357074103318155,colour,0.06
029,68,1,2,14,2,652,1008.7012729886919,1009.3274084464647,"[96, 0, 158]",158,l,0.10313643142580986,colour,0.06
029,68,1,2,14,3,653,1009.8418247825466,1011.6313881806564,"[34, 0, 220]",220,a,1.2665490116924047,colour,0.06
029,68,1,2,14,4,654,1012.1386148596648,1012.8474189699627,"[77, 0, 177]",177,l,0.1854301425628364,colour,0.06
029,68,1,2,14,5,655,1013.3573375856504,1013.8954012186732,"[51, 0, 203]",203,a,0.014627831289544702,colour,0.06
029,68,1,2,14,6,656,1014.404232425848,1014.9594220547006,"[93, 0, 161]",161,l,0.031734528951346874,colour,0.06
029,68,1,2,14,7,657,1015.4667397118174,1015.9994182894006,"[59, 0, 195]",195,a,0.009198271436616778,colour,0.06
029,68,1,2,14,8,658,1016.5136298257858,1017.9993934771046,"[66, 0, 188]",188,a,0.96261220658198,colour,0.06
029,68,1,2,14,9,659,1018.514902341878,1019.0474095966201,"[68, 0, 186]",186,a,0.00949798827059567,colour,0.06
029,68,1,2,14,10,660,1019.5619511755649,1020.1034200002905,"[60, 0, 194]",194,a,0.019165330100804567,colour,0.06
029,68,1,2,14,11,661,1020.6241835572291,1021.91138348612,"[64, 0, 190]",190,a,0.76381532731466,colour,0.06
029,68,1,2,14,12,662,1022.4210268035531,1023.7033812459558,"[67, 0, 187]",187,a,0.7599422463681549,colour,0.06
029,68,1,2,14,13,663,1024.2180169541389,1025.6793956353795,"[94, 0, 160]",160,l,0.938001562608406,colour,0.06
029,68,1,2,14,14,664,1026.1866892680991,1026.76744619268,"[75, 0, 179]",179,l,0.057471966138109565,colour,0.06
029,68,1,2,14,15,665,1027.2803623697255,1027.9113783661742,"[97, 0, 157]",157,l,0.1048394211102277,colour,0.06
029,68,1,2,14,16,666,1028.4278679070994,1028.9673907391261,"[99, 0, 155]",155,l,0.02180882403627038,colour,0.06
029,68,1,2,14,17,667,1029.484796365723,1030.0794316329993,"[50, 0, 204]",204,a,0.071660659275949,colour,0.06
029,68,1,2,14,18,668,1030.5818388191983,1031.7754294495098,"[84, 0, 170]",170,l,0.6703025209717453,colour,0.06
029,68,1,2,14,19,669,1032.2849786377046,1033.791360910982,"[53, 0, 201]",201,a,0.9853225441183895,colour,0.06
029,68,1,2,14,20,670,1034.2982449438423,1035.5753655678127,"[76, 0, 178]",178,l,0.7539290070999414,colour,0.06
029,68,1,2,14,21,671,1036.095105125336,1037.3194507895969,"[74, 0, 180]",180,a,0.701012262608856,colour,0.06
029,68,1,2,14,22,672,1037.8295450606383,1039.2633990319446,"[52, 0, 202]",202,a,0.9105225389357656,colour,0.06
029,68,1,2,14,23,673,1039.7827703435905,1040.7274042717181,"[58, 0, 196]",196,a,0.4214765755459666,colour,0.06
029,68,1,2,14,24,674,1041.2357443529181,1042.2233736526687,"[70, 0, 184]",184,a,0.4642706918530166,colour,0.06
029,68,1,2,14,25,675,1042.7369329798967,1044.0713723639492,"[86, 0, 168]",168,l,0.8120590895414352,colour,0.06
029,68,1,2,14,26,676,1044.580678943079,1045.5594250478316,"[71, 0, 183]",183,a,0.45600465359166265,colour,0.06
029,68,1,2,14,27,677,1046.080729355337,1046.943393313326,"[89, 0, 165]",165,l,0.3395901008043438,colour,0.06
029,68,1,2,14,28,678,1047.4557246291079,1048.0473453996237,"[61, 0, 193]",193,a,0.06828894419595599,colour,0.06
029,68,1,2,14,29,679,1048.5650755553506,1049.7513733406086,"[65, 0, 189]",189,a,0.663632346317172,colour,0.06
029,68,1,2,14,30,680,1050.2683382537216,1051.3674054690637,"[55, 0, 199]",199,a,0.5759779983200133,colour,0.06
029,68,1,2,14,31,681,1051.8775745707098,1052.8317285424564,"[73, 0, 181]",181,a,0.430019881343469,colour,0.06
029,68,1,2,14,32,682,1053.3476056531072,1054.111404438736,"[87, 0, 167]",167,l,0.2406583686824888,colour,0.06
029,68,1,2,14,33,683,1054.6288376345765,1055.3993932409212,"[91, 0, 163]",163,l,0.24709341721609235,colour,0.06
029,68,1,2,14,34,684,1055.910025505349,1056.6633704388514,"[95, 0, 159]",159,l,0.2300174394622445,colour,0.06
029,68,1,2,14,35,685,1057.175760831451,1057.8554869038053,"[88, 0, 166]",166,l,0.15660219686105847,colour,0.06
029,68,1,2,14,36,686,1058.3632117975503,1059.9433464456815,"[54, 0, 200]",200,a,1.0572888276074082,colour,0.06
029,68,1,2,14,37,687,1060.4569616992958,1061.247356900014,"[37, 0, 217]",217,a,0.26711024227552116,colour,0.06
029,68,1,2,14,38,688,1061.75374114234,1062.3993715792894,"[98, 0, 156]",156,l,0.12278579804114997,colour,0.06
029,68,1,2,14,39,689,1062.9101346007083,1063.447353828,"[90, 0, 164]",164,l,0.014005948789417744,colour,0.06
029,68,1,2,14,40,690,1063.956907742191,1064.9673596252687,"[78, 0, 176]",176,a,0.48705901065841317,colour,0.06
029,68,1,2,14,41,691,1065.4882023453247,1066.0393566288985,"[63, 0, 191]",191,a,0.027954789577051997,colour,0.06
029,68,1,2,14,42,692,1066.550677336054,1067.6714265570045,"[85, 0, 169]",169,l,0.5975733576342463,colour,0.06
029,68,1,2,14,43,693,1068.1913933637552,1068.767358365003,"[83, 0, 171]",171,l,0.052649716613814235,colour,0.06
029,68,1,2,14,44,694,1069.2851377513725,1070.3113218098879,"[72, 0, 182]",182,a,0.5030818444211036,colour,0.06
029,68,1,2,14,45,695,1070.8319018345792,1071.7194084117655,"[81, 0, 173]",173,a,0.36401091096922755,colour,0.06
029,68,1,2,14,46,696,1072.238233459182,1072.81536503206,"[57, 0, 197]",197,a,0.05387890967540443,colour,0.06
029,68,1,2,14,47,697,1073.3318766285665,1074.3433745664079,"[80, 0, 174]",174,a,0.4881255456712097,colour,0.06
029,68,1,2,14,48,698,1074.8631554776803,1076.2713649596553,"[92, 0, 162]",162,l,0.8849973848555237,colour,0.06
029,68,1,2,14,49,699,1076.7865071536507,1077.6553730035666,"[82, 0, 172]",172,l,0.3456545404624194,colour,0.06
029,68,1,2,14,50,700,1078.1495984345675,1079.1033609234728,"[56, 0, 198]",198,a,0.4303554380312562,colour,0.06
029,68,1,2,15,1,701,1085.4457268505357,1089.4873866904527,"[61, 0, 193]",193,a,3.517574980389327,colour,0.06
029,68,1,2,15,2,702,1089.9947090737987,1090.7753211418167,"[77, 0, 177]",177,l,0.25736806937493384,colour,0.06
029,68,1,2,15,3,703,1091.2915015139151,1091.8155343858525,"[13, 0, 241]",241,a,0.0007038027979433537,colour,0.06
029,68,1,2,15,4,704,1092.338397141546,1093.3277164339088,"[68, 0, 186]",186,a,0.4665502719581127,colour,0.06
029,68,1,2,15,5,705,1093.8384247107897,1094.6713406986091,"[83, 0, 171]",171,a,0.309670020127669,colour,0.06
029,68,1,2,15,6,706,1095.182014317019,1095.7273625240196,"[81, 0, 173]",173,a,0.02235823916271329,colour,0.06
029,68,1,2,15,7,707,1096.2447106491309,1097.0313871568069,"[56, 0, 198]",198,a,0.2632355859968811,colour,0.06
029,68,1,2,15,8,708,1097.5413809970487,1098.1033747079782,"[93, 0, 161]",161,l,0.038733170833438635,colour,0.06
029,68,1,2,15,9,709,1098.6195259355009,1101.0313343813177,"[75, 0, 179]",179,a,1.888508127303794,colour,0.06
029,68,1,2,15,10,710,1101.5413920246065,1102.2793793303426,"[14, 0, 240]",240,a,0.21476181782782078,colour,0.06
029,68,1,2,15,11,711,1102.7925625347998,1103.6633456265554,"[69, 0, 185]",185,a,0.34748474252410233,colour,0.06
029,68,1,2,15,12,712,1104.1832167285029,1104.7114251549356,"[50, 0, 204]",204,a,0.00486754160374403,colour,0.06
029,68,1,2,15,13,713,1105.2300552485976,1106.031354073668,"[66, 0, 188]",188,a,0.27803119574673474,colour,0.06
029,68,1,2,15,14,714,1106.5415196307003,1107.3033058638684,"[58, 0, 196]",196,a,0.23847921914421022,colour,0.06
029,68,1,2,15,15,715,1107.8240461838432,1108.3833518964238,"[96, 0, 158]",158,l,0.03610818786546588,colour,0.06
029,68,1,2,15,16,716,1108.902199786855,1109.9753472143784,"[53, 0, 201]",201,a,0.5498640441801399,colour,0.06
029,68,1,2,15,17,717,1110.4958807653747,1111.0633268794045,"[88, 0, 166]",166,l,0.044432515278458595,colour,0.06
029,68,1,2,15,18,718,1111.573976866901,1112.4313242989592,"[71, 0, 183]",183,a,0.3347079867962748,colour,0.06
029,68,1,2,15,19,719,1112.9489729285706,1113.7353418425191,"[67, 0, 187]",187,a,0.2630477217026055,colour,0.06
029,68,1,2,15,20,720,1114.248947643675,1115.3593182368204,"[85, 0, 169]",169,l,0.5901442421600223,colour,0.06
029,68,1,2,15,21,721,1115.8707393747754,1116.791338461684,"[63, 0, 191]",191,a,0.3974740297999233,colour,0.06
029,68,1,2,15,22,722,1117.3092978356872,1118.1113300018478,"[57, 0, 197]",197,a,0.27858415548689663,colour,0.06
029,68,1,2,15,23,723,1118.6219977124128,1119.7593376929872,"[78, 0, 176]",176,l,0.6144807694945484,colour,0.06
029,68,1,2,15,24,724,1120.278141866438,1121.543315961957,"[84, 0, 170]",170,l,0.7417977647855878,colour,0.06
029,68,1,2,15,25,725,1122.0593695156276,1122.8233656180091,"[65, 0, 189]",189,a,0.2405752670019865,colour,0.06
029,68,1,2,15,26,726,1123.3406341862865,1123.9913672911935,"[89, 0, 165]",165,l,0.1273638631682843,colour,0.06
029,68,1,2,15,27,727,1124.5126188232098,1125.0873684159014,"[98, 0, 156]",156,l,0.05138468346558511,colour,0.06
029,68,1,2,15,28,728,1125.6062690818217,1126.9833592220675,"[73, 0, 181]",181,a,0.8537528002634645,colour,0.06
029,68,1,2,15,29,729,1127.4984403699636,1128.1913555546198,"[92, 0, 162]",162,l,0.16661060927435756,colour,0.06
029,68,1,2,15,30,730,1128.7048432019074,1129.8953295387328,"[54, 0, 200]",200,a,0.6674510764423758,colour,0.06
029,68,1,2,15,31,731,1130.4079475742765,1131.2633013583254,"[86, 0, 168]",168,l,0.3319802100304514,colour,0.06
029,68,1,2,15,32,732,1131.782938909717,1133.2634167550132,"[52, 0, 202]",202,a,0.957186191342771,colour,0.06
029,68,1,2,15,33,733,1133.7804029358085,1134.4793223014567,"[90, 0, 164]",164,l,0.1759313668590039,colour,0.06
029,68,1,2,15,34,734,1134.9992835940793,1135.5353130130097,"[72, 0, 182]",182,a,0.01279014628380537,colour,0.06
029,68,1,2,15,35,735,1136.0461654372048,1136.7113463857677,"[99, 0, 155]",155,l,0.14185542380437255,colour,0.06
029,68,1,2,15,36,736,1137.218082332518,1137.927302738186,"[97, 0, 157]",157,l,0.1861233115196228,colour,0.06
029,68,1,2,15,37,737,1138.4368609848898,1139.1593520289753,"[60, 0, 194]",194,a,0.199245470110327,colour,0.06
029,68,1,2,15,38,738,1139.6725261749234,1140.4313790434971,"[70, 0, 184]",184,a,0.23541155317798257,colour,0.06
029,68,1,2,15,39,739,1140.9382741041481,1141.7673099220265,"[82, 0, 172]",172,a,0.30577488406561315,colour,0.06
029,68,1,2,15,40,740,1142.2820247933269,1142.9033320939634,"[55, 0, 199]",199,a,0.097927819006145,colour,0.06
029,68,1,2,15,41,741,1143.4226195164956,1144.919409672264,"[80, 0, 174]",174,a,0.9741006924305111,colour,0.06
029,68,1,2,15,42,742,1145.4381614641752,1146.0233113460708,"[51, 0, 203]",203,a,0.061762523371726274,colour,0.06
029,68,1,2,15,43,743,1146.5319275134243,1147.2313088602386,"[91, 0, 163]",163,l,0.17591915768571198,colour,0.06
029,68,1,2,15,44,744,1147.7514911005273,1148.4473589479458,"[62, 0, 192]",192,a,0.1724797012284398,colour,0.06
029,68,1,2,15,45,745,1148.954548605252,1149.6313342237845,"[95, 0, 159]",159,l,0.1537243644706905,colour,0.06
029,68,1,2,15,46,746,1150.1420176883694,1151.191333892988,"[3, 0, 251]",251,a,0.5261844522319734,colour,0.06
029,68,1,2,15,47,747,1151.7045517559163,1153.7753219294827,"[79, 0, 175]",175,a,1.5473717872519046,colour,0.06
029,68,1,2,15,48,748,1154.2827171743847,1155.327292261878,"[74, 0, 180]",180,l,0.5212326273322105,colour,0.06
029,68,1,2,15,49,749,1155.8452603006735,1156.7913372800685,"[64, 0, 190]",190,a,0.42283258703537285,colour,0.06
029,68,1,2,15,50,750,1157.2983390728477,1158.2873102056328,"[59, 0, 195]",195,a,0.4644668272230774,colour,0.06
029,68,1,2,16,1,751,1163.0799889250193,1164.6392966068815,"[98, 0, 156]",156,l,1.0353890252299607,colour,0.06
029,68,1,2,16,2,752,1165.1588522384409,1165.9673612008337,"[83, 0, 171]",171,l,0.28515823162160814,colour,0.06
029,68,1,2,16,3,753,1166.4869656690862,1167.119398329407,"[51, 0, 203]",203,a,0.10903348634019494,colour,0.06
029,68,1,2,16,4,754,1167.6276222260203,1168.8473126315512,"[61, 0, 193]",193,a,0.6963865424040705,colour,0.06
029,68,1,2,16,5,755,1169.3619719706476,1170.0313020860776,"[84, 0, 170]",170,l,0.14603137224912643,colour,0.06
029,68,1,2,16,6,756,1170.5495521184057,1171.3673101582099,"[59, 0, 195]",195,a,0.29464794881641865,colour,0.06
029,68,1,2,16,7,757,1171.8776419183705,1172.5912840322126,"[31, 0, 223]",223,a,0.19037330290302634,colour,0.06
029,68,1,2,16,8,758,1173.1120125367306,1174.0153044585604,"[69, 0, 185]",185,a,0.38005343708209693,colour,0.06
029,68,1,2,16,9,759,1174.5338526321575,1175.1272902139463,"[52, 0, 202]",202,a,0.07002934929914773,colour,0.06
029,68,1,2,16,10,760,1175.637555807829,1176.2876107099,"[74, 0, 180]",180,a,0.12664509424939752,colour,0.06
029,68,1,2,16,11,761,1176.7938964909408,1177.4313168157823,"[67, 0, 187]",187,a,0.1141369417309761,colour,0.06
029,68,1,2,16,12,762,1177.950172583107,1178.5352960776072,"[76, 0, 178]",178,a,0.06193384644575417,colour,0.06
029,68,1,2,16,13,763,1179.043898066273,1179.9593291070778,"[81, 0, 173]",173,l,0.39216971304267645,colour,0.06
029,68,1,2,16,14,764,1180.4656318232883,1181.0073196263984,"[50, 0, 204]",204,a,0.024635062320157886,colour,0.06
029,68,1,2,16,15,765,1181.5224811190274,1182.1513175719883,"[54, 0, 200]",200,a,0.10620488482527435,colour,0.06
029,68,1,2,16,16,766,1182.6534522168804,1184.0474210181274,"[96, 0, 158]",158,l,0.8707291348837316,colour,0.06
029,68,1,2,16,17,767,1184.5597700569779,1186.159319339553,"[57, 0, 197]",197,a,1.076667228480801,colour,0.06
029,68,1,2,16,18,768,1186.6689996784553,1187.879299222026,"[4, 0, 250]",250,a,0.6870173418428749,colour,0.06
029,68,1,2,16,19,769,1188.387773604598,1189.0872943729628,"[70, 0, 184]",184,a,0.17615861585363746,colour,0.06
029,68,1,2,16,20,770,1189.606556195533,1191.207256295951,"[64, 0, 190]",190,a,1.0774265634827316,colour,0.06
029,68,1,2,16,21,771,1191.7158724630717,1192.6873166647274,"[77, 0, 177]",177,a,0.4481824799440801,colour,0.06
029,68,1,2,16,22,772,1193.2002812847495,1193.847285456257,"[89, 0, 165]",165,l,0.12368219159543514,colour,0.06
029,68,1,2,16,23,773,1194.3564955431502,1194.935311594978,"[66, 0, 188]",188,a,0.055429087253287435,colour,0.06
029,68,1,2,16,24,774,1195.450320669217,1196.087315640645,"[88, 0, 166]",166,l,0.11372537282295525,colour,0.06
029,68,1,2,16,25,775,1196.6064983000979,1197.2873527409974,"[80, 0, 174]",174,l,0.15758247929625213,colour,0.06
029,68,1,2,16,26,776,1197.7952595916577,1198.3753001105506,"[73, 0, 181]",181,a,0.05684929573908448,colour,0.06
029,68,1,2,16,27,777,1198.8889102439862,1200.1033038157038,"[56, 0, 198]",198,a,0.6910849823616445,colour,0.06
029,68,1,2,16,28,778,1200.6233706593048,1201.5432655496988,"[79, 0, 175]",175,a,0.39668751950375736,colour,0.06
029,68,1,2,16,29,779,1202.0608192624059,1202.7032926306129,"[91, 0, 163]",163,l,0.11950427410192788,colour,0.06
029,68,1,2,16,30,780,1203.217170579359,1204.183315190021,"[62, 0, 192]",192,a,0.44290218758396804,colour,0.06
029,68,1,2,16,31,781,1204.7014829085674,1205.3113261421677,"[92, 0, 162]",162,l,0.08722229930572212,colour,0.06
029,68,1,2,16,32,782,1205.8264116225764,1206.5592588449363,"[78, 0, 176]",176,l,0.21026252186857164,colour,0.06
029,68,1,2,16,33,783,1207.0763974441215,1208.1032790036406,"[90, 0, 164]",164,l,0.5035304350312799,colour,0.06
029,68,1,2,16,34,784,1208.6234163455665,1209.5912895461079,"[58, 0, 196]",196,a,0.4447749250102788,colour,0.06
029,68,1,2,16,35,785,1210.107631000923,1210.9192568599246,"[95, 0, 159]",159,l,0.2881683958694339,colour,0.06
029,68,1,2,16,36,786,1211.4357877548318,1212.3512495155446,"[71, 0, 183]",183,a,0.39203029149211943,colour,0.06
029,68,1,2,16,37,787,1212.8589090309106,1213.5912954537198,"[65, 0, 189]",189,a,0.20916526718065143,colour,0.06
029,68,1,2,16,38,788,1214.1090082800947,1215.295289130183,"[87, 0, 167]",167,l,0.6633184512611479,colour,0.06
029,68,1,2,16,39,789,1215.8120748433284,1217.1352600799873,"[99, 0, 155]",155,l,0.79987389058806,colour,0.06
029,68,1,2,16,40,790,1217.655860584695,1218.295280071674,"[60, 0, 194]",194,a,0.11653506965376437,colour,0.06
029,68,1,2,16,41,791,1218.8119929232635,1219.75130756828,"[93, 0, 161]",161,l,0.4159442218951881,colour,0.06
029,68,1,2,16,42,792,1220.2652233263943,1221.0072849679273,"[18, 0, 236]",236,a,0.21905473829247057,colour,0.06
029,68,1,2,16,43,793,1221.5152150555514,1222.1352766214404,"[75, 0, 179]",179,l,0.09718069317750633,colour,0.06
029,68,1,2,16,44,794,1222.6575923252385,1223.5913029366639,"[63, 0, 191]",191,a,0.4104114742949605,colour,0.06
029,68,1,2,16,45,795,1224.1107148146257,1224.999239089666,"[86, 0, 168]",168,l,0.36515148892067373,colour,0.06
029,68,1,2,16,46,796,1225.5170547098387,1226.0555078564212,"[68, 0, 186]",186,a,0.015529738506302238,colour,0.06
029,68,1,2,16,47,797,1226.5638376974966,1227.2712381412275,"[55, 0, 199]",199,a,0.18432501121424139,colour,0.06
029,68,1,2,16,48,798,1227.7826041406952,1228.3192688329145,"[94, 0, 160]",160,l,0.013345862971618772,colour,0.06
029,68,1,2,16,49,799,1228.8295135530643,1230.3992628778797,"[97, 0, 157]",157,l,1.0464966618455946,colour,0.06
029,68,1,2,16,50,800,1230.9076494330075,1231.5912741860375,"[53, 0, 201]",201,a,0.16031419462524354,colour,0.06
