id,age,condition,counterbalance,block,trialinblock,trial,tstart,tend,trialstim,trialintensity,response,RT,trialtype,colourfreq
157,21,0,2,Practice,1,NA,5.513778887689114e-06,2.577055560541339,"[48, 0, 206]",206,a,2.0527170641580597,colour,0.5
157,21,0,2,Practice,2,NA,3.0958617032738402,3.8247086327755824,"[39, 0, 215]",215,a,0.21295800351072103,colour,0.5
157,21,0,2,Practice,3,NA,4.338539319927804,5.624707766226493,"[50, 0, 204]",204,a,0.7629110569832847,colour,0.5
157,21,0,2,Practice,4,NA,6.142206340562552,6.848680064780638,"[25, 0, 229]",229,a,0.18357709771953523,colour,0.5
157,21,0,2,Practice,5,NA,7.361272500362247,12.136692103813402,"[91, 0, 163]",163,l,4.252416638541035,colour,0.5
157,21,0,2,Practice,6,NA,12.658149223425426,13.744704741518945,"[80, 0, 174]",174,l,0.5635340424487367,colour,0.5
157,21,0,2,Practice,7,NA,14.251881008036435,15.104691335000098,"[74, 0, 180]",180,l,0.3294922853820026,colour,0.5
157,21,0,2,Practice,8,NA,15.611162223503925,16.600660322001204,"[4, 0, 250]",250,a,0.4661335831042379,colour,0.5
157,21,0,2,Practice,9,NA,17.111179158906452,18.25668592832517,"[96, 0, 158]",158,l,0.6199024522211403,colour,0.5
157,21,0,2,Practice,10,NA,18.769680086756125,19.640672704554163,"[46, 0, 208]",208,a,0.3476422808598727,colour,0.5
157,21,0,2,1,1,1,4.444883626420051,5.367971031810157,"[75, 0, 179]",179,l,0.3989812780637294,colour,0.5
157,21,0,2,1,2,2,5.884562578983605,9.25594195339363,"[64, 0, 190]",190,l,2.84830118494574,colour,0.5
157,21,0,2,1,3,3,9.774898545234464,13.047943257843144,"[85, 0, 169]",169,l,2.7499133539386094,colour,0.5
157,21,0,2,1,4,4,13.556139191496186,14.33592772774864,"[70, 0, 184]",184,l,0.25646734389010817,colour,0.5
157,21,0,2,1,5,5,14.85321835137438,15.471949505852535,"[55, 0, 199]",199,a,0.0954536790959537,colour,0.5
157,21,0,2,1,6,6,15.978269945131615,17.03190348879434,"[47, 0, 207]",207,a,0.5302426405251026,colour,0.5
157,21,0,2,1,7,7,17.540836701984517,21.015920827514492,"[90, 0, 164]",164,l,2.952112668310292,colour,0.5
157,21,0,2,1,8,8,21.526526704314165,22.48801369324792,"[73, 0, 181]",181,l,0.43819572881329805,colour,0.5
157,21,0,2,1,9,9,22.995241553522646,23.639921246562153,"[25, 0, 229]",229,a,0.12121120223309845,colour,0.5
157,21,0,2,1,10,10,24.151452267426066,25.327974796993658,"[56, 0, 198]",198,a,0.6531714048469439,colour,0.5
157,21,0,2,1,11,11,25.840767700225115,26.583994338056073,"[15, 0, 239]",239,a,0.21991844242438674,colour,0.5
157,21,0,2,1,12,12,27.09089294320438,27.751976318773814,"[51, 0, 203]",203,a,0.14029618783388287,colour,0.5
157,21,0,2,1,13,13,28.26030970469583,28.81594674254302,"[79, 0, 175]",175,l,0.030148905236274004,colour,0.5
157,21,0,2,1,14,14,29.325100903282873,30.29595276049804,"[98, 0, 156]",156,l,0.446387330070138,colour,0.5
157,21,0,2,1,15,15,30.810766093316488,32.00789109687321,"[94, 0, 160]",160,l,0.6738447711104527,colour,0.5
157,21,0,2,1,16,16,32.513936237897724,34.37658089748584,"[36, 0, 218]",218,a,1.339380968711339,colour,0.5
157,21,0,2,1,17,17,34.88884644105565,35.93594608095009,"[50, 0, 204]",204,l,0.5237260659923777,colour,0.5
157,21,0,2,1,18,18,36.45285152317956,37.783934946055524,"[88, 0, 166]",166,l,0.8081025133142248,colour,0.5
157,21,0,2,1,19,19,38.296544317156076,38.92817983322311,"[40, 0, 214]",214,a,0.10831629298627377,colour,0.5
157,21,0,2,1,20,20,39.4372044185875,40.039930068771355,"[18, 0, 236]",236,a,0.07954624225385487,colour,0.5
157,21,0,2,1,21,21,40.54654116637539,41.69593401346356,"[32, 0, 222]",222,a,0.62596059020143,colour,0.5
157,21,0,2,1,22,22,42.2028385263402,43.38396157009993,"[86, 0, 168]",168,l,0.6579479682259262,colour,0.5
157,21,0,2,1,23,23,43.890242624795064,44.79993690585252,"[93, 0, 161]",161,l,0.38636836246587336,colour,0.5
157,21,0,2,1,24,24,45.312172123230994,45.99989169242326,"[12, 0, 242]",242,a,0.16442397679202259,colour,0.5
157,21,0,2,1,25,25,46.51535014482215,47.391925528412685,"[44, 0, 210]",210,a,0.3533093297155574,colour,0.5
157,21,0,2,1,26,26,47.9072508609388,48.70390151650645,"[3, 0, 251]",251,a,0.2733373400988057,colour,0.5
157,21,0,2,1,27,27,49.21979162399657,49.99191158625763,"[34, 0, 220]",220,a,0.2488921113545075,colour,0.5
157,21,0,2,1,28,28,50.50100627634674,51.51993017899804,"[74, 0, 180]",180,l,0.4956503655994311,colour,0.5
157,21,0,2,1,29,29,52.03219926718157,52.807901258114725,"[48, 0, 206]",206,a,0.25222759251482785,colour,0.5
157,21,0,2,1,30,30,53.329088987084106,54.159897111705504,"[76, 0, 178]",178,l,0.30561261950060725,colour,0.5
157,21,0,2,1,31,31,54.67562377313152,55.5759035613155,"[13, 0, 241]",241,a,0.377114558708854,colour,0.5
157,21,0,2,1,32,32,56.09746859467123,57.02390959812328,"[22, 0, 232]",232,a,0.4030245003523305,colour,0.5
157,21,0,2,1,33,33,57.534998330054805,58.2958944713464,"[10, 0, 244]",244,a,0.23760685045272112,colour,0.5
157,21,0,2,1,34,34,58.816273634671234,59.5279496696312,"[21, 0, 233]",233,a,0.1883430271409452,colour,0.5
157,21,0,2,1,35,35,60.0363074738998,60.871913429466076,"[57, 0, 197]",197,a,0.31228870165068656,colour,0.5
157,21,0,2,1,36,36,61.38011408923194,62.15193551639095,"[7, 0, 247]",247,a,0.2484360378002748,colour,0.5
157,21,0,2,1,37,37,62.661422476987354,63.775917030870914,"[92, 0, 162]",162,l,0.5911387031665072,colour,0.5
157,21,0,2,1,38,38,64.28642483998556,65.03201100882143,"[4, 0, 250]",250,a,0.22228348720818758,colour,0.5
157,21,0,2,1,39,39,65.55210620921571,66.41594894812442,"[20, 0, 234]",234,a,0.34054872195702046,colour,0.5
157,21,0,2,1,40,40,66.92704713228159,67.72788121923804,"[30, 0, 224]",224,a,0.27740025462117046,colour,0.5
157,21,0,2,1,41,41,68.23956268921029,69.24793703504838,"[71, 0, 183]",183,l,0.483378914417699,colour,0.5
157,21,0,2,1,42,42,69.75687773129903,70.78392076760065,"[58, 0, 196]",196,l,0.5042519605485722,colour,0.5
157,21,0,2,1,43,43,71.30381234979723,72.51188390678726,"[81, 0, 173]",173,l,0.6895765525987372,colour,0.5
157,21,0,2,1,44,44,73.03341822023503,73.78389083535876,"[29, 0, 225]",225,a,0.2224552039988339,colour,0.5
157,21,0,2,1,45,45,74.2923045657808,75.17594751447905,"[59, 0, 195]",195,a,0.36860906216315925,colour,0.5
157,21,0,2,1,46,46,75.6902386075817,76.64793325413484,"[1, 0, 253]",253,a,0.4343041372485459,colour,0.5
157,21,0,2,1,47,47,77.1589412476169,78.02395016432274,"[24, 0, 230]",230,a,0.341810604208149,colour,0.5
157,21,0,2,1,48,48,78.52369613363408,79.35989797813818,"[41, 0, 213]",213,a,0.31304882431868464,colour,0.5
157,21,0,2,1,49,49,79.86734048451763,80.95189172076061,"[97, 0, 157]",157,l,0.5612922714790329,colour,0.5
157,21,0,2,1,50,50,81.47346975107212,82.27187538403086,"[16, 0, 238]",238,a,0.27545623120386153,colour,0.5
157,21,0,2,2,1,51,92.99489063688088,93.95186848379672,"[26, 0, 228]",228,a,0.4328063412103802,colour,0.5
157,21,0,2,2,2,52,94.46445343643427,95.1439227211522,"[14, 0, 240]",240,a,0.15619141550268978,colour,0.5
157,21,0,2,2,3,53,95.65195087634493,96.32792871701531,"[30, 0, 224]",224,a,0.1527007590048015,colour,0.5
157,21,0,2,2,4,54,96.83937348565087,97.6318852143595,"[1, 0, 253]",253,a,0.269201957853511,colour,0.5
157,21,0,2,2,5,55,98.1519882917637,98.79190126759931,"[0, 0, 254]",254,a,0.11469777848105878,colour,0.5
157,21,0,2,2,6,56,99.31010994606186,100.04791411326732,"[69, 0, 185]",185,l,0.21443531953264028,colour,0.5
157,21,0,2,2,7,57,100.56010088755284,101.33587889082264,"[74, 0, 180]",180,l,0.2524150632089004,colour,0.5
157,21,0,2,2,8,58,101.84378101537004,102.63987910503056,"[21, 0, 233]",233,a,0.27273672504816204,colour,0.5
157,21,0,2,2,9,59,103.15627097233664,104.03188694734126,"[84, 0, 170]",170,l,0.35228808724787086,colour,0.5
157,21,0,2,2,10,60,104.54689562763087,105.56789746147115,"[6, 0, 248]",248,a,0.4976637060754001,colour,0.5
157,21,0,2,2,11,61,106.07814690773375,106.89593251689803,"[43, 0, 211]",211,a,0.29449356149416417,colour,0.5
157,21,0,2,2,12,62,107.40629420918413,108.22387265542056,"[83, 0, 171]",171,l,0.2929721346590668,colour,0.5
157,21,0,2,2,13,63,108.73568133765366,110.00821917050052,"[54, 0, 200]",200,l,0.749225698877126,colour,0.5
157,21,0,2,2,14,64,110.51699090690818,111.3118976126425,"[50, 0, 204]",204,a,0.2717658948386088,colour,0.5
157,21,0,2,2,15,65,111.82946156535763,112.62390510831028,"[73, 0, 181]",181,l,0.27112983365077525,colour,0.5
157,21,0,2,2,16,66,113.1419511284912,113.85587878047954,"[40, 0, 214]",214,a,0.18906297744251788,colour,0.5
157,21,0,2,2,17,67,114.36228271515574,115.4479316000361,"[15, 0, 239]",239,a,0.5622694032499567,colour,0.5
157,21,0,2,2,18,68,115.95601922599599,116.95190865604673,"[64, 0, 190]",190,l,0.4724674131721258,colour,0.5
157,21,0,2,2,19,69,117.4651162790833,118.55184430163354,"[11, 0, 243]",243,a,0.563577365479432,colour,0.5
157,21,0,2,2,20,70,119.06896714691538,119.89589155686554,"[49, 0, 205]",205,a,0.3065369757823646,colour,0.5
157,21,0,2,2,21,71,120.41003220085986,121.15984512399882,"[90, 0, 164]",164,l,0.22698246280197054,colour,0.5
157,21,0,2,2,22,72,121.67530081956647,122.47187821974512,"[41, 0, 213]",213,a,0.2733920847531408,colour,0.5
157,21,0,2,2,23,73,122.98916214797646,123.81586442876142,"[52, 0, 202]",202,a,0.31590105639770627,colour,0.5
157,21,0,2,2,24,74,124.33612701378297,125.11991663067602,"[62, 0, 192]",192,a,0.2608697535470128,colour,0.5
157,21,0,2,2,25,75,125.6290877268184,126.46385597216431,"[44, 0, 210]",210,a,0.31147225911263376,colour,0.5
157,21,0,2,2,26,76,126.97281517914962,127.72792651155032,"[2, 0, 252]",252,a,0.23181298305280507,colour,0.5
157,21,0,2,2,27,77,128.23840675142128,129.07988534355536,"[99, 0, 155]",155,l,0.3140858205733821,colour,0.5
157,21,0,2,2,28,78,129.58633338904474,130.41584615432657,"[56, 0, 198]",198,l,0.30607578228227794,colour,0.5
157,21,0,2,2,29,79,130.9301770258462,131.69583752122708,"[9, 0, 245]",245,a,0.24230188759975135,colour,0.5
157,21,0,2,2,30,80,132.21200017014053,133.19192505581304,"[31, 0, 223]",223,a,0.45659345330204815,colour,0.5
157,21,0,2,2,31,81,133.7124944467796,134.64799469406717,"[18, 0, 236]",236,a,0.4122018979396671,colour,0.5
157,21,0,2,2,32,82,135.16554722527508,135.8638514034683,"[76, 0, 178]",178,l,0.17499165039043874,colour,0.5
157,21,0,2,2,33,83,136.38432784681208,137.15183311642613,"[7, 0, 247]",247,a,0.2443148341262713,colour,0.5
157,21,0,2,2,34,84,137.66552950220648,138.83194673317485,"[59, 0, 195]",195,l,0.6431054909480736,colour,0.5
157,21,0,2,2,35,85,139.35312264680397,140.01585781213362,"[77, 0, 177]",177,l,0.13941712374798954,colour,0.5
157,21,0,2,2,36,86,140.52493635448627,141.11185618012678,"[86, 0, 168]",168,l,0.06379555619787425,colour,0.5
157,21,0,2,2,37,87,141.61866301915143,142.31186334812082,"[32, 0, 222]",222,a,0.16998901963233948,colour,0.5
157,21,0,2,2,38,88,142.82174376072362,143.5838781534694,"[92, 0, 162]",162,l,0.23938939697109163,colour,0.5
157,21,0,2,2,39,89,144.1042998522753,144.86387857887894,"[45, 0, 209]",209,a,0.23625517124310136,colour,0.5
157,21,0,2,2,40,90,145.36998909839895,146.0158897136571,"[55, 0, 199]",199,l,0.12253609986510128,colour,0.5
157,21,0,2,2,41,91,146.52630299981683,147.39982174534816,"[71, 0, 183]",183,l,0.35047285142354667,colour,0.5
157,21,0,2,2,42,92,147.91685400600545,148.51187287911307,"[5, 0, 249]",249,a,0.07177054218482226,colour,0.5
157,21,0,2,2,43,93,149.02628212596755,149.86383013578597,"[61, 0, 193]",193,l,0.31224537861999124,colour,0.5
157,21,0,2,2,44,94,150.37205088173505,151.10382920631673,"[19, 0, 235]",235,a,0.20846303994767368,colour,0.5
157,21,0,2,2,45,95,151.62192682025488,152.44788552005775,"[47, 0, 207]",207,a,0.30248115060385317,colour,0.5
157,21,0,2,2,46,96,152.9657054725103,153.62385587755125,"[68, 0, 186]",186,l,0.13477604335639626,colour,0.5
157,21,0,2,2,47,97,154.13761409721337,154.8798691171687,"[70, 0, 184]",184,l,0.21892161841969937,colour,0.5
157,21,0,2,2,48,98,155.38764875556808,156.22388447076082,"[78, 0, 176]",176,l,0.3129448489053175,colour,0.5
157,21,0,2,2,49,99,156.7315183862811,157.4798791995272,"[89, 0, 165]",165,l,0.22521488228812814,colour,0.5
157,21,0,2,2,50,100,157.99695950944442,159.44789024617057,"[33, 0, 221]",221,a,0.9276162396417931,colour,0.5
157,21,0,2,3,1,101,233.14236545434687,235.95985449757427,"[75, 0, 179]",179,l,2.293557389639318,colour,0.5
157,21,0,2,3,2,102,236.47127169696614,237.47182544437237,"[33, 0, 221]",221,a,0.4772325550438836,colour,0.5
157,21,0,2,3,3,103,237.986898715375,238.75179869437125,"[20, 0, 234]",234,a,0.2416150204371661,colour,0.5
157,21,0,2,3,4,104,239.26813621085603,240.29582279140595,"[71, 0, 183]",183,l,0.5026710630627349,colour,0.5
157,21,0,2,3,5,105,240.81662967137527,241.62378577305935,"[69, 0, 185]",185,l,0.2838286077603698,colour,0.5
157,21,0,2,3,6,106,242.14476830826607,242.90380943531636,"[98, 0, 156]",156,l,0.2361106297466904,colour,0.5
157,21,0,2,3,7,107,243.4100069947308,244.3758790640859,"[39, 0, 215]",215,a,0.4426166493212804,colour,0.5
157,21,0,2,3,8,108,244.8943575270241,245.7038633134216,"[43, 0, 211]",211,a,0.2866615414386615,colour,0.5
157,21,0,2,3,9,109,246.22244850860443,246.79978409362957,"[81, 0, 173]",173,l,0.05397106963209808,colour,0.5
157,21,0,2,3,10,110,247.31625118548982,248.22389707388356,"[29, 0, 225]",225,a,0.3843755021225661,colour,0.5
157,21,0,2,3,11,111,248.73805937939323,249.8078075228259,"[57, 0, 197]",197,l,0.5464285265188664,colour,0.5
157,21,0,2,3,12,112,250.31621692085173,251.08780164655764,"[8, 0, 246]",246,a,0.24827574251685292,colour,0.5
157,21,0,2,3,13,113,251.5973949455656,252.3598369320389,"[31, 0, 223]",223,a,0.23901051725260913,colour,0.5
157,21,0,2,3,14,114,252.87865370861255,253.65582395717502,"[66, 0, 188]",188,l,0.25414916675072163,colour,0.5
157,21,0,2,3,15,115,254.17685769242235,254.98383104952518,"[34, 0, 220]",220,a,0.2818928549531847,colour,0.5
157,21,0,2,3,16,116,255.50548233522568,256.17582502844743,"[0, 0, 254]",254,a,0.1471309900516644,colour,0.5
157,21,0,2,3,17,117,256.69296441518236,257.4718167796964,"[13, 0, 241]",241,a,0.26615083345677704,colour,0.5
157,21,0,2,3,18,118,257.97912498458754,258.65577000030316,"[82, 0, 172]",172,l,0.16517070855479687,colour,0.5
157,21,0,2,3,19,119,259.16233029181603,259.9358192625223,"[79, 0, 175]",175,l,0.2506557534215972,colour,0.5
157,21,0,2,3,20,120,260.4435457318323,261.1677492178278,"[10, 0, 244]",244,a,0.19489819870796055,colour,0.5
157,21,0,2,3,21,121,261.6837968637701,262.46377326443326,"[85, 0, 169]",169,l,0.2566622975282371,colour,0.5
157,21,0,2,3,22,122,262.98069012828637,263.67974300764035,"[92, 0, 162]",162,l,0.18757502757944167,colour,0.5
157,21,0,2,3,23,123,264.1950395894237,264.8238122394541,"[93, 0, 161]",161,l,0.10547272535040975,colour,0.5
157,21,0,2,3,24,124,265.33563234331086,265.9997857478447,"[5, 0, 249]",249,a,0.1416805563494563,colour,0.5
157,21,0,2,3,25,125,266.4991256620269,267.1757501977263,"[95, 0, 159]",159,a,0.15327183564659208,colour,0.5
157,21,0,2,3,26,126,267.6866750897607,269.2317661154084,"[76, 0, 178]",178,l,1.0217493533855304,colour,0.5
157,21,0,2,3,27,127,269.74283988110255,270.5358454926172,"[27, 0, 227]",227,a,0.269963655853644,colour,0.5
157,21,0,2,3,28,128,271.0553873395547,272.0318073903909,"[30, 0, 224]",224,l,0.4531725075794384,colour,0.5
157,21,0,2,3,29,129,272.5396874595899,273.71179379487876,"[49, 0, 205]",205,a,0.6488048351602629,colour,0.5
157,21,0,2,3,30,130,274.2272026226856,275.1441318533616,"[28, 0, 226]",226,a,0.3936332444427535,colour,0.5
157,21,0,2,3,31,131,275.6647650472587,276.4237797865644,"[87, 0, 167]",167,l,0.23579082684591413,colour,0.5
157,21,0,2,3,32,132,276.9303077827208,278.8798088587355,"[65, 0, 189]",189,l,1.426126714446582,colour,0.5
157,21,0,2,3,33,133,279.40034516656306,280.05574889015406,"[84, 0, 170]",170,l,0.13205181120429188,colour,0.5
157,21,0,2,3,34,134,280.57224197580945,281.2957491421839,"[11, 0, 243]",243,a,0.20014777092728764,colour,0.5
157,21,0,2,3,35,135,281.80656769580673,282.49576064245775,"[97, 0, 157]",157,l,0.16578235127963126,colour,0.5
157,21,0,2,3,36,136,283.0097402035026,283.7198065901175,"[74, 0, 180]",180,l,0.18696141568943858,colour,0.5
157,21,0,2,3,37,137,284.2285145234782,284.9197582259076,"[46, 0, 208]",208,a,0.16793117462657392,colour,0.5
157,21,0,2,3,38,138,285.4316161388997,286.28778715303633,"[18, 0, 236]",236,a,0.3328943264205009,colour,0.5
157,21,0,2,3,39,139,286.806604323443,287.5677548892563,"[53, 0, 201]",201,a,0.23787387798074633,colour,0.5
157,21,0,2,3,40,140,288.0892403657781,288.7517616727855,"[91, 0, 163]",163,l,0.13922335160896182,colour,0.5
157,21,0,2,3,41,141,289.26112260262016,290.15979195479304,"[22, 0, 232]",232,a,0.375390695175156,colour,0.5
157,21,0,2,3,42,142,290.66737742722034,291.6877656490542,"[50, 0, 204]",204,a,0.49711114016827196,colour,0.5
157,21,0,2,3,43,143,292.2116110504139,293.0317672181409,"[6, 0, 248]",248,a,0.2941895123803988,colour,0.5
157,21,0,2,3,44,144,293.54352115583606,294.1517858549487,"[7, 0, 247]",247,a,0.08515263895969838,colour,0.5
157,21,0,2,3,45,145,294.6683868543478,295.67978751228657,"[37, 0, 217]",217,a,0.4880613486748189,colour,0.5
157,21,0,2,3,46,146,296.1996531004552,297.91176906134933,"[99, 0, 155]",155,l,1.188801069976762,colour,0.5
157,21,0,2,3,47,147,298.4183640113333,300.1677901777439,"[83, 0, 171]",171,l,1.2247662917943671,colour,0.5
157,21,0,2,3,48,148,300.68528126901947,301.2957652899204,"[9, 0, 245]",245,a,0.09912195999640971,colour,0.5
157,21,0,2,3,49,149,301.81399996217806,302.4397860786412,"[89, 0, 165]",165,l,0.10246019787155092,colour,0.5
157,21,0,2,3,50,150,302.954597048345,303.71174929023255,"[48, 0, 206]",206,a,0.23983523051720113,colour,0.5
157,21,0,2,4,1,151,308.09537924209144,309.12773919838946,"[90, 0, 164]",164,l,0.5081982966512442,colour,0.5
157,21,0,2,4,2,152,309.64297079551034,310.2557540888665,"[57, 0, 197]",197,a,0.08973976236302406,colour,0.5
157,21,0,2,4,3,153,310.7680582293542,311.4957988455426,"[88, 0, 166]",166,l,0.204373343847692,colour,0.5
157,21,0,2,4,4,154,312.0024453892838,312.73576010682154,"[53, 0, 201]",201,a,0.21011876815464348,colour,0.5
157,21,0,2,4,5,155,313.25239261391107,314.1277553460095,"[16, 0, 238]",238,a,0.35019755305256695,colour,0.5
157,21,0,2,4,6,156,314.6441672994988,315.43175122805405,"[9, 0, 245]",245,a,0.2643194500124082,colour,0.5
157,21,0,2,4,7,157,315.94175294518936,316.6077578194672,"[97, 0, 157]",157,l,0.1428097125608474,colour,0.5
157,21,0,2,4,8,158,317.1292519605486,317.88776612165384,"[31, 0, 223]",223,a,0.2352134487591684,colour,0.5
157,21,0,2,4,9,159,318.3948884312995,319.35203760128934,"[44, 0, 210]",210,a,0.43263619986828417,colour,0.5
157,21,0,2,4,10,160,319.86488209827803,320.623803889961,"[75, 0, 179]",179,l,0.235574999358505,colour,0.5
157,21,0,2,4,11,161,321.13048194139265,321.93576097337063,"[73, 0, 181]",181,l,0.2819247565930709,colour,0.5
157,21,0,2,4,12,162,322.4430416090181,323.23983011057135,"[62, 0, 192]",192,l,0.2737922320375219,colour,0.5
157,21,0,2,4,13,163,323.75555952906143,324.48772736720275,"[69, 0, 185]",185,l,0.20893250417429954,colour,0.5
157,21,0,2,4,14,164,325.0055457444396,325.70374161505606,"[17, 0, 237]",237,a,0.1752397734671831,colour,0.5
157,21,0,2,4,15,165,326.22423696296755,326.8717401373433,"[23, 0, 231]",231,a,0.12413984059821814,colour,0.5
157,21,0,2,4,16,166,327.3804913936183,328.1197165569756,"[55, 0, 199]",199,a,0.21579290635418147,colour,0.5
157,21,0,2,4,17,167,328.6304756398313,329.32781332021113,"[29, 0, 225]",225,a,0.17398104188032448,colour,0.5
157,21,0,2,4,18,168,329.834971469827,330.5437905464787,"[65, 0, 189]",189,l,0.18619893002323806,colour,0.5
157,21,0,2,4,19,169,331.0537075867178,331.73578019300476,"[66, 0, 188]",188,l,0.1587959184544161,colour,0.5
157,21,0,2,4,20,170,332.25682850054,332.91184389207046,"[34, 0, 220]",220,a,0.1316528453025967,colour,0.5
157,21,0,2,4,21,171,333.4286796236411,334.19974841119256,"[18, 0, 236]",236,a,0.2477133305510506,colour,0.5
157,21,0,2,4,22,172,334.7099505959777,335.35979439667426,"[92, 0, 162]",162,l,0.12671559280715883,colour,0.5
157,21,0,2,4,23,173,335.8682128532091,336.4557978846133,"[35, 0, 219]",219,a,0.06502002314664423,colour,0.5
157,21,0,2,4,24,174,336.9768650967162,337.66379736782983,"[14, 0, 240]",240,a,0.16418885067105293,colour,0.5
157,21,0,2,4,25,175,338.1800509952009,338.82375040568877,"[74, 0, 180]",180,l,0.12038963963277638,colour,0.5
157,21,0,2,4,26,176,339.33624595520087,339.99970185861457,"[89, 0, 165]",165,l,0.1406825507292524,colour,0.5
157,21,0,2,4,27,177,340.508171121357,341.13578980288,"[56, 0, 198]",198,a,0.10438374138902873,colour,0.5
157,21,0,2,4,28,178,341.6362951071933,342.3837181732524,"[48, 0, 206]",206,a,0.22410384297836572,colour,0.5
157,21,0,2,4,29,179,342.90192212560214,343.64774538960773,"[43, 0, 211]",211,a,0.22254775767214596,colour,0.5
157,21,0,2,4,30,180,344.1654141054023,345.3917097009253,"[45, 0, 209]",209,a,0.7028574309078977,colour,0.5
157,21,0,2,4,31,181,345.89993832376786,346.5517261478817,"[67, 0, 187]",187,l,0.1284682072000578,colour,0.5
157,21,0,2,4,32,182,347.0645383495139,347.70372467965353,"[40, 0, 214]",214,a,0.115858442382887,colour,0.5
157,21,0,2,4,33,183,348.2206888049841,348.88770940783434,"[59, 0, 195]",195,a,0.14377069659531116,colour,0.5
157,21,0,2,4,34,184,349.4078475375427,350.06380776537117,"[47, 0, 207]",207,a,0.1326866908930242,colour,0.5
157,21,0,2,4,35,185,350.5817584748147,351.28775525151286,"[61, 0, 193]",193,a,0.18285911658313125,colour,0.5
157,21,0,2,4,36,186,351.8004508748418,352.583750941325,"[11, 0, 243]",243,a,0.2600155017571524,colour,0.5
157,21,0,2,4,37,187,353.09733232401777,353.73572466068435,"[3, 0, 251]",251,a,0.11501443048473448,colour,0.5
157,21,0,2,4,38,188,354.25366276712157,355.2557993811788,"[20, 0, 234]",234,a,0.47900683083571494,colour,0.5
157,21,0,2,4,39,189,355.7692850594176,356.64773121115286,"[36, 0, 218]",218,a,0.35518994403537363,colour,0.5
157,21,0,2,4,40,190,357.16155244607944,358.09576836193446,"[27, 0, 227]",227,a,0.41122279711999,colour,0.5
157,21,0,2,4,41,191,358.6147993906634,359.28773516544607,"[24, 0, 230]",230,a,0.14976463769562542,colour,0.5
157,21,0,2,4,42,192,359.8022302706959,360.39169276552275,"[84, 0, 170]",170,l,0.0662232224131003,colour,0.5
157,21,0,2,4,43,193,360.91153708612546,361.6317261006916,"[38, 0, 216]",216,a,0.19693477603141218,colour,0.5
157,21,0,2,4,44,194,362.14589037536643,362.88774958020076,"[58, 0, 196]",196,a,0.21851241250988096,colour,0.5
157,21,0,2,4,45,195,363.3959033722058,364.35174536763225,"[12, 0, 242]",242,l,0.4311805453617126,colour,0.5
157,21,0,2,4,46,196,364.86592697154265,365.43172680959105,"[81, 0, 173]",173,l,0.04235222120769322,colour,0.5
157,21,0,2,4,47,197,365.9441372883739,366.6557459756732,"[78, 0, 176]",176,l,0.18835917487740517,colour,0.5
157,21,0,2,4,48,198,367.16320620512124,367.8077342674369,"[64, 0, 190]",190,l,0.12169799581170082,colour,0.5
157,21,0,2,4,49,199,368.3191219284199,369.00775797700044,"[71, 0, 183]",183,l,0.16400256159249693,colour,0.5
157,21,0,2,4,50,200,369.52351575228386,370.07194068364333,"[37, 0, 217]",217,a,0.02505096362438053,colour,0.5
157,21,0,2,5,1,201,374.7436283606803,375.88770192477386,"[24, 0, 230]",230,a,0.619983978336677,colour,0.5
157,21,0,2,5,2,202,376.40075082785916,377.06369630701374,"[15, 0, 239]",239,a,0.13978103746194392,colour,0.5
157,21,0,2,5,3,203,377.5725141232833,378.15970215795096,"[59, 0, 195]",195,l,0.06383494078181684,colour,0.5
157,21,0,2,5,4,204,378.6653495145729,379.31973120803013,"[44, 0, 210]",210,l,0.13121843326371163,colour,0.5
157,21,0,2,5,5,205,379.8371431361884,380.48773288109805,"[78, 0, 176]",176,l,0.12774943839758635,colour,0.5
157,21,0,2,5,6,206,380.99622183607426,381.5357037081849,"[39, 0, 215]",215,a,0.016161861247383058,colour,0.5
157,21,0,2,5,7,207,382.0431450329488,382.62386375456117,"[13, 0, 241]",241,a,0.05747708608396351,colour,0.5
157,21,0,2,5,8,208,383.13683822064195,383.6957363028778,"[67, 0, 187]",187,l,0.03553514217492193,colour,0.5
157,21,0,2,5,9,209,384.2150162422331,385.1436919274274,"[21, 0, 233]",233,a,0.405747551121749,colour,0.5
157,21,0,2,5,10,210,385.65249792835675,386.33569457090925,"[80, 0, 174]",174,l,0.15990341326687485,colour,0.5
157,21,0,2,5,11,211,386.8570319614373,387.40770260221325,"[82, 0, 172]",172,l,0.027399073005653918,colour,0.5
157,21,0,2,5,12,212,387.9195250690682,388.81584197958,"[9, 0, 245]",245,a,0.37304219196084887,colour,0.5
157,21,0,2,5,13,213,389.32572514913045,390.0077075646259,"[38, 0, 216]",216,a,0.15882112458348274,colour,0.5
157,21,0,2,5,14,214,390.52894964441657,391.2477495643543,"[62, 0, 192]",192,a,0.195474001346156,colour,0.5
157,21,0,2,5,15,215,391.7632903306512,392.6156930270372,"[50, 0, 204]",204,a,0.3290283348178491,colour,0.5
157,21,0,2,5,16,216,393.11595690378454,393.86369977286085,"[60, 0, 194]",194,a,0.22434684599284083,colour,0.5
157,21,0,2,5,17,217,394.38158116536215,395.0077197739156,"[11, 0, 243]",243,l,0.10288633918389678,colour,0.5
157,21,0,2,5,18,218,395.51539149857126,396.2957475668518,"[63, 0, 191]",191,a,0.25688245752826333,colour,0.5
157,21,0,2,5,19,219,396.81225916324183,397.60770583176054,"[57, 0, 197]",197,a,0.2721254761563614,colour,0.5
157,21,0,2,5,20,220,398.1247601478826,398.67170185549185,"[87, 0, 167]",167,l,0.03126860922202468,colour,0.5
157,21,0,2,5,21,221,399.1796532107983,399.9036964015104,"[93, 0, 161]",161,l,0.20070151833351701,colour,0.5
157,21,0,2,5,22,222,400.41405848774593,401.07973646977916,"[1, 0, 253]",253,a,0.14233315899036825,colour,0.5
157,21,0,2,5,23,223,401.57984162669163,402.2317042815266,"[4, 0, 250]",250,a,0.12854461325332522,colour,0.5
157,21,0,2,5,24,224,402.7517396174371,403.4639292274369,"[42, 0, 212]",212,a,0.18889126065187156,colour,0.5
157,21,0,2,5,25,225,403.97686982294545,404.66371426638216,"[5, 0, 249]",249,a,0.16267923929262906,colour,0.5
157,21,0,2,5,26,226,405.18095014535356,406.1436938965926,"[97, 0, 157]",157,l,0.43946076184511185,colour,0.5
157,21,0,2,5,27,227,406.66531249310356,407.2237088155234,"[26, 0, 228]",228,a,0.03509876085445285,colour,0.5
157,21,0,2,5,28,228,407.7433991424041,408.63972353585996,"[14, 0, 240]",240,a,0.3732977978652343,colour,0.5
157,21,0,2,5,29,229,409.1492486995412,409.7037463411689,"[85, 0, 169]",169,l,0.03106065862812102,colour,0.5
157,21,0,2,5,30,230,410.211830028682,411.0317030212609,"[96, 0, 158]",158,l,0.2940335493767634,colour,0.5
157,21,0,2,5,31,231,411.5424715564586,412.19172498211265,"[12, 0, 242]",242,a,0.12606456549838185,colour,0.5
157,21,0,2,5,32,232,412.69871929183137,413.4237384326989,"[29, 0, 225]",225,a,0.20178144378587604,colour,0.5
157,21,0,2,5,33,233,413.93176540650893,414.7677667833632,"[8, 0, 246]",246,a,0.31278297828976065,colour,0.5
157,21,0,2,5,34,234,415.2754026680486,416.07968960213475,"[3, 0, 251]",251,a,0.28090508945751935,colour,0.5
157,21,0,2,5,35,235,416.58970983012114,417.24773459823336,"[70, 0, 184]",184,l,0.13481109566055238,colour,0.5
157,21,0,2,5,36,236,417.7617066761013,418.4716891736025,"[45, 0, 209]",209,a,0.18669990194030106,colour,0.5
157,21,0,2,5,37,237,418.9804124669172,419.71170281642117,"[22, 0, 232]",232,a,0.20797230780590326,colour,0.5
157,21,0,2,5,38,238,420.2303435439244,421.0157187845325,"[10, 0, 244]",244,a,0.2619622821221128,colour,0.5
157,21,0,2,5,39,239,421.5272438977845,422.35974634741433,"[76, 0, 178]",178,l,0.3090619220165536,colour,0.5
157,21,0,2,5,40,240,422.87236635235604,423.6797658507712,"[98, 0, 156]",156,l,0.28402631846256554,colour,0.5
157,21,0,2,5,41,241,424.20051601692103,424.93571371177677,"[2, 0, 252]",252,a,0.21195212088059634,colour,0.5
157,21,0,2,5,42,242,425.45045418315567,426.18367713456973,"[84, 0, 170]",170,l,0.20988758059684187,colour,0.5
157,21,0,2,5,43,243,426.7004864785122,427.4557139953831,"[92, 0, 162]",162,l,0.2319894260726869,colour,0.5
157,21,0,2,5,44,244,427.9661509123398,428.6237633237615,"[79, 0, 175]",175,l,0.13426246831659228,colour,0.5
157,21,0,2,5,45,245,429.1393938869005,429.79980063519906,"[99, 0, 155]",155,l,0.13638844864908606,colour,0.5
157,21,0,2,5,46,246,430.31129936070647,431.0557469208725,"[34, 0, 220]",220,a,0.22108816471882164,colour,0.5
157,21,0,2,5,47,247,431.5769637945341,433.07168744073715,"[90, 0, 164]",164,l,0.9714398691430688,colour,0.5
157,21,0,2,5,48,248,433.59257545298897,434.3196776449913,"[32, 0, 222]",222,a,0.20399919024202973,colour,0.5
157,21,0,2,5,49,249,434.8292878792854,435.5597137369914,"[81, 0, 173]",173,l,0.20774269569665194,colour,0.5
157,21,0,2,5,50,250,436.07925361476373,437.4316862433916,"[75, 0, 179]",179,l,0.8290366055443883,colour,0.5
157,21,0,2,6,1,251,442.0395381919807,442.9277040673187,"[6, 0, 248]",248,a,0.364107403322123,colour,0.5
157,21,0,2,6,2,252,443.44657952699345,444.0236784106819,"[20, 0, 234]",234,a,0.06030411215033382,colour,0.5
157,21,0,2,6,3,253,444.53384633082896,445.0956545404624,"[35, 0, 219]",219,a,0.038524038856849074,colour,0.5
157,21,0,2,6,4,254,445.6120239584707,446.21564048796427,"[24, 0, 230]",230,a,0.08026737405452877,colour,0.5
157,21,0,2,6,5,255,446.73704049992375,447.279692437849,"[95, 0, 159]",159,l,0.01940990856382996,colour,0.5
157,21,0,2,6,6,256,447.79939379240386,448.4316752157174,"[13, 0, 241]",241,a,0.10882120335008949,colour,0.5
157,21,0,2,6,7,257,448.9401283307234,449.559675927856,"[61, 0, 193]",193,l,0.09622679860331118,colour,0.5
157,21,0,2,6,8,258,450.06700185581576,451.02368825674057,"[54, 0, 200]",200,l,0.43339120235759765,colour,0.5
157,21,0,2,6,9,259,451.5357549081091,452.28770720236935,"[58, 0, 196]",196,a,0.22864370490424335,colour,0.5
157,21,0,2,6,10,260,452.8011468005134,453.39985522220377,"[63, 0, 191]",191,a,0.07537108159158379,colour,0.5
157,21,0,2,6,11,261,453.91046976367943,454.58370407368056,"[80, 0, 174]",174,l,0.14992414531297982,colour,0.5
157,21,0,2,6,12,262,455.09805975749623,455.79174491076265,"[90, 0, 164]",164,l,0.17111817584373057,colour,0.5
157,21,0,2,6,13,263,456.301213754341,456.95973201142624,"[68, 0, 186]",186,l,0.13523999392054975,colour,0.5
157,21,0,2,6,14,264,457.4730073759565,458.11166162020527,"[55, 0, 199]",199,a,0.11532202421221882,colour,0.5
157,21,0,2,6,15,265,458.6292054867372,459.2236926679034,"[91, 0, 163]",163,l,0.07101041963323951,colour,0.5
157,21,0,2,6,16,266,459.73862297285814,460.3276518433122,"[93, 0, 161]",161,l,0.06565569038502872,colour,0.5
157,21,0,2,6,17,267,460.84798216982745,461.4316720649367,"[1, 0, 253]",253,a,0.060269453562796116,colour,0.5
157,21,0,2,6,18,268,461.9431684274459,462.53570016357116,"[66, 0, 188]",188,l,0.06968237122055143,colour,0.5
157,21,0,2,6,19,269,463.05255361821037,463.99966601864435,"[2, 0, 252]",252,a,0.4239518971880898,colour,0.5
157,21,0,2,6,20,270,464.5056004889775,465.2797113424167,"[31, 0, 223]",223,a,0.2507262518629432,colour,0.5
157,21,0,2,6,21,271,465.7868557074107,466.5436704234453,"[45, 0, 209]",209,a,0.23350336973089725,colour,0.5
157,21,0,2,6,22,272,467.0525343196932,467.7358987405896,"[82, 0, 172]",172,l,0.15789204207248986,colour,0.5
157,21,0,2,6,23,273,468.2423137030564,468.9276575935073,"[74, 0, 180]",180,l,0.16228342417161912,colour,0.5
157,21,0,2,6,24,274,469.44543934299145,470.0877524157986,"[50, 0, 204]",204,a,0.11908325261902064,colour,0.5
157,21,0,2,6,25,275,470.6017118906602,471.1836523222737,"[83, 0, 171]",171,l,0.058644445380195975,colour,0.5
157,21,0,2,6,26,276,471.6954090169165,472.27976726857014,"[86, 0, 168]",168,l,0.06104375468567014,colour,0.5
157,21,0,2,6,27,277,472.7891746722162,473.4636444768403,"[28, 0, 226]",226,a,0.15113994758576155,colour,0.5
157,21,0,2,6,28,278,473.97797495452687,474.64769891579635,"[78, 0, 176]",176,a,0.14636929193511605,colour,0.5
157,21,0,2,6,29,279,475.1654775144998,476.0156608892139,"[88, 0, 166]",166,l,0.326813739258796,colour,0.5
157,21,0,2,6,30,280,476.524891456007,477.21571374335326,"[3, 0, 251]",251,a,0.16757159330882132,colour,0.5
157,21,0,2,6,31,281,477.728034031461,478.3596805752022,"[26, 0, 228]",228,a,0.10845689591951668,colour,0.5
157,21,0,2,6,32,282,478.8686181206722,479.5036832470214,"[49, 0, 205]",205,a,0.11181915854103863,colour,0.5
157,21,0,2,6,33,283,480.0106086337473,480.6077054379275,"[9, 0, 245]",245,a,0.07383035635575652,colour,0.5
157,21,0,2,6,34,284,481.1200253322022,482.03185031958856,"[14, 0, 240]",240,a,0.3885703550186008,colour,0.5
157,21,0,2,6,35,285,482.54194852907676,483.3916766177863,"[38, 0, 216]",216,a,0.32652268710080534,colour,0.5
157,21,0,2,6,36,286,483.90121871687006,484.53566432360094,"[69, 0, 185]",185,l,0.11118230980355293,colour,0.5
157,21,0,2,6,37,287,485.0418677906273,485.7437102806289,"[70, 0, 184]",184,l,0.17600540991406888,colour,0.5
157,21,0,2,6,38,288,486.2632749705808,487.3036532360129,"[84, 0, 170]",170,l,0.5171460822457448,colour,0.5
157,21,0,2,6,39,289,487.82429903303273,488.9436406486202,"[44, 0, 210]",210,a,0.5964666506042704,colour,0.5
157,21,0,2,6,40,290,489.4526786248898,490.1356405352708,"[41, 0, 213]",213,a,0.15973366564139724,colour,0.5
157,21,0,2,6,41,291,490.65580662793946,491.3196752818767,"[36, 0, 218]",218,a,0.14061992918141186,colour,0.5
157,21,0,2,6,42,292,491.82761797262356,492.3917341193883,"[8, 0, 246]",246,a,0.04142038174904883,colour,0.5
157,21,0,2,6,43,293,492.9057873295387,493.61560244252905,"[59, 0, 195]",195,l,0.1866412190720439,colour,0.5
157,21,0,2,6,44,294,494.12454707722645,494.69565595826134,"[12, 0, 242]",242,a,0.04780226096045226,colour,0.5
157,21,0,2,6,45,295,495.2027038310189,495.7836135678226,"[40, 0, 214]",214,a,0.05766022438183427,colour,0.5
157,21,0,2,6,46,296,496.2964013509918,496.9916496787919,"[39, 0, 215]",215,a,0.1719669138547033,colour,0.5
157,21,0,2,6,47,297,497.49944467726164,498.167695654789,"[51, 0, 203]",203,a,0.14486637595109642,colour,0.5
157,21,0,2,6,48,298,498.68700276955497,499.375647088862,"[30, 0, 224]",224,a,0.16537038842216134,colour,0.5
157,21,0,2,6,49,299,499.890226083342,500.53569780045655,"[89, 0, 165]",165,l,0.12226670933887362,colour,0.5
157,21,0,2,6,50,300,501.0476372395642,501.71966126095504,"[17, 0, 237]",237,a,0.1485452906927094,colour,0.5
157,21,0,2,7,1,301,506.0938806583872,506.84760880388785,"[35, 0, 219]",219,a,0.22967636899556965,colour,0.5
157,21,0,2,7,2,302,507.3603363286238,507.97570522048045,"[93, 0, 161]",161,l,0.09227573627140373,colour,0.5
157,21,0,2,7,3,303,508.48533869173843,509.1996743681375,"[51, 0, 203]",203,a,0.18878295307513326,colour,0.5
157,21,0,2,7,4,304,509.7063283950556,510.4796224120073,"[28, 0, 226]",226,a,0.2499716430902481,colour,0.5
157,21,0,2,7,5,305,510.9876521426486,511.62364477617666,"[78, 0, 176]",176,l,0.11261905962601304,colour,0.5
157,21,0,2,7,6,306,512.1438644318841,512.7756886002608,"[61, 0, 193]",193,a,0.1085210929159075,colour,0.5
157,21,0,2,7,7,307,513.2844138627406,513.8796974002616,"[87, 0, 167]",167,l,0.07225851726252586,colour,0.5
157,21,0,2,7,8,308,514.393838044256,515.0316313413205,"[75, 0, 179]",179,l,0.11440121242776513,colour,0.5
157,21,0,2,7,9,309,515.5522668983322,516.1836302669253,"[15, 0, 239]",239,a,0.10796931467484683,colour,0.5
157,21,0,2,7,10,310,516.6928970675217,517.3516721122433,"[49, 0, 205]",205,a,0.1356641660677269,colour,0.5
157,21,0,2,7,11,311,517.8648809167789,518.4876478103688,"[31, 0, 223]",223,a,0.09960796579252928,colour,0.5
157,21,0,2,7,12,312,519.0041708282661,519.6476961588487,"[9, 0, 245]",245,a,0.12016987358219922,colour,0.5
157,21,0,2,7,13,313,520.1604760652408,520.8476529145846,"[34, 0, 220]",220,a,0.16401634609792382,colour,0.5
157,21,0,2,7,14,314,521.3635713791009,521.9596370946383,"[98, 0, 156]",156,l,0.07038026617374271,colour,0.5
157,21,0,2,7,15,315,522.4752920761239,523.0396961242659,"[50, 0, 204]",204,a,0.04119234497193247,colour,0.5
157,21,0,2,7,16,316,523.5534811252728,524.2076418711804,"[1, 0, 253]",253,a,0.1308411288773641,colour,0.5
157,21,0,2,7,17,317,524.72529286379,525.7916464492446,"[22, 0, 232]",232,a,0.5431958391563967,colour,0.5
157,21,0,2,7,18,318,526.3033669099677,527.3996606623987,"[67, 0, 187]",187,a,0.573208867572248,colour,0.5
157,21,0,2,7,19,319,527.9141734907171,529.3036713529145,"[69, 0, 185]",185,l,0.8661825775634497,colour,0.5
157,21,0,2,7,20,320,529.8204889675835,530.7996482168091,"[85, 0, 169]",169,l,0.45598417369183153,colour,0.5
157,21,0,2,7,21,321,531.3128688366851,532.0236319367541,"[2, 0, 252]",252,a,0.18749468307942152,colour,0.5
157,21,0,2,7,22,322,532.5316585167311,533.2796309979167,"[38, 0, 216]",216,a,0.22469933808315545,colour,0.5
157,21,0,2,7,23,323,533.7910249603447,534.4476247939747,"[21, 0, 233]",233,a,0.13336843810975552,colour,0.5
157,21,0,2,7,24,324,534.9629257080378,535.5036974254763,"[39, 0, 215]",215,a,0.017543472698889673,colour,0.5
157,21,0,2,7,25,325,536.009777618805,536.8876089771511,"[13, 0, 241]",241,a,0.35885310487356037,colour,0.5
157,21,0,2,7,26,326,537.3960242829053,538.119722858537,"[70, 0, 184]",184,l,0.20039825700223446,colour,0.5
157,21,0,2,7,27,327,538.6304236521246,539.2795963394456,"[23, 0, 231]",231,l,0.12590742099564523,colour,0.5
157,21,0,2,7,28,328,539.7920072120614,540.3196122666122,"[37, 0, 217]",217,a,0.004389412817545235,colour,0.5
157,21,0,2,7,29,329,540.8389252889901,541.8396125501022,"[14, 0, 240]",240,a,0.4774901302298531,colour,0.5
157,21,0,2,7,30,330,542.3544869290199,542.9115863168845,"[41, 0, 213]",213,a,0.03411808446981013,colour,0.5
157,21,0,2,7,31,331,543.4326121752383,544.0076311585726,"[17, 0, 237]",237,a,0.05640031129587442,colour,0.5
157,21,0,2,7,32,332,544.5216111133341,545.111689977115,"[63, 0, 191]",191,l,0.06746186781674623,colour,0.5
157,21,0,2,7,33,333,545.6207350424957,546.2716516795335,"[30, 0, 224]",224,a,0.1276683061150834,colour,0.5
157,21,0,2,7,34,334,546.7928413777845,547.4955905011157,"[60, 0, 194]",194,a,0.17979972157627344,colour,0.5
157,21,0,2,7,35,335,548.011289199465,548.647661500494,"[90, 0, 164]",164,l,0.11312475777231157,colour,0.5
157,21,0,2,7,36,336,549.1632270789705,549.7518416235689,"[18, 0, 236]",236,a,0.06538157374598086,colour,0.5
157,21,0,2,7,37,337,550.272563826642,550.9996494770749,"[48, 0, 206]",206,a,0.2039924948476255,colour,0.5
157,21,0,2,7,38,338,551.4975829676259,552.0236295737559,"[88, 0, 166]",166,l,0.00267578917555511,colour,0.5
157,21,0,2,7,39,339,552.544464810635,553.5195690222317,"[91, 0, 163]",163,l,0.4516790439374745,colour,0.5
157,21,0,2,7,40,340,554.0391648260411,554.6476355065824,"[96, 0, 158]",158,l,0.08508765429724008,colour,0.5
157,21,0,2,7,41,341,555.1642396567622,556.1836042730138,"[8, 0, 246]",246,a,0.4966456142719835,colour,0.5
157,21,0,2,7,42,342,556.6954452507198,557.8556605898775,"[74, 0, 180]",180,l,0.6368606699397787,colour,0.5
157,21,0,2,7,43,343,558.3686326929601,559.03164000588,"[20, 0, 234]",234,a,0.1397306250873953,colour,0.5
157,21,0,2,7,44,344,559.5404475822579,560.247583361459,"[53, 0, 201]",201,a,0.18369013152550906,colour,0.5
157,21,0,2,7,45,345,560.7592203269014,561.743631905294,"[71, 0, 183]",183,l,0.4611868782667443,colour,0.5
157,21,0,2,7,46,346,562.2592144191731,562.8156009458471,"[79, 0, 175]",175,l,0.03318191273137927,colour,0.5
157,21,0,2,7,47,347,563.3373093392001,564.3437341477256,"[68, 0, 186]",186,l,0.4826361211016774,colour,0.5
157,21,0,2,7,48,348,564.8542821292067,565.5116247561527,"[99, 0, 155]",155,l,0.13394542236346751,colour,0.5
157,21,0,2,7,49,349,566.0261627907166,566.63161976228,"[25, 0, 229]",229,a,0.0823165545007214,colour,0.5
157,21,0,2,7,50,350,567.1511856337311,567.759584634332,"[54, 0, 200]",200,a,0.08508332201745361,colour,0.5
157,21,0,2,8,1,351,584.4212757141795,585.3915828824975,"[8, 0, 246]",246,a,0.44580995198339224,colour,0.5
157,21,0,2,8,2,352,585.906841655029,589.303589432966,"[94, 0, 160]",160,l,2.87347463471815,colour,0.5
157,21,0,2,8,3,353,589.8129984120606,590.4635708276182,"[97, 0, 157]",157,l,0.12714567256625742,colour,0.5
157,21,0,2,8,4,354,590.9706159435445,591.5596629309002,"[59, 0, 195]",195,a,0.06569743808358908,colour,0.5
157,21,0,2,8,5,355,592.079992863466,592.6715966985794,"[58, 0, 196]",196,a,0.06827515957411379,colour,0.5
157,21,0,2,8,6,356,593.1893599373288,594.1835975777358,"[21, 0, 233]",233,a,0.47084398032166064,colour,0.5
157,21,0,2,8,7,357,594.6894012911944,595.8395605625119,"[16, 0, 238]",238,a,0.6268861280987039,colour,0.5
157,21,0,2,8,8,358,596.3456033404218,597.4636192707112,"[20, 0, 234]",234,a,0.5922485608607531,colour,0.5
157,21,0,2,8,9,359,597.9729731113184,598.6798662814545,"[22, 0, 232]",232,a,0.18350659927818924,colour,0.5
157,21,0,2,8,10,360,599.1918092651758,600.007548844791,"[27, 0, 227]",227,a,0.29257356259040534,colour,0.5
157,21,0,2,8,11,361,600.5198116314132,601.639554576017,"[66, 0, 188]",188,a,0.596402847673744,colour,0.5
157,21,0,2,8,12,362,602.1605638928013,603.5355694066966,"[68, 0, 186]",186,l,0.8518812444526702,colour,0.5
157,21,0,2,8,13,363,604.0523401537212,604.9675947515061,"[6, 0, 248]",248,a,0.39164432254619896,colour,0.5
157,21,0,2,8,14,364,605.4742460213602,606.3835626041982,"[81, 0, 173]",173,l,0.38605171046219766,colour,0.5
157,21,0,2,8,15,365,606.8962026952067,607.567611529259,"[25, 0, 229]",229,a,0.14820028166286647,colour,0.5
157,21,0,2,8,16,366,608.0835807998665,608.6956335090799,"[98, 0, 156]",156,l,0.08657757355831563,colour,0.5
157,21,0,2,8,17,367,609.2106717278948,609.8156742012361,"[5, 0, 249]",249,a,0.08169782254844904,colour,0.5
157,21,0,2,8,18,368,610.3356689709472,610.9436327717267,"[92, 0, 162]",162,l,0.08561816473957151,colour,0.5
157,21,0,2,8,19,369,611.4606882693479,611.9915882388595,"[47, 0, 207]",207,a,0.007613435504026711,colour,0.5
157,21,0,2,8,20,370,612.5075768078677,613.4395513464697,"[37, 0, 217]",217,a,0.4090590075356886,colour,0.5
157,21,0,2,8,21,371,613.960624860134,614.7196974948747,"[15, 0, 239]",239,a,0.2358006730210036,colour,0.5
157,21,0,2,8,22,372,615.2284645050531,615.8876152787125,"[33, 0, 221]",221,a,0.13607100886292756,colour,0.5
157,21,0,2,8,23,373,616.400336108054,616.999579766416,"[82, 0, 172]",172,l,0.07595712435431778,colour,0.5
157,21,0,2,8,24,374,617.5096527696587,618.1596048780484,"[50, 0, 204]",204,a,0.12677545740734786,colour,0.5
157,21,0,2,8,25,375,618.665893021971,619.2795593179762,"[96, 0, 158]",158,l,0.09097328782081604,colour,0.5
157,21,0,2,8,26,376,619.7903703884222,620.8475568161812,"[90, 0, 164]",164,l,0.5342425397830084,colour,0.5
157,21,0,2,8,27,377,621.355174190132,621.9036113307811,"[9, 0, 245]",245,a,0.025226225145161152,colour,0.5
157,21,0,2,8,28,378,622.4176440609153,622.9516242993996,"[35, 0, 219]",219,a,0.010725606000050902,colour,0.5
157,21,0,2,8,29,379,623.4645483532222,624.0475797380786,"[79, 0, 175]",175,l,0.06844057503622025,colour,0.5
157,21,0,2,8,30,380,624.5652118261205,625.3116093174322,"[53, 0, 201]",201,a,0.22312552970834076,colour,0.5
157,21,0,2,8,31,381,625.8280413569883,626.4875607704744,"[46, 0, 208]",208,a,0.13643767940811813,colour,0.5
157,21,0,2,8,32,382,627.0042027297895,627.5356273020152,"[56, 0, 198]",198,a,0.008129373658448458,colour,0.5
157,21,0,2,8,33,383,628.0667111974908,628.64779068192,"[95, 0, 159]",159,l,0.057794132037088275,colour,0.5
157,21,0,2,8,34,384,629.1605170251569,629.7275590532226,"[89, 0, 165]",165,l,0.04680583078879863,colour,0.5
157,21,0,2,8,35,385,630.2355710607953,630.9915831187973,"[40, 0, 214]",214,a,0.2327121333219111,colour,0.5
157,21,0,2,8,36,386,631.501196503872,632.1515491534956,"[39, 0, 215]",215,a,0.12704209110233933,colour,0.5
157,21,0,2,8,37,387,632.6730448700255,633.3435773970559,"[62, 0, 192]",192,a,0.14722866378724575,colour,0.5
157,21,0,2,8,38,388,633.8605312823784,634.5355638928013,"[69, 0, 185]",185,a,0.15165824885480106,colour,0.5
157,21,0,2,8,39,389,635.0480929192854,635.6715577078285,"[12, 0, 242]",242,l,0.10016643919516355,colour,0.5
157,21,0,2,8,40,390,636.1886872485047,636.7435814930359,"[14, 0, 240]",240,a,0.03158407984301448,colour,0.5
157,21,0,2,8,41,391,637.2512035930995,637.8395637132926,"[10, 0, 244]",244,a,0.06515668774954975,colour,0.5
157,21,0,2,8,42,392,638.360549793113,639.2715638518566,"[48, 0, 206]",206,a,0.3863541840109974,colour,0.5
157,21,0,2,8,43,393,639.7838675983949,640.3516232753173,"[30, 0, 224]",224,a,0.04457508749328554,colour,0.5
157,21,0,2,8,44,394,640.8619392815745,641.5755817892496,"[45, 0, 209]",209,a,0.19043395528569818,colour,0.5
157,21,0,2,8,45,395,642.0963181707775,642.9195526383119,"[74, 0, 180]",180,l,0.300320511800237,colour,0.5
157,21,0,2,8,46,396,643.4403402198805,644.1595784903038,"[24, 0, 230]",230,a,0.19623845629394054,colour,0.5
157,21,0,2,8,47,397,644.6744138784707,645.3755643812474,"[57, 0, 197]",197,a,0.17788838723208755,colour,0.5
157,21,0,2,8,48,398,645.8931354230735,646.4875765242614,"[86, 0, 168]",168,l,0.07127272093202919,colour,0.5
157,21,0,2,8,49,399,647.0024926508777,647.6955728568137,"[70, 0, 184]",184,l,0.1700177703751251,colour,0.5
157,21,0,2,8,50,400,648.2057104507694,648.7996139521711,"[78, 0, 176]",176,l,0.07073590892832726,colour,0.5
157,21,0,2,9,1,401,653.2382488192525,654.3116360990098,"[76, 0, 178]",178,l,0.549550149240531,colour,0.5
157,21,0,2,9,2,402,654.8325977604836,655.4235529312864,"[12, 0, 242]",242,a,0.06830981804523617,colour,0.5
157,21,0,2,9,3,403,655.9419148158049,656.4715989829274,"[90, 0, 164]",164,l,0.006743823760189116,colour,0.5
157,21,0,2,9,4,404,656.988750578952,657.6076329702046,"[45, 0, 209]",209,a,0.09561830654274672,colour,0.5
157,21,0,2,9,5,405,658.1137769665802,658.6955740383128,"[69, 0, 185]",185,l,0.058497540885582566,colour,0.5
157,21,0,2,9,6,406,659.208889575093,659.7995552691864,"[19, 0, 235]",235,a,0.0674835293320939,colour,0.5
157,21,0,2,9,7,407,660.3182688581292,661.263537271996,"[75, 0, 179]",179,l,0.4218668768880889,colour,0.5
157,21,0,2,9,8,408,661.7713846520055,662.5515473418636,"[57, 0, 197]",197,a,0.2567816328955814,colour,0.5
157,21,0,2,9,9,409,663.0703389123082,663.9356369118905,"[33, 0, 221]",221,a,0.34258766227867454,colour,0.5
157,21,0,2,9,10,410,664.4446555896429,665.0475549257826,"[39, 0, 215]",215,a,0.07964706677012146,colour,0.5
157,21,0,2,9,11,411,665.5540132111637,666.1595930625917,"[4, 0, 250]",250,a,0.08238429587800056,colour,0.5
157,21,0,2,9,12,412,666.6790336911799,667.3036477221176,"[32, 0, 222]",222,a,0.10137987858615816,colour,0.5
157,21,0,2,9,13,413,667.8196284142323,668.4635247477563,"[9, 0, 245]",245,a,0.12065745494328439,colour,0.5
157,21,0,2,9,14,414,668.9773006903706,669.6235604931135,"[22, 0, 232]",232,a,0.12353174237068743,colour,0.5
157,21,0,2,9,15,415,670.1428392509697,670.7675245681312,"[53, 0, 201]",201,a,0.1015811339020729,colour,0.5
157,21,0,2,9,16,416,671.283466269495,671.8955083447509,"[64, 0, 190]",190,a,0.08630936429835856,colour,0.5
157,21,0,2,9,17,417,672.4108852711506,673.279499453376,"[2, 0, 252]",252,a,0.34589833102654666,colour,0.5
157,21,0,2,9,18,418,673.7767661625985,674.3595683290623,"[26, 0, 228]",228,a,0.05976099846884608,colour,0.5
157,21,0,2,9,19,419,674.8788254254032,675.7035120028304,"[70, 0, 184]",184,l,0.30158396949991584,colour,0.5
157,21,0,2,9,20,420,676.2225493331207,677.2076182403835,"[27, 0, 227]",227,a,0.46170557336881757,colour,0.5
157,21,0,2,9,21,421,677.7225698131369,678.5275621252367,"[17, 0, 237]",237,a,0.2817014459287748,colour,0.5
157,21,0,2,9,22,422,679.035107031581,679.8235294581391,"[54, 0, 200]",200,a,0.2651457388419658,colour,0.5
157,21,0,2,9,23,423,680.3319179823156,681.0075425432296,"[85, 0, 169]",169,l,0.15021362202242017,colour,0.5
157,21,0,2,9,24,424,681.5218730209162,682.0715334470151,"[97, 0, 157]",157,l,0.02676143660210073,colour,0.5
157,21,0,2,9,25,425,682.5843503747601,683.2715591257438,"[5, 0, 249]",249,a,0.16389031545259058,colour,0.5
157,21,0,2,9,26,426,683.785898661823,684.4475795017788,"[7, 0, 247]",247,a,0.1383249891223386,colour,0.5
157,21,0,2,9,27,427,684.9577942895703,685.5355221452191,"[89, 0, 165]",165,l,0.054453924763947725,colour,0.5
157,21,0,2,9,28,428,686.0516135080252,686.7355848454172,"[0, 0, 254]",254,a,0.17305038392078131,colour,0.5
157,21,0,2,9,29,429,687.2423444229644,687.8955910524819,"[24, 0, 230]",230,a,0.13039450766518712,colour,0.5
157,21,0,2,9,30,430,688.4141943645664,689.0395448873751,"[40, 0, 214]",214,a,0.10201397049240768,colour,0.5
157,21,0,2,9,31,431,689.5548552537803,690.2235772709828,"[72, 0, 182]",182,l,0.145424849470146,colour,0.5
157,21,0,2,9,32,432,690.7423022814328,691.3995649578283,"[6, 0, 248]",248,a,0.13407972385175526,colour,0.5
157,21,0,2,9,33,433,691.9141648260411,692.4715139121981,"[96, 0, 158]",158,l,0.03399874910246581,colour,0.5
157,21,0,2,9,34,434,692.9782900313148,693.6315476883901,"[74, 0, 180]",180,l,0.12994631088804454,colour,0.5
157,21,0,2,9,35,435,694.1498623114312,694.7515214268351,"[98, 0, 156]",156,l,0.07823867385741323,colour,0.5
157,21,0,2,9,36,436,695.2592191452859,695.8715762974462,"[28, 0, 226]",226,a,0.08980553469154984,colour,0.5
157,21,0,2,9,37,437,696.3842593176523,696.9595343008405,"[21, 0, 233]",233,a,0.051925433916039765,colour,0.5
157,21,0,2,9,38,438,697.4780029176036,698.1995093467413,"[46, 0, 208]",208,a,0.1982017782283947,colour,0.5
157,21,0,2,9,39,439,698.7123522683978,699.3196122666122,"[82, 0, 172]",172,l,0.0838549166219309,colour,0.5
157,21,0,2,9,40,440,699.8374270991189,700.4235190605978,"[77, 0, 177]",177,l,0.06281960604246706,colour,0.5
157,21,0,2,9,41,441,700.9311230437597,701.4955775041599,"[25, 0, 229]",229,a,0.04108285577967763,colour,0.5
157,21,0,2,9,42,442,702.0108504551463,702.607551050256,"[30, 0, 224]",224,a,0.07339476270135492,colour,0.5
157,21,0,2,9,43,443,703.1203242612537,703.7114798997063,"[84, 0, 170]",170,l,0.06795653828885406,colour,0.5
157,21,0,2,9,44,444,704.2295747566968,705.2155081557576,"[91, 0, 163]",163,l,0.46253107441589236,colour,0.5
157,21,0,2,9,45,445,705.7296314705163,706.4155436806614,"[51, 0, 203]",203,a,0.16256699315272272,colour,0.5
157,21,0,2,9,46,446,706.9326665259432,707.5115353531437,"[42, 0, 212]",212,a,0.05552636715583503,colour,0.5
157,21,0,2,9,47,447,708.0264459658647,708.6155213102465,"[68, 0, 186]",186,l,0.06599361030384898,colour,0.5
157,21,0,2,9,48,448,709.1214884697692,709.6555230588419,"[66, 0, 188]",188,l,0.010674405959434807,colour,0.5
157,21,0,2,9,49,449,710.1683395928703,710.8075452214107,"[99, 0, 155]",155,l,0.1159088546410203,colour,0.5
157,21,0,2,9,50,450,711.3245739374543,711.8555377100129,"[88, 0, 166]",166,l,0.007642580196261406,colour,0.5
157,21,0,2,10,1,451,716.1933814981021,716.9115327538457,"[71, 0, 183]",183,l,0.20319928927347064,colour,0.5
157,21,0,2,10,2,452,717.4194856844842,717.9835021882318,"[19, 0, 235]",235,a,0.04012541635893285,colour,0.5
157,21,0,2,10,3,453,718.498222179478,719.0556366440142,"[27, 0, 227]",227,a,0.0340491613605991,colour,0.5
157,21,0,2,10,4,454,719.5763525456423,720.127505647717,"[37, 0, 217]",217,a,0.028035134193487465,colour,0.5
157,21,0,2,10,5,455,720.638803118025,721.5674996770686,"[34, 0, 220]",220,a,0.40389450604561716,colour,0.5
157,21,0,2,10,6,456,722.0781283968827,722.6715076894034,"[30, 0, 224]",224,a,0.07005613087676466,colour,0.5
157,21,0,2,10,7,457,723.1874694769504,723.9675392191857,"[50, 0, 204]",204,a,0.25710852502379566,colour,0.5
157,21,0,2,10,8,458,724.4843166616047,725.119496790925,"[87, 0, 167]",167,l,0.11189595854375511,colour,0.5
157,21,0,2,10,9,459,725.6426135773072,726.3115451205522,"[10, 0, 244]",244,a,0.1457367754774168,colour,0.5
157,21,0,2,10,10,460,726.8300700573018,728.7275752009591,"[55, 0, 199]",199,a,1.3746553848031908,colour,0.5
157,21,0,2,10,11,461,729.2362130297115,730.2237395355478,"[97, 0, 157]",157,l,0.46422855043783784,colour,0.5
157,21,0,2,10,12,462,730.7363508756971,731.3675181090366,"[52, 0, 202]",202,a,0.10782477317843586,colour,0.5
157,21,0,2,10,13,463,731.8769790757215,732.4714961891295,"[47, 0, 207]",207,a,0.07152360084000975,colour,0.5
157,21,0,2,10,14,464,732.9863292141818,733.9115075477166,"[25, 0, 229]",229,a,0.4021521316608414,colour,0.5
157,21,0,2,10,15,465,734.4238813988632,735.1675601718016,"[65, 0, 189]",189,a,0.21915201819501817,colour,0.5
157,21,0,2,10,16,466,735.6754422101658,736.2955313454149,"[95, 0, 159]",159,l,0.09721456409897655,colour,0.5
157,21,0,2,10,17,467,736.8162574870512,737.367549616727,"[17, 0, 237]",237,a,0.02864086930640042,colour,0.5
157,21,0,2,10,18,468,737.8782527734293,738.5196517299628,"[82, 0, 172]",172,a,0.11069827305618674,colour,0.5
157,21,0,2,10,19,469,739.0184560137568,739.743518871488,"[20, 0, 234]",234,a,0.2022414559032768,colour,0.5
157,21,0,2,10,20,470,740.2528998875059,740.9517747485079,"[46, 0, 208]",208,a,0.17424216168001294,colour,0.5
157,21,0,2,10,21,471,741.4730944158509,742.0797782174777,"[64, 0, 190]",190,a,0.08310148934833705,colour,0.5
157,21,0,2,10,22,472,742.5983070926741,743.2155034296447,"[1, 0, 253]",253,a,0.09395785222295672,colour,0.5
157,21,0,2,10,23,473,743.7228482621722,744.3515141800744,"[9, 0, 245]",245,a,0.10530534095596522,colour,0.5
157,21,0,2,10,24,474,744.8635004868265,745.4955266980687,"[75, 0, 179]",179,l,0.10876291419845074,colour,0.5
157,21,0,2,10,25,475,746.0040664591361,746.6715447109891,"[74, 0, 180]",180,l,0.1441149179590866,colour,0.5
157,21,0,2,10,26,476,747.1916032837471,747.8795118988492,"[91, 0, 163]",163,l,0.16463113960344344,colour,0.5
157,21,0,2,10,27,477,748.3948801605729,748.9675258283969,"[11, 0, 243]",243,a,0.049614739953540266,colour,0.5
157,21,0,2,10,28,478,749.4907481654081,750.1435099706287,"[59, 0, 195]",195,a,0.12940437893848866,colour,0.5
157,21,0,2,10,29,479,750.662637097761,751.3034673407674,"[99, 0, 155]",155,l,0.11757679213769734,colour,0.5
157,21,0,2,10,30,480,751.8188682915643,752.423491097521,"[42, 0, 212]",212,a,0.08132012432906777,colour,0.5
157,21,0,2,10,31,481,752.9438489931636,753.5275203775382,"[83, 0, 171]",171,l,0.06025566894095391,colour,0.5
157,21,0,2,10,32,482,754.037636310095,754.6395132221514,"[40, 0, 214]",214,a,0.07856950431596488,colour,0.5
157,21,0,2,10,33,483,755.1469832977746,755.8155221766792,"[62, 0, 192]",192,l,0.14517515117768198,colour,0.5
157,21,0,2,10,34,484,756.3344929469749,757.0154466370586,"[72, 0, 182]",182,l,0.1585509463911876,colour,0.5
157,21,0,2,10,35,485,757.5219805408269,758.0874751482625,"[26, 0, 228]",228,a,0.04218877502717078,colour,0.5
157,21,0,2,10,36,486,758.6001049992628,759.4958244455047,"[31, 0, 223]",223,a,0.371188752935268,colour,0.5
157,21,0,2,10,37,487,760.0075531770708,760.6315173623152,"[73, 0, 181]",181,l,0.10066662356257439,colour,0.5
157,21,0,2,10,38,488,761.1482191862306,761.7435019360855,"[98, 0, 156]",156,a,0.07197494816500694,colour,0.5
157,21,0,2,10,39,489,762.2666718916735,762.9755098728929,"[18, 0, 236]",236,a,0.18545613659080118,colour,0.5
157,21,0,2,10,40,490,763.4854592086049,764.087476723711,"[63, 0, 191]",191,l,0.08361703366972506,colour,0.5
157,21,0,2,10,41,491,764.6051714333007,765.1354798461543,"[90, 0, 164]",164,l,0.006943503627553582,colour,0.5
157,21,0,2,10,42,492,765.6520461870823,766.2315211432287,"[7, 0, 247]",247,a,0.0561305268201977,colour,0.5
157,21,0,2,10,43,493,766.7457704886328,767.3435072924476,"[33, 0, 221]",221,a,0.07438055914826691,colour,0.5
157,21,0,2,10,44,494,767.8565829769941,768.4715076106368,"[3, 0, 251]",251,a,0.09150104131549597,colour,0.5
157,21,0,2,10,45,495,768.9816515062703,769.5594927894417,"[81, 0, 173]",173,l,0.054557900060899556,colour,0.5
157,21,0,2,10,46,496,770.0752710447414,770.63949077297,"[13, 0, 241]",241,a,0.040918228100053966,colour,0.5
157,21,0,2,10,47,497,771.1534053493524,771.7275937116938,"[67, 0, 187]",187,l,0.05087032075971365,colour,0.5
157,21,0,2,10,48,498,772.247179669328,772.8474823792931,"[58, 0, 196]",196,a,0.07701341912616044,colour,0.5
157,21,0,2,10,49,499,773.356517598615,773.967559699202,"[12, 0, 242]",242,a,0.08616167225409299,colour,0.5
157,21,0,2,10,50,500,774.4828858193941,775.0475108149694,"[29, 0, 225]",225,a,0.04118013568222523,colour,0.5
157,21,0,2,11,1,501,779.4531862923177,780.0075472693425,"[27, 0, 227]",227,a,0.030183169874362648,colour,0.5
157,21,0,2,11,2,502,780.5163989564171,781.4074493593071,"[37, 0, 217]",217,a,0.3675661582965404,colour,0.5
157,21,0,2,11,3,503,781.9227010426112,782.4955046426039,"[86, 0, 168]",168,l,0.04974943515844643,colour,0.5
157,21,0,2,11,4,504,783.0169668822782,783.5754955369048,"[29, 0, 225]",225,a,0.0352039176505059,colour,0.5
157,21,0,2,11,5,505,784.0951338760788,784.6634700818686,"[50, 0, 204]",204,a,0.04503116104751825,colour,0.5
157,21,0,2,11,6,506,785.1732669991907,785.7275086409645,"[97, 0, 157]",157,l,0.030974012450315058,colour,0.5
157,21,0,2,11,7,507,786.2356726730941,786.9034514293307,"[40, 0, 214]",214,a,0.1443709178129211,colour,0.5
157,21,0,2,11,8,508,787.4232071345905,788.055496434914,"[69, 0, 185]",185,a,0.10903781861998141,colour,0.5
157,21,0,2,11,9,509,788.5650676784571,789.2554433444748,"[93, 0, 161]",161,l,0.1672064980957657,colour,0.5
157,21,0,2,11,10,510,789.7679467708804,790.4954684088007,"[91, 0, 163]",163,l,0.2040007655741647,colour,0.5
157,21,0,2,11,11,511,791.0023240847513,791.5995197442826,"[83, 0, 171]",171,l,0.07401270710397512,colour,0.5
157,21,0,2,11,12,512,792.1118238846539,792.8315387087641,"[90, 0, 164]",164,l,0.19668862223625183,colour,0.5
157,21,0,2,11,13,513,793.3462480661692,794.0074917371385,"[15, 0, 239]",239,a,0.13872986263595521,colour,0.5
157,21,0,2,11,14,514,794.5181232139003,795.079508039169,"[51, 0, 203]",203,a,0.03908290609251708,colour,0.5
157,21,0,2,11,15,515,795.5961106140167,796.215506186476,"[73, 0, 181]",181,l,0.09590699558611959,colour,0.5
157,21,0,2,11,16,516,796.7368813862558,797.4794770828448,"[0, 0, 254]",254,a,0.2192788366228342,colour,0.5
157,21,0,2,11,17,517,797.988201557775,798.735767196049,"[62, 0, 192]",192,a,0.22423066128976643,colour,0.5
157,21,0,2,11,18,518,799.2538203054573,799.879460698925,"[87, 0, 167]",167,l,0.10228060418739915,colour,0.5
157,21,0,2,11,19,519,800.3944591393229,801.0474670981057,"[22, 0, 232]",232,a,0.1300313816173002,colour,0.5
157,21,0,2,11,20,520,801.5663102623075,802.1676818701671,"[63, 0, 191]",191,a,0.07795352931134403,colour,0.5
157,21,0,2,11,21,521,802.6756099885097,803.3755226335488,"[28, 0, 226]",226,a,0.17659775412175804,colour,0.5
157,21,0,2,11,22,522,803.895779310842,804.4394725773018,"[82, 0, 172]",172,l,0.020379557157866657,colour,0.5
157,21,0,2,11,23,523,804.9582369723357,805.9354726781603,"[7, 0, 247]",247,a,0.45396256260573864,colour,0.5
157,21,0,2,11,24,524,806.4426461877301,807.2235504895216,"[20, 0, 234]",234,a,0.2583881304599345,colour,0.5
157,21,0,2,11,25,525,807.7387304927688,808.3834542965051,"[45, 0, 209]",209,a,0.12703775870613754,colour,0.5
157,21,0,2,11,26,526,808.8968273347709,809.6555053357733,"[14, 0, 240]",240,a,0.23527291940990835,colour,0.5
157,21,0,2,11,27,527,810.1625201255083,810.8234628981445,"[49, 0, 205]",205,a,0.14665916259400547,colour,0.5
157,21,0,2,11,28,528,811.3410938046873,811.9674356377218,"[75, 0, 179]",179,a,0.10355193889699876,colour,0.5
157,21,0,2,11,29,529,812.4816735616187,813.1434394721873,"[98, 0, 156]",156,l,0.1384490504860878,colour,0.5
157,21,0,2,11,30,530,813.6535219277721,814.2235721510369,"[53, 0, 201]",201,a,0.05288759956602007,colour,0.5
157,21,0,2,11,31,531,814.7410522145219,815.4554922601674,"[41, 0, 213]",213,a,0.1911527239717543,colour,0.5
157,21,0,2,11,32,532,815.9672863701126,816.8235231565777,"[94, 0, 160]",160,l,0.3331357539864257,colour,0.5
157,21,0,2,11,33,533,817.3422584070358,818.0156250492437,"[10, 0, 244]",244,a,0.15047434798907489,colour,0.5
157,21,0,2,11,34,534,818.529652265599,819.3754741904559,"[47, 0, 207]",207,a,0.32940682070329785,colour,0.5
157,21,0,2,11,35,535,819.8820175465662,820.5354469205486,"[4, 0, 250]",250,a,0.130079036927782,colour,0.5
157,21,0,2,11,36,536,821.0539730389137,822.0234736107523,"[80, 0, 174]",174,l,0.4532091353321448,colour,0.5
157,21,0,2,11,37,537,822.5312426154269,823.1034991635242,"[5, 0, 249]",249,a,0.048910937272012234,colour,0.5
157,21,0,2,11,38,538,823.6250145722879,824.2074760620017,"[43, 0, 211]",211,a,0.06741224322468042,colour,0.5
157,21,0,2,11,39,539,824.7260569249047,825.5274778421735,"[54, 0, 200]",200,a,0.27818912791553885,colour,0.5
157,21,0,2,11,40,540,826.0385354603641,826.9354947335087,"[66, 0, 188]",188,l,0.37358885013964027,colour,0.5
157,21,0,2,11,41,541,827.4447961925762,828.1594953888562,"[56, 0, 198]",198,a,0.19032525375951082,colour,0.5
157,21,0,2,11,42,542,828.680189628969,829.63947462535,"[35, 0, 219]",219,a,0.43584013637155294,colour,0.5
157,21,0,2,11,43,543,830.1490320842713,831.0554542933824,"[44, 0, 210]",210,a,0.3831904197577387,colour,0.5
157,21,0,2,11,44,544,831.570892265765,832.2154691650067,"[89, 0, 165]",165,l,0.12124546687118709,colour,0.5
157,21,0,2,11,45,545,832.7270777735393,833.383412942756,"[18, 0, 236]",236,a,0.13315142912324518,colour,0.5
157,21,0,2,11,46,546,833.9004062126623,834.60744589346,"[48, 0, 206]",206,a,0.1838264021789655,colour,0.5
157,21,0,2,11,47,547,835.1198012338718,835.7994705922902,"[60, 0, 194]",194,a,0.1569696549559012,colour,0.5
157,21,0,2,11,48,548,836.3064912897535,836.9114681630163,"[1, 0, 253]",253,a,0.08155761333182454,colour,0.5
157,21,0,2,11,49,549,837.4316303173546,838.263399032061,"[25, 0, 229]",229,a,0.30844358389731497,colour,0.5
157,21,0,2,11,50,550,838.7753786434187,839.6474665467395,"[61, 0, 193]",193,a,0.3478321145521477,colour,0.5
157,21,0,2,12,1,551,845.9646472085733,846.8634236868238,"[48, 0, 206]",206,a,0.37466680631041527,colour,0.5
157,21,0,2,12,2,552,847.3717369865626,848.0555515732849,"[75, 0, 179]",179,l,0.16056192351970822,colour,0.5
157,21,0,2,12,3,553,848.5747661342612,849.367733148858,"[93, 0, 161]",161,l,0.26967220986261964,colour,0.5
157,21,0,2,12,4,554,849.8872245835373,850.5434805896366,"[77, 0, 177]",177,l,0.1328391091665253,colour,0.5
157,21,0,2,12,5,555,851.0591749558225,851.6634271526709,"[65, 0, 189]",189,a,0.08097669063135982,colour,0.5
157,21,0,2,12,6,556,852.1841540819732,852.7913924186723,"[18, 0, 236]",236,a,0.08402584574650973,colour,0.5
157,21,0,2,12,7,557,853.3090993374353,853.935451804311,"[73, 0, 181]",181,l,0.10285601310897619,colour,0.5
157,21,0,2,12,8,558,854.4535309073981,855.4155137484195,"[0, 0, 254]",254,a,0.43867307016626,colour,0.5
157,21,0,2,12,9,559,855.9222587535623,857.3754663135624,"[40, 0, 214]",214,a,0.9300084598362446,colour,0.5
157,21,0,2,12,10,560,857.8945048253518,858.471536755329,"[21, 0, 233]",233,a,0.05416287272237241,colour,0.5
157,21,0,2,12,11,561,858.9883086838527,859.5274360945914,"[66, 0, 188]",188,l,0.01585820608306676,colour,0.5
157,21,0,2,12,12,562,860.0351747730747,860.6635323095834,"[38, 0, 216]",216,a,0.10410174774006009,colour,0.5
157,21,0,2,12,13,563,861.1766698278952,861.7754798618844,"[37, 0, 217]",217,a,0.07600517361424863,colour,0.5
157,21,0,2,12,14,564,862.2860640771687,862.8874660111032,"[39, 0, 215]",215,a,0.07853917824104428,colour,0.5
157,21,0,2,12,15,565,863.3954665971687,863.9754519775743,"[45, 0, 209]",209,a,0.056781160295940936,colour,0.5
157,21,0,2,12,16,566,864.4891507263528,865.1674684056779,"[10, 0, 244]",244,a,0.1550551699474454,colour,0.5
157,21,0,2,12,17,567,865.6766434402671,866.487450493616,"[11, 0, 243]",243,a,0.28776431002188474,colour,0.5
157,21,0,2,12,18,568,867.0046576218447,867.6154330887366,"[67, 0, 187]",187,l,0.08730185613967478,colour,0.5
157,21,0,2,12,19,569,868.1297990125604,868.655492732767,"[3, 0, 251]",251,a,0.002383555518463254,colour,0.5
157,21,0,2,12,20,570,869.1766213849187,869.8474043977913,"[70, 0, 184]",184,l,0.1477052173577249,colour,0.5
157,21,0,2,12,21,571,870.3641172494972,870.9914862327278,"[2, 0, 252]",252,a,0.10419469536282122,colour,0.5
157,21,0,2,12,22,572,871.5048108279007,872.1754032194149,"[20, 0, 234]",234,a,0.14732200524304062,colour,0.5
157,21,0,2,12,23,573,872.6936245010002,873.4235029128613,"[49, 0, 205]",205,a,0.2065572194987908,colour,0.5
157,21,0,2,12,24,574,873.943718236289,874.9674269730458,"[84, 0, 170]",170,l,0.5005604426842183,colour,0.5
157,21,0,2,12,25,575,875.4749120147899,876.0793989438098,"[58, 0, 196]",196,a,0.08107554586604238,colour,0.5
157,21,0,2,12,26,576,876.5999254055787,877.3434434894007,"[8, 0, 246]",246,a,0.21999012236483395,colour,0.5
157,21,0,2,12,27,577,877.8499541563215,878.6554604374105,"[53, 0, 201]",201,a,0.28257617773488164,colour,0.5
157,21,0,2,12,28,578,879.1637315956177,879.9594586824533,"[78, 0, 176]",176,l,0.27225426386576146,colour,0.5
157,21,0,2,12,29,579,880.4762735401746,881.1034432373708,"[13, 0, 241]",241,a,0.1040091939503327,colour,0.5
157,21,0,2,12,30,580,881.6169297032757,882.3194094359642,"[61, 0, 193]",193,a,0.17915854032617062,colour,0.5
157,21,0,2,12,31,581,882.8356630632188,883.6713934740983,"[33, 0, 221]",221,a,0.31238125544041395,colour,0.5
157,21,0,2,12,32,582,884.180803634692,884.8954205171904,"[69, 0, 185]",185,l,0.19123267475515604,colour,0.5
157,21,0,2,12,33,583,885.415221514646,886.0634572425624,"[55, 0, 199]",199,a,0.1249109908239916,colour,0.5
157,21,0,2,12,34,584,886.5714381362777,887.2474175522802,"[35, 0, 219]",219,a,0.15266649436671287,colour,0.5
157,21,0,2,12,35,585,887.761096214992,888.3514295031782,"[17, 0, 237]",237,a,0.06696759117767215,colour,0.5
157,21,0,2,12,36,586,888.8703990919748,889.6233950778842,"[72, 0, 182]",182,l,0.22990598110482097,colour,0.5
157,21,0,2,12,37,587,890.1360363503918,891.0553995488444,"[64, 0, 190]",190,l,0.3959329107310623,colour,0.5
157,21,0,2,12,38,588,891.5735030703945,892.3194062851835,"[94, 0, 160]",160,l,0.22275176993571222,colour,0.5
157,21,0,2,12,39,589,892.8391875904053,893.4154121361207,"[76, 0, 178]",178,l,0.05338935926556587,colour,0.5
157,21,0,2,12,40,590,893.934335251106,894.4954266612185,"[32, 0, 222]",222,a,0.037663091672584414,colour,0.5
157,21,0,2,12,41,591,895.0125081526348,895.6715242309729,"[28, 0, 226]",226,a,0.1356744059594348,colour,0.5
157,21,0,2,12,42,592,896.1843691217946,896.7834012848325,"[83, 0, 171]",171,l,0.07572357368189842,colour,0.5
157,21,0,2,12,43,593,897.2937527372269,897.9354458965827,"[71, 0, 183]",183,l,0.11855471145827323,colour,0.5
157,21,0,2,12,44,594,898.449966995744,898.9994375880342,"[57, 0, 197]",197,a,0.026394372107461095,colour,0.5
157,21,0,2,12,45,595,899.5124955495121,900.1514038244495,"[25, 0, 229]",229,a,0.11555951333139092,colour,0.5
157,21,0,2,12,46,596,900.664212087635,901.2000500971917,"[7, 0, 247]",247,a,0.012435291078872979,colour,0.5
157,21,0,2,12,47,597,901.7110230383696,902.3514129616087,"[44, 0, 210]",210,a,0.11697893391828984,colour,0.5
157,21,0,2,12,48,598,902.8593548645731,903.4634038370568,"[63, 0, 191]",191,l,0.0815552503336221,colour,0.5
157,21,0,2,12,49,599,903.9834931297228,904.9594181162538,"[90, 0, 164]",164,a,0.4527936278609559,colour,0.5
157,21,0,2,12,50,600,905.4678192436695,906.6474066821393,"[96, 0, 158]",158,l,0.6562095322879031,colour,0.5
157,21,0,2,13,1,601,911.0314281168394,911.9433984333882,"[48, 0, 206]",206,a,0.38793153688311577,colour,0.5
157,21,0,2,13,2,602,912.4540570855606,912.9837570064701,"[91, 0, 163]",163,l,0.006327922339551151,colour,0.5
157,21,0,2,13,3,603,913.5166100579081,914.1593685704283,"[84, 0, 170]",170,l,0.11948143097106367,colour,0.5
157,21,0,2,13,4,604,914.6727983225137,915.6314208700787,"[7, 0, 247]",247,a,0.43556050583720207,colour,0.5
157,21,0,2,13,5,605,916.1415316825733,916.8073876830749,"[2, 0, 252]",252,a,0.14249306044075638,colour,0.5
157,21,0,2,13,6,606,917.3135253778892,917.9674080684781,"[56, 0, 198]",198,l,0.12921927135903388,colour,0.5
157,21,0,2,13,7,607,918.486720697023,919.1434398660203,"[0, 0, 254]",254,l,0.13349722570274025,colour,0.5
157,21,0,2,13,8,608,919.6585674878443,920.2234138249187,"[52, 0, 202]",202,a,0.04151805548463017,colour,0.5
157,21,0,2,13,9,609,920.7366584694246,921.3754241720308,"[68, 0, 186]",186,l,0.11575328547041863,colour,0.5
157,21,0,2,13,10,610,921.8928534294246,922.5273971038405,"[97, 0, 157]",157,a,0.11134063580539078,colour,0.5
157,21,0,2,13,11,611,923.033596238587,924.1753929794068,"[90, 0, 164]",164,l,0.6185519545106217,colour,0.5
157,21,0,2,13,12,612,924.6910389024997,925.895423274138,"[78, 0, 176]",176,l,0.6810525454347953,colour,0.5
157,21,0,2,13,13,613,926.4099357086234,927.0954194143414,"[32, 0, 222]",222,a,0.16246026090811938,colour,0.5
157,21,0,2,13,14,614,927.6129695824347,928.2473986477125,"[89, 0, 165]",165,l,0.11105942982248962,colour,0.5
157,21,0,2,13,15,615,928.7534847486531,929.4473912434187,"[71, 0, 183]",183,l,0.17049077933188528,colour,0.5
157,21,0,2,13,16,616,929.9570420437958,930.6153952794848,"[40, 0, 214]",214,a,0.1350753663573414,colour,0.5
157,21,0,2,13,17,617,931.1288841085043,931.687423003139,"[35, 0, 219]",219,a,0.035298046888783574,colour,0.5
157,21,0,2,13,18,618,932.206982179312,932.9033706908813,"[49, 0, 205]",205,a,0.17313033458776772,colour,0.5
157,21,0,2,13,19,619,933.410131056211,934.1433827583678,"[42, 0, 212]",212,a,0.21024086035322398,colour,0.5
157,21,0,2,13,20,620,934.6601330253761,935.1914863114944,"[88, 0, 166]",166,l,0.008200659765861928,colour,0.5
157,21,0,2,13,21,621,935.707021563896,936.3114171206253,"[99, 0, 155]",155,l,0.08108775515574962,colour,0.5
157,21,0,2,13,22,622,936.8319644562434,937.3753910890082,"[31, 0, 223]",223,a,0.02007472049444914,colour,0.5
157,21,0,2,13,23,623,937.8945123084122,938.8313788073137,"[66, 0, 188]",188,l,0.4136016264092177,colour,0.5
157,21,0,2,13,24,624,939.34899356612,939.9674301238265,"[81, 0, 173]",173,l,0.09519295301288366,colour,0.5
157,21,0,2,13,25,625,940.4739238553448,941.4633699662518,"[17, 0, 237]",237,a,0.46604378626216203,colour,0.5
157,21,0,2,13,26,626,941.9736351663014,942.7433829946676,"[39, 0, 215]",215,a,0.2462907590670511,colour,0.5
157,21,0,2,13,27,627,943.2548856586218,944.0713711824501,"[23, 0, 231]",231,a,0.2931135252583772,colour,0.5
157,21,0,2,13,28,628,944.5830538340379,945.3994038747624,"[59, 0, 195]",195,a,0.29294732224661857,colour,0.5
157,21,0,2,13,29,629,945.911278723157,946.6473921098514,"[53, 0, 201]",201,a,0.2128449697047472,colour,0.5
157,21,0,2,13,30,630,947.1591732228408,947.8313835334266,"[18, 0, 236]",236,a,0.14900845347438008,colour,0.5
157,21,0,2,13,31,631,948.3467710935511,948.9514281640295,"[16, 0, 238]",238,a,0.08197154535446316,colour,0.5
157,21,0,2,13,32,632,949.4665959582198,950.007394851069,"[12, 0, 242]",242,a,0.01765571883879602,colour,0.5
157,21,0,2,13,33,633,950.5046462003374,951.583370486158,"[70, 0, 184]",184,l,0.5554097888525575,colour,0.5
157,21,0,2,13,34,634,952.0984323356533,952.6713891418185,"[41, 0, 213]",213,a,0.050436696386896074,colour,0.5
157,21,0,2,13,35,635,953.1920211542165,955.1274343616096,"[72, 0, 182]",182,l,1.4165436554467306,colour,0.5
157,21,0,2,13,36,636,955.6407518676715,956.2954155546613,"[83, 0, 171]",171,l,0.13134682702366263,colour,0.5
157,21,0,2,13,37,637,956.8126317415154,957.8233794027474,"[20, 0, 234]",234,a,0.48743946582544595,colour,0.5
157,21,0,2,13,38,638,958.3438995629549,959.1433922107099,"[44, 0, 210]",210,a,0.27680830424651504,colour,0.5
157,21,0,2,13,39,639,959.656372978352,960.3113635575864,"[82, 0, 172]",172,l,0.13165875303093344,colour,0.5
157,21,0,2,13,40,640,960.8282489137491,961.4473920310847,"[5, 0, 249]",249,a,0.09583098336588591,colour,0.5
157,21,0,2,13,41,641,961.9688231569016,962.6793432540726,"[1, 0, 253]",253,a,0.18714612943585962,colour,0.5
157,21,0,2,13,42,642,963.1876053537708,963.8874033895554,"[47, 0, 207]",207,a,0.17644809267949313,colour,0.5
157,21,0,2,13,43,643,964.4076100484235,965.0314564737491,"[38, 0, 216]",216,a,0.1005858852295205,colour,0.5
157,21,0,2,13,44,644,965.548862100346,966.6473956544651,"[46, 0, 208]",208,a,0.5759149828227237,colour,0.5
157,21,0,2,13,45,645,967.158200029633,967.9914023434976,"[25, 0, 229]",229,a,0.30984488769900054,colour,0.5
157,21,0,2,13,46,646,968.5020216110861,969.111365054152,"[77, 0, 177]",177,l,0.0866114441305399,colour,0.5
157,21,0,2,13,47,647,969.6267927866429,970.3354366017738,"[75, 0, 179]",179,l,0.18551206262782216,colour,0.5
157,21,0,2,13,48,648,970.8456923495978,971.9273759936914,"[86, 0, 168]",168,l,0.5583593009505421,colour,0.5
157,21,0,2,13,49,649,972.4408778195502,973.5993700828403,"[64, 0, 190]",190,l,0.635458184638992,colour,0.5
157,21,0,2,13,50,650,974.1127667517867,974.8716668819543,"[98, 0, 156]",156,l,0.2355529438937083,colour,0.5
157,21,0,2,14,1,651,979.2851263299817,979.8874797957251,"[45, 0, 209]",209,a,0.07860770740080625,colour,0.5
157,21,0,2,14,2,652,980.3952082342003,980.9354411704699,"[85, 0, 169]",169,l,0.01707243302371353,colour,0.5
157,21,0,2,14,3,653,981.4419616835658,982.0234149276512,"[74, 0, 180]",180,l,0.05812850710935891,colour,0.5
157,21,0,2,14,4,654,982.5356997696217,983.1114127095789,"[54, 0, 200]",200,a,0.05236890446394682,colour,0.5
157,21,0,2,14,5,655,983.6317560329335,984.6633527157828,"[15, 0, 239]",239,a,0.508112438255921,colour,0.5
157,21,0,2,14,6,656,985.178663082188,985.7593940128572,"[21, 0, 233]",233,a,0.05730221839621663,colour,0.5
157,21,0,2,14,7,657,986.2725622513099,986.8873754264787,"[83, 0, 171]",171,l,0.09162785962689668,colour,0.5
157,21,0,2,14,8,658,987.397475211299,988.0873747175792,"[86, 0, 168]",168,l,0.16652593237813562,colour,0.5
157,21,0,2,14,9,659,988.6006449620472,989.3193460267503,"[70, 0, 184]",184,l,0.19546336762141436,colour,0.5
157,21,0,2,14,10,660,989.8372352961451,990.3674346136395,"[35, 0, 219]",219,a,0.006821017479524016,colour,0.5
157,21,0,2,14,11,661,990.8997851177119,991.7753569819033,"[34, 0, 220]",220,a,0.35218529345002025,colour,0.5
157,21,0,2,14,12,662,992.2904656991595,993.207392960554,"[37, 0, 217]",217,a,0.39380968734622,colour,0.5
157,21,0,2,14,13,663,993.7205328419805,994.3914202240994,"[44, 0, 210]",210,a,0.1568605595966801,colour,0.5
157,21,0,2,14,14,664,994.8986236660276,995.4553359033307,"[30, 0, 224]",224,a,0.0383857989218086,colour,0.5
157,21,0,2,14,15,665,995.9718530134996,996.5353772098897,"[87, 0, 167]",167,l,0.040225453209131956,colour,0.5
157,21,0,2,14,16,666,997.0499451766955,997.6153491995065,"[65, 0, 189]",189,a,0.04196703981142491,colour,0.5
157,21,0,2,14,17,667,998.1281535242451,998.7514729837421,"[57, 0, 197]",197,a,0.10003647010307759,colour,0.5
157,21,0,2,14,18,668,999.2584101858083,999.7838423922658,"[82, 0, 172]",172,l,0.0020625710021704435,colour,0.5
157,21,0,2,14,19,669,1000.3052420103922,1000.8393447349081,"[4, 0, 250]",250,a,0.01084966748021543,colour,0.5
157,21,0,2,14,20,670,1001.3521466965321,1002.095396571327,"[77, 0, 177]",177,l,0.22320232971105725,colour,0.5
157,21,0,2,14,21,671,1002.6145189723466,1003.2553614245262,"[51, 0, 203]",203,a,0.11752204748336226,colour,0.5
157,21,0,2,14,22,672,1003.7708092430839,1004.3673672660952,"[14, 0, 240]",240,l,0.06893760850653052,colour,0.5
157,21,0,2,14,23,673,1004.8845531266415,1005.463405806222,"[6, 0, 248]",248,a,0.05559135181829333,colour,0.5
157,21,0,2,14,24,674,1005.9782620682381,1006.591330506024,"[0, 0, 254]",254,a,0.0897622115444392,colour,0.5
157,21,0,2,14,25,675,1007.1033030281542,1007.7113708043471,"[96, 0, 158]",158,l,0.08486906986217946,colour,0.5
157,21,0,2,14,26,676,1008.2282238651533,1008.7993973370176,"[53, 0, 201]",201,a,0.04812836542259902,colour,0.5
157,21,0,2,14,27,677,1009.3064003112959,1009.9353218351025,"[47, 0, 207]",207,a,0.10562317445874214,colour,0.5
157,21,0,2,14,28,678,1010.4470249667065,1011.0393652936909,"[27, 0, 227]",227,a,0.06810107978526503,colour,0.5
157,21,0,2,14,29,679,1011.5573451477103,1012.5433604667196,"[71, 0, 183]",183,a,0.46274926513433456,colour,0.5
157,21,0,2,14,30,680,1013.0572521999711,1013.79137115099,"[92, 0, 162]",162,l,0.21064612793270499,colour,0.5
157,21,0,2,14,31,681,1014.3073226984125,1014.9833667052444,"[66, 0, 188]",188,a,0.15275786665733904,colour,0.5
157,21,0,2,14,32,682,1015.4947957199765,1016.0233672723407,"[32, 0, 222]",222,l,0.005277929129078984,colour,0.5
157,21,0,2,14,33,683,1016.5426594209857,1017.3593241446652,"[97, 0, 157]",157,l,0.2934526266762987,colour,0.5
157,21,0,2,14,34,684,1017.8708232640056,1018.6236810099799,"[78, 0, 176]",176,l,0.23027501464821398,colour,0.5
157,21,0,2,14,35,685,1019.1364908486139,1019.7593223329168,"[59, 0, 195]",195,a,0.09962529491167516,colour,0.5
157,21,0,2,14,36,686,1020.2770654855995,1020.9353836689843,"[73, 0, 181]",181,a,0.13525732327252626,colour,0.5
157,21,0,2,14,37,687,1021.4488957348512,1022.0714026901405,"[26, 0, 228]",228,a,0.09920072904787958,colour,0.5
157,21,0,2,14,38,688,1022.5918952811044,1023.1753146040719,"[58, 0, 196]",196,a,0.06030883814673871,colour,0.5
157,21,0,2,14,39,689,1023.6856243087677,1024.2313525772188,"[49, 0, 205]",205,a,0.02244015911128372,colour,0.5
157,21,0,2,14,40,690,1024.7480985119473,1025.6233552994672,"[67, 0, 187]",187,a,0.35199270281009376,colour,0.5
157,21,0,2,14,41,691,1026.138689690386,1027.1033928251127,"[93, 0, 161]",161,l,0.4413295608246699,colour,0.5
157,21,0,2,14,42,692,1027.623044948792,1028.4793408121914,"[5, 0, 249]",249,a,0.33309400628786534,colour,0.5
157,21,0,2,14,43,693,1028.998626659275,1029.679291660199,"[2, 0, 252]",252,a,0.1573981592664495,colour,0.5
157,21,0,2,14,44,694,1030.1863210222218,1030.7113648966188,"[43, 0, 211]",211,a,0.002026731031946838,colour,0.5
157,21,0,2,14,45,695,1031.2329082685756,1032.159331942792,"[7, 0, 247]",247,a,0.40306349110323936,colour,0.5
157,21,0,2,14,46,696,1032.6704840839375,1033.4073804361979,"[42, 0, 212]",212,a,0.2140146919991821,colour,0.5
157,21,0,2,14,47,697,1033.920457696193,1034.551317335805,"[50, 0, 204]",204,a,0.10762430564500391,colour,0.5
157,21,0,2,14,48,698,1035.0625411568908,1035.6001581684686,"[18, 0, 236]",236,a,0.014374982216395438,colour,0.5
157,21,0,2,14,49,699,1036.1093454123475,1036.6633290851023,"[9, 0, 245]",245,a,0.0309842525748536,colour,0.5
157,21,0,2,14,50,700,1037.171775898547,1037.7593640806153,"[16, 0, 238]",238,a,0.06426186976023018,colour,0.5
157,21,0,2,15,1,701,1042.2294302152004,1042.77536879736,"[88, 0, 166]",166,l,0.02175959339365363,colour,0.5
157,21,0,2,15,2,702,1043.2927035316825,1043.8233352920506,"[45, 0, 209]",209,a,0.007911183056421578,colour,0.5
157,21,0,2,15,3,703,1044.3449582208414,1045.3193326359615,"[44, 0, 210]",210,a,0.4517916839104146,colour,0.5
157,21,0,2,15,4,704,1045.8292524331482,1046.4393414265942,"[7, 0, 247]",247,a,0.08673865639138967,colour,0.5
157,21,0,2,15,5,705,1046.9542603100417,1047.487342579756,"[13, 0, 241]",241,a,0.009799674153327942,colour,0.5
157,21,0,2,15,6,706,1048.0011701162439,1049.1753563517705,"[66, 0, 188]",188,l,0.6510473937960342,colour,0.5
157,21,0,2,15,7,707,1049.6886762208305,1050.2794242288219,"[48, 0, 206]",206,a,0.06737088947556913,colour,0.5
157,21,0,2,15,8,708,1050.7980543223675,1051.5272872208152,"[63, 0, 191]",191,a,0.20582821068819612,colour,0.5
157,21,0,2,15,9,709,1052.0480180885643,1052.8712974544615,"[9, 0, 245]",245,a,0.29984868434257805,colour,0.5
157,21,0,2,15,10,710,1053.391793983872,1054.0633229410741,"[23, 0, 231]",231,a,0.14818807248957455,colour,0.5
157,21,0,2,15,11,711,1054.5793075716356,1055.1513404152356,"[20, 0, 234]",234,a,0.048688414390198886,colour,0.5
157,21,0,2,15,12,712,1055.6740940755699,1056.5433545589913,"[16, 0, 238]",238,a,0.3459499249001965,colour,0.5
157,21,0,2,15,13,713,1057.0645927003352,1057.5914151829202,"[72, 0, 182]",182,l,0.003355961060151458,colour,0.5
157,21,0,2,15,14,714,1058.1115584325744,1058.6393734068843,"[14, 0, 240]",240,a,0.00458318495657295,colour,0.5
157,21,0,2,15,15,715,1059.1583638695301,1059.7113148781937,"[29, 0, 225]",225,a,0.029609336284920573,colour,0.5
157,21,0,2,15,16,716,1060.2209022694733,1060.7753916403744,"[65, 0, 189]",189,l,0.03150255372747779,colour,0.5
157,21,0,2,15,17,717,1061.2833646571962,1061.95129110571,"[46, 0, 208]",208,a,0.14453436387702823,colour,0.5
157,21,0,2,15,18,718,1062.470939291059,1063.1273406263208,"[6, 0, 248]",248,a,0.13296750304289162,colour,0.5
157,21,0,2,15,19,719,1063.6427837187657,1064.247307275422,"[24, 0, 230]",230,a,0.07980184827465564,colour,0.5
157,21,0,2,15,20,720,1064.7535556409275,1066.2952844040701,"[22, 0, 232]",232,a,1.018359521520324,colour,0.5
157,21,0,2,15,21,721,1066.8159203549149,1067.7832906141412,"[19, 0, 235]",235,a,0.4439486361807212,colour,0.5
157,21,0,2,15,22,722,1068.3017391448375,1068.8392762057483,"[3, 0, 251]",251,a,0.014324963907711208,colour,0.5
157,21,0,2,15,23,723,1069.3487277200911,1069.8873112295987,"[97, 0, 157]",157,l,0.015320606296882033,colour,0.5
157,21,0,2,15,24,724,1070.3955059817526,1071.0793414423242,"[60, 0, 194]",194,a,0.16111764020752162,colour,0.5
157,21,0,2,15,25,725,1071.5984756588005,1072.1753209056333,"[82, 0, 172]",172,a,0.05377414671238512,colour,0.5
157,21,0,2,15,26,726,1072.692061326583,1073.311308025266,"[51, 0, 203]",203,a,0.09596725401934236,colour,0.5
157,21,0,2,15,27,727,1073.818476021057,1074.4712921769824,"[90, 0, 164]",164,l,0.12955679732840508,colour,0.5
157,21,0,2,15,28,728,1074.9903696795227,1075.6233064625412,"[79, 0, 175]",175,l,0.10965418757405132,colour,0.5
157,21,0,2,15,29,729,1076.1309758241987,1076.9993158896687,"[49, 0, 205]",205,a,0.34509094688110054,colour,0.5
157,21,0,2,15,30,730,1077.5059254118241,1078.5753049155464,"[57, 0, 197]",197,a,0.5459787544095889,colour,0.5
157,21,0,2,15,31,731,1079.084034510306,1079.7593144560233,"[71, 0, 183]",183,a,0.1496673576766625,colour,0.5
157,21,0,2,15,32,732,1080.273857610533,1081.1833908085246,"[35, 0, 219]",219,a,0.386203734902665,colour,0.5
157,21,0,2,15,33,733,1081.6956405983074,1082.2632781213615,"[83, 0, 171]",171,l,0.044246226199902594,colour,0.5
157,21,0,2,15,34,734,1082.7738028658787,1083.4873839336215,"[30, 0, 224]",224,a,0.1902571184327826,colour,0.5
157,21,0,2,15,35,735,1083.9925732474076,1084.5992830428295,"[77, 0, 177]",177,l,0.08382419659756124,colour,0.5
157,21,0,2,15,36,736,1085.1175381952198,1085.9353222289355,"[94, 0, 160]",160,l,0.29448529065120965,colour,0.5
157,21,0,2,15,37,737,1086.4510354996892,1087.2153447096935,"[70, 0, 184]",184,a,0.24102740222588181,colour,0.5
157,21,0,2,15,38,738,1087.7322895366233,1089.7673162235878,"[74, 0, 180]",180,l,1.5163398795993999,colour,0.5
157,21,0,2,15,39,739,1090.2759843785316,1090.8553333039163,"[98, 0, 156]",156,l,0.056933578685857356,colour,0.5
157,21,0,2,15,40,740,1091.3689154743915,1092.255325584556,"[68, 0, 186]",186,l,0.36306765011977404,colour,0.5
157,21,0,2,15,41,741,1092.77510846511,1093.6793046571547,"[32, 0, 222]",222,a,0.38076551049016416,colour,0.5
157,21,0,2,15,42,742,1094.1969970036298,1094.7753365020035,"[53, 0, 201]",201,a,0.05506753677036613,colour,0.5
157,21,0,2,15,43,743,1095.290715397452,1095.8154339551693,"[87, 0, 167]",167,l,0.0014123314758762717,colour,0.5
157,21,0,2,15,44,744,1096.3375728221145,1097.0473158613313,"[50, 0, 204]",204,a,0.18719024024903774,colour,0.5
157,21,0,2,15,45,745,1097.5564042497426,1098.3593020893168,"[55, 0, 199]",199,a,0.27966486872173846,colour,0.5
157,21,0,2,15,46,746,1098.8688524590107,1099.4553122725338,"[8, 0, 246]",246,a,0.06248286773916334,colour,0.5
157,21,0,2,15,47,747,1099.9639315905515,1100.5513086712454,"[64, 0, 190]",190,a,0.06405313138384372,colour,0.5
157,21,0,2,15,48,748,1101.0577212704811,1101.6393048777245,"[18, 0, 236]",236,a,0.058545983862131834,colour,0.5
157,21,0,2,15,49,749,1102.1514152459567,1102.7113144843606,"[0, 0, 254]",254,a,0.036595375277101994,colour,0.5
157,21,0,2,15,50,750,1103.229512922815,1103.7838014323497,"[37, 0, 217]",217,a,0.028670407715253532,colour,0.5
157,21,0,2,16,1,751,1108.1834262546618,1108.9913093958749,"[50, 0, 204]",204,a,0.2838746876223013,colour,0.5
157,21,0,2,16,2,752,1109.4980614903616,1110.3112548560603,"[52, 0, 202]",202,a,0.29013565625064075,colour,0.5
157,21,0,2,16,3,753,1110.8261603488354,1111.7592557730386,"[44, 0, 210]",210,a,0.4101416900521144,colour,0.5
157,21,0,2,16,4,754,1112.2793304934166,1112.887282478856,"[33, 0, 221]",221,a,0.08148041949607432,colour,0.5
157,21,0,2,16,5,755,1113.4075104054064,1114.1273067555157,"[2, 0, 252]",252,a,0.19646413007285446,colour,0.5
157,21,0,2,16,6,756,1114.6418633008143,1115.671308797202,"[66, 0, 188]",188,l,0.5061499039875343,colour,0.5
157,21,0,2,16,7,757,1116.1887195438612,1117.1752413487993,"[23, 0, 231]",231,a,0.4635019046254456,colour,0.5
157,21,0,2,16,8,758,1117.688707334688,1118.2712444427889,"[79, 0, 175]",175,l,0.05920803884509951,colour,0.5
157,21,0,2,16,9,759,1118.7825214330805,1119.3272993512219,"[30, 0, 224]",224,a,0.02012552658561617,colour,0.5
157,21,0,2,16,10,760,1119.8463941829978,1120.3992947795196,"[47, 0, 207]",207,a,0.029603822506032884,colour,0.5
157,21,0,2,16,11,761,1120.9087935554562,1121.4392402082449,"[53, 0, 201]",201,a,0.007028180523775518,colour,0.5
157,21,0,2,16,12,762,1121.955713207717,1122.5512543205405,"[64, 0, 190]",190,l,0.07224118814337999,colour,0.5
157,21,0,2,16,13,763,1123.0651814999292,1123.7273034472018,"[40, 0, 214]",214,a,0.13911268080119044,colour,0.5
157,21,0,2,16,14,764,1124.2368695707992,1124.8392813256942,"[96, 0, 158]",158,l,0.0775451110675931,colour,0.5
157,21,0,2,16,15,765,1125.347788003739,1126.0072763033677,"[57, 0, 197]",197,a,0.13603950117249042,colour,0.5
157,21,0,2,16,16,766,1126.519727742183,1127.0714605854591,"[12, 0, 242]",242,a,0.028486481634899974,colour,0.5
157,21,0,2,16,17,767,1127.5830376863014,1128.1512872460298,"[95, 0, 159]",159,l,0.04494097037240863,colour,0.5
157,21,0,2,16,18,768,1128.6611778986407,1129.3833223581314,"[58, 0, 196]",196,a,0.1988181471824646,colour,0.5
157,21,0,2,16,19,769,1129.8955500924494,1130.871259645326,"[67, 0, 187]",187,a,0.45277551107574254,colour,0.5
157,21,0,2,16,20,770,1131.3798864462879,1131.9993312496226,"[35, 0, 219]",219,a,0.09640836145263165,colour,0.5
157,21,0,2,16,21,771,1132.5102655938827,1133.431295942166,"[24, 0, 230]",230,a,0.39804707560688257,colour,0.5
157,21,0,2,16,22,772,1133.9476661478402,1134.5753966815537,"[81, 0, 173]",173,l,0.11963266774546355,colour,0.5
157,21,0,2,16,23,773,1135.0887027661083,1135.66328379279,"[13, 0, 241]",241,a,0.05132718198001385,colour,0.5
157,21,0,2,16,24,774,1136.1824156460352,1136.7752841204638,"[6, 0, 248]",248,a,0.06963826040737331,colour,0.5
157,21,0,2,16,25,775,1137.2917933537392,1137.839286051807,"[56, 0, 198]",198,a,0.024263665662147105,colour,0.5
157,21,0,2,16,26,776,1138.3542616491904,1139.3832896689419,"[26, 0, 228]",228,a,0.5057548766490072,colour,0.5
157,21,0,2,16,27,777,1139.9024345191428,1140.6552568190964,"[7, 0, 247]",247,a,0.2303730824496597,colour,0.5
157,21,0,2,16,28,778,1141.1679650454316,1141.743301074719,"[99, 0, 155]",155,l,0.051990812411531806,colour,0.5
157,21,0,2,16,29,779,1142.2618665775517,1142.9113220461877,"[14, 0, 240]",240,a,0.12628354376647621,colour,0.5
157,21,0,2,16,30,780,1143.4180095499614,1144.1032687636325,"[29, 0, 225]",225,a,0.16197976900730282,colour,0.5
157,21,0,2,16,31,781,1144.615997863817,1145.199304940761,"[39, 0, 215]",215,a,0.05999179231002927,colour,0.5
157,21,0,2,16,32,782,1145.6998992542503,1146.319260956021,"[59, 0, 195]",195,a,0.09598261408973485,colour,0.5
157,21,0,2,16,33,783,1146.8405333618866,1147.4312986989971,"[62, 0, 192]",192,a,0.06740082171745598,colour,0.5
157,21,0,2,16,34,784,1147.9498232419137,1148.5272565007908,"[65, 0, 189]",189,a,0.05395492189563811,colour,0.5
157,21,0,2,16,35,785,1149.0386863033054,1149.6233076440403,"[36, 0, 218]",218,a,0.061271397629752755,colour,0.5
157,21,0,2,16,36,786,1150.1323586171493,1151.1752303211251,"[63, 0, 191]",191,a,0.5196328253950924,colour,0.5
157,21,0,2,16,37,787,1151.6867896988988,1152.39927823795,"[11, 0, 243]",243,a,0.18952968495432287,colour,0.5
157,21,0,2,16,38,788,1152.9053667020053,1153.8233431689441,"[38, 0, 216]",216,a,0.39539964334107935,colour,0.5
157,21,0,2,16,39,789,1154.336636256543,1154.8873104419326,"[91, 0, 163]",163,l,0.02776456205174327,colour,0.5
157,21,0,2,16,40,790,1155.3992455487605,1155.967267859378,"[83, 0, 171]",171,l,0.04478737048339099,colour,0.5
157,21,0,2,16,41,791,1156.4773195949383,1157.039292432135,"[86, 0, 168]",168,l,0.03881627239752561,colour,0.5
157,21,0,2,16,42,792,1157.5553085703868,1158.079394217697,"[31, 0, 223]",223,a,0.0006640242645516992,colour,0.5
157,21,0,2,16,43,793,1158.602193564293,1159.4712661830708,"[45, 0, 209]",209,a,0.3455887681338936,colour,0.5
157,21,0,2,16,44,794,1159.9929407057352,1160.6312491531717,"[90, 0, 164]",164,l,0.12733983853831887,colour,0.5
157,21,0,2,16,45,795,1161.1531769187422,1161.8152925644536,"[93, 0, 161]",161,l,0.13962861895561218,colour,0.5
157,21,0,2,16,46,796,1162.324319119216,1163.0952461222187,"[25, 0, 229]",229,a,0.24761565681546926,colour,0.5
157,21,0,2,16,47,797,1163.6055700053694,1164.4392496604705,"[46, 0, 208]",208,a,0.31130723759997636,colour,0.5
157,21,0,2,16,48,798,1164.9481454583583,1165.7592317484086,"[1, 0, 253]",253,a,0.2877694299677387,colour,0.5
157,21,0,2,16,49,799,1166.2762159599224,1166.8712588575436,"[55, 0, 199]",199,a,0.06858511629980057,colour,0.5
157,21,0,2,16,50,800,1167.3887322257506,1167.999225305044,"[75, 0, 179]",179,l,0.08717621921095997,colour,0.5
