id,age,condition,counterbalance,block,trialinblock,trial,tstart,tend,trialstim,trialintensity,response,RT,trialtype,colourfreq
72,62,0,1,Practice,1,NA,5.513662472367287e-06,2.3584727314300835,"[18, 0, 236]",236,a,1.8340068741235882,colour,0.5
72,62,0,1,Practice,2,NA,2.875833622412756,5.430474713211879,"[63, 0, 191]",191,a,2.0313102952204645,colour,0.5
72,62,0,1,Practice,3,NA,5.938301400979981,7.462514015845954,"[72, 0, 182]",182,a,1.0009586191736162,colour,0.5
72,62,0,1,Practice,4,NA,7.96950102574192,10.038436529226601,"[3, 0, 251]",251,a,1.5456074648536742,colour,0.5
72,62,0,1,Practice,5,NA,10.548202510457486,11.69450849876739,"[37, 0, 217]",217,a,0.6238704028073698,colour,0.5
72,62,0,1,Practice,6,NA,12.231584096327424,13.382430331548676,"[26, 0, 228]",228,a,0.623947202693671,colour,0.5
72,62,0,1,Practice,7,NA,13.893208100926131,15.182475938927382,"[14, 0, 240]",240,a,0.7659811528865248,colour,0.5
72,62,0,1,Practice,8,NA,15.690864249831066,18.686424433486536,"[91, 0, 163]",163,l,2.4730182599741966,colour,0.5
72,62,0,1,Practice,9,NA,19.20564191043377,22.198469596449286,"[80, 0, 174]",174,l,2.4693468355108052,colour,0.5
72,62,0,1,Practice,10,NA,22.705561762908474,23.966383741237223,"[96, 0, 158]",158,l,0.7373340383637697,colour,0.5
72,62,0,1,1,1,1,4.724059881642461,5.887854957720265,"[66, 0, 188]",188,a,0.6396667440421879,colour,0.5
72,62,0,1,1,2,2,6.396712732035667,7.4718178196344525,"[5, 0, 249]",249,a,0.5516577137168497,colour,0.5
72,62,0,1,1,3,3,7.990444922819734,9.367842307547107,"[28, 0, 226]",226,a,0.8540224784519523,colour,0.5
72,62,0,1,1,4,4,9.880990236764774,10.85579320602119,"[25, 0, 229]",229,a,0.4512878539972007,colour,0.5
72,62,0,1,1,5,5,11.365474904188886,12.967807097593322,"[75, 0, 179]",179,l,1.0798773092683405,colour,0.5
72,62,0,1,1,6,6,13.474811436608434,14.656094812555239,"[1, 0, 253]",253,a,0.6578828697092831,colour,0.5
72,62,0,1,1,7,7,15.162330365972593,15.943745916243643,"[92, 0, 162]",162,l,0.25806900090537965,colour,0.5
72,62,0,1,1,8,8,16.459173027426004,17.287741294130683,"[7, 0, 247]",247,a,0.30522644333541393,colour,0.5
72,62,0,1,1,9,9,17.80287499073893,19.23174911737442,"[61, 0, 193]",193,a,0.9054472327698022,colour,0.5
72,62,0,1,1,10,10,19.740361132193357,20.87176244519651,"[18, 0, 236]",236,a,0.6086057529319078,colour,0.5
72,62,0,1,1,11,11,21.381023516878486,22.599791498156264,"[33, 0, 221]",221,a,0.695380472112447,colour,0.5
72,62,0,1,1,12,12,23.115306437015533,24.01572505501099,"[16, 0, 238]",238,a,0.37694013048894703,colour,0.5
72,62,0,1,1,13,13,24.52156715700403,25.375709758140147,"[58, 0, 196]",196,a,0.33067711046896875,colour,0.5
72,62,0,1,1,14,14,25.896556572290137,27.04770764382556,"[55, 0, 199]",199,a,0.6277710450813174,colour,0.5
72,62,0,1,1,15,15,27.56846820609644,28.735713759437203,"[78, 0, 176]",176,l,0.6438753730617464,colour,0.5
72,62,0,1,1,16,16,29.255883160280064,29.93575440440327,"[22, 0, 232]",232,a,0.15638527343980968,colour,0.5
72,62,0,1,1,17,17,30.443460181588307,31.55172151676379,"[43, 0, 211]",211,a,0.5850097024813294,colour,0.5
72,62,0,1,1,18,18,32.068475098349154,33.05571884801611,"[15, 0, 239]",239,a,0.4639413107652217,colour,0.5
72,62,0,1,1,19,19,33.56843354785815,34.49566908180714,"[89, 0, 165]",165,l,0.4039661781862378,colour,0.5
72,62,0,1,1,20,20,35.005912797059864,35.67171589261852,"[49, 0, 205]",205,a,0.14248253987170756,colour,0.5
72,62,0,1,1,21,21,36.19366311025806,37.28774444479495,"[20, 0, 234]",234,a,0.5710604949854314,colour,0.5
72,62,0,1,1,22,22,37.80279779713601,38.6476669202093,"[44, 0, 210]",210,a,0.32152690598741174,colour,0.5
72,62,0,1,1,23,23,39.1621165079996,40.06367648928426,"[11, 0, 243]",243,a,0.37808897672221065,colour,0.5
72,62,0,1,1,24,24,40.583973495755345,41.543991124257445,"[46, 0, 208]",208,a,0.4365478055551648,colour,0.5
72,62,0,1,1,25,25,42.05277328006923,42.85567308310419,"[21, 0, 233]",233,a,0.27949496428482234,colour,0.5
72,62,0,1,1,26,26,43.36528467712924,44.1117224462796,"[2, 0, 252]",252,a,0.22391947614960372,colour,0.5
72,62,0,1,1,27,27,44.63086784956977,45.35169308120385,"[13, 0, 241]",241,a,0.19816633593291044,colour,0.5
72,62,0,1,1,28,28,45.865277390927076,46.6156571561005,"[62, 0, 192]",192,a,0.2269973757211119,colour,0.5
72,62,0,1,1,29,29,47.13120675319806,48.2797131545376,"[64, 0, 190]",190,a,0.6254418450407684,colour,0.5
72,62,0,1,1,30,30,48.787080618785694,49.82364362664521,"[36, 0, 218]",218,a,0.5131179969757795,colour,0.5
72,62,0,1,1,31,31,50.33398147113621,51.34370944625698,"[79, 0, 175]",175,l,0.48632825654931366,colour,0.5
72,62,0,1,1,32,32,51.86520177265629,52.463677040534094,"[41, 0, 213]",213,a,0.0750298632774502,colour,0.5
72,62,0,1,1,33,33,52.97426615818404,53.85577272600494,"[85, 0, 169]",169,l,0.35820137220434844,colour,0.5
72,62,0,1,1,34,34,54.36484396434389,55.0156640089117,"[60, 0, 194]",194,a,0.12837855122052133,colour,0.5
72,62,0,1,1,35,35,55.536660090554506,56.231645142193884,"[98, 0, 156]",156,l,0.1715238932520151,colour,0.5
72,62,0,1,1,36,36,56.7398644934874,57.55966025334783,"[9, 0, 245]",245,a,0.2964752041734755,colour,0.5
72,62,0,1,1,37,37,58.06783470627852,58.70365712768398,"[82, 0, 172]",172,l,0.11214898061007261,colour,0.5
72,62,0,1,1,38,38,59.2241782322526,59.88801052654162,"[10, 0, 244]",244,a,0.14043257595039904,colour,0.5
72,62,0,1,1,39,39,60.396083761239424,61.43962924974039,"[77, 0, 177]",177,l,0.5202426558826119,colour,0.5
72,62,0,1,1,40,40,61.958596635144204,63.00773314922117,"[83, 0, 171]",171,l,0.5257482170127332,colour,0.5
72,62,0,1,1,41,41,63.52104925061576,64.20765721588396,"[65, 0, 189]",189,a,0.1631956435739994,colour,0.5
72,62,0,1,1,42,42,64.72418551822193,65.51967591256835,"[96, 0, 158]",158,l,0.27212651562877,colour,0.5
72,62,0,1,1,43,43,66.03668155521154,66.8556183387991,"[72, 0, 182]",182,a,0.2956280433572829,colour,0.5
72,62,0,1,1,44,44,67.36477582925,68.07958468236029,"[90, 0, 164]",164,l,0.19232679391279817,colour,0.5
72,62,0,1,1,45,45,68.59913338301703,69.24765415978618,"[3, 0, 251]",251,a,0.12507222150452435,colour,0.5
72,62,0,1,1,46,46,69.75537923537195,70.63159213075414,"[67, 0, 187]",187,a,0.3528104198630899,colour,0.5
72,62,0,1,1,47,47,71.14598421682604,72.01559666148387,"[59, 0, 195]",195,a,0.3461631014943123,colour,0.5
72,62,0,1,1,48,48,72.53671798598953,73.25561810238287,"[45, 0, 209]",209,a,0.19557168381288648,colour,0.5
72,62,0,1,1,49,49,73.771082628984,74.49561039870605,"[99, 0, 155]",155,l,0.20119382324628532,colour,0.5
72,62,0,1,1,50,50,75.005377167603,75.82356407004409,"[88, 0, 166]",166,l,0.2948793435934931,colour,0.5
72,62,0,1,2,1,51,81.27019667439163,82.23167625605129,"[26, 0, 228]",228,a,0.4373480989597738,colour,0.5
72,62,0,1,2,2,52,82.73975776159205,83.4236064478755,"[50, 0, 204]",204,a,0.16047535534016788,colour,0.5
72,62,0,1,2,3,53,83.94282274320722,84.56757299602032,"[53, 0, 201]",201,a,0.10138401109725237,colour,0.5
72,62,0,1,2,4,54,85.08359638904221,85.66368302702904,"[57, 0, 197]",197,a,0.056931891245767474,colour,0.5
72,62,0,1,2,5,55,86.17716651246883,86.90356740984134,"[15, 0, 239]",239,a,0.20310554769821465,colour,0.5
72,62,0,1,2,6,56,87.41159062623046,89.42394791147672,"[98, 0, 156]",156,l,1.4892710675485432,colour,0.5
72,62,0,1,2,7,57,89.9428247124888,91.51959556830116,"[63, 0, 191]",191,a,1.0533746818546206,colour,0.5
72,62,0,1,2,8,58,92.03653583256528,93.06361583713442,"[37, 0, 217]",217,a,0.5036940707359463,colour,0.5
72,62,0,1,2,9,59,93.58338863565587,95.25554878567345,"[70, 0, 184]",184,l,1.1487344377674162,colour,0.5
72,62,0,1,2,10,60,95.7708963402547,97.10357536561787,"[60, 0, 194]",194,a,0.8093167222104967,colour,0.5
72,62,0,1,2,11,61,97.61460992181674,98.37550810934044,"[92, 0, 162]",162,l,0.23747956426814198,colour,0.5
72,62,0,1,2,12,62,98.89581181132235,99.56752219004557,"[32, 0, 222]",222,a,0.14836973696947098,colour,0.5
72,62,0,1,2,13,63,100.08347784145735,101.95955486036837,"[73, 0, 181]",181,a,1.352814358426258,colour,0.5
72,62,0,1,2,14,64,102.47403477411717,103.3595475347247,"[4, 0, 250]",250,a,0.36245096125639975,colour,0.5
72,62,0,1,2,15,65,103.88020136510022,104.95152987167239,"[56, 0, 198]",198,a,0.5479264250025153,colour,0.5
72,62,0,1,2,16,66,105.45833728811704,106.25549601041712,"[20, 0, 234]",234,a,0.2738799143116921,colour,0.5
72,62,0,1,2,17,67,106.7708987032529,108.02354248729534,"[76, 0, 178]",178,l,0.7292456408031285,colour,0.5
72,62,0,1,2,18,68,108.5364336296916,109.2075382748153,"[34, 0, 220]",220,a,0.14772146800532937,colour,0.5
72,62,0,1,2,19,69,109.72389761754312,110.41552277607843,"[30, 0, 224]",224,a,0.16821677540428936,colour,0.5
72,62,0,1,2,20,70,110.92702837125398,111.87151432270184,"[86, 0, 168]",168,l,0.4211846941616386,colour,0.5
72,62,0,1,2,21,71,112.38017753744498,113.0635209204629,"[46, 0, 208]",208,a,0.16009450727142394,colour,0.5
72,62,0,1,2,22,72,113.58335476485081,114.831539434148,"[68, 0, 186]",186,a,0.7248814427293837,colour,0.5
72,62,0,1,2,23,73,115.34893340826966,116.11948946630582,"[90, 0, 164]",164,l,0.247094111982733,colour,0.5
72,62,0,1,2,24,74,116.63048385037109,117.55946057382971,"[65, 0, 189]",189,a,0.4059401301201433,colour,0.5
72,62,0,1,2,25,75,118.06765905139036,118.7595039755106,"[62, 0, 192]",192,a,0.16876343241892755,colour,0.5
72,62,0,1,2,26,76,119.27074726996943,120.0234585981816,"[35, 0, 219]",219,a,0.22934705577790737,colour,0.5
72,62,0,1,2,27,77,120.53642063285224,121.63146885717288,"[19, 0, 235]",235,a,0.5717540562618524,colour,0.5
72,62,0,1,2,28,78,122.1457104946021,123.3114551040344,"[33, 0, 221]",221,a,0.6423251987434924,colour,0.5
72,62,0,1,2,29,79,123.81755478074774,125.11978209321387,"[39, 0, 215]",215,a,0.7788063262123615,colour,0.5
72,62,0,1,2,30,80,125.63007543305866,126.86349524161778,"[11, 0, 243]",243,a,0.7100441146176308,colour,0.5
72,62,0,1,2,31,81,127.38007986382581,128.82353847008198,"[45, 0, 209]",209,a,0.9201447458472103,colour,0.5
72,62,0,1,2,32,82,129.33321544225328,130.18345661321655,"[13, 0, 241]",241,a,0.3268611447419971,colour,0.5
72,62,0,1,2,33,83,130.69258653465658,131.47947535081767,"[55, 0, 199]",199,a,0.2635477806907147,colour,0.5
72,62,0,1,2,34,84,131.99020192027092,133.12746798130684,"[41, 0, 213]",213,a,0.6139541699085385,colour,0.5
72,62,0,1,2,35,85,133.64642000664026,134.4714113716036,"[81, 0, 173]",173,l,0.3016074001789093,colour,0.5
72,62,0,1,2,36,86,134.9901345728431,136.98346204846166,"[69, 0, 185]",185,a,1.4699147602077574,colour,0.5
72,62,0,1,2,37,87,137.49009696068242,138.7517885491252,"[95, 0, 159]",159,l,0.738262725295499,colour,0.5
72,62,0,1,2,38,88,139.2714227142278,140.49545286083594,"[38, 0, 216]",216,a,0.7006134926341474,colour,0.5
72,62,0,1,2,39,89,141.00552840414457,141.75944411102682,"[40, 0, 214]",214,a,0.2304616377223283,colour,0.5
72,62,0,1,2,40,90,142.2713636374101,143.04744967538863,"[66, 0, 188]",188,a,0.2527071931399405,colour,0.5
72,62,0,1,2,41,91,143.56825671135448,144.43942169332877,"[72, 0, 182]",182,l,0.34774872194975615,colour,0.5
72,62,0,1,2,42,92,144.95887508359738,146.43944296101108,"[16, 0, 238]",238,a,0.9572118755895644,colour,0.5
72,62,0,1,2,43,93,146.9588152191136,148.34344320674427,"[25, 0, 229]",229,a,0.8613476040773094,colour,0.5
72,62,0,1,2,44,94,148.84945269301534,149.63938672002405,"[7, 0, 247]",247,a,0.2665087084751576,colour,0.5
72,62,0,1,2,45,95,150.14637412363663,151.3914210286457,"[18, 0, 236]",236,a,0.7217283186037093,colour,0.5
72,62,0,1,2,46,96,151.91197285288945,153.04740202007815,"[99, 0, 155]",155,l,0.6120861622039229,colour,0.5
72,62,0,1,2,47,97,153.56810823176056,154.38341770134866,"[24, 0, 230]",230,a,0.2918112897314131,colour,0.5
72,62,0,1,2,48,98,154.89629151462577,156.23145727813244,"[58, 0, 196]",196,a,0.8125375877134502,colour,0.5
72,62,0,1,2,49,99,156.74006968690082,158.31141138728708,"[1, 0, 253]",253,a,1.0479845171794295,colour,0.5
72,62,0,1,2,50,100,158.81814909307286,159.66338409855962,"[89, 0, 165]",165,l,0.3218667944893241,colour,0.5
72,62,0,1,3,1,101,164.97315669618547,165.86348775867373,"[45, 0, 209]",209,a,0.3667466305196285,colour,0.5
72,62,0,1,3,2,102,166.38021298358217,167.07938027661294,"[44, 0, 210]",210,a,0.17595386342145503,colour,0.5
72,62,0,1,3,3,103,167.5989002266433,168.2793697216548,"[54, 0, 200]",200,a,0.15734861884266138,colour,0.5
72,62,0,1,3,4,104,168.78646897734143,169.87140168296173,"[91, 0, 163]",163,l,0.5616074239369482,colour,0.5
72,62,0,1,3,5,105,170.38013342674822,171.5433397043962,"[71, 0, 183]",183,a,0.6398502758238465,colour,0.5
72,62,0,1,3,6,106,172.0520080390852,173.37540492182598,"[2, 0, 252]",252,a,0.8000530903227627,colour,0.5
72,62,0,1,3,7,107,173.89573107287288,174.84737949213013,"[3, 0, 251]",251,a,0.4282825712580234,colour,0.5
72,62,0,1,3,8,108,175.3645296760369,176.50334788043983,"[47, 0, 207]",207,a,0.6161088964436203,colour,0.5
72,62,0,1,3,9,109,177.02075721439905,177.99934897385538,"[73, 0, 181]",181,l,0.4553799049463123,colour,0.5
72,62,0,1,3,10,110,178.52074717148207,179.2394019223284,"[30, 0, 224]",224,a,0.19527748157270253,colour,0.5
72,62,0,1,3,11,111,179.75509606068954,180.7593235943932,"[50, 0, 204]",204,a,0.4806876063812524,colour,0.5
72,62,0,1,3,12,112,181.27066535013728,182.3434042162262,"[64, 0, 190]",190,a,0.5500590964220464,colour,0.5
72,62,0,1,3,13,113,182.8644861560315,183.62330838572234,"[31, 0, 223]",223,a,0.23555011698044837,colour,0.5
72,62,0,1,3,14,114,184.1301047746092,185.0873178318143,"[34, 0, 220]",220,a,0.4338609939441085,colour,0.5
72,62,0,1,3,15,115,185.5988064915873,186.77533891354688,"[56, 0, 198]",198,a,0.653085048077628,colour,0.5
72,62,0,1,3,16,116,187.2863427498378,188.3353425997775,"[9, 0, 245]",245,a,0.5256028883159161,colour,0.5
72,62,0,1,3,17,117,188.84883396234363,189.93530108849518,"[96, 0, 158]",158,l,0.562979580136016,colour,0.5
72,62,0,1,3,18,118,190.44259332842194,191.60725840833038,"[83, 0, 171]",171,l,0.6413500381167978,colour,0.5
72,62,0,1,3,19,119,192.11443761456758,193.15932729654014,"[87, 0, 167]",167,l,0.5216215075924993,colour,0.5
72,62,0,1,3,20,120,193.6768941686023,194.9033216505777,"[69, 0, 185]",185,a,0.7031388278119266,colour,0.5
72,62,0,1,3,21,121,195.41131532844156,196.39127176138572,"[28, 0, 226]",226,a,0.4569222026038915,colour,0.5
72,62,0,1,3,22,122,196.91131749469787,197.93529911944643,"[75, 0, 179]",179,a,0.5009375484660268,colour,0.5
72,62,0,1,3,23,123,198.44256221456453,199.3514295986388,"[25, 0, 229]",229,a,0.3855334375984967,colour,0.5
72,62,0,1,3,24,124,199.86442195926793,200.6872956189327,"[38, 0, 216]",216,a,0.2995326239615679,colour,0.5
72,62,0,1,3,25,125,201.20825704210438,201.84726291405968,"[62, 0, 192]",192,a,0.11576014687307179,colour,0.5
72,62,0,1,3,26,126,202.36439261771739,203.54328535380773,"[86, 0, 168]",168,l,0.6561046589631587,colour,0.5
72,62,0,1,3,27,127,204.05181347951293,205.09528492507525,"[99, 0, 155]",155,l,0.5200843301136047,colour,0.5
72,62,0,1,3,28,128,205.614425602369,206.80724115786143,"[60, 0, 194]",194,a,0.6695083905942738,colour,0.5
72,62,0,1,3,29,129,207.31738877505995,208.38327355403453,"[35, 0, 219]",219,a,0.5424110174644738,colour,0.5
72,62,0,1,3,30,130,208.89562197797932,209.77526959683746,"[68, 0, 186]",186,a,0.3563168232794851,colour,0.5
72,62,0,1,3,31,131,210.28620647941716,211.5352855711244,"[88, 0, 166]",166,l,0.7256774038542062,colour,0.5
72,62,0,1,3,32,132,212.05186901171692,213.28727852599695,"[37, 0, 217]",217,a,0.7121007740497589,colour,0.5
72,62,0,1,3,33,133,213.80185138713568,215.1353035303764,"[15, 0, 239]",239,a,0.8102005105465651,colour,0.5
72,62,0,1,3,34,134,215.64552519051358,216.68722787755542,"[57, 0, 197]",197,a,0.5183061193674803,colour,0.5
72,62,0,1,3,35,135,217.20802703662775,218.02323804493062,"[22, 0, 232]",232,a,0.2918542188126594,colour,0.5
72,62,0,1,3,36,136,218.53613903350197,219.39928532857448,"[4, 0, 250]",250,a,0.33968986268155277,colour,0.5
72,62,0,1,3,37,137,219.9111961903982,221.2872277200222,"[61, 0, 193]",193,a,0.8529575210995972,colour,0.5
72,62,0,1,3,38,138,221.8017801011447,222.75921686249785,"[26, 0, 228]",228,a,0.434149288572371,colour,0.5
72,62,0,1,3,39,139,223.2704696089495,224.47927803453058,"[17, 0, 237]",237,a,0.6853421470150352,colour,0.5
72,62,0,1,3,40,140,224.9892007659655,226.1912338733673,"[18, 0, 236]",236,a,0.678605425870046,colour,0.5
72,62,0,1,3,41,141,226.70806031650864,227.7752424213104,"[77, 0, 177]",177,l,0.54384500766173,colour,0.5
72,62,0,1,3,42,142,228.2861044735182,229.1032224802766,"[7, 0, 247]",247,a,0.29365921136923134,colour,0.5
72,62,0,1,3,43,143,229.61427869810723,230.79149601678364,"[14, 0, 240]",240,a,0.653892430709675,colour,0.5
72,62,0,1,3,44,144,231.30173855042085,232.29520308412611,"[85, 0, 169]",169,l,0.4702294422313571,colour,0.5
72,62,0,1,3,45,145,232.8017824641429,233.53520798357204,"[1, 0, 253]",253,a,0.2101561634335667,colour,0.5
72,62,0,1,3,46,146,234.05173116596416,235.25517778354697,"[21, 0, 233]",233,a,0.6801205480005592,colour,0.5
72,62,0,1,3,47,147,235.77047453215346,236.7592219824437,"[43, 0, 211]",211,a,0.4654138977639377,colour,0.5
72,62,0,1,3,48,148,237.2704896950163,238.3671971890144,"[94, 0, 160]",160,l,0.5733963905368,colour,0.5
72,62,0,1,3,49,149,238.87976065231487,239.82323757233098,"[66, 0, 188]",188,a,0.4200350600294769,colour,0.5
72,62,0,1,3,50,150,240.33302009501494,241.17514490545727,"[59, 0, 195]",195,a,0.31883458071388304,colour,0.5
72,62,0,1,4,1,151,246.50396306673065,248.18315335246734,"[70, 0, 184]",184,a,1.1550887352786958,colour,0.5
72,62,0,1,4,2,152,248.69232856598683,249.73519230866805,"[44, 0, 210]",210,a,0.519555002450943,colour,0.5
72,62,0,1,4,3,153,250.25477369851433,251.07916760025546,"[2, 0, 252]",252,a,0.30104380776174366,colour,0.5
72,62,0,1,4,4,154,251.5984898400493,252.34316633362323,"[36, 0, 218]",218,a,0.21393313840962946,colour,0.5
72,62,0,1,4,5,155,252.85578966140747,258.4791468840558,"[75, 0, 179]",179,a,5.10002288245596,colour,0.5
72,62,0,1,4,6,156,258.99636717233807,260.0151362565812,"[34, 0, 220]",220,a,0.49543159338645637,colour,0.5
72,62,0,1,4,7,157,260.5275287909899,261.495255544316,"[55, 0, 199]",199,a,0.4446157233323902,colour,0.5
72,62,0,1,4,8,158,262.0119063325692,263.07109889481217,"[1, 0, 253]",253,a,0.5357321915216744,colour,0.5
72,62,0,1,4,9,159,263.59012338751927,264.7751104834024,"[74, 0, 180]",180,l,0.6616590570192784,colour,0.5
72,62,0,1,4,10,160,265.2932641846128,266.25512618990615,"[78, 0, 176]",176,l,0.438661178573966,colour,0.5
72,62,0,1,4,11,161,266.76198008004576,267.71909073740244,"[82, 0, 172]",172,l,0.4337786801625043,colour,0.5
72,62,0,1,4,12,162,268.2307621415239,269.0151153828483,"[49, 0, 205]",205,a,0.26108939945697784,colour,0.5
72,62,0,1,4,13,163,269.5275311539881,272.6950984788127,"[76, 0, 178]",178,a,2.644430300919339,colour,0.5
72,62,0,1,4,14,164,273.2150020340923,274.2950959582813,"[12, 0, 242]",242,a,0.5566414303611964,colour,0.5
72,62,0,1,4,15,165,274.8087854248006,276.37510678125545,"[93, 0, 161]",161,l,1.0429649609141052,colour,0.5
72,62,0,1,4,16,166,276.88691288023256,277.86310100276023,"[8, 0, 246]",246,a,0.45291246520355344,colour,0.5
72,62,0,1,4,17,167,278.37130932626314,279.52714518574066,"[90, 0, 164]",164,l,0.6325909220613539,colour,0.5
72,62,0,1,4,18,168,280.0431587325875,280.8070509308018,"[16, 0, 238]",238,a,0.24068782688118517,colour,0.5
72,62,0,1,4,19,169,281.32436613575555,282.55907303025015,"[18, 0, 236]",236,a,0.7113430160097778,colour,0.5
72,62,0,1,4,20,170,283.07438238174655,283.83113534911536,"[9, 0, 245]",245,a,0.2333902702666819,colour,0.5
72,62,0,1,4,21,171,284.3399880032521,285.4710435201414,"[63, 0, 191]",191,a,0.6077093612402678,colour,0.5
72,62,0,1,4,22,172,285.9806188803632,286.99907761462964,"[25, 0, 229]",229,a,0.4951192741282284,colour,0.5
72,62,0,1,4,23,173,287.5118320926558,288.59907903242856,"[59, 0, 195]",195,a,0.5640520206652582,colour,0.5
72,62,0,1,4,24,174,289.1055319881998,290.055108781904,"[17, 0, 237]",237,a,0.4261747121345252,colour,0.5
72,62,0,1,4,25,175,290.57432901579887,291.5750737769995,"[51, 0, 203]",203,a,0.47732023033313453,colour,0.5
72,62,0,1,4,26,176,292.0899526558351,293.2550722330343,"[81, 0, 173]",173,l,0.6418057170230895,colour,0.5
72,62,0,1,4,27,177,293.7618390833959,294.57503518019803,"[22, 0, 232]",232,a,0.28986018104478717,colour,0.5
72,62,0,1,4,28,178,295.08996328967623,296.49501844961196,"[79, 0, 175]",175,l,0.8816964013967663,colour,0.5
72,62,0,1,4,29,179,297.01179881277494,298.31104668672197,"[99, 0, 155]",155,l,0.7758741492871195,colour,0.5
72,62,0,1,4,30,180,298.82431828347035,299.8951001330279,"[56, 0, 198]",198,a,0.5480485169682652,colour,0.5
72,62,0,1,4,31,181,300.40243057580665,301.4470071508549,"[88, 0, 166]",166,l,0.521276893094182,colour,0.5
72,62,0,1,4,32,182,301.96489815739915,302.68702425947413,"[24, 0, 230]",230,a,0.19875552807934582,colour,0.5
72,62,0,1,4,33,183,303.1993455081247,304.7110188812949,"[42, 0, 212]",212,a,0.9882921653334051,colour,0.5
72,62,0,1,4,34,184,305.2305246528704,306.23905573249795,"[89, 0, 165]",165,l,0.4859604050870985,colour,0.5
72,62,0,1,4,35,185,306.7461104837712,307.5590056825895,"[61, 0, 193]",193,a,0.28951517259702086,colour,0.5
72,62,0,1,4,36,186,308.0742595021147,309.1750314780511,"[96, 0, 158]",158,l,0.5773419314064085,colour,0.5
72,62,0,1,4,37,187,309.68356826831587,310.37506818422116,"[23, 0, 231]",231,a,0.16804978507570922,colour,0.5
72,62,0,1,4,38,188,310.88673328678124,312.2710481674876,"[38, 0, 216]",216,a,0.8609734512865543,colour,0.5
72,62,0,1,4,39,189,312.77735973289236,313.982993372716,"[13, 0, 241]",241,a,0.6824454159941524,colour,0.5
72,62,0,1,4,40,190,314.49608852691017,315.45499590598047,"[57, 0, 197]",197,a,0.4356226634699851,colour,0.5
72,62,0,1,4,41,191,315.96485483436845,317.2630015173927,"[30, 0, 224]",224,a,0.7747682319022715,colour,0.5
72,62,0,1,4,42,192,317.7773392528761,319.047164137708,"[48, 0, 206]",206,a,0.7467142485547811,colour,0.5
72,62,0,1,4,43,193,319.558547640685,321.318976364797,"[21, 0, 233]",233,a,1.237105017527938,colour,0.5
72,62,0,1,4,44,194,321.83975031785667,324.8550141802989,"[41, 0, 213]",213,a,2.491814913228154,colour,0.5
72,62,0,1,4,45,195,325.3709891301114,326.48727860488,"[84, 0, 170]",170,l,0.5928795163054019,colour,0.5
72,62,0,1,4,46,196,326.99599735159427,328.2469586292282,"[45, 0, 209]",209,a,0.7275903096888214,colour,0.5
72,62,0,1,4,47,197,328.7616106532514,330.19896859815344,"[69, 0, 185]",185,a,0.9140724414028227,colour,0.5
72,62,0,1,4,48,198,330.714716299437,332.19094912335277,"[62, 0, 192]",192,a,0.9528354683425277,colour,0.5
72,62,0,1,4,49,199,332.6992366097402,334.1349687620532,"[97, 0, 157]",157,l,0.9124423165339977,colour,0.5
72,62,0,1,4,50,200,334.6522678192705,335.4709178835619,"[29, 0, 225]",225,a,0.29531690548174083,colour,0.5
72,62,0,1,5,1,201,340.4638908985071,341.7429014334921,"[67, 0, 187]",187,a,0.7547892555594444,colour,0.5
72,62,0,1,5,2,202,342.26158446259797,343.2309086518362,"[50, 0, 204]",204,a,0.4460634980350733,colour,0.5
72,62,0,1,5,3,203,343.7459588532802,344.5269852846395,"[73, 0, 181]",181,a,0.25770114944316447,colour,0.5
72,62,0,1,5,4,204,345.04271841351874,346.67889568954706,"[41, 0, 213]",213,a,1.1127586527727544,colour,0.5
72,62,0,1,5,5,205,347.1990958102979,348.26288769603707,"[38, 0, 216]",216,a,0.5404717240016907,colour,0.5
72,62,0,1,5,6,206,348.77718368405476,349.75095989904366,"[84, 0, 170]",170,l,0.4506340711377561,colour,0.5
72,62,0,1,5,7,207,350.26145173679106,351.2068793717772,"[20, 0, 234]",234,a,0.4221850608009845,colour,0.5
72,62,0,1,5,8,208,351.7145961767528,352.7829487894196,"[32, 0, 222]",222,a,0.5449477741494775,colour,0.5
72,62,0,1,5,9,209,353.292751791887,354.2068474702537,"[88, 0, 166]",166,l,0.3908200210426003,colour,0.5
72,62,0,1,5,10,210,354.71457097050734,355.6549073695205,"[1, 0, 253]",253,a,0.41691816970705986,colour,0.5
72,62,0,1,5,11,211,356.1678036318626,357.3670085372869,"[57, 0, 197]",197,a,0.6762533825822175,colour,0.5
72,62,0,1,5,12,212,357.88646941049956,359.06293763569556,"[49, 0, 205]",205,a,0.6530409373808652,colour,0.5
72,62,0,1,5,13,213,359.5739481674973,360.5509109834675,"[96, 0, 158]",158,l,0.45363792800344527,colour,0.5
72,62,0,1,5,14,214,361.05835052137263,362.48699306696653,"[78, 0, 176]",176,l,0.9056213123258203,colour,0.5
72,62,0,1,5,15,215,362.99588471185416,364.2388792899437,"[72, 0, 182]",182,a,0.719717345200479,colour,0.5
72,62,0,1,5,16,216,364.7458651182242,365.8548633377068,"[99, 0, 155]",155,l,0.5856855406891555,colour,0.5
72,62,0,1,5,17,217,366.37078787526116,367.1828839625232,"[4, 0, 250]",250,a,0.28874993161298335,colour,0.5
72,62,0,1,5,18,218,367.6989227151498,368.6388904750347,"[7, 0, 247]",247,a,0.416581038152799,colour,0.5
72,62,0,1,5,19,219,369.1521561641712,369.9188486014027,"[47, 0, 207]",207,a,0.24347821972332895,colour,0.5
72,62,0,1,5,20,220,370.4333651426714,371.6151475205552,"[8, 0, 246]",246,a,0.6585508310236037,colour,0.5
72,62,0,1,5,21,221,372.136355884606,373.23885290231556,"[24, 0, 230]",230,a,0.5790327084250748,colour,0.5
72,62,0,1,5,22,222,373.745836367365,374.88684789580293,"[6, 0, 248]",248,a,0.6176767942961305,colour,0.5
72,62,0,1,5,23,223,375.40201231231913,376.28680276102386,"[85, 0, 169]",169,l,0.362419847631827,colour,0.5
72,62,0,1,5,24,224,376.80823758617043,378.08686687913723,"[86, 0, 168]",168,l,0.7552559620235115,colour,0.5
72,62,0,1,5,25,225,378.60521907825023,379.6948168796953,"[15, 0, 239]",239,a,0.566346168750897,colour,0.5
72,62,0,1,5,26,226,380.21450382005423,381.5269147863146,"[83, 0, 171]",171,l,0.7890604783315212,colour,0.5
72,62,0,1,5,27,227,382.04271605052054,382.93483162508346,"[29, 0, 225]",225,a,0.36893050163052976,colour,0.5
72,62,0,1,5,28,228,383.44884089403786,384.4228096990846,"[0, 0, 254]",254,a,0.45048834825865924,colour,0.5
72,62,0,1,5,29,229,384.9333436782472,386.1427984035108,"[52, 0, 202]",202,a,0.6862097878474742,colour,0.5
72,62,0,1,5,30,230,386.65198109997436,388.51076319697313,"[76, 0, 178]",178,l,1.33551786118187,colour,0.5
72,62,0,1,5,31,231,389.02691616490483,390.2387824039906,"[65, 0, 189]",189,a,0.6886023972183466,colour,0.5
72,62,0,1,5,32,232,390.74570127855986,391.8948776104953,"[33, 0, 221]",221,a,0.6258341148495674,colour,0.5
72,62,0,1,5,33,233,392.401939450996,393.44681574217975,"[43, 0, 211]",211,a,0.5221638325601816,colour,0.5
72,62,0,1,5,34,234,393.9644483863376,395.2628376777284,"[77, 0, 177]",177,l,0.775062040425837,colour,0.5
72,62,0,1,5,35,235,395.7769245340023,396.86275048041716,"[30, 0, 224]",224,a,0.5626117289066315,colour,0.5
72,62,0,1,5,36,236,397.37064963555895,398.5507617162075,"[44, 0, 210]",210,a,0.6571042379364371,colour,0.5
72,62,0,1,5,37,237,399.05812445422634,403.1748514906503,"[71, 0, 183]",183,a,3.5934958837460726,colour,0.5
72,62,0,1,5,38,238,403.68315315572545,404.9507823535241,"[42, 0, 212]",212,a,0.7442924946080893,colour,0.5
72,62,0,1,5,39,239,405.4642709591426,406.670760424342,"[2, 0, 252]",252,a,0.6830472114961594,colour,0.5
72,62,0,1,5,40,240,407.183093881933,409.37472672061995,"[82, 0, 172]",172,l,1.668200037209317,colour,0.5
72,62,0,1,5,41,241,409.88624531263486,411.23876704392023,"[58, 0, 196]",196,a,0.8292055078782141,colour,0.5
72,62,0,1,5,42,242,411.7455902141519,414.08673769794405,"[51, 0, 203]",203,a,1.8178143249824643,colour,0.5
72,62,0,1,5,43,243,414.60507650626823,415.7667570277117,"[93, 0, 161]",161,l,0.6384765438269824,colour,0.5
72,62,0,1,5,44,244,416.2768408418633,417.3347360782791,"[54, 0, 200]",200,a,0.5350138179492205,colour,0.5
72,62,0,1,5,45,245,417.854906266788,419.39876899751835,"[80, 0, 174]",174,l,1.0204964890144765,colour,0.5
72,62,0,1,5,46,246,419.9173449007794,420.6547120222822,"[11, 0, 243]",243,a,0.2139039938338101,colour,0.5
72,62,0,1,5,47,247,421.16738261142746,422.6067594066262,"[34, 0, 220]",220,a,0.9159514766652137,colour,0.5
72,62,0,1,5,48,248,423.1205327620264,424.2787265724037,"[28, 0, 226]",226,a,0.6348330823238939,colour,0.5
72,62,0,1,5,49,249,424.79236798989587,426.33469748147763,"[45, 0, 209]",209,a,1.0188825116492808,colour,0.5
72,62,0,1,5,50,250,426.85487436526455,427.9669709643349,"[92, 0, 162]",162,l,0.5887142096180469,colour,0.5
72,62,0,1,6,1,251,433.05712369363755,434.230645169504,"[49, 0, 205]",205,a,0.6495160234626383,colour,0.5
72,62,0,1,6,2,252,434.7454551253468,435.8386774836108,"[10, 0, 244]",244,a,0.5698490273207426,colour,0.5
72,62,0,1,6,3,253,436.3548462053295,437.5986926702317,"[15, 0, 239]",239,a,0.7213588918093592,colour,0.5
72,62,0,1,6,4,254,438.1203901900444,439.3027018958237,"[5, 0, 249]",249,a,0.6592530570924282,colour,0.5
72,62,0,1,6,5,255,439.8236448082607,441.0867057964206,"[16, 0, 238]",238,a,0.7404139076825231,colour,0.5
72,62,0,1,6,6,256,441.6047921499703,443.18274454120547,"[51, 0, 203]",203,a,1.0545952077955008,colour,0.5
72,62,0,1,6,7,257,443.69859306677245,444.88668760075234,"[30, 0, 224]",224,a,0.6647200214210898,colour,0.5
72,62,0,1,6,8,258,445.40169920539483,446.7106581190601,"[83, 0, 171]",171,l,0.7857332746498287,colour,0.5
72,62,0,1,6,9,259,447.2297684701625,448.44663614872843,"[76, 0, 178]",178,l,0.6934573261532933,colour,0.5
72,62,0,1,6,10,260,448.9641671809368,449.8706120233983,"[6, 0, 248]",248,a,0.383213295834139,colour,0.5
72,62,0,1,6,11,261,450.38600250706077,451.7026410072576,"[59, 0, 195]",195,a,0.7932439015712589,colour,0.5
72,62,0,1,6,12,262,452.214389604982,453.1266649309546,"[92, 0, 162]",162,l,0.38964833156205714,colour,0.5
72,62,0,1,6,13,263,453.635966175003,454.8946637525223,"[67, 0, 187]",187,a,0.7353608743287623,colour,0.5
72,62,0,1,6,14,264,455.4016074393876,456.55065655941144,"[82, 0, 172]",172,l,0.6257927611004561,colour,0.5
72,62,0,1,6,15,265,457.0577629043255,457.96664919285104,"[94, 0, 160]",160,l,0.3858004645444453,colour,0.5
72,62,0,1,6,16,266,458.4796427350957,459.59067595237866,"[91, 0, 163]",163,l,0.5875657573342323,colour,0.5
72,62,0,1,6,17,267,460.1047663532663,461.0226602742914,"[8, 0, 246]",246,a,0.39492821996100247,colour,0.5
72,62,0,1,6,18,268,461.5421747104265,462.68659733142704,"[32, 0, 222]",222,a,0.6209988780319691,colour,0.5
72,62,0,1,6,19,269,463.19843808887526,464.3826548233628,"[61, 0, 193]",193,a,0.6611478459089994,colour,0.5
72,62,0,1,6,20,270,464.9015572241042,466.0227961507626,"[2, 0, 252]",252,a,0.5979865060653538,colour,0.5
72,62,0,1,6,21,271,466.54215226112865,467.5666116201319,"[33, 0, 221]",221,a,0.5010998125653714,colour,0.5
72,62,0,1,6,22,272,468.07333554141223,471.7746028169058,"[71, 0, 183]",183,a,3.1777801234275103,colour,0.5
72,62,0,1,6,23,273,472.29212124599144,473.6065821761731,"[44, 0, 210]",210,a,0.791361715644598,colour,0.5
72,62,0,1,6,24,274,474.1202747935895,475.1425928163808,"[48, 0, 206]",206,a,0.49898171331733465,colour,0.5
72,62,0,1,6,25,275,475.65150139667094,476.81460684980266,"[43, 0, 211]",211,a,0.6406178800389171,colour,0.5
72,62,0,1,6,26,276,477.323399245739,479.0785862847697,"[17, 0, 237]",237,a,1.2317262743599713,colour,0.5
72,62,0,1,6,27,277,479.58903283043765,480.56661595241167,"[98, 0, 156]",156,l,0.45422948338091373,colour,0.5
72,62,0,1,6,28,278,481.0733686243184,482.07053372706287,"[26, 0, 228]",228,a,0.4736901596188545,colour,0.5
72,62,0,1,6,29,279,482.5890103811398,483.7265761583112,"[12, 0, 242]",242,a,0.6142085937317461,colour,0.5
72,62,0,1,6,30,280,484.2452154706698,485.83055127668194,"[53, 0, 201]",201,a,1.0620459702331573,colour,0.5
72,62,0,1,6,31,281,486.33889941545203,487.31853998452425,"[81, 0, 173]",173,l,0.45618649991229177,colour,0.5
72,62,0,1,6,32,282,487.8388854339719,489.0385479873512,"[21, 0, 233]",233,a,0.6762431426905096,colour,0.5
72,62,0,1,6,33,283,489.5576382523868,490.99049691041,"[62, 0, 192]",192,a,0.909419554984197,colour,0.5
72,62,0,1,6,34,284,491.51084354147315,492.52657844265923,"[79, 0, 175]",175,l,0.4926518341526389,colour,0.5
72,62,0,1,6,35,285,493.04203627374955,494.08655298454687,"[34, 0, 220]",220,a,0.5211548013612628,colour,0.5
72,62,0,1,6,36,286,494.6045259106904,495.9746340094134,"[85, 0, 169]",169,l,0.8467505215667188,colour,0.5
72,62,0,1,6,37,287,496.49513108935207,497.3665323785972,"[14, 0, 240]",240,a,0.34813429648056626,colour,0.5
72,62,0,1,6,38,288,497.88576954766177,498.8789060083218,"[11, 0, 243]",243,a,0.4698233879171312,colour,0.5
72,62,0,1,6,39,289,499.38576383702457,500.1664948845282,"[54, 0, 200]",200,a,0.2573734703473747,colour,0.5
72,62,0,1,6,40,290,500.68267384613864,501.7665514405817,"[87, 0, 167]",167,l,0.5605231681838632,colour,0.5
72,62,0,1,6,41,291,502.2763371139299,503.1985267039854,"[84, 0, 170]",170,l,0.39931683614850044,colour,0.5
72,62,0,1,6,42,292,503.7139006461948,504.6624920393806,"[29, 0, 225]",225,a,0.42528619756922126,colour,0.5
72,62,0,1,6,43,293,505.18263702164404,506.14247308741324,"[50, 0, 204]",204,a,0.43646194715984166,colour,0.5
72,62,0,1,6,44,294,506.6513328310102,507.5985268615186,"[58, 0, 196]",196,a,0.4238825333304703,colour,0.5
72,62,0,1,6,45,295,508.12108926521614,509.3744833243545,"[89, 0, 165]",165,l,0.7300368756987154,colour,0.5
72,62,0,1,6,46,296,509.886761643691,510.58262497000396,"[0, 0, 254]",254,a,0.17250181082636118,colour,0.5
72,62,0,1,6,47,297,511.0899684096221,511.9824983093422,"[93, 0, 161]",161,l,0.3692589686252177,colour,0.5
72,62,0,1,6,48,298,512.4961263360456,513.206498917425,"[37, 0, 217]",217,a,0.1871004686690867,colour,0.5
72,62,0,1,6,49,299,513.7148572960868,515.32651298563,"[64, 0, 190]",190,a,1.088230371242389,colour,0.5
72,62,0,1,6,50,300,515.8400653938297,516.8385160071775,"[35, 0, 219]",219,a,0.47529547242447734,colour,0.5
72,62,0,1,7,1,301,521.6984772763681,525.2704432213213,"[73, 0, 181]",181,l,3.0479187448509037,colour,0.5
72,62,0,1,7,2,302,525.7774050252046,526.7184168684762,"[13, 0, 241]",241,a,0.4179575270973146,colour,0.5
72,62,0,1,7,3,303,527.2303781423252,528.3104452851694,"[45, 0, 209]",209,a,0.556628433521837,colour,0.5
72,62,0,1,7,4,304,528.8241394776851,530.6784908168484,"[70, 0, 184]",184,l,1.3317554583773017,colour,0.5
72,62,0,1,7,5,305,531.1992395636626,532.3664985077921,"[21, 0, 233]",233,a,0.6439525668974966,colour,0.5
72,62,0,1,7,6,306,532.8866482162848,533.9504349820781,"[31, 0, 223]",223,a,0.5404043765738606,colour,0.5
72,62,0,1,7,7,307,534.4647183672059,535.6624266610015,"[91, 0, 163]",163,l,0.6743353568017483,colour,0.5
72,62,0,1,7,8,308,536.1834243179765,537.0784275652841,"[52, 0, 202]",202,a,0.371540907304734,colour,0.5
72,62,0,1,7,9,309,537.589852422243,538.7664214717224,"[86, 0, 168]",168,l,0.6533095398917794,colour,0.5
72,62,0,1,7,10,310,539.2772220841143,540.2624253218528,"[40, 0, 214]",214,a,0.4620358878746629,colour,0.5
72,62,0,1,7,11,311,540.7772297640331,541.7904117610306,"[22, 0, 232]",232,a,0.4904179445002228,colour,0.5
72,62,0,1,7,12,312,542.308497327147,543.566408396,"[72, 0, 182]",182,l,0.734633048530668,colour,0.5
72,62,0,1,7,13,313,544.0741122039035,545.0624039755203,"[34, 0, 220]",220,a,0.46482549305073917,colour,0.5
72,62,0,1,7,14,314,545.5740552933421,546.6143842486199,"[38, 0, 216]",216,a,0.5169209658633918,colour,0.5
72,62,0,1,7,15,315,547.1209317271132,548.1904383061919,"[87, 0, 167]",167,l,0.5461131618358195,colour,0.5
72,62,0,1,7,16,316,548.6990912810434,550.5343915426638,"[2, 0, 252]",252,a,1.311863915529102,colour,0.5
72,62,0,1,7,17,317,551.0428365671542,551.6463420251384,"[32, 0, 222]",222,a,0.08028375753201544,colour,0.5
72,62,0,1,7,18,318,552.1677193490323,553.1186765700113,"[99, 0, 155]",155,l,0.427976947510615,colour,0.5
72,62,0,1,7,19,319,553.6365148010664,554.2144341093954,"[46, 0, 208]",208,a,0.05449595884419978,colour,0.5
72,62,0,1,7,20,320,554.7303031149786,555.5424027466215,"[23, 0, 231]",231,a,0.28877041139639914,colour,0.5
72,62,0,1,7,21,321,556.0583706074394,556.9183716550469,"[83, 0, 171]",171,l,0.3368762331083417,colour,0.5
72,62,0,1,7,22,322,557.4334297333844,558.1743383104913,"[62, 0, 192]",192,a,0.21752500627189875,colour,0.5
72,62,0,1,7,23,323,558.6832973030396,559.3266189298593,"[44, 0, 210]",210,a,0.1198581054341048,colour,0.5
72,62,0,1,7,24,324,559.839629801223,560.5503481787164,"[15, 0, 239]",239,a,0.18738049268722534,colour,0.5
72,62,0,1,7,25,325,561.0583217705134,561.6943419023883,"[39, 0, 215]",215,a,0.11284569255076349,colour,0.5
72,62,0,1,7,26,326,562.2145904658828,562.9424596179742,"[92, 0, 162]",162,l,0.20451078726910055,colour,0.5
72,62,0,1,7,27,327,563.4489409306552,564.1263549749274,"[6, 0, 248]",248,a,0.15403086715377867,colour,0.5
72,62,0,1,7,28,328,564.6364872320555,565.5183329007123,"[56, 0, 198]",198,a,0.3584431931376457,colour,0.5
72,62,0,1,7,29,329,566.0269622446503,568.8623160691932,"[35, 0, 219]",219,a,2.312051385641098,colour,0.5
72,62,0,1,7,30,330,569.3708564043045,570.4143530561123,"[27, 0, 227]",227,a,0.5201646746136248,colour,0.5
72,62,0,1,7,31,331,570.9332877523266,572.086316677276,"[67, 0, 187]",187,l,0.6295803696848452,colour,0.5
72,62,0,1,7,32,332,572.6051674846094,573.5423231900204,"[3, 0, 251]",251,a,0.41374574694782495,colour,0.5
72,62,0,1,7,33,333,574.0581847124267,574.9023433390539,"[28, 0, 226]",226,a,0.320905024651438,colour,0.5
72,62,0,1,7,34,334,575.4176570230629,575.990370092215,"[8, 0, 246]",246,a,0.04938227357342839,colour,0.5
72,62,0,1,7,35,335,576.5113586909138,577.7263268544339,"[98, 0, 156]",156,l,0.6917311029974371,colour,0.5
72,62,0,1,7,36,336,578.2457802444696,580.3744025861379,"[14, 0, 240]",240,l,1.6053002106491476,colour,0.5
72,62,0,1,7,37,337,580.8864067890681,581.5023167938925,"[89, 0, 165]",165,l,0.0933641423471272,colour,0.5
72,62,0,1,7,38,338,582.0113348632585,582.662371522747,"[63, 0, 191]",191,a,0.1277531252708286,colour,0.5
72,62,0,1,7,39,339,583.1831813156605,583.9742913641967,"[0, 0, 254]",254,a,0.2676512533798814,colour,0.5
72,62,0,1,7,40,340,584.4957293400075,585.518319115974,"[65, 0, 189]",189,a,0.49930190946906805,colour,0.5
72,62,0,1,7,41,341,586.0269358570222,586.8062849019188,"[60, 0, 194]",194,a,0.2561588517855853,colour,0.5
72,62,0,1,7,42,342,587.3238513800316,588.0543151840102,"[20, 0, 234]",234,a,0.20699201175011694,colour,0.5
72,62,0,1,7,43,343,588.5738682169467,591.8702800120227,"[71, 0, 183]",183,l,2.773084150161594,colour,0.5
72,62,0,1,7,44,344,592.386339638615,593.5102984597906,"[75, 0, 179]",179,l,0.6006327518261969,colour,0.5
72,62,0,1,7,45,345,594.0268708725926,594.8302661329508,"[90, 0, 164]",164,l,0.28010857524350286,colour,0.5
72,62,0,1,7,46,346,595.3394661585335,595.8863441678695,"[54, 0, 200]",200,a,0.02360432129353285,colour,0.5
72,62,0,1,7,47,347,596.4020158569328,597.6785766750108,"[51, 0, 203]",203,a,0.7537061811890453,colour,0.5
72,62,0,1,7,48,348,598.1987775834277,598.7822950065602,"[36, 0, 218]",218,a,0.06006650486961007,colour,0.5
72,62,0,1,7,49,349,599.2924965803977,599.838269460015,"[58, 0, 196]",196,a,0.02240978879854083,colour,0.5
72,62,0,1,7,50,350,600.3550254048314,602.5903396087233,"[50, 0, 204]",204,a,1.712599382037297,colour,0.5
72,62,0,1,8,1,351,607.4479484409094,608.118245703401,"[0, 0, 254]",254,a,0.14611654914915562,colour,0.5
72,62,0,1,8,2,352,608.6362714048009,610.1582343764603,"[79, 0, 175]",175,l,0.9986034252215177,colour,0.5
72,62,0,1,8,3,353,610.6674978111405,611.8701933659613,"[74, 0, 180]",180,l,0.6793045008089393,colour,0.5
72,62,0,1,8,4,354,612.3862269988749,613.3422108653467,"[78, 0, 176]",176,l,0.43260541558265686,colour,0.5
72,62,0,1,8,5,355,613.8550586847123,614.4462785373908,"[22, 0, 232]",232,a,0.06778193102218211,colour,0.5
72,62,0,1,8,6,356,614.9642869096715,617.4462096146308,"[90, 0, 164]",164,l,1.9585359832271934,colour,0.5
72,62,0,1,8,7,357,617.9643404728267,619.4622473826166,"[18, 0, 236]",236,a,0.9745052221696824,colour,0.5
72,62,0,1,8,8,358,619.9800454417709,621.1022248705849,"[2, 0, 252]",252,a,0.598815550096333,colour,0.5
72,62,0,1,8,9,359,621.6205506820697,622.9181696125306,"[66, 0, 188]",188,l,0.7742826209869236,colour,0.5
72,62,0,1,8,10,360,623.4331540418789,624.7501714210957,"[65, 0, 189]",189,a,0.7936751621309668,colour,0.5
72,62,0,1,8,11,361,625.261188254226,626.5101692783646,"[7, 0, 247]",247,a,0.7258014648687094,colour,0.5
72,62,0,1,8,12,362,627.0267200300004,628.0061924271286,"[88, 0, 166]",166,l,0.45615420467220247,colour,0.5
72,62,0,1,8,13,363,628.5267221960239,629.662164360052,"[77, 0, 177]",177,l,0.612153509631753,colour,0.5
72,62,0,1,8,14,364,630.1830879743211,631.142233629711,"[46, 0, 208]",208,a,0.4359172594267875,colour,0.5
72,62,0,1,8,15,365,631.6517314021476,632.5824524657801,"[10, 0, 244]",244,a,0.4073808155953884,colour,0.5
72,62,0,1,8,16,366,633.0892130145803,634.0861701669637,"[25, 0, 229]",229,a,0.47356885531917214,colour,0.5
72,62,0,1,8,17,367,634.6048327160534,635.6621962615754,"[12, 0, 242]",242,a,0.5339910022448748,colour,0.5
72,62,0,1,8,18,368,636.1830899436027,637.1741961324587,"[55, 0, 199]",199,a,0.4678848823532462,colour,0.5
72,62,0,1,8,19,369,637.6830925035756,638.2621579009574,"[76, 0, 178]",178,l,0.055808644741773605,colour,0.5
72,62,0,1,8,20,370,638.7766838946845,639.510175579926,"[73, 0, 181]",181,l,0.21016482799313962,colour,0.5
72,62,0,1,8,21,371,640.0266262947116,640.750128098065,"[50, 0, 204]",204,a,0.20018951827660203,colour,0.5
72,62,0,1,8,22,372,641.2610803407151,642.1902126329951,"[52, 0, 202]",202,a,0.40598936076276004,colour,0.5
72,62,0,1,8,23,373,642.6985146917868,644.9181530708447,"[97, 0, 157]",157,l,1.6961039656307548,colour,0.5
72,62,0,1,8,24,374,645.4329547560774,646.4381676905323,"[59, 0, 195]",195,a,0.481843541841954,colour,0.5
72,62,0,1,8,25,375,646.9485445255414,647.8541370872408,"[32, 0, 222]",222,a,0.3821231327019632,colour,0.5
72,62,0,1,8,26,376,648.3703869408928,648.9021468104329,"[35, 0, 219]",219,a,0.008321554167196155,colour,0.5
72,62,0,1,8,27,377,649.4330059560016,650.7421117739286,"[86, 0, 168]",168,l,0.7858400067780167,colour,0.5
72,62,0,1,8,28,378,651.2610259901267,652.1821600750554,"[6, 0, 248]",248,a,0.3980364454910159,colour,0.5
72,62,0,1,8,29,379,652.6984918487724,653.8141184819397,"[82, 0, 172]",172,l,0.5921060042455792,colour,0.5
72,62,0,1,8,30,380,654.3234917994123,655.2861773350742,"[33, 0, 221]",221,a,0.4392204387113452,colour,0.5
72,62,0,1,8,31,381,655.8078386210836,657.134112542728,"[72, 0, 182]",182,l,0.8028411201667041,colour,0.5
72,62,0,1,8,32,382,657.6516234886367,658.6542023867369,"[45, 0, 209]",209,a,0.47919217636808753,colour,0.5
72,62,0,1,8,33,383,659.1672026242595,660.1821458966006,"[94, 0, 160]",160,l,0.4915400093887001,colour,0.5
72,62,0,1,8,34,384,660.6984347412363,661.6541992358398,"[5, 0, 249]",249,a,0.4323316931258887,colour,0.5
72,62,0,1,8,35,385,662.167167571839,663.1020945077762,"[29, 0, 225]",225,a,0.41152406646870077,colour,0.5
72,62,0,1,8,36,386,663.6203116180841,664.6545950502623,"[11, 0, 243]",243,a,0.5108663844875991,colour,0.5
72,62,0,1,8,37,387,665.1671388212126,666.3741414668038,"[57, 0, 197]",197,a,0.6835662994999439,colour,0.5
72,62,0,1,8,38,388,666.8858900642954,667.7980669292156,"[30, 0, 224]",224,a,0.3887176758144051,colour,0.5
72,62,0,1,8,39,389,668.3077895874158,669.2621035503689,"[1, 0, 253]",253,a,0.43086658930405974,colour,0.5
72,62,0,1,8,40,390,669.7764932736754,670.702118374873,"[4, 0, 250]",250,a,0.4023443239275366,colour,0.5
72,62,0,1,8,41,391,671.2140532610938,672.5261696313974,"[63, 0, 191]",191,a,0.7887119255028665,colour,0.5
72,62,0,1,8,42,392,673.0421170119662,674.0781286368147,"[8, 0, 246]",246,a,0.5126284477300942,colour,0.5
72,62,0,1,8,43,393,674.5890588241164,675.5501063577831,"[95, 0, 159]",159,l,0.43773446092382073,colour,0.5
72,62,0,1,8,44,394,676.0576868921053,676.982102101203,"[28, 0, 226]",226,a,0.40134710795246065,colour,0.5
72,62,0,1,8,45,395,677.4952417598106,682.6060559991747,"[9, 0, 245]",245,a,4.587569301947951,colour,0.5
72,62,0,1,8,46,396,683.1202267443296,684.1100742041599,"[42, 0, 212]",212,a,0.4669384721200913,colour,0.5
72,62,0,1,8,47,397,684.6201867691707,686.2780172573403,"[68, 0, 186]",186,l,1.1343275823164731,colour,0.5
72,62,0,1,8,48,398,686.7921068705618,688.1340656750835,"[64, 0, 190]",190,l,0.8186425811145455,colour,0.5
72,62,0,1,8,49,399,688.6513820616528,689.6860388589557,"[16, 0, 238]",238,a,0.511279134079814,colour,0.5
72,62,0,1,8,50,400,690.1983482921496,691.3820360926911,"[54, 0, 200]",200,a,0.6606110350694507,colour,0.5
72,62,0,1,9,1,401,696.3537591926288,696.9819965506904,"[3, 0, 251]",251,a,0.10484669776633382,colour,0.5
72,62,0,1,9,2,402,697.4952071013395,699.5980223459192,"[90, 0, 164]",164,l,1.579810552764684,colour,0.5
72,62,0,1,9,3,403,700.1200719631743,701.1100356073584,"[23, 0, 231]",231,a,0.4665572301018983,colour,0.5
72,62,0,1,9,4,404,701.6201261170208,702.5500780008733,"[13, 0, 241]",241,a,0.40654940833337605,colour,0.5
72,62,0,1,9,5,405,703.0575923693832,703.9579723905772,"[11, 0, 243]",243,a,0.3771433546207845,colour,0.5
72,62,0,1,9,6,406,704.4794844093267,705.3820085234474,"[47, 0, 207]",207,a,0.37919095531105995,colour,0.5
72,62,0,1,9,7,407,705.9012842895463,706.7979794954881,"[77, 0, 177]",177,l,0.37334905029274523,colour,0.5
72,62,0,1,9,8,408,707.3075934525114,708.3262262663338,"[12, 0, 242]",242,a,0.49525948287919164,colour,0.5
72,62,0,1,9,9,409,708.8388984308112,709.7580089394469,"[17, 0, 237]",237,a,0.39578798366710544,colour,0.5
72,62,0,1,9,10,410,710.2762882772367,710.8779729891103,"[76, 0, 178]",178,l,0.07839408842846751,colour,0.5
72,62,0,1,9,11,411,711.3856547418982,714.6142550674267,"[10, 0, 244]",244,a,2.7052226623054594,colour,0.5
72,62,0,1,9,12,412,715.1356406619307,716.1979993453715,"[45, 0, 209]",209,a,0.5390463985968381,colour,0.5
72,62,0,1,9,13,413,716.713719871128,717.7019813165534,"[53, 0, 201]",201,a,0.46483455155976117,colour,0.5
72,62,0,1,9,14,414,718.2136487821117,719.1739763668738,"[30, 0, 224]",224,a,0.4368459463585168,colour,0.5
72,62,0,1,9,15,415,719.6824907080736,720.6219637985341,"[70, 0, 184]",184,l,0.4160123257897794,colour,0.5
72,62,0,1,9,16,416,721.1356540527195,722.2220097207464,"[84, 0, 170]",170,l,0.5630260540638119,colour,0.5
72,62,0,1,9,17,417,722.7294799785595,723.2940235179849,"[5, 0, 249]",249,a,0.04126039892435074,colour,0.5
72,62,0,1,9,18,418,723.8074699819554,724.5099384852219,"[72, 0, 182]",182,l,0.17910738149657845,colour,0.5
72,62,0,1,9,19,419,725.0262308742385,725.597932155244,"[96, 0, 158]",158,l,0.04847682360559702,colour,0.5
72,62,0,1,9,20,420,726.1042417516001,726.7099771609064,"[4, 0, 250]",250,a,0.08236010931432247,colour,0.5
72,62,0,1,9,21,421,727.229325394379,728.069982343819,"[51, 0, 203]",203,a,0.3173375753685832,colour,0.5
72,62,0,1,9,22,422,728.5887118466198,729.1499514190946,"[71, 0, 183]",183,l,0.03789538610726595,colour,0.5
72,62,0,1,9,23,423,729.666762896115,730.2779609374702,"[31, 0, 223]",223,a,0.087828648975119,colour,0.5
72,62,0,1,9,24,424,730.7918280281592,731.5019284626469,"[55, 0, 199]",199,a,0.18675034027546644,colour,0.5
72,62,0,1,9,25,425,732.0105085761752,732.5899288281798,"[20, 0, 234]",234,a,0.056239905301481485,colour,0.5
72,62,0,1,9,26,426,733.1043981080875,734.6859778130893,"[36, 0, 218]",218,a,1.0583371308166534,colour,0.5
72,62,0,1,9,27,427,735.1980044653174,735.8059186260216,"[80, 0, 174]",174,l,0.08444512542337179,colour,0.5
72,62,0,1,9,28,428,736.3230971666053,738.2139520428609,"[33, 0, 221]",221,a,1.3675402281805873,colour,0.5
72,62,0,1,9,29,429,738.7292736037634,739.581970005529,"[57, 0, 197]",197,a,0.3292868370190263,colour,0.5
72,62,0,1,9,30,430,740.0886009791866,741.0459270700812,"[79, 0, 175]",175,l,0.4339373998809606,colour,0.5
72,62,0,1,9,31,431,741.5572290471755,743.1498832837678,"[19, 0, 235]",235,a,1.0692178902681917,colour,0.5
72,62,0,1,9,32,432,743.6666770377196,744.3819971019402,"[83, 0, 171]",171,l,0.19232679367996752,colour,0.5
72,62,0,1,9,33,433,744.9011401422322,745.6059102765284,"[34, 0, 220]",220,a,0.18144524632953107,colour,0.5
72,62,0,1,9,34,434,746.1198679513764,747.4858706083614,"[35, 0, 219]",219,a,0.8426761934533715,colour,0.5
72,62,0,1,9,35,435,748.027272594627,749.0058596278541,"[99, 0, 155]",155,l,0.4564724313095212,colour,0.5
72,62,0,1,9,36,436,749.5260136686265,750.493872754043,"[8, 0, 246]",246,a,0.444557040464133,colour,0.5
72,62,0,1,9,37,437,751.0103652165271,752.9899841239676,"[67, 0, 187]",187,l,1.4563645177986473,colour,0.5
72,62,0,1,9,38,438,753.510381167056,754.5018508750945,"[94, 0, 160]",160,a,0.46831377944909036,colour,0.5
72,62,0,1,9,39,439,755.0103955424856,756.2458641335834,"[43, 0, 211]",211,a,0.7123276288621128,colour,0.5
72,62,0,1,9,40,440,756.7603901270777,757.73383196746,"[86, 0, 168]",168,l,0.4502760658506304,colour,0.5
72,62,0,1,9,41,441,758.2447842101101,759.2858980987221,"[16, 0, 238]",238,a,0.5177700959611684,colour,0.5
72,62,0,1,9,42,442,759.8079540177714,760.8298679555301,"[87, 0, 167]",167,l,0.49923534970730543,colour,0.5
72,62,0,1,9,43,443,761.3385674038436,762.3504319889471,"[14, 0, 240]",240,a,0.48854087851941586,colour,0.5
72,62,0,1,9,44,444,762.869811336277,763.8458864251152,"[88, 0, 166]",166,l,0.4527411423623562,colour,0.5
72,62,0,1,9,45,445,764.3541550070513,765.3338113299105,"[52, 0, 202]",202,a,0.45681231981143355,colour,0.5
72,62,0,1,9,46,446,765.8541272410657,766.7579376534559,"[95, 0, 159]",159,l,0.3804666199721396,colour,0.5
72,62,0,1,9,47,447,767.27607087465,768.2138295571785,"[63, 0, 191]",191,a,0.4146433200221509,colour,0.5
72,62,0,1,9,48,448,768.7291806563735,769.7018694647122,"[65, 0, 189]",189,a,0.4493973972275853,colour,0.5
72,62,0,1,9,49,449,770.2134479212109,771.1978662256151,"[39, 0, 215]",215,a,0.4610595458652824,colour,0.5
72,62,0,1,9,50,450,771.7134449672885,772.6858576901723,"[7, 0, 247]",247,a,0.44896219833754003,colour,0.5
72,62,0,1,10,1,451,778.0094522833824,780.2618069851305,"[3, 0, 251]",251,a,1.728363427799195,colour,0.5
72,62,0,1,10,2,452,780.7759899394587,783.5177444959991,"[84, 0, 170]",170,l,2.218525766627863,colour,0.5
72,62,0,1,10,3,453,784.0260178041644,784.9418349794578,"[17, 0, 237]",237,a,0.3925812963861972,colour,0.5
72,62,0,1,10,4,454,785.4634104073048,786.3657919496763,"[14, 0, 240]",240,a,0.37907555885612965,colour,0.5
72,62,0,1,10,5,455,786.885291025741,787.9577545942739,"[34, 0, 220]",220,a,0.549075665185228,colour,0.5
72,62,0,1,10,6,456,788.478975167498,789.5497711955104,"[94, 0, 160]",160,l,0.5473415649030358,colour,0.5
72,62,0,1,10,7,457,790.0570713123307,791.0457967072725,"[4, 0, 250]",250,a,0.4654272885527462,colour,0.5
72,62,0,1,10,8,458,791.5571164074354,792.3577894100454,"[30, 0, 224]",224,a,0.2773634744808078,colour,0.5
72,62,0,1,10,9,459,792.869627410546,793.7897760949563,"[0, 0, 254]",254,a,0.3970971249509603,colour,0.5
72,62,0,1,10,10,460,794.3071283213794,795.3821900861803,"[8, 0, 246]",246,a,0.5516825262457132,colour,0.5
72,62,0,1,10,11,461,795.9008668137249,796.8697825856507,"[36, 0, 218]",218,a,0.4456456284970045,colour,0.5
72,62,0,1,10,12,462,797.3851486507338,798.3657600481529,"[42, 0, 212]",212,a,0.4572022263891995,colour,0.5
72,62,0,1,10,13,463,798.8851909891237,799.8057937771082,"[97, 0, 157]",157,l,0.3972649029456079,colour,0.5
72,62,0,1,10,14,464,800.3226533031557,801.3097808684688,"[10, 0, 244]",244,a,0.4637164252344519,colour,0.5
72,62,0,1,10,15,465,801.822702730773,802.7980728368275,"[59, 0, 195]",195,a,0.45263559208251536,colour,0.5
72,62,0,1,10,16,466,803.3071232014336,804.5817392121535,"[65, 0, 189]",189,l,0.7513312951195985,colour,0.5
72,62,0,1,10,17,467,805.0883252876811,806.0457510212436,"[52, 0, 202]",202,a,0.4341465316247195,colour,0.5
72,62,0,1,10,18,468,806.5571148321033,807.5977025437169,"[98, 0, 156]",156,l,0.5172580974176526,colour,0.5
72,62,0,1,10,19,469,808.1197584625334,809.0617293186951,"[61, 0, 193]",193,a,0.4189555305056274,colour,0.5
72,62,0,1,10,20,470,809.5728749395348,810.4937108836602,"[5, 0, 249]",249,a,0.3974756100215018,colour,0.5
72,62,0,1,10,21,471,811.0103431611788,812.4376990147866,"[75, 0, 179]",179,l,0.9041093408595771,colour,0.5
72,62,0,1,10,22,472,812.9478560842108,813.9417550289072,"[38, 0, 216]",216,a,0.4704574786592275,colour,0.5
72,62,0,1,10,23,473,814.4478582502343,815.398036445491,"[6, 0, 248]",248,a,0.42681707348674536,colour,0.5
72,62,0,1,10,24,474,815.9165280659217,816.941728641279,"[45, 0, 209]",209,a,0.5017366600222886,colour,0.5
72,62,0,1,10,25,475,817.4478208350483,819.2136889544781,"[7, 0, 247]",247,a,1.2424837609287351,colour,0.5
72,62,0,1,10,26,476,819.7290688042995,820.6536742402241,"[73, 0, 181]",181,l,0.40128369885496795,colour,0.5
72,62,0,1,10,27,477,821.1665133952629,822.1817311777268,"[70, 0, 184]",184,l,0.4921032078564167,colour,0.5
72,62,0,1,10,28,478,822.6978286134545,823.7337039676495,"[19, 0, 235]",235,a,0.512461063452065,colour,0.5
72,62,0,1,10,29,479,824.2446912627202,825.373677123338,"[55, 0, 199]",199,a,0.6056219819001853,colour,0.5
72,62,0,1,10,30,480,825.8852985089179,826.8537062206306,"[85, 0, 169]",169,l,0.4450233532115817,colour,0.5
72,62,0,1,10,31,481,827.3696492689196,828.5656486686785,"[21, 0, 233]",233,a,0.6726355210412294,colour,0.5
72,62,0,1,10,32,482,829.0728089704644,830.1256696842611,"[77, 0, 177]",177,l,0.5294468167703599,colour,0.5
72,62,0,1,10,33,483,830.6352974257898,831.693658974953,"[48, 0, 206]",206,a,0.5349819166585803,colour,0.5
72,62,0,1,10,34,484,832.2134065674618,833.5976379530039,"[88, 0, 166]",166,l,0.8608462393749505,colour,0.5
72,62,0,1,10,35,485,834.1202771565877,835.1416893356945,"[89, 0, 165]",165,l,0.4983523488044739,colour,0.5
72,62,0,1,10,36,486,835.6515482643154,836.6056558524724,"[15, 0, 239]",239,a,0.430721654323861,colour,0.5
72,62,0,1,10,37,487,837.120290153427,838.2216257217806,"[50, 0, 204]",204,a,0.5779492405708879,colour,0.5
72,62,0,1,10,38,488,838.7296741441824,839.7816227127332,"[63, 0, 191]",191,a,0.5285791759379208,colour,0.5
72,62,0,1,10,39,489,840.292090132134,841.277675793739,"[71, 0, 183]",183,l,0.46215561707504094,colour,0.5
72,62,0,1,10,40,490,841.7921549195889,842.8616607110016,"[79, 0, 175]",175,l,0.5461726326029748,colour,0.5
72,62,0,1,10,41,491,843.3702506704722,844.3257634982001,"[46, 0, 208]",208,a,0.43210641387850046,colour,0.5
72,62,0,1,10,42,492,844.838983107591,846.9419287147466,"[68, 0, 186]",186,l,1.5795805470552295,colour,0.5
72,62,0,1,10,43,493,847.4483883657958,848.5416308101267,"[25, 0, 229]",229,a,0.5701416542287916,colour,0.5
72,62,0,1,10,44,494,849.05776172271,850.0776182136033,"[2, 0, 252]",252,a,0.496681657852605,colour,0.5
72,62,0,1,10,45,495,850.5891281410586,851.5096844551153,"[86, 0, 168]",168,l,0.3972849890124053,colour,0.5
72,62,0,1,10,46,496,852.0264207075816,853.1096437314991,"[1, 0, 253]",253,a,0.5598997112829238,colour,0.5
72,62,0,1,10,47,497,853.6202088245191,854.9256479439791,"[60, 0, 194]",194,a,0.7819708718452603,colour,0.5
72,62,0,1,10,48,498,855.4327704366297,857.8536467498634,"[64, 0, 190]",190,a,1.897634920431301,colour,0.5
72,62,0,1,10,49,499,858.3701766275335,859.461598719703,"[22, 0, 232]",232,a,0.5680538811720908,colour,0.5
72,62,0,1,10,50,500,859.9795582552906,860.9335874684621,"[93, 0, 161]",161,l,0.4306543068960309,colour,0.5
72,62,0,1,11,1,501,865.8849940665532,866.8456197921187,"[37, 0, 217]",217,a,0.43650133186019957,colour,0.5
72,62,0,1,11,2,502,867.3545480645262,869.4695362749044,"[12, 0, 242]",242,a,1.592052835272625,colour,0.5
72,62,0,1,11,3,503,869.9794944524765,870.8935731954407,"[2, 0, 252]",252,a,0.3907333752140403,colour,0.5
72,62,0,1,11,4,504,871.4013920060825,872.8775905654766,"[44, 0, 210]",210,a,0.9529173881746829,colour,0.5
72,62,0,1,11,5,505,873.385802433826,874.3335210660007,"[51, 0, 203]",203,a,0.4243697195779532,colour,0.5
72,62,0,1,11,6,506,874.8544781571254,876.3095670104958,"[86, 0, 168]",168,l,0.9317277318332344,colour,0.5
72,62,0,1,11,7,507,876.8231954309158,877.9575596407522,"[81, 0, 173]",173,l,0.6116966493427753,colour,0.5
72,62,0,1,11,8,508,878.4638050403446,879.4775277867448,"[82, 0, 172]",172,l,0.4903502033557743,colour,0.5
72,62,0,1,11,9,509,879.9951391629875,880.9735509352759,"[8, 0, 246]",246,a,0.45508845965377986,colour,0.5
72,62,0,1,11,10,510,881.4951322707348,882.7255383762531,"[74, 0, 180]",180,l,0.7071588048711419,colour,0.5
72,62,0,1,11,11,511,883.2450283940416,884.2375240686815,"[78, 0, 176]",176,l,0.4691140728536993,colour,0.5
72,62,0,1,11,12,512,884.745096726343,885.7578250137158,"[57, 0, 197]",197,a,0.4893841010052711,colour,0.5
72,62,0,1,11,13,513,886.2762614956591,893.309529595077,"[69, 0, 185]",185,l,6.510038128122687,colour,0.5
72,62,0,1,11,14,514,893.8231213879772,894.869484838564,"[55, 0, 199]",199,a,0.5237746590282768,colour,0.5
72,62,0,1,11,15,515,895.3856169327628,896.2855365488213,"[29, 0, 225]",225,a,0.37651359592564404,colour,0.5
72,62,0,1,11,16,516,896.7918745018542,898.2934843439143,"[42, 0, 212]",212,a,0.9782601417973638,colour,0.5
72,62,0,1,11,17,517,898.8074711635709,899.7014866471291,"[49, 0, 205]",205,a,0.3706775987520814,colour,0.5
72,62,0,1,11,18,518,900.2137716619764,901.2614954535384,"[93, 0, 161]",161,l,0.5243835437577218,colour,0.5
72,62,0,1,11,19,519,901.7762612989172,902.509498166386,"[56, 0, 198]",198,a,0.21002028696238995,colour,0.5
72,62,0,1,11,20,520,903.0261871574912,904.0614729255904,"[11, 0, 243]",243,a,0.5120408306829631,colour,0.5
72,62,0,1,11,21,521,904.5730742251035,906.55751379719,"[14, 0, 240]",240,a,1.4610808133147657,colour,0.5
72,62,0,1,11,22,522,907.0731110495981,908.1095255778637,"[84, 0, 170]",170,l,0.5130734925623983,colour,0.5
72,62,0,1,11,23,523,908.6198972929269,909.3094559460878,"[24, 0, 230]",230,a,0.16615066374652088,colour,0.5
72,62,0,1,11,24,524,909.8230595544446,910.4774777682032,"[40, 0, 214]",214,a,0.1318349363282323,colour,0.5
72,62,0,1,11,25,525,910.9949792618863,912.5414819368161,"[27, 0, 227]",227,a,1.023247497389093,colour,0.5
72,62,0,1,11,26,526,913.057454129681,915.1094554734882,"[71, 0, 183]",183,l,1.5288733784109354,colour,0.5
72,62,0,1,11,27,527,915.6199445542879,916.2934607132338,"[41, 0, 213]",213,a,0.15022080927155912,colour,0.5
72,62,0,1,11,28,528,916.8074109051377,917.9337717879098,"[32, 0, 222]",222,a,0.6030710469931364,colour,0.5
72,62,0,1,11,29,529,918.4479878253769,920.0614796208683,"[20, 0, 234]",234,a,1.0904323591385037,colour,0.5
72,62,0,1,11,30,530,920.5729556777515,921.109413332073,"[3, 0, 251]",251,a,0.01301973289810121,colour,0.5
72,62,0,1,11,31,531,921.6198271885514,923.2294466986787,"[16, 0, 238]",238,a,1.0861969485413283,colour,0.5
72,62,0,1,11,32,532,923.7448328500614,924.3014601019677,"[76, 0, 178]",178,l,0.03330512088723481,colour,0.5
72,62,0,1,11,33,533,924.822963062441,925.3734116717242,"[50, 0, 204]",204,a,0.02781807049177587,colour,0.5
72,62,0,1,11,34,534,925.8853808224667,926.453470937442,"[90, 0, 164]",164,l,0.044859356014057994,colour,0.5
72,62,0,1,11,35,535,926.9635980746243,928.1494051557966,"[77, 0, 177]",177,l,0.6623821565881371,colour,0.5
72,62,0,1,11,36,536,928.6667625021655,930.1334075599443,"[70, 0, 184]",184,l,0.9433410435449332,colour,0.5
72,62,0,1,11,37,537,930.6510847085156,932.4294648943469,"[33, 0, 221]",221,a,1.2550998022779822,colour,0.5
72,62,0,1,11,38,538,932.9478115795646,935.8293807690497,"[47, 0, 207]",207,a,2.3579906651284546,colour,0.5
72,62,0,1,11,39,539,936.3385138409212,938.3574140756391,"[88, 0, 166]",166,l,1.495473340852186,colour,0.5
72,62,0,1,11,40,540,938.8697274471633,939.9333810934331,"[75, 0, 179]",179,l,0.540232660016045,colour,0.5
72,62,0,1,11,41,541,940.4478421027306,942.8216968502384,"[10, 0, 244]",244,a,1.8504349428694695,colour,0.5
72,62,0,1,11,42,542,943.3384965118021,945.7813726211898,"[68, 0, 186]",186,a,1.919449609471485,colour,0.5
72,62,0,1,11,43,543,946.2915891611483,947.3173718396574,"[38, 0, 216]",216,a,0.502355390926823,colour,0.5
72,62,0,1,11,44,544,947.8384498411324,948.7813588364515,"[85, 0, 169]",169,l,0.4193974246736616,colour,0.5
72,62,0,1,11,45,545,949.2915261460003,949.9333791243844,"[92, 0, 162]",162,l,0.11839221394620836,colour,0.5
72,62,0,1,11,46,546,950.44783107494,951.5974020396825,"[52, 0, 202]",202,a,0.6261834553442895,colour,0.5
72,62,0,1,11,47,547,952.1186297023669,953.1253542143386,"[5, 0, 249]",249,a,0.48334960569627583,colour,0.5
72,62,0,1,11,48,548,953.6342395576648,954.6613278330769,"[15, 0, 239]",239,a,0.5037113998550922,colour,0.5
72,62,0,1,11,49,549,955.1810962993186,956.1733497590758,"[7, 0, 247]",247,a,0.4687891504727304,colour,0.5
72,62,0,1,11,50,550,956.6811004346237,959.4933075862937,"[63, 0, 191]",191,a,2.2887944360263646,colour,0.5
72,62,0,1,12,1,551,967.3834102184046,971.6613325590733,"[49, 0, 205]",205,a,3.753836937714368,colour,0.5
72,62,0,1,12,2,552,972.1810549455695,973.1972734886222,"[29, 0, 225]",225,a,0.4931571374181658,colour,0.5
72,62,0,1,12,3,553,973.7123831608333,974.9813132293057,"[70, 0, 184]",184,l,0.7456709526013583,colour,0.5
72,62,0,1,12,4,554,975.4935509825591,976.7012664878275,"[67, 0, 187]",187,l,0.6846371644642204,colour,0.5
72,62,0,1,12,5,555,977.2123116778675,978.1252644176129,"[45, 0, 209]",209,a,0.38962194393388927,colour,0.5
72,62,0,1,12,6,556,978.634094228968,980.5572975762188,"[64, 0, 190]",190,a,1.3998544346541166,colour,0.5
72,62,0,1,12,7,557,981.0716813916806,981.9092761953361,"[73, 0, 181]",181,l,0.3142183218151331,colour,0.5
72,62,0,1,12,8,558,982.4154696071055,983.3892997787334,"[96, 0, 158]",158,l,0.4508246921468526,colour,0.5
72,62,0,1,12,9,559,983.8996502261143,985.0775244783144,"[82, 0, 172]",172,l,0.6543792232405394,colour,0.5
72,62,0,1,12,10,560,985.5873755300418,986.7092690272257,"[34, 0, 220]",220,a,0.5985886952839792,colour,0.5
72,62,0,1,12,11,561,987.2278063336853,988.8533060739283,"[51, 0, 203]",203,a,1.1020374004729092,colour,0.5
72,62,0,1,12,12,562,989.3685051489156,990.3892666955944,"[83, 0, 171]",171,l,0.49775370419956744,colour,0.5
72,62,0,1,12,13,563,990.8996793704573,991.965338476235,"[8, 0, 246]",246,a,0.542274747043848,colour,0.5
72,62,0,1,12,14,564,992.4777770906221,993.8532245480455,"[56, 0, 198]",198,a,0.8519642436876893,colour,0.5
72,62,0,1,12,15,565,994.3683877829462,995.3972546628211,"[12, 0, 242]",242,a,0.5054214752744883,colour,0.5
72,62,0,1,12,16,566,995.9153205365874,996.9892472396605,"[13, 0, 241]",241,a,0.5504647567868233,colour,0.5
72,62,0,1,12,17,567,997.5090495767072,998.4772276766598,"[2, 0, 252]",252,a,0.4449095318559557,colour,0.5
72,62,0,1,12,18,568,998.9934763489291,1000.58925968525,"[90, 0, 164]",164,l,1.072725081583485,colour,0.5
72,62,0,1,12,19,569,1001.1028837733902,1001.997241902398,"[50, 0, 204]",204,a,0.37107105017639697,colour,0.5
72,62,0,1,12,20,570,1002.5090401244815,1003.4852774776518,"[42, 0, 212]",212,a,0.4530274679418653,colour,0.5
72,62,0,1,12,21,571,1003.993299118476,1005.0452161794528,"[39, 0, 215]",215,a,0.5286800004541874,colour,0.5
72,62,0,1,12,22,572,1005.5558765830938,1006.5492339907214,"[22, 0, 232]",232,a,0.4700002244208008,colour,0.5
72,62,0,1,12,23,573,1007.055844878545,1008.0132410735823,"[5, 0, 249]",249,a,0.4341910360381007,colour,0.5
72,62,0,1,12,24,574,1008.5246131552849,1009.4452541461214,"[94, 0, 160]",160,l,0.3973031057976186,colour,0.5
72,62,0,1,12,25,575,1009.962116823066,1010.9251965975855,"[80, 0, 174]",174,l,0.43976118811406195,colour,0.5
72,62,0,1,12,26,576,1011.4465148444287,1012.653238253668,"[15, 0, 239]",239,a,0.683407973498106,colour,0.5
72,62,0,1,12,27,577,1013.1652542722877,1014.1252037654631,"[44, 0, 210]",210,a,0.43656986067071557,colour,0.5
72,62,0,1,12,28,578,1014.6339721370023,1015.5491776708513,"[85, 0, 169]",169,l,0.39185898448340595,colour,0.5
72,62,0,1,12,29,579,1016.0557550818194,1017.1012040239293,"[99, 0, 155]",155,l,0.5222229093778878,colour,0.5
72,62,0,1,12,30,580,1017.6183589338325,1020.2212129719555,"[69, 0, 185]",185,l,2.079451168887317,colour,0.5
72,62,0,1,12,31,581,1020.7277210662141,1021.8291795141995,"[97, 0, 157]",157,l,0.5781638862099499,colour,0.5
72,62,0,1,12,32,582,1022.3370487370994,1030.0611944771372,"[74, 0, 180]",180,a,7.200750353746116,colour,0.5
72,62,0,1,12,33,583,1030.571297983406,1031.5251905324403,"[26, 0, 228]",228,a,0.4304124859627336,colour,0.5
72,62,0,1,12,34,584,1032.040022149682,1033.1252053407952,"[17, 0, 237]",237,a,0.5617283342871815,colour,0.5
72,62,0,1,12,35,585,1033.6338528017513,1034.5893112788908,"[35, 0, 219]",219,a,0.432181638199836,colour,0.5
72,62,0,1,12,36,586,1035.1026104448829,1036.0611728155054,"[93, 0, 161]",161,l,0.4351563504897058,colour,0.5
72,62,0,1,12,37,587,1036.5713015280198,1037.4771386676002,"[71, 0, 183]",183,l,0.3823850394692272,colour,0.5
72,62,0,1,12,38,588,1037.9931396113243,1039.0691131276544,"[33, 0, 221]",221,a,0.5527317298110574,colour,0.5
72,62,0,1,12,39,589,1039.5869281219784,1040.5811405675486,"[32, 0, 222]",222,a,0.4707686163019389,colour,0.5
72,62,0,1,12,40,590,1041.0869684910867,1042.0611420955975,"[30, 0, 224]",224,a,0.4511220450513065,colour,0.5
72,62,0,1,12,41,591,1042.572093944531,1043.893141934881,"[18, 0, 236]",236,a,0.7985174879431725,colour,0.5
72,62,0,1,12,42,592,1044.399393635802,1046.373091081623,"[60, 0, 194]",194,l,1.4503536531701684,colour,0.5
72,62,0,1,12,43,593,1046.8837798419409,1048.109097468201,"[36, 0, 218]",218,a,0.7019222399685532,colour,0.5
72,62,0,1,12,44,594,1048.6180946638342,1051.6611037352122,"[23, 0, 231]",231,a,2.5195215253625065,colour,0.5
72,62,0,1,12,45,595,1052.180631562136,1053.1411076262593,"[65, 0, 189]",189,l,0.4373705480247736,colour,0.5
72,62,0,1,12,46,596,1053.649281291524,1054.6291345369536,"[95, 0, 159]",159,l,0.45638696709647775,colour,0.5
72,62,0,1,12,47,597,1055.149350805208,1057.9410657999106,"[3, 0, 251]",251,a,2.2685984508134425,colour,0.5
72,62,0,1,12,48,598,1058.4618562944233,1059.5892250267789,"[89, 0, 165]",165,l,0.6044404464773834,colour,0.5
72,62,0,1,12,49,599,1060.1025301003829,1061.1652007093653,"[21, 0, 233]",233,a,0.5393555669579655,colour,0.5
72,62,0,1,12,50,600,1061.6805939499754,1069.7170974873006,"[63, 0, 191]",191,a,7.513109332649037,colour,0.5
72,62,0,1,13,1,601,1074.5078810381237,1075.6370917842723,"[51, 0, 203]",203,a,0.6051001369487494,colour,0.5
72,62,0,1,13,2,602,1076.1492484055925,1077.5410652486607,"[92, 0, 162]",162,l,0.8684206691104919,colour,0.5
72,62,0,1,13,3,603,1078.0555286207236,1079.0050593346823,"[48, 0, 206]",206,a,0.42656658799387515,colour,0.5
72,62,0,1,13,4,604,1079.524298866978,1080.7410523304716,"[85, 0, 169]",169,l,0.693421486299485,colour,0.5
72,62,0,1,13,5,605,1081.2586609499995,1082.2530915858224,"[62, 0, 192]",192,a,0.4720064715947956,colour,0.5
72,62,0,1,13,6,606,1082.7742904976476,1083.8371379429009,"[87, 0, 167]",167,l,0.5395548525266349,colour,0.5
72,62,0,1,13,7,607,1084.352324808715,1085.4849958783016,"[52, 0, 202]",202,a,0.6096195101272315,colour,0.5
72,62,0,1,13,8,608,1085.9929804978892,1087.0370470434427,"[54, 0, 200]",200,a,0.5209216447547078,colour,0.5
72,62,0,1,13,9,609,1087.5554736794438,1088.5650649901945,"[86, 0, 168]",168,l,0.48617702000774443,colour,0.5
72,62,0,1,13,10,610,1089.0710788087454,1090.117004697211,"[90, 0, 164]",164,l,0.5223516966216266,colour,0.5
72,62,0,1,13,11,611,1090.63351567043,1093.149033366004,"[96, 0, 158]",158,l,1.99204590334557,colour,0.5
72,62,0,1,13,12,612,1093.664842901053,1095.0369726067875,"[60, 0, 194]",194,a,0.8487508611287922,colour,0.5
72,62,0,1,13,13,613,1095.5554004241712,1096.757031415822,"[16, 0, 238]",238,a,0.6782411192543805,colour,0.5
72,62,0,1,13,14,614,1097.274198140949,1098.6689861519262,"[38, 0, 216]",216,a,0.8714075908064842,colour,0.5
72,62,0,1,13,15,615,1099.1803609905764,1100.8369906449225,"[3, 0, 251]",251,a,1.1332464774604887,colour,0.5
72,62,0,1,13,16,616,1101.3522838489152,1103.2049715858884,"[80, 0, 174]",174,l,1.329346307553351,colour,0.5
72,62,0,1,13,17,617,1103.7116380056832,1104.7169872105587,"[29, 0, 225]",225,a,0.48202510457485914,colour,0.5
72,62,0,1,13,18,618,1105.227263615001,1106.2770003492478,"[4, 0, 250]",250,a,0.5265418151393533,colour,0.5
72,62,0,1,13,19,619,1106.7897575842217,1108.1729429170955,"[47, 0, 207]",207,a,0.8599073123186827,colour,0.5
72,62,0,1,13,20,620,1108.6803355873562,1109.6369614214636,"[69, 0, 185]",185,l,0.43313631881028414,colour,0.5
72,62,0,1,13,21,621,1110.14917515032,1111.1889440577943,"[20, 0, 234]",234,a,0.5164428378921002,colour,0.5
72,62,0,1,13,22,622,1111.6959566674195,1112.6929768351838,"[46, 0, 208]",208,a,0.4735948492307216,colour,0.5
72,62,0,1,13,23,623,1113.2115996058565,1114.2369612639304,"[50, 0, 204]",204,a,0.5020891514141113,colour,0.5
72,62,0,1,13,24,624,1114.7428561411798,1116.2529844599776,"[0, 0, 254]",254,a,0.9868908643256873,colour,0.5
72,62,0,1,13,25,625,1116.774130990496,1118.532915017102,"[49, 0, 205]",205,a,1.2354382649064064,colour,0.5
72,62,0,1,13,26,626,1119.0396062491927,1119.9729109369218,"[67, 0, 187]",187,l,0.40985337528400123,colour,0.5
72,62,0,1,13,27,627,1120.4928011014126,1121.7248924702872,"[17, 0, 237]",237,a,0.7089437111280859,colour,0.5
72,62,0,1,13,28,628,1122.242791353725,1123.2449196928646,"[61, 0, 193]",193,l,0.47893460164777935,colour,0.5
72,62,0,1,13,29,629,1123.758373640012,1126.3889232627116,"[59, 0, 195]",195,a,2.1071861379314214,colour,0.5
72,62,0,1,13,30,630,1126.8991283811629,1128.588928855257,"[35, 0, 219]",219,a,1.1666024043224752,colour,0.5
72,62,0,1,13,31,631,1129.1021012030542,1130.748886304209,"[21, 0, 233]",233,a,1.1233771117404103,colour,0.5
72,62,0,1,13,32,632,1131.2583379969,1132.8769316626713,"[30, 0, 224]",224,a,1.0952408146113157,colour,0.5
72,62,0,1,13,33,633,1133.3833023048937,1134.4849155338015,"[28, 0, 226]",226,a,0.5780331294517964,colour,0.5
72,62,0,1,13,34,634,1134.9927441908512,1137.4289123294875,"[57, 0, 197]",197,l,1.9129594350233674,colour,0.5
72,62,0,1,13,35,635,1137.9458293570206,1139.0688559466507,"[68, 0, 186]",186,l,0.5996284463908523,colour,0.5
72,62,0,1,13,36,636,1139.5865397907328,1140.9808792120311,"[11, 0, 243]",243,a,0.8710779424291104,colour,0.5
72,62,0,1,13,37,637,1141.4926337171346,1142.4848970230669,"[13, 0, 241]",241,a,0.46900222077965736,colour,0.5
72,62,0,1,13,38,638,1142.9926925969776,1144.2449397789314,"[34, 0, 220]",220,a,0.7290073644835502,colour,0.5
72,62,0,1,13,39,639,1144.7582881755661,1145.7729195228312,"[65, 0, 189]",189,l,0.4912359609734267,colour,0.5
72,62,0,1,13,40,640,1146.289547467837,1147.2688383024652,"[9, 0, 245]",245,a,0.4559344390872866,colour,0.5
72,62,0,1,13,41,641,1147.7895496340934,1148.748806747608,"[24, 0, 230]",230,a,0.4359302562661469,colour,0.5
72,62,0,1,13,42,642,1149.2581981818657,1150.1328510567546,"[93, 0, 161]",161,l,0.3512204671278596,colour,0.5
72,62,0,1,13,43,643,1150.6488890217151,1151.7328245115932,"[33, 0, 221]",221,a,0.5605668849311769,colour,0.5
72,62,0,1,13,44,644,1152.2426649294794,1153.660862701945,"[12, 0, 242]",242,a,0.8950312102679163,colour,0.5
72,62,0,1,13,45,645,1154.18011523108,1155.1328419982456,"[76, 0, 178]",178,l,0.42933807615190744,colour,0.5
72,62,0,1,13,46,646,1155.648864209652,1157.3888645798434,"[72, 0, 182]",182,l,1.2166388547047973,colour,0.5
72,62,0,1,13,47,647,1157.898846388096,1159.7488477074075,"[78, 0, 176]",176,l,1.326694154413417,colour,0.5
72,62,0,1,13,48,648,1160.2582001511473,1161.5567989682313,"[95, 0, 159]",159,l,0.7752231229096651,colour,0.5
72,62,0,1,13,49,649,1162.070668028202,1162.804834764218,"[31, 0, 223]",223,a,0.21051495661959052,colour,0.5
72,62,0,1,13,50,650,1163.320683289785,1164.2768621095456,"[45, 0, 209]",209,a,0.43336081062443554,colour,0.5
72,62,0,1,14,1,651,1169.1635666457005,1173.396790319588,"[1, 0, 253]",253,a,3.708804683992639,colour,0.5
72,62,0,1,14,2,652,1173.9143843667116,1174.9728175955825,"[5, 0, 249]",249,a,0.5350610793102533,colour,0.5
72,62,0,1,14,3,653,1175.4925340744667,1176.796794809401,"[29, 0, 225]",225,a,0.7811276495922357,colour,0.5
72,62,0,1,14,4,654,1177.3049826528877,1178.940755449934,"[9, 0, 245]",245,a,1.1123825307004154,colour,0.5
72,62,0,1,14,5,655,1179.4612533175386,1181.0287707815878,"[46, 0, 208]",208,a,1.0442232959903777,colour,0.5
72,62,0,1,14,6,656,1181.5393437515013,1182.8607296610717,"[2, 0, 252]",252,a,0.7979743757750839,colour,0.5
72,62,0,1,14,7,657,1183.3674791823141,1185.0047958521172,"[76, 0, 178]",178,l,1.1142635350115597,colour,0.5
72,62,0,1,14,8,658,1185.5237600868568,1186.7407872728072,"[90, 0, 164]",164,l,0.6938618053682148,colour,0.5
72,62,0,1,14,9,659,1187.2580816037953,1188.916878588032,"[96, 0, 158]",158,l,1.1354811547789723,colour,0.5
72,62,0,1,14,10,660,1189.4299363270402,1194.796766846208,"[62, 0, 192]",192,l,4.843488696031272,colour,0.5
72,62,0,1,14,11,661,1195.3048940377776,1196.5487349890172,"[66, 0, 188]",188,l,0.7203782175201923,colour,0.5
72,62,0,1,14,12,662,1197.0549358839635,1198.052770129405,"[0, 0, 254]",254,a,0.47472597239539027,colour,0.5
72,62,0,1,14,13,663,1198.5705047794618,1199.5410955746192,"[36, 0, 218]",218,a,0.4471847750246525,colour,0.5
72,62,0,1,14,14,664,1200.0548803517595,1201.444755538134,"[8, 0, 246]",246,a,0.8667539164889604,colour,0.5
72,62,0,1,14,15,665,1201.9611207887065,1202.9007132139523,"[75, 0, 179]",179,l,0.4162608420010656,colour,0.5
72,62,0,1,14,16,666,1203.414266410051,1204.5247639981098,"[42, 0, 212]",212,a,0.5871230755001307,colour,0.5
72,62,0,1,14,17,667,1205.0392147672828,1206.1006900558714,"[87, 0, 167]",167,l,0.5380676931235939,colour,0.5
72,62,0,1,14,18,668,1206.6173845608719,1207.900780561613,"[98, 0, 156]",156,l,0.7601065586786717,colour,0.5
72,62,0,1,14,19,669,1208.4142526255455,1209.4207175935153,"[39, 0, 215]",215,a,0.4831105414777994,colour,0.5
72,62,0,1,14,20,670,1209.929817188764,1210.8846817475278,"[27, 0, 227]",227,a,0.4315499106887728,colour,0.5
72,62,0,1,14,21,671,1211.3986567517277,1212.5966942999512,"[94, 0, 160]",160,l,0.6747260510455817,colour,0.5
72,62,0,1,14,22,672,1213.119461109396,1215.084696792299,"[10, 0, 244]",244,a,1.4422518648207188,colour,0.5
72,62,0,1,14,23,673,1215.6038319556974,1216.6446989031974,"[91, 0, 163]",163,l,0.5175231550820172,colour,0.5
72,62,0,1,14,24,674,1217.1662495189812,1218.1967224993277,"[97, 0, 157]",157,l,0.5070149728562683,colour,0.5
72,62,0,1,14,25,675,1218.7131606112234,1219.9006824940443,"[33, 0, 221]",221,a,0.664088687626645,colour,0.5
72,62,0,1,14,26,676,1220.416178922169,1222.3166896998882,"[52, 0, 202]",202,a,1.3769810902886093,colour,0.5
72,62,0,1,14,27,677,1222.838144217385,1224.2286318331026,"[21, 0, 233]",233,a,0.8671245248988271,colour,0.5
72,62,0,1,14,28,678,1224.7444098603446,1227.6366585546639,"[12, 0, 242]",242,a,2.3688722127117217,colour,0.5
72,62,0,1,14,29,679,1228.1506118974648,1230.7966912279371,"[47, 0, 207]",207,a,2.122771377908066,colour,0.5
72,62,0,1,14,30,680,1231.3067254177295,1235.4446212369949,"[35, 0, 219]",219,a,3.6143354119267315,colour,0.5
72,62,0,1,14,31,681,1235.9631238849834,1236.9406313886866,"[99, 0, 155]",155,l,0.45409557595849037,colour,0.5
72,62,0,1,14,32,682,1237.4474384114146,1238.492672313936,"[89, 0, 165]",165,l,0.5218530886340886,colour,0.5
72,62,0,1,14,33,683,1239.009896934498,1241.0526212558616,"[64, 0, 190]",190,l,1.5196491312235594,colour,0.5
72,62,0,1,14,34,684,1241.572387359105,1242.6206349649,"[50, 0, 204]",204,a,0.5248187426477671,colour,0.5
72,62,0,1,14,35,685,1243.134904959239,1244.0845908478368,"[71, 0, 183]",183,l,0.4266646553296596,colour,0.5
72,62,0,1,14,36,686,1244.6037019866053,1245.708642813377,"[20, 0, 234]",234,a,0.5815659202635288,colour,0.5
72,62,0,1,14,37,687,1246.2286641283426,1247.9886226013768,"[60, 0, 194]",194,l,1.2364437517244369,colour,0.5
72,62,0,1,14,38,688,1248.509901857702,1249.9325926154852,"[84, 0, 170]",170,l,0.8995509771630168,colour,0.5
72,62,0,1,14,39,689,1250.447374214651,1251.4606302545872,"[34, 0, 220]",220,a,0.4897807030938566,colour,0.5
72,62,0,1,14,40,690,1251.978630356025,1253.1966193118133,"[54, 0, 200]",200,a,0.6946034154389054,colour,0.5
72,62,0,1,14,41,691,1253.7129751101602,1254.6848636250943,"[23, 0, 231]",231,a,0.448483282700181,colour,0.5
72,62,0,1,14,42,692,1255.1973546207882,1256.6366656438913,"[7, 0, 247]",247,a,0.9158388369251043,colour,0.5
72,62,0,1,14,43,693,1257.1504996514414,1258.1165828891098,"[73, 0, 181]",181,l,0.44277725415304303,colour,0.5
72,62,0,1,14,44,694,1258.6348708914593,1259.772606415907,"[14, 0, 240]",240,a,0.6143980333581567,colour,0.5
72,62,0,1,14,45,695,1260.291108669946,1261.4925273789559,"[4, 0, 250]",250,a,0.6780063873156905,colour,0.5
72,62,0,1,14,46,696,1262.0097961102147,1263.0605997708626,"[40, 0, 214]",214,a,0.5275429694447666,colour,0.5
72,62,0,1,14,47,697,1263.57228456554,1264.4765226938762,"[68, 0, 186]",186,l,0.38080493290908635,colour,0.5
72,62,0,1,14,48,698,1264.994263251545,1266.076569010038,"[70, 0, 184]",184,l,0.5589985935948789,colour,0.5
72,62,0,1,14,49,699,1266.5880100145005,1267.5966167126317,"[51, 0, 203]",203,a,0.48530740989372134,colour,0.5
72,62,0,1,14,50,700,1268.1202235936653,1269.036536226282,"[53, 0, 201]",201,a,0.3928940095938742,colour,0.5
72,62,0,1,15,1,701,1273.6663013095967,1274.7405497841537,"[96, 0, 158]",158,l,0.5501551947090775,colour,0.5
72,62,0,1,15,2,702,1275.2608463966753,1275.8925436842255,"[58, 0, 196]",196,a,0.10835940251126885,colour,0.5
72,62,0,1,15,3,703,1276.401474319864,1277.3565873946063,"[20, 0, 234]",234,a,0.43174919625744224,colour,0.5
72,62,0,1,15,4,704,1277.870199273806,1278.8606126890518,"[5, 0, 249]",249,a,0.4670385089702904,colour,0.5
72,62,0,1,15,5,705,1279.3702057721093,1280.5165704435203,"[55, 0, 199]",199,a,0.6229996110778302,colour,0.5
72,62,0,1,15,6,706,1281.026356510818,1281.9165134935174,"[41, 0, 213]",213,a,0.3669537927489728,colour,0.5
72,62,0,1,15,7,707,1282.4326270769816,1283.8044897557702,"[26, 0, 228]",228,a,0.8484629602171481,colour,0.5
72,62,0,1,15,8,708,1284.3232716401108,1284.948520106962,"[71, 0, 183]",183,l,0.10175265022553504,colour,0.5
72,62,0,1,15,9,709,1285.4639070462435,1286.6686557158828,"[49, 0, 205]",205,a,0.6813402865082026,colour,0.5
72,62,0,1,15,10,710,1287.182550769532,1288.2605380159803,"[80, 0, 174]",174,l,0.5545075773261487,colour,0.5
72,62,0,1,15,11,711,1288.7764176554047,1289.3245197352953,"[82, 0, 172]",172,l,0.0250095606315881,colour,0.5
72,62,0,1,15,12,712,1289.8388956738636,1290.860490597086,"[78, 0, 176]",176,l,0.4981739369686693,colour,0.5
72,62,0,1,15,13,713,1291.3701014032122,1292.5886378036812,"[63, 0, 191]",191,a,0.6951425895094872,colour,0.5
72,62,0,1,15,14,714,1293.1045532829594,1294.0445060767233,"[59, 0, 195]",195,a,0.41678308066911995,colour,0.5
72,62,0,1,15,15,715,1294.5576043815818,1295.4925080805551,"[34, 0, 220]",220,a,0.4115197341889143,colour,0.5
72,62,0,1,15,16,716,1296.0106554802042,1296.924627491273,"[57, 0, 197]",197,a,0.3905403909739107,colour,0.5
72,62,0,1,15,17,717,1297.4325408248696,1298.62846184941,"[9, 0, 245]",245,a,0.6724413554184139,colour,0.5
72,62,0,1,15,18,718,1299.1357288830914,1300.0124577155802,"[38, 0, 216]",216,a,0.35331808612681925,colour,0.5
72,62,0,1,15,19,719,1300.5262747879606,1301.5244457712397,"[77, 0, 177]",177,l,0.47500639013014734,colour,0.5
72,62,0,1,15,20,720,1302.041915757116,1302.9644858015236,"[15, 0, 239]",239,a,0.39958386309444904,colour,0.5
72,62,0,1,15,21,721,1303.479450144805,1304.4044553337153,"[4, 0, 250]",250,a,0.4016476117540151,colour,0.5
72,62,0,1,15,22,722,1304.916943966411,1305.8524447346572,"[70, 0, 184]",184,l,0.41215540026314557,colour,0.5
72,62,0,1,15,23,723,1306.3700962832663,1306.9164406321943,"[16, 0, 238]",238,a,0.022978107212111354,colour,0.5
72,62,0,1,15,24,724,1307.432515618857,1308.5004574509803,"[61, 0, 193]",193,a,0.5445330552756786,colour,0.5
72,62,0,1,15,25,725,1309.0105696220417,1309.988444189541,"[69, 0, 185]",185,l,0.4544488552492112,colour,0.5
72,62,0,1,15,26,726,1310.4950015142094,1311.5724964542314,"[83, 0, 171]",171,l,0.5542303102556616,colour,0.5
72,62,0,1,15,27,727,1312.0887037727516,1313.1244255274069,"[7, 0, 247]",247,a,0.5122176671866328,colour,0.5
72,62,0,1,15,28,728,1313.6355837513693,1314.3404196577612,"[31, 0, 223]",223,a,0.18140980042517185,colour,0.5
72,62,0,1,15,29,729,1314.854389935732,1316.7484412593767,"[12, 0, 242]",242,a,1.3707181648351252,colour,0.5
72,62,0,1,15,30,730,1317.2605667666066,1318.30840122886,"[53, 0, 201]",201,a,0.524431592784822,colour,0.5
72,62,0,1,15,31,731,1318.8230548282154,1319.780419909628,"[44, 0, 210]",210,a,0.4346518348902464,colour,0.5
72,62,0,1,15,32,732,1320.2918806064408,1321.3725920799188,"[94, 0, 160]",160,l,0.5574318775907159,colour,0.5
72,62,0,1,15,33,733,1321.8855300899595,1322.884501760127,"[45, 0, 209]",209,a,0.47588820941746235,colour,0.5
72,62,0,1,15,34,734,1323.401188388234,1324.4124243964907,"[79, 0, 175]",175,l,0.48787016049027443,colour,0.5
72,62,0,1,15,35,735,1324.9323535514995,1328.428479099879,"[48, 0, 206]",206,a,2.9726143716834486,colour,0.5
72,62,0,1,15,36,736,1328.948063246673,1329.8924968165811,"[66, 0, 188]",188,l,0.42099289153702557,colour,0.5
72,62,0,1,15,37,737,1330.4011553053278,1331.45242134016,"[19, 0, 235]",235,a,0.5278745871037245,colour,0.5
72,62,0,1,15,38,738,1331.9636520314962,1332.9404053217731,"[40, 0, 214]",214,a,0.4537257554475218,colour,0.5
72,62,0,1,15,39,739,1333.448130397359,1334.3404610112775,"[17, 0, 237]",237,a,0.3690470797009766,colour,0.5
72,62,0,1,15,40,740,1334.8541366932914,1335.8843721852172,"[92, 0, 162]",162,l,0.5066943829879165,colour,0.5
72,62,0,1,15,41,741,1336.4010879576672,1337.3243614095263,"[84, 0, 170]",170,l,0.39988673012703657,colour,0.5
72,62,0,1,15,42,742,1337.8386987512931,1338.4283345588483,"[56, 0, 198]",198,a,0.06632509804330766,colour,0.5
72,62,0,1,15,43,743,1338.9480061391369,1340.0204192954116,"[6, 0, 248]",248,a,0.5489921700209379,colour,0.5
72,62,0,1,15,44,744,1340.5418222190347,1341.4123637443408,"[29, 0, 225]",225,a,0.34736354160122573,colour,0.5
72,62,0,1,15,45,745,1341.9322692686692,1342.8844978217967,"[89, 0, 165]",165,l,0.42881229310296476,colour,0.5
72,62,0,1,15,46,746,1343.4010627516545,1343.948395651998,"[1, 0, 253]",253,a,0.023881588131189346,colour,0.5
72,62,0,1,15,47,747,1344.463659711415,1345.0843328793999,"[2, 0, 252]",252,a,0.09732543700374663,colour,0.5
72,62,0,1,15,48,748,1345.6042754251976,1346.1403778311796,"[37, 0, 217]",217,a,0.012771610170602798,colour,0.5
72,62,0,1,15,49,749,1346.6510705300607,1347.2123664224055,"[90, 0, 164]",164,l,0.03834555111825466,colour,0.5
72,62,0,1,15,50,750,1347.7291948345955,1349.7803242052905,"[91, 0, 163]",163,l,1.527752888854593,colour,0.5
72,62,0,1,16,1,751,1354.650229670573,1358.35664725909,"[97, 0, 157]",157,l,3.182289650198072,colour,0.5
72,62,0,1,16,2,752,1358.8697652562987,1359.9323263762053,"[8, 0, 246]",246,a,0.5390975982882082,colour,0.5
72,62,0,1,16,3,753,1360.447870065691,1364.3483788741287,"[63, 0, 191]",191,a,3.3770472563337535,colour,0.5
72,62,0,1,16,4,754,1364.8697644686326,1365.8682989708614,"[1, 0, 253]",253,a,0.47517968202009797,colour,0.5
72,62,0,1,16,5,755,1366.3853412410244,1367.596287457971,"[57, 0, 197]",197,a,0.6875622521620244,colour,0.5
72,62,0,1,16,6,756,1368.1200270650443,1372.4123873750214,"[68, 0, 186]",186,l,3.769242978421971,colour,0.5
72,62,0,1,16,7,757,1372.9324067207053,1374.0842923133168,"[21, 0, 233]",233,a,0.6283299115020782,colour,0.5
72,62,0,1,16,8,758,1374.604392791167,1375.9082510164008,"[28, 0, 226]",226,a,0.7804919835180044,colour,0.5
72,62,0,1,16,9,759,1376.4169177757576,1377.3402688149363,"[80, 0, 174]",174,l,0.4000446619465947,colour,0.5
72,62,0,1,16,10,760,1377.8544029325712,1378.9162630080245,"[90, 0, 164]",164,l,0.5385115568060428,colour,0.5
72,62,0,1,16,11,761,1379.43250813568,1380.3802377956454,"[22, 0, 232]",232,a,0.4242799230851233,colour,0.5
72,62,0,1,16,12,762,1380.901201582048,1382.2362810934428,"[55, 0, 199]",199,a,0.8116242606192827,colour,0.5
72,62,0,1,16,13,763,1382.7449399759062,1383.7402792123612,"[73, 0, 181]",181,l,0.47190564731135964,colour,0.5
72,62,0,1,16,14,764,1384.2605966988485,1384.948286950821,"[26, 0, 228]",228,a,0.1642728103324771,colour,0.5
72,62,0,1,16,15,765,1385.4637668372598,1386.4042820418254,"[38, 0, 216]",216,a,0.4171430552378297,colour,0.5
72,62,0,1,16,16,766,1386.9168226621114,1388.6202241843566,"[67, 0, 187]",187,l,1.1800214960239828,colour,0.5
72,62,0,1,16,17,767,1389.1355630743783,1390.180305064423,"[49, 0, 205]",205,a,0.5214155267458409,colour,0.5
72,62,0,1,16,18,768,1390.698105880525,1391.6522512778174,"[59, 0, 195]",195,a,0.4307799432426691,colour,0.5
72,62,0,1,16,19,769,1392.1668016898911,1393.1322161783464,"[81, 0, 173]",173,l,0.44245981494896114,colour,0.5
72,62,0,1,16,20,770,1393.6511512682773,1394.6283346374985,"[14, 0, 240]",240,a,0.45371905993670225,colour,0.5
72,62,0,1,16,21,771,1395.135559923714,1396.028253269149,"[30, 0, 224]",224,a,0.369291263865307,colour,0.5
72,62,0,1,16,22,772,1396.5418734189589,1397.5002483192366,"[5, 0, 249]",249,a,0.4356250262353569,colour,0.5
72,62,0,1,16,23,773,1398.010488883825,1398.9802002229262,"[79, 0, 175]",175,l,0.4462659345008433,colour,0.5
72,62,0,1,16,24,774,1399.4948553976137,1400.4762454268057,"[69, 0, 185]",185,l,0.45809192257001996,colour,0.5
72,62,0,1,16,25,775,1400.9948729237076,1401.9482700154185,"[9, 0, 245]",245,a,0.43005014839582145,colour,0.5
72,62,0,1,16,26,776,1402.4636159946676,1403.3241636992898,"[40, 0, 214]",214,a,0.3371810691896826,colour,0.5
72,62,0,1,16,27,777,1403.8386692130007,1404.7241941827815,"[16, 0, 238]",238,a,0.36218669125810266,colour,0.5
72,62,0,1,16,28,778,1405.2448744007852,1406.2282198709436,"[78, 0, 176]",176,l,0.4600075853522867,colour,0.5
72,62,0,1,16,29,779,1406.744887988316,1407.3402577873785,"[51, 0, 203]",203,a,0.07225404283963144,colour,0.5
72,62,0,1,16,30,780,1407.8542839912698,1409.028214278398,"[66, 0, 188]",188,l,0.6506510849576443,colour,0.5
72,62,0,1,16,31,781,1409.5418068589643,1410.604201382259,"[39, 0, 215]",215,a,0.539244108600542,colour,0.5
72,62,0,1,16,32,782,1411.119784456212,1412.1002107465174,"[37, 0, 217]",217,a,0.4570899805985391,colour,0.5
72,62,0,1,16,33,783,1412.619842548389,1413.5883365122136,"[91, 0, 163]",163,l,0.4450907006394118,colour,0.5
72,62,0,1,16,34,784,1414.1042425392661,1415.0841591935605,"[56, 0, 198]",198,a,0.45663036312907934,colour,0.5
72,62,0,1,16,35,785,1415.6043506497517,1416.5805021445267,"[88, 0, 166]",166,l,0.45298178191296756,colour,0.5
72,62,0,1,16,36,786,1417.0885678962804,1418.1401517642662,"[17, 0, 237]",237,a,0.5281991155352443,colour,0.5
72,62,0,1,16,37,787,1418.6509886102285,1424.324190874584,"[58, 0, 196]",196,l,5.149780884152278,colour,0.5
72,62,0,1,16,38,788,1424.8386069852859,1426.332151272567,"[62, 0, 192]",192,l,0.9703336143866181,colour,0.5
72,62,0,1,16,39,789,1426.8385557855945,1427.8922120665666,"[47, 0, 207]",207,a,0.5302778300829232,colour,0.5
72,62,0,1,16,40,790,1428.4010261241347,1429.3483083758038,"[6, 0, 248]",248,a,0.4239341269712895,colour,0.5
72,62,0,1,16,41,791,1429.8697380810045,1431.228157249745,"[4, 0, 250]",250,a,0.8349828226491809,colour,0.5
72,62,0,1,16,42,792,1431.7446571951732,1432.6601336945314,"[65, 0, 189]",189,l,0.3920629962813109,colour,0.5
72,62,0,1,16,43,793,1433.1665563243441,1434.204110640334,"[34, 0, 220]",220,a,0.5144818827975541,colour,0.5
72,62,0,1,16,44,794,1434.7134689919185,1435.9080690599512,"[46, 0, 208]",208,a,0.671171598834917,colour,0.5
72,62,0,1,16,45,795,1436.4166062441655,1437.468164512189,"[13, 0, 241]",241,a,0.5282664629630744,colour,0.5
72,62,0,1,16,46,796,1437.9790454688482,1438.980141540058,"[7, 0, 247]",247,a,0.47769556497223675,colour,0.5
72,62,0,1,16,47,797,1439.4946947088465,1440.8280909261666,"[12, 0, 242]",242,a,0.8100504556205124,colour,0.5
72,62,0,1,16,48,798,1441.338431921089,1442.3561785833444,"[82, 0, 172]",172,l,0.49433591589331627,colour,0.5
72,62,0,1,16,49,799,1442.869731779443,1444.2040838589892,"[60, 0, 194]",194,l,0.8110520036425442,colour,0.5
72,62,0,1,16,50,800,1444.713467810303,1446.0361022090074,"[74, 0, 180]",180,l,0.7996131652034819,colour,0.5
