id,age,condition,counterbalance,block,trialinblock,trial,tstart,tend,trialstim,trialintensity,response,RT,trialtype,colourfreq
016,68,1,1,Practice,1,NA,5.12006226927042e-06,0.972458726959303,"[48, 0, 206]",206,a,0.415515651111491,colour,0.5
016,68,1,1,Practice,2,NA,1.4816325871506706,2.1324670291505754,"[4, 0, 250]",250,a,0.13460718956775963,colour,0.5
016,68,1,1,Practice,3,NA,2.64355655759573,12.220480240415782,"[51, 0, 203]",203,l,9.055913168005645,colour,0.5
016,68,1,1,Practice,4,NA,12.72964110376779,13.33241961011663,"[60, 0, 194]",194,a,0.08646697085350752,colour,0.5
016,68,1,1,Practice,5,NA,13.841355587239377,14.436513169086538,"[1, 0, 253]",253,a,0.07895868632476777,colour,0.5
016,68,1,1,Practice,6,NA,14.946157281752676,15.604454715969041,"[44, 0, 210]",210,a,0.1410430307732895,colour,0.5
016,68,1,1,Practice,7,NA,16.1134895485593,19.476017915294506,"[66, 0, 188]",188,l,2.8451491141458973,colour,0.5
016,68,1,1,Practice,8,NA,19.985776637215167,20.924562692875043,"[54, 0, 200]",200,a,0.4188515286659822,colour,0.5
016,68,1,1,Practice,9,NA,21.434039420913905,26.732429141178727,"[23, 0, 231]",231,a,4.778985704178922,colour,0.5
016,68,1,1,Practice,10,NA,27.241439555305988,29.26848143141251,"[90, 0, 164]",164,l,1.5103900574613363,colour,0.5
016,68,1,1,1,1,1,4.796359442989342,6.448158414335921,"[43, 0, 211]",211,a,1.1352775158593431,colour,0.5
016,68,1,1,1,2,2,6.956339388270862,8.471981779090129,"[93, 0, 161]",161,l,0.9968271747929975,colour,0.5
016,68,1,1,1,3,3,8.98116272862535,9.711936140200123,"[12, 0, 242]",242,a,0.2131279188906774,colour,0.5
016,68,1,1,1,4,4,10.221191526623443,10.976030912133865,"[96, 0, 158]",158,l,0.23746643436606973,colour,0.5
016,68,1,1,1,5,5,11.485696292598732,13.391992397140712,"[85, 0, 169]",169,l,1.3873690362088382,colour,0.5
016,68,1,1,1,6,6,13.901089063612744,14.935964541276917,"[97, 0, 157]",157,l,0.518497382174246,colour,0.5
016,68,1,1,1,7,7,15.445217170752585,17.511925663915463,"[8, 0, 246]",246,a,1.5495423113461584,colour,0.5
016,68,1,1,1,8,8,18.021236582659185,19.47992093139328,"[53, 0, 201]",201,a,0.9405796313658357,colour,0.5
016,68,1,1,1,9,9,19.98935079178773,21.447940617450513,"[71, 0, 183]",183,l,0.9394615018973127,colour,0.5
016,68,1,1,1,10,10,21.95775999163743,23.64795424451586,"[76, 0, 178]",178,l,1.170235701254569,colour,0.5
016,68,1,1,1,11,11,24.159026443609037,24.967985027469695,"[36, 0, 218]",218,a,0.28928793384693563,colour,0.5
016,68,1,1,1,12,12,25.477092327782884,26.863971025450155,"[7, 0, 247]",247,a,0.8692194203613326,colour,0.5
016,68,1,1,1,13,13,27.374426461406983,28.751982424990274,"[4, 0, 250]",250,a,0.8576249812031165,colour,0.5
016,68,1,1,1,14,14,29.261316974530928,30.471926246769726,"[20, 0, 234]",234,a,0.6904569482430816,colour,0.5
016,68,1,1,1,15,15,30.980634186882526,32.21597936563194,"[6, 0, 248]",248,a,0.7186405846150592,colour,0.5
016,68,1,1,1,16,16,32.7253529059235,33.847951723844744,"[72, 0, 182]",182,l,0.604270395822823,colour,0.5
016,68,1,1,1,17,17,34.35727997182403,36.111964969779365,"[69, 0, 185]",185,l,1.2354763294570148,colour,0.5
016,68,1,1,1,18,18,36.62122862692922,37.46392171597108,"[54, 0, 200]",200,a,0.3262614303966984,colour,0.5
016,68,1,1,1,19,19,37.97317316394765,39.135995497577824,"[78, 0, 176]",176,l,0.645484828739427,colour,0.5
016,68,1,1,1,20,20,39.64509098243434,40.808007839135826,"[67, 0, 187]",187,a,0.6449078439036384,colour,0.5
016,68,1,1,1,21,21,41.31831085646991,42.67999087856151,"[50, 0, 204]",204,a,0.8420786889037117,colour,0.5
016,68,1,1,1,22,22,43.18910014803987,44.487989659188315,"[32, 0, 222]",222,a,0.7811345292720944,colour,0.5
016,68,1,1,1,23,23,44.99706663331017,46.01605396007653,"[40, 0, 214]",214,a,0.5017691572429612,colour,0.5
016,68,1,1,1,24,24,46.52481113106478,47.69593022938352,"[73, 0, 181]",181,l,0.6525165593484417,colour,0.5
016,68,1,1,1,25,25,48.20498672337271,49.44793510355521,"[10, 0, 244]",244,a,0.7255758228711784,colour,0.5
016,68,1,1,1,26,26,49.95747799775563,51.271925222710706,"[30, 0, 224]",224,a,0.7963192706229165,colour,0.5
016,68,1,1,1,27,27,51.78111641225405,52.75995269115083,"[37, 0, 217]",217,a,0.4624097403138876,colour,0.5
016,68,1,1,1,28,28,53.26986698235851,54.42402233579196,"[75, 0, 179]",179,l,0.6354701067321002,colour,0.5
016,68,1,1,1,29,29,54.933435260667466,56.0479299047729,"[48, 0, 206]",206,a,0.595504954108037,colour,0.5
016,68,1,1,1,30,30,56.557263666647486,57.77598892815877,"[19, 0, 235]",235,a,0.7023912767181173,colour,0.5
016,68,1,1,1,31,31,58.285438086953945,59.48796642222442,"[28, 0, 226]",226,a,0.6827726144110784,colour,0.5
016,68,1,1,1,32,32,59.99706230091397,61.14396103750914,"[33, 0, 221]",221,a,0.6301807517884299,colour,0.5
016,68,1,1,1,33,33,61.653840276412666,62.76796549279243,"[1, 0, 253]",253,a,0.5968526960350573,colour,0.5
016,68,1,1,1,34,34,63.27831380243879,64.35193350934424,"[77, 0, 177]",177,l,0.5539388168836012,colour,0.5
016,68,1,1,1,35,35,64.86134210193995,66.24000792414881,"[79, 0, 175]",175,l,0.8603968709940091,colour,0.5
016,68,1,1,1,36,36,66.7497524676146,67.8879625624977,"[86, 0, 168]",168,l,0.6193779434543103,colour,0.5
016,68,1,1,1,37,37,68.39792214601766,69.33634546934627,"[17, 0, 237]",237,a,0.41996768885292113,colour,0.5
016,68,1,1,1,38,38,69.84672725596465,71.21600614709314,"[60, 0, 194]",194,a,0.8508236506022513,colour,0.5
016,68,1,1,1,39,39,71.72557345975656,73.68006886006333,"[65, 0, 189]",189,a,1.435374165768735,colour,0.5
016,68,1,1,1,40,40,74.1897677173838,75.72835401422344,"[24, 0, 230]",230,a,1.0198333085281774,colour,0.5
016,68,1,1,1,41,41,76.23741247749422,77.32805855071638,"[80, 0, 174]",174,l,0.5723869680659845,colour,0.5
016,68,1,1,1,42,42,77.83743681723718,78.9039416918531,"[2, 0, 252]",252,a,0.5502610807307065,colour,0.5
016,68,1,1,1,43,43,79.41304072132334,80.60796861199196,"[90, 0, 164]",164,l,0.6779956534737721,colour,0.5
016,68,1,1,1,44,44,81.1179656109307,82.29594511666801,"[3, 0, 251]",251,a,0.6591142712859437,colour,0.5
016,68,1,1,1,45,45,82.8050023985561,83.9839653383242,"[47, 0, 207]",207,a,0.6628239089623094,colour,0.5
016,68,1,1,1,46,46,84.49332154949661,85.67195050767623,"[55, 0, 199]",199,a,0.6600212991470471,colour,0.5
016,68,1,1,1,47,47,86.18186991882976,87.18396478693467,"[82, 0, 172]",172,l,0.48498973238747567,colour,0.5
016,68,1,1,1,48,48,87.6932757057948,88.81594659760594,"[0, 0, 254]",254,a,0.604977743816562,colour,0.5
016,68,1,1,1,49,49,89.32456552854273,90.4799611037597,"[88, 0, 166]",166,l,0.6390060582198203,colour,0.5
016,68,1,1,1,50,50,90.98908061324619,92.21603135333862,"[5, 0, 249]",249,a,0.7102028229273856,colour,0.5
016,68,1,1,2,1,51,97.43663132283837,98.82403816841543,"[75, 0, 179]",179,l,0.870347396004945,colour,0.5
016,68,1,1,2,2,52,99.3337370257359,100.5679266594816,"[71, 0, 183]",183,l,0.7157182454830036,colour,0.5
016,68,1,1,2,3,53,101.0776901076315,102.44003494200297,"[20, 0, 234]",234,a,0.8452172494726256,colour,0.5
016,68,1,1,2,4,54,102.95082278409973,104.45601170824375,"[42, 0, 212]",212,a,0.985921966494061,colour,0.5
016,68,1,1,2,5,55,104.96579484862741,106.19199609931093,"[47, 0, 207]",207,a,0.7054022311931476,colour,0.5
016,68,1,1,2,6,56,106.70115971961059,108.03996830328833,"[85, 0, 169]",169,l,0.8215270049404353,colour,0.5
016,68,1,1,2,7,57,108.5490854496602,110.408001458738,"[64, 0, 190]",190,l,1.3419372980715707,colour,0.5
016,68,1,1,2,8,58,110.9187518855324,111.99996455386281,"[86, 0, 168]",168,a,0.561441587517038,colour,0.5
016,68,1,1,2,9,59,112.50929752795491,113.66407437075395,"[96, 0, 158]",158,l,0.6347344019450247,colour,0.5
016,68,1,1,2,10,60,114.17299695708789,115.25600517040584,"[83, 0, 171]",171,l,0.5661452930653468,colour,0.5
016,68,1,1,2,11,61,115.76503055065405,116.77596214658115,"[1, 0, 253]",253,a,0.4921518260380253,colour,0.5
016,68,1,1,2,12,62,117.28760699811392,120.2559724812163,"[61, 0, 193]",193,l,2.446550734108314,colour,0.5
016,68,1,1,2,13,63,120.76595057547092,121.7679729758529,"[73, 0, 181]",181,l,0.48528432939201593,colour,0.5
016,68,1,1,2,14,64,122.27880965487566,123.3041032475885,"[77, 0, 177]",177,l,0.5038128254236653,colour,0.5
016,68,1,1,2,15,65,123.81319479399826,124.8399881530786,"[45, 0, 209]",209,a,0.5079064631136134,colour,0.5
016,68,1,1,2,16,66,125.349808315048,126.37593410478439,"[89, 0, 165]",165,l,0.5076540076406673,colour,0.5
016,68,1,1,2,17,67,126.88545415585395,128.02411166008096,"[98, 0, 156]",156,l,0.6213979808380827,colour,0.5
016,68,1,1,2,18,68,128.5318617662415,129.71198418946005,"[93, 0, 161]",161,l,0.6632685614749789,colour,0.5
016,68,1,1,2,19,69,130.22171100974083,131.31199710757937,"[14, 0, 240]",240,a,0.5735696883639321,colour,0.5
016,68,1,1,2,20,70,131.8228290604893,133.67997433699202,"[57, 0, 197]",197,a,1.3378743804059923,colour,0.5
016,68,1,1,2,21,71,134.18991619732697,135.24795810424257,"[2, 0, 252]",252,a,0.5416453005746007,colour,0.5
016,68,1,1,2,22,72,135.7586403954774,137.07994172652252,"[5, 0, 249]",249,a,0.8026452288031578,colour,0.5
016,68,1,1,2,23,73,137.5897650391562,138.6959822170902,"[15, 0, 239]",239,a,0.5892597344936803,colour,0.5
016,68,1,1,2,24,74,139.2045759417815,140.3599770308938,"[39, 0, 215]",215,a,0.6365271899849176,colour,0.5
016,68,1,1,2,25,75,140.86913316801656,141.89602813951205,"[72, 0, 182]",182,l,0.5103490974288434,colour,0.5
016,68,1,1,2,26,76,142.4050495813135,143.36003768316004,"[34, 0, 220]",220,a,0.43656830745749176,colour,0.5
016,68,1,1,2,27,77,143.8701016359264,144.8079542759806,"[30, 0, 224]",224,a,0.4191989009268582,colour,0.5
016,68,1,1,2,28,78,145.31698320084251,146.3359906137921,"[0, 0, 254]",254,a,0.501407606410794,colour,0.5
016,68,1,1,2,29,79,146.8450026032515,147.81598676985595,"[11, 0, 243]",243,a,0.45393141242675483,colour,0.5
016,68,1,1,2,30,80,148.32471085782163,149.16006147151347,"[23, 0, 231]",231,a,0.3189098966540769,colour,0.5
016,68,1,1,2,31,81,149.6692105194088,150.87197398091666,"[59, 0, 195]",195,a,0.6848304610466585,colour,0.5
016,68,1,1,2,32,82,151.381107275025,152.47196169290692,"[91, 0, 163]",163,l,0.5745838424190879,colour,0.5
016,68,1,1,2,33,83,152.9817318363348,154.14399451448116,"[88, 0, 166]",166,l,0.6461303426185623,colour,0.5
016,68,1,1,2,34,84,154.6534086209722,155.57613008271437,"[74, 0, 180]",180,l,0.40277315012644976,colour,0.5
016,68,1,1,2,35,85,156.08574150607456,157.04796377557795,"[19, 0, 235]",235,a,0.4461072632111609,colour,0.5
016,68,1,1,2,36,86,157.55712582042906,158.63999697519466,"[3, 0, 251]",251,a,0.5649145235074684,colour,0.5
016,68,1,1,2,37,87,159.1500105157029,159.9439852196956,"[13, 0, 241]",241,a,0.2735549584031105,colour,0.5
016,68,1,1,2,38,88,160.45340996002778,161.66396842617542,"[60, 0, 194]",194,a,0.6923800994409248,colour,0.5
016,68,1,1,2,39,89,162.17484606523067,163.4080203634221,"[35, 0, 219]",219,a,0.7132078696740791,colour,0.5
016,68,1,1,2,40,90,163.91708867286798,165.01623749244027,"[46, 0, 208]",208,a,0.5805096528492868,colour,0.5
016,68,1,1,2,41,91,165.526323500555,166.3199705245206,"[32, 0, 222]",222,a,0.27413233707193285,colour,0.5
016,68,1,1,2,42,92,166.82859221240506,167.98394840292167,"[38, 0, 216]",216,a,0.6368568391771987,colour,0.5
016,68,1,1,2,43,93,168.49278158624656,169.47996819298714,"[99, 0, 155]",155,l,0.46974591410253197,colour,0.5
016,68,1,1,2,44,94,169.98906249634456,171.2399756287923,"[69, 0, 185]",185,l,0.7341510369442403,colour,0.5
016,68,1,1,2,45,95,171.75000846770126,172.8080165036954,"[37, 0, 217]",217,a,0.5391034169588238,colour,0.5
016,68,1,1,2,46,96,173.3173581424635,174.92807737656403,"[67, 0, 187]",187,a,1.0918988981284201,colour,0.5
016,68,1,1,2,47,97,175.4366147813853,176.24796991958283,"[97, 0, 157]",157,l,0.29430514108389616,colour,0.5
016,68,1,1,2,48,98,176.7573470044881,178.2559779949952,"[62, 0, 192]",192,a,0.9800682299537584,colour,0.5
016,68,1,1,2,49,99,178.76470168901142,179.48826062539592,"[7, 0, 247]",247,a,0.20547942514531314,colour,0.5
016,68,1,1,2,50,100,179.997870867257,181.08798170345835,"[17, 0, 237]",237,a,0.5725791651057079,colour,0.5
016,68,1,1,3,1,101,186.63630781765096,188.52799655939452,"[66, 0, 188]",188,l,1.3735430643428117,colour,0.5
016,68,1,1,3,2,102,189.03711331193335,189.98396139987744,"[28, 0, 226]",226,a,0.43057475553359836,colour,0.5
016,68,1,1,3,3,103,190.49239916156512,191.9039826518856,"[57, 0, 197]",197,a,0.8955555240390822,colour,0.5
016,68,1,1,3,4,104,192.41315493674483,193.231983701,"[51, 0, 203]",203,a,0.3016614009393379,colour,0.5
016,68,1,1,3,5,105,193.74167468142696,194.48799753608182,"[3, 0, 251]",251,a,0.22770259249955416,colour,0.5
016,68,1,1,3,6,106,194.99725646711886,195.7920562790241,"[89, 0, 165]",165,l,0.27766356233041734,colour,0.5
016,68,1,1,3,7,107,196.3012002069736,197.08795964810997,"[9, 0, 245]",245,a,0.269822871661745,colour,0.5
016,68,1,1,3,8,108,197.5970708867535,198.30412687838543,"[32, 0, 222]",222,a,0.18827385862823576,colour,0.5
016,68,1,1,3,9,109,198.8129730585497,199.5359617054928,"[94, 0, 160]",160,l,0.20530219422653317,colour,0.5
016,68,1,1,3,10,110,200.04571333818603,200.78400566824712,"[56, 0, 198]",198,a,0.2217752067372203,colour,0.5
016,68,1,1,3,11,111,201.29325711622369,202.07195452495944,"[82, 0, 172]",172,l,0.26038434670772403,colour,0.5
016,68,1,1,3,12,112,202.5811504406156,203.25598823500331,"[15, 0, 239]",239,a,0.15786892955657095,colour,0.5
016,68,1,1,3,13,113,203.76468317827675,204.99996967380866,"[48, 0, 206]",206,a,0.7166500857565552,colour,0.5
016,68,1,1,3,14,114,205.5090655524982,206.32800026144832,"[72, 0, 182]",182,l,0.30161532084457576,colour,0.5
016,68,1,1,3,15,115,206.83717097097542,207.99202067533042,"[91, 0, 163]",163,l,0.6386382057098672,colour,0.5
016,68,1,1,3,16,116,208.501345378696,209.4399943758035,"[81, 0, 173]",173,l,0.4204501503845677,colour,0.5
016,68,1,1,3,17,117,209.94897997763474,210.6480314383516,"[38, 0, 216]",216,a,0.18226770358160138,colour,0.5
016,68,1,1,3,18,118,211.15770784637425,213.96801102138124,"[67, 0, 187]",187,a,2.2915241927839816,colour,0.5
016,68,1,1,3,19,119,214.47832979261875,218.8799584255321,"[21, 0, 233]",233,a,3.8811147580854595,colour,0.5
016,68,1,1,3,20,120,219.38901413197163,220.45597941288725,"[55, 0, 199]",199,a,0.5501350498525426,colour,0.5
016,68,1,1,3,21,121,220.96660774725024,221.71998596331105,"[74, 0, 180]",180,l,0.23348622443154454,colour,0.5
016,68,1,1,3,22,122,222.22933744825423,222.78421322524082,"[42, 0, 212]",212,a,0.03619171178434044,colour,0.5
016,68,1,1,3,23,123,223.29401527019218,224.32032853073906,"[43, 0, 211]",211,a,0.5078013060847297,colour,0.5
016,68,1,1,3,24,124,224.82986433571205,225.58415863814298,"[79, 0, 175]",175,l,0.2358591480879113,colour,0.5
016,68,1,1,3,25,125,226.09520405565854,227.18398959934711,"[87, 0, 167]",167,l,0.5688577120890841,colour,0.5
016,68,1,1,3,26,126,227.69382275815587,228.4000095310621,"[8, 0, 246]",246,a,0.1888898340985179,colour,0.5
016,68,1,1,3,27,127,228.90920505288523,229.7920172882732,"[17, 0, 237]",237,a,0.36489065643399954,colour,0.5
016,68,1,1,3,28,128,230.3010749638779,230.9359535134863,"[29, 0, 225]",225,a,0.11786754312925041,colour,0.5
016,68,1,1,3,29,129,231.44493911531754,232.68795799394138,"[70, 0, 184]",184,l,0.7252331767231226,colour,0.5
016,68,1,1,3,30,130,233.19703181728255,233.99998818454333,"[97, 0, 157]",157,l,0.2847177421208471,colour,0.5
016,68,1,1,3,31,131,234.50813686312176,235.27196972735692,"[44, 0, 210]",210,a,0.24759300868026912,colour,0.5
016,68,1,1,3,32,132,235.78173041855916,236.6562072923407,"[23, 0, 231]",231,a,0.3559129317291081,colour,0.5
016,68,1,1,3,33,133,237.16652645741124,237.9839751844993,"[45, 0, 209]",209,a,0.29937827435787767,colour,0.5
016,68,1,1,3,34,134,238.4949445897946,239.43201268813573,"[50, 0, 204]",204,a,0.4173549129627645,colour,0.5
016,68,1,1,3,35,135,239.94106406217907,240.64043099374976,"[7, 0, 247]",247,a,0.18101802945602685,colour,0.5
016,68,1,1,3,36,136,241.150835623499,241.8480068623321,"[96, 0, 158]",158,l,0.17772665654774755,colour,0.5
016,68,1,1,3,37,137,242.3576182858087,243.37600027094595,"[65, 0, 189]",189,l,0.49920718756038696,colour,0.5
016,68,1,1,3,38,138,243.8850339219207,244.5760138980113,"[4, 0, 250]",250,a,0.17354597873054445,colour,0.5
016,68,1,1,3,39,139,245.08537956140935,245.97595962602645,"[69, 0, 185]",185,l,0.3727707319194451,colour,0.5
016,68,1,1,3,40,140,246.485552932485,247.48798650840763,"[83, 0, 171]",171,l,0.48547849559690803,colour,0.5
016,68,1,1,3,41,141,247.99568895914126,248.6959822170902,"[41, 0, 213]",213,a,0.18195774662308395,colour,0.5
016,68,1,1,3,42,142,249.2054727296345,250.02399705082644,"[35, 0, 219]",219,a,0.30017620674334466,colour,0.5
016,68,1,1,3,43,143,250.53308544645552,251.09611423430033,"[20, 0, 234]",234,a,0.04560306132771075,colour,0.5
016,68,1,1,3,44,144,251.60582490696106,254.8559850055026,"[11, 0, 243]",243,a,2.732533904258162,colour,0.5
016,68,1,1,3,45,145,255.36508403497282,256.7039820216596,"[63, 0, 191]",191,l,0.821956297266297,colour,0.5
016,68,1,1,3,46,146,257.21306647884194,258.26404711662326,"[90, 0, 164]",164,l,0.5345958468969911,colour,0.5
016,68,1,1,3,47,147,258.77468332787976,259.46398906363174,"[25, 0, 229]",229,a,0.1704302611760795,colour,0.5
016,68,1,1,3,48,148,259.97336102859117,262.2079905886203,"[46, 0, 208]",208,a,1.717308990424499,colour,0.5
016,68,1,1,3,49,149,262.71749370440375,263.8000422990881,"[36, 0, 218]",218,a,0.5624136000405997,colour,0.5
016,68,1,1,3,50,150,264.3090613777749,266.90401337179355,"[59, 0, 195]",195,l,2.075587756349705,colour,0.5
016,68,1,1,4,1,151,272.06835358880926,273.35195477702655,"[8, 0, 246]",246,a,0.7650545752840117,colour,0.5
016,68,1,1,4,2,152,273.8609931541141,274.9680295321159,"[89, 0, 165]",165,l,0.5893499252852052,colour,0.5
016,68,1,1,4,3,153,275.4773057923885,276.1203810698353,"[11, 0, 243]",243,a,0.12305567960720509,colour,0.5
016,68,1,1,4,4,154,276.63014648715034,277.880006474792,"[63, 0, 191]",191,l,0.7308553316397592,colour,0.5
016,68,1,1,4,5,155,278.38895899348427,281.35210798319895,"[51, 0, 203]",203,a,2.4455310662742704,colour,0.5
016,68,1,1,4,6,156,281.8629533268977,282.6720056461636,"[41, 0, 213]",213,a,0.28883540455717593,colour,0.5
016,68,1,1,4,7,157,283.1817667311989,283.80797042371705,"[36, 0, 218]",218,a,0.10788196581415832,colour,0.5
016,68,1,1,4,8,158,284.3175369487144,284.88001356401946,"[6, 0, 248]",248,a,0.04408793477341533,colour,0.5
016,68,1,1,4,9,159,285.3908553631045,288.5440087717725,"[39, 0, 215]",215,a,2.633628481766209,colour,0.5
016,68,1,1,4,10,160,289.05339018895756,290.2080571486149,"[46, 0, 208]",208,a,0.6384263164363801,colour,0.5
016,68,1,1,4,11,161,290.71689190727193,291.6160007120343,"[85, 0, 169]",169,l,0.3797705608885735,colour,0.5
016,68,1,1,4,12,162,292.126528221881,293.28000734129455,"[52, 0, 202]",202,a,0.6322094537317753,colour,0.5
016,68,1,1,4,13,163,293.78904611233156,294.8719944609329,"[57, 0, 197]",197,a,0.5652587451040745,colour,0.5
016,68,1,1,4,14,164,295.38105016737245,296.15201519301627,"[28, 0, 226]",226,l,0.25402569922152907,colour,0.5
016,68,1,1,4,15,165,296.6616734841373,298.14404335140716,"[56, 0, 198]",198,l,0.962652349495329,colour,0.5
016,68,1,1,4,16,166,298.6533822332276,300.8479769300902,"[17, 0, 237]",237,a,1.678197696688585,colour,0.5
016,68,1,1,4,17,167,301.3575635411544,302.37600696634036,"[73, 0, 181]",181,l,0.49887911358382553,colour,0.5
016,68,1,1,4,18,168,302.8853738112375,303.464034355944,"[1, 0, 253]",253,a,0.06066295341588557,colour,0.5
016,68,1,1,4,19,169,303.97350635787006,305.0639744126238,"[64, 0, 190]",190,l,0.5734980083070695,colour,0.5
016,68,1,1,4,20,170,305.5729485928314,306.1439949083142,"[3, 0, 251]",251,a,0.05451658915262669,colour,0.5
016,68,1,1,4,21,171,306.6539158949163,307.431984331226,"[75, 0, 179]",179,l,0.25923746649641544,colour,0.5
016,68,1,1,4,22,172,307.94238817330915,308.8240358053008,"[91, 0, 163]",163,l,0.361219615675509,colour,0.5
016,68,1,1,4,23,173,309.33259959775023,310.20824107481167,"[98, 0, 156]",156,l,0.3582992459414527,colour,0.5
016,68,1,1,4,24,174,310.7179304797901,311.3840158294188,"[14, 0, 240]",240,a,0.1475686690537259,colour,0.5
016,68,1,1,4,25,175,311.89264145575,312.7201860372443,"[0, 0, 254]",254,a,0.30698186974041164,colour,0.5
016,68,1,1,4,26,176,313.22983290674165,314.31205342756584,"[80, 0, 174]",174,l,0.5626888985279948,colour,0.5
016,68,1,1,4,27,177,314.8214801371796,317.3200162106659,"[30, 0, 224]",224,a,1.979401448275894,colour,0.5
016,68,1,1,4,28,178,317.8288856277941,319.2559980811784,"[15, 0, 239]",239,a,0.9099458776181564,colour,0.5
016,68,1,1,4,29,179,319.76502936915495,320.6959956077626,"[74, 0, 180]",180,l,0.41465234011411667,colour,0.5
016,68,1,1,4,30,180,321.20510566502344,321.98402559687383,"[96, 0, 158]",158,l,0.2609254914568737,colour,0.5
016,68,1,1,4,31,181,322.49267800466623,323.64004463062156,"[21, 0, 233]",233,a,0.6285683453315869,colour,0.5
016,68,1,1,4,32,182,324.1496722017182,325.7280235772487,"[58, 0, 196]",196,a,1.0561534141888842,colour,0.5
016,68,1,1,4,33,183,326.23728723439854,327.3041000968078,"[16, 0, 238]",238,a,0.5505706438561901,colour,0.5
016,68,1,1,4,34,184,327.8131731323665,328.5843035734724,"[76, 0, 178]",178,l,0.25240777886938304,colour,0.5
016,68,1,1,4,35,185,329.09407962462865,329.84798480698373,"[32, 0, 222]",222,a,0.23701193591114134,colour,0.5
016,68,1,1,4,36,186,330.3578790120082,331.2800242766971,"[67, 0, 187]",187,l,0.4022788731381297,colour,0.5
016,68,1,1,4,37,187,331.7899381739553,332.5131607656367,"[25, 0, 229]",229,a,0.20277724601328373,colour,0.5
016,68,1,1,4,38,188,333.0237824047217,334.112023258931,"[12, 0, 242]",242,a,0.5718458233168349,colour,0.5
016,68,1,1,4,39,189,334.62262205488514,335.6640948507702,"[23, 0, 231]",231,a,0.5231199553236365,colour,0.5
016,68,1,1,4,40,190,336.1731403172016,336.8559976085089,"[87, 0, 167]",167,l,0.1642323030391708,colour,0.5
016,68,1,1,4,41,191,337.36543495196383,338.2720087181078,"[38, 0, 216]",216,a,0.38933511660434306,colour,0.5
016,68,1,1,4,42,192,338.78122196299955,339.80019511142746,"[20, 0, 234]",234,a,0.5024540559388697,colour,0.5
016,68,1,1,4,43,193,340.3089865469374,341.20800555474125,"[61, 0, 193]",193,l,0.3803676317911595,colour,0.5
016,68,1,1,4,44,194,341.71713845501654,342.52801585779525,"[88, 0, 166]",166,a,0.29122290038503706,colour,0.5
016,68,1,1,4,45,195,343.0382093859371,345.10413491283543,"[94, 0, 160]",160,l,1.5461788645479828,colour,0.5
016,68,1,1,4,46,196,345.61314729612786,348.64003557222895,"[86, 0, 168]",168,l,2.508370414027013,colour,0.5
016,68,1,1,4,47,197,349.1492137647001,350.9520771843381,"[13, 0, 241]",241,a,1.2842742713401094,colour,0.5
016,68,1,1,4,48,198,351.46118684776593,352.3520197615726,"[78, 0, 176]",176,l,0.3738498705206439,colour,0.5
016,68,1,1,4,49,199,352.8621211297577,355.74402476183604,"[55, 0, 199]",199,l,2.3631214991910383,colour,0.5
016,68,1,1,4,50,200,356.2523156189127,358.46402135910466,"[7, 0, 247]",247,a,1.6944773306604475,colour,0.5
016,68,1,1,5,1,201,364.3563146548113,365.3120806029765,"[1, 0, 253]",253,a,0.4378668185090646,colour,0.4
016,68,1,1,5,2,202,365.82269278971944,367.91200845036656,"[81, 0, 173]",173,l,1.5706178108230233,colour,0.4
016,68,1,1,5,3,203,368.4210850306554,369.4880251053255,"[91, 0, 163]",163,l,0.5499534867703915,colour,0.4
016,68,1,1,5,4,204,369.99708002398256,371.24808689195197,"[13, 0, 241]",241,a,0.7347323539434001,colour,0.4
016,68,1,1,5,5,205,371.75782592152245,373.0240088662831,"[43, 0, 211]",211,a,0.7491061659529805,colour,0.4
016,68,1,1,5,6,206,373.53378491743933,375.1199884051457,"[9, 0, 245]",245,a,1.0669759147567675,colour,0.4
016,68,1,1,5,7,207,375.6291236685356,376.84804703469854,"[95, 0, 159]",159,l,0.7012554242974147,colour,0.4
016,68,1,1,5,8,208,377.3571011656895,378.77601964818314,"[58, 0, 196]",196,l,0.9017022821353748,colour,0.4
016,68,1,1,5,9,209,379.28542508999817,380.69605271553155,"[93, 0, 161]",161,l,0.8925469326786697,colour,0.4
016,68,1,1,5,10,210,381.20522657583933,382.4000540357083,"[64, 0, 190]",190,l,0.6771831488003954,colour,0.4
016,68,1,1,5,11,211,382.9083086588653,384.3360307861585,"[50, 0, 204]",204,a,0.9114956625271589,colour,0.4
016,68,1,1,5,12,212,384.84552720643114,387.20004237780813,"[49, 0, 205]",205,a,1.8380677588284016,colour,0.4
016,68,1,1,5,13,213,387.70908233034424,390.6320030782372,"[14, 0, 240]",240,a,2.405433581327088,colour,0.4
016,68,1,1,5,14,214,391.1411950554466,394.40003473719116,"[12, 0, 242]",242,a,2.7415234444197267,colour,0.4
016,68,1,1,5,15,215,394.90952603751794,396.3199945491506,"[73, 0, 181]",181,l,0.8918616402661428,colour,0.4
016,68,1,1,5,16,216,396.8294043233618,398.0081270169467,"[66, 0, 188]",188,l,0.6598212253302336,colour,0.4
016,68,1,1,5,17,217,398.51718784333207,399.3039910013322,"[70, 0, 184]",184,l,0.26782725274097174,colour,0.4
016,68,1,1,5,18,218,399.813646929455,400.87999781023245,"[90, 0, 164]",164,l,0.5459976952988654,colour,0.4
016,68,1,1,5,19,219,401.3890582427848,402.2400319487788,"[22, 0, 232]",232,a,0.33385911805089563,colour,0.4
016,68,1,1,5,20,220,402.74975404306315,403.9520039289491,"[98, 0, 156]",156,l,0.6797805646201596,colour,0.4
016,68,1,1,5,21,221,404.46103049081285,405.44800875277724,"[44, 0, 210]",210,a,0.46971834474243224,colour,0.4
016,68,1,1,5,22,222,405.95737165922765,407.0640579080209,"[86, 0, 168]",168,l,0.5873633649898693,colour,0.4
016,68,1,1,5,23,223,407.57472129468806,408.51203200232703,"[88, 0, 166]",166,l,0.41769086371641606,colour,0.4
016,68,1,1,5,24,224,409.02265600441024,410.09604097891133,"[40, 0, 214]",214,a,0.5543720476562157,colour,0.4
016,68,1,1,5,25,225,410.605799700832,411.56802157650236,"[25, 0, 229]",229,a,0.4459650848293677,colour,0.4
016,68,1,1,5,26,226,412.07707885827404,413.09599568659905,"[82, 0, 172]",172,l,0.5015127634396777,colour,0.4
016,68,1,1,5,27,227,413.6057244761614,414.5600426456658,"[87, 0, 167]",167,l,0.4343481962569058,colour,0.4
016,68,1,1,5,28,228,415.068970352062,416.7280239710817,"[56, 0, 198]",198,a,1.1413242371054366,colour,0.4
016,68,1,1,5,29,229,417.2370836158516,418.2720319550717,"[27, 0, 227]",227,a,0.5187959175091237,colour,0.4
016,68,1,1,5,30,230,418.78266068338417,419.8480037115514,"[85, 0, 169]",169,l,0.5440012885956094,colour,0.4
016,68,1,1,5,31,231,420.35707241494674,421.18404119310435,"[17, 0, 237]",237,a,0.30993453483097255,colour,0.4
016,68,1,1,5,32,232,421.69300513342023,422.8960840656655,"[65, 0, 189]",189,l,0.6868323814123869,colour,0.4
016,68,1,1,5,33,233,423.40516419056803,424.33605914306827,"[52, 0, 202]",202,a,0.41457711544353515,colour,0.4
016,68,1,1,5,34,234,424.8452188249212,426.1360340944957,"[6, 0, 248]",248,a,0.7715766689507291,colour,0.4
016,68,1,1,5,35,235,426.6455635979073,427.8640135609312,"[54, 0, 200]",200,a,0.6985437929397449,colour,0.4
016,68,1,1,5,36,236,428.37179596244823,429.47204085602425,"[62, 0, 192]",192,a,0.5838022072566673,colour,0.4
016,68,1,1,5,37,237,429.98105717776343,431.2080362747656,"[75, 0, 179]",179,l,0.7107053706422448,colour,0.4
016,68,1,1,5,38,238,431.71776585211046,432.94408446899615,"[39, 0, 215]",215,a,0.7076940224505961,colour,0.4
016,68,1,1,5,39,239,433.4539294432616,434.5040605546674,"[38, 0, 216]",216,a,0.5303801167756319,colour,0.4
016,68,1,1,5,40,240,435.0130615164526,435.88009666558355,"[78, 0, 176]",176,l,0.3500497427303344,colour,0.4
016,68,1,1,5,41,241,436.3904756953707,437.5280595747754,"[71, 0, 183]",183,l,0.6177233955822885,colour,0.4
016,68,1,1,5,42,242,438.0373925488675,438.8800694901729,"[2, 0, 252]",252,a,0.32455331925302744,colour,0.4
016,68,1,1,5,43,243,439.3900018982822,440.3520173985744,"[94, 0, 160]",160,l,0.4426721364725381,colour,0.4
016,68,1,1,5,44,244,440.861105006421,442.36000223702285,"[89, 0, 165]",165,l,0.9811650916235521,colour,0.4
016,68,1,1,5,45,245,442.8693868049886,443.89604901336133,"[29, 0, 225]",225,a,0.5065480874618515,colour,0.4
016,68,1,1,5,46,246,444.4050161043415,445.62399894127157,"[34, 0, 220]",220,a,0.7026649998733774,colour,0.4
016,68,1,1,5,47,247,446.13309600157663,446.912064770353,"[80, 0, 174]",174,l,0.26059781131334603,colour,0.4
016,68,1,1,5,48,248,447.42181325226557,448.33605756773613,"[15, 0, 239]",239,a,0.3934811359504238,colour,0.4
016,68,1,1,5,49,249,448.84606244356837,450.4480182051193,"[57, 0, 197]",197,a,1.0819913023151457,colour,0.4
016,68,1,1,5,50,250,450.9572976161726,451.9280056966236,"[74, 0, 180]",180,l,0.4536458740476519,colour,0.4
016,68,1,1,6,1,251,456.5883204112761,457.8320777515182,"[99, 0, 155]",155,l,0.725096118170768,colour,0.28
016,68,1,1,6,2,252,458.3413744918071,459.5279977408936,"[81, 0, 173]",173,l,0.6693995656678453,colour,0.28
016,68,1,1,6,3,253,460.0369187518954,462.49610407301225,"[55, 0, 199]",199,a,1.9421176008181646,colour,0.28
016,68,1,1,6,4,254,463.0059269919293,464.00804470316507,"[97, 0, 157]",157,l,0.4836128461174667,colour,0.28
016,68,1,1,6,5,255,464.51607207697816,465.8720622024266,"[58, 0, 196]",196,a,0.8392315744422376,colour,0.28
016,68,1,1,6,6,256,466.3811131827533,467.40808298496995,"[56, 0, 198]",198,a,0.5099450112320483,colour,0.28
016,68,1,1,6,7,257,467.91757113451604,469.07203802035656,"[69, 0, 185]",185,l,0.6354641990037635,colour,0.28
016,68,1,1,6,8,258,469.5811307482654,470.592054073466,"[51, 0, 203]",203,a,0.4924802938476205,colour,0.28
016,68,1,1,6,9,259,471.1015965738334,472.944040752016,"[60, 0, 194]",194,a,1.3240125684533268,colour,0.28
016,68,1,1,6,10,260,473.452271350543,474.712063352461,"[9, 0, 245]",245,a,0.7418838137527928,colour,0.28
016,68,1,1,6,11,261,475.2225286345929,477.7280704448931,"[4, 0, 250]",250,a,1.9858873080229387,colour,0.28
016,68,1,1,6,12,262,478.2368173758732,478.81602339760866,"[8, 0, 246]",246,a,0.060953218140639365,colour,0.28
016,68,1,1,6,13,263,479.3261495780898,480.3520445738686,"[82, 0, 172]",172,l,0.5091632263502106,colour,0.28
016,68,1,1,6,14,264,480.8610471111024,481.8800718532875,"[96, 0, 158]",158,l,0.5022362589370459,colour,0.28
016,68,1,1,6,15,265,482.38965019362513,483.4640753159765,"[91, 0, 163]",163,l,0.5543921337230131,colour,0.28
016,68,1,1,6,16,266,483.97324208705686,486.0080919646425,"[92, 0, 162]",162,l,1.5178219358203933,colour,0.28
016,68,1,1,6,17,267,486.5173469572328,487.7200552802533,"[79, 0, 175]",175,l,0.683101869886741,colour,0.28
016,68,1,1,6,18,268,488.2294071590295,489.3360548107885,"[70, 0, 184]",184,l,0.5891589098609984,colour,0.28
016,68,1,1,6,19,269,489.8452802648535,490.96003366599325,"[88, 0, 166]",166,l,0.5972193668130785,colour,0.28
016,68,1,1,6,20,270,491.46958089247346,492.57606903649867,"[7, 0, 247]",247,a,0.5882692112354562,colour,0.28
016,68,1,1,6,21,271,493.0866154509131,494.27209103200585,"[26, 0, 228]",228,a,0.6653468878939748,colour,0.28
016,68,1,1,6,22,272,494.7817552308552,495.8960112041095,"[53, 0, 201]",201,a,0.5954285480547696,colour,0.28
016,68,1,1,6,23,273,496.40671318781096,497.5120201869868,"[0, 0, 254]",254,a,0.5863452723715454,colour,0.28
016,68,1,1,6,24,274,498.0211144903442,499.08001222496387,"[14, 0, 240]",240,a,0.5418792451964691,colour,0.28
016,68,1,1,6,25,275,499.59000883006956,500.6560300614219,"[73, 0, 181]",181,l,0.5462588152149692,colour,0.28
016,68,1,1,6,26,276,501.1652393678669,502.9520283474121,"[59, 0, 195]",195,a,1.2692770006833598,colour,0.28
016,68,1,1,6,27,277,503.46183433092665,504.4880270746071,"[22, 0, 232]",232,a,0.5089044695487246,colour,0.28
016,68,1,1,6,28,278,504.99791812885087,507.08010950498283,"[47, 0, 207]",207,a,1.5651039635995403,colour,0.28
016,68,1,1,6,29,279,507.58937040530145,508.41607136803214,"[84, 0, 170]",170,l,0.307977119111456,colour,0.28
016,68,1,1,6,30,280,508.9253492037533,510.01604293240234,"[37, 0, 217]",217,a,0.5719155342085287,colour,0.28
016,68,1,1,6,31,281,510.5253345526289,511.4880861515412,"[39, 0, 215]",215,a,0.44502379233017564,colour,0.28
016,68,1,1,6,32,282,511.9972899440909,513.0081553738564,"[86, 0, 168]",168,l,0.491952933720313,colour,0.28
016,68,1,1,6,33,283,513.517341837287,514.4240254865726,"[83, 0, 171]",171,l,0.38868251349776983,colour,0.28
016,68,1,1,6,34,284,514.9331355437171,515.8880385748344,"[85, 0, 169]",169,l,0.4380708308890462,colour,0.28
016,68,1,1,6,35,285,516.3972986874869,517.4001985772047,"[57, 0, 197]",197,a,0.4850110000697896,colour,0.28
016,68,1,1,6,36,286,517.9090427882038,518.712057444849,"[93, 0, 161]",161,l,0.2838619144167751,colour,0.28
016,68,1,1,6,37,287,519.221028474276,520.3040540168295,"[52, 0, 202]",202,a,0.566370966960676,colour,0.28
016,68,1,1,6,38,288,520.8134665478719,522.2960546059767,"[65, 0, 189]",189,l,0.9656467625172809,colour,0.28
016,68,1,1,6,39,289,522.8062390757259,523.7920645497506,"[78, 0, 176]",176,l,0.4680563136935234,colour,0.28
016,68,1,1,6,40,290,524.3018725025468,525.6240422644187,"[74, 0, 180]",180,l,0.8048870016355067,colour,0.28
016,68,1,1,6,41,291,526.1338659710018,527.328061307664,"[68, 0, 186]",186,l,0.6757629392668605,colour,0.28
016,68,1,1,6,42,292,527.8380433403654,528.8160761729814,"[5, 0, 249]",249,a,0.45935467502567917,colour,0.28
016,68,1,1,6,43,293,529.3250909193885,530.8560495962156,"[50, 0, 204]",204,a,1.0105503528611735,colour,0.28
016,68,1,1,6,44,294,531.365128145786,532.5600422518328,"[66, 0, 188]",188,l,0.6786088721128181,colour,0.28
016,68,1,1,6,45,295,533.0692350167083,535.1680187407183,"[61, 0, 193]",193,l,1.581860151491128,colour,0.28
016,68,1,1,6,46,296,535.6773639241001,536.6880796924233,"[75, 0, 179]",179,l,0.494473549653776,colour,0.28
016,68,1,1,6,47,297,537.1976198296761,538.3441633170005,"[32, 0, 222]",222,a,0.6258598647546023,colour,0.28
016,68,1,1,6,48,298,538.8540287712822,540.1280272005824,"[18, 0, 236]",236,a,0.7543187208939344,colour,0.28
016,68,1,1,6,49,299,540.6372621069895,541.7520990035264,"[90, 0, 164]",164,l,0.5954383942298591,colour,0.28
016,68,1,1,6,50,300,542.2626828332432,543.3680894755526,"[71, 0, 183]",183,l,0.5846694567007944,colour,0.28
016,68,1,1,7,1,301,548.6118015234824,550.2800841412973,"[24, 0, 230]",230,a,1.1491672908887267,colour,0.14
016,68,1,1,7,2,302,550.7891812016023,551.9603806445375,"[80, 0, 174]",174,l,0.6544720059027895,colour,0.14
016,68,1,1,7,3,303,552.4694450155366,553.7120795001974,"[67, 0, 187]",187,l,0.7242009056499228,colour,0.14
016,68,1,1,7,4,304,554.2216546897544,555.3680292171193,"[10, 0, 244]",244,a,0.629511607112363,colour,0.14
016,68,1,1,7,5,305,555.876995126484,557.2000620701583,"[60, 0, 194]",194,l,0.8045006383908913,colour,0.14
016,68,1,1,7,6,306,557.708680213429,558.7440444541862,"[15, 0, 239]",239,a,0.5187699237139896,colour,0.14
016,68,1,1,7,7,307,559.2537712745834,560.2480794088915,"[84, 0, 170]",170,l,0.4762636753730476,colour,0.14
016,68,1,1,7,8,308,560.7572048259899,562.008156949305,"[88, 0, 166]",166,l,0.73402067378629,colour,0.14
016,68,1,1,7,9,309,562.5171074987156,563.4641111559467,"[90, 0, 164]",164,l,0.4288292289711535,colour,0.14
016,68,1,1,7,10,310,563.9748796996428,565.160054382286,"[93, 0, 161]",161,a,0.6674472698941827,colour,0.14
016,68,1,1,7,11,311,565.6695122056408,572.9681063321186,"[45, 0, 209]",209,a,6.78037755668629,colour,0.14
016,68,1,1,7,12,312,573.4780450417893,574.6560761415167,"[62, 0, 192]",192,l,0.6582556866342202,colour,0.14
016,68,1,1,7,13,313,575.1650853740284,576.1520648176083,"[89, 0, 165]",165,l,0.4697388247586787,colour,0.14
016,68,1,1,7,14,314,576.6622953673359,577.864041917841,"[71, 0, 183]",183,l,0.6825071620987728,colour,0.14
016,68,1,1,7,15,315,578.372983408859,579.3361469707452,"[39, 0, 215]",215,a,0.44549049995839596,colour,0.14
016,68,1,1,7,16,316,579.8453172864392,580.9921226814622,"[65, 0, 189]",189,l,0.6271950034424663,colour,0.14
016,68,1,1,7,17,317,581.5011488494929,583.2160431686789,"[58, 0, 196]",196,l,1.1950736137805507,colour,0.14
016,68,1,1,7,18,318,583.7256317490246,584.6240402951371,"[73, 0, 181]",181,l,0.3790659699589014,colour,0.14
016,68,1,1,7,19,319,585.1330105368979,586.2880481058965,"[94, 0, 160]",160,l,0.6378579963929951,colour,0.14
016,68,1,1,7,20,320,586.7970892400481,587.6560710214544,"[91, 0, 163]",163,l,0.3419940118910745,colour,0.14
016,68,1,1,7,21,321,588.1666442174464,588.8880618117983,"[99, 0, 155]",155,l,0.20200412592384964,colour,0.14
016,68,1,1,7,22,322,589.3970446566818,590.4320757035166,"[69, 0, 185]",185,l,0.5180365820415318,colour,0.14
016,68,1,1,7,23,323,590.9411924560554,591.8720515685854,"[57, 0, 197]",197,l,0.41459562617819756,colour,0.14
016,68,1,1,7,24,324,592.3828465000261,593.200041196309,"[74, 0, 180]",180,l,0.2953315043123439,colour,0.14
016,68,1,1,7,25,325,593.708777887281,594.4240695973858,"[70, 0, 184]",184,l,0.19862492533866316,colour,0.14
016,68,1,1,7,26,326,594.9338921223534,595.8800596441142,"[92, 0, 162]",162,l,0.4268340041162446,colour,0.14
016,68,1,1,7,27,327,596.3898660213454,597.0960736681009,"[82, 0, 172]",172,l,0.18596119352150708,colour,0.14
016,68,1,1,7,28,328,597.605416094535,598.6800609831698,"[78, 0, 176]",176,l,0.5565870389109477,colour,0.14
016,68,1,1,7,29,329,599.1890650956193,600.0400561309652,"[97, 0, 157]",157,l,0.33348023798316717,colour,0.14
016,68,1,1,7,30,330,600.5498313944554,602.4400373051176,"[56, 0, 198]",198,a,1.3733240858418867,colour,0.14
016,68,1,1,7,31,331,602.9493970607873,603.9521059351973,"[75, 0, 179]",179,l,0.48567660024855286,colour,0.14
016,68,1,1,7,32,332,604.4611198938219,605.464108005166,"[96, 0, 158]",158,l,0.48533868009690195,colour,0.14
016,68,1,1,7,33,333,605.9735110839829,607.5440595778637,"[51, 0, 203]",203,a,1.0531503366073593,colour,0.14
016,68,1,1,7,34,334,608.053528429009,608.8400708608096,"[86, 0, 168]",168,l,0.26928172691259533,colour,0.14
016,68,1,1,7,35,335,609.3485657301499,610.1040892266901,"[98, 0, 156]",156,l,0.23828130238689482,colour,0.14
016,68,1,1,7,36,336,610.6131520222407,612.0640382156707,"[50, 0, 204]",204,a,0.9326688359724358,colour,0.14
016,68,1,1,7,37,337,612.5746358300094,613.3761263017077,"[83, 0, 171]",171,l,0.28102740296162665,colour,0.14
016,68,1,1,7,38,338,613.8851678296924,615.3520882908488,"[55, 0, 199]",199,a,0.9482151282718405,colour,0.14
016,68,1,1,7,39,339,615.8609502249165,617.3280384645332,"[52, 0, 202]",202,a,0.9501603347016498,colour,0.14
016,68,1,1,7,40,340,617.8369523863075,618.8400448668981,"[79, 0, 175]",175,l,0.48607674799859524,colour,0.14
016,68,1,1,7,41,341,619.3499233181356,620.3040748906787,"[68, 0, 186]",186,l,0.4374698215397075,colour,0.14
016,68,1,1,7,42,342,620.8131416246761,621.5762360272929,"[77, 0, 177]",177,l,0.24459229432977736,colour,0.14
016,68,1,1,7,43,343,622.0856568291783,622.6400584152434,"[87, 0, 167]",167,l,0.03728069656062871,colour,0.14
016,68,1,1,7,44,344,623.1501026756596,624.6161117766751,"[53, 0, 201]",201,a,0.949314353056252,colour,0.14
016,68,1,1,7,45,345,625.125866560149,626.0480752340518,"[37, 0, 217]",217,a,0.4025667746318504,colour,0.14
016,68,1,1,7,46,346,626.5571368481033,627.6560891384725,"[63, 0, 191]",191,l,0.5806868836516514,colour,0.14
016,68,1,1,7,47,347,628.1651814725483,628.984035836882,"[72, 0, 182]",182,l,0.30217103799805045,colour,0.14
016,68,1,1,7,48,348,629.4927425954957,631.4001024788013,"[59, 0, 195]",195,l,1.3862686299253255,colour,0.14
016,68,1,1,7,49,349,631.9095406098058,633.96007777669,"[61, 0, 193]",193,l,1.5319956738967448,colour,0.14
016,68,1,1,7,50,350,634.4700479940511,635.3200433860766,"[0, 0, 254]",254,a,0.329836766468361,colour,0.14
016,68,1,1,8,1,351,640.2443855250021,641.552076711785,"[86, 0, 168]",168,l,0.7904730172595009,colour,0.06
016,68,1,1,8,2,352,642.0624061168637,642.9360488243401,"[41, 0, 213]",213,a,0.3539208574220538,colour,0.06
016,68,1,1,8,3,353,643.4455925062066,644.2320396272698,"[97, 0, 157]",157,l,0.26759527740068734,colour,0.06
016,68,1,1,8,4,354,644.7424143246608,645.6240694398293,"[52, 0, 202]",202,a,0.3629233945393935,colour,0.06
016,68,1,1,8,5,355,646.1331531092292,646.9840689199045,"[23, 0, 231]",231,a,0.3338027980644256,colour,0.06
016,68,1,1,8,6,356,647.493123838678,648.2721319920383,"[57, 0, 197]",197,a,0.2627107963198796,colour,0.06
016,68,1,1,8,7,357,648.7825452863472,649.7600846296409,"[64, 0, 190]",190,l,0.45695812068879604,colour,0.06
016,68,1,1,8,8,358,650.2695436346112,651.0880431435071,"[70, 0, 184]",184,l,0.2990277511999011,colour,0.06
016,68,1,1,8,9,359,651.5978566100821,652.4090514528798,"[74, 0, 180]",180,l,0.29234654374886304,colour,0.06
016,68,1,1,8,10,360,652.9189503840171,654.3521060139174,"[51, 0, 203]",203,a,0.9154345187125728,colour,0.06
016,68,1,1,8,11,361,654.8611400588416,655.7601015650434,"[69, 0, 185]",185,l,0.38164369366131723,colour,0.06
016,68,1,1,8,12,362,656.2699162131175,657.2640687781386,"[84, 0, 170]",170,l,0.47655393998138607,colour,0.06
016,68,1,1,8,13,363,657.7747581587173,658.5440643040929,"[79, 0, 175]",175,l,0.2504259448032826,colour,0.06
016,68,1,1,8,14,364,659.0523338933708,661.4080806218553,"[83, 0, 171]",171,l,1.837950786575675,colour,0.06
016,68,1,1,8,15,365,661.9172253375873,662.7840671081794,"[82, 0, 172]",172,l,0.349432191811502,colour,0.06
016,68,1,1,8,16,366,663.2925891529303,664.7281496080104,"[62, 0, 192]",192,l,0.9173403406748548,colour,0.06
016,68,1,1,8,17,367,665.2372561205411,665.8960805210518,"[89, 0, 165]",165,l,0.14068305538967252,colour,0.06
016,68,1,1,8,18,368,666.4056655567838,667.1282174283406,"[75, 0, 179]",179,l,0.20516356045845896,colour,0.06
016,68,1,1,8,19,369,667.6373200024245,668.2240476994775,"[73, 0, 181]",181,l,0.06989864760544151,colour,0.06
016,68,1,1,8,20,370,668.7331002551364,670.6960984016769,"[72, 0, 182]",182,l,1.446767743327655,colour,0.06
016,68,1,1,8,21,371,671.2056243604748,672.0081364692887,"[68, 0, 186]",186,l,0.2843557975720614,colour,0.06
016,68,1,1,8,22,372,672.5171358556254,673.5600875441451,"[98, 0, 156]",156,l,0.5245031432714313,colour,0.06
016,68,1,1,8,23,373,674.0692838536343,675.0161122493446,"[34, 0, 220]",220,a,0.4283940290333703,colour,0.06
016,68,1,1,8,24,374,675.5266917467816,676.2641124951188,"[76, 0, 178]",178,l,0.21598645485937595,colour,0.06
016,68,1,1,8,25,375,676.773120152182,678.0641039879993,"[50, 0, 204]",204,a,0.772674712119624,colour,0.06
016,68,1,1,8,26,376,678.5737445560517,680.6721005630679,"[93, 0, 161]",161,l,1.578730255481787,colour,0.06
016,68,1,1,8,27,377,681.1812444910174,682.7200682772091,"[55, 0, 199]",199,a,1.022015216643922,colour,0.06
016,68,1,1,8,28,378,683.22874628508,684.1123761452036,"[65, 0, 189]",189,l,0.3669587430777028,colour,0.06
016,68,1,1,8,29,379,684.6218449962325,685.6960948570631,"[91, 0, 163]",163,l,0.5557847740128636,colour,0.06
016,68,1,1,8,30,380,686.2054774558637,687.7280743833398,"[53, 0, 201]",201,a,1.0042712623253465,colour,0.06
016,68,1,1,8,31,381,688.2371868035989,688.8240696761059,"[80, 0, 174]",174,l,0.06990337371826172,colour,0.06
016,68,1,1,8,32,382,689.3326240162132,690.272077247384,"[63, 0, 191]",191,a,0.42238354159053415,colour,0.06
016,68,1,1,8,33,383,690.7809513907414,693.3680945954984,"[66, 0, 188]",188,l,2.0692373797064647,colour,0.06
016,68,1,1,8,34,384,693.8773732188856,695.6240694398293,"[77, 0, 177]",177,l,1.229656463721767,colour,0.06
016,68,1,1,8,35,385,696.1327194846235,697.5120552392909,"[61, 0, 193]",193,a,0.8629281206522137,colour,0.06
016,68,1,1,8,36,386,698.0216579980915,699.2723966566846,"[56, 0, 198]",198,a,0.7312728086253628,colour,0.06
016,68,1,1,8,37,387,699.7812967938371,700.3929624404991,"[60, 0, 194]",194,a,0.09377360623329878,colour,0.06
016,68,1,1,8,38,388,700.9031929901103,701.7040718186181,"[99, 0, 155]",155,l,0.28415926825255156,colour,0.06
016,68,1,1,8,39,389,702.2131594265811,703.6881076555001,"[94, 0, 160]",160,l,0.9581250871997327,colour,0.06
016,68,1,1,8,40,390,704.1975221558241,704.7602457128232,"[95, 0, 159]",159,l,0.04522378742694855,colour,0.06
016,68,1,1,8,41,391,705.2695042500272,706.5841582441935,"[54, 0, 200]",200,a,0.7976295970147476,colour,0.06
016,68,1,1,8,42,392,707.0922521781176,708.9601683613146,"[85, 0, 169]",169,l,1.351396303041838,colour,0.06
016,68,1,1,8,43,393,709.4694296554662,710.0800949326949,"[92, 0, 162]",162,l,0.09336085536051542,colour,0.06
016,68,1,1,8,44,394,710.5892479191534,712.0320716863498,"[81, 0, 173]",173,l,0.9259013761766255,colour,0.06
016,68,1,1,8,45,395,712.540328672505,713.0961075389059,"[90, 0, 164]",164,l,0.03924402000848204,colour,0.06
016,68,1,1,8,46,396,713.6051947530359,715.1201581528876,"[71, 0, 183]",183,l,0.9986558028031141,colour,0.06
016,68,1,1,8,47,397,715.6293284685817,716.9681559568271,"[58, 0, 196]",196,a,0.821456506382674,colour,0.06
016,68,1,1,8,48,398,717.4767339277314,718.7680978251155,"[67, 0, 187]",187,l,0.774760915664956,colour,0.06
016,68,1,1,8,49,399,719.2768388483673,719.9361398027977,"[78, 0, 176]",176,l,0.142518772627227,colour,0.06
016,68,1,1,8,50,400,720.4445263644448,721.9600943182595,"[87, 0, 167]",167,l,0.9990004182327539,colour,0.06
016,68,1,1,9,1,401,727.4365470397752,728.6321027213708,"[81, 0, 173]",173,l,0.6776738811749965,colour,0.06
016,68,1,1,9,2,402,729.1415707847336,730.5680857733823,"[90, 0, 164]",164,l,0.909418911440298,colour,0.06
016,68,1,1,9,3,403,731.0772281259997,731.7283744942397,"[67, 0, 187]",187,l,0.13086880126502365,colour,0.06
016,68,1,1,9,4,404,732.2381166745909,733.2081611240283,"[68, 0, 186]",186,l,0.45112131955102086,colour,0.06
016,68,1,1,9,5,405,733.7175862581935,734.7840726220747,"[51, 0, 203]",203,a,0.5443947410676628,colour,0.06
016,68,1,1,9,6,406,735.2929321930278,737.0161090985639,"[86, 0, 168]",168,l,1.2053659973898903,colour,0.06
016,68,1,1,9,7,407,737.525972977397,738.4241117389174,"[43, 0, 211]",211,a,0.3774949174840003,colour,0.06
016,68,1,1,9,8,408,738.9337341900682,739.464164719102,"[80, 0, 174]",174,l,0.012545183999463916,colour,0.06
016,68,1,1,9,9,409,739.9738163148286,741.1360762360273,"[98, 0, 156]",156,l,0.6438629699405283,colour,0.06
016,68,1,1,9,10,410,741.6451563609298,742.6401064645033,"[73, 0, 181]",181,l,0.47739480168092996,colour,0.06
016,68,1,1,9,11,411,743.149172804784,743.8800939086359,"[70, 0, 184]",184,l,0.21332720504142344,colour,0.06
016,68,1,1,9,12,412,744.3907139722724,745.4081432434032,"[84, 0, 170]",170,l,0.49742739635985345,colour,0.06
016,68,1,1,9,13,413,745.9175203283085,746.9280777703971,"[69, 0, 185]",185,l,0.48946067481301725,colour,0.06
016,68,1,1,9,14,414,747.4371196922148,748.1120571297361,"[75, 0, 179]",179,l,0.1583336681360379,colour,0.06
016,68,1,1,9,15,415,748.6211762453895,750.7521549296798,"[61, 0, 193]",193,l,1.6124852406792343,colour,0.06
016,68,1,1,9,16,416,751.2619561869651,752.7601330727339,"[96, 0, 158]",158,l,0.9783597249770537,colour,0.06
016,68,1,1,9,17,417,753.2699843485607,754.5840751427459,"[88, 0, 166]",166,l,0.7965583354234695,colour,0.06
016,68,1,1,9,18,418,755.0932785414625,755.6321641614195,"[97, 0, 157]",157,l,0.019515474676154554,colour,0.06
016,68,1,1,9,19,419,756.1414766554954,757.0560951249208,"[65, 0, 189]",189,l,0.3967622689669952,colour,0.06
016,68,1,1,9,20,420,757.5653028559173,758.3760703755543,"[62, 0, 192]",192,l,0.29181012511253357,colour,0.06
016,68,1,1,9,21,421,758.8850540081039,759.8400948854396,"[59, 0, 195]",195,a,0.43627489206846803,colour,0.06
016,68,1,1,9,22,422,760.3500694350805,761.1841179931071,"[78, 0, 176]",176,l,0.3172896131873131,colour,0.06
016,68,1,1,9,23,423,761.6923296870664,762.4321265097242,"[95, 0, 159]",159,l,0.22351521940436214,colour,0.06
016,68,1,1,9,24,424,762.9416989423335,764.0721022172365,"[58, 0, 196]",196,a,0.6143075671279803,colour,0.06
016,68,1,1,9,25,425,764.5813312160317,765.3601081817178,"[82, 0, 172]",172,l,0.26046154054347426,colour,0.06
016,68,1,1,9,26,426,765.8691993341781,766.8480556992581,"[57, 0, 197]",197,a,0.4612565585412085,colour,0.06
016,68,1,1,9,27,427,767.3576887842501,768.1681160207372,"[72, 0, 182]",182,l,0.29126937419641763,colour,0.06
016,68,1,1,9,28,428,768.6781642197166,769.5920674642548,"[71, 0, 183]",183,l,0.3947682253783569,colour,0.06
016,68,1,1,9,29,429,770.1010975706158,770.7680923112202,"[89, 0, 165]",165,l,0.14820315537508577,colour,0.06
016,68,1,1,9,30,430,771.2776025162311,772.2080681762891,"[50, 0, 204]",204,a,0.4124385303584859,colour,0.06
016,68,1,1,9,31,431,772.7168446457945,773.4802387653617,"[56, 0, 198]",198,a,0.24528270680457354,colour,0.06
016,68,1,1,9,32,432,773.9893251917092,775.160068954574,"[53, 0, 201]",201,a,0.653656350215897,colour,0.06
016,68,1,1,9,33,433,775.6697142487392,776.3680906570517,"[94, 0, 160]",160,l,0.17954386305063963,colour,0.06
016,68,1,1,9,34,434,776.8770471141906,777.4962186822668,"[87, 0, 167]",167,l,0.10212669079191983,colour,0.06
016,68,1,1,9,35,435,778.0053480379283,778.896183314966,"[46, 0, 208]",208,a,0.3734292427543551,colour,0.06
016,68,1,1,9,36,436,779.4059491261141,781.4161194172921,"[92, 0, 162]",162,l,1.4914543244522065,colour,0.06
016,68,1,1,9,37,437,781.9256686130539,782.9524556705728,"[85, 0, 169]",169,l,0.5069746228400618,colour,0.06
016,68,1,1,9,38,438,783.4624377033906,784.2801069844281,"[93, 0, 161]",161,l,0.29993399139493704,colour,0.06
016,68,1,1,9,39,439,784.7897763032233,785.5840928658145,"[60, 0, 194]",194,a,0.27443914336618036,colour,0.06
016,68,1,1,9,40,440,786.095570726553,787.1121102989418,"[55, 0, 199]",199,a,0.49544438056182116,colour,0.06
016,68,1,1,9,41,441,787.621314485441,788.2962026922032,"[91, 0, 163]",163,l,0.15808672655839473,colour,0.06
016,68,1,1,9,42,442,788.8053785216762,789.5283163625281,"[77, 0, 177]",177,l,0.2060296282870695,colour,0.06
016,68,1,1,9,43,443,790.0381140751997,790.7680990066146,"[99, 0, 155]",155,l,0.21236818947363645,colour,0.06
016,68,1,1,9,44,444,791.2782783563016,792.0561022141483,"[83, 0, 171]",171,l,0.2576888630865142,colour,0.06
016,68,1,1,9,45,445,792.5655253790319,793.3921077941777,"[74, 0, 180]",180,l,0.30669593741185963,colour,0.06
016,68,1,1,9,46,446,793.9011430204846,794.5840944411466,"[66, 0, 188]",188,l,0.16332330601289868,colour,0.06
016,68,1,1,9,47,447,795.093627883005,795.7200753664365,"[64, 0, 190]",190,l,0.10897764610126615,colour,0.06
016,68,1,1,9,48,448,796.2290802666685,796.9202252642717,"[63, 0, 191]",191,l,0.1739492773776874,colour,0.06
016,68,1,1,9,49,449,797.4288800351787,798.3441432308173,"[54, 0, 200]",200,a,0.3979359306395054,colour,0.06
016,68,1,1,9,50,450,798.8533667157171,799.5442242056597,"[40, 0, 214]",214,a,0.17232466163113713,colour,0.06
016,68,1,1,10,1,451,804.5086492571281,806.2001491101691,"[99, 0, 155]",155,l,1.1728610801510513,colour,0.06
016,68,1,1,10,2,452,806.7103509091539,807.7520978219109,"[92, 0, 162]",162,l,0.5214476841501892,colour,0.06
016,68,1,1,10,3,453,808.2613457252737,809.2320738917915,"[76, 0, 178]",178,l,0.4516853073146194,colour,0.06
016,68,1,1,10,4,454,809.7411548043601,811.0880860727048,"[86, 0, 168]",168,l,0.8297997448826209,colour,0.06
016,68,1,1,10,5,455,811.5971146037336,813.8641313209664,"[87, 0, 167]",167,l,1.7503105477662757,colour,0.06
016,68,1,1,10,6,456,814.3732961227652,816.3121991506778,"[83, 0, 171]",171,l,1.4222441200399771,colour,0.06
016,68,1,1,10,7,457,816.8230633989442,817.8000954682939,"[56, 0, 198]",198,a,0.4581483240472153,colour,0.06
016,68,1,1,10,8,458,818.3090846147388,819.0320898032514,"[57, 0, 197]",197,a,0.20610248984303325,colour,0.06
016,68,1,1,10,9,459,819.5409143219003,820.4800788637949,"[80, 0, 174]",174,l,0.4193674672860652,colour,0.06
016,68,1,1,10,10,460,820.9891526871361,822.5921458397061,"[77, 0, 177]",177,l,1.0863354263128713,colour,0.06
016,68,1,1,10,11,461,823.1023917493876,824.0161335170269,"[54, 0, 200]",200,a,0.39381314837373793,colour,0.06
016,68,1,1,10,12,462,824.5259710082319,825.0804348220117,"[89, 0, 165]",165,l,0.03438947140239179,colour,0.06
016,68,1,1,10,13,463,825.5917988611618,826.328125504544,"[72, 0, 182]",182,l,0.21526256541255862,colour,0.06
016,68,1,1,10,14,464,826.8373367802706,827.600122801261,"[50, 0, 204]",204,a,0.24541779607534409,colour,0.06
016,68,1,1,10,15,465,828.1076106057735,828.8480596377049,"[88, 0, 166]",166,l,0.224135133321397,colour,0.06
016,68,1,1,10,16,466,829.3570483903168,830.1681105069583,"[82, 0, 172]",172,l,0.29408064868766814,colour,0.06
016,68,1,1,10,17,467,830.6769574747887,831.4086398835061,"[91, 0, 163]",163,l,0.21224137104582042,colour,0.06
016,68,1,1,10,18,468,831.9182788762264,832.5441158978501,"[53, 0, 201]",201,a,0.10706631024368107,colour,0.06
016,68,1,1,10,19,469,833.053421696648,833.6642681431258,"[74, 0, 180]",180,l,0.09187172271776944,colour,0.06
016,68,1,1,10,20,470,834.173709031078,834.936087421258,"[75, 0, 179]",179,l,0.24622478696983308,colour,0.06
016,68,1,1,10,21,471,835.4466870048782,836.1122501144418,"[33, 0, 221]",221,a,0.14587276719976217,colour,0.06
016,68,1,1,10,22,472,836.6221151747741,837.4320654635085,"[9, 0, 245]",245,a,0.2939463470829651,colour,0.06
016,68,1,1,10,23,473,837.9418568747351,838.9921085030073,"[65, 0, 189]",189,l,0.5318460123380646,colour,0.06
016,68,1,1,10,24,474,839.5014690464595,840.1361305868486,"[69, 0, 185]",185,l,0.11616021988447756,colour,0.06
016,68,1,1,10,25,475,840.6455569025129,841.2561063888716,"[81, 0, 173]",173,l,0.0923459135228768,colour,0.06
016,68,1,1,10,26,476,841.7652511044871,843.2241304072086,"[73, 0, 181]",181,l,0.9411211699480191,colour,0.06
016,68,1,1,10,27,477,843.7333842182998,844.2891685984796,"[70, 0, 184]",184,l,0.03757017361931503,colour,0.06
016,68,1,1,10,28,478,844.7995279359166,845.6321314721135,"[42, 0, 212]",212,a,0.3152971451636404,colour,0.06
016,68,1,1,10,29,479,846.1412080524024,846.8801151763182,"[58, 0, 196]",196,a,0.2217964744195342,colour,0.06
016,68,1,1,10,30,480,847.3899499105755,847.9601518198615,"[85, 0, 169]",169,l,0.0517592717660591,colour,0.06
016,68,1,1,10,31,481,848.4690708615817,849.1361270421185,"[71, 0, 183]",183,l,0.14964738942217082,colour,0.06
016,68,1,1,10,32,482,849.6459984041285,850.3762680863729,"[60, 0, 194]",194,a,0.2131042880937457,colour,0.06
016,68,1,1,10,33,483,850.8855864881771,852.6880993847735,"[79, 0, 175]",175,l,1.2849406593013555,colour,0.06
016,68,1,1,10,34,484,853.1973130234983,854.000106732361,"[90, 0, 164]",164,l,0.2860024686669931,colour,0.06
016,68,1,1,10,35,485,854.5091774049215,855.0962379020639,"[55, 0, 199]",199,a,0.0703913492616266,colour,0.06
016,68,1,1,10,36,486,855.6055456700269,856.8800939086359,"[64, 0, 190]",190,a,0.7577952014980838,colour,0.06
016,68,1,1,10,37,487,857.3888924334897,859.3760940063512,"[93, 0, 161]",161,l,1.4701035263715312,colour,0.06
016,68,1,1,10,38,488,859.8853923220886,861.9761931768153,"[78, 0, 176]",176,l,1.5724740080768242,colour,0.06
016,68,1,1,10,39,489,862.4859877387062,863.6481169030303,"[59, 0, 195]",195,a,0.6432296651182696,colour,0.06
016,68,1,1,10,40,490,864.158274985035,864.8801053302595,"[61, 0, 193]",193,a,0.2026586984284222,colour,0.06
016,68,1,1,10,41,491,865.3891799412668,866.6961322724819,"[67, 0, 187]",187,a,0.7891611154191196,colour,0.06
016,68,1,1,10,42,492,867.2052750188159,867.7281117987586,"[97, 0, 157]",157,l,0.005744247348047793,colour,0.06
016,68,1,1,10,43,493,868.2479974888265,869.976114407531,"[95, 0, 159]",159,l,1.2111252107424662,colour,0.06
016,68,1,1,10,44,494,870.4851338801673,872.5201688654488,"[96, 0, 158]",158,l,1.5164824647363275,colour,0.06
016,68,1,1,10,45,495,873.0292600180255,873.8000797145069,"[63, 0, 191]",191,a,0.2530465975869447,colour,0.06
016,68,1,1,10,46,496,874.3092074947199,876.5201755608432,"[66, 0, 188]",188,l,1.692831841064617,colour,0.06
016,68,1,1,10,47,497,877.0301918581827,878.3761326032691,"[51, 0, 203]",203,l,0.8291341448202729,colour,0.06
016,68,1,1,10,48,498,878.8852863773936,880.9041165595409,"[98, 0, 156]",156,l,1.4998168614692986,colour,0.06
016,68,1,1,10,49,499,881.4132195274578,881.9841106676031,"[94, 0, 160]",160,l,0.0537426812807098,colour,0.06
016,68,1,1,10,50,500,882.4927949770354,883.1369694792666,"[62, 0, 192]",192,a,0.12616667104884982,colour,0.06
016,68,1,1,11,1,501,887.596336757415,888.6161038997816,"[79, 0, 175]",175,l,0.5007648493628949,colour,0.06
016,68,1,1,11,2,502,889.1251548799919,890.7121657525422,"[84, 0, 170]",170,l,1.0700723337940872,colour,0.06
016,68,1,1,11,3,503,891.2215223574312,891.7441110141808,"[99, 0, 155]",155,l,0.0055544134229421616,colour,0.06
016,68,1,1,11,4,504,892.2649769874988,892.8161242222413,"[95, 0, 159]",159,l,0.03392945893574506,colour,0.06
016,68,1,1,11,5,505,893.3257242240943,893.9522004582686,"[52, 0, 202]",202,a,0.10544445156119764,colour,0.06
016,68,1,1,11,6,506,894.4610962631414,895.0721325434279,"[78, 0, 176]",176,l,0.09357510763220489,colour,0.06
016,68,1,1,11,7,507,895.5819062314695,896.1601378776832,"[50, 0, 204]",204,a,0.05885598703753203,colour,0.06
016,68,1,1,11,8,508,896.6691770425532,898.0081061430974,"[90, 0, 164]",164,l,0.8219448756426573,colour,0.06
016,68,1,1,11,9,509,898.5186470436165,899.3841347710695,"[74, 0, 180]",180,l,0.34695765608921647,colour,0.06
016,68,1,1,11,10,510,899.8932349820388,900.5521468163934,"[94, 0, 160]",160,l,0.14104224310722202,colour,0.06
016,68,1,1,11,11,511,901.0615400490351,901.5923589104787,"[71, 0, 183]",183,l,0.013651891960762441,colour,0.06
016,68,1,1,11,12,512,902.1026347525185,902.6641807092819,"[73, 0, 181]",181,l,0.042781940777786076,colour,0.06
016,68,1,1,11,13,513,903.174248206662,905.0721163956914,"[96, 0, 158]",158,l,1.3797878901241347,colour,0.06
016,68,1,1,11,14,514,905.5811035728548,906.1600925853709,"[89, 0, 165]",165,l,0.06071730423718691,colour,0.06
016,68,1,1,11,15,515,906.6690557379043,907.3281282614917,"[56, 0, 198]",198,a,0.14275547419674695,colour,0.06
016,68,1,1,11,16,516,907.8386061466299,908.5601978211198,"[63, 0, 191]",191,a,0.2031514000846073,colour,0.06
016,68,1,1,11,17,517,909.0677450963994,909.7121350325178,"[80, 0, 174]",174,l,0.12633720645681024,colour,0.06
016,68,1,1,11,18,518,910.2211915266234,910.7445800850401,"[82, 0, 172]",172,l,0.005154659389518201,colour,0.06
016,68,1,1,11,19,519,911.2661124462029,911.8322923977394,"[25, 0, 229]",229,a,0.04756953555624932,colour,0.06
016,68,1,1,11,20,520,912.3429156121565,913.0241585278418,"[62, 0, 192]",192,a,0.16417401388753206,colour,0.06
016,68,1,1,11,21,521,913.5347037606407,915.3602184585761,"[98, 0, 156]",156,l,1.305074866162613,colour,0.06
016,68,1,1,11,22,522,915.8696640727576,916.6004670228576,"[70, 0, 184]",184,a,0.21102990000508726,colour,0.06
016,68,1,1,11,23,523,917.1105423971312,919.264221590478,"[54, 0, 200]",200,l,1.6364708699984476,colour,0.06
016,68,1,1,11,24,524,919.7734336538706,921.2961991475895,"[85, 0, 169]",169,l,1.0051802595844492,colour,0.06
016,68,1,1,11,25,525,921.8052776970435,922.5125597562874,"[77, 0, 177]",177,l,0.18848456628620625,colour,0.06
016,68,1,1,11,26,526,923.0216524841962,923.648135413765,"[72, 0, 182]",182,l,0.11008080933243036,colour,0.06
016,68,1,1,11,27,527,924.1574053724762,924.7921295344131,"[58, 0, 196]",196,a,0.11814323556609452,colour,0.06
016,68,1,1,11,28,528,925.3012297454989,926.0561124541564,"[66, 0, 188]",188,a,0.2362092772964388,colour,0.06
016,68,1,1,11,29,529,926.5651571328053,927.6161271367455,"[93, 0, 161]",161,l,0.5340220129583031,colour,0.06
016,68,1,1,11,30,530,928.1254892554134,929.6560934707522,"[88, 0, 166]",166,l,1.0130760887404904,colour,0.06
016,68,1,1,11,31,531,930.1656359711196,932.4241160711972,"[51, 0, 203]",203,a,1.7413253398844972,colour,0.06
016,68,1,1,11,32,532,932.9332261283416,933.6001929058693,"[92, 0, 162]",162,l,0.14998018951155245,colour,0.06
016,68,1,1,11,33,533,934.1098653754452,934.6562746400014,"[69, 0, 185]",185,a,0.027353802346624434,colour,0.06
016,68,1,1,11,34,534,935.1658458911115,935.9361587073654,"[75, 0, 179]",179,l,0.2535873483866453,colour,0.06
016,68,1,1,11,35,535,936.4468677802943,938.2481160365278,"[57, 0, 197]",197,a,1.2811806092504412,colour,0.06
016,68,1,1,11,36,536,938.7582461554557,940.096117385081,"[97, 0, 157]",157,l,0.8179209487279877,colour,0.06
016,68,1,1,11,37,537,940.6051632453455,941.2320920088096,"[86, 0, 168]",168,l,0.1101083786925301,colour,0.06
016,68,1,1,11,38,538,941.7411768598249,942.5922773843631,"[67, 0, 187]",187,a,0.33314743801020086,colour,0.06
016,68,1,1,11,39,539,943.1016099646222,944.3921373325866,"[60, 0, 194]",194,a,0.7732926568714902,colour,0.06
016,68,1,1,11,40,540,944.9021752914414,946.1921347331954,"[76, 0, 178]",178,l,0.771599511965178,colour,0.06
016,68,1,1,11,41,541,946.7012026488082,947.424153486616,"[83, 0, 171]",171,l,0.20238536910619587,colour,0.06
016,68,1,1,11,42,542,947.933973648469,948.5681176749058,"[55, 0, 199]",199,a,0.1126963421702385,colour,0.06
016,68,1,1,11,43,543,949.0773762121098,950.912104154937,"[59, 0, 195]",195,a,1.3162167760310695,colour,0.06
016,68,1,1,11,44,544,951.4217439353233,953.152116017649,"[91, 0, 163]",163,l,1.2126671188743785,colour,0.06
016,68,1,1,11,45,545,953.6611961425515,954.22413670877,"[64, 0, 190]",190,a,0.04530807049013674,colour,0.06
016,68,1,1,11,46,546,954.7332881197799,955.2881485366961,"[1, 0, 253]",253,a,0.037249976536259055,colour,0.06
016,68,1,1,11,47,547,955.7988312218804,956.4161355650285,"[65, 0, 189]",189,a,0.09665498521644622,colour,0.06
016,68,1,1,11,48,548,956.925255074515,958.76010983577,"[68, 0, 186]",186,a,1.3186038780258968,colour,0.06
016,68,1,1,11,49,549,959.2699366931338,959.7924280698644,"[3, 0, 251]",251,a,0.003669071476906538,colour,0.06
016,68,1,1,11,50,550,960.3153790651122,960.8641080840025,"[61, 0, 193]",193,a,0.03149352001491934,colour,0.06
016,68,1,1,12,1,551,965.6852491195314,967.6161708536092,"[65, 0, 189]",189,a,1.4098186652408913,colour,0.06
016,68,1,1,12,2,552,968.1260784494225,968.6658671587938,"[97, 0, 157]",157,l,0.019377234624698758,colour,0.06
016,68,1,1,12,3,553,969.1758251668653,970.9681134213461,"[94, 0, 160]",160,l,1.2735805584816262,colour,0.06
016,68,1,1,12,4,554,971.4769733862486,973.4561720036436,"[56, 0, 198]",198,a,1.4629855434177443,colour,0.06
016,68,1,1,12,5,555,973.9652036854532,975.3364080908941,"[82, 0, 172]",172,l,0.8542926482623443,colour,0.06
016,68,1,1,12,6,556,975.8458958466072,976.5201483854325,"[70, 0, 184]",184,l,0.15454959345515817,colour,0.06
016,68,1,1,12,7,557,977.029373445781,977.5763159780763,"[54, 0, 200]",200,a,0.029059944208711386,colour,0.06
016,68,1,1,12,8,558,978.0858324845321,978.633175558527,"[9, 0, 245]",245,l,0.028089900966733694,colour,0.06
016,68,1,1,12,9,559,979.1427113635,980.6481480168877,"[74, 0, 180]",180,l,0.9880948161007836,colour,0.06
016,68,1,1,12,10,560,981.1572604371468,982.4881334130187,"[83, 0, 171]",171,l,0.8139777602627873,colour,0.06
016,68,1,1,12,11,561,982.9977968242019,984.4081499387976,"[81, 0, 173]",173,l,0.8905138984555379,colour,0.06
016,68,1,1,12,12,562,984.917741276091,985.5360967947636,"[89, 0, 165]",165,l,0.09984277654439211,colour,0.06
016,68,1,1,12,13,563,986.0449697565055,986.664108635392,"[60, 0, 194]",194,a,0.10287775564938784,colour,0.06
016,68,1,1,12,14,564,987.1739831480663,988.320148149156,"[88, 0, 166]",166,l,0.6254931938601658,colour,0.06
016,68,1,1,12,15,565,988.829244421795,990.3841650971444,"[66, 0, 188]",188,a,1.0381672444054857,colour,0.06
016,68,1,1,12,16,566,990.8935016159667,992.9601912044454,"[71, 0, 183]",183,l,1.5477755171013996,colour,0.06
016,68,1,1,12,17,567,993.4700995879248,994.0650578836212,"[72, 0, 182]",182,l,0.07706979988142848,colour,0.06
016,68,1,1,12,18,568,994.575666131801,995.3121329845162,"[91, 0, 163]",163,l,0.21954918780829757,colour,0.06
016,68,1,1,12,19,569,995.8214632017771,996.6721549138892,"[67, 0, 187]",187,l,0.3341355981538072,colour,0.06
016,68,1,1,12,20,570,997.1811669033486,998.7441649711691,"[92, 0, 162]",162,l,1.0443226671777666,colour,0.06
016,68,1,1,12,21,571,999.2533719144994,999.7766399560496,"[57, 0, 197]",197,a,0.005939595052041113,colour,0.06
016,68,1,1,12,22,572,1000.2982975603081,1002.0482934248867,"[53, 0, 201]",201,a,1.2328312582103536,colour,0.06
016,68,1,1,12,23,573,1002.5573920605239,1004.1761949885404,"[99, 0, 155]",155,l,1.1006088075228035,colour,0.06
016,68,1,1,12,24,574,1004.6860041227192,1005.560364811914,"[68, 0, 186]",186,a,0.35679475334472954,colour,0.06
016,68,1,1,12,25,575,1006.0698805307038,1006.7121677217074,"[78, 0, 176]",176,l,0.12469447369221598,colour,0.06
016,68,1,1,12,26,576,1007.2212167327525,1007.8242181561654,"[62, 0, 192]",192,a,0.08682734018657357,colour,0.06
016,68,1,1,12,27,577,1008.3329032532638,1009.9681146029616,"[51, 0, 203]",203,a,1.118133389391005,colour,0.06
016,68,1,1,12,28,578,1010.478505448089,1011.1521309837699,"[77, 0, 177]",177,l,0.1546350581338629,colour,0.06
016,68,1,1,12,29,579,1011.6615431209793,1012.328232236905,"[84, 0, 170]",170,l,0.14838511229027063,colour,0.06
016,68,1,1,12,30,580,1012.8377034510486,1013.9441671767272,"[55, 0, 199]",199,a,0.5875559557462111,colour,0.06
016,68,1,1,12,31,581,1014.4540846185992,1015.6481472291052,"[59, 0, 195]",195,a,0.6752363668056205,colour,0.06
016,68,1,1,12,32,582,1016.1575526710367,1017.760176789714,"[87, 0, 167]",167,l,1.0830791055923328,colour,0.06
016,68,1,1,12,33,583,1018.2696200407809,1019.368145795539,"[61, 0, 193]",193,a,0.5779823415214196,colour,0.06
016,68,1,1,12,34,584,1019.8774913727539,1020.4882003668463,"[93, 0, 161]",161,l,0.09400597540661693,colour,0.06
016,68,1,1,12,35,585,1020.9968563193688,1021.6724522678414,"[48, 0, 206]",206,a,0.15767279418651015,colour,0.06
016,68,1,1,12,36,586,1022.1824433589354,1022.9041437349515,"[76, 0, 178]",178,l,0.2015677442541346,colour,0.06
016,68,1,1,12,37,587,1023.4142376200762,1024.6161810936173,"[50, 0, 204]",204,a,0.6829778082901612,colour,0.06
016,68,1,1,12,38,588,1025.1261060186662,1026.0641382526373,"[7, 0, 247]",247,a,0.42054034129250795,colour,0.06
016,68,1,1,12,39,589,1026.575241171755,1027.2081386748469,"[86, 0, 168]",168,l,0.11276644689496607,colour,0.06
016,68,1,1,12,40,590,1027.7166296057403,1028.2881296321284,"[64, 0, 190]",190,a,0.05447681073565036,colour,0.06
016,68,1,1,12,41,591,1028.7974685139488,1030.2561674350873,"[90, 0, 164]",164,l,0.942038043984212,colour,0.06
016,68,1,1,12,42,592,1030.7659887785558,1031.3041308168322,"[96, 0, 158]",158,l,0.01925317302811891,colour,0.06
016,68,1,1,12,43,593,1031.814583495725,1032.3681513094343,"[73, 0, 181]",181,a,0.033908979035913944,colour,0.06
016,68,1,1,12,44,594,1032.877950597438,1033.4566891237628,"[98, 0, 156]",156,l,0.060990633559413254,colour,0.06
016,68,1,1,12,45,595,1033.9669216426555,1035.096132745035,"[63, 0, 191]",191,l,0.6114722681231797,colour,0.06
016,68,1,1,12,46,596,1035.6055519715883,1037.120125857531,"[80, 0, 174]",174,l,0.9969209101982415,colour,0.06
016,68,1,1,12,47,597,1037.6296163700754,1038.49616669456,"[58, 0, 196]",196,a,0.34967007499653846,colour,0.06
016,68,1,1,12,48,598,1039.0056705980096,1040.2481341534294,"[69, 0, 185]",185,l,0.7244124010903761,colour,0.06
016,68,1,1,12,49,599,1040.758740826277,1042.1041376696667,"[79, 0, 175]",175,l,0.8262633995618671,colour,0.06
016,68,1,1,12,50,600,1042.6130571053363,1043.3122086030198,"[85, 0, 169]",169,l,0.1802149770082906,colour,0.06
016,68,1,1,13,1,601,1047.6920240623876,1049.0961225050269,"[61, 0, 193]",193,a,0.8868861807277426,colour,0.06
016,68,1,1,13,2,602,1049.6059036762454,1051.0001736861886,"[71, 0, 183]",183,l,0.8748155814828351,colour,0.06
016,68,1,1,13,3,603,1051.5113801868865,1052.5602631994989,"[83, 0, 171]",171,l,0.527848867001012,colour,0.06
016,68,1,1,13,4,604,1053.0693815274863,1054.5441930918023,"[69, 0, 185]",185,a,0.9578875978477299,colour,0.06
016,68,1,1,13,5,605,1055.0533775858348,1055.6001499766717,"[57, 0, 197]",197,a,0.029493962763808668,colour,0.06
016,68,1,1,13,6,606,1056.109322655364,1056.6801519616274,"[78, 0, 176]",176,l,0.05482418311294168,colour,0.06
016,68,1,1,13,7,607,1057.1897188804578,1058.672159640002,"[88, 0, 166]",166,l,0.9635869466001168,colour,0.06
016,68,1,1,13,8,608,1059.1816816603532,1060.152166036074,"[95, 0, 159]",159,l,0.4524414921179414,colour,0.06
016,68,1,1,13,9,609,1060.6614044872113,1061.6161708536092,"[81, 0, 173]",173,l,0.4371374152833596,colour,0.06
016,68,1,1,13,10,610,1062.126534129493,1062.6881663386011,"[53, 0, 201]",201,a,0.042262063710950315,colour,0.06
016,68,1,1,13,11,611,1063.1981251343386,1063.8001214622054,"[94, 0, 160]",160,l,0.08344695798587054,colour,0.06
016,68,1,1,13,12,612,1064.3097911748337,1065.0086504386272,"[80, 0, 174]",174,l,0.179368601529859,colour,0.06
016,68,1,1,13,13,613,1065.5185867851833,1066.5282399563584,"[84, 0, 170]",170,l,0.4911455491092056,colour,0.06
016,68,1,1,13,14,614,1067.0380467274226,1067.9361240488943,"[86, 0, 168]",168,l,0.3803822040790692,colour,0.06
016,68,1,1,13,15,615,1068.4448225367814,1068.9923515061382,"[70, 0, 184]",184,a,0.031121729174628854,colour,0.06
016,68,1,1,13,16,616,1069.5014958279207,1070.2561260812217,"[75, 0, 179]",179,l,0.23597493884153664,colour,0.06
016,68,1,1,13,17,617,1070.7653101814212,1071.4161402911413,"[2, 0, 252]",252,a,0.13341738004237413,colour,0.06
016,68,1,1,13,18,618,1071.9252932775998,1072.6401568767615,"[58, 0, 196]",196,a,0.19735713419504464,colour,0.06
016,68,1,1,13,19,619,1073.150182626443,1073.7201702833408,"[68, 0, 186]",186,a,0.05288015806581825,colour,0.06
016,68,1,1,13,20,620,1074.2299140391406,1075.0001933785388,"[99, 0, 155]",155,a,0.25224472663830966,colour,0.06
016,68,1,1,13,21,621,1075.5084948693402,1076.0490606373642,"[54, 0, 200]",200,l,0.02149927814025432,colour,0.06
016,68,1,1,13,22,622,1076.559219900868,1078.824153959169,"[72, 0, 182]",182,l,1.7481310026487336,colour,0.06
016,68,1,1,13,23,623,1079.3348945397884,1079.9282392474124,"[51, 0, 203]",203,a,0.07259767584037036,colour,0.06
016,68,1,1,13,24,624,1080.4372788061155,1081.6801637769677,"[52, 0, 202]",202,a,0.7257471459452063,colour,0.06
016,68,1,1,13,25,625,1082.189540861873,1082.8641482562525,"[76, 0, 178]",178,l,0.156430603004992,colour,0.06
016,68,1,1,13,26,626,1083.3733047873247,1084.8321860592114,"[63, 0, 191]",191,l,0.9418552992865443,colour,0.06
016,68,1,1,13,27,627,1085.3429447567323,1086.992218386149,"[90, 0, 164]",164,l,1.1301000133389607,colour,0.06
016,68,1,1,13,28,628,1087.501297329436,1088.1363298729993,"[82, 0, 172]",172,l,0.11684157385025173,colour,0.06
016,68,1,1,13,29,629,1088.6457187732449,1089.3681391001446,"[38, 0, 216]",216,a,0.20621985592879355,colour,0.06
016,68,1,1,13,30,630,1089.8761282709893,1091.1122221513651,"[65, 0, 189]",189,l,0.7186173477675766,colour,0.06
016,68,1,1,13,31,631,1091.6212802208029,1092.584149579634,"[74, 0, 180]",180,l,0.44551964465063065,colour,0.06
016,68,1,1,13,32,632,1093.093573138467,1094.176174114691,"[93, 0, 161]",161,l,0.5637826095335186,colour,0.06
016,68,1,1,13,33,633,1094.6851912240963,1095.3201607522788,"[56, 0, 198]",198,a,0.1149908903753385,colour,0.06
016,68,1,1,13,34,634,1095.828641443164,1097.0081683708122,"[96, 0, 158]",158,l,0.6608306531561539,colour,0.06
016,68,1,1,13,35,635,1097.5172461326001,1098.7681844712934,"[66, 0, 188]",188,l,0.7320821626344696,colour,0.06
016,68,1,1,13,36,636,1099.2787135563558,1100.320196198416,"[98, 0, 156]",156,l,0.521524484269321,colour,0.06
016,68,1,1,13,37,637,1100.8292739602039,1102.000171716907,"[85, 0, 169]",169,l,0.6524917469359934,colour,0.06
016,68,1,1,13,38,638,1102.5092392386869,1103.4961580300005,"[89, 0, 165]",165,l,0.4675195013405755,colour,0.06
016,68,1,1,13,39,639,1104.0051633240655,1106.6241383629385,"[64, 0, 190]",190,l,2.101261804578826,colour,0.06
016,68,1,1,13,40,640,1107.1332547216443,1108.3681524909334,"[18, 0, 236]",236,a,0.718315661419183,colour,0.06
016,68,1,1,13,41,641,1108.8787256869255,1109.9121742596617,"[55, 0, 199]",199,a,0.5144025628687814,colour,0.06
016,68,1,1,13,42,642,1110.4211468644207,1111.416217091144,"[91, 0, 163]",163,l,0.47817619261331856,colour,0.06
016,68,1,1,13,43,643,1111.9251554313814,1112.9201461011544,"[67, 0, 187]",187,l,0.478057251079008,colour,0.06
016,68,1,1,13,44,644,1113.429665758391,1113.984630938503,"[62, 0, 192]",192,a,0.035235846997238696,colour,0.06
016,68,1,1,13,45,645,1114.495132060605,1115.4721605852246,"[77, 0, 177]",177,l,0.4592109211953357,colour,0.06
016,68,1,1,13,46,646,1115.9811891162535,1117.6241682951804,"[97, 0, 157]",157,l,1.1249063630821183,colour,0.06
016,68,1,1,13,47,647,1118.1333110416308,1118.7124300233554,"[60, 0, 194]",194,a,0.06203826447017491,colour,0.06
016,68,1,1,13,48,648,1119.2227613977157,1120.2561879151035,"[50, 0, 204]",204,a,0.51443682750687,colour,0.06
016,68,1,1,13,49,649,1120.7665393755306,1121.7362096711295,"[59, 0, 195]",195,a,0.4485786483855918,colour,0.06
016,68,1,1,13,50,650,1122.2455135006458,1123.1841794331558,"[92, 0, 162]",162,l,0.4202295965515077,colour,0.06
016,68,1,1,14,1,651,1128.5165718678618,1130.424163726624,"[65, 0, 189]",189,l,1.3893323597731069,colour,0.06
016,68,1,1,14,2,652,1130.9330162083497,1131.944171509007,"[75, 0, 179]",179,l,0.4930781525326893,colour,0.06
016,68,1,1,14,3,653,1132.4534631292336,1133.6402265876532,"[57, 0, 197]",197,a,0.6701313320081681,colour,0.06
016,68,1,1,14,4,654,1134.1483559677145,1136.4721629483392,"[76, 0, 178]",178,l,1.8056640601716936,colour,0.06
016,68,1,1,14,5,655,1136.9819267903222,1137.9602160167415,"[82, 0, 172]",172,l,0.46164252783637494,colour,0.06
016,68,1,1,14,6,656,1138.4691579015926,1139.4006743434584,"[97, 0, 157]",157,l,0.4139997368911281,colour,0.06
016,68,1,1,14,7,657,1139.9106815824052,1140.8403591562528,"[96, 0, 158]",158,l,0.41124911489896476,colour,0.06
016,68,1,1,14,8,658,1141.3505436258856,1142.7281468510628,"[98, 0, 156]",156,l,0.8594165877439082,colour,0.06
016,68,1,1,14,9,659,1143.23807768384,1144.3521595770726,"[91, 0, 163]",163,l,0.5935573846800253,colour,0.06
016,68,1,1,14,10,660,1144.8614354435122,1145.9121549611446,"[52, 0, 202]",202,a,0.5319401416927576,colour,0.06
016,68,1,1,14,11,661,1146.4217210923089,1147.4322056728415,"[71, 0, 183]",183,l,0.4910667798249051,colour,0.06
016,68,1,1,14,12,662,1147.9414027699968,1149.2321747164242,"[69, 0, 185]",185,l,0.7722099735401571,colour,0.06
016,68,1,1,14,13,663,1149.7429369585589,1150.8001742375782,"[48, 0, 206]",206,a,0.5380069490056485,colour,0.06
016,68,1,1,14,14,664,1151.3092984731775,1152.4241810558597,"[92, 0, 162]",162,l,0.5988581610145047,colour,0.06
016,68,1,1,14,15,665,1152.9329606760293,1154.2401780657237,"[62, 0, 192]",192,a,0.7908550479914993,colour,0.06
016,68,1,1,14,16,666,1154.750315273879,1155.5761655288516,"[87, 0, 167]",167,l,0.30500791233498603,colour,0.06
016,68,1,1,14,17,667,1156.0844118811656,1157.1761749023572,"[80, 0, 174]",174,l,0.5752053316682577,colour,0.06
016,68,1,1,14,18,668,1157.6851908302633,1158.6721395539353,"[33, 0, 221]",221,a,0.4681019999552518,colour,0.06
016,68,1,1,14,19,669,1159.1809175986564,1160.088145543472,"[86, 0, 168]",168,l,0.38918033509980887,colour,0.06
016,68,1,1,14,20,670,1160.597159502213,1161.5681759641739,"[84, 0, 170]",170,l,0.4522217259509489,colour,0.06
016,68,1,1,14,21,671,1162.0781107353978,1163.0641874833964,"[81, 0, 173]",173,l,0.46859155071433634,colour,0.06
016,68,1,1,14,22,672,1163.5728402851382,1164.9441801735666,"[61, 0, 193]",193,a,0.8538046727189794,colour,0.06
016,68,1,1,14,23,673,1165.454843166517,1166.4641930760117,"[59, 0, 195]",195,a,0.48867101315408945,colour,0.06
016,68,1,1,14,24,674,1166.9734421608737,1167.6962567279115,"[90, 0, 164]",164,l,0.2044558187481016,colour,0.06
016,68,1,1,14,25,675,1168.2033282369375,1169.1281693790806,"[51, 0, 203]",203,a,0.40728544641751796,colour,0.06
016,68,1,1,14,26,676,1169.638053344097,1170.9201870611869,"[94, 0, 160]",160,l,0.7648734060348943,colour,0.06
016,68,1,1,14,27,677,1171.4292380413972,1172.4641458144179,"[73, 0, 181]",181,l,0.5186809144215658,colour,0.06
016,68,1,1,14,28,678,1172.9736721671652,1174.0243822324555,"[55, 0, 199]",199,a,0.5346446837065741,colour,0.06
016,68,1,1,14,29,679,1174.5333737418987,1175.600162973511,"[66, 0, 188]",188,l,0.5496974866837263,colour,0.06
016,68,1,1,14,30,680,1176.1095164277358,1177.5202169147087,"[93, 0, 161]",161,l,0.891998698702082,colour,0.06
016,68,1,1,14,31,681,1178.0300488920184,1178.592560165911,"[50, 0, 204]",204,a,0.04283786693122238,colour,0.06
016,68,1,1,14,32,682,1179.1027414848795,1179.8401354515227,"[74, 0, 180]",180,l,0.21959723706822842,colour,0.06
016,68,1,1,14,33,683,1180.3491856441833,1182.8881992640672,"[56, 0, 198]",198,a,2.0214264164678752,colour,0.06
016,68,1,1,14,34,684,1183.397045444348,1184.160299354582,"[77, 0, 177]",177,l,0.24592388840392232,colour,0.06
016,68,1,1,14,35,685,1184.6694275287446,1185.6081474182429,"[60, 0, 194]",194,a,0.4221362062962726,colour,0.06
016,68,1,1,14,36,686,1186.1170365276048,1188.136201872956,"[83, 0, 171]",171,l,1.5029380929190665,colour,0.06
016,68,1,1,14,37,687,1188.6451252470724,1189.4561566436896,"[39, 0, 215]",215,a,0.29317283316049725,colour,0.06
016,68,1,1,14,38,688,1189.965510491631,1190.8162057483569,"[68, 0, 186]",186,l,0.33271341933868825,colour,0.06
016,68,1,1,14,39,689,1191.3252945379354,1192.2721965828678,"[89, 0, 165]",165,l,0.4299335739342496,colour,0.06
016,68,1,1,14,40,690,1192.7816926093074,1193.7521939204307,"[70, 0, 184]",184,l,0.45119733188766986,colour,0.06
016,68,1,1,14,41,691,1194.2625871286727,1195.1441437822068,"[72, 0, 182]",182,l,0.36124482192099094,colour,0.06
016,68,1,1,14,42,692,1195.6545428980608,1196.4882212406956,"[67, 0, 187]",187,l,0.3118612306425348,colour,0.06
016,68,1,1,14,43,693,1196.997821636498,1198.5521464225603,"[79, 0, 175]",175,l,1.0349247084232047,colour,0.06
016,68,1,1,14,44,694,1199.0606657103635,1200.9761990845436,"[95, 0, 159]",159,l,1.3980387245537713,colour,0.06
016,68,1,1,14,45,695,1201.485756157199,1202.0243704171153,"[85, 0, 169]",169,l,0.020213370211422443,colour,0.06
016,68,1,1,14,46,696,1202.5340216190089,1203.4881759483833,"[64, 0, 190]",190,l,0.43775732920039445,colour,0.06
016,68,1,1,14,47,697,1203.997110744007,1204.5282194763422,"[54, 0, 200]",200,a,0.014688495197333395,colour,0.06
016,68,1,1,14,48,698,1205.0372700627195,1206.0401656201575,"[58, 0, 196]",196,a,0.48500981857068837,colour,0.06
016,68,1,1,14,49,699,1206.549163431162,1207.296172366012,"[78, 0, 176]",176,l,0.2290412759175524,colour,0.06
016,68,1,1,14,50,700,1207.8054127863143,1208.7841687205946,"[53, 0, 201]",201,a,0.46183196792844683,colour,0.06
016,68,1,1,15,1,701,1214.4365816982463,1216.2721812227974,"[77, 0, 177]",177,l,1.31673350231722,colour,0.06
016,68,1,1,15,2,702,1216.7821467140457,1217.888197688735,"[60, 0, 194]",194,a,0.585455967579037,colour,0.06
016,68,1,1,15,3,703,1218.3971895920113,1219.4561822436517,"[86, 0, 168]",168,l,0.5410868265898898,colour,0.06
016,68,1,1,15,4,704,1219.9653234146535,1220.8642345085973,"[55, 0, 199]",199,a,0.3826976261334494,colour,0.06
016,68,1,1,15,5,705,1221.3732208980946,1222.2722111551557,"[72, 0, 182]",182,l,0.37962050549685955,colour,0.06
016,68,1,1,15,6,706,1222.7814622092992,1223.6642023707973,"[81, 0, 173]",173,l,0.36518997966777533,colour,0.06
016,68,1,1,15,7,707,1224.1747787174536,1225.2322440333664,"[90, 0, 164]",164,l,0.5358021977590397,colour,0.06
016,68,1,1,15,8,708,1225.7411886751652,1226.8881898118416,"[69, 0, 185]",185,l,0.6288873607991263,colour,0.06
016,68,1,1,15,9,709,1227.3970887673786,1228.3202198292129,"[52, 0, 202]",202,a,0.40604876924771816,colour,0.06
016,68,1,1,15,10,710,1228.8289368278347,1229.6884703878313,"[80, 0, 174]",174,l,0.34206608578097075,colour,0.06
016,68,1,1,15,11,711,1230.1975989558268,1231.6562175322324,"[68, 0, 186]",186,l,0.9422727762721479,colour,0.06
016,68,1,1,15,12,712,1232.1653575217351,1232.936209907406,"[9, 0, 245]",245,a,0.2538819453911856,colour,0.06
016,68,1,1,15,13,713,1233.4452455276623,1235.0562310018577,"[58, 0, 196]",196,a,1.0933793660951778,colour,0.06
016,68,1,1,15,14,714,1235.5663760869065,1236.448186377529,"[50, 0, 204]",204,a,0.36062018189113587,colour,0.06
016,68,1,1,15,15,715,1236.9572984038386,1237.8641596778762,"[73, 0, 181]",181,l,0.39021339383907616,colour,0.06
016,68,1,1,15,16,716,1238.3731271626893,1239.3362001400674,"[78, 0, 176]",176,l,0.4450694784754887,colour,0.06
016,68,1,1,15,17,717,1239.8451065786649,1241.0642071757466,"[59, 0, 195]",195,a,0.7027508583851159,colour,0.06
016,68,1,1,15,18,718,1241.5751135655446,1242.5362681178376,"[64, 0, 190]",190,a,0.44167491770349443,colour,0.06
016,68,1,1,15,19,719,1243.0453356397338,1243.9281856842572,"[92, 0, 162]",162,l,0.3648693887516856,colour,0.06
016,68,1,1,15,20,720,1244.4372685661074,1245.0005840739468,"[87, 0, 167]",167,l,0.04528995358850807,colour,0.06
016,68,1,1,15,21,721,1245.510286869714,1246.5682070780313,"[38, 0, 216]",216,a,0.5411648080917075,colour,0.06
016,68,1,1,15,22,722,1247.0768854797352,1248.3121735507157,"[63, 0, 191]",191,l,0.7173802766483277,colour,0.06
016,68,1,1,15,23,723,1248.8215549679007,1250.4721802775748,"[61, 0, 193]",193,a,1.1326470169005916,colour,0.06
016,68,1,1,15,24,724,1250.9822379287798,1251.8082157899626,"[75, 0, 179]",179,l,0.30742258368991315,colour,0.06
016,68,1,1,15,25,725,1252.3171671270393,1253.6081600212492,"[76, 0, 178]",178,l,0.7745183063670993,colour,0.06
016,68,1,1,15,26,726,1254.1179931801744,1254.6642043399625,"[88, 0, 166]",166,l,0.02686976525001228,colour,0.06
016,68,1,1,15,27,727,1255.173553067958,1256.0721597188385,"[74, 0, 180]",180,l,0.38136091199703515,colour,0.06
016,68,1,1,15,28,728,1256.58117328363,1257.488251566887,"[70, 0, 184]",184,l,0.3886766057694331,colour,0.06
016,68,1,1,15,29,729,1257.9980673965765,1258.5445822118782,"[82, 0, 172]",172,l,0.02650703291874379,colour,0.06
016,68,1,1,15,30,730,1259.0560033586808,1259.944211681257,"[36, 0, 218]",218,a,0.3663073213538155,colour,0.06
016,68,1,1,15,31,731,1260.4542378247716,1261.2322081933962,"[91, 0, 163]",163,l,0.25971756502985954,colour,0.06
016,68,1,1,15,32,732,1261.742981069372,1262.9761884507025,"[84, 0, 170]",170,l,0.7141775190830231,colour,0.06
016,68,1,1,15,33,733,1263.4850732277846,1264.9041882395977,"[93, 0, 161]",161,l,0.9008555128239095,colour,0.06
016,68,1,1,15,34,734,1265.4130718351807,1266.5522310994565,"[54, 0, 200]",200,a,0.6212109038606286,colour,0.06
016,68,1,1,15,35,735,1267.0607818950666,1267.6722498307936,"[79, 0, 175]",175,l,0.09497641248162836,colour,0.06
016,68,1,1,15,36,736,1268.1816568480572,1269.5442245994927,"[67, 0, 187]",187,l,0.8443952924571931,colour,0.06
016,68,1,1,15,37,737,1270.0535745089874,1271.2881646844326,"[53, 0, 201]",201,a,0.7169935196870938,colour,0.06
016,68,1,1,15,38,738,1271.7979694863316,1272.3525924140122,"[97, 0, 157]",157,l,0.03459584678057581,colour,0.06
016,68,1,1,15,39,739,1272.862591382116,1273.7522837173892,"[51, 0, 203]",203,a,0.37163172860164195,colour,0.06
016,68,1,1,15,40,740,1274.2635717442026,1274.8802404195303,"[98, 0, 156]",156,l,0.09675068990327418,colour,0.06
016,68,1,1,15,41,741,1275.3897171474528,1276.0162304032128,"[95, 0, 159]",159,l,0.10966569546144456,colour,0.06
016,68,1,1,15,42,742,1276.5253089526668,1277.1121831604978,"[85, 0, 169]",169,l,0.06919720745645463,colour,0.06
016,68,1,1,15,43,743,1277.6218154578237,1278.2482133165468,"[94, 0, 160]",160,l,0.10797570121940225,colour,0.06
016,68,1,1,15,44,744,1278.757286746055,1279.7121838694438,"[71, 0, 183]",183,l,0.4349992241477594,colour,0.06
016,68,1,1,15,45,745,1280.221526295878,1280.9122160073603,"[89, 0, 165]",165,l,0.1730725757079199,colour,0.06
016,68,1,1,15,46,746,1281.421289436752,1282.3362647307804,"[83, 0, 171]",171,l,0.39829196757636964,colour,0.06
016,68,1,1,15,47,747,1282.846659908304,1283.7201793418499,"[56, 0, 198]",198,a,0.3534884143155068,colour,0.06
016,68,1,1,15,48,748,1284.2292819159338,1285.2002763225464,"[62, 0, 192]",192,a,0.45300075388513505,colour,0.06
016,68,1,1,15,49,749,1285.7093379365979,1286.5762190918904,"[57, 0, 197]",197,a,0.34640784666407853,colour,0.06
016,68,1,1,15,50,750,1287.0852877952857,1288.0241770385765,"[65, 0, 189]",189,a,0.4190854732878506,colour,0.06
016,68,1,1,16,1,751,1294.1325603707228,1295.7682337020524,"[87, 0, 167]",167,l,1.1181838017655537,colour,0.06
016,68,1,1,16,2,752,1296.2770983930677,1297.2482109534321,"[80, 0, 174]",174,l,0.44972434698138386,colour,0.06
016,68,1,1,16,3,753,1297.7572036444908,1298.6242005906533,"[39, 0, 215]",215,a,0.349369176547043,colour,0.06
016,68,1,1,16,4,754,1299.1332141554449,1299.9202181750443,"[75, 0, 179]",179,l,0.2702490132069215,colour,0.06
016,68,1,1,16,5,755,1300.42975870613,1301.3121790644946,"[92, 0, 162]",162,l,0.36595443508122116,colour,0.06
016,68,1,1,16,6,756,1301.8212442232762,1302.9604535060935,"[66, 0, 188]",188,l,0.6214377593714744,colour,0.06
016,68,1,1,16,7,757,1303.4700153048616,1304.3681973894127,"[57, 0, 197]",197,a,0.38123448740225285,colour,0.06
016,68,1,1,16,8,758,1304.8772137111519,1305.944221527432,"[95, 0, 159]",159,l,0.5511066685430706,colour,0.06
016,68,1,1,16,9,759,1306.4531984645873,1307.3681824232917,"[99, 0, 155]",155,l,0.3967571489047259,colour,0.06
016,68,1,1,16,10,760,1307.877185354242,1308.6642279707594,"[54, 0, 200]",200,a,0.2687567297834903,colour,0.06
016,68,1,1,16,11,761,1309.1735499172937,1310.488179099164,"[91, 0, 163]",163,l,0.7965504584135488,colour,0.06
016,68,1,1,16,12,762,1310.9973588672,1312.0162103170296,"[65, 0, 189]",189,l,0.5009042709134519,colour,0.06
016,68,1,1,16,13,763,1312.525587795768,1313.7761827005306,"[56, 0, 198]",198,a,0.7324606488691643,colour,0.06
016,68,1,1,16,14,764,1314.286417582538,1315.1281985236565,"[93, 0, 161]",161,l,0.32283142348751426,colour,0.06
016,68,1,1,16,15,765,1315.6371179593261,1316.5121891469462,"[78, 0, 176]",176,l,0.35870845208410174,colour,0.06
016,68,1,1,16,16,766,1317.0220514504472,1317.864197487128,"[52, 0, 202]",202,a,0.3237672022078186,colour,0.06
016,68,1,1,16,17,767,1318.3741901536705,1319.7361643788172,"[76, 0, 178]",178,l,0.84082980256062,colour,0.06
016,68,1,1,16,18,768,1320.2452823128551,1320.864247899386,"[71, 0, 183]",183,l,0.10220388474408537,colour,0.06
016,68,1,1,16,19,769,1321.3733528365847,1322.120188085246,"[84, 0, 170]",170,l,0.22935320215765387,colour,0.06
016,68,1,1,16,20,770,1322.6309294534149,1323.5921903442359,"[96, 0, 158]",158,l,0.43905347713734955,colour,0.06
016,68,1,1,16,21,771,1324.1009849306429,1324.9122404258233,"[44, 0, 210]",210,a,0.2944567719241604,colour,0.06
016,68,1,1,16,22,772,1325.4211460767547,1326.0241908231983,"[50, 0, 204]",204,a,0.08604910003487021,colour,0.06
016,68,1,1,16,23,773,1326.5332008434925,1327.3842383525334,"[27, 0, 227]",227,a,0.33386778261046857,colour,0.06
016,68,1,1,16,24,774,1327.8932747604558,1328.984207553789,"[97, 0, 157]",157,l,0.5737126545282081,colour,0.06
016,68,1,1,16,25,775,1329.49323766015,1330.3281983661,"[60, 0, 194]",194,a,0.3153625235427171,colour,0.06
016,68,1,1,16,26,776,1330.8374454817967,1331.5042716561584,"[79, 0, 175]",175,l,0.14788374595809728,colour,0.06
016,68,1,1,16,27,777,1332.014594759792,1332.672338446253,"[77, 0, 177]",177,l,0.13778434717096388,colour,0.06
016,68,1,1,16,28,778,1333.18162140192,1334.1522294454044,"[89, 0, 165]",165,l,0.45358404016587883,colour,0.06
016,68,1,1,16,29,779,1334.66253443202,1335.8241953130346,"[61, 0, 193]",193,a,0.6423962864791974,colour,0.06
016,68,1,1,16,30,780,1336.3335381333018,1337.544235627167,"[90, 0, 164]",164,l,0.6945742167299613,colour,0.06
016,68,1,1,16,31,781,1338.053398459684,1339.1842109408462,"[81, 0, 173]",173,l,0.614468650193885,colour,0.06
016,68,1,1,16,32,782,1339.693204813404,1340.4965187931666,"[64, 0, 190]",190,a,0.2870434041833505,colour,0.06
016,68,1,1,16,33,783,1341.0053704872262,1341.8241815284127,"[72, 0, 182]",182,l,0.30254952411632985,colour,0.06
016,68,1,1,16,34,784,1342.3331446809461,1343.560296676471,"[51, 0, 203]",203,a,0.7103060106746852,colour,0.06
016,68,1,1,16,35,785,1344.0693712874781,1344.6165761214215,"[55, 0, 199]",199,a,0.027553482330404222,colour,0.06
016,68,1,1,16,36,786,1345.1258744370425,1346.2481991380919,"[82, 0, 172]",172,l,0.6045838975114748,colour,0.06
016,68,1,1,16,37,787,1346.7600617866265,1347.824250057689,"[83, 0, 171]",171,l,0.5438496578717604,colour,0.06
016,68,1,1,16,38,788,1348.333411314874,1350.6962126170984,"[63, 0, 191]",191,a,1.843869507778436,colour,0.06
016,68,1,1,16,39,789,1351.2056810742943,1352.0321894462686,"[88, 0, 166]",166,l,0.3078317898325622,colour,0.06
016,68,1,1,16,40,790,1352.5410072696395,1353.528213962447,"[69, 0, 185]",185,l,0.47039536642841995,colour,0.06
016,68,1,1,16,41,791,1354.0378954905318,1355.000234338455,"[98, 0, 156]",156,l,0.4451746352715418,colour,0.06
016,68,1,1,16,42,792,1355.5110473867971,1356.4241826311918,"[67, 0, 187]",187,l,0.39194277254864573,colour,0.06
016,68,1,1,16,43,793,1356.9336136730853,1357.9124239580706,"[59, 0, 195]",195,a,0.4595354504417628,colour,0.06
016,68,1,1,16,44,794,1358.4218672092538,1359.2562517181505,"[58, 0, 196]",196,a,0.3163152376655489,colour,0.06
016,68,1,1,16,45,795,1359.766023437027,1360.3529645986855,"[53, 0, 201]",201,a,0.06661515159066767,colour,0.06
016,68,1,1,16,46,796,1360.86303879146,1361.7921838852344,"[68, 0, 186]",186,l,0.41236960736569017,colour,0.06
016,68,1,1,16,47,797,1362.3016680963337,1363.1042861497262,"[70, 0, 184]",184,l,0.2813082153443247,colour,0.06
016,68,1,1,16,48,798,1363.6132725392235,1364.424203111208,"[73, 0, 181]",181,l,0.2944221133366227,colour,0.06
016,68,1,1,16,49,799,1364.9322891682386,1365.8402370639378,"[74, 0, 180]",180,l,0.3912527540232986,colour,0.06
016,68,1,1,16,50,800,1366.3509721306618,1367.240280071972,"[86, 0, 168]",168,l,0.36941673746332526,colour,0.06
