id,age,condition,counterbalance,block,trialinblock,trial,tstart,tend,trialstim,trialintensity,response,RT,trialtype,colourfreq
150,22,1,2,Practice,1,NA,5.907728336751461e-06,0.5897822270635515,"[23, 0, 231]",231,a,0.06514324562158436,colour,0.5
150,22,1,2,Practice,2,NA,1.1103626294061542,1.653799861902371,"[68, 0, 186]",186,a,0.020291319815441966,colour,0.5
150,22,1,2,Practice,3,NA,2.172732020379044,9.57377397827804,"[80, 0, 174]",174,a,6.877835392951965,colour,0.5
150,22,1,2,Practice,4,NA,10.094552091206424,11.62975204270333,"[77, 0, 177]",177,a,1.0120067773386836,colour,0.5
150,22,1,2,Practice,5,NA,12.141787964617833,12.685735620907508,"[8, 0, 246]",246,a,0.02104710938874632,colour,0.5
150,22,1,2,Practice,6,NA,13.19148458528798,16.11778977001086,"[33, 0, 221]",221,a,2.4029812538065016,colour,0.5
150,22,1,2,Practice,7,NA,16.629026185255498,17.205788270221092,"[2, 0, 252]",252,a,0.05337041267193854,colour,0.5
150,22,1,2,Practice,8,NA,17.72277680062689,18.382018821081147,"[99, 0, 155]",155,l,0.14286788913886994,colour,0.5
150,22,1,2,Practice,9,NA,18.903604317456484,20.69375352980569,"[22, 0, 232]",232,a,1.266835127491504,colour,0.5
150,22,1,2,Practice,10,NA,21.200533188180998,22.357793771428987,"[61, 0, 193]",193,a,0.6340260552242398,colour,0.5
150,22,1,2,1,1,1,4.3872868999606,4.975975417764857,"[86, 0, 168]",168,l,0.06459186179563403,colour,0.5
150,22,1,2,1,2,2,5.483736933209002,6.048004660056904,"[93, 0, 161]",161,l,0.041145838680677116,colour,0.5
150,22,1,2,1,3,3,6.561868813238107,7.72808741487097,"[32, 0, 222]",222,a,0.6428541046334431,colour,0.5
150,22,1,2,1,4,4,8.249435028526932,9.61591112636961,"[27, 0, 227]",227,a,0.8432726836763322,colour,0.5
150,22,1,2,1,5,5,10.124370930134319,11.407975609996356,"[61, 0, 193]",193,a,0.7602240352425724,colour,0.5
150,22,1,2,1,6,6,11.921957916812971,12.46397927426733,"[13, 0, 241]",241,a,0.017234683968126774,colour,0.5
150,22,1,2,1,7,7,12.970264262519777,14.736024585436098,"[57, 0, 197]",197,a,1.242436391999945,colour,0.5
150,22,1,2,1,8,8,15.251478693331592,15.79197941289749,"[31, 0, 223]",223,a,0.029860586510039866,colour,0.5
150,22,1,2,1,9,9,16.30155734438449,17.463952098973095,"[64, 0, 190]",190,a,0.6391338390531018,colour,0.5
150,22,1,2,1,10,10,17.973437870503403,18.55205299903173,"[94, 0, 160]",160,l,0.055322705302387476,colour,0.5
150,22,1,2,1,11,11,19.067123107495718,19.623968419851735,"[99, 0, 155]",155,l,0.03364938125014305,colour,0.5
150,22,1,2,1,12,12,20.145275861257687,21.215949880774133,"[40, 0, 214]",214,a,0.5474532761145383,colour,0.5
150,22,1,2,1,13,13,21.723430190468207,22.248021910432726,"[33, 0, 221]",221,a,0.0013308043126016855,colour,0.5
150,22,1,2,1,14,14,22.77218788326718,24.015942870406434,"[76, 0, 178]",178,l,0.7204420838970691,colour,0.5
150,22,1,2,1,15,15,24.52248937205877,25.544248948222958,"[89, 0, 165]",165,l,0.4988472138065845,colour,0.5
150,22,1,2,1,16,16,26.05355315702036,26.70389978052117,"[83, 0, 171]",171,l,0.12719874165486544,colour,0.5
150,22,1,2,1,17,17,27.225390360108577,27.775932173477486,"[24, 0, 230]",230,a,0.02726317464839667,colour,0.5
150,22,1,2,1,18,18,28.288020082982257,29.271943698986433,"[20, 0, 234]",234,a,0.4607005094876513,colour,0.5
150,22,1,2,1,19,19,29.78786333242897,30.679973265738226,"[34, 0, 220]",220,a,0.368748193141073,colour,0.5
150,22,1,2,1,20,20,31.19414107396733,32.27992576803081,"[69, 0, 185]",185,a,0.5624875446083024,colour,0.5
150,22,1,2,1,21,21,32.78785269858781,33.671919910702854,"[98, 0, 156]",156,l,0.3607818780001253,colour,0.5
150,22,1,2,1,22,22,34.17848098475952,35.26395217771642,"[71, 0, 183]",183,l,0.5624721846543252,colour,0.5
150,22,1,2,1,23,23,35.772226480185054,36.97591003938578,"[73, 0, 181]",181,l,0.680382865248248,colour,0.5
150,22,1,2,1,24,24,37.49098841857631,39.78388115949929,"[3, 0, 251]",251,a,1.769529425422661,colour,0.5
150,22,1,2,1,25,25,40.303483643219806,41.47998319065664,"[17, 0, 237]",237,a,0.6532445395132527,colour,0.5
150,22,1,2,1,26,26,41.990931311040185,42.52794610301498,"[15, 0, 239]",239,a,0.01363926730118692,colour,0.5
150,22,1,2,1,27,27,43.03796356613748,44.544013034785166,"[11, 0, 243]",243,a,0.9828720482764766,colour,0.5
150,22,1,2,1,28,28,45.053447212441824,45.69594173610676,"[65, 0, 189]",189,l,0.11923675879370421,colour,0.5
150,22,1,2,1,29,29,46.19583854847588,46.75995779549703,"[1, 0, 253]",253,a,0.0408417897997424,colour,0.5
150,22,1,2,1,30,30,47.273840853362344,48.063935715006664,"[22, 0, 232]",232,a,0.2666992509039119,colour,0.5
150,22,1,2,1,31,31,48.57082446850836,49.35998158378061,"[50, 0, 204]",204,a,0.26585839048493654,colour,0.5
150,22,1,2,1,32,32,49.86770253314171,50.392330486909486,"[55, 0, 199]",199,a,0.0016431239200755954,colour,0.5
150,22,1,2,1,33,33,50.91447406250518,52.74400350369979,"[59, 0, 195]",195,a,1.3060849935282022,colour,0.5
150,22,1,2,1,34,34,53.25839422841091,53.83191181323491,"[88, 0, 166]",166,l,0.05024564149789512,colour,0.5
150,22,1,2,1,35,35,54.35212003160268,54.887908782227896,"[42, 0, 212]",212,a,0.01248175511136651,colour,0.5
150,22,1,2,1,36,36,55.39900262537412,56.64788272534497,"[96, 0, 158]",158,l,0.7256373012205586,colour,0.5
150,22,1,2,1,37,37,57.16645530285314,58.15990840725135,"[75, 0, 179]",179,a,0.47015792422462255,colour,0.5
150,22,1,2,1,38,38,58.66719494492281,61.06390538881533,"[41, 0, 213]",213,a,1.8736425125971437,colour,0.5
150,22,1,2,1,39,39,61.57345023727976,62.14393245393876,"[38, 0, 216]",216,a,0.047213030280545354,colour,0.5
150,22,1,2,1,40,40,62.651547852670774,63.22395124821924,"[19, 0, 235]",235,a,0.04928583977743983,colour,0.5
150,22,1,2,1,41,41,63.73152450553607,64.28793540620245,"[28, 0, 226]",226,a,0.03308460675179958,colour,0.5
150,22,1,2,1,42,42,64.79408294230234,65.52787245390937,"[54, 0, 200]",200,a,0.2104699129704386,colour,0.5
150,22,1,2,1,43,43,66.04408944083843,67.27985054347664,"[48, 0, 206]",206,a,0.7124993993202224,colour,0.5
150,22,1,2,1,44,44,67.79426647443324,68.35196721949615,"[87, 0, 167]",167,l,0.03420785441994667,colour,0.5
150,22,1,2,1,45,45,68.8726594740292,69.39995179336984,"[35, 0, 219]",219,a,0.006909627467393875,colour,0.5
150,22,1,2,1,46,46,69.91720735107083,70.63986836106051,"[58, 0, 196]",196,a,0.19969075242988765,colour,0.5
150,22,1,2,1,47,47,71.15155415423214,71.71985170932021,"[37, 0, 217]",217,a,0.056126544252038,colour,0.5
150,22,1,2,1,48,48,72.2341018312145,73.37590042955708,"[2, 0, 252]",252,a,0.6189681560499594,colour,0.5
150,22,1,2,1,49,49,73.89032423740719,74.44792100717314,"[95, 0, 159]",159,l,0.043525847722776234,colour,0.5
150,22,1,2,1,50,50,74.95915505941957,75.95985846768599,"[29, 0, 225]",225,a,0.47646339249331504,colour,0.5
150,22,1,2,2,1,51,81.44692497164942,82.25585431815125,"[98, 0, 156]",156,l,0.2847873982973397,colour,0.5
150,22,1,2,2,2,52,82.7758522228105,83.33590422617272,"[51, 0, 203]",203,a,0.03680920461192727,colour,0.5
150,22,1,2,2,3,53,83.85400576435495,84.90386858792044,"[39, 0, 215]",215,a,0.526683040196076,colour,0.5
150,22,1,2,2,4,54,85.41648897668347,86.84790194511879,"[87, 0, 167]",167,l,0.9082217634422705,colour,0.5
150,22,1,2,2,5,55,87.35393369058147,88.11986612400506,"[67, 0, 187]",187,a,0.24264355469495058,colour,0.5
150,22,1,2,2,6,56,88.63517608447,92.71184443414677,"[15, 0, 239]",239,a,3.5533471757080406,colour,0.5
150,22,1,2,2,7,57,93.22891645983327,93.85582139261533,"[14, 0, 240]",240,a,0.10359872493427247,colour,0.5
150,22,1,2,2,8,58,94.3694827152649,94.98387950530741,"[61, 0, 193]",193,l,0.09099251450970769,colour,0.5
150,22,1,2,2,9,59,95.49459722591564,96.49583232577424,"[17, 0, 237]",237,a,0.47799387644045055,colour,0.5
150,22,1,2,2,10,60,97.00471984583419,98.15189719374757,"[26, 0, 228]",228,a,0.6238486908841878,colour,0.5
150,22,1,2,2,11,61,98.66104071342852,100.08783111581579,"[10, 0, 244]",244,a,0.9035834436072037,colour,0.5
150,22,1,2,2,12,62,100.59843501506839,101.79185456386767,"[99, 0, 155]",155,l,0.6701791131636128,colour,0.5
150,22,1,2,2,13,63,102.30155655660201,103.168151595979,"[91, 0, 163]",163,l,0.3433530282927677,colour,0.5
150,22,1,2,2,14,64,103.67636760917958,104.61584062804468,"[97, 0, 157]",157,l,0.41594822669867426,colour,0.5
150,22,1,2,2,15,65,105.12966933508869,106.11191123037133,"[64, 0, 190]",190,l,0.4565348045434803,colour,0.5
150,22,1,2,2,16,66,106.63215016864706,107.48786640446633,"[0, 0, 254]",254,a,0.33306814392562956,colour,0.5
150,22,1,2,2,17,67,108.0070699226344,108.8878410407342,"[11, 0, 243]",243,a,0.3558434478472918,colour,0.5
150,22,1,2,2,18,68,109.39927280345,110.3038274704013,"[49, 0, 205]",205,a,0.3814575910801068,colour,0.5
150,22,1,2,2,19,69,110.82286360417493,111.61581345263403,"[27, 0, 227]",227,a,0.2697216219967231,colour,0.5
150,22,1,2,2,20,70,112.13537379493937,113.04780261719134,"[70, 0, 184]",184,l,0.38908126053866,colour,0.5
150,22,1,2,2,21,71,113.55715526896529,114.48782150598709,"[34, 0, 220]",220,a,0.4074250137200579,colour,0.5
150,22,1,2,2,22,72,114.99472325656097,115.93577599013224,"[44, 0, 210]",210,a,0.4177488888381049,colour,0.5
150,22,1,2,2,23,73,116.4478249088861,117.37583032506518,"[62, 0, 192]",192,a,0.40470826672390103,colour,0.5
150,22,1,2,2,24,74,117.8853385457769,118.88889103312977,"[28, 0, 226]",226,a,0.48023210105020553,colour,0.5
150,22,1,2,2,25,75,119.4009261673782,121.01587631041184,"[69, 0, 185]",185,a,1.0918810302391648,colour,0.5
150,22,1,2,2,26,76,121.52594142884482,122.19981757074129,"[56, 0, 198]",198,l,0.15057781094219536,colour,0.5
150,22,1,2,2,27,77,122.71343990275636,123.35184630891308,"[29, 0, 225]",225,a,0.11295531515497714,colour,0.5
150,22,1,2,2,28,78,123.87184578902088,124.98389525909442,"[46, 0, 208]",208,a,0.5887302653864026,colour,0.5
150,22,1,2,2,29,79,125.49685868737288,126.17583749303594,"[68, 0, 186]",186,a,0.15579114528372884,colour,0.5
150,22,1,2,2,30,80,126.6842969028512,127.25611110543832,"[18, 0, 236]",236,a,0.048734062002040446,colour,0.5
150,22,1,2,2,31,81,127.7547255565878,128.39980252587702,"[85, 0, 169]",169,l,0.12045571091584861,colour,0.5
150,22,1,2,2,32,82,128.91229097626638,131.5438165058149,"[59, 0, 195]",195,l,2.1082902138587087,colour,0.5
150,22,1,2,2,33,83,132.05286786565557,132.62385026621632,"[13, 0, 241]",241,a,0.04770061117596924,colour,0.5
150,22,1,2,2,34,84,133.13095878565218,133.81579958926886,"[90, 0, 164]",164,l,0.1616346325026825,colour,0.5
150,22,1,2,2,35,85,134.33413310255855,135.5198324896628,"[58, 0, 196]",196,a,0.6626432712655514,colour,0.5
150,22,1,2,2,36,86,136.0390631831251,136.91186444147024,"[79, 0, 175]",175,l,0.34946629975456744,colour,0.5
150,22,1,2,2,37,87,137.42961978935637,138.77587427815888,"[4, 0, 250]",250,a,0.8229293763870373,colour,0.5
150,22,1,2,2,38,88,139.2889775217045,140.15973511524498,"[3, 0, 251]",251,a,0.34734544123057276,colour,0.5
150,22,1,2,2,39,89,140.6796770938672,142.74381051934324,"[55, 0, 199]",199,a,1.5408461221959442,colour,0.5
150,22,1,2,2,40,90,143.2577676200308,143.81583739852067,"[16, 0, 238]",238,a,0.035105428542010486,colour,0.5
150,22,1,2,2,41,91,144.33728268591221,145.49578742741141,"[74, 0, 180]",180,l,0.6334786098450422,colour,0.5
150,22,1,2,2,42,92,146.0128515762044,148.4079039300559,"[23, 0, 231]",231,a,1.8717339368304238,colour,0.5
150,22,1,2,2,43,93,148.92161724041216,152.27177276997827,"[30, 0, 224]",224,a,2.826809937134385,colour,0.5
150,22,1,2,2,44,94,152.78101908345707,154.575807403191,"[53, 0, 201]",201,a,1.2716132624773309,colour,0.5
150,22,1,2,2,45,95,155.09350879420526,156.05576932616532,"[86, 0, 168]",168,l,0.4390137947630137,colour,0.5
150,22,1,2,2,46,96,156.56418620073237,157.12775957770646,"[33, 0, 221]",221,a,0.04032073204871267,colour,0.5
150,22,1,2,2,47,97,157.64229760074522,159.3517387890024,"[38, 0, 216]",216,a,1.1863173308083788,colour,0.5
150,22,1,2,2,48,98,159.86106347769964,160.47975948639214,"[1, 0, 253]",253,a,0.09544533304870129,colour,0.5
150,22,1,2,2,49,99,160.98604841309134,163.0717551257694,"[95, 0, 159]",159,l,1.5624194093979895,colour,0.5
150,22,1,2,2,50,100,163.5797218347434,164.74377940548584,"[57, 0, 197]",197,l,0.6409943655598909,colour,0.5
150,22,1,2,3,1,101,248.783043449861,250.11164065846242,"[71, 0, 183]",183,l,0.8169129908783361,colour,0.5
150,22,1,2,3,2,102,250.63082015200052,252.20763698150404,"[60, 0, 194]",194,a,1.0535342523362488,colour,0.5
150,22,1,2,3,3,103,252.72450972127263,255.999623877462,"[81, 0, 173]",173,l,2.7518776590004563,colour,0.5
150,22,1,2,3,4,104,256.5057391182054,257.3839774153894,"[2, 0, 252]",252,a,0.3549273631069809,colour,0.5
150,22,1,2,3,5,105,257.89633550297003,258.5836819523247,"[41, 0, 213]",213,a,0.17663187952712178,colour,0.5
150,22,1,2,3,6,106,259.10270272614434,260.0556011541048,"[17, 0, 237]",237,a,0.42972494603600353,colour,0.5
150,22,1,2,3,7,107,260.5714089354733,261.60758089786395,"[23, 0, 231]",231,a,0.5129126221872866,colour,0.5
150,22,1,2,3,8,108,262.118256477057,262.92761787213385,"[35, 0, 219]",219,a,0.28615207329858094,colour,0.5
150,22,1,2,3,9,109,263.44643699692097,264.22363971639425,"[10, 0, 244]",244,a,0.2539146285271272,colour,0.5
150,22,1,2,3,10,110,264.74326425546315,265.5516843595542,"[38, 0, 216]",216,a,0.2850788439391181,colour,0.5
150,22,1,2,3,11,111,266.07133528625127,266.8315754691139,"[27, 0, 227]",227,a,0.23690798110328615,colour,0.5
150,22,1,2,3,12,112,267.3526863815496,268.1836647806922,"[45, 0, 209]",209,a,0.307826972566545,colour,0.5
150,22,1,2,3,13,113,268.69638205552474,269.55163355346303,"[93, 0, 161]",161,l,0.33204572077374905,colour,0.5
150,22,1,2,3,14,114,270.0714266585419,270.927588333725,"[39, 0, 215]",215,a,0.33294565801043063,colour,0.5
150,22,1,2,3,15,115,271.4463759508217,272.31966912245844,"[66, 0, 188]",188,l,0.3500279237050563,colour,0.5
150,22,1,2,3,16,116,272.83726771967486,273.7036429931177,"[7, 0, 247]",247,a,0.3430785178206861,colour,0.5
150,22,1,2,3,17,117,274.212265455164,275.0075638049748,"[84, 0, 170]",170,l,0.27206697268411517,colour,0.5
150,22,1,2,3,18,118,275.5247082982678,276.46365592698567,"[53, 0, 201]",201,a,0.4156642638845369,colour,0.5
150,22,1,2,3,19,119,276.9778851751471,277.9756973627955,"[19, 0, 235]",235,a,0.4789851859677583,colour,0.5
150,22,1,2,3,20,120,278.4890388827771,279.439558877144,"[62, 0, 192]",192,a,0.4262177508790046,colour,0.5
150,22,1,2,3,21,121,279.9588517983211,280.8075571883237,"[92, 0, 162]",162,l,0.32538736681453884,colour,0.5
150,22,1,2,3,22,122,281.3181008292595,282.1915724128485,"[80, 0, 174]",174,l,0.3502437510760501,colour,0.5
150,22,1,2,3,23,123,282.70879213069566,283.59158367686905,"[77, 0, 177]",177,l,0.35740307660307735,colour,0.5
150,22,1,2,3,24,124,284.1015483646188,284.9196228062501,"[42, 0, 212]",212,a,0.29494585806969553,colour,0.5
150,22,1,2,3,25,125,285.42971431231126,286.30362975993194,"[12, 0, 242]",242,a,0.3505816705292091,colour,0.5
150,22,1,2,3,26,126,286.8203575646039,287.54358216759283,"[5, 0, 249]",249,a,0.2000302473315969,colour,0.5
150,22,1,2,3,27,127,288.05572403396945,288.7276262216037,"[87, 0, 167]",167,l,0.14828602329362184,colour,0.5
150,22,1,2,3,28,128,289.24344699981157,289.85560477757826,"[40, 0, 214]",214,a,0.08956718735862523,colour,0.5
150,22,1,2,3,29,129,290.3684776213486,290.99968452972826,"[29, 0, 225]",225,a,0.10831581382080913,colour,0.5
150,22,1,2,3,30,130,291.5091651811963,292.27163216716144,"[74, 0, 180]",180,l,0.23929350404068828,colour,0.5
150,22,1,2,3,31,131,292.7902681537671,293.3675958010135,"[6, 0, 248]",248,a,0.053912344155833125,colour,0.5
150,22,1,2,3,32,132,293.8841436181683,294.43155790364835,"[97, 0, 157]",157,l,0.024301849654875696,colour,0.5
150,22,1,2,3,33,133,294.93733364949003,295.9196661291644,"[69, 0, 185]",185,l,0.45893923193216324,colour,0.5
150,22,1,2,3,34,134,296.4373277417617,297.15159235720057,"[28, 0, 226]",226,a,0.19080441386904567,colour,0.5
150,22,1,2,3,35,135,297.6717214125674,298.28760615130886,"[26, 0, 228]",228,a,0.09254308475647122,colour,0.5
150,22,1,2,3,36,136,298.7967874801252,300.1196061859373,"[55, 0, 199]",199,a,0.7995747255627066,colour,0.5
150,22,1,2,3,37,137,300.64040635421406,301.44759529689327,"[73, 0, 181]",181,l,0.28380081499926746,colour,0.5
150,22,1,2,3,38,138,301.968610898708,302.72757856629323,"[79, 0, 175]",175,l,0.2356783951399848,colour,0.5
150,22,1,2,3,39,139,303.23416248336434,303.7996605838416,"[46, 0, 208]",208,a,0.04279959632549435,colour,0.5
150,22,1,2,3,40,140,304.3123006649548,305.2635736920638,"[70, 0, 184]",184,l,0.42799005622509867,colour,0.5
150,22,1,2,3,41,141,305.78101356956176,306.6875394338276,"[59, 0, 195]",195,a,0.38315624720416963,colour,0.5
150,22,1,2,3,42,142,307.2029533694731,307.7915591796627,"[78, 0, 176]",176,l,0.0653429253725335,colour,0.5
150,22,1,2,3,43,143,308.31233335414436,308.879518295289,"[49, 0, 205]",205,a,0.04391969321295619,colour,0.5
150,22,1,2,3,44,144,309.3904045819072,309.91956884937827,"[50, 0, 204]",204,a,0.005815524258650839,colour,0.5
150,22,1,2,3,45,145,310.4372521234909,311.9835344965104,"[54, 0, 200]",200,a,1.0229052730137482,colour,0.5
150,22,1,2,3,46,146,312.49980110803153,313.0635253278306,"[96, 0, 158]",158,l,0.04079295299015939,colour,0.5
150,22,1,2,3,47,147,313.57784200960305,314.2555392415961,"[47, 0, 207]",207,a,0.15436227340251207,colour,0.5
150,22,1,2,3,48,148,314.7660785501357,315.56755279307254,"[82, 0, 172]",172,a,0.2788946802029386,colour,0.5
150,22,1,2,3,49,149,316.07787627424113,316.6794919864042,"[3, 0, 251]",251,a,0.07823152292985469,colour,0.5
150,22,1,2,3,50,150,317.18722593272105,318.3675721702166,"[36, 0, 218]",218,a,0.6570293958066031,colour,0.5
150,22,1,2,4,1,151,324.34343179734424,325.4395305203507,"[76, 0, 178]",178,l,0.5719118763227016,colour,0.5
150,22,1,2,4,2,152,325.9538255406078,327.47950821288396,"[72, 0, 182]",182,l,1.002513128798455,colour,0.5
150,22,1,2,4,3,153,328.0006951375399,329.1755098134745,"[93, 0, 161]",161,l,0.6518081845715642,colour,0.5
150,22,1,2,4,4,154,329.6880888484884,330.73560120142065,"[85, 0, 169]",169,l,0.5241537636611611,colour,0.5
150,22,1,2,4,5,155,331.23828722850885,331.85553034069017,"[11, 0, 243]",243,a,0.10645725636277348,colour,0.5
150,22,1,2,4,6,156,332.3664804302389,333.02350509993266,"[46, 0, 208]",208,a,0.13384528015740216,colour,0.5
150,22,1,2,4,7,157,333.53837592247874,334.1675344398245,"[30, 0, 224]",224,a,0.10594998311717063,colour,0.5
150,22,1,2,4,8,158,334.6789925901685,335.3835162221221,"[14, 0, 240]",240,a,0.18120954709593207,colour,0.5
150,22,1,2,4,9,159,335.897784067085,336.43153663596604,"[70, 0, 184]",184,l,0.010453450260683894,colour,0.5
150,22,1,2,4,10,160,336.94461427943315,338.2955669525545,"[86, 0, 168]",168,l,0.8331528207054362,colour,0.5
150,22,1,2,4,11,161,338.81588072155137,339.97550595377106,"[44, 0, 210]",210,a,0.6364328457275406,colour,0.5
150,22,1,2,4,12,162,340.48781087226234,341.143824146362,"[13, 0, 241]",241,a,0.13267949712462723,colour,0.5
150,22,1,2,4,13,163,341.6596437430708,342.5435341184493,"[3, 0, 251]",251,a,0.35978859942406416,colour,0.5
150,22,1,2,4,14,164,343.05360435694456,343.8955198486801,"[20, 0, 234]",234,a,0.31724185193888843,colour,0.5
150,22,1,2,4,15,165,344.41573200537823,345.15154745883774,"[99, 0, 155]",155,l,0.21248797792941332,colour,0.5
150,22,1,2,4,16,166,345.6556603885256,346.31151100446004,"[79, 0, 175]",175,l,0.13258891261648387,colour,0.5
150,22,1,2,4,17,167,346.82746253942605,347.6634786177892,"[87, 0, 167]",167,l,0.31270081212278455,colour,0.5
150,22,1,2,4,18,168,348.1731534352293,348.8074492746964,"[69, 0, 185]",185,l,0.11100538552273065,colour,0.5
150,22,1,2,4,19,169,349.3137649828568,349.9914500056766,"[32, 0, 222]",222,a,0.15439811337273568,colour,0.5
150,22,1,2,4,20,170,350.5012504598126,351.42350218549836,"[39, 0, 215]",215,a,0.3990380715113133,colour,0.5
150,22,1,2,4,21,171,351.93870580755174,352.67150597902946,"[96, 0, 158]",158,l,0.20947190816514194,colour,0.5
150,22,1,2,4,22,172,353.18872609059326,353.8954784948146,"[78, 0, 176]",176,l,0.18339342100080103,colour,0.5
150,22,1,2,4,23,173,354.4046606114134,355.0395038963761,"[36, 0, 218]",218,a,0.11140001879539341,colour,0.5
150,22,1,2,4,24,174,355.56096454372164,356.3994464894058,"[22, 0, 232]",232,a,0.3151895224582404,colour,0.5
150,22,1,2,4,25,175,356.9202769837575,357.5994487736607,"[19, 0, 235]",235,a,0.1558781850617379,colour,0.5
150,22,1,2,4,26,176,358.10783217137214,358.85554688225966,"[77, 0, 177]",177,l,0.22329982765950263,colour,0.5
150,22,1,2,4,27,177,359.3746046774322,359.9914614271838,"[33, 0, 221]",221,a,0.09579231101088226,colour,0.5
150,22,1,2,4,28,178,360.51409376517404,361.81549238972366,"[52, 0, 202]",202,a,0.7781428288435563,colour,0.5
150,22,1,2,4,29,179,362.3265874144854,363.2794704824919,"[55, 0, 199]",199,a,0.42960364161990583,colour,0.5
150,22,1,2,4,30,180,363.79726088256575,364.8635131974006,"[2, 0, 252]",252,a,0.5429929746314883,colour,0.5
150,22,1,2,4,31,181,365.37748368887696,366.0074495897861,"[66, 0, 188]",188,l,0.10664905922021717,colour,0.5
150,22,1,2,4,32,182,366.5060026010033,367.3114282968454,"[10, 0, 244]",244,a,0.2820407188264653,colour,0.5
150,22,1,2,4,33,183,367.8184812840773,368.71188106178306,"[18, 0, 236]",236,a,0.3701203513192013,colour,0.5
150,22,1,2,4,34,184,369.2246774995001,369.8234622494783,"[8, 0, 246]",246,a,0.07555809884797782,colour,0.5
150,22,1,2,4,35,185,370.334107108647,370.8954773133155,"[74, 0, 180]",180,l,0.03820971958339214,colour,0.5
150,22,1,2,4,36,186,371.4122425332898,372.19945641432423,"[65, 0, 189]",189,l,0.26429797417949885,colour,0.5
150,22,1,2,4,37,187,372.70602260832675,373.26346065837424,"[40, 0, 214]",214,a,0.03403968224301934,colour,0.5
150,22,1,2,4,38,188,373.78508002555463,374.43161816196516,"[0, 0, 254]",254,a,0.1234004944562912,colour,0.5
150,22,1,2,4,39,189,374.93832968501374,375.56749568542,"[92, 0, 162]",162,l,0.10589326941408217,colour,0.5
150,22,1,2,4,40,190,376.07935870904475,377.6474943936337,"[49, 0, 205]",205,l,1.0449043073458597,colour,0.5
150,22,1,2,4,41,191,378.1450643661665,378.9754618430743,"[57, 0, 197]",197,l,0.30718973034527153,colour,0.5
150,22,1,2,4,42,192,379.48875452624634,380.0794780442957,"[28, 0, 226]",226,a,0.067332633305341,colour,0.5
150,22,1,2,4,43,193,380.59806952637155,381.1674694552785,"[5, 0, 249]",249,a,0.04611892718821764,colour,0.5
150,22,1,2,4,44,194,381.6762128279079,383.1675529505592,"[34, 0, 220]",220,a,0.9717754480661824,colour,0.5
150,22,1,2,4,45,195,383.6880195316626,384.295438558911,"[31, 0, 223]",223,a,0.08403326256666332,colour,0.5
150,22,1,2,4,46,196,384.81485042138956,386.07142626459245,"[68, 0, 186]",186,l,0.7331081585725769,colour,0.5
150,22,1,2,4,47,197,386.5804319384042,387.34344400663394,"[88, 0, 166]",166,l,0.2396077928133309,colour,0.5
150,22,1,2,4,48,198,387.8617727936944,388.5514307229314,"[58, 0, 196]",196,a,0.16487952647730708,colour,0.5
150,22,1,2,4,49,199,389.0663555023493,389.97544136305805,"[90, 0, 164]",164,l,0.3858627541922033,colour,0.5
150,22,1,2,4,50,200,390.48826261307113,391.03144975355826,"[73, 0, 181]",181,l,0.019867935683578253,colour,0.5
150,22,1,2,5,1,201,397.3964434165973,398.9034322069492,"[12, 0, 242]",242,a,0.9830280110472813,colour,0.4
150,22,1,2,5,2,202,399.4128116401844,400.03142297209706,"[98, 0, 156]",156,l,0.09529055177699775,colour,0.4
150,22,1,2,5,3,203,400.53782217553817,401.495444387896,"[72, 0, 182]",182,l,0.4342332968953997,colour,0.4
150,22,1,2,5,4,204,402.00472929805983,402.5835330786649,"[22, 0, 232]",232,a,0.055503480369225144,colour,0.4
150,22,1,2,5,5,205,403.0984842458274,403.7674290467985,"[92, 0, 162]",162,l,0.14569885155651718,colour,0.4
150,22,1,2,5,6,206,404.2879448584281,405.0875121009303,"[69, 0, 185]",185,l,0.275761638302356,colour,0.4
150,22,1,2,5,7,207,405.60037509852555,406.19940324511845,"[95, 0, 159]",159,l,0.07590468297712505,colour,0.4
150,22,1,2,5,8,208,406.7095624926733,407.271440364304,"[20, 0, 234]",234,a,0.038457448477856815,colour,0.4
150,22,1,2,5,9,209,407.7878771170508,408.4794219606556,"[89, 0, 165]",165,l,0.1683646662859246,colour,0.4
150,22,1,2,5,10,210,408.9910092924256,409.51946897013113,"[94, 0, 160]",160,l,0.005184977548196912,colour,0.4
150,22,1,2,5,11,211,410.03780090785585,410.56741927936673,"[60, 0, 194]",194,a,0.006344458903186023,colour,0.4
150,22,1,2,5,12,212,411.0846811386291,412.25542620790657,"[90, 0, 164]",164,l,0.6475554396165535,colour,0.4
150,22,1,2,5,13,213,412.77217094786465,413.3434077728307,"[58, 0, 196]",196,a,0.04789162636734545,colour,0.4
150,22,1,2,5,14,214,413.8503445755923,414.4475665461505,"[49, 0, 205]",205,a,0.07425053149927408,colour,0.4
150,22,1,2,5,15,215,414.9596804494504,416.03141076292377,"[59, 0, 195]",195,a,0.5484705794369802,colour,0.4
150,22,1,2,5,16,216,416.5378304463811,417.11946085689124,"[84, 0, 170]",170,l,0.05844865785911679,colour,0.4
150,22,1,2,5,17,217,417.6315574309556,418.1993823713856,"[54, 0, 200]",200,a,0.04452070174738765,colour,0.4
150,22,1,2,5,18,218,418.6973032603273,420.11139608034864,"[24, 0, 230]",230,a,0.8908862550742924,colour,0.4
150,22,1,2,5,19,219,420.6216045585461,421.1514415143756,"[2, 0, 252]",252,a,0.006424409686587751,colour,0.4
150,22,1,2,5,20,220,421.6683784510242,423.22335614752956,"[64, 0, 190]",190,a,1.031609654892236,colour,0.4
150,22,1,2,5,21,221,423.7309341309592,424.3514016572153,"[39, 0, 215]",215,a,0.09710460470523685,colour,0.4
150,22,1,2,5,22,222,424.87162759853527,425.4795365697937,"[91, 0, 163]",163,l,0.08463702793233097,colour,0.4
150,22,1,2,5,23,223,425.9873177774716,426.5353799388977,"[36, 0, 218]",218,a,0.02262052264995873,colour,0.4
150,22,1,2,5,24,224,427.0519269683864,427.7514408841962,"[37, 0, 217]",217,a,0.17615729558747262,colour,0.4
150,22,1,2,5,25,225,428.2707022976829,430.12742677819915,"[41, 0, 213]",213,l,1.33348443871364,colour,0.4
150,22,1,2,5,26,226,430.64765114418697,432.38336183468346,"[66, 0, 188]",188,l,1.2124068456469104,colour,0.4
150,22,1,2,5,27,227,432.89763558725826,433.46338771819137,"[44, 0, 210]",210,a,0.04258770740125328,colour,0.4
150,22,1,2,5,28,228,433.97277502832003,434.69536632765085,"[77, 0, 177]",177,l,0.19958205102011561,colour,0.4
150,22,1,2,5,29,229,435.20702967152465,436.0793882474536,"[73, 0, 181]",181,a,0.34899880504235625,colour,0.4
150,22,1,2,5,30,230,436.5977442099247,439.43134443927556,"[51, 0, 203]",203,a,2.3108182300347835,colour,0.4
150,22,1,2,5,31,231,439.92898884869646,450.71938066987786,"[50, 0, 204]",204,a,10.267113182577305,colour,0.4
150,22,1,2,5,32,232,451.2259259901475,451.8233952957671,"[38, 0, 216]",216,a,0.07424856221769005,colour,0.4
150,22,1,2,5,33,233,452.335197667242,453.15139188978355,"[86, 0, 168]",168,l,0.29286005173344165,colour,0.4
150,22,1,2,5,34,234,453.6634136332432,460.76734752068296,"[34, 0, 220]",220,a,6.58061586425174,colour,0.4
150,22,1,2,5,35,235,461.2884009317495,462.2393679408124,"[53, 0, 201]",201,a,0.4277379949344322,colour,0.4
150,22,1,2,5,36,236,462.7607194929151,463.31134440773167,"[93, 0, 161]",161,l,0.027205279329791665,colour,0.4
150,22,1,2,5,37,237,463.8233862373745,464.8633729883004,"[18, 0, 236]",236,a,0.5167790044797584,colour,0.4
150,22,1,2,5,38,238,465.37004158226773,466.3433045851998,"[6, 0, 248]",248,a,0.44972915237303823,colour,0.4
150,22,1,2,5,39,239,466.8554472392425,467.94334255193826,"[67, 0, 187]",187,l,0.5654350852128118,colour,0.4
150,22,1,2,5,40,240,468.46394500974566,469.46330737369135,"[83, 0, 171]",171,l,0.4759643900906667,colour,0.4
150,22,1,2,5,41,241,469.97965078498237,470.503467022907,"[8, 0, 246]",246,a,0.0005872237961739302,colour,0.4
150,22,1,2,5,42,242,471.0264286159072,471.55136652616784,"[0, 0, 254]",254,a,0.005639475304633379,colour,0.4
150,22,1,2,5,43,243,472.06926090142224,472.84736198268365,"[21, 0, 233]",233,a,0.2547799071762711,colour,0.4
150,22,1,2,5,44,244,473.3661791383056,474.27930782421026,"[23, 0, 231]",231,a,0.3899788346607238,colour,0.4
150,22,1,2,5,45,245,474.7880464706104,475.8473359888885,"[61, 0, 193]",193,l,0.533307523233816,colour,0.4
150,22,1,2,5,46,246,476.35565479588695,477.35146861092653,"[68, 0, 186]",186,l,0.4724520748713985,colour,0.4
150,22,1,2,5,47,247,477.871310946648,478.8073492378462,"[62, 0, 192]",192,l,0.41272420645691454,colour,0.4
150,22,1,2,5,48,248,479.32439723901916,480.2552942696493,"[47, 0, 207]",207,a,0.4095557185355574,colour,0.4
150,22,1,2,5,49,249,480.7762618223205,481.6393441525288,"[87, 0, 167]",167,l,0.34043660142924637,colour,0.4
150,22,1,2,5,50,250,482.15058529400267,483.03937392728403,"[65, 0, 189]",189,l,0.365736062056385,colour,0.4
150,22,1,2,6,1,251,508.4654053892009,510.791275216965,"[84, 0, 170]",170,l,1.8017495409585536,colour,0.28
150,22,1,2,6,2,252,511.3006794624962,512.3752616120037,"[17, 0, 237]",237,a,0.5619436438428238,colour,0.28
150,22,1,2,6,3,253,512.8841243197676,513.9192848866805,"[52, 0, 202]",202,a,0.511985115823336,colour,0.28
150,22,1,2,6,4,254,514.4309635906247,516.2072840958135,"[78, 0, 176]",176,l,1.252955614356324,colour,0.28
150,22,1,2,6,5,255,516.7278581967112,517.3032402466051,"[60, 0, 194]",194,a,0.052058118977583945,colour,0.28
150,22,1,2,6,6,256,517.8217277535005,519.3432971021393,"[21, 0, 233]",233,a,0.9985242604743689,colour,0.28
150,22,1,2,6,7,257,519.8530152426101,520.9112252300838,"[47, 0, 207]",207,a,0.5349171702982858,colour,0.28
150,22,1,2,6,8,258,521.4311597256456,522.4632790167816,"[92, 0, 162]",162,l,0.5087996924994513,colour,0.28
150,22,1,2,6,9,259,522.9780245964648,523.7992399567738,"[63, 0, 191]",191,a,0.29508843016810715,colour,0.28
150,22,1,2,6,10,260,524.296671295655,524.8632804346271,"[51, 0, 203]",203,a,0.043291115667670965,colour,0.28
150,22,1,2,6,11,261,525.3748610710027,526.2872820163611,"[76, 0, 178]",178,l,0.3891702697146684,colour,0.28
150,22,1,2,6,12,262,526.7965192713309,527.4792612716556,"[85, 0, 169]",169,l,0.15931566955987364,colour,0.28
150,22,1,2,6,13,263,527.9998188309837,529.0312855199445,"[71, 0, 183]",183,l,0.5083353484515101,colour,0.28
150,22,1,2,6,14,264,529.5373995791888,530.4472506819293,"[49, 0, 205]",205,a,0.3864259534748271,colour,0.28
150,22,1,2,6,15,265,530.9595579634188,531.831225734204,"[89, 0, 165]",165,l,0.34840370435267687,colour,0.28
150,22,1,2,6,16,266,532.3501192958793,533.2392864148133,"[57, 0, 197]",197,a,0.36609406769275665,colour,0.28
150,22,1,2,6,17,267,533.7564049143111,534.6872625603573,"[64, 0, 190]",190,a,0.40764477965421975,colour,0.28
150,22,1,2,6,18,268,535.1873393602436,536.0152453697519,"[95, 0, 159]",159,l,0.30473016458563507,colour,0.28
150,22,1,2,6,19,269,536.5310507880058,537.4072273032507,"[55, 0, 199]",199,a,0.3529203258221969,colour,0.28
150,22,1,2,6,20,270,537.9216483541531,539.5912363050738,"[18, 0, 236]",236,a,1.1463290045503527,colour,0.28
150,22,1,2,6,21,271,540.109159824904,541.0232644602656,"[69, 0, 185]",185,l,0.3915420080302283,colour,0.28
150,22,1,2,6,22,272,541.5309735942865,542.6872188434936,"[79, 0, 175]",175,l,0.6329886659514159,colour,0.28
150,22,1,2,6,23,273,543.2047654531198,544.1592313867295,"[1, 0, 253]",253,a,0.43116996565368026,colour,0.28
150,22,1,2,6,24,274,544.6734822962899,546.0712191018974,"[32, 0, 222]",222,a,0.8743797916686162,colour,0.28
150,22,1,2,6,25,275,546.5797037178418,547.5992207371164,"[70, 0, 184]",184,l,0.4961229838663712,colour,0.28
150,22,1,2,6,26,276,548.1110392562114,549.0552864714991,"[66, 0, 188]",188,l,0.4217042801901698,colour,0.28
150,22,1,2,6,27,277,549.5641204285203,550.1832201289944,"[96, 0, 158]",158,l,0.09581397252622992,colour,0.28
150,22,1,2,6,28,278,550.7047406408237,551.2712363522733,"[88, 0, 166]",166,l,0.043219435843639076,colour,0.28
150,22,1,2,6,29,279,551.7828855178086,552.7432406246662,"[65, 0, 189]",189,l,0.437176504987292,colour,0.28
150,22,1,2,6,30,280,553.2515956654679,553.8552298365394,"[22, 0, 232]",232,a,0.08043705835007131,colour,0.28
150,22,1,2,6,31,281,554.3766184101114,555.1832181597129,"[93, 0, 161]",161,l,0.2833289878908545,colour,0.28
150,22,1,2,6,32,282,555.6890691301087,556.5272037041141,"[53, 0, 201]",201,a,0.31358342012390494,colour,0.28
150,22,1,2,6,33,283,557.0340849745553,558.0872234121198,"[59, 0, 195]",195,a,0.5299275403376669,colour,0.28
150,22,1,2,6,34,284,558.5965937868459,559.8712132729124,"[50, 0, 204]",204,a,0.7513672349741682,colour,0.28
150,22,1,2,6,35,285,560.3778499653563,561.471180741326,"[72, 0, 182]",182,l,0.5700757680460811,colour,0.28
150,22,1,2,6,36,286,561.9872338883579,563.3031921974616,"[28, 0, 226]",226,a,0.7927025133976713,colour,0.28
150,22,1,2,6,37,287,563.8153155531036,568.6551735952962,"[30, 0, 224]",224,a,4.316549077397212,colour,0.28
150,22,1,2,6,38,288,569.1746740731178,570.2953420667909,"[11, 0, 243]",243,a,0.5973889612359926,colour,0.28
150,22,1,2,6,39,289,570.8153974729357,571.7911676971707,"[97, 0, 157]",157,l,0.45263533922843635,colour,0.28
150,22,1,2,6,40,290,572.2996964238118,573.4711897997186,"[8, 0, 246]",246,a,0.6482663309434429,colour,0.28
150,22,1,2,6,41,291,573.9871771746548,575.0711765665328,"[56, 0, 198]",198,a,0.5607148455455899,colour,0.28
150,22,1,2,6,42,292,575.5809222761309,576.3992472034879,"[82, 0, 172]",172,l,0.2950218701735139,colour,0.28
150,22,1,2,6,43,293,576.9090543531347,577.6392370265676,"[75, 0, 179]",179,l,0.20694972085766494,colour,0.28
150,22,1,2,6,44,294,578.1590191038558,579.1993130545598,"[87, 0, 167]",167,l,0.5170314596034586,colour,0.28
150,22,1,2,6,45,295,579.705882399343,580.4631907953881,"[91, 0, 163]",163,l,0.23392302519641817,colour,0.28
150,22,1,2,6,46,296,580.971581282327,581.8392696370138,"[58, 0, 196]",196,a,0.34428014082368463,colour,0.28
150,22,1,2,6,47,297,582.3465955591528,582.9831548293587,"[5, 0, 249]",249,a,0.11360634188167751,colour,0.28
150,22,1,2,6,48,298,583.5007274328964,584.0631893775426,"[12, 0, 242]",242,a,0.03928176744375378,colour,0.28
150,22,1,2,6,49,299,584.578827017569,585.335189002566,"[67, 0, 187]",187,l,0.2393470669630915,colour,0.28
150,22,1,2,6,50,300,585.853510700399,586.8711514391471,"[77, 0, 177]",177,l,0.4942297679372132,colour,0.28
150,22,1,2,7,1,301,654.1657692238223,656.9671209807275,"[75, 0, 179]",179,l,2.2774626575410366,colour,0.14
150,22,1,2,7,2,302,657.4791659610346,658.3270163122797,"[60, 0, 194]",194,l,0.32461503555532545,colour,0.14
150,22,1,2,7,3,303,658.8390368742403,659.9351978247287,"[23, 0, 231]",231,a,0.5727905457606539,colour,0.14
150,22,1,2,7,4,304,660.4484081942355,661.271063847933,"[53, 0, 201]",201,a,0.29935850424226373,colour,0.14
150,22,1,2,7,5,305,661.7927942795213,662.6070381785976,"[71, 0, 183]",183,l,0.29154421342536807,colour,0.14
150,22,1,2,7,6,306,663.1202694219537,663.927179521881,"[35, 0, 219]",219,a,0.28367045195773244,colour,0.14
150,22,1,2,7,7,307,664.4484148896299,665.2711422231514,"[83, 0, 171]",171,l,0.2998055190546438,colour,0.14
150,22,1,2,7,8,308,665.7920774804661,666.5430327530485,"[68, 0, 186]",186,l,0.22763173549901694,colour,0.14
150,22,1,2,7,9,309,667.057766911108,667.9110712364782,"[82, 0, 172]",172,l,0.32992643758188933,colour,0.14
150,22,1,2,7,10,310,668.4327453480801,669.2230288618011,"[85, 0, 169]",169,l,0.266949342796579,colour,0.14
150,22,1,2,7,11,311,669.729576151236,670.6150647521717,"[79, 0, 175]",175,l,0.3621567931259051,colour,0.14
150,22,1,2,7,12,312,671.1358113574097,671.9510879197624,"[89, 0, 165]",165,l,0.29190024989657104,colour,0.14
150,22,1,2,7,13,313,672.4639745481545,673.2790392215829,"[77, 0, 177]",177,l,0.2916895425878465,colour,0.14
150,22,1,2,7,14,314,673.7796004514676,674.5511038311524,"[81, 0, 173]",173,l,0.24818653787951916,colour,0.14
150,22,1,2,7,15,315,675.0608810484409,676.0311004124815,"[50, 0, 204]",204,l,0.44751022616401315,colour,0.14
150,22,1,2,7,16,316,676.5452536484227,677.4390248225536,"[32, 0, 222]",222,a,0.3704318832606077,colour,0.14
150,22,1,2,7,17,317,677.9515274513979,678.6630434183171,"[44, 0, 210]",210,a,0.18847875553183258,colour,0.14
150,22,1,2,7,18,318,679.170232676086,680.2391580211697,"[65, 0, 189]",189,l,0.5461685517802835,colour,0.14
150,22,1,2,7,19,319,680.7483925191918,681.6470438342076,"[56, 0, 198]",198,a,0.37532817176543176,colour,0.14
150,22,1,2,7,20,320,682.1546072453493,683.0630633468973,"[63, 0, 191]",191,a,0.38512586907017976,colour,0.14
150,22,1,2,7,21,321,683.5765182945179,684.615036001429,"[92, 0, 162]",162,l,0.515279634273611,colour,0.14
150,22,1,2,7,22,322,685.1233776514418,686.0710442344425,"[57, 0, 197]",197,a,0.4244308734778315,colour,0.14
150,22,1,2,7,23,323,686.5921326975804,687.6789918025024,"[78, 0, 176]",176,l,0.5636265461798757,colour,0.14
150,22,1,2,7,24,324,688.1858431408182,689.2950313225156,"[74, 0, 180]",180,a,0.5858473154949024,colour,0.14
150,22,1,2,7,25,325,689.8014915721724,690.9350442249561,"[67, 0, 187]",187,a,0.6103685371344909,colour,0.14
150,22,1,2,7,26,326,691.4440806186758,692.6870435822057,"[96, 0, 158]",158,l,0.719783180160448,colour,0.14
150,22,1,2,7,27,327,693.1941154740052,694.1270415971521,"[72, 0, 182]",182,l,0.4097349182702601,colour,0.14
150,22,1,2,7,28,328,694.6471446587238,695.4310045505408,"[52, 0, 202]",202,a,0.26060370227787644,colour,0.14
150,22,1,2,7,29,329,695.9440298125846,696.7910302450182,"[73, 0, 181]",181,a,0.3237564521841705,colour,0.14
150,22,1,2,7,30,330,697.3056694864063,698.1750037218444,"[69, 0, 185]",185,a,0.34603354148566723,colour,0.14
150,22,1,2,7,31,331,698.6966510519851,699.9910640369635,"[0, 0, 254]",254,a,0.7712513183942065,colour,0.14
150,22,1,2,7,32,332,700.504748596577,701.4310671719722,"[80, 0, 174]",174,l,0.40304229978937656,colour,0.14
150,22,1,2,7,33,333,701.9422259996645,703.0550414995523,"[58, 0, 196]",196,a,0.5895518272882327,colour,0.14
150,22,1,2,7,34,334,703.5672924610553,704.5830088702496,"[51, 0, 203]",203,a,0.4911778583191335,colour,0.14
150,22,1,2,7,35,335,705.099774484057,706.0309956496349,"[13, 0, 241]",241,a,0.4079980591777712,colour,0.14
150,22,1,2,7,36,336,706.5372451917501,707.3750414522365,"[55, 0, 199]",199,a,0.32384782435838133,colour,0.14
150,22,1,2,7,37,337,707.8872207339155,708.4870046701981,"[91, 0, 163]",163,l,0.07654665131121874,colour,0.14
150,22,1,2,7,38,338,708.9966015062528,709.7511104476871,"[64, 0, 190]",190,a,0.2312145489268005,colour,0.14
150,22,1,2,7,39,339,710.2622133493423,712.0229836483486,"[99, 0, 155]",155,l,1.2379674258409068,colour,0.14
150,22,1,2,7,40,340,712.5434951276984,713.12704002182,"[98, 0, 156]",156,l,0.060206390800885856,colour,0.14
150,22,1,2,7,41,341,713.6372043893207,714.1830310830846,"[1, 0, 253]",253,a,0.022487008944153786,colour,0.14
150,22,1,2,7,42,342,714.6996868139831,715.9109901043121,"[88, 0, 166]",166,l,0.6880786084802821,colour,0.14
150,22,1,2,7,43,343,716.4060181973036,717.0149775547907,"[87, 0, 167]",167,l,0.08561730966903269,colour,0.14
150,22,1,2,7,44,344,717.5310054956935,718.2710122541757,"[94, 0, 160]",160,l,0.2167627781163901,colour,0.14
150,22,1,2,7,45,345,718.7809966341592,719.5750055335229,"[84, 0, 170]",170,l,0.27062864846084267,colour,0.14
150,22,1,2,7,46,346,720.093488314189,721.2150034698425,"[93, 0, 161]",161,l,0.6025995386298746,colour,0.14
150,22,1,2,7,47,347,721.7296927295392,722.7589692430338,"[70, 0, 184]",184,a,0.5060037825023755,colour,0.14
150,22,1,2,7,48,348,723.2765544495778,724.3989959299797,"[66, 0, 188]",188,a,0.5991132172057405,colour,0.14
150,22,1,2,7,49,349,724.9182986972155,725.5990915556904,"[90, 0, 164]",164,l,0.15756581351161003,colour,0.14
150,22,1,2,7,50,350,726.1058026849059,726.8230038132751,"[76, 0, 178]",178,l,0.19389373890589923,colour,0.14
150,22,1,2,8,1,351,739.2455647076713,746.2789825077634,"[88, 0, 166]",166,l,6.506832433631644,colour,0.06
150,22,1,2,8,2,352,746.7964282929897,747.5590130386408,"[83, 0, 171]",171,l,0.23983898013830185,colour,0.06
150,22,1,2,8,3,353,748.0776234252844,748.9350446187891,"[90, 0, 164]",164,l,0.33408505329862237,colour,0.06
150,22,1,2,8,4,354,749.4525959546445,750.2629789852072,"[18, 0, 236]",236,a,0.2870130197843537,colour,0.06
150,22,1,2,8,5,355,750.7808154652594,751.4549795081839,"[59, 0, 195]",195,a,0.15091257961466908,colour,0.06
150,22,1,2,8,6,356,751.9682970037684,752.5429295654176,"[95, 0, 159]",159,l,0.06367617065552622,colour,0.06
150,22,1,2,8,7,357,753.0496899253922,753.7429448466282,"[96, 0, 158]",158,l,0.1700960115995258,colour,0.06
150,22,1,2,8,8,358,754.2527460885467,754.7989674155833,"[54, 0, 200]",200,a,0.02345941378735006,colour,0.06
150,22,1,2,8,9,359,755.3153187038843,758.8789889668114,"[92, 0, 162]",162,l,3.0403983197174966,colour,0.06
150,22,1,2,8,10,360,759.3809314133832,760.4549448498292,"[57, 0, 197]",197,l,0.5507013208698481,colour,0.06
150,22,1,2,8,11,361,760.9747454378521,761.7029135910561,"[94, 0, 160]",160,a,0.20499782206024975,colour,0.06
150,22,1,2,8,12,362,762.2090737302788,763.4548975883517,"[93, 0, 161]",161,l,0.7225070163840428,colour,0.06
150,22,1,2,8,13,363,763.9747481947998,764.9269333684351,"[98, 0, 156]",156,l,0.42899751325603575,colour,0.06
150,22,1,2,8,14,364,765.443450465682,766.2949308919488,"[84, 0, 170]",170,l,0.3281675230246037,colour,0.06
150,22,1,2,8,15,365,766.805953842937,767.6630402675364,"[70, 0, 184]",184,l,0.333933028858155,colour,0.06
150,22,1,2,8,16,366,768.1806955786888,769.0069005689584,"[66, 0, 188]",188,l,0.30599204590544105,colour,0.06
150,22,1,2,8,17,367,769.5233578017214,770.4149029604159,"[51, 0, 203]",203,a,0.37110850994940847,colour,0.06
150,22,1,2,8,18,368,770.9267376271309,771.7829044223763,"[60, 0, 194]",194,a,0.3328259289264679,colour,0.06
150,22,1,2,8,19,369,772.3046923554502,773.1989318119595,"[82, 0, 172]",172,l,0.3714739987626672,colour,0.06
150,22,1,2,8,20,370,773.7109472538577,774.5349230780266,"[65, 0, 189]",189,a,0.30076571460813284,colour,0.06
150,22,1,2,8,21,371,775.0546882200288,775.9909317048732,"[58, 0, 196]",196,a,0.413026679889299,colour,0.06
150,22,1,2,8,22,372,776.5077890846878,777.3588768468471,"[86, 0, 168]",168,l,0.3277914004866034,colour,0.06
150,22,1,2,8,23,373,777.8685493011726,778.5030089805368,"[63, 0, 191]",191,a,0.1111904929857701,colour,0.06
150,22,1,2,8,24,374,779.0091738458723,779.6069416864775,"[80, 0, 174]",174,l,0.07450771273579448,colour,0.06
150,22,1,2,8,25,375,780.1061114598997,780.6309312164085,"[62, 0, 192]",192,a,0.0015994069399312139,colour,0.06
150,22,1,2,8,26,376,781.152847543126,782.7429830497131,"[61, 0, 193]",193,a,1.0668233910109848,colour,0.06
150,22,1,2,8,27,377,783.2620774726383,783.9349280404858,"[75, 0, 179]",179,l,0.14944432326592505,colour,0.06
150,22,1,2,8,28,378,784.4497358477674,786.1509468442528,"[30, 0, 224]",224,a,1.1779043948045,colour,0.06
150,22,1,2,8,29,379,786.668448161683,787.3749488985632,"[81, 0, 173]",173,l,0.18314805522095412,colour,0.06
150,22,1,2,8,30,380,787.8872097062413,788.4148809050675,"[53, 0, 201]",201,a,0.004424067796207964,colour,0.06
150,22,1,2,8,31,381,788.9350158680463,789.6788704980863,"[69, 0, 185]",185,l,0.22073825576808304,colour,0.06
150,22,1,2,8,32,382,790.1849573820364,790.8868962051347,"[85, 0, 169]",169,l,0.1910021243384108,colour,0.06
150,22,1,2,8,33,383,791.4069512175629,792.838905329816,"[78, 0, 176]",176,l,0.9088802733458579,colour,0.06
150,22,1,2,8,34,384,793.3600709867897,794.1828818155918,"[64, 0, 190]",190,a,0.2994695686502382,colour,0.06
150,22,1,2,8,35,385,794.7058355316985,795.9190544870216,"[73, 0, 181]",181,a,0.689936772105284,colour,0.06
150,22,1,2,8,36,386,796.4400815103436,797.0629306209739,"[77, 0, 177]",177,l,0.09947397978976369,colour,0.06
150,22,1,2,8,37,387,797.5807202333817,798.3428910473594,"[97, 0, 157]",157,l,0.23873739398550242,colour,0.06
150,22,1,2,8,38,388,798.8527210399043,799.4868605227675,"[72, 0, 182]",182,l,0.11086045030970126,colour,0.06
150,22,1,2,8,39,389,799.9879849519348,800.518866780214,"[9, 0, 245]",245,a,0.007586254156194627,colour,0.06
150,22,1,2,8,40,390,801.0349742779508,801.5908755424898,"[71, 0, 183]",183,l,0.032667524297721684,colour,0.06
150,22,1,2,8,41,391,802.0973661181051,803.1108734471491,"[67, 0, 187]",187,l,0.4902334165526554,colour,0.06
150,22,1,2,8,42,392,803.6305826631142,804.2388606676832,"[76, 0, 178]",178,l,0.08502299664542079,colour,0.06
150,22,1,2,8,43,393,804.7554994631791,806.7828776407987,"[74, 0, 180]",180,l,1.5039018284296617,colour,0.06
150,22,1,2,8,44,394,807.302462401567,807.9828326636925,"[79, 0, 175]",175,l,0.15718811564147472,colour,0.06
150,22,1,2,8,45,395,808.4899640261428,809.1112105790526,"[89, 0, 165]",165,l,0.09786118206102401,colour,0.06
150,22,1,2,8,46,396,809.6308043982135,810.4548684437759,"[52, 0, 202]",202,a,0.3008039176929742,colour,0.06
150,22,1,2,8,47,397,810.9745244905353,811.6308559919707,"[56, 0, 198]",198,a,0.13305640732869506,colour,0.06
150,22,1,2,8,48,398,812.1463825674728,820.1268836650997,"[55, 0, 199]",199,l,7.457315406529233,colour,0.06
150,22,1,2,8,49,399,820.64681973611,821.2149542390835,"[68, 0, 186]",186,l,0.0448704365408048,colour,0.06
150,22,1,2,8,50,400,821.7250142375706,822.2869090444874,"[50, 0, 204]",204,a,0.03872959583532065,colour,0.06
150,22,1,2,9,1,401,827.8041547561297,828.7908597098431,"[74, 0, 180]",180,l,0.4626421683933586,colour,0.06
150,22,1,2,9,2,402,829.3057860647095,829.9508114401251,"[72, 0, 182]",182,l,0.1205888306722045,colour,0.06
150,22,1,2,9,3,403,830.4631781922653,831.5267925292719,"[18, 0, 236]",236,a,0.5403853228781372,colour,0.06
150,22,1,2,9,4,404,832.0413975060219,832.7028446680633,"[65, 0, 189]",189,l,0.1382307509193197,colour,0.06
150,22,1,2,9,5,405,833.2132035953691,833.9108061783481,"[85, 0, 169]",169,l,0.1742944058496505,colour,0.06
150,22,1,2,9,6,406,834.4318461986259,834.9588750351686,"[83, 0, 171]",171,l,0.003646616474725306,colour,0.06
150,22,1,2,9,7,407,835.4787453339668,836.2387972585857,"[80, 0, 174]",174,l,0.23672720603644848,colour,0.06
150,22,1,2,9,8,408,836.7600093892543,838.6389877222246,"[76, 0, 178]",178,l,1.3556697620078921,colour,0.06
150,22,1,2,9,9,409,839.1506175893592,839.758804221754,"[79, 0, 175]",175,l,0.08493241213727742,colour,0.06
150,22,1,2,9,10,410,840.27560370625,840.8948345573153,"[73, 0, 181]",181,l,0.09590416320133954,colour,0.06
150,22,1,2,9,11,411,841.4161597217899,842.0707949300995,"[54, 0, 200]",200,a,0.1313061574473977,colour,0.06
150,22,1,2,9,12,412,842.5880819954909,843.1748327928362,"[69, 0, 185]",185,l,0.06148599518928677,colour,0.06
150,22,1,2,9,13,413,843.6837856912753,845.6868324809475,"[51, 0, 203]",203,a,1.479940261458978,colour,0.06
150,22,1,2,9,14,414,846.1869975022273,846.8228636041749,"[66, 0, 188]",188,a,0.11256777099333704,colour,0.06
150,22,1,2,9,15,415,847.3432762284065,848.0467983109411,"[84, 0, 170]",170,l,0.1802426561480388,colour,0.06
150,22,1,2,9,16,416,848.5620389544638,849.1187858055346,"[56, 0, 198]",198,a,0.03347254463005811,colour,0.06
150,22,1,2,9,17,417,849.6401460221969,850.2948911135318,"[81, 0, 173]",173,a,0.13148260035086423,colour,0.06
150,22,1,2,9,18,418,850.8121128005441,851.4307871477213,"[61, 0, 193]",193,l,0.09535711165517569,colour,0.06
150,22,1,2,9,19,419,851.9371355451876,853.3589449821739,"[91, 0, 163]",163,l,0.8985654567368329,colour,0.06
150,22,1,2,9,20,420,853.8746283082291,854.4468060302315,"[90, 0, 164]",164,l,0.04893334791995585,colour,0.06
150,22,1,2,9,21,421,854.9683773482684,856.1347952357028,"[67, 0, 187]",187,l,0.6432853655423969,colour,0.06
150,22,1,2,9,22,422,856.6558407697594,857.4867596982513,"[77, 0, 177]",177,l,0.3076001175213605,colour,0.06
150,22,1,2,9,23,423,857.9995805544313,858.8388186837547,"[92, 0, 162]",162,l,0.31588899227790534,colour,0.06
150,22,1,2,9,24,424,859.3589993328787,860.3029232008848,"[71, 0, 183]",183,l,0.4210493149003014,colour,0.06
150,22,1,2,9,25,425,860.7996393161593,861.5988312237896,"[53, 0, 201]",201,a,0.27591366274282336,colour,0.06
150,22,1,2,9,26,426,862.1121502947062,862.9028119001305,"[63, 0, 191]",191,a,0.26739084371365607,colour,0.06
150,22,1,2,9,27,427,863.409011423937,864.1908055954846,"[59, 0, 195]",195,a,0.25845645600929856,colour,0.06
150,22,1,2,9,28,428,864.7059847991914,865.5508883976145,"[75, 0, 179]",179,l,0.3218793839914724,colour,0.06
150,22,1,2,9,29,429,866.0653441068716,866.8868103468558,"[99, 0, 155]",155,l,0.29840500408317894,colour,0.06
150,22,1,2,9,30,430,867.393420257722,868.318789665238,"[98, 0, 156]",156,l,0.40214393800124526,colour,0.06
150,22,1,2,9,31,431,868.8339743827237,869.366786448285,"[20, 0, 234]",234,a,0.00968348199967295,colour,0.06
150,22,1,2,9,32,432,869.8808585519437,870.5427409134572,"[97, 0, 157]",157,l,0.13855252286884934,colour,0.06
150,22,1,2,9,33,433,871.0527646780247,871.76679653069,"[82, 0, 172]",172,l,0.19074179243762046,colour,0.06
150,22,1,2,9,34,434,872.2871370811481,873.0147841766011,"[93, 0, 161]",161,l,0.20432907226495445,colour,0.06
150,22,1,2,9,35,435,873.5217875392409,874.2308502418455,"[58, 0, 196]",196,a,0.1860495158471167,colour,0.06
150,22,1,2,9,36,436,874.7402328257449,875.4147942590062,"[94, 0, 160]",160,l,0.15131193911656737,colour,0.06
150,22,1,2,9,37,437,875.9277970718686,876.6147630664054,"[50, 0, 204]",204,a,0.16367120819631964,colour,0.06
150,22,1,2,9,38,438,877.1310076224618,877.7027485697763,"[87, 0, 167]",167,l,0.06114256184082478,colour,0.06
150,22,1,2,9,39,439,878.2121831413824,879.2147793716285,"[89, 0, 165]",165,l,0.4823009721003473,colour,0.06
150,22,1,2,9,40,440,879.7250051790616,880.5907605395187,"[96, 0, 158]",158,l,0.34260314621496946,colour,0.06
150,22,1,2,9,41,441,881.0999706191942,881.9267541687004,"[62, 0, 192]",192,a,0.303543901653029,colour,0.06
150,22,1,2,9,42,442,882.4437206437578,883.3427595029352,"[52, 0, 202]",202,a,0.3758464726852253,colour,0.06
150,22,1,2,9,43,443,883.8499767237809,884.9348071299028,"[78, 0, 176]",176,l,0.5616478658048436,colour,0.06
150,22,1,2,9,44,444,885.443786809803,886.3107571839355,"[64, 0, 190]",190,a,0.34381658444181085,colour,0.06
150,22,1,2,9,45,445,886.8206245918991,887.8467983896844,"[86, 0, 168]",168,l,0.5024981626775116,colour,0.06
150,22,1,2,9,46,446,888.3674260535045,888.9748104223981,"[55, 0, 199]",199,a,0.08410691167227924,colour,0.06
150,22,1,2,9,47,447,889.4925189026399,890.0947308971081,"[88, 0, 166]",166,l,0.0790243340888992,colour,0.06
150,22,1,2,9,48,448,890.6018118474167,891.278750532656,"[57, 0, 197]",197,a,0.1535800959682092,colour,0.06
150,22,1,2,9,49,449,891.7893351335078,893.2466978015145,"[11, 0, 243]",243,a,0.9340107740135863,colour,0.06
150,22,1,2,9,50,450,893.7580740319099,894.3667447005864,"[95, 0, 159]",159,l,0.08548340213019401,colour,0.06
150,22,1,2,10,1,451,918.0540600363165,921.2067342873197,"[69, 0, 185]",185,a,2.628665422555059,colour,0.06
150,22,1,2,10,2,452,921.7267168321414,923.4227574233664,"[91, 0, 163]",163,l,1.1727450172184035,colour,0.06
150,22,1,2,10,3,453,923.9298332536127,924.974704477936,"[74, 0, 180]",180,l,0.5216520562535152,colour,0.06
150,22,1,2,10,4,454,925.4934625567403,927.5346875583054,"[76, 0, 178]",178,a,1.5178695629583672,colour,0.06
150,22,1,2,10,5,455,928.0560954303946,928.582685916801,"[99, 0, 155]",155,l,0.003364229225553572,colour,0.06
150,22,1,2,10,6,456,929.102872079704,930.182717188145,"[63, 0, 191]",191,a,0.5565916758496314,colour,0.06
150,22,1,2,10,7,457,930.6993760698242,931.8307223995216,"[87, 0, 167]",167,l,0.6083142383722588,colour,0.06
150,22,1,2,10,8,458,932.3398099931655,933.3267599188257,"[73, 0, 181]",181,l,0.4636543516535312,colour,0.06
150,22,1,2,10,9,459,933.8397670639679,934.6867194472579,"[66, 0, 188]",188,a,0.32364026771392673,colour,0.06
150,22,1,2,10,10,460,935.1992445254,936.3267307742499,"[58, 0, 196]",196,a,0.6044033514335752,colour,0.06
150,22,1,2,10,11,461,936.8397576116258,938.070707496372,"[82, 0, 172]",172,l,0.7076901505934075,colour,0.06
150,22,1,2,10,12,462,938.5897739562206,939.4866246092133,"[71, 0, 183]",183,a,0.37369646946899593,colour,0.06
150,22,1,2,10,13,463,939.995980411768,940.9426765590906,"[51, 0, 203]",203,a,0.42343129334039986,colour,0.06
150,22,1,2,10,14,464,941.4490667040227,942.4547077547759,"[65, 0, 189]",189,a,0.4823344489559531,colour,0.06
150,22,1,2,10,15,465,942.9523273519007,943.9506944679888,"[96, 0, 158]",158,l,0.4751818188233301,colour,0.06
150,22,1,2,10,16,466,944.4679086719407,945.3106650240952,"[59, 0, 195]",195,a,0.3196537625044584,colour,0.06
150,22,1,2,10,17,467,945.8274763240479,946.4866884122603,"[89, 0, 165]",165,l,0.1359728341922164,colour,0.06
150,22,1,2,10,18,468,946.9993560625007,948.3989994745934,"[57, 0, 197]",197,a,0.8764140041312203,colour,0.06
150,22,1,2,10,19,469,948.9056983946357,949.6147311649984,"[81, 0, 173]",173,l,0.18574861786328256,colour,0.06
150,22,1,2,10,20,470,950.1243004318094,950.7106818018947,"[70, 0, 184]",184,a,0.0630212053656578,colour,0.06
150,22,1,2,10,21,471,951.2180695579154,951.7586466835346,"[60, 0, 194]",194,a,0.0178089109249413,colour,0.06
150,22,1,2,10,22,472,952.2650147731183,952.8546575788641,"[94, 0, 160]",160,l,0.06639449310023338,colour,0.06
150,22,1,2,10,23,473,953.3743085055612,953.9266746118665,"[84, 0, 170]",170,l,0.041754723992198706,colour,0.06
150,22,1,2,10,24,474,954.4400370056974,956.1106674659532,"[98, 0, 156]",156,l,1.1473537907004356,colour,0.06
150,22,1,2,10,25,475,956.6275575349573,957.3106220948976,"[77, 0, 177]",177,a,0.159813096630387,colour,0.06
150,22,1,2,10,26,476,957.8306593842572,958.3907393505797,"[97, 0, 157]",157,l,0.03671980160288513,colour,0.06
150,22,1,2,10,27,477,958.9087290365715,960.694639682537,"[52, 0, 202]",202,a,1.2625705673126504,colour,0.06
150,22,1,2,10,28,478,961.2056149780983,966.7186512678163,"[0, 0, 254]",254,a,4.989655644982122,colour,0.06
150,22,1,2,10,29,479,967.2368748980807,968.5666764865164,"[54, 0, 200]",200,a,0.8071026904508471,colour,0.06
150,22,1,2,10,30,480,969.0805626951624,970.5026864209212,"[50, 0, 204]",204,a,0.8988821086240932,colour,0.06
150,22,1,2,10,31,481,971.0180897227256,972.4546498594573,"[10, 0, 244]",244,a,0.9134571531321853,colour,0.06
150,22,1,2,10,32,482,972.9712504519848,973.7346736949403,"[72, 0, 182]",182,l,0.2401922596618533,colour,0.06
150,22,1,2,10,33,483,974.2524577935692,975.4706080898177,"[67, 0, 187]",187,a,0.6948996206047013,colour,0.06
150,22,1,2,10,34,484,975.9868227135157,976.5266637416789,"[53, 0, 201]",201,a,0.016533638699911535,colour,0.06
150,22,1,2,10,35,485,977.0336493813666,977.9346172963269,"[88, 0, 166]",166,l,0.3778231837786734,colour,0.06
150,22,1,2,10,36,486,978.455565944314,979.2146521594841,"[61, 0, 193]",193,a,0.23572762578260154,colour,0.06
150,22,1,2,10,37,487,979.7211766059045,980.8227871981217,"[32, 0, 222]",222,a,0.5778995110886171,colour,0.06
150,22,1,2,10,38,488,981.3309646145208,982.0546181155369,"[79, 0, 175]",175,l,0.20041267143096775,colour,0.06
150,22,1,2,10,39,489,982.5653464699863,983.3025911890436,"[83, 0, 171]",171,l,0.2119385632686317,colour,0.06
150,22,1,2,10,40,490,983.8176979251439,984.6945853318321,"[64, 0, 190]",190,l,0.35385098308324814,colour,0.06
150,22,1,2,10,41,491,985.2082998236874,986.0786466362188,"[62, 0, 192]",192,a,0.34711661690380424,colour,0.06
150,22,1,2,10,42,492,986.5989237774629,987.4785826756852,"[86, 0, 168]",168,l,0.35641570563893765,colour,0.06
150,22,1,2,10,43,493,987.9895658482565,988.9185838415287,"[68, 0, 186]",186,a,0.40569209307432175,colour,0.06
150,22,1,2,10,44,494,989.4270204083296,990.2949612180237,"[85, 0, 169]",169,l,0.3446637464221567,colour,0.06
150,22,1,2,10,45,495,990.7901362155098,991.7506165653467,"[75, 0, 179]",179,l,0.4372536988230422,colour,0.06
150,22,1,2,10,46,496,992.2622665185481,993.1185936088441,"[95, 0, 159]",159,l,0.33306263014674187,colour,0.06
150,22,1,2,10,47,497,993.6372985184425,994.5185784852365,"[93, 0, 161]",161,l,0.35805804189294577,colour,0.06
150,22,1,2,10,48,498,995.02783543244,995.7425702995388,"[80, 0, 174]",174,l,0.19139360694680363,colour,0.06
150,22,1,2,10,49,499,996.2622192570707,997.1826269974699,"[78, 0, 176]",176,l,0.39704166806768626,colour,0.06
150,22,1,2,10,50,500,997.6997226539534,998.5986205163645,"[56, 0, 198]",198,a,0.3756810574559495,colour,0.06
150,22,1,2,11,1,501,1047.0040948127862,1047.798530246946,"[98, 0, 156]",156,l,0.27033917198423296,colour,0.06
150,22,1,2,11,2,502,1048.3186096777208,1049.2705557870213,"[58, 0, 196]",196,a,0.4287785351043567,colour,0.06
150,22,1,2,11,3,503,1049.7872422379442,1050.7185205110582,"[93, 0, 161]",161,l,0.40794528380502015,colour,0.06
150,22,1,2,11,4,504,1051.2248177086003,1052.0785280887503,"[79, 0, 175]",175,l,0.3305128737119958,colour,0.06
150,22,1,2,11,5,505,1052.599824896315,1053.4145488932263,"[65, 0, 189]",189,a,0.291576508898288,colour,0.06
150,22,1,2,11,6,506,1053.9278888378758,1054.7905217902735,"[56, 0, 198]",198,a,0.3393944859271869,colour,0.06
150,22,1,2,11,7,507,1055.3028751517413,1056.0946403126,"[90, 0, 164]",164,l,0.26851881749462336,colour,0.06
150,22,1,2,11,8,508,1056.6153235087404,1057.41456858546,"[83, 0, 171]",171,l,0.2758829427184537,colour,0.06
150,22,1,2,11,9,509,1057.9278183395509,1058.9825530332746,"[87, 0, 167]",167,l,0.5314304551575333,colour,0.06
150,22,1,2,11,10,510,1059.4903074594913,1060.3264928915305,"[92, 0, 162]",162,l,0.31360468768980354,colour,0.06
150,22,1,2,11,11,511,1060.8340897795279,1061.69451955962,"[50, 0, 204]",204,a,0.33717477216850966,colour,0.06
150,22,1,2,11,12,512,1062.2110728905536,1063.142525243573,"[54, 0, 200]",200,a,0.40832810173742473,colour,0.06
150,22,1,2,11,13,513,1063.6485664413776,1064.4705316837644,"[96, 0, 158]",158,l,0.29863579757511616,colour,0.06
150,22,1,2,11,14,514,1064.9773330035387,1065.814681461663,"[97, 0, 157]",157,l,0.31407966557890177,colour,0.06
150,22,1,2,11,15,515,1066.3230691916542,1067.1025148617337,"[68, 0, 186]",186,a,0.25624540669377893,colour,0.06
150,22,1,2,11,16,516,1067.6198716379004,1068.4386400353396,"[85, 0, 169]",169,l,0.2958796659950167,colour,0.06
150,22,1,2,11,17,517,1068.9480048962869,1069.7824601645116,"[59, 0, 195]",195,a,0.31119356490671635,colour,0.06
150,22,1,2,11,18,518,1070.2879980276339,1071.198493461823,"[94, 0, 160]",160,l,0.38716283859685063,colour,0.06
150,22,1,2,11,19,519,1071.7060324545018,1073.1105264691869,"[80, 0, 174]",174,l,0.8803264665184543,colour,0.06
150,22,1,2,11,20,520,1073.6287083518691,1074.9185350046027,"[89, 0, 165]",165,l,0.7664913003100082,colour,0.06
150,22,1,2,11,21,521,1075.4141900998075,1076.7744587970665,"[74, 0, 180]",180,l,0.8368797817965969,colour,0.06
150,22,1,2,11,22,522,1077.2893985426053,1078.5505221211351,"[84, 0, 170]",170,l,0.7378823551116511,colour,0.06
150,22,1,2,11,23,523,1079.0706145488657,1079.710504177492,"[30, 0, 224]",224,a,0.11669330368749797,colour,0.06
150,22,1,2,11,24,524,1080.2267877242994,1081.1106091768015,"[73, 0, 181]",181,a,0.36056171834934503,colour,0.06
150,22,1,2,11,25,525,1081.6174589396687,1082.558512460906,"[52, 0, 202]",202,a,0.4179154854500666,colour,0.06
150,22,1,2,11,26,526,1083.0706031273585,1083.9825014395174,"[88, 0, 166]",166,l,0.38900170382112265,colour,0.06
150,22,1,2,11,27,527,1084.4924728226615,1085.4466579443542,"[72, 0, 182]",182,l,0.4310096704866737,colour,0.06
150,22,1,2,11,28,528,1085.9611691858154,1086.9505223574815,"[81, 0, 173]",173,l,0.466043419088237,colour,0.06
150,22,1,2,11,29,529,1087.4568116780138,1088.374512123759,"[60, 0, 194]",194,a,0.3951838982757181,colour,0.06
150,22,1,2,11,30,530,1088.894211099716,1089.8384665857302,"[86, 0, 168]",168,l,0.4217338185990229,colour,0.06
150,22,1,2,11,31,531,1090.346790512791,1091.2704659902956,"[76, 0, 178]",178,a,0.4004559157183394,colour,0.06
150,22,1,2,11,32,532,1091.7842301066266,1092.7504858085886,"[64, 0, 190]",190,a,0.4430979738244787,colour,0.06
150,22,1,2,11,33,533,1093.2686743865488,1095.2226216254057,"[51, 0, 203]",203,a,1.4307639107573777,colour,0.06
150,22,1,2,11,34,534,1095.737376657431,1096.4864332003053,"[78, 0, 176]",176,l,0.2258255595806986,colour,0.06
150,22,1,2,11,35,535,1097.0030586050125,1097.9504676129436,"[82, 0, 172]",172,l,0.42422134755179286,colour,0.06
150,22,1,2,11,36,536,1098.471596248448,1099.582444489468,"[70, 0, 184]",184,a,0.5875243101036176,colour,0.06
150,22,1,2,11,37,537,1100.0965839407872,1101.0304407210788,"[67, 0, 187]",187,a,0.41059704625513405,colour,0.06
150,22,1,2,11,38,538,1101.5497257653624,1102.5747692261357,"[63, 0, 191]",191,a,0.5018439850537106,colour,0.06
150,22,1,2,11,39,539,1103.0809691437753,1104.9504932129057,"[71, 0, 183]",183,a,1.346244248910807,colour,0.06
150,22,1,2,11,40,540,1105.4716415406438,1106.998445885256,"[77, 0, 177]",177,a,1.0035658781416714,colour,0.06
150,22,1,2,11,41,541,1107.518471752992,1108.7264974601567,"[91, 0, 163]",163,l,0.6847194993169978,colour,0.06
150,22,1,2,11,42,542,1109.2371659500059,1110.4226290297229,"[66, 0, 188]",188,a,0.6622706932248548,colour,0.06
150,22,1,2,11,43,543,1110.9403150607832,1112.1025156495161,"[99, 0, 155]",155,l,0.6389101346721873,colour,0.06
150,22,1,2,11,44,544,1112.6121904669562,1113.6144865867682,"[7, 0, 247]",247,a,0.4789595858892426,colour,0.06
150,22,1,2,11,45,545,1114.127786359284,1115.198443049565,"[95, 0, 159]",159,l,0.5504043613327667,colour,0.06
150,22,1,2,11,46,546,1115.706098226714,1116.7744863663102,"[62, 0, 192]",192,a,0.5451232854975387,colour,0.06
150,22,1,2,11,47,547,1117.2841789067024,1118.3904514494352,"[53, 0, 201]",201,a,0.5831309623317793,colour,0.06
150,22,1,2,11,48,548,1118.910804603016,1119.70244688401,"[57, 0, 197]",197,a,0.2683537962147966,colour,0.06
150,22,1,2,11,49,549,1120.2232324799988,1121.2544691631338,"[55, 0, 199]",199,a,0.5079403214622289,colour,0.06
150,22,1,2,11,50,550,1121.77340998617,1122.774500544765,"[10, 0, 244]",244,a,0.47764177853241563,colour,0.06
150,22,1,2,12,1,551,1127.1319733319106,1128.0224519567564,"[86, 0, 168]",168,l,0.36629807972349226,colour,0.06
150,22,1,2,12,2,552,1128.5392703459365,1129.4704387361417,"[95, 0, 159]",159,l,0.4159505896968767,colour,0.06
150,22,1,2,12,3,553,1129.9841461387696,1131.2303996824194,"[63, 0, 191]",191,l,0.7231686769519001,colour,0.06
150,22,1,2,12,4,554,1131.7500183138764,1132.3584207736421,"[10, 0, 244]",244,a,0.0852801778819412,colour,0.06
150,22,1,2,12,5,555,1132.87500915688,1133.4943928200519,"[50, 0, 204]",204,a,0.09607233526185155,colour,0.06
150,22,1,2,12,6,556,1134.0156400030246,1135.110391773982,"[65, 0, 189]",189,a,0.57146210456267,colour,0.06
150,22,1,2,12,7,557,1135.625029833871,1136.198419418768,"[51, 0, 203]",203,a,0.0624351630685851,colour,0.06
150,22,1,2,12,8,558,1136.7064420538954,1137.446477956837,"[69, 0, 185]",185,a,0.21688605181407183,colour,0.06
150,22,1,2,12,9,559,1137.9564489462646,1138.6064017241588,"[82, 0, 172]",172,l,0.13920827582478523,colour,0.06
150,22,1,2,12,10,560,1139.1034163744189,1140.1744031072594,"[62, 0, 192]",192,a,0.560055547975935,colour,0.06
150,22,1,2,12,11,561,1140.6848282006104,1141.454463176662,"[91, 0, 163]",163,l,0.24666865693870932,colour,0.06
150,22,1,2,12,12,562,1141.9660650806036,1142.8864133504685,"[81, 0, 173]",173,l,0.39713973563630134,colour,0.06
150,22,1,2,12,13,563,1143.4035542991478,1144.126429167227,"[94, 0, 160]",160,l,0.19959780480712652,colour,0.06
150,22,1,2,12,14,564,1144.6378869237378,1145.3424314295407,"[98, 0, 156]",156,l,0.18117410107515752,colour,0.06
150,22,1,2,12,15,565,1145.8566894283285,1146.8303872368997,"[76, 0, 178]",178,l,0.4504463452612981,colour,0.06
150,22,1,2,12,16,566,1147.341019493062,1148.1345226946287,"[68, 0, 186]",186,l,0.27022771374322474,colour,0.06
150,22,1,2,12,17,567,1148.6535450437805,1149.4704241638537,"[60, 0, 194]",194,a,0.2937233612174168,colour,0.06
150,22,1,2,12,18,568,1149.981592443888,1150.8944344101474,"[83, 0, 171]",171,l,0.38950976461637765,colour,0.06
150,22,1,2,12,19,569,1151.403542089858,1152.2703817073489,"[84, 0, 170]",170,l,0.3436377786565572,colour,0.06
150,22,1,2,12,20,570,1152.7784846868599,1153.678408910986,"[80, 0, 174]",174,l,0.3893549832282588,colour,0.06
150,22,1,2,12,21,571,1154.187953365501,1155.062378843315,"[57, 0, 197]",197,a,0.3512027651304379,colour,0.06
150,22,1,2,12,22,572,1155.578577713226,1156.4383923064452,"[61, 0, 193]",193,a,0.33657967136241496,colour,0.06
150,22,1,2,12,23,573,1156.9535876578884,1157.8463939102367,"[58, 0, 196]",196,a,0.36964852432720363,colour,0.06
150,22,1,2,12,24,574,1158.359858310083,1159.2864076790866,"[70, 0, 184]",184,l,0.40334713633637875,colour,0.06
150,22,1,2,12,25,575,1159.788063799846,1160.7583516931627,"[66, 0, 188]",188,a,0.4469411193858832,colour,0.06
150,22,1,2,12,26,576,1161.2724092245335,1162.2304091347614,"[52, 0, 202]",202,a,0.43466928391717374,colour,0.06
150,22,1,2,12,27,577,1162.741309599718,1163.7343546800548,"[71, 0, 183]",183,a,0.4704670930514112,colour,0.06
150,22,1,2,12,28,578,1164.228895585984,1165.1104532139143,"[59, 0, 195]",195,a,0.35820967238396406,colour,0.06
150,22,1,2,12,29,579,1165.619609730551,1166.5104176102905,"[74, 0, 180]",180,l,0.3675469640875235,colour,0.06
150,22,1,2,12,30,580,1167.025840604445,1167.8706504675793,"[87, 0, 167]",167,l,0.32163047359790653,colour,0.06
150,22,1,2,12,31,581,1168.3870466541266,1168.9903267580085,"[34, 0, 220]",220,a,0.08000500977504998,colour,0.06
150,22,1,2,12,32,582,1169.4964293957455,1170.1023486589547,"[89, 0, 165]",165,l,0.0827020644210279,colour,0.06
150,22,1,2,12,33,583,1170.6214852232952,1171.2383573330007,"[77, 0, 177]",177,l,0.09364270174410194,colour,0.06
150,22,1,2,12,34,584,1171.7464366818313,1172.3983582939254,"[97, 0, 157]",157,l,0.1286543948808685,colour,0.06
150,22,1,2,12,35,585,1172.9216822249582,1173.4463854031637,"[92, 0, 162]",162,l,0.0014225703198462725,colour,0.06
150,22,1,2,12,36,586,1173.9685392187675,1175.1503757680766,"[78, 0, 176]",176,l,0.6583728032419458,colour,0.06
150,22,1,2,12,37,587,1175.6717355910223,1176.2543986646924,"[54, 0, 200]",200,a,0.05949077336117625,colour,0.06
150,22,1,2,12,38,588,1176.7547042889055,1177.3743600993184,"[88, 0, 166]",166,l,0.0963980455417186,colour,0.06
150,22,1,2,12,39,589,1177.8952736951178,1178.4623806549935,"[44, 0, 210]",210,a,0.04375388438347727,colour,0.06
150,22,1,2,12,40,590,1178.9745642689522,1179.726350949495,"[67, 0, 187]",187,a,0.22848441114183515,colour,0.06
150,22,1,2,12,41,591,1180.2400697737467,1180.8703507510945,"[79, 0, 175]",175,l,0.1077415868639946,colour,0.06
150,22,1,2,12,42,592,1181.3807679674355,1181.9184003093978,"[72, 0, 182]",182,l,0.01435842935461551,colour,0.06
150,22,1,2,12,43,593,1182.427645047428,1183.702352361055,"[64, 0, 190]",190,l,0.7514026811113581,colour,0.06
150,22,1,2,12,44,594,1184.2089284012327,1185.2223427827703,"[99, 0, 155]",155,l,0.4901325920363888,colour,0.06
150,22,1,2,12,45,595,1185.7401095521636,1186.302367090946,"[73, 0, 181]",181,l,0.038971810950897634,colour,0.06
150,22,1,2,12,46,596,1186.818283967441,1187.3743297732435,"[85, 0, 169]",169,l,0.032942822319455445,colour,0.06
150,22,1,2,12,47,597,1187.880776238162,1188.4144015948987,"[93, 0, 161]",161,l,0.010368379531428218,colour,0.06
150,22,1,2,12,48,598,1188.9277226349805,1190.2703155413037,"[96, 0, 158]",158,l,0.8315605029929429,colour,0.06
150,22,1,2,12,49,599,1190.7902520060306,1191.4063096430618,"[55, 0, 199]",199,a,0.09254978015087545,colour,0.06
150,22,1,2,12,50,600,1191.9153503690613,1192.4783873283304,"[90, 0, 164]",164,l,0.039717754581943154,colour,0.06
150,22,1,2,13,1,601,1197.0551474440144,1198.0543526635738,"[94, 0, 160]",160,l,0.475096354377456,colour,0.06
150,22,1,2,13,2,602,1198.571628307458,1199.5663346286165,"[56, 0, 198]",198,a,0.47142374399118125,colour,0.06
150,22,1,2,13,3,603,1200.087224987452,1200.6303455680609,"[76, 0, 178]",178,l,0.01981082814745605,colour,0.06
150,22,1,2,13,4,604,1201.1496979597723,1202.1826155759627,"[85, 0, 169]",169,l,0.5096767866052687,colour,0.06
150,22,1,2,13,5,605,1202.6966026090086,1203.374291570275,"[78, 0, 176]",176,l,0.15451784245669842,colour,0.06
150,22,1,2,13,6,606,1203.884056972107,1204.4783373099053,"[54, 0, 200]",200,a,0.07111276348587126,colour,0.06
150,22,1,2,13,7,607,1204.9934282921022,1205.67832777882,"[79, 0, 175]",175,l,0.16169528476893902,colour,0.06
150,22,1,2,13,8,608,1206.1965584983118,1207.1823194040917,"[67, 0, 187]",187,l,0.4625795469619334,colour,0.06
150,22,1,2,13,9,609,1207.6965671628714,1208.5183701408096,"[69, 0, 185]",185,l,0.29689539375249296,colour,0.06
150,22,1,2,13,10,610,1209.0263722959207,1209.7343038739637,"[81, 0, 173]",173,l,0.18469153612386435,colour,0.06
150,22,1,2,13,11,611,1210.245086185285,1210.790298873675,"[57, 0, 197]",197,a,0.02272449783049524,colour,0.06
150,22,1,2,13,12,612,1211.307619415922,1211.8782761063194,"[93, 0, 161]",161,l,0.04734378703869879,colour,0.06
150,22,1,2,13,13,613,1212.3857737451326,1212.9183384756325,"[86, 0, 168]",168,l,0.00926206714939326,colour,0.06
150,22,1,2,13,14,614,1213.4326370406197,1214.0943067254266,"[68, 0, 186]",186,a,0.13830479397438467,colour,0.06
150,22,1,2,13,15,615,1214.6045864897314,1215.5263065237086,"[70, 0, 184]",184,a,0.398520952090621,colour,0.06
150,22,1,2,13,16,616,1216.0419961513253,1217.006261357572,"[0, 0, 254]",254,a,0.44117994571570307,colour,0.06
150,22,1,2,13,17,617,1217.5136487196432,1218.3023229802493,"[99, 0, 155]",155,l,0.2654330371879041,colour,0.06
150,22,1,2,13,18,618,1218.801219818648,1219.6703035683604,"[72, 0, 182]",182,l,0.3442309101810679,colour,0.06
150,22,1,2,13,19,619,1220.1778236564714,1220.790323292138,"[84, 0, 170]",170,l,0.08913080638740212,colour,0.06
150,22,1,2,13,20,620,1221.302877908689,1222.2382927422877,"[88, 0, 166]",166,l,0.4121976348105818,colour,0.06
150,22,1,2,13,21,621,1222.7559890133562,1223.7503199995263,"[92, 0, 162]",162,l,0.4710519537329674,colour,0.06
150,22,1,2,13,22,622,1224.2715904194629,1225.4463448370807,"[59, 0, 195]",195,a,0.651449391269125,colour,0.06
150,22,1,2,13,23,623,1225.959082985646,1227.0382593441755,"[61, 0, 193]",193,a,0.5559095352655277,colour,0.06
150,22,1,2,13,24,624,1227.5557094616815,1228.4942959339824,"[74, 0, 180]",180,l,0.4152038583997637,colour,0.06
150,22,1,2,13,25,625,1228.9967228106689,1229.6062977488618,"[24, 0, 230]",230,a,0.08630614564754069,colour,0.06
150,22,1,2,13,26,626,1230.1216923861066,1230.7743044096278,"[91, 0, 163]",163,l,0.12935189553536475,colour,0.06
150,22,1,2,13,27,627,1231.293540223036,1232.3903010004433,"[50, 0, 204]",204,a,0.5734722925117239,colour,0.06
150,22,1,2,13,28,628,1232.9048835280119,1233.6462864691857,"[95, 0, 159]",159,l,0.21809003793168813,colour,0.06
150,22,1,2,13,29,629,1234.1557939022314,1239.0462788285222,"[55, 0, 199]",199,a,4.367121216957457,colour,0.06
150,22,1,2,13,30,630,1239.5654142113635,1240.102239957545,"[80, 0, 174]",174,l,0.013572707423008978,colour,0.06
150,22,1,2,13,31,631,1240.5999398991698,1241.3742529733572,"[62, 0, 192]",192,a,0.25120103219524026,colour,0.06
150,22,1,2,13,32,632,1241.881135819247,1242.6703004175797,"[77, 0, 177]",177,l,0.2658056151121855,colour,0.06
150,22,1,2,13,33,633,1243.1780107330997,1244.014317075722,"[71, 0, 183]",183,l,0.31303321779705584,colour,0.06
150,22,1,2,13,34,634,1244.5217351577012,1245.358304983005,"[73, 0, 181]",181,l,0.32563548954203725,colour,0.06
150,22,1,2,13,35,635,1245.8716571369441,1247.5823613880202,"[97, 0, 157]",157,l,1.1874539692653343,colour,0.06
150,22,1,2,13,36,636,1248.0903127370402,1248.6462529922137,"[43, 0, 211]",211,a,0.045095322420820594,colour,0.06
150,22,1,2,13,37,637,1249.1564331136178,1250.0462587424554,"[64, 0, 190]",190,a,0.3766471608541906,colour,0.06
150,22,1,2,13,38,638,1250.552956087049,1251.102321877377,"[98, 0, 156]",156,l,0.026151348487474024,colour,0.06
150,22,1,2,13,39,639,1251.6153790409444,1252.1426402464276,"[90, 0, 164]",164,l,0.0018778558587655425,colour,0.06
150,22,1,2,13,40,640,1252.6646034407895,1254.622235105373,"[51, 0, 203]",203,a,1.4344538503792137,colour,0.06
150,22,1,2,13,41,641,1255.1333340685815,1256.1982859051786,"[53, 0, 201]",201,a,0.5417464532656595,colour,0.06
150,22,1,2,13,42,642,1256.7114368039183,1258.8702865542145,"[87, 0, 167]",167,l,1.6355687484610826,colour,0.06
150,22,1,2,13,43,643,1259.3833500192268,1259.98224898451,"[58, 0, 196]",196,a,0.07574753870721906,colour,0.06
150,22,1,2,13,44,644,1260.4927213393385,1261.0222325847717,"[60, 0, 194]",194,a,0.006275536026805639,colour,0.06
150,22,1,2,13,45,645,1261.5395909362705,1263.6542204889702,"[83, 0, 171]",171,l,1.591360760270618,colour,0.06
150,22,1,2,13,46,646,1264.1645837485557,1266.1822622964391,"[89, 0, 165]",165,l,1.4944696199381724,colour,0.06
150,22,1,2,13,47,647,1266.6958369731437,1269.2942542651435,"[75, 0, 179]",179,l,2.0755025666439906,colour,0.06
150,22,1,2,13,48,648,1269.806024735095,1270.4622120889835,"[66, 0, 188]",188,l,0.13289847515989095,colour,0.06
150,22,1,2,13,49,649,1270.9778694212437,1272.158213689574,"[65, 0, 189]",189,a,0.6569896173896268,colour,0.06
150,22,1,2,13,50,650,1272.6654490273213,1274.5182153595379,"[63, 0, 191]",191,a,1.3296574410051107,colour,0.06
150,22,1,2,14,1,651,1280.2967591232155,1281.2942042468349,"[51, 0, 203]",203,a,0.4732996306847781,colour,0.06
150,22,1,2,14,2,652,1281.813264798955,1282.3421738544712,"[31, 0, 223]",223,a,0.005585912265814841,colour,0.06
150,22,1,2,14,3,653,1282.8716035739053,1284.5982483322732,"[56, 0, 198]",198,a,1.2032841998152435,colour,0.06
150,22,1,2,14,4,654,1285.1060106353834,1286.3981822449714,"[60, 0, 194]",194,a,0.768833500216715,colour,0.06
150,22,1,2,14,5,655,1286.918466869276,1287.734166421811,"[73, 0, 181]",181,a,0.29232757235877216,colour,0.06
150,22,1,2,14,6,656,1288.2466706261039,1289.1101826420054,"[92, 0, 162]",162,l,0.3410061022732407,colour,0.06
150,22,1,2,14,7,657,1289.6216518200235,1290.3423101251246,"[64, 0, 190]",190,a,0.1973552480340004,colour,0.06
150,22,1,2,14,8,658,1290.8547710063867,1291.6382071202388,"[89, 0, 165]",165,l,0.25880107085686177,colour,0.06
150,22,1,2,14,9,659,1292.155698197661,1292.9424126824597,"[71, 0, 183]",183,a,0.2630648434860632,colour,0.06
150,22,1,2,14,10,660,1293.4528783418937,1294.2622003523866,"[59, 0, 195]",195,a,0.28605321794748306,colour,0.06
150,22,1,2,14,11,661,1294.7809529172955,1295.5661999334116,"[67, 0, 187]",187,a,0.26191245135851204,colour,0.06
150,22,1,2,14,12,662,1296.0778175912565,1296.9262323232833,"[83, 0, 171]",171,a,0.32513373030815274,colour,0.06
150,22,1,2,14,13,663,1297.437147754361,1298.1262023121817,"[87, 0, 167]",167,l,0.1656695808051154,colour,0.06
150,22,1,2,14,14,664,1298.640326403547,1299.406216695439,"[94, 0, 160]",160,l,0.2425620286958292,colour,0.06
150,22,1,2,14,15,665,1299.921660957276,1300.6061839275062,"[62, 0, 192]",192,a,0.16122306394390762,colour,0.06
150,22,1,2,14,16,666,1301.1247761972481,1301.9261669449043,"[80, 0, 174]",174,l,0.2788604156812653,colour,0.06
150,22,1,2,14,17,667,1302.4371761112707,1303.1905106051126,"[57, 0, 197]",197,a,0.23001371370628476,colour,0.06
150,22,1,2,14,18,668,1303.7028490003431,1304.34221126989,"[53, 0, 201]",201,a,0.11606315081007779,colour,0.06
150,22,1,2,14,19,669,1304.848346202867,1305.4062033046503,"[55, 0, 199]",199,a,0.034606032189913094,colour,0.06
150,22,1,2,14,20,670,1305.9156433901517,1306.4462408617837,"[58, 0, 196]",196,a,0.00765872176270932,colour,0.06
150,22,1,2,14,21,671,1306.9624641502742,1307.6941859723302,"[75, 0, 179]",179,l,0.20786935032811016,colour,0.06
150,22,1,2,14,22,672,1308.2130228201859,1308.9822348060552,"[98, 0, 156]",156,l,0.2452354527777061,colour,0.06
150,22,1,2,14,23,673,1309.4950273053255,1310.1501638791524,"[85, 0, 169]",169,l,0.1318673874484375,colour,0.06
150,22,1,2,14,24,674,1310.671624920331,1311.4221386919962,"[74, 0, 180]",180,a,0.22722016682382673,colour,0.06
150,22,1,2,14,25,675,1311.9372603942174,1312.6221204963513,"[86, 0, 168]",168,l,0.16157594963442534,colour,0.06
150,22,1,2,14,26,676,1313.1402937143575,1313.8221326267812,"[97, 0, 157]",157,l,0.15886077797040343,colour,0.06
150,22,1,2,14,27,677,1314.3434928434435,1315.7901444862364,"[66, 0, 188]",188,a,0.9233737917384133,colour,0.06
150,22,1,2,14,28,678,1316.2965767727,1316.8781370787183,"[91, 0, 163]",163,l,0.05823716276790947,colour,0.06
150,22,1,2,14,29,679,1317.3902820958756,1318.086161998217,"[78, 0, 176]",176,a,0.17257763294037431,colour,0.06
150,22,1,2,14,30,680,1318.5934694096213,1319.334205963998,"[76, 0, 178]",178,a,0.217489029513672,colour,0.06
150,22,1,2,14,31,681,1319.8453691239702,1320.3821507593384,"[77, 0, 177]",177,a,0.013438406051136553,colour,0.06
150,22,1,2,14,32,682,1320.8921981548192,1322.3101439663442,"[7, 0, 247]",247,a,0.8946305452845991,colour,0.06
150,22,1,2,14,33,683,1322.829672013293,1324.1663040661952,"[50, 0, 204]",204,a,0.8133337219478562,colour,0.06
150,22,1,2,14,34,684,1324.673469299334,1325.3661523568444,"[52, 0, 202]",202,a,0.16938078810926527,colour,0.06
150,22,1,2,14,35,685,1325.876627862337,1326.4221414488275,"[95, 0, 159]",159,l,0.022265667677856982,colour,0.06
150,22,1,2,14,36,686,1326.939072477864,1327.7421898446046,"[61, 0, 193]",193,a,0.2797847712645307,colour,0.06
150,22,1,2,14,37,687,1328.2515050810762,1329.1821575335925,"[68, 0, 186]",186,a,0.4073210385395214,colour,0.06
150,22,1,2,14,38,688,1329.6890888224589,1331.310147904791,"[99, 0, 155]",155,l,1.0977662652730942,colour,0.06
150,22,1,2,14,39,689,1331.829622782534,1332.6141715103295,"[81, 0, 173]",173,l,0.26116493227891624,colour,0.06
150,22,1,2,14,40,690,1333.1265335363569,1333.9582598482957,"[69, 0, 185]",185,l,0.3083696918329224,colour,0.06
150,22,1,2,14,41,691,1334.4715789192123,1335.3902072651545,"[4, 0, 250]",250,a,0.39525321510154754,colour,0.06
150,22,1,2,14,42,692,1335.8979494821979,1336.7501557659125,"[70, 0, 184]",184,a,0.3289114973740652,colour,0.06
150,22,1,2,14,43,693,1337.2572879161453,1338.102119440795,"[90, 0, 164]",164,l,0.32131224626209587,colour,0.06
150,22,1,2,14,44,694,1338.6166377716,1339.3181319430005,"[96, 0, 158]",158,l,0.17827657889574766,colour,0.06
150,22,1,2,14,45,695,1339.8353701715823,1340.7901247938862,"[79, 0, 175]",175,l,0.4314669251907617,colour,0.06
150,22,1,2,14,46,696,1341.3041898084339,1342.190132907126,"[93, 0, 161]",161,l,0.36268257698975503,colour,0.06
150,22,1,2,14,47,697,1342.7104947252665,1343.7101461718557,"[65, 0, 189]",189,a,0.4764500017045066,colour,0.06
150,22,1,2,14,48,698,1344.2259665562306,1345.11017712811,"[84, 0, 170]",170,l,0.3607803026679903,colour,0.06
150,22,1,2,14,49,699,1345.616653131554,1346.5180999627337,"[88, 0, 166]",166,l,0.37825247552245855,colour,0.06
150,22,1,2,14,50,700,1347.0385397622595,1348.1341292428551,"[72, 0, 182]",182,a,0.5722612173995003,colour,0.06
150,22,1,2,15,1,701,1355.7252048588125,1357.8540924104163,"[59, 0, 195]",195,l,1.6047991663217545,colour,0.06
150,22,1,2,15,2,702,1358.3666072485503,1359.1100873313844,"[97, 0, 157]",157,l,0.22021837951615453,colour,0.06
150,22,1,2,15,3,703,1359.6165617593797,1360.39807945129,"[53, 0, 201]",201,a,0.25827804394066334,colour,0.06
150,22,1,2,15,4,704,1360.9134630608605,1361.598157353932,"[99, 0, 155]",155,l,0.16144361742772162,colour,0.06
150,22,1,2,15,5,705,1362.1165853900602,1363.0940625411458,"[84, 0, 170]",170,l,0.4542642845772207,colour,0.06
150,22,1,2,15,6,706,1363.600967048551,1364.8301339942263,"[67, 0, 187]",187,a,0.7061131928348914,colour,0.06
150,22,1,2,15,7,707,1365.3515777061693,1366.246105457656,"[56, 0, 198]",198,a,0.37203404714819044,colour,0.06
150,22,1,2,15,8,708,1366.7522974984022,1367.5741674300516,"[57, 0, 197]",197,a,0.2986141360597685,colour,0.06
150,22,1,2,15,9,709,1368.082348785014,1368.9980973318452,"[95, 0, 159]",159,l,0.39246912056114525,colour,0.06
150,22,1,2,15,10,710,1369.5042401418323,1370.5900720973732,"[72, 0, 182]",182,a,0.5627675688592717,colour,0.06
150,22,1,2,15,11,711,1371.0979147450998,1371.9740770818898,"[70, 0, 184]",184,a,0.3528773966245353,colour,0.06
150,22,1,2,15,12,712,1372.4885635111714,1373.3501007851446,"[81, 0, 173]",173,a,0.3384350781561807,colour,0.06
150,22,1,2,15,13,713,1373.8646939465543,1374.5341405067593,"[61, 0, 193]",193,a,0.1579789575189352,colour,0.06
150,22,1,2,15,14,714,1375.0403675998095,1375.6540936706588,"[93, 0, 161]",161,l,0.09108231135178357,colour,0.06
150,22,1,2,15,15,715,1376.1654891995713,1376.910107890144,"[88, 0, 166]",166,l,0.23369892709888518,colour,0.06
150,22,1,2,15,16,716,1377.4186689121416,1378.2300814552,"[65, 0, 189]",189,a,0.28825560270342976,colour,0.06
150,22,1,2,15,17,717,1378.7468368289992,1379.590069734375,"[69, 0, 185]",185,a,0.33249273558612913,colour,0.06
150,22,1,2,15,18,718,1380.1095075906487,1380.934067487833,"[51, 0, 203]",203,a,0.3013844460947439,colour,0.06
150,22,1,2,15,19,719,1381.453179633827,1382.1981252161786,"[91, 0, 163]",163,l,0.22169333137571812,colour,0.06
150,22,1,2,15,20,720,1382.7187914769165,1383.5500770756043,"[73, 0, 181]",181,l,0.3079581231577322,colour,0.06
150,22,1,2,15,21,721,1384.062619876815,1384.8220802452415,"[79, 0, 175]",175,l,0.23620693595148623,colour,0.06
150,22,1,2,15,22,722,1385.3281561015174,1386.0300338786328,"[71, 0, 183]",183,l,0.17859913839492947,colour,0.06
150,22,1,2,15,23,723,1386.5469270984177,1387.3100915849209,"[77, 0, 177]",177,l,0.23987127549480647,colour,0.06
150,22,1,2,15,24,724,1387.8281289262231,1388.8780973004177,"[15, 0, 239]",239,a,0.5266054526437074,colour,0.06
150,22,1,2,15,25,725,1389.3906755476492,1390.2301149320556,"[96, 0, 158]",158,l,0.31604259205050766,colour,0.06
150,22,1,2,15,26,726,1390.7507461404894,1391.5900669774273,"[98, 0, 156]",156,l,0.31626353948377073,colour,0.06
150,22,1,2,15,27,727,1392.1101625558222,1392.9020557166077,"[83, 0, 171]",171,l,0.26859404204878956,colour,0.06
150,22,1,2,15,28,728,1393.4226896819891,1394.3900225516409,"[32, 0, 222]",222,a,0.4441219724249095,colour,0.06
150,22,1,2,15,29,729,1394.9069539743941,1395.7580551273422,"[78, 0, 176]",176,l,0.32652479293756187,colour,0.06
150,22,1,2,15,30,730,1396.2678264370188,1397.6700377225643,"[50, 0, 204]",204,a,0.8793040433665738,colour,0.06
150,22,1,2,15,31,731,1398.1897134615574,1399.230131867458,"[68, 0, 186]",186,a,0.5171775763155892,colour,0.06
150,22,1,2,15,32,732,1399.736535797012,1400.6860688142478,"[66, 0, 188]",188,a,0.4262370492797345,colour,0.06
150,22,1,2,15,33,733,1401.2052546093473,1402.2380198072642,"[55, 0, 199]",199,a,0.5094534761738032,colour,0.06
150,22,1,2,15,34,734,1402.7521702862578,1403.7500687261345,"[89, 0, 165]",165,l,0.4746414626715705,colour,0.06
150,22,1,2,15,35,735,1404.267757907859,1405.2780199490953,"[80, 0, 174]",174,l,0.4872531867586076,colour,0.06
150,22,1,2,15,36,736,1405.799001286272,1406.9500686472747,"[85, 0, 169]",169,l,0.6278151099104434,colour,0.06
150,22,1,2,15,37,737,1407.470891264733,1408.3740347828716,"[76, 0, 178]",178,a,0.3798731501447037,colour,0.06
150,22,1,2,15,38,738,1408.8927566278726,1410.3980369159253,"[64, 0, 190]",190,a,0.982010314008221,colour,0.06
150,22,1,2,15,39,739,1410.9084033262916,1411.8860395909287,"[62, 0, 192]",192,a,0.4544840503949672,colour,0.06
150,22,1,2,15,40,740,1412.3927274832968,1413.3100419603288,"[87, 0, 167]",167,l,0.39403426297940314,colour,0.06
150,22,1,2,15,41,741,1413.8302143387264,1414.7580452812836,"[12, 0, 242]",242,a,0.4045975961489603,colour,0.06
150,22,1,2,15,42,742,1415.2677059202688,1415.8780421619304,"[54, 0, 200]",200,a,0.0909952714573592,colour,0.06
150,22,1,2,15,43,743,1416.3886819011532,1417.2380009026965,"[90, 0, 164]",164,l,0.3259785290574655,colour,0.06
150,22,1,2,15,44,744,1417.7481034364318,1418.5900539804716,"[58, 0, 196]",196,a,0.31869514216668904,colour,0.06
150,22,1,2,15,45,745,1419.107405636576,1419.974063297268,"[60, 0, 194]",194,a,0.3410714805359021,colour,0.06
150,22,1,2,15,46,746,1420.4847987409448,1421.3660074216314,"[52, 0, 202]",202,a,0.3581734385807067,colour,0.06
150,22,1,2,15,47,747,1421.875242707436,1423.1100365252933,"[75, 0, 179]",179,l,0.7114986376836896,colour,0.06
150,22,1,2,15,48,748,1423.6254008363467,1424.5260276810732,"[74, 0, 180]",180,l,0.37744784890674055,colour,0.06
150,22,1,2,15,49,749,1425.0472898301668,1425.7580866350327,"[86, 0, 168]",168,a,0.18769027665257454,colour,0.06
150,22,1,2,15,50,750,1426.2659036826808,1426.9099865856115,"[92, 0, 162]",162,l,0.12075897201430053,colour,0.06
150,22,1,2,16,1,751,1431.5307152315509,1432.1419840996386,"[45, 0, 209]",209,a,0.08717221207916737,colour,0.06
150,22,1,2,16,2,752,1432.6566339748679,1433.2061072851066,"[73, 0, 181]",181,l,0.0262805299134925,colour,0.06
150,22,1,2,16,3,753,1433.7190998579608,1434.8379809741164,"[61, 0, 193]",193,a,0.595680458820425,colour,0.06
150,22,1,2,16,4,754,1435.343996571959,1435.9819776248187,"[21, 0, 233]",233,a,0.11470162647310644,colour,0.06
150,22,1,2,16,5,755,1436.5002882949775,1438.1981015853817,"[52, 0, 202]",202,a,1.1746598945464939,colour,0.06
150,22,1,2,16,6,756,1438.719039599644,1439.3180460847216,"[80, 0, 174]",174,l,0.07596139691304415,colour,0.06
150,22,1,2,16,7,757,1439.8283790181158,1440.3660393231548,"[99, 0, 155]",155,l,0.01440726628061384,colour,0.06
150,22,1,2,16,8,758,1440.8752553104423,1441.9979886304354,"[56, 0, 198]",198,a,0.5994495613267645,colour,0.06
150,22,1,2,16,9,759,1442.5158664643532,1443.5259965672158,"[77, 0, 177]",177,a,0.4868108981754631,colour,0.06
150,22,1,2,16,10,760,1444.0470921196975,1444.6219668964623,"[96, 0, 158]",158,l,0.05163906724192202,colour,0.06
150,22,1,2,16,11,761,1445.1408655781997,1446.2780349152163,"[66, 0, 188]",188,a,0.6155869914218783,colour,0.06
150,22,1,2,16,12,762,1446.7953078021528,1447.334020462702,"[70, 0, 184]",184,a,0.015430477214977145,colour,0.06
150,22,1,2,16,13,763,1447.83802469098,1448.462004532339,"[86, 0, 168]",168,l,0.10064842738211155,colour,0.06
150,22,1,2,16,14,764,1448.9786303309957,1449.5340184146771,"[74, 0, 180]",180,a,0.032043672748841345,colour,0.06
150,22,1,2,16,15,765,1450.0411730140913,1451.2780187675962,"[90, 0, 164]",164,l,0.7237889838870615,colour,0.06
150,22,1,2,16,16,766,1451.79661694495,1452.5899299191078,"[87, 0, 167]",167,l,0.270096956868656,colour,0.06
150,22,1,2,16,17,767,1453.1089475421468,1453.6939429695485,"[89, 0, 165]",165,l,0.06165653036441654,colour,0.06
150,22,1,2,16,18,768,1454.202736360603,1454.885980907944,"[63, 0, 191]",191,a,0.15992731181904674,colour,0.06
150,22,1,2,16,19,769,1455.4058838959318,1456.4860834653955,"[59, 0, 195]",195,a,0.556866186321713,colour,0.06
150,22,1,2,16,20,770,1456.9995557421353,1457.629945814726,"[58, 0, 196]",196,a,0.10713506466709077,colour,0.06
150,22,1,2,16,21,771,1458.1401286929613,1458.8539588967105,"[85, 0, 169]",169,l,0.19041096209548414,colour,0.06
150,22,1,2,16,22,772,1459.374577108305,1460.0619361607824,"[97, 0, 157]",157,l,0.16412609990220517,colour,0.06
150,22,1,2,16,23,773,1460.5776927421102,1461.5499431680655,"[71, 0, 183]",183,a,0.44898635952267796,colour,0.06
150,22,1,2,16,24,774,1462.0620369852986,1462.637945606839,"[60, 0, 194]",194,a,0.052551213768310845,colour,0.06
150,22,1,2,16,25,775,1463.1562145292992,1463.8860159602482,"[51, 0, 203]",203,a,0.20655193680431694,colour,0.06
150,22,1,2,16,26,776,1464.4061977908714,1464.997951215133,"[54, 0, 200]",200,a,0.0685515854274854,colour,0.06
150,22,1,2,16,27,777,1465.5155458740192,1466.7419724419015,"[57, 0, 197]",197,a,0.7031817999668419,colour,0.06
150,22,1,2,16,28,778,1467.249932849314,1467.829953219043,"[88, 0, 166]",166,l,0.05690438929013908,colour,0.06
150,22,1,2,16,29,779,1468.343629901763,1469.3499093761202,"[53, 0, 201]",201,a,0.4829330942593515,colour,0.06
150,22,1,2,16,30,780,1469.8593041693093,1470.4459427207476,"[50, 0, 204]",204,a,0.06341190030798316,colour,0.06
150,22,1,2,16,31,781,1470.9530618739082,1471.9499567952007,"[65, 0, 189]",189,a,0.47366039326880127,colour,0.06
150,22,1,2,16,32,782,1472.4686526462901,1472.9979464890203,"[79, 0, 175]",175,l,0.006041197804734111,colour,0.06
150,22,1,2,16,33,783,1473.515469861799,1474.0379911353812,"[98, 0, 156]",156,l,0.008544086711481214,colour,0.06
150,22,1,2,16,34,784,1474.5531356806168,1475.229921160033,"[62, 0, 192]",192,a,0.15364980674348772,colour,0.06
150,22,1,2,16,35,785,1475.740659360541,1477.4379626208683,"[75, 0, 179]",179,a,1.174038012395613,colour,0.06
150,22,1,2,16,36,786,1477.9344798441743,1478.5499486819608,"[69, 0, 185]",185,l,0.0923453742871061,colour,0.06
150,22,1,2,16,37,787,1479.059624287067,1479.7659336149227,"[84, 0, 170]",170,l,0.18313308898359537,colour,0.06
150,22,1,2,16,38,788,1480.2782034811098,1480.9179458116414,"[95, 0, 159]",159,l,0.11645030102226883,colour,0.06
150,22,1,2,16,39,789,1481.4344349458115,1482.7979272693628,"[76, 0, 178]",178,l,0.8404716537334025,colour,0.06
150,22,1,2,16,40,790,1483.3094736411003,1484.1899332274916,"[93, 0, 161]",161,l,0.35724238760303706,colour,0.06
150,22,1,2,16,41,791,1484.6877832242753,1485.2859067074023,"[81, 0, 173]",173,l,0.07487438293173909,colour,0.06
150,22,1,2,16,42,792,1485.7971399719827,1486.7259311100934,"[72, 0, 182]",182,l,0.4055400686338544,colour,0.06
150,22,1,2,16,43,793,1487.234635885805,1488.2059426576598,"[55, 0, 199]",199,a,0.44866222457494587,colour,0.06
150,22,1,2,16,44,794,1488.71904038731,1489.5580040061614,"[94, 0, 160]",160,l,0.31569522013887763,colour,0.06
150,22,1,2,16,45,795,1490.0784505010815,1490.981944541796,"[33, 0, 221]",221,a,0.37980659026652575,colour,0.06
150,22,1,2,16,46,796,1491.5003123196075,1492.4780123872915,"[68, 0, 186]",186,a,0.454598659533076,colour,0.06
150,22,1,2,16,47,797,1492.9846246612724,1493.9179426608607,"[82, 0, 172]",172,l,0.4101236439310014,colour,0.06
150,22,1,2,16,48,798,1494.437750338111,1495.509929635562,"[78, 0, 176]",176,l,0.5488860864425078,colour,0.06
150,22,1,2,16,49,799,1496.0158184150932,1497.549904965097,"[92, 0, 162]",162,l,1.0107129944954067,colour,0.06
150,22,1,2,16,50,800,1498.0534637540113,1498.9979299474508,"[91, 0, 163]",163,l,0.42128207767382264,colour,0.06
