id,age,condition,counterbalance,block,trialinblock,trial,tstart,tend,trialstim,trialintensity,response,RT,trialtype,colourfreq
004,70,0,1,Practice,1,NA,6.3015613704919815e-06,2.287352120853029,"[39, 0, 215]",215,a,1.6534576100530103,colour,0.5
004,70,0,1,Practice,2,NA,2.7978658294305205,11.015302083571441,"[72, 0, 182]",182,a,7.694029615726322,colour,0.5
004,70,0,1,Practice,3,NA,11.53290422540158,24.2873084039893,"[53, 0, 201]",201,a,12.23105701082386,colour,0.5
004,70,0,1,Practice,4,NA,24.799638528493233,30.423325348761864,"[34, 0, 220]",220,a,5.100325080216862,colour,0.5
004,70,0,1,Practice,5,NA,30.938361586537212,32.047272500931285,"[49, 0, 205]",205,a,0.5855330266058445,colour,0.5
004,70,0,1,Practice,6,NA,32.56730348872952,33.847271004342474,"[56, 0, 198]",198,a,0.7571737008402124,colour,0.5
004,70,0,1,Practice,7,NA,34.364055522717535,35.5993006877834,"[78, 0, 176]",176,a,0.711873184889555,colour,0.5
004,70,0,1,Practice,8,NA,36.11412976263091,37.175280201481655,"[43, 0, 211]",211,a,0.5377977571915835,colour,0.5
004,70,0,1,Practice,9,NA,37.692353014834225,38.68729367409833,"[50, 0, 204]",204,a,0.47180577425751835,colour,0.5
004,70,0,1,Practice,10,NA,39.20807415014133,40.11926747870166,"[46, 0, 208]",208,a,0.38787373004015535,colour,0.5
004,70,0,1,1,1,1,4.989537885179743,5.55199195293244,"[11, 0, 243]",243,a,0.03826170729007572,colour,0.5
004,70,0,1,1,2,2,6.068449185579084,7.807987267733552,"[97, 0, 157]",157,l,1.216093634488061,colour,0.5
004,70,0,1,1,3,3,8.318648668355308,8.967948056408204,"[6, 0, 248]",248,a,0.12580098351463675,colour,0.5
004,70,0,1,1,4,4,9.475002618972212,10.207923701032996,"[66, 0, 188]",188,l,0.20951247424818575,colour,0.5
004,70,0,1,1,5,5,10.72514302493073,11.447948182467371,"[64, 0, 190]",190,l,0.19941506045870483,colour,0.5
004,70,0,1,1,6,6,11.959661150933243,12.615943027776666,"[17, 0, 237]",237,a,0.13295597664546221,colour,0.5
004,70,0,1,1,7,7,13.133244665456004,14.063921536435373,"[45, 0, 209]",209,a,0.4071493218652904,colour,0.5
004,70,0,1,1,8,8,14.570870942203328,15.183970404788852,"[51, 0, 203]",203,a,0.089732208638452,colour,0.5
004,70,0,1,1,9,9,15.695956308278255,16.2959029028425,"[59, 0, 195]",195,a,0.07778687123209238,colour,0.5
004,70,0,1,1,10,10,16.804339075810276,17.519951430964284,"[0, 0, 254]",254,a,0.19209307676646858,colour,0.5
004,70,0,1,1,11,11,18.038851294084452,18.591924747102894,"[98, 0, 156]",156,l,0.029634125297889113,colour,0.5
004,70,0,1,1,12,12,19.103862207499333,19.639949493226595,"[48, 0, 206]",206,a,0.01265741023235023,colour,0.5
004,70,0,1,1,13,13,20.150833022780716,20.97590570698958,"[71, 0, 183]",183,l,0.3016589564504102,colour,0.5
004,70,0,1,1,14,14,21.4950363637181,22.10392207209952,"[22, 0, 232]",232,a,0.08619980735238642,colour,0.5
004,70,0,1,1,15,15,22.619818074745126,23.2159506684402,"[7, 0, 247]",247,a,0.07269681058824062,colour,0.5
004,70,0,1,1,16,16,23.729158674832433,24.263923033024184,"[81, 0, 173]",173,l,0.01172438997309655,colour,0.5
004,70,0,1,1,17,17,24.776465046568774,30.183924718759954,"[21, 0, 233]",233,a,4.8823996698483825,colour,0.5
004,70,0,1,1,18,18,30.700533975847065,31.335955426096916,"[13, 0, 241]",241,a,0.11196243029553443,colour,0.5
004,70,0,1,1,19,19,31.856789858895354,32.98396851436701,"[56, 0, 198]",198,a,0.6037594139343128,colour,0.5
004,70,0,1,1,20,20,33.497654255479574,34.22389886667952,"[75, 0, 179]",179,l,0.20292028645053506,colour,0.5
004,70,0,1,1,21,21,34.7321180307772,35.351940044085495,"[70, 0, 184]",184,l,0.09646460553631186,colour,0.5
004,70,0,1,1,22,22,35.87282134452835,36.455880233086646,"[41, 0, 213]",213,a,0.05972038535401225,colour,0.5
004,70,0,1,1,23,23,36.96668814436998,37.6318858981831,"[4, 0, 250]",250,a,0.1421940193977207,colour,0.5
004,70,0,1,1,24,24,38.13868524879217,38.70390765729826,"[16, 0, 238]",238,a,0.04194022517185658,colour,0.5
004,70,0,1,1,25,25,39.21692701173015,39.759921955526806,"[99, 0, 155]",155,l,0.01966825593262911,colour,0.5
004,70,0,1,1,26,26,40.28103011101484,43.45592591911554,"[57, 0, 197]",197,a,2.6515179203124717,colour,0.5
004,70,0,1,1,27,27,43.98470815643668,44.59987452079076,"[54, 0, 200]",200,a,0.09216302377171814,colour,0.5
004,70,0,1,1,28,28,45.1094997136388,45.68803016538732,"[47, 0, 207]",207,a,0.05501314264256507,colour,0.5
004,70,0,1,1,29,29,46.20508131722454,46.759896355564706,"[44, 0, 210]",210,a,0.03143242443911731,colour,0.5
004,70,0,1,1,30,30,47.26782486157026,51.57591492298525,"[87, 0, 167]",167,l,3.784805515082553,colour,0.5
004,70,0,1,1,31,31,52.096169615047984,53.07187682390213,"[77, 0, 177]",177,l,0.4523127794964239,colour,0.5
004,70,0,1,1,32,32,53.58070014719851,54.20786186726764,"[1, 0, 253]",253,a,0.10386260144878179,colour,0.5
004,70,0,1,1,33,33,54.721321147168055,55.327902071061544,"[43, 0, 211]",211,a,0.08156227529980242,colour,0.5
004,70,0,1,1,34,34,55.8481158032082,56.49586580262985,"[86, 0, 168]",168,l,0.1243969239294529,colour,0.5
004,70,0,1,1,35,35,57.004391378490254,57.591936956276186,"[40, 0, 214]",214,a,0.0641582376556471,colour,0.5
004,70,0,1,1,36,36,58.09817350155208,58.67190691374708,"[85, 0, 169]",169,l,0.05027675535529852,colour,0.5
004,70,0,1,1,37,37,59.19198240607511,59.791923486744054,"[50, 0, 204]",204,a,0.07681682950351387,colour,0.5
004,70,0,1,1,38,38,60.30150299356319,60.863868052256294,"[88, 0, 166]",166,l,0.03913565073162317,colour,0.5
004,70,0,1,1,39,39,61.379679771955125,61.9998475817265,"[9, 0, 245]",245,a,0.0967588082421571,colour,0.5
004,70,0,1,1,40,40,62.52039017493371,63.05590559670236,"[68, 0, 186]",186,l,0.01231240143533796,colour,0.5
004,70,0,1,1,41,41,63.5674267624272,64.27987653727178,"[78, 0, 176]",176,l,0.18919516075402498,colour,0.5
004,70,0,1,1,42,42,64.78630252217408,70.68787380866706,"[14, 0, 240]",240,a,5.378299736999907,colour,0.5
004,70,0,1,1,43,43,71.1945124702761,72.07200679299422,"[73, 0, 181]",181,l,0.3542759424308315,colour,0.5
004,70,0,1,1,44,44,72.58507143962197,73.23191992635839,"[39, 0, 215]",215,a,0.12333669152576476,colour,0.5
004,70,0,1,1,45,45,73.7414679256035,74.83187597326469,"[90, 0, 164]",164,l,0.5670463076094165,colour,0.5
004,70,0,1,1,46,46,75.35111808823422,76.43990546127316,"[37, 0, 217]",217,a,0.5643906065961346,colour,0.5
004,70,0,1,1,47,47,76.96155751752667,77.92783842561767,"[35, 0, 219]",219,a,0.4430152663262561,colour,0.5
004,70,0,1,1,48,48,78.44600731134415,79.5038644131273,"[23, 0, 231]",231,a,0.535050290171057,colour,0.5
004,70,0,1,1,49,49,80.02428255113773,81.08783426659647,"[79, 0, 175]",175,l,0.5401037231786177,colour,0.5
004,70,0,1,1,50,50,81.60248217254411,82.6958834468387,"[12, 0, 242]",242,a,0.5682187859201804,colour,0.5
004,70,0,1,2,1,51,88.55853294080589,91.00780798913911,"[53, 0, 201]",201,a,1.9250574817415327,colour,0.5
004,70,0,1,2,2,52,91.52827890252229,92.82382616284303,"[87, 0, 167]",167,l,0.7723174585262313,colour,0.5
004,70,0,1,2,3,53,93.33454506495036,94.54384053032845,"[39, 0, 215]",215,a,0.6859045807505026,colour,0.5
004,70,0,1,2,4,54,95.0534369724337,96.15186174749397,"[90, 0, 164]",164,l,0.574938973528333,colour,0.5
004,70,0,1,2,5,55,96.6546426913701,97.7998106390005,"[78, 0, 176]",176,l,0.6283357738284394,colour,0.5
004,70,0,1,2,6,56,98.32052022276912,99.34381934138946,"[3, 0, 251]",251,a,0.4999322585063055,colour,0.5
004,70,0,1,2,7,57,99.84459442959633,101.04787193401717,"[21, 0, 233]",233,a,0.6800091058248654,colour,0.5
004,70,0,1,2,8,58,101.56179319473449,102.71979617699981,"[63, 0, 191]",191,l,0.6348649464780465,colour,0.5
004,70,0,1,2,9,59,103.23384425602853,104.27986787259579,"[65, 0, 189]",189,l,0.5226323379902169,colour,0.5
004,70,0,1,2,10,60,104.79636488377582,105.93585554684978,"[62, 0, 192]",192,l,0.6160241600591689,colour,0.5
004,70,0,1,2,11,61,106.45279445266351,107.56783163570799,"[67, 0, 187]",187,l,0.5917467289837077,colour,0.5
004,70,0,1,2,12,62,108.07792235410307,109.28780189249665,"[51, 0, 203]",203,a,0.6867734041297808,colour,0.5
004,70,0,1,2,13,63,109.79678669234272,110.86385978141334,"[52, 0, 202]",202,a,0.5435813799267635,colour,0.5
004,70,0,1,2,14,64,111.37502097222023,112.40780231775716,"[30, 0, 224]",224,a,0.5093947931891307,colour,0.5
004,70,0,1,2,15,65,112.9220016336767,113.91178488463629,"[48, 0, 206]",206,a,0.46633959107566625,colour,0.5
004,70,0,1,2,16,66,114.42215602111537,115.45581327937543,"[15, 0, 239]",239,a,0.5108508404809982,colour,0.5
004,70,0,1,2,17,67,115.96913392562419,117.02379733335692,"[56, 0, 198]",198,l,0.5313686213921756,colour,0.5
004,70,0,1,2,18,68,117.53171993163414,118.62380458007101,"[32, 0, 222]",222,a,0.5686165700899437,colour,0.5
004,70,0,1,2,19,69,119.14124721451662,120.26378912560176,"[61, 0, 193]",193,l,0.5991360603366047,colour,0.5
004,70,0,1,2,20,70,120.78197061433457,121.95177478645928,"[75, 0, 179]",179,l,0.6457209069048986,colour,0.5
004,70,0,1,2,21,71,122.47060612041969,123.5917790242238,"[79, 0, 175]",175,l,0.5977745359996334,colour,0.5
004,70,0,1,2,22,72,124.11137717566453,125.22391658974811,"[1, 0, 253]",253,a,0.5891977600986138,colour,0.5
004,70,0,1,2,23,73,125.73644481867086,127.02379221329466,"[42, 0, 212]",212,a,0.7638749838806689,colour,0.5
004,70,0,1,2,24,74,127.53493922564667,128.6878308794694,"[13, 0, 241]",241,a,0.6293613477610052,colour,0.5
004,70,0,1,2,25,75,129.20707575138658,130.2158336963039,"[6, 0, 248]",248,a,0.4854017186444253,colour,0.5
004,70,0,1,2,26,76,130.72281972970814,131.7838768271031,"[66, 0, 188]",188,l,0.5379931045463309,colour,0.5
004,70,0,1,2,27,77,132.3010969387833,133.33574432483874,"[25, 0, 229]",229,a,0.5112584705930203,colour,0.5
004,70,0,1,2,28,78,133.8480189171387,134.92779273947235,"[74, 0, 180]",180,l,0.5564109006663784,colour,0.5
004,70,0,1,2,29,79,135.4418754769722,136.4478115180973,"[9, 0, 245]",245,a,0.482543581048958,colour,0.5
004,70,0,1,2,30,80,136.95766829210334,138.0237760656746,"[23, 0, 231]",231,a,0.5427361872280017,colour,0.5
004,70,0,1,2,31,81,138.535882092081,139.55979994218796,"[59, 0, 195]",195,l,0.5005352362059057,colour,0.5
004,70,0,1,2,32,82,140.0672656794777,141.19179020938464,"[8, 0, 246]",246,a,0.601113952929154,colour,0.5
004,70,0,1,2,33,83,141.7079559963895,142.81573460472282,"[45, 0, 209]",209,a,0.5816737335408106,colour,0.5
004,70,0,1,2,34,84,143.33582782011945,144.34378547070082,"[0, 0, 254]",254,a,0.4847160334466025,colour,0.5
004,70,0,1,2,35,85,144.85069155343808,145.9838192468742,"[16, 0, 238]",238,a,0.6096954549429938,colour,0.5
004,70,0,1,2,36,86,146.49136966106016,147.63978762261104,"[27, 0, 227]",227,a,0.6249455508077517,colour,0.5
004,70,0,1,2,37,87,148.14779883623123,149.26377691631205,"[54, 0, 200]",200,l,0.592592315399088,colour,0.5
004,70,0,1,2,38,88,149.7729393406771,150.80774032650515,"[81, 0, 173]",173,l,0.511390408850275,colour,0.5
004,70,0,1,2,39,89,151.32078803773038,152.6637602172559,"[64, 0, 190]",190,l,0.8195092211244628,colour,0.5
004,70,0,1,2,40,90,153.1802934622392,154.15975362586323,"[76, 0, 178]",178,l,0.45601650362368673,colour,0.5
004,70,0,1,2,41,91,154.6803757759044,155.81575154012535,"[37, 0, 217]",217,a,0.6119773964164779,colour,0.5
004,70,0,1,2,42,92,156.3368021941278,157.37574998044875,"[41, 0, 213]",213,a,0.5155549324117601,colour,0.5
004,70,0,1,2,43,93,157.883841932402,158.96776058594696,"[50, 0, 204]",204,a,0.5605100458487868,colour,0.5
004,70,0,1,2,44,94,159.47771385218948,160.5117480206536,"[5, 0, 249]",249,a,0.5098197525367141,colour,0.5
004,70,0,1,2,45,95,161.02581815514714,162.1037306630751,"[33, 0, 221]",221,a,0.5545058693969622,colour,0.5
004,70,0,1,2,46,96,162.61952229670715,163.75972582038958,"[83, 0, 171]",171,l,0.6167476545087993,colour,0.5
004,70,0,1,2,47,97,164.2760404809378,165.4237420373829,"[86, 0, 168]",168,l,0.6243599024601281,colour,0.5
004,70,0,1,2,48,98,165.93237828393467,167.03172347624786,"[26, 0, 228]",228,a,0.5758574216160923,colour,0.5
004,70,0,1,2,49,99,167.54190753598232,168.68773990112823,"[43, 0, 211]",211,a,0.6223997328197584,colour,0.5
004,70,0,1,2,50,100,169.19960607553367,170.3117721240269,"[92, 0, 162]",162,l,0.588759409962222,colour,0.5
004,70,0,1,3,1,101,175.73193489259575,176.9277364196023,"[49, 0, 205]",205,a,0.6722275041975081,colour,0.5
004,70,0,1,3,2,102,177.43594731285702,178.41572688531596,"[25, 0, 229]",229,a,0.45710312377195805,colour,0.5
004,70,0,1,3,3,103,178.93612414959352,179.9917505098274,"[7, 0, 247]",247,a,0.5323437831830233,colour,0.5
004,70,0,1,3,4,104,180.49869637098163,181.55969872383866,"[79, 0, 175]",175,l,0.5375523912953213,colour,0.5
004,70,0,1,3,5,105,182.07696964149363,183.22371848544572,"[78, 0, 176]",176,l,0.6234560267766938,colour,0.5
004,70,0,1,3,6,106,183.73327908758074,184.91181757382583,"[48, 0, 206]",206,a,0.6539357386063784,colour,0.5
004,70,0,1,3,7,107,185.42252505442593,186.4476870627841,"[73, 0, 181]",181,l,0.5019058188190684,colour,0.5
004,70,0,1,3,8,108,186.95364515925758,188.0158282611519,"[51, 0, 203]",203,a,0.538646494387649,colour,0.5
004,70,0,1,3,9,109,188.5319554512389,189.65568716998678,"[96, 0, 158]",158,l,0.6004822246031836,colour,0.5
004,70,0,1,3,10,110,190.17422311974224,191.33573250949848,"[63, 0, 191]",191,l,0.638416646164842,colour,0.5
004,70,0,1,3,11,111,191.8460961629171,193.00783831533045,"[85, 0, 169]",169,l,0.6387754394672811,colour,0.5
004,70,0,1,3,12,112,193.51820984564256,194.55171035323292,"[34, 0, 220]",220,a,0.5106791236903518,colour,0.5
004,70,0,1,3,13,113,195.0652291039005,196.18377584510017,"[98, 0, 156]",156,l,0.595290157943964,colour,0.5
004,70,0,1,3,14,114,196.69039954058826,197.83171882887837,"[33, 0, 221]",221,a,0.617896108306013,colour,0.5
004,70,0,1,3,15,115,198.3467649127124,199.47169628506526,"[81, 0, 173]",173,l,0.6015404877252877,colour,0.5
004,70,0,1,3,16,116,199.9875245463336,201.0557090677321,"[0, 0, 254]",254,a,0.5447987567167729,colour,0.5
004,70,0,1,3,17,117,201.56584389682394,202.623684457154,"[77, 0, 177]",177,l,0.5324331860756502,colour,0.5
004,70,0,1,3,18,118,203.13031287875492,204.19167048030067,"[84, 0, 170]",170,l,0.5379946798784658,colour,0.5
004,70,0,1,3,19,119,204.70862789696548,205.83966899639927,"[17, 0, 237]",237,a,0.6077537961537018,colour,0.5
004,70,0,1,3,20,120,206.3493355429964,207.49570668896195,"[1, 0, 253]",253,a,0.6230842365184799,colour,0.5
004,70,0,1,3,21,121,208.0057103674626,209.15967879525851,"[50, 0, 204]",204,a,0.6308492965763435,colour,0.5
004,70,0,1,3,22,122,209.67785043781623,210.7756375769386,"[89, 0, 165]",165,l,0.5745726972818375,colour,0.5
004,70,0,1,3,23,123,211.28857225447427,212.43972941231914,"[52, 0, 202]",202,a,0.627825350034982,colour,0.5
004,70,0,1,3,24,124,212.96057211584412,214.15966264752205,"[36, 0, 218]",218,a,0.6757677822606638,colour,0.5
004,70,0,1,3,25,125,214.67828996956814,215.86366600939073,"[37, 0, 217]",217,a,0.6622498193755746,colour,0.5
004,70,0,1,3,26,126,216.3815143047832,217.55165915330872,"[41, 0, 213]",213,a,0.6452128459932283,colour,0.5
004,70,0,1,3,27,127,218.07105762511492,219.26366191345733,"[70, 0, 184]",184,l,0.6692488498520106,colour,0.5
004,70,0,1,3,28,128,219.7742811726639,220.9436745637795,"[30, 0, 224]",224,a,0.6433003317797557,colour,0.5
004,70,0,1,3,29,129,221.4646432979498,222.63968719204422,"[86, 0, 168]",168,l,0.6517451693071052,colour,0.5
004,70,0,1,3,30,130,223.15225874388125,224.39162510936148,"[56, 0, 198]",198,a,0.7160436160629615,colour,0.5
004,70,0,1,3,31,131,224.9023325899616,226.15180503379088,"[4, 0, 250]",250,a,0.7263489803299308,colour,0.5
004,70,0,1,3,32,132,226.66808030975517,227.83169834886212,"[24, 0, 230]",230,a,0.6400518930749968,colour,0.5
004,70,0,1,3,33,133,228.34092024387792,229.5196556528099,"[11, 0, 243]",243,a,0.655390604166314,colour,0.5
004,70,0,1,3,34,134,230.02843683457468,231.2076456460636,"[80, 0, 174]",174,l,0.655822652974166,colour,0.5
004,70,0,1,3,35,135,231.71622951107565,232.9516448173672,"[47, 0, 207]",207,a,0.7107353649334982,colour,0.5
004,70,0,1,3,36,136,233.4676853613928,234.71165735740215,"[83, 0, 171]",171,l,0.7206531850388274,colour,0.5
004,70,0,1,3,37,137,235.21784703503363,236.39963041525334,"[16, 0, 238]",238,a,0.6584807169856504,colour,0.5
004,70,0,1,3,38,138,236.91958854161203,238.19959780480713,"[8, 0, 246]",246,a,0.7565096771577373,colour,0.5
004,70,0,1,3,39,139,238.7191097040195,239.89563130692113,"[67, 0, 187]",187,l,0.6531858565285802,colour,0.5
004,70,0,1,3,40,140,240.4067924976116,241.64761294110212,"[65, 0, 189]",189,l,0.7174488571472466,colour,0.5
004,70,0,1,3,41,141,242.15686279907823,243.36762533930596,"[26, 0, 228]",228,a,0.687405526288785,colour,0.5
004,70,0,1,3,42,142,243.87804216193035,245.06367301987484,"[43, 0, 211]",211,a,0.6623045639134943,colour,0.5
004,70,0,1,3,43,143,245.58125389413908,246.81560542341322,"[22, 0, 232]",232,a,0.711296594934538,colour,0.5
004,70,0,1,3,44,144,247.33134782628622,248.55959396087565,"[23, 0, 231]",231,a,0.7048410715069622,colour,0.5
004,70,0,1,3,45,145,249.0659569305135,250.29562563553918,"[32, 0, 222]",222,a,0.7063770693494007,colour,0.5
004,70,0,1,3,46,146,250.81605558888987,252.03160847327672,"[58, 0, 196]",196,l,0.6921430950751528,colour,0.5
004,70,0,1,3,47,147,252.55056583788246,253.73565161356237,"[35, 0, 219]",219,a,0.6616586571326479,colour,0.5
004,70,0,1,3,48,148,254.25384964386467,255.53563003079034,"[53, 0, 201]",201,l,0.7583343638107181,colour,0.5
004,70,0,1,3,49,149,256.0508100221632,257.2396700202953,"[72, 0, 182]",182,l,0.6654029473429546,colour,0.5
004,70,0,1,3,50,150,257.7541714156978,258.9275938475039,"[92, 0, 162]",162,l,0.6501721499953419,colour,0.5
004,70,0,1,4,1,151,263.61453187896404,264.7996089900844,"[41, 0, 213]",213,a,0.6609800612786785,colour,0.5
004,70,0,1,4,2,152,265.3199168512365,266.48760292166844,"[43, 0, 211]",211,a,0.6443727733567357,colour,0.5
004,70,0,1,4,3,153,267.00755592796486,268.2316320252139,"[85, 0, 169]",169,l,0.7007242032559589,colour,0.5
004,70,0,1,4,4,154,268.74085195106454,269.95162748813163,"[27, 0, 227]",227,a,0.6874059201218188,colour,0.5
004,70,0,1,4,5,155,270.4598612245172,271.6636042544851,"[96, 0, 158]",158,l,0.6804131913231686,colour,0.5
004,70,0,1,4,6,156,272.17985905043315,273.367650545435,"[53, 0, 201]",201,a,0.664967747987248,colour,0.5
004,70,0,1,4,7,157,273.8832980316365,275.08759126381483,"[80, 0, 174]",174,l,0.6808617814676836,colour,0.5
004,70,0,1,4,8,158,275.602160400711,276.8396284301998,"[65, 0, 189]",189,l,0.7141098340507597,colour,0.5
004,70,0,1,4,9,159,277.3537151062628,278.51963399129454,"[2, 0, 252]",252,a,0.6425819572759792,colour,0.5
004,70,0,1,4,10,160,279.0256822784431,280.2156001458643,"[10, 0, 244]",244,a,0.666461210581474,colour,0.5
004,70,0,1,4,11,161,280.7289826258784,281.87952774751466,"[70, 0, 184]",184,l,0.6277394915232435,colour,0.5
004,70,0,1,4,12,162,282.4010588933015,283.56753743300214,"[11, 0, 243]",243,a,0.6430841104593128,colour,0.5
004,70,0,1,4,13,163,284.08868536690716,285.34357870172244,"[98, 0, 156]",156,l,0.7315217485884205,colour,0.5
004,70,0,1,4,14,164,285.85442954220343,287.0555456219008,"[13, 0, 241]",241,a,0.6776413059560582,colour,0.5
004,70,0,1,4,15,165,287.5732997881714,288.7995455808705,"[67, 0, 187]",187,l,0.7028572710696608,colour,0.5
004,70,0,1,4,16,166,289.3092361520976,290.5675433407305,"[40, 0, 214]",214,a,0.7349659284809604,colour,0.5
004,70,0,1,4,17,167,291.0749842658406,292.2475642617792,"[44, 0, 210]",210,a,0.6491859605303034,colour,0.5
004,70,0,1,4,18,168,292.76255638874136,293.93552353500854,"[28, 0, 226]",226,a,0.6496999290538952,colour,0.5
004,70,0,1,4,19,169,294.4502549362369,295.7115545637207,"[4, 0, 250]",250,a,0.7379221335286275,colour,0.5
004,70,0,1,4,20,170,296.2316375391092,297.383617440355,"[22, 0, 232]",232,a,0.6285846842220053,colour,0.5
004,70,0,1,4,21,171,297.9035385452444,299.09556703129783,"[17, 0, 237]",237,a,0.6685541061451659,colour,0.5
004,70,0,1,4,22,172,299.6068668557564,300.6955486780498,"[89, 0, 165]",165,l,0.5652779407100752,colour,0.5
004,70,0,1,4,23,173,301.2021798565984,302.3675288471859,"[92, 0, 162]",162,l,0.6422779085114598,colour,0.5
004,70,0,1,4,24,174,302.8738256507786,304.11153865233064,"[0, 0, 254]",254,a,0.7142910030670464,colour,0.5
004,70,0,1,4,25,175,304.62396645057015,305.7675424742047,"[15, 0, 239]",239,a,0.6205289661884308,colour,0.5
004,70,0,1,4,26,176,306.28031370590907,307.50350758899003,"[7, 0, 247]",247,a,0.6996832693694159,colour,0.5
004,70,0,1,4,27,177,308.0148633394856,309.1755547118373,"[90, 0, 164]",164,l,0.637320967623964,colour,0.5
004,70,0,1,4,28,178,309.68683129933197,310.8634974434972,"[45, 0, 209]",209,a,0.6634266300825402,colour,0.5
004,70,0,1,4,29,179,311.3799310454633,312.5676390451845,"[35, 0, 219]",219,a,0.6642592197749764,colour,0.5
004,70,0,1,4,30,180,313.0830986669753,314.45553325512446,"[49, 0, 205]",205,a,0.8489606020739302,colour,0.5
004,70,0,1,4,31,181,314.9739073343808,316.1115429846104,"[88, 0, 166]",166,l,0.6141789933899418,colour,0.5
004,70,0,1,4,32,182,316.63165943697095,317.8475207024021,"[16, 0, 238]",238,a,0.6923262332566082,colour,0.5
004,70,0,1,4,33,183,318.36622324900236,319.5435226968257,"[20, 0, 234]",234,a,0.6538758740061894,colour,0.5
004,70,0,1,4,34,184,320.0538575995015,321.30360100918915,"[79, 0, 175]",175,l,0.7267085614148527,colour,0.5
004,70,0,1,4,35,185,321.8196466731606,323.06361197377555,"[51, 0, 203]",203,l,0.7185138156637549,colour,0.5
004,70,0,1,4,36,186,323.5718307440402,324.7994778394932,"[57, 0, 197]",197,l,0.7042207646882161,colour,0.5
004,70,0,1,4,37,187,325.3207080870634,326.5035131027689,"[30, 0, 224]",224,a,0.6593999525066465,colour,0.5
004,70,0,1,4,38,188,327.02391430549324,328.2235483441036,"[62, 0, 192]",192,l,0.676136028021574,colour,0.5
004,70,0,1,4,39,189,328.7441618295852,330.0795253056567,"[47, 0, 207]",207,a,0.8119895268464461,colour,0.5
004,70,0,1,4,40,190,330.5881304384675,331.8314955183305,"[66, 0, 188]",188,l,0.719976952066645,colour,0.5
004,70,0,1,4,41,191,332.33821334294043,333.5035493365722,"[97, 0, 157]",157,l,0.6419821303570643,colour,0.5
004,70,0,1,4,42,192,334.0102636165684,335.1595129861962,"[73, 0, 181]",181,l,0.6258297342574224,colour,0.5
004,70,0,1,4,43,193,335.66654588724487,336.8874995765509,"[38, 0, 216]",216,a,0.6974836415611207,colour,0.5
004,70,0,1,4,44,194,337.40252124203835,338.6794789894484,"[78, 0, 176]",176,l,0.7537366101751104,colour,0.5
004,70,0,1,4,45,195,339.19947807572316,340.38352212973405,"[68, 0, 186]",186,l,0.6606039386242628,colour,0.5
004,70,0,1,4,46,196,340.90277369704563,342.0956402865704,"[56, 0, 198]",198,l,0.6695115447510034,colour,0.5
004,70,0,1,4,47,197,342.6061126413988,343.76747079438064,"[75, 0, 179]",179,l,0.6379869605880231,colour,0.5
004,70,0,1,4,48,198,344.2779978936305,345.4954861353617,"[61, 0, 193]",193,l,0.6943419351009652,colour,0.5
004,70,0,1,4,49,199,346.0125491026556,347.2715415825369,"[60, 0, 194]",194,l,0.7357260504504666,colour,0.5
004,70,0,1,4,50,200,347.778229868738,349.0154734062962,"[9, 0, 245]",245,a,0.7139664742862806,colour,0.5
004,70,0,1,5,1,201,354.01251601963304,355.21547923528124,"[37, 0, 217]",217,a,0.6787743997992948,colour,0.5
004,70,0,1,5,2,202,355.7336012533633,356.9194715693593,"[90, 0, 164]",164,l,0.662429412943311,colour,0.5
004,70,0,1,5,3,203,357.4358988698805,358.7274615940405,"[61, 0, 193]",193,a,0.7682376117445529,colour,0.5
004,70,0,1,5,4,204,359.24850752204657,360.5834495833842,"[63, 0, 191]",191,l,0.8113731584744528,colour,0.5
004,70,0,1,5,5,205,361.0923796388088,362.21544969675597,"[31, 0, 223]",223,a,0.5994920966913924,colour,0.5
004,70,0,1,5,6,206,362.73326254612766,364.01548049552366,"[77, 0, 177]",177,l,0.7587289971997961,colour,0.5
004,70,0,1,5,7,207,364.53172544541303,365.655473705614,"[2, 0, 252]",252,a,0.6003175970399752,colour,0.5
004,70,0,1,5,8,208,366.1725102852797,367.3274341823999,"[83, 0, 171]",171,l,0.6319209503708407,colour,0.5
004,70,0,1,5,9,209,367.8445006943075,369.00751102960203,"[93, 0, 161]",161,l,0.639722244348377,colour,0.5
004,70,0,1,5,10,210,369.5165682970546,370.70345000876114,"[16, 0, 238]",238,a,0.6634912207955495,colour,0.5
004,70,0,1,5,11,211,371.21983989386354,372.4474712354131,"[99, 0, 155]",155,l,0.7042286415817216,colour,0.5
004,70,0,1,5,12,212,372.9543095767731,374.11146185244434,"[94, 0, 160]",160,l,0.6338055017404258,colour,0.5
004,70,0,1,5,13,213,374.6263082566438,375.84744981024414,"[73, 0, 181]",181,l,0.6977660289267078,colour,0.5
004,70,0,1,5,14,214,376.36227534059435,377.5194051670842,"[3, 0, 251]",251,a,0.6339882460888475,colour,0.5
004,70,0,1,5,15,215,378.03428819880355,379.25555381388403,"[47, 0, 207]",207,a,0.6979070256929845,colour,0.5
004,70,0,1,5,16,216,379.76875827566255,380.9994494038401,"[11, 0, 243]",243,a,0.7072734619723633,colour,0.5
004,70,0,1,5,17,217,381.51889946928713,382.7674357420765,"[0, 0, 254]",254,a,0.7250910374568775,colour,0.5
004,70,0,1,5,18,218,383.2845991399372,384.543424235424,"[58, 0, 196]",196,l,0.7353708016453311,colour,0.5
004,70,0,1,5,19,219,385.0504929764429,386.2554340848001,"[85, 0, 169]",169,l,0.6818534847116098,colour,0.5
004,70,0,1,5,20,220,386.7693309271708,387.9834777826909,"[79, 0, 175]",175,l,0.6908402538392693,colour,0.5
004,70,0,1,5,21,221,388.48955363896675,389.6794333034195,"[8, 0, 246]",246,a,0.6664860228775069,colour,0.5
004,70,0,1,5,22,222,390.1927803372964,391.3674366873456,"[80, 0, 174]",174,l,0.6512658592546359,colour,0.5
004,70,0,1,5,23,223,391.88045210321434,393.0634052049136,"[52, 0, 202]",202,l,0.6595653678523377,colour,0.5
004,70,0,1,5,24,224,393.5838765120134,394.78341130155604,"[1, 0, 253]",253,a,0.6762667846633121,colour,0.5
004,70,0,1,5,25,225,395.3026392381871,396.50347332435194,"[87, 0, 167]",167,l,0.6775341798784211,colour,0.5
004,70,0,1,5,26,226,397.0214819149114,398.23941244534217,"[59, 0, 195]",195,l,0.6944380335044116,colour,0.5
004,70,0,1,5,27,227,398.75592442252673,399.95941617898643,"[13, 0, 241]",241,a,0.6800536102382466,colour,0.5
004,70,0,1,5,28,228,400.4764263709076,401.66343135619536,"[97, 0, 157]",157,l,0.6637330419616774,colour,0.5
004,70,0,1,5,29,229,402.17975428758655,403.31142002600245,"[10, 0, 244]",244,a,0.6083768598036841,colour,0.5
004,70,0,1,5,30,230,403.8200775402365,405.0634221401997,"[84, 0, 170]",170,l,0.7199103921884671,colour,0.5
004,70,0,1,5,31,231,405.57022109697573,406.79143826896325,"[78, 0, 176]",176,l,0.6977467305259779,colour,0.5
004,70,0,1,5,32,232,407.3047474937048,408.4794073883677,"[71, 0, 183]",183,l,0.651693181716837,colour,0.5
004,70,0,1,5,33,233,408.9923794812057,410.2313646040857,"[21, 0, 233]",233,a,0.7155595797812566,colour,0.5
004,70,0,1,5,34,234,410.7424871979747,411.9594311451074,"[22, 0, 232]",232,a,0.6935948100872338,colour,0.5
004,70,0,1,5,35,235,412.47827665763907,413.6953828691039,"[32, 0, 222]",222,a,0.6937145391711965,colour,0.5
004,70,0,1,5,36,236,414.21287906647194,415.4473775001243,"[15, 0, 239]",239,a,0.7110843120608479,colour,0.5
004,70,0,1,5,37,237,415.9629978109151,417.17543380125426,"[70, 0, 184]",184,l,0.6890388040337712,colour,0.5
004,70,0,1,5,38,238,417.68186608771794,418.84736670879647,"[35, 0, 219]",219,a,0.6420226965565234,colour,0.5
004,70,0,1,5,39,239,419.3531026763376,420.5993865460623,"[48, 0, 206]",206,a,0.7237054886063561,colour,0.5
004,70,0,1,5,40,240,421.10596219229046,423.4313527100021,"[54, 0, 200]",200,l,1.801931103807874,colour,0.5
004,70,0,1,5,41,241,423.9499477366917,425.09535711153876,"[39, 0, 215]",215,a,0.6218562258873135,colour,0.5
004,70,0,1,5,42,242,425.6063662779052,426.76765668950975,"[66, 0, 188]",188,l,0.6378727453993633,colour,0.5
004,70,0,1,5,43,243,427.2797469620127,428.44739837397356,"[27, 0, 227]",227,a,0.6443873455282301,colour,0.5
004,70,0,1,5,44,244,428.9673281434225,430.079515065765,"[82, 0, 172]",172,l,0.5888956806156784,colour,0.5
004,70,0,1,5,45,245,430.5922606973909,431.66333565174136,"[41, 0, 213]",213,a,0.5477061250712723,colour,0.5
004,70,0,1,5,46,246,432.171169634792,433.3513492756756,"[64, 0, 190]",190,l,0.656779303913936,colour,0.5
004,70,0,1,5,47,247,433.85883628064767,435.095337419305,"[19, 0, 235]",235,a,0.7130866232328117,colour,0.5
004,70,0,1,5,48,248,435.608974323608,436.79137801064644,"[14, 0, 240]",240,a,0.6590584884397686,colour,0.5
004,70,0,1,5,49,249,437.3122648248682,438.5993865460623,"[46, 0, 208]",208,l,0.7640482760034502,colour,0.5
004,70,0,1,5,50,250,439.10923308017664,440.2713828628184,"[6, 0, 248]",248,a,0.6387218765448779,colour,0.5
004,70,0,1,6,1,251,445.21962761098985,446.4633199766977,"[45, 0, 209]",209,a,0.719470860552974,colour,0.5
004,70,0,1,6,2,252,446.9705891851336,448.1753522751387,"[5, 0, 249]",249,a,0.6813198238378391,colour,0.5
004,70,0,1,6,3,253,448.68939680967014,449.84732417343184,"[18, 0, 236]",236,a,0.6345230883453041,colour,0.5
004,70,0,1,6,4,254,450.36146953247953,451.5353271635249,"[53, 0, 201]",201,l,0.650702659972012,colour,0.5
004,70,0,1,6,5,255,452.049109396874,453.23946915904526,"[59, 0, 195]",195,l,0.6673631169833243,colour,0.5
004,70,0,1,6,6,256,453.7523546059383,454.9433165581431,"[49, 0, 205]",205,l,0.6662591678323224,colour,0.5
004,70,0,1,6,7,257,455.4568967486266,456.67131457000505,"[50, 0, 204]",204,l,0.6909186291741207,colour,0.5
004,70,0,1,6,8,258,457.19139872689266,458.4313058423577,"[92, 0, 162]",162,l,0.7164347047219053,colour,0.5
004,70,0,1,6,9,259,458.9416041173972,460.0873325072462,"[6, 0, 248]",248,a,0.6226277693640441,colour,0.5
004,70,0,1,6,10,260,460.5979958771495,461.8393814890878,"[55, 0, 199]",199,l,0.7180376563919708,colour,0.5
004,70,0,1,6,11,261,462.3481024124194,463.44730936491396,"[29, 0, 225]",225,a,0.5758306401548907,colour,0.5
004,70,0,1,6,12,262,463.9576387536945,465.1113657541573,"[88, 0, 166]",166,l,0.6303514756727964,colour,0.5
004,70,0,1,6,13,263,465.6295535444515,466.8393259567674,"[24, 0, 230]",230,a,0.6862669185502455,colour,0.5
004,70,0,1,6,14,264,467.3484895626316,468.52731240540743,"[86, 0, 168]",168,l,0.6556603885255754,colour,0.5
004,70,0,1,6,15,265,469.0361014640657,470.20738373871427,"[2, 0, 252]",252,a,0.647914233035408,colour,0.5
004,70,0,1,6,16,266,470.7237559007481,471.99132397503126,"[64, 0, 190]",190,l,0.7448124625952914,colour,0.5
004,70,0,1,6,17,267,472.50653980637435,473.647362061427,"[19, 0, 235]",235,a,0.617427825811319,colour,0.5
004,70,0,1,6,18,268,474.16292605223134,475.30330956343096,"[7, 0, 247]",247,a,0.6168492666911334,colour,0.5
004,70,0,1,6,19,269,475.81938122119755,477.0632866573287,"[52, 0, 202]",202,l,0.7211758182384074,colour,0.5
004,70,0,1,6,20,270,477.5694129258627,478.95928620989434,"[35, 0, 219]",219,l,0.8665560485096648,colour,0.5
004,70,0,1,6,21,271,479.47579976252746,480.46327429055236,"[69, 0, 185]",185,l,0.4640190526843071,colour,0.5
004,70,0,1,6,22,272,480.9759726608172,482.175292804488,"[47, 0, 207]",207,l,0.6758953883545473,colour,0.5
004,70,0,1,6,23,273,482.69481336837634,483.8793064063648,"[90, 0, 164]",164,l,0.6615349897183478,colour,0.5
004,70,0,1,6,24,274,484.3989309454337,485.6072689720895,"[27, 0, 227]",227,a,0.684999129618518,colour,0.5
004,70,0,1,6,25,275,486.11784215131775,487.30329262802843,"[75, 0, 179]",179,l,0.6620706196408719,colour,0.5
004,70,0,1,6,26,276,487.8210964188911,489.0073491591029,"[14, 0, 240]",240,a,0.66291226784233,colour,0.5
004,70,0,1,6,27,277,489.52421835425775,490.7512817705283,"[56, 0, 198]",198,l,0.7035973070887849,colour,0.5
004,70,0,1,6,28,278,491.25880737241823,492.47132882720325,"[66, 0, 188]",188,l,0.6890911855734885,colour,0.5
004,70,0,1,6,29,279,492.9777162153041,494.11930410622153,"[37, 0, 217]",217,a,0.6183009814703837,colour,0.5
004,70,0,1,6,30,280,494.63409064593725,495.8392968121916,"[71, 0, 183]",183,l,0.6818109493469819,colour,0.5
004,70,0,1,6,31,281,496.35436534532346,497.5592639181996,"[51, 0, 203]",203,l,0.6814679098315537,colour,0.5
004,70,0,1,6,32,282,498.0732741882093,499.23927223624196,"[20, 0, 234]",234,a,0.6426461541559547,colour,0.5
004,70,0,1,6,33,283,499.7608833326958,500.975280280225,"[61, 0, 193]",193,l,0.6910627767210826,colour,0.5
004,70,0,1,6,34,284,501.4954215447651,502.74326779996045,"[44, 0, 210]",210,l,0.7246751363854855,colour,0.5
004,70,0,1,6,35,285,503.26113618153613,504.46325499215163,"[62, 0, 192]",192,l,0.6788598642451689,colour,0.5
004,70,0,1,6,36,286,504.97997334448155,506.1832776303636,"[73, 0, 181]",181,l,0.6797724044881761,colour,0.5
004,70,0,1,6,37,287,506.69890345504973,507.87125344516244,"[80, 0, 174]",174,l,0.6489587116520852,colour,0.5
004,70,0,1,6,38,288,508.38813524344005,509.6152510411339,"[1, 0, 253]",253,a,0.7042932322947308,colour,0.5
004,70,0,1,6,39,289,510.1230609995546,511.34330182825215,"[79, 0, 175]",175,l,0.6968582147965208,colour,0.5
004,70,0,1,6,40,290,511.85761299624573,513.0552183361724,"[82, 0, 172]",172,l,0.6742853474570438,colour,0.5
004,70,0,1,6,41,291,513.576439131517,514.8472611581674,"[43, 0, 211]",211,l,0.747462649596855,colour,0.5
004,70,0,1,6,42,292,515.3577535990626,516.4952289542416,"[81, 0, 173]",173,l,0.6139678921317682,colour,0.5
004,70,0,1,6,43,293,517.0142627249006,518.2472460345598,"[28, 0, 226]",226,a,0.7096581972436979,colour,0.5
004,70,0,1,6,44,294,518.7643223925261,519.9672793066129,"[17, 0, 237]",237,a,0.6795494878897443,colour,0.5
004,70,0,1,6,45,295,520.484479725943,521.7112442133948,"[68, 0, 186]",186,l,0.7032700213603675,colour,0.5
004,70,0,1,6,46,296,522.2182842036709,523.5032283524051,"[87, 0, 167]",167,l,0.7620944079244509,colour,0.5
004,70,0,1,6,47,297,524.0146534197265,525.3512630234472,"[42, 0, 212]",212,l,0.8131320730317384,colour,0.5
004,70,0,1,6,48,298,525.8585664964048,527.1032159068855,"[10, 0, 244]",244,a,0.72125852573663,colour,0.5
004,70,0,1,6,49,299,527.6273318612948,528.823216095916,"[30, 0, 224]",224,a,0.6797672844259068,colour,0.5
004,70,0,1,6,50,300,529.3443549714284,530.5671995134326,"[38, 0, 216]",216,a,0.6998482906492427,colour,0.5
004,70,0,1,7,1,301,535.5017124406295,536.5672798579326,"[7, 0, 247]",247,a,0.5414790320210159,colour,0.5
004,70,0,1,7,2,302,537.0807111748727,538.2952101284172,"[88, 0, 166]",166,l,0.6909812506055459,colour,0.5
004,70,0,1,7,3,303,538.8152438730467,540.0552021884359,"[41, 0, 213]",213,a,0.717355121858418,colour,0.5
004,70,0,1,7,4,304,540.5662735824008,541.8152458423283,"[20, 0, 234]",234,a,0.7264549247920513,colour,0.5
004,70,0,1,7,5,305,542.3311182142934,543.6232086915988,"[33, 0, 221]",221,a,0.7686885650036857,colour,0.5
004,70,0,1,7,6,306,544.1437260787934,545.3272018135758,"[80, 0, 174]",174,l,0.6601171455113217,colour,0.5
004,70,0,1,7,7,307,545.8470504507422,547.023221531068,"[11, 0, 243]",243,a,0.6527675925754011,colour,0.5
004,70,0,1,7,8,308,547.5359328980558,548.735197509639,"[75, 0, 179]",179,l,0.6759131114231423,colour,0.5
004,70,0,1,7,9,309,549.2549697407521,550.4632479029242,"[15, 0, 239]",239,a,0.6849290251266211,colour,0.5
004,70,0,1,7,10,310,550.9737194699701,552.1912707270822,"[67, 0, 187]",187,l,0.6941020832164213,colour,0.5
004,70,0,1,7,11,311,552.7082631959347,554.0472559594782,"[45, 0, 209]",209,l,0.8156085741939023,colour,0.5
004,70,0,1,7,12,312,554.5677969772369,555.7911806940101,"[40, 0, 214]",214,l,0.7000133120454848,colour,0.5
004,70,0,1,7,13,313,556.302324555465,557.5191684658639,"[55, 0, 199]",199,l,0.6934884717920795,colour,0.5
004,70,0,1,7,14,314,558.0367812415352,559.2631889048498,"[99, 0, 155]",155,l,0.7029773941030726,colour,0.5
004,70,0,1,7,15,315,559.7713163028238,560.9752208094578,"[2, 0, 252]",252,a,0.6805116527248174,colour,0.5
004,70,0,1,7,16,316,561.4902609856799,562.6872030895902,"[49, 0, 205]",205,l,0.6735161669785157,colour,0.5
004,70,0,1,7,17,317,563.1934325456386,564.3991904896684,"[47, 0, 207]",207,l,0.6823430347722024,colour,0.5
004,70,0,1,7,18,318,564.9123870745534,566.1991854484659,"[34, 0, 220]",220,l,0.7636359196621925,colour,0.5
004,70,0,1,7,19,319,566.7093242160045,568.7751559037715,"[21, 0, 233]",233,a,1.542397873941809,colour,0.5
004,70,0,1,7,20,320,569.2890783461044,570.5031791217625,"[27, 0, 227]",227,a,0.6906527833780274,colour,0.5
004,70,0,1,7,21,321,571.022861949983,572.1912140132627,"[56, 0, 198]",198,l,0.6447906434768811,colour,0.5
004,70,0,1,7,22,322,572.7105467127403,573.9431629582541,"[82, 0, 172]",172,l,0.7092399330576882,colour,0.5
004,70,0,1,7,23,323,574.4620309199672,575.6152140195481,"[72, 0, 182]",182,l,0.6300001653144136,colour,0.5
004,70,0,1,7,24,324,576.1341280612396,577.3352153901942,"[79, 0, 175]",175,l,0.6777649734867737,colour,0.5
004,70,0,1,7,25,325,577.852955771843,579.0471823102562,"[59, 0, 195]",195,l,0.6708947304869071,colour,0.5
004,70,0,1,7,26,326,579.5561387533089,580.7431713078404,"[39, 0, 215]",215,a,0.6635640822350979,colour,0.5
004,70,0,1,7,27,327,581.2593993223272,582.4711708950344,"[77, 0, 177]",177,l,0.6883649341762066,colour,0.5
004,70,0,1,7,28,328,582.9783959927736,584.2631609417731,"[65, 0, 189]",189,l,0.7618147775065154,colour,0.5
004,70,0,1,7,29,329,584.7753583403537,585.9591463947436,"[74, 0, 180]",180,l,0.6603475451702252,colour,0.5
004,70,0,1,7,30,330,586.479956015246,587.9191415267996,"[48, 0, 206]",206,l,0.9157438207184896,colour,0.5
004,70,0,1,7,31,331,588.4332364734728,589.6551145184785,"[78, 0, 176]",176,l,0.6984032711479813,colour,0.5
004,70,0,1,7,32,332,590.167757750256,591.3191551538184,"[89, 0, 165]",165,l,0.6280061251018196,colour,0.5
004,70,0,1,7,33,333,591.8420816945145,593.0951345887734,"[18, 0, 236]",236,a,0.7296950925374404,colour,0.5
004,70,0,1,7,34,334,593.6077742760535,594.7431295601418,"[26, 0, 228]",228,a,0.6118458518758416,colour,0.5
004,70,0,1,7,35,335,595.2641778511461,596.4311317625688,"[8, 0, 246]",246,a,0.6434862267924473,colour,0.5
004,70,0,1,7,36,336,596.9504455574788,598.1432054148754,"[93, 0, 161]",161,l,0.6694040249567479,colour,0.5
004,70,0,1,7,37,337,598.6560321786674,599.8391002833378,"[14, 0, 240]",240,a,0.6597359029110521,colour,0.5
004,70,0,1,7,38,338,600.3593081077561,601.6151281612692,"[53, 0, 201]",201,l,0.7324803688097745,colour,0.5
004,70,0,1,7,39,339,602.1226577016059,603.3111474849284,"[50, 0, 204]",204,l,0.6654671442229301,colour,0.5
004,70,0,1,7,40,340,603.8258800676558,605.0551151485415,"[17, 0, 237]",237,a,0.7013787747127935,colour,0.5
004,70,0,1,7,41,341,605.5648966982262,606.8311178204603,"[98, 0, 156]",156,l,0.742911369772628,colour,0.5
004,70,0,1,7,42,342,607.3433191574877,608.5190959982574,"[25, 0, 229]",229,a,0.652331211604178,colour,0.5
004,70,0,1,7,43,343,609.0308940373361,610.3030846775509,"[66, 0, 188]",188,l,0.7487607648363337,colour,0.5
004,70,0,1,7,44,344,610.8194584149169,612.0471059042029,"[12, 0, 242]",242,a,0.7042534537613392,colour,0.5
004,70,0,1,7,45,345,612.5539525164058,613.7831119789043,"[3, 0, 251]",251,a,0.7057232856750488,colour,0.5
004,70,0,1,7,46,346,614.304142153007,615.5111044769874,"[95, 0, 159]",159,l,0.6835545039502904,colour,0.5
004,70,0,1,7,47,347,616.024445603136,617.1910974349594,"[69, 0, 185]",185,l,0.6435949282022193,colour,0.5
004,70,0,1,7,48,348,617.7120614430169,619.0310767816845,"[87, 0, 167]",167,l,0.7957934137666598,colour,0.5
004,70,0,1,7,49,349,619.5403057659278,620.751076183049,"[64, 0, 190]",190,l,0.6873610216425732,colour,0.5
004,70,0,1,7,50,350,621.2592650210718,622.5990994325839,"[16, 0, 238]",238,a,0.8164474653312936,colour,0.5
004,70,0,1,8,1,351,628.0269705473911,628.7990954153938,"[73, 0, 181]",181,l,0.24816369486507028,colour,0.5
004,70,0,1,8,2,352,629.3090699493187,630.5830970915267,"[72, 0, 182]",182,l,0.7504960484802723,colour,0.5
004,70,0,1,8,3,353,631.090372207691,632.3750780798728,"[52, 0, 202]",202,l,0.7611483908258379,colour,0.5
004,70,0,1,8,4,354,632.8874968196033,634.0550781270722,"[78, 0, 176]",176,l,0.6448737449245527,colour,0.5
004,70,0,1,8,5,355,634.5751315640518,635.7430980525678,"[30, 0, 224]",224,a,0.6445795422187075,colour,0.5
004,70,0,1,8,6,356,636.2626997486223,637.4151077599963,"[16, 0, 238]",238,a,0.6271908646449447,colour,0.5
004,70,0,1,8,7,357,637.9364809736144,639.1271093385294,"[39, 0, 215]",215,a,0.6672138494905084,colour,0.5
004,70,0,1,8,8,358,639.6397372103529,640.8630330995657,"[57, 0, 197]",197,l,0.6997998476726934,colour,0.5
004,70,0,1,8,9,359,641.3742738470901,642.5910571052227,"[53, 0, 201]",201,l,0.6933911918895319,colour,0.5
004,70,0,1,8,10,360,643.1087691299617,644.2790411906317,"[1, 0, 253]",253,a,0.6472612369107082,colour,0.5
004,70,0,1,8,11,361,644.7964180528652,646.0150894068647,"[28, 0, 226]",226,a,0.6952844077022746,colour,0.5
004,70,0,1,8,12,362,646.5316273778444,647.7030565569876,"[76, 0, 178]",178,l,0.6487992041511461,colour,0.5
004,70,0,1,8,13,363,648.2184283512179,649.4151140615577,"[97, 0, 157]",157,l,0.6730545798782259,colour,0.5
004,70,0,1,8,14,364,649.9217846246902,651.0790790786268,"[22, 0, 232]",232,a,0.6339130215346813,colour,0.5
004,70,0,1,8,15,365,651.5938321413705,652.7911373709794,"[3, 0, 251]",251,a,0.6739580618450418,colour,0.5
004,70,0,1,8,16,366,653.3127090827329,654.4872622451512,"[4, 0, 250]",250,a,0.6514151266310364,colour,0.5
004,70,0,1,8,17,367,655.0004025101662,656.2630679942667,"[37, 0, 217]",217,a,0.7393159532221034,colour,0.5
004,70,0,1,8,18,368,656.781697285478,657.935066280188,"[6, 0, 248]",248,a,0.6299911069218069,colour,0.5
004,70,0,1,8,19,369,658.4550377973355,659.687071938999,"[94, 0, 160]",160,l,0.7086271092994139,colour,0.5
004,70,0,1,8,20,370,660.205217194045,661.4950296683237,"[95, 0, 159]",159,l,0.7665696756448597,colour,0.5
004,70,0,1,8,21,371,662.0021519723814,663.1990223963512,"[20, 0, 234]",234,a,0.6734200685750693,colour,0.5
004,70,0,1,8,22,372,663.7054704367183,664.935121418559,"[9, 0, 245]",245,a,0.7063621032284573,colour,0.5
004,70,0,1,8,23,373,665.4554682705784,666.6790705715539,"[17, 0, 237]",237,a,0.7000920810969546,colour,0.5
004,70,0,1,8,24,374,667.1900706795277,668.5109922309639,"[75, 0, 179]",179,l,0.7974463838618249,colour,0.5
004,70,0,1,8,25,375,669.0183169716038,670.2630609050393,"[64, 0, 190]",190,l,0.7212541934568435,colour,0.5
004,70,0,1,8,26,376,670.7841265251627,671.9670595407952,"[67, 0, 187]",187,l,0.659536617109552,colour,0.5
004,70,0,1,8,27,377,672.4873815804021,673.8630468840711,"[40, 0, 214]",214,l,0.8523012005025521,colour,0.5
004,70,0,1,8,28,378,674.3782674416434,675.5910338682588,"[50, 0, 204]",204,l,0.6895949139725417,colour,0.5
004,70,0,1,8,29,379,676.1127036476973,677.3189952524845,"[98, 0, 156]",156,l,0.6830377783626318,colour,0.5
004,70,0,1,8,30,380,677.8315443552565,679.0310224309796,"[34, 0, 220]",220,a,0.6760348095558584,colour,0.5
004,70,0,1,8,31,381,679.5517249255208,680.8310138451634,"[8, 0, 246]",246,a,0.7557432536268607,colour,0.5
004,70,0,1,8,32,382,681.3487684053835,682.6150316690328,"[89, 0, 165]",165,l,0.7427991237491369,colour,0.5
004,70,0,1,8,33,383,683.1301695189904,684.4230799828656,"[65, 0, 189]",189,l,0.769469560822472,colour,0.5
004,70,0,1,8,34,384,684.9427836849354,686.2551339743659,"[26, 0, 228]",228,a,0.7888814233010635,colour,0.5
004,70,0,1,8,35,385,686.7711304076947,688.0469936582958,"[47, 0, 207]",207,a,0.7524865443119779,colour,0.5
004,70,0,1,8,36,386,688.553803248913,689.7590653413208,"[99, 0, 155]",155,l,0.681469485280104,colour,0.5
004,70,0,1,8,37,387,690.272658134927,694.831000060658,"[41, 0, 213]",213,a,4.035302351345308,colour,0.5
004,70,0,1,8,38,388,695.3521109730937,696.5670959320851,"[54, 0, 200]",200,a,0.6915696559008211,colour,0.5
004,70,0,1,8,39,389,697.086601135903,698.2549764361465,"[36, 0, 218]",218,a,0.6448422372341156,colour,0.5
004,70,0,1,8,40,390,698.7742398187984,699.9910404061666,"[70, 0, 184]",184,l,0.6933293581241742,colour,0.5
004,70,0,1,8,41,391,700.5101068660151,701.6390125345206,"[7, 0, 247]",247,a,0.6054742176784202,colour,0.5
004,70,0,1,8,42,392,702.1508456259035,703.4230583213503,"[68, 0, 186]",186,l,0.7489009738201275,colour,0.5
004,70,0,1,8,43,393,703.9322487086756,705.0310047080275,"[0, 0, 254]",254,a,0.5756782218813896,colour,0.5
004,70,0,1,8,44,394,705.5416885578306,706.8149733011378,"[87, 0, 167]",167,l,0.7498170586768538,colour,0.5
004,70,0,1,8,45,395,707.3231897082878,708.5030011035269,"[60, 0, 194]",194,l,0.6564602889120579,colour,0.5
004,70,0,1,8,46,396,709.0108228772879,710.2229977479437,"[96, 0, 158]",158,l,0.688905684161,colour,0.5
004,70,0,1,8,47,397,710.7296379848849,711.8951870490564,"[14, 0, 240]",240,a,0.6421365179121494,colour,0.5
004,70,0,1,8,48,398,712.402979678358,713.6229593873722,"[77, 0, 177]",177,l,0.6965518029173836,colour,0.5
004,70,0,1,8,49,399,714.1374792935094,715.334954664344,"[2, 0, 252]",252,a,0.6741073292214423,colour,0.5
004,70,0,1,8,50,400,715.8407969701802,716.991023076931,"[27, 0, 227]",227,a,0.626773388357833,colour,0.5
004,70,0,1,9,1,401,732.7319234709721,733.7509982016636,"[17, 0, 237]",237,a,0.4949142716359347,colour,0.5
004,70,0,1,9,2,402,734.2640636359574,735.4389299056493,"[37, 0, 217]",217,a,0.6515234342077747,colour,0.5
004,70,0,1,9,3,403,735.9516085835639,737.1109018039424,"[70, 0, 184]",184,l,0.6358015112346038,colour,0.5
004,70,0,1,9,4,404,737.6237116324482,738.7749239286641,"[18, 0, 236]",236,a,0.6278757621766999,colour,0.5
004,70,0,1,9,5,405,739.2814775196603,743.7349702606443,"[46, 0, 208]",208,a,3.9299025704385713,colour,0.5
004,70,0,1,9,6,406,744.2492069918662,745.350971183856,"[98, 0, 156]",156,l,0.5783634611871094,colour,0.5
004,70,0,1,9,7,407,745.8722360898973,746.8949026925256,"[34, 0, 220]",220,a,0.4991752873174846,colour,0.5
004,70,0,1,9,8,408,747.4036220405251,748.5109260649187,"[92, 0, 162]",162,l,0.5955745144747198,colour,0.5
004,70,0,1,9,9,409,749.0173040006775,750.1909481674666,"[61, 0, 193]",193,l,0.6503383527742699,colour,0.5
004,70,0,1,9,10,410,750.7049694651505,751.9269451837754,"[38, 0, 216]",216,a,0.6985631724819541,colour,0.5
004,70,0,1,9,11,411,752.4349489142187,753.59092398535,"[53, 0, 201]",201,a,0.6327169124269858,colour,0.5
004,70,0,1,9,12,412,754.096875780262,755.2629080929328,"[94, 0, 160]",160,l,0.6425520250340924,colour,0.5
004,70,0,1,9,13,413,755.7844750785735,756.9349363112124,"[20, 0, 234]",234,a,0.6270380526548252,colour,0.5
004,70,0,1,9,14,414,757.4526038314216,758.6628969076555,"[6, 0, 248]",248,a,0.6871692189015448,colour,0.5
004,70,0,1,9,15,415,759.1714299666928,760.3988860470708,"[64, 0, 190]",190,l,0.7041160017251968,colour,0.5
004,70,0,1,9,16,416,760.9058909850428,762.0949317583581,"[87, 0, 167]",167,l,0.6656467379070818,colour,0.5
004,70,0,1,9,17,417,762.6092094493797,763.8069542106241,"[36, 0, 218]",218,a,0.6744637594092637,colour,0.5
004,70,0,1,9,18,418,764.3280647292268,765.5269158028532,"[73, 0, 181]",181,l,0.6757035854971036,colour,0.5
004,70,0,1,9,19,419,766.04686014459,767.2788552955026,"[25, 0, 229]",229,a,0.7085680324817076,colour,0.5
004,70,0,1,9,20,420,767.7970422981307,768.9909072862938,"[1, 0, 253]",253,a,0.6704615004127845,colour,0.5
004,70,0,1,9,21,421,769.5016009823885,770.8148846859112,"[68, 0, 186]",186,l,0.7897813605377451,colour,0.5
004,70,0,1,9,22,422,771.3298835082678,772.5029176082462,"[79, 0, 175]",175,l,0.6502194113563746,colour,0.5
004,70,0,1,9,23,423,773.0175095881568,774.1509125796147,"[2, 0, 252]",252,a,0.609875442343764,colour,0.5
004,70,0,1,9,24,424,774.6583156955894,775.8709206455387,"[15, 0, 239]",239,a,0.6878379686968401,colour,0.5
004,70,0,1,9,25,425,776.3785332874395,777.5588594388682,"[13, 0, 241]",241,a,0.6571270696585998,colour,0.5
004,70,0,1,9,26,426,778.0661707887193,779.2548976670951,"[11, 0, 243]",243,a,0.6652654953068122,colour,0.5
004,70,0,1,9,27,427,779.769421511679,780.9828944973415,"[57, 0, 197]",197,l,0.6901041563833132,colour,0.5
004,70,0,1,9,28,428,781.4897304755868,782.6789008241612,"[52, 0, 202]",202,l,0.6662119063548744,colour,0.5
004,70,0,1,9,29,429,783.1929914385546,784.4308950613486,"[19, 0, 235]",235,a,0.7145627564750612,colour,0.5
004,70,0,1,9,30,430,784.9431527183624,787.3188487419393,"[43, 0, 211]",211,a,1.852373274276033,colour,0.5
004,70,0,1,9,31,431,787.8339582349872,788.9670114915352,"[8, 0, 246]",246,a,0.6096777318743989,colour,0.5
004,70,0,1,9,32,432,789.4746635179035,790.7028730248567,"[88, 0, 166]",166,l,0.7047910530818626,colour,0.5
004,70,0,1,9,33,433,791.2092419023393,792.4228885739576,"[75, 0, 179]",179,l,0.6903042299672961,colour,0.5
004,70,0,1,9,34,434,792.9440754986135,794.7509072233224,"[41, 0, 213]",213,a,1.2835109445732087,colour,0.5
004,70,0,1,9,35,435,795.2723300615326,796.5028490790864,"[76, 0, 178]",178,l,0.7071080468595028,colour,0.5
004,70,0,1,9,36,436,797.0239662930835,798.1988526489586,"[82, 0, 172]",172,l,0.6515029543079436,colour,0.5
004,70,0,1,9,37,437,798.7116274251603,800.0228469838621,"[23, 0, 231]",231,a,0.7899479572661221,colour,0.5
004,70,0,1,9,38,438,800.5386114420835,802.5748633552575,"[50, 0, 204]",204,a,1.5128606345970184,colour,0.5
004,70,0,1,9,39,439,803.0869103047298,804.4308316522511,"[96, 0, 158]",158,l,0.8205584258539602,colour,0.5
004,70,0,1,9,40,440,804.946412972291,806.1428359876154,"[67, 0, 187]",187,l,0.6730069245677441,colour,0.5
004,70,0,1,9,41,441,806.6496810243698,807.798896917142,"[14, 0, 240]",240,a,0.626124330679886,colour,0.5
004,70,0,1,9,42,442,808.307417767006,809.638794737868,"[93, 0, 161]",161,l,0.80796048627235,colour,0.5
004,70,0,1,9,43,443,810.1512248992221,811.3508116763551,"[21, 0, 233]",233,a,0.6760541080730036,colour,0.5
004,70,0,1,9,44,444,811.8701620989013,813.1028689289233,"[81, 0, 173]",173,l,0.7091930655296892,colour,0.5
004,70,0,1,9,45,445,813.6203639447922,814.9428825401701,"[27, 0, 227]",227,a,0.7991174707422033,colour,0.5
004,70,0,1,9,46,446,815.4642041600309,816.6788063012064,"[99, 0, 155]",155,l,0.6911545427283272,colour,0.5
004,70,0,1,9,47,447,817.1857056885492,818.3908354488667,"[58, 0, 196]",196,l,0.6817581740906462,colour,0.5
004,70,0,1,9,48,448,818.9045704207383,820.1028141843854,"[47, 0, 207]",207,a,0.6748355497838929,colour,0.5
004,70,0,1,9,49,449,820.6234796574572,821.8708127319114,"[85, 0, 169]",169,l,0.723900048295036,colour,0.5
004,70,0,1,9,50,450,822.3892955125775,823.5907963793725,"[3, 0, 251]",251,a,0.678477046196349,colour,0.5
004,70,0,1,10,1,451,827.6558577051619,828.8547891231719,"[59, 0, 195]",195,l,0.6747811990790069,colour,0.5
004,70,0,1,10,2,452,829.3757251681527,830.6307890381431,"[43, 0, 211]",211,a,0.7318348558619618,colour,0.5
004,70,0,1,10,3,453,831.1412893559318,832.2708109989762,"[90, 0, 164]",164,l,0.6061874721199274,colour,0.5
004,70,0,1,10,4,454,832.7820596233942,834.03882845107,"[61, 0, 193]",193,l,0.7337028655456379,colour,0.5
004,70,0,1,10,5,455,834.54781246325,836.7027970127529,"[47, 0, 207]",207,a,1.631623597117141,colour,0.5
004,70,0,1,10,6,456,837.219982859795,838.382824629196,"[32, 0, 222]",222,a,0.6398636349476874,colour,0.5
004,70,0,1,10,7,457,838.8932772916742,840.1108458779054,"[74, 0, 180]",180,l,0.694172581541352,colour,0.5
004,70,0,1,10,8,458,840.6278068391839,841.8788011024008,"[24, 0, 230]",230,a,0.7277782460441813,colour,0.5
004,70,0,1,10,9,459,842.3935600728728,843.5828158857767,"[22, 0, 232]",232,a,0.6662256908603013,colour,0.5
004,70,0,1,10,10,460,844.0968041003216,845.3188010866288,"[79, 0, 175]",175,l,0.698456046404317,colour,0.5
004,70,0,1,10,11,461,845.8313088355353,847.0069214426912,"[14, 0, 240]",240,a,0.6522544116014615,colour,0.5
004,70,0,1,10,12,462,847.5203188888263,848.7107889278559,"[5, 0, 249]",249,a,0.6671071173623204,colour,0.5
004,70,0,1,10,13,463,849.2234939933987,850.4388074197341,"[39, 0, 215]",215,a,0.6918563755461946,colour,0.5
004,70,0,1,10,14,464,850.9580727715511,852.0788120513316,"[46, 0, 208]",208,a,0.5972975889453664,colour,0.5
004,70,0,1,10,15,465,852.5988316175062,853.782778391731,"[78, 0, 176]",176,l,0.6604834218742326,colour,0.5
004,70,0,1,10,16,466,854.3021406296175,855.5588413219666,"[93, 0, 161]",161,l,0.7333302876213565,colour,0.5
004,70,0,1,10,17,467,856.0678584171692,857.2547649410553,"[12, 0, 242]",242,a,0.6634037870680913,colour,0.5
004,70,0,1,10,18,468,857.7711158354068,859.0627648119116,"[0, 0, 254]",254,a,0.7682510025333613,colour,0.5
004,70,0,1,10,19,469,859.5695247779367,860.7827740593348,"[27, 0, 227]",227,a,0.6898863597307354,colour,0.5
004,70,0,1,10,20,470,861.3040515684988,862.5507351915585,"[97, 0, 157]",157,l,0.7232986460439861,colour,0.5
004,70,0,1,10,21,471,863.0697575407103,864.3107839653967,"[26, 0, 228]",228,a,0.717643023119308,colour,0.5
004,70,0,1,10,22,472,864.8198995220009,866.1667270562612,"[65, 0, 189]",189,l,0.8216344120446593,colour,0.5
004,70,0,1,10,23,473,866.6812087594299,867.8467767280526,"[80, 0, 174]",174,l,0.6422176500782371,colour,0.5
004,70,0,1,10,24,474,868.3530491132988,869.574806641438,"[10, 0, 244]",244,a,0.6982437636470422,colour,0.5
004,70,0,1,10,25,475,870.08772162674,871.326748103369,"[70, 0, 184]",184,l,0.7156663119094446,colour,0.5
004,70,0,1,10,26,476,871.8378029558808,873.0387658296386,"[33, 0, 221]",221,a,0.6775062169181183,colour,0.5
004,70,0,1,10,27,477,873.5567043155897,874.8867871098919,"[55, 0, 199]",199,l,0.8066249558469281,colour,0.5
004,70,0,1,10,28,478,875.4005591032328,876.5747645000229,"[51, 0, 203]",203,l,0.6507400753907859,colour,0.5
004,70,0,1,10,29,479,877.0882686782861,878.3507750487188,"[64, 0, 190]",190,l,0.7391595965018496,colour,0.5
004,70,0,1,10,30,480,878.8696504934924,880.1027204490965,"[60, 0, 194]",194,l,0.7096664678538218,colour,0.5
004,70,0,1,10,31,481,880.6211382452166,882.406783439219,"[44, 0, 210]",210,l,1.2621247341157869,colour,0.5
004,70,0,1,10,32,482,882.9181781804655,884.0227363131708,"[89, 0, 165]",165,l,0.581131408107467,colour,0.5
004,70,0,1,10,33,483,884.5441315821372,885.7587321478641,"[31, 0, 223]",223,a,0.6919418399920687,colour,0.5
004,70,0,1,10,34,484,886.2792688334594,887.7507166020805,"[29, 0, 225]",225,a,0.9482652283040807,colour,0.5
004,70,0,1,10,35,485,888.2637836117065,889.5267665353604,"[56, 0, 198]",198,l,0.7395751036237925,colour,0.5
004,70,0,1,10,36,486,890.0451764545869,891.2627174716908,"[75, 0, 179]",179,l,0.6943706859601662,colour,0.5
004,70,0,1,10,37,487,891.7797056082636,892.9427250019507,"[88, 0, 166]",166,l,0.6396186628844589,colour,0.5
004,70,0,1,10,38,488,893.4516192174051,894.6946900946787,"[85, 0, 169]",169,l,0.7195311189861968,colour,0.5
004,70,0,1,10,39,489,895.2017706510378,896.4227558479179,"[41, 0, 213]",213,a,0.6975265707587823,colour,0.5
004,70,0,1,10,40,490,896.937475433806,898.1507026598556,"[48, 0, 206]",206,a,0.6899320458760485,colour,0.5
004,70,0,1,10,41,491,898.672057362739,899.8387320376933,"[69, 0, 185]",185,l,0.6433499562554061,colour,0.5
004,70,0,1,10,42,492,900.359603491961,901.5667237479938,"[98, 0, 156]",156,l,0.6837419744115323,colour,0.5
004,70,0,1,10,43,493,902.0785099717323,903.2867077894043,"[52, 0, 202]",202,a,0.6854485075455159,colour,0.5
004,70,0,1,10,44,494,903.7974073931109,904.9907249357784,"[8, 0, 246]",246,a,0.6683579710079357,colour,0.5
004,70,0,1,10,45,495,905.5022484645015,906.7426998746814,"[57, 0, 197]",197,a,0.717101879301481,colour,0.5
004,70,0,1,10,46,496,907.2523928089067,908.5187171187717,"[66, 0, 188]",188,l,0.7430054988944903,colour,0.5
004,70,0,1,10,47,497,909.0337509934325,910.2387007663492,"[30, 0, 224]",224,a,0.6813883531140164,colour,0.5
004,70,0,1,10,48,498,910.7526677132118,912.0307030222612,"[20, 0, 234]",234,a,0.7547428858233616,colour,0.5
004,70,0,1,10,49,499,912.5496568422532,913.7666850723326,"[35, 0, 219]",219,a,0.6936601884663105,colour,0.5
004,70,0,1,10,50,500,914.2842312881257,915.5266822524136,"[40, 0, 214]",214,a,0.7191376672126353,colour,0.5
004,70,0,1,11,1,501,968.6950347095262,969.8467357681366,"[15, 0, 239]",239,a,0.6276819901540875,colour,0.5
004,70,0,1,11,2,502,970.3536450016545,971.374625157332,"[19, 0, 235]",235,a,0.4979417627910152,colour,0.5
004,70,0,1,11,3,503,971.8849427308887,973.0866267358651,"[50, 0, 204]",204,l,0.6783529848325998,colour,0.5
004,70,0,1,11,4,504,973.6038177029695,974.7506059313891,"[5, 0, 249]",249,a,0.6236982417758554,colour,0.5
004,70,0,1,11,5,505,975.2601377828978,976.4385990753071,"[55, 0, 199]",199,l,0.6553122289478779,colour,0.5
004,70,0,1,11,6,506,976.9478272718843,978.158628802863,"[71, 0, 183]",183,l,0.6874547570478171,colour,0.5
004,70,0,1,11,7,507,978.6667365086032,980.0546271739295,"[48, 0, 206]",206,l,0.8644332208205014,colour,0.5
004,70,0,1,11,8,508,980.5731142868754,981.7665956693236,"[29, 0, 225]",225,a,0.6701531192520633,colour,0.5
004,70,0,1,11,9,509,982.276435901993,983.3906188338296,"[49, 0, 205]",205,l,0.5908389148535207,colour,0.5
004,70,0,1,11,10,510,983.9021459071664,985.0786237930879,"[80, 0, 174]",174,l,0.6537659910973161,colour,0.5
004,70,0,1,11,11,511,985.5891036309768,986.7666133923922,"[16, 0, 238]",238,a,0.6540704336948693,colour,0.5
004,70,0,1,11,12,512,987.2767419200391,988.4945621736115,"[20, 0, 234]",234,a,0.6943990427535027,colour,0.5
004,70,0,1,11,13,513,989.0113455104874,990.12667059456,"[12, 0, 242]",242,a,0.5921744452789426,colour,0.5
004,70,0,1,11,14,514,990.6363670735154,991.7825735919178,"[87, 0, 167]",167,l,0.6213702203240246,colour,0.5
004,70,0,1,11,15,515,992.2941105114296,993.4866072799778,"[43, 0, 211]",211,a,0.6691984375938773,colour,0.5
004,70,0,1,11,16,516,993.9973462682683,997.1025983570144,"[46, 0, 208]",208,l,2.5817914934596047,colour,0.5
004,70,0,1,11,17,517,997.6240022905404,998.8146684647072,"[85, 0, 169]",169,l,0.6673434247495607,colour,0.5
004,70,0,1,11,18,518,999.3272608903935,1000.3986146873794,"[27, 0, 227]",227,a,0.548091699834913,colour,0.5
004,70,0,1,11,19,519,1000.905510924058,1002.1585917813936,"[94, 0, 160]",160,l,0.7297714987071231,colour,0.5
004,70,0,1,11,20,520,1002.6712787300348,1003.8865819162456,"[30, 0, 224]",224,a,0.6906649925513193,colour,0.5
004,70,0,1,11,21,521,1004.4070607065223,1005.6465991825098,"[35, 0, 219]",219,a,0.716162163647823,colour,0.5
004,70,0,1,11,22,522,1006.1446701267269,1007.3745609605685,"[44, 0, 210]",210,a,0.7065286999568343,colour,0.5
004,70,0,1,11,23,523,1007.894955467782,1009.1106001182925,"[47, 0, 207]",207,a,0.6924814085941762,colour,0.5
004,70,0,1,11,24,524,1009.6293818277773,1010.8625817524735,"[76, 0, 178]",178,l,0.7097775323782116,colour,0.5
004,70,0,1,11,25,525,1011.3795852490002,1012.6706493647071,"[41, 0, 213]",213,a,0.767676381743513,colour,0.5
004,70,0,1,11,26,526,1013.1921371873468,1014.3345722402446,"[28, 0, 226]",226,a,0.6189803652232513,colour,0.5
004,70,0,1,11,27,527,1014.8485962947598,1016.1345439621946,"[92, 0, 162]",162,l,0.762555601191707,colour,0.5
004,70,0,1,11,28,528,1016.6455346178263,1017.8705386152724,"[65, 0, 189]",189,l,0.7017056664917618,colour,0.5
004,70,0,1,11,29,529,1018.3815568401478,1019.622577750939,"[96, 0, 158]",158,l,0.7176162415416911,colour,0.5
004,70,0,1,11,30,530,1020.1317015783861,1022.0545487985946,"[53, 0, 201]",201,l,1.399429160170257,colour,0.5
004,70,0,1,11,31,531,1022.5693837812869,1023.7425254010595,"[66, 0, 188]",188,l,0.6498204458039254,colour,0.5
004,70,0,1,11,32,532,1024.2570362486877,1025.4305469018873,"[13, 0, 241]",241,a,0.650157971540466,colour,0.5
004,70,0,1,11,33,533,1025.9446418485604,1027.1745980607811,"[17, 0, 237]",237,a,0.7065645398106426,colour,0.5
004,70,0,1,11,34,534,1027.6948106114287,1028.9745524534956,"[97, 0, 157]",157,l,0.7564939233707264,colour,0.5
004,70,0,1,11,35,535,1029.491814312758,1030.7825645335251,"[63, 0, 191]",191,l,0.7666043339995667,colour,0.5
004,70,0,1,11,36,536,1031.2895163024077,1032.518554066657,"[70, 0, 184]",184,l,0.7056460918392986,colour,0.5
004,70,0,1,11,37,537,1033.0396626160946,1034.302532899892,"[84, 0, 170]",170,l,0.7395132698584348,colour,0.5
004,70,0,1,11,38,538,1034.8211078403983,1035.9905953606358,"[88, 0, 166]",166,l,0.6460946663282812,colour,0.5
004,70,0,1,11,39,539,1036.5100536968093,1037.7585178959416,"[24, 0, 230]",230,a,0.725091825122945,colour,0.5
004,70,0,1,11,40,540,1038.2758270166814,1039.5265369233675,"[61, 0, 193]",193,l,0.7272642775205895,colour,0.5
004,70,0,1,11,41,541,1040.0416038810508,1041.2945630400209,"[1, 0, 253]",253,a,0.7295552773866802,colour,0.5
004,70,0,1,11,42,542,1041.8072779517388,1043.07856904855,"[67, 0, 187]",187,l,0.7482274977955967,colour,0.5
004,70,0,1,11,43,543,1043.5887338098837,1044.8465061561437,"[33, 0, 221]",221,a,0.7342534617055207,colour,0.5
004,70,0,1,11,44,544,1045.3559131586226,1046.6784983138787,"[79, 0, 175]",175,l,0.7991651260526851,colour,0.5
004,70,0,1,11,45,545,1047.1997923644958,1048.430495701963,"[18, 0, 236]",236,a,0.7072332897223532,colour,0.5
004,70,0,1,11,46,546,1048.9499083521077,1050.1905161188915,"[74, 0, 180]",180,l,0.7171763160731643,colour,0.5
004,70,0,1,11,47,547,1050.7000972010428,1051.9264709936688,"[22, 0, 232]",232,a,0.7029443110805005,colour,0.5
004,70,0,1,11,48,548,1052.4345428594388,1053.7744899108075,"[64, 0, 190]",190,l,0.8165715266950428,colour,0.5
004,70,0,1,11,49,549,1054.29403764999,1055.574566395604,"[82, 0, 172]",172,l,0.7571394363185391,colour,0.5
004,70,0,1,11,50,550,1056.091070102062,1057.3024816999678,"[91, 0, 163]",163,l,0.6887142752530053,colour,0.5
004,70,0,1,12,1,551,1062.668960554758,1063.974495739676,"[34, 0, 220]",220,a,0.7798670849297196,colour,0.5
004,70,0,1,12,2,552,1064.4838838375872,1065.6944943533745,"[27, 0, 227]",227,a,0.6872290833853185,colour,0.5
004,70,0,1,12,3,553,1066.2027391174342,1067.4064971134067,"[88, 0, 166]",166,l,0.6805081079946831,colour,0.5
004,70,0,1,12,4,554,1067.9205581895076,1069.1184963289415,"[21, 0, 233]",233,a,0.6745622209273279,colour,0.5
004,70,0,1,12,5,555,1069.625196824316,1070.7505381900119,"[22, 0, 232]",232,a,0.6019303948851302,colour,0.5
004,70,0,1,12,6,556,1071.2659371595364,1072.366472553229,"[11, 0, 243]",243,a,0.5777730866102502,colour,0.5
004,70,0,1,12,7,557,1072.8748110524612,1074.0864361146232,"[48, 0, 206]",206,a,0.6882105467375368,colour,0.5
004,70,0,1,12,8,558,1074.5936864184914,1075.782488521305,"[75, 0, 179]",179,l,0.6653056675568223,colour,0.5
004,70,0,1,12,9,559,1076.296926901443,1077.5025725994492,"[89, 0, 165]",165,l,0.6822236995212734,colour,0.5
004,70,0,1,12,10,560,1078.0159007287584,1079.2544734952971,"[8, 0, 246]",246,a,0.7151826694607735,colour,0.5
004,70,0,1,12,11,561,1079.7659919040743,1081.0144419246353,"[62, 0, 192]",192,l,0.7249799729324877,colour,0.5
004,70,0,1,12,12,562,1081.5340097500011,1082.7664621557342,"[19, 0, 235]",235,a,0.7098771752789617,colour,0.5
004,70,0,1,12,13,563,1083.2833124463214,1084.5264431880787,"[66, 0, 188]",188,l,0.7197591555304825,colour,0.5
004,70,0,1,12,14,564,1085.0334209507564,1086.3024710661266,"[60, 0, 194]",194,l,0.7456277230521664,colour,0.5
004,70,0,1,12,15,565,1086.8148453013273,1088.062465883093,"[43, 0, 211]",211,l,0.7242411186452955,colour,0.5
004,70,0,1,12,16,566,1088.5805737227201,1089.9104186341865,"[45, 0, 209]",209,l,0.8064477252773941,colour,0.5
004,70,0,1,12,17,567,1090.4259180343943,1091.646455822629,"[85, 0, 169]",169,l,0.6971189405303448,colour,0.5
004,70,0,1,12,18,568,1092.1604188311612,1093.3264735930134,"[24, 0, 230]",230,a,0.6426890833536163,colour,0.5
004,70,0,1,12,19,569,1093.8480488493806,1095.1184506427962,"[67, 0, 187]",187,l,0.7469821579288691,colour,0.5
004,70,0,1,12,20,570,1095.6294149107998,1096.982454965706,"[29, 0, 225]",225,a,0.8296058472478762,colour,0.5
004,70,0,1,12,21,571,1097.4890243104892,1098.7744087786414,"[96, 0, 158]",158,l,0.7621038602665067,colour,0.5
004,70,0,1,12,22,572,1099.2874273452908,1100.4624460332561,"[59, 0, 195]",195,l,0.6517191755119711,colour,0.5
004,70,0,1,12,23,573,1100.9750108898152,1102.1664289151086,"[13, 0, 241]",241,a,0.6680042976513505,colour,0.5
004,70,0,1,12,24,574,1102.6891278130934,1104.1984674679115,"[47, 0, 207]",207,a,0.9859771269839257,colour,0.5
004,70,0,1,12,25,575,1104.7048891206505,1105.9184345739195,"[46, 0, 208]",208,a,0.6848175667691976,colour,0.5
004,70,0,1,12,26,576,1106.4291680483148,1107.606443865574,"[38, 0, 216]",216,a,0.6540810676524416,colour,0.5
004,70,0,1,12,27,577,1108.1129564965377,1109.3344213974196,"[53, 0, 201]",201,a,0.6980925269890577,colour,0.5
004,70,0,1,12,28,578,1109.847494314774,1111.0944071559934,"[25, 0, 229]",229,a,0.7236156917642802,colour,0.5
004,70,0,1,12,29,579,1111.6132380961208,1112.8144116773037,"[77, 0, 177]",177,l,0.6736028130399063,colour,0.5
004,70,0,1,12,30,580,1113.3206915456103,1117.0624127138872,"[55, 0, 199]",199,l,3.2300223782658577,colour,0.5
004,70,0,1,12,31,581,1117.5722167127533,1118.7743898740737,"[69, 0, 185]",185,l,0.6787495875032619,colour,0.5
004,70,0,1,12,32,582,1119.2911224048585,1120.4704312529648,"[63, 0, 191]",191,l,0.6559475018875673,colour,0.5
004,70,0,1,12,33,583,1120.9787528169109,1122.2064337830525,"[56, 0, 198]",198,l,0.704478339641355,colour,0.5
004,70,0,1,12,34,584,1122.7133323828457,1123.918403066229,"[74, 0, 180]",180,l,0.6793695003725588,colour,0.5
004,70,0,1,12,35,585,1124.4344829948386,1125.630433789338,"[78, 0, 176]",176,l,0.672402371536009,colour,0.5
004,70,0,1,12,36,586,1126.1377711331006,1127.3424239463639,"[90, 0, 164]",164,l,0.6812375101726502,colour,0.5
004,70,0,1,12,37,587,1127.8565949053736,1129.054394804989,"[7, 0, 247]",247,a,0.6743140981998295,colour,0.5
004,70,0,1,12,38,588,1129.5755478588399,1130.718399206642,"[72, 0, 182]",182,l,0.6194214723072946,colour,0.5
004,70,0,1,12,39,589,1131.2319841232384,1133.7183834527386,"[50, 0, 204]",204,l,1.9630635832436383,colour,0.5
004,70,0,1,12,40,590,1134.2324697348522,1135.33437256061,"[12, 0, 242]",242,a,0.5787947222124785,colour,0.5
004,70,0,1,12,41,591,1135.841728414991,1137.0144131738925,"[97, 0, 157]",157,l,0.6493253818480298,colour,0.5
004,70,0,1,12,42,592,1137.5293769440614,1138.7103781468468,"[1, 0, 253]",253,a,0.65781669318676,colour,0.5
004,70,0,1,12,43,593,1139.2169884516625,1140.2464331372175,"[31, 0, 223]",223,a,0.5061176039744169,colour,0.5
004,70,0,1,12,44,594,1140.7639714761171,1141.7904300242662,"[42, 0, 212]",212,a,0.5016880222829059,colour,0.5
004,70,0,1,12,45,595,1142.296768181608,1143.430406298954,"[87, 0, 167]",167,l,0.6102003649575636,colour,0.5
004,70,0,1,12,46,596,1143.9375380552374,1145.1504474479007,"[0, 0, 254]",254,a,0.6895291417604312,colour,0.5
004,70,0,1,12,47,597,1145.6720349135576,1146.8465057623107,"[94, 0, 160]",160,l,0.6511575516778976,colour,0.5
004,70,0,1,12,48,598,1147.3609886469785,1148.590387173812,"[70, 0, 184]",184,l,0.706098226713948,colour,0.5
004,70,0,1,12,49,599,1149.1111983697629,1150.3504040461266,"[16, 0, 238]",238,a,0.7160759113030508,colour,0.5
004,70,0,1,12,50,600,1150.8613190833712,1151.9664156031795,"[9, 0, 245]",245,a,0.5819659670814872,colour,0.5
004,70,0,1,13,1,601,1170.9103233235655,1171.8063752576709,"[8, 0, 246]",246,a,0.3720068718539551,colour,0.5
004,70,0,1,13,2,602,1172.3174797346583,1173.446349169244,"[86, 0, 168]",168,l,0.6054753991775215,colour,0.5
004,70,0,1,13,3,603,1173.9582086483715,1175.1023230588762,"[27, 0, 227]",227,a,0.6207676365738735,colour,0.5
004,70,0,1,13,4,604,1175.6145665374352,1176.6623096838593,"[54, 0, 200]",200,l,0.524319966440089,colour,0.5
004,70,0,1,13,5,605,1177.1785128861666,1178.014364337083,"[69, 0, 185]",185,l,0.31268702750094235,colour,0.5
004,70,0,1,13,6,606,1178.5224432920804,1179.614340470056,"[62, 0, 192]",192,l,0.5685106256278232,colour,0.5
004,70,0,1,13,7,607,1180.1222185638035,1181.2223093057983,"[19, 0, 235]",235,a,0.5838438228238374,colour,0.5
004,70,0,1,13,8,608,1181.740835803328,1183.0143198325532,"[15, 0, 239]",239,a,0.7500486399512738,colour,0.5
004,70,0,1,13,9,609,1183.5236114382278,1184.6463530289475,"[81, 0, 173]",173,l,0.5994235675316304,colour,0.5
004,70,0,1,13,10,610,1185.1643529549474,1186.3662831134861,"[77, 0, 177]",177,l,0.6785778707126155,colour,0.5
004,70,0,1,13,11,611,1186.8819601380965,1188.078369368799,"[73, 0, 181]",181,l,0.6729667523177341,colour,0.5
004,70,0,1,13,12,612,1188.5851691133576,1189.7423312350875,"[56, 0, 198]",198,l,0.6335195697611198,colour,0.5
004,70,0,1,13,13,613,1190.257177639287,1191.430271209916,"[4, 0, 250]",250,a,0.6495353016071022,colour,0.5
004,70,0,1,13,14,614,1191.9459045175463,1193.0942909715232,"[96, 0, 158]",158,l,0.625173193635419,colour,0.5
004,70,0,1,13,15,615,1193.602302185027,1194.7903126581805,"[14, 0, 240]",240,a,0.6646254961378872,colour,0.5
004,70,0,1,13,16,616,1195.3055726002203,1196.6063434348907,"[92, 0, 162]",162,l,0.777269279351458,colour,0.5
004,70,0,1,13,17,617,1197.1181784955552,1198.6863224507542,"[53, 0, 201]",201,l,1.0453847988974303,colour,0.5
004,70,0,1,13,18,618,1199.1964946952648,1200.3262963624438,"[6, 0, 248]",248,a,0.6064096009358764,colour,0.5
004,70,0,1,13,19,619,1200.8372338489862,1203.3262975440593,"[44, 0, 210]",210,a,1.9656704473309219,colour,0.5
004,70,0,1,13,20,620,1203.8374673994258,1205.0142788725207,"[76, 0, 178]",178,l,0.6534280715277418,colour,0.5
004,70,0,1,13,21,621,1205.5250493685016,1206.6862933061784,"[26, 0, 228]",228,a,0.637760499259457,colour,0.5
004,70,0,1,13,22,622,1207.1984280833276,1208.3422849188792,"[10, 0, 244]",244,a,0.6203651264077052,colour,0.5
004,70,0,1,13,23,623,1208.8548005446792,1210.166380865965,"[28, 0, 226]",226,a,0.7881362674525008,colour,0.5
004,70,0,1,13,24,624,1210.6831055198563,1211.8862806244288,"[72, 0, 182]",182,l,0.6796514939051121,colour,0.5
004,70,0,1,13,25,625,1212.4019568612566,1213.58230152342,"[13, 0, 241]",241,a,0.6568706760881469,colour,0.5
004,70,0,1,13,26,626,1214.0897133039543,1215.2223006412387,"[23, 0, 231]",231,a,0.6092559233075008,colour,0.5
004,70,0,1,13,27,627,1215.7304233131,1216.8943320101826,"[50, 0, 204]",204,l,0.6391901588067412,colour,0.5
004,70,0,1,13,28,628,1217.4037311357679,1218.5743194543757,"[46, 0, 208]",208,l,0.6472017662599683,colour,0.5
004,70,0,1,13,29,629,1219.0914119600784,1220.2782629517606,"[12, 0, 242]",242,a,0.6634876761818305,colour,0.5
004,70,0,1,13,30,630,1220.7946307815146,1221.982280492084,"[71, 0, 183]",183,l,0.6642450413201004,colour,0.5
004,70,0,1,13,31,631,1222.4992040379439,1223.718284991337,"[80, 0, 174]",174,l,0.6956869178684428,colour,0.5
004,70,0,1,13,32,632,1224.2345854735468,1225.4302806622582,"[60, 0, 194]",194,l,0.673123502987437,colour,0.5
004,70,0,1,13,33,633,1225.9369720991235,1227.1342501533218,"[93, 0, 161]",161,l,0.673955304780975,colour,0.5
004,70,0,1,13,34,634,1227.6544764885912,1228.8783623584313,"[67, 0, 187]",187,l,0.6970740422839299,colour,0.5
004,70,0,1,13,35,635,1229.3924116190756,1230.5583285349421,"[17, 0, 237]",237,a,0.6427788800792769,colour,0.5
004,70,0,1,13,36,636,1231.0644575603073,1232.3262565840269,"[64, 0, 190]",190,l,0.738760630832985,colour,0.5
004,70,0,1,13,37,637,1232.8458263786742,1234.086239585653,"[20, 0, 234]",234,a,0.7172046728665009,colour,0.5
004,70,0,1,13,38,638,1234.5983771197498,1235.8782221493311,"[90, 0, 164]",164,l,0.7563734066206962,colour,0.5
004,70,0,1,13,39,639,1236.3954316271702,1237.5902729586232,"[16, 0, 238]",238,a,0.6718025447335094,colour,0.5
004,70,0,1,13,40,640,1238.0986823501298,1239.3663193472894,"[49, 0, 205]",205,l,0.7442157864570618,colour,0.5
004,70,0,1,13,41,641,1239.8800720422296,1241.1022584681632,"[24, 0, 230]",230,a,0.6987817566841841,colour,0.5
004,70,0,1,13,42,642,1241.6145421189722,1242.8222421157407,"[57, 0, 197]",197,l,0.6841724476544186,colour,0.5
004,70,0,1,13,43,643,1243.334739624639,1244.4542252938263,"[7, 0, 247]",247,a,0.595859658671543,colour,0.5
004,70,0,1,13,44,644,1244.9599967073882,1246.1502662790008,"[11, 0, 243]",243,a,0.666867659194395,colour,0.5
004,70,0,1,13,45,645,1246.6633431348018,1247.8542204101104,"[98, 0, 156]",156,l,0.6675308952108026,colour,0.5
004,70,0,1,13,46,646,1248.3664489225484,1249.6542488457635,"[21, 0, 233]",233,a,0.7642960048979148,colour,0.5
004,70,0,1,13,47,647,1250.163505005301,1251.494275453966,"[31, 0, 223]",223,a,0.8072889794129878,colour,0.5
004,70,0,1,13,48,648,1252.0090068551945,1253.2622397369705,"[87, 0, 167]",167,l,0.7297911909408867,colour,0.5
004,70,0,1,13,49,649,1253.7748376764357,1256.8462135288864,"[42, 0, 212]",212,l,2.5480030846083537,colour,0.5
004,70,0,1,13,50,650,1257.3532271315344,1258.5582174704177,"[74, 0, 180]",180,l,0.6814809066709131,colour,0.5
004,70,0,1,14,1,651,1264.6356104960432,1265.9502021608641,"[66, 0, 188]",188,l,0.7904442027211189,colour,0.5
004,70,0,1,14,2,652,1266.4646082456456,1267.7103104054695,"[19, 0, 235]",235,a,0.7223081244155765,colour,0.5
004,70,0,1,14,3,653,1268.2303925930755,1270.014204041916,"[26, 0, 228]",228,a,1.2603524287696928,colour,0.5
004,70,0,1,14,4,654,1270.528738520341,1271.7581752502592,"[45, 0, 209]",209,l,0.706317204865627,colour,0.5
004,70,0,1,14,5,655,1272.2788682924584,1273.5741701868828,"[41, 0, 213]",213,a,0.7720374341588467,colour,0.5
004,70,0,1,14,6,656,1274.0915517753456,1275.1982717266073,"[44, 0, 210]",210,a,0.5836819523246959,colour,0.5
004,70,0,1,14,7,657,1275.7167096089106,1276.950176167069,"[91, 0, 163]",163,l,0.7101209657266736,colour,0.5
004,70,0,1,14,8,658,1277.4668326856336,1278.6462269984186,"[83, 0, 171]",171,l,0.6559636496240273,colour,0.5
004,70,0,1,14,9,659,1279.1544989377726,1280.3341976931551,"[6, 0, 248]",248,a,0.6562881784047931,colour,0.5
004,70,0,1,14,10,660,1280.842164008296,1282.062187040341,"[58, 0, 196]",196,l,0.6966924057342112,colour,0.5
004,70,0,1,14,11,661,1282.5766667742282,1283.798361287103,"[8, 0, 246]",246,a,0.6984083910938352,colour,0.5
004,70,0,1,14,12,662,1284.3112321617082,1285.542149751098,"[78, 0, 176]",176,l,0.7077464705798775,colour,0.5
004,70,0,1,14,13,663,1286.0613158538472,1287.262166481698,"[1, 0, 253]",253,a,0.6776609981898218,colour,0.5
004,70,0,1,14,14,664,1287.7801364753395,1288.9661599973915,"[70, 0, 184]",184,l,0.6617740539368242,colour,0.5
004,70,0,1,14,15,665,1289.4874792541377,1290.7021641028114,"[60, 0, 194]",194,l,0.6911663580685854,colour,0.5
004,70,0,1,14,16,666,1291.2219969861908,1292.4621419844916,"[18, 0, 236]",236,a,0.716743873548694,colour,0.5
004,70,0,1,14,17,667,1292.9722480628407,1294.2781991487136,"[63, 0, 191]",191,l,0.7825570504646748,colour,0.5
004,70,0,1,14,18,668,1294.7848393857712,1296.0862364348723,"[50, 0, 204]",204,l,0.7779699306702241,colour,0.5
004,70,0,1,14,19,669,1296.5974200748606,1297.8301237541018,"[0, 0, 254]",254,a,0.7092604130739346,colour,0.5
004,70,0,1,14,20,670,1298.3476207392523,1299.614194747177,"[2, 0, 252]",252,a,0.7432024216977879,colour,0.5
004,70,0,1,14,21,671,1300.129041545093,1301.4381445775507,"[72, 0, 182]",182,l,0.7863163069123402,colour,0.5
004,70,0,1,14,22,672,1301.9573012280744,1303.2301822795998,"[14, 0, 240]",240,a,0.7496000498067588,colour,0.5
004,70,0,1,14,23,673,1303.7386125448393,1304.9821776984027,"[42, 0, 212]",212,l,0.7201333089033142,colour,0.5
004,70,0,1,14,24,674,1305.4888195107924,1306.822158226627,"[48, 0, 206]",206,l,0.8100167541997507,colour,0.5
004,70,0,1,14,25,675,1307.333932241192,1308.5821341390256,"[93, 0, 161]",161,l,0.7248377946671098,colour,0.5
004,70,0,1,14,26,676,1309.0996929579414,1310.294173132861,"[27, 0, 227]",227,a,0.6714559604879469,colour,0.5
004,70,0,1,14,27,677,1310.8028786962386,1312.1662256908603,"[12, 0, 242]",242,a,0.8399738329462707,colour,0.5
004,70,0,1,14,28,678,1312.6794305464718,1313.9901239273604,"[99, 0, 155]",155,l,0.787262717843987,colour,0.5
004,70,0,1,14,29,679,1314.507716616965,1315.7742067357758,"[7, 0, 247]",247,a,0.743472205940634,colour,0.5
004,70,0,1,14,30,680,1316.288712069625,1317.438157968223,"[52, 0, 202]",202,l,0.6259490693919361,colour,0.5
004,70,0,1,14,31,681,1317.9474893523147,1319.230183461099,"[47, 0, 207]",207,l,0.7593449717387557,colour,0.5
004,70,0,1,14,32,682,1319.7445383459562,1321.0701561124297,"[37, 0, 217]",217,l,0.8023710292764008,colour,0.5
004,70,0,1,14,33,683,1321.5883490227861,1322.7901507876813,"[22, 0, 232]",232,a,0.6783344742143527,colour,0.5
004,70,0,1,14,34,684,1323.3072814963525,1324.622250465327,"[73, 0, 181]",181,l,0.7915359428152442,colour,0.5
004,70,0,1,14,35,685,1325.1355344839394,1326.3981897280319,"[59, 0, 195]",195,l,0.7401446043513715,colour,0.5
004,70,0,1,14,36,686,1326.9169608036755,1328.1501118914457,"[89, 0, 165]",165,l,0.7097070339368656,colour,0.5
004,70,0,1,14,37,687,1328.6671047542477,1329.9181202851469,"[87, 0, 167]",167,l,0.7275462709367275,colour,0.5
004,70,0,1,14,38,688,1330.4344388841419,1331.6301896050572,"[68, 0, 186]",186,l,0.6724996514385566,colour,0.5
004,70,0,1,14,39,689,1332.1373969797278,1333.4301195793087,"[4, 0, 250]",250,a,0.7699366617016494,colour,0.5
004,70,0,1,14,40,690,1333.950415231404,1335.2621137063252,"[95, 0, 159]",159,l,0.7885045130969957,colour,0.5
004,70,0,1,14,41,691,1335.7785729082534,1336.9981000886764,"[86, 0, 168]",168,l,0.6963639385066926,colour,0.5
004,70,0,1,14,42,692,1337.5130993049825,1338.7421244662255,"[49, 0, 205]",205,l,0.705623248941265,colour,0.5
004,70,0,1,14,43,693,1339.2632739754627,1340.5100824475521,"[40, 0, 214]",214,l,0.7235105349682271,colour,0.5
004,70,0,1,14,44,694,1341.028955135378,1342.25411233888,"[51, 0, 203]",203,l,0.701961666229181,colour,0.5
004,70,0,1,14,45,695,1342.7635441535385,1344.0221695693908,"[53, 0, 201]",201,l,0.7356248321011662,colour,0.5
004,70,0,1,14,46,696,1344.5292934487807,1345.8781276263762,"[61, 0, 193]",193,l,0.8256626649526879,colour,0.5
004,70,0,1,14,47,697,1346.3888520423789,1347.6300683006411,"[9, 0, 245]",245,a,0.7180144194280729,colour,0.5
004,70,0,1,14,48,698,1348.140267326613,1349.326081716572,"[25, 0, 229]",229,a,0.6623581269523129,colour,0.5
004,70,0,1,14,49,699,1349.8436472308822,1351.2140956555959,"[62, 0, 192]",192,l,0.847167816828005,colour,0.5
004,70,0,1,14,50,700,1351.7343936706893,1352.9020943134092,"[54, 0, 200]",200,l,0.6446468898793682,colour,0.5
004,70,0,1,15,1,701,1358.0007455496816,1359.3580840355717,"[39, 0, 215]",215,l,0.8331071346765384,colour,0.5
004,70,0,1,15,2,702,1359.8766743361484,1361.0701041248394,"[89, 0, 165]",165,l,0.6699455626076087,colour,0.5
004,70,0,1,15,3,703,1361.579891975969,1362.8141092038713,"[83, 0, 171]",171,l,0.7107664786744863,colour,0.5
004,70,0,1,15,4,704,1363.3315065460047,1364.6460600078572,"[0, 0, 254]",254,a,0.7910786879947409,colour,0.5
004,70,0,1,15,5,705,1365.1597508689156,1366.3740694412263,"[58, 0, 196]",196,l,0.6909060260513797,colour,0.5
004,70,0,1,15,6,706,1366.8941988904262,1368.1021052622236,"[53, 0, 201]",201,l,0.6845375425182283,colour,0.5
004,70,0,1,15,7,707,1368.6131270317128,1369.88606637239,"[47, 0, 207]",207,l,0.749488985282369,colour,0.5
004,70,0,1,15,8,708,1370.3945049084723,1371.6540857936488,"[56, 0, 198]",198,l,0.7365361908450723,colour,0.5
004,70,0,1,15,9,709,1372.1614928480703,1373.454033884802,"[64, 0, 190]",190,l,0.7692462503910065,colour,0.5
004,70,0,1,15,10,710,1373.9741936601931,1375.1740647938568,"[92, 0, 162]",162,l,0.676531842793338,colour,0.5
004,70,0,1,15,11,711,1375.6931143184192,1376.9340568538755,"[54, 0, 200]",200,l,0.7175264446996152,colour,0.5
004,70,0,1,15,12,712,1377.4432192782406,1378.702036890667,"[67, 0, 187]",187,l,0.7355535461101681,colour,0.5
004,70,0,1,15,13,713,1379.208931551897,1380.422055196599,"[75, 0, 179]",179,l,0.6897386676864699,colour,0.5
004,70,0,1,15,14,714,1380.943466219469,1382.262046752614,"[70, 0, 184]",184,l,0.7951526270480826,colour,0.5
004,70,0,1,15,15,715,1382.7716845484683,1384.0300791708287,"[68, 0, 186]",186,l,0.7349505685269833,colour,0.5
004,70,0,1,15,16,716,1384.5388245126233,1385.7660466486122,"[30, 0, 224]",224,a,0.703749725362286,colour,0.5
004,70,0,1,15,17,717,1386.2735805213451,1387.5100470015313,"[82, 0, 172]",172,l,0.7133623152039945,colour,0.5
004,70,0,1,15,18,718,1388.022645334946,1389.2540359328268,"[99, 0, 155]",155,l,0.7079910486936569,colour,0.5
004,70,0,1,15,19,719,1389.7729153160471,1391.0300535708666,"[31, 0, 223]",223,a,0.7338800961151719,colour,0.5
004,70,0,1,15,20,720,1391.5385598483263,1392.8140040470753,"[10, 0, 244]",244,a,0.7521186923841015,colour,0.5
004,70,0,1,15,21,721,1393.3207399885869,1394.5900287743425,"[25, 0, 229]",229,a,0.7460156609304249,colour,0.5
004,70,0,1,15,22,722,1395.102121016127,1396.5500136663904,"[51, 0, 203]",203,l,0.9245100363623351,colour,0.5
004,70,0,1,15,23,723,1397.0710410835454,1398.3420383714838,"[11, 0, 243]",243,a,0.7476607538992539,colour,0.5
004,70,0,1,15,24,724,1398.8582285769517,1400.0780834369361,"[46, 0, 208]",208,l,0.6965104491682723,colour,0.5
004,70,0,1,15,25,725,1400.5926667521708,1401.7980521182762,"[16, 0, 238]",238,a,0.6819078353000805,colour,0.5
004,70,0,1,15,26,726,1402.3064890790265,1403.6220689024776,"[59, 0, 195]",195,l,0.7921176527161151,colour,0.5
004,70,0,1,15,27,727,1404.134727100376,1405.3660601968877,"[15, 0, 239]",239,a,0.7077551351394504,colour,0.5
004,70,0,1,15,28,728,1405.874759064871,1407.1742719566682,"[42, 0, 212]",212,l,0.7761657239170745,colour,0.5
004,70,0,1,15,29,729,1407.6873247878393,1408.9900794228306,"[29, 0, 225]",225,l,0.7793050672626123,colour,0.5
004,70,0,1,15,30,730,1409.5000330830226,1410.7260728945257,"[55, 0, 199]",199,l,0.70264695759397,colour,0.5
004,70,0,1,15,31,731,1411.2345011906,1412.4621727043996,"[33, 0, 221]",221,l,0.704192801611498,colour,0.5
004,70,0,1,15,32,732,1412.9690401903354,1414.1340008490952,"[2, 0, 252]",252,a,0.6416493309661746,colour,0.5
004,70,0,1,15,33,733,1414.6410475347657,1415.8139934132341,"[4, 0, 250]",250,a,0.6495715352939442,colour,0.5
004,70,0,1,15,34,734,1416.3286669192603,1417.5180259196786,"[95, 0, 159]",159,l,0.66626783227548,colour,0.5
004,70,0,1,15,35,735,1418.031950331293,1419.2060186697636,"[36, 0, 218]",218,l,0.6507314105983824,colour,0.5
004,70,0,1,15,36,736,1419.7195220604772,1420.9660107298987,"[13, 0, 241]",241,l,0.7217236574506387,colour,0.5
004,70,0,1,15,37,737,1421.4866793537512,1422.7180553793442,"[34, 0, 220]",220,l,0.7079544210573658,colour,0.5
004,70,0,1,15,38,738,1423.237448731088,1424.4460159759037,"[7, 0, 247]",247,a,0.6858399900374934,colour,0.5
004,70,0,1,15,39,739,1424.955836516223,1426.222022586153,"[48, 0, 206]",206,l,0.7428853758610785,colour,0.5
004,70,0,1,15,40,740,1426.7371387745952,1427.957961707143,"[88, 0, 166]",166,l,0.6974021155619994,colour,0.5
004,70,0,1,15,41,741,1428.4716793497792,1429.6619678259594,"[80, 0, 174]",174,l,0.6670078682946041,colour,0.5
004,70,0,1,15,42,742,1430.1749028973281,1431.39797508216,"[23, 0, 231]",231,a,0.6996891770977527,colour,0.5
004,70,0,1,15,43,743,1431.9093654910102,1433.1661209278973,"[86, 0, 168]",168,l,0.7336020410293713,colour,0.5
004,70,0,1,15,44,744,1433.6751837092452,1434.9339851740515,"[77, 0, 177]",177,l,0.7354487831471488,colour,0.5
004,70,0,1,15,45,745,1435.4423382455716,1436.7899578033248,"[79, 0, 175]",175,l,0.8242408822989091,colour,0.5
004,70,0,1,15,46,746,1437.3017412701156,1438.549967586412,"[69, 0, 185]",185,l,0.7246881333412603,colour,0.5
004,70,0,1,15,47,747,1439.0675961159868,1440.5259693918051,"[40, 0, 214]",214,a,0.9350284710526466,colour,0.5
004,70,0,1,15,48,748,1441.0365071250126,1442.2539961544098,"[17, 0, 237]",237,a,0.6940851478138939,colour,0.5
004,70,0,1,15,49,749,1442.7710996877868,1443.9980012334418,"[78, 0, 176]",176,l,0.7036016393685713,colour,0.5
004,70,0,1,15,50,750,1444.5069423165405,1445.5659541736823,"[20, 0, 234]",234,a,0.5356032494455576,colour,0.5
004,70,0,1,16,1,751,1450.2111079427414,1451.277933303034,"[74, 0, 180]",180,l,0.5428590670926496,colour,0.5
004,70,0,1,16,2,752,1451.7901322769467,1453.0219360189512,"[87, 0, 167]",167,l,0.7089981118915603,colour,0.5
004,70,0,1,16,3,753,1453.540421162732,1454.7179557364434,"[68, 0, 186]",186,l,0.6541495968122035,colour,0.5
004,70,0,1,16,4,754,1455.2279924979666,1456.4139900262235,"[72, 0, 182]",182,l,0.6626818680670112,colour,0.5
004,70,0,1,16,5,755,1456.9312987531302,1458.1579828959657,"[26, 0, 228]",228,a,0.7033554858062416,colour,0.5
004,70,0,1,16,6,756,1458.6657932483358,1459.9979429442901,"[77, 0, 177]",177,l,0.8087552667129785,colour,0.5
004,70,0,1,16,7,757,1460.5115373132285,1461.6861113496125,"[32, 0, 222]",222,a,0.6513647144893184,colour,0.5
004,70,0,1,16,8,758,1462.1990090056788,1463.413927404792,"[88, 0, 166]",166,l,0.6913341362960637,colour,0.5
004,70,0,1,16,9,759,1463.9337327190442,1465.2619471095968,"[94, 0, 160]",160,l,0.8048656474566087,colour,0.5
004,70,0,1,16,10,760,1465.7775823865086,1467.8699293361278,"[47, 0, 207]",207,l,1.569097455474548,colour,0.5
004,70,0,1,16,11,761,1468.387123454013,1469.5739598734071,"[18, 0, 236]",236,a,0.6637606112053618,colour,0.5
004,70,0,1,16,12,762,1470.090308404644,1471.1979594071163,"[30, 0, 224]",224,a,0.5842486962210387,colour,0.5
004,70,0,1,16,13,763,1471.7154815982794,1472.8938853893196,"[19, 0, 235]",235,a,0.6549605248728767,colour,0.5
004,70,0,1,16,14,764,1473.403132096515,1474.64598438947,"[31, 0, 223]",223,a,0.7194933097343892,colour,0.5
004,70,0,1,16,15,765,1475.1532283917768,1476.3739075707272,"[24, 0, 230]",230,a,0.6972981403814629,colour,0.5
004,70,0,1,16,16,766,1476.8888638577191,1478.158059302019,"[5, 0, 249]",249,a,0.7458455194719136,colour,0.5
004,70,0,1,16,17,767,1478.6701649345923,1479.8698781362036,"[22, 0, 232]",232,a,0.6762242492986843,colour,0.5
004,70,0,1,16,18,768,1480.3891009527724,1481.7099287690362,"[97, 0, 157]",157,l,0.7977500387933105,colour,0.5
004,70,0,1,16,19,769,1482.2179076872999,1483.5099646877497,"[67, 0, 187]",187,l,0.7685822267085314,colour,0.5
004,70,0,1,16,20,770,1484.0305537547683,1485.2699157878524,"[29, 0, 225]",225,a,0.7159156161360443,colour,0.5
004,70,0,1,16,21,771,1485.780720942188,1487.0299141494324,"[75, 0, 179]",179,l,0.7258554917061701,colour,0.5
004,70,0,1,16,22,772,1487.5464466067497,1488.8219290084671,"[17, 0, 237]",237,a,0.7520422864472494,colour,0.5
004,70,0,1,16,23,773,1489.328284495161,1490.53394279629,"[89, 0, 165]",165,l,0.6824233793886378,colour,0.5
004,70,0,1,16,24,774,1491.0472020026064,1492.365911717061,"[69, 0, 185]",185,l,0.7954105958342552,colour,0.5
004,70,0,1,16,25,775,1492.8754223008873,1494.0858803985175,"[71, 0, 183]",183,l,0.6870774528943002,colour,0.5
004,70,0,1,16,26,776,1494.594239377766,1495.853916755179,"[37, 0, 217]",217,a,0.7363341480959207,colour,0.5
004,70,0,1,16,27,777,1496.3756290698657,1497.5979005665286,"[50, 0, 204]",204,l,0.6988333505578339,colour,0.5
004,70,0,1,16,28,778,1498.1101810665568,1499.349858963862,"[7, 0, 247]",247,a,0.7162751973373815,colour,0.5
004,70,0,1,16,29,779,1499.8611442159163,1501.0138566701207,"[15, 0, 239]",239,a,0.6305105893407017,colour,0.5
004,70,0,1,16,30,780,1501.5337364211446,1502.7978721308755,"[6, 0, 248]",248,a,0.7411240984220058,colour,0.5
004,70,0,1,16,31,781,1503.3150808210485,1504.6058487647679,"[79, 0, 175]",175,l,0.7672305485466495,colour,0.5
004,70,0,1,16,32,782,1505.1121034269454,1506.3898693455849,"[52, 0, 202]",202,l,0.7546649043215439,colour,0.5
004,70,0,1,16,33,783,1506.9113835559692,1508.1338838769589,"[81, 0, 173]",173,l,0.7053944246144965,colour,0.5
004,70,0,1,16,34,784,1508.655259059742,1509.8938412786229,"[73, 0, 181]",181,l,0.7151818819111213,colour,0.5
004,70,0,1,16,35,785,1510.4137060635258,1511.7098543322645,"[16, 0, 238]",238,a,0.7728003131924197,colour,0.5
004,70,0,1,16,36,786,1512.2263481925474,1513.4778556366218,"[60, 0, 194]",194,l,0.7276951445965096,colour,0.5
004,70,0,1,16,37,787,1513.9839500036323,1515.2778742260998,"[70, 0, 184]",184,l,0.7713749859249219,colour,0.5
004,70,0,1,16,38,788,1515.7965330558363,1517.0778939971933,"[10, 0, 244]",244,a,0.758024801267311,colour,0.5
004,70,0,1,16,39,789,1517.5861702688271,1518.9178729500854,"[49, 0, 205]",205,l,0.8083464549854398,colour,0.5
004,70,0,1,16,40,790,1519.4384647740517,1520.7339096344076,"[14, 0, 240]",240,a,0.7720740617951378,colour,0.5
004,70,0,1,16,41,791,1521.251139592263,1522.5018207482062,"[59, 0, 195]",195,l,0.727387945051305,colour,0.5
004,70,0,1,16,42,792,1523.017038942664,1524.277859653812,"[45, 0, 209]",209,l,0.7378524228697643,colour,0.5
004,70,0,1,16,43,793,1524.7982336811256,1526.0858614939498,"[66, 0, 188]",188,l,0.7642203866271302,colour,0.5
004,70,0,1,16,44,794,1526.5953248162987,1527.869867896312,"[1, 0, 253]",253,a,0.7514739672187716,colour,0.5
004,70,0,1,16,45,795,1528.3767668898217,1529.6618299799738,"[54, 0, 200]",200,l,0.7620991341536865,colour,0.5
004,70,0,1,16,46,796,1530.1737126958324,1531.3738701553084,"[4, 0, 250]",250,a,0.6771529372781515,colour,0.5
004,70,0,1,16,47,797,1531.8925727019086,1533.213810905232,"[90, 0, 164]",164,l,0.7979020632337779,colour,0.5
004,70,0,1,16,48,798,1533.7208268708782,1534.973807297647,"[20, 0, 234]",234,a,0.7302228457992896,colour,0.5
004,70,0,1,16,49,799,1535.4865576553857,1538.1018362657633,"[33, 0, 221]",221,l,2.0918979656416923,colour,0.5
004,70,0,1,16,50,800,1538.611841519596,1539.8538005707087,"[80, 0, 174]",174,l,0.7188359814463183,colour,0.5
