id,age,condition,counterbalance,block,trialinblock,trial,tstart,tend,trialstim,trialintensity,response,RT,trialtype,colourfreq
106,19,1,1,Practice,1,NA,5.9076701290905476e-06,0.9274567320826463,"[11, 0, 243]",243,a,0.3561962203239091,colour,0.5
106,19,1,1,Practice,2,NA,1.438349722593557,3.991437001968734,"[24, 0, 230]",230,a,2.029885422321968,colour,0.5
106,19,1,1,Practice,3,NA,4.500781390292104,5.743446403881535,"[96, 0, 158]",158,l,0.7193383073317818,colour,0.5
106,19,1,1,Practice,4,NA,6.250813291815575,7.087435763736721,"[78, 0, 176]",176,l,0.31332333490718156,colour,0.5
106,19,1,1,Practice,5,NA,7.594382418086752,8.583426018420141,"[62, 0, 192]",192,a,0.465499097306747,colour,0.5
106,19,1,1,Practice,6,NA,9.094777051708661,9.91144374461146,"[65, 0, 189]",189,a,0.29360228806035593,colour,0.5
106,19,1,1,Practice,7,NA,10.422626605723053,11.399402693263255,"[30, 0, 224]",224,a,0.4534907351480797,colour,0.5
106,19,1,1,Practice,8,NA,11.90697319956962,12.72744444408454,"[48, 0, 206]",206,a,0.29715477826539427,colour,0.5
106,19,1,1,Practice,9,NA,13.235059061145876,13.767442648182623,"[76, 0, 178]",178,l,0.009004893188830465,colour,0.5
106,19,1,1,Practice,10,NA,14.282034639560152,15.023436195391696,"[41, 0, 213]",213,a,0.2180937542580068,colour,0.5
106,19,1,1,1,1,1,5.166813833755441,6.007967896817718,"[61, 0, 193]",193,a,0.31686794821871445,colour,0.5
106,19,1,1,1,2,2,6.527035947074182,7.383950542367529,"[4, 0, 250]",250,a,0.33344137837411836,colour,0.5
106,19,1,1,1,3,3,7.902111959352624,8.727958019182552,"[58, 0, 196]",196,a,0.30253116897074506,colour,0.5
106,19,1,1,1,4,4,9.245787817868404,10.047953103960026,"[82, 0, 172]",172,l,0.27910678897751495,colour,0.5
106,19,1,1,1,5,5,10.558297860901803,11.359949178120587,"[81, 0, 173]",173,l,0.2782671094755642,colour,0.5
106,19,1,1,1,6,6,11.870817750168499,12.615915549977217,"[23, 0, 231]",231,a,0.22188964125234634,colour,0.5
106,19,1,1,1,7,7,13.136400657880586,13.863938837253954,"[87, 0, 167]",167,l,0.2042654300457798,colour,0.5
106,19,1,1,1,8,8,14.370799633208662,15.12796723516658,"[85, 0, 169]",169,l,0.23390154796652496,colour,0.5
106,19,1,1,1,9,9,15.636566860834137,16.38393124390859,"[84, 0, 170]",170,l,0.22410699375905097,colour,0.5
106,19,1,1,1,10,10,16.90222263004398,17.663987595413346,"[63, 0, 191]",191,a,0.23851230216678232,colour,0.5
106,19,1,1,1,11,11,18.183422710106242,18.92794825177407,"[94, 0, 160]",160,l,0.22110903862630948,colour,0.5
106,19,1,1,1,12,12,19.449021765496582,20.167942989966832,"[56, 0, 198]",198,a,0.1955441060126759,colour,0.5
106,19,1,1,1,13,13,20.68335378705524,21.391933011531364,"[74, 0, 180]",180,l,0.18530332436785102,colour,0.5
106,19,1,1,1,14,14,21.90235968842171,22.61588522384409,"[49, 0, 205]",205,a,0.19044655829202384,colour,0.5
106,19,1,1,1,15,15,23.136502270121127,23.85597842349671,"[98, 0, 156]",156,l,0.19610021641710773,colour,0.5
106,19,1,1,1,16,16,24.370845319353975,25.02392298891209,"[30, 0, 224]",224,a,0.12985848326934502,colour,0.5
106,19,1,1,1,17,17,25.542761033168063,26.26401028095279,"[50, 0, 204]",204,a,0.19791112001985312,colour,0.5
106,19,1,1,1,18,18,26.77706036553718,27.44794105226174,"[24, 0, 230]",230,a,0.14738777751335874,colour,0.5
106,19,1,1,1,19,19,27.964561350119766,28.599929737858474,"[27, 0, 227]",227,a,0.11195976153248921,colour,0.5
106,19,1,1,1,20,20,29.120818144001532,29.847964840591885,"[19, 0, 235]",235,a,0.20428354700561613,colour,0.5
106,19,1,1,1,21,21,30.3551269286545,30.93595947168069,"[36, 0, 218]",218,a,0.05734002770623192,colour,0.5
106,19,1,1,1,22,22,31.44891385169467,32.167961894592736,"[13, 0, 241]",241,a,0.19563508441206068,colour,0.5
106,19,1,1,1,23,23,32.68336284550605,33.399930840649176,"[83, 0, 171]",171,l,0.19313928281189874,colour,0.5
106,19,1,1,1,24,24,33.917893365432974,34.50393018842442,"[33, 0, 221]",221,a,0.06279676291160285,colour,0.5
106,19,1,1,1,25,25,35.01148179010488,35.74391586816637,"[72, 0, 182]",182,l,0.20899985189316794,colour,0.5
106,19,1,1,1,26,26,36.26151014701463,36.935996887041256,"[41, 0, 213]",213,l,0.15602245554327965,colour,0.5
106,19,1,1,1,27,27,37.44415382988518,38.13597845501499,"[80, 0, 174]",174,l,0.1685128850513138,colour,0.5
106,19,1,1,1,28,28,38.64723850990413,39.33593875536462,"[42, 0, 212]",212,a,0.16531682544155046,colour,0.5
106,19,1,1,1,29,29,39.85031176841585,40.5119520421722,"[6, 0, 248]",248,a,0.13825370295671746,colour,0.5
106,19,1,1,1,30,30,41.022163679182995,41.63994684652425,"[29, 0, 225]",225,a,0.09442219650372863,colour,0.5
106,19,1,1,1,31,31,42.14730940217851,42.8559705466032,"[31, 0, 223]",223,a,0.1853438905091025,colour,0.5
106,19,1,1,1,32,32,43.365980140690226,43.99993304617237,"[99, 0, 155]",155,l,0.11062580539146438,colour,0.5
106,19,1,1,1,33,33,44.50655517150881,45.119938292191364,"[35, 0, 219]",219,a,0.09004735603230074,colour,0.5
106,19,1,1,1,34,34,45.63156344223535,46.319919466390274,"[52, 0, 202]",202,a,0.164988751814235,colour,0.5
106,19,1,1,1,35,35,46.83465639303904,47.43996764160693,"[75, 0, 179]",179,l,0.08192113315453753,colour,0.5
106,19,1,1,1,36,36,47.95964024536079,48.54395359865157,"[71, 0, 183]",183,l,0.06092441943474114,colour,0.5
106,19,1,1,1,37,37,49.05345394992037,49.64800493407529,"[57, 0, 197]",197,a,0.07143695472041145,colour,0.5
106,19,1,1,1,38,38,50.162785971479025,50.79194222751539,"[3, 0, 251]",251,a,0.10572833137121052,colour,0.5
106,19,1,1,1,39,39,51.30347009759862,51.91989607189316,"[95, 0, 159]",159,l,0.09333478793269023,colour,0.5
106,19,1,1,1,40,40,52.42845158686396,53.03993125021225,"[21, 0, 233]",233,a,0.08813838480273262,colour,0.5
106,19,1,1,1,41,41,53.55340905149933,54.207909292541444,"[45, 0, 209]",209,a,0.1312735716928728,colour,0.5
106,19,1,1,1,42,42,54.72532752226107,55.44790796923917,"[96, 0, 158]",158,l,0.1992285346495919,colour,0.5
106,19,1,1,1,43,43,55.959649697644636,56.53596207103692,"[5, 0, 249]",249,a,0.05294864566531032,colour,0.5
106,19,1,1,1,44,44,57.054240854107775,57.74391153588658,"[39, 0, 215]",215,a,0.16732859041076154,colour,0.5
106,19,1,1,1,45,45,58.25653075304581,58.99208094005007,"[15, 0, 239]",239,a,0.21273114817449823,colour,0.5
106,19,1,1,1,46,46,59.50655517150881,60.45587507833261,"[48, 0, 206]",206,a,0.42596996371867135,colour,0.5
106,19,1,1,1,47,47,60.97531885764329,61.62391456059413,"[77, 0, 177]",177,l,0.12554193194955587,colour,0.5
106,19,1,1,1,48,48,62.13148900534725,62.831937674665824,"[55, 0, 199]",199,l,0.17706170462770388,colour,0.5
106,19,1,1,1,49,49,63.35028853151016,64.32791611395078,"[32, 0, 222]",222,a,0.45464352215640247,colour,0.5
106,19,1,1,1,50,50,64.83461188845104,65.50388568383642,"[20, 0, 234]",234,a,0.14582342153880745,colour,0.5
106,19,1,1,2,1,51,70.50572848890442,71.15190991637064,"[86, 0, 168]",168,l,0.12205757712945342,colour,0.5
106,19,1,1,2,2,52,71.66275131306611,72.5279374603997,"[24, 0, 230]",230,a,0.3417991827009246,colour,0.5
106,19,1,1,2,3,53,73.03772965155076,73.66392615542281,"[42, 0, 212]",212,a,0.10299582837615162,colour,0.5
106,19,1,1,2,4,54,74.17829916847404,74.73591016215505,"[70, 0, 184]",184,l,0.03408460755599663,colour,0.5
106,19,1,1,2,5,55,75.25648743001511,75.88794335233979,"[59, 0, 195]",195,l,0.10814418224617839,colour,0.5
106,19,1,1,2,6,56,76.39714910689509,77.02394504431868,"[78, 0, 176]",176,l,0.10347080661449581,colour,0.5
106,19,1,1,2,7,57,77.53773319616448,78.11191368155414,"[67, 0, 187]",187,l,0.050829360727220774,colour,0.5
106,19,1,1,2,8,58,78.63297025987413,79.23992975364672,"[93, 0, 161]",161,l,0.08519123587757349,colour,0.5
106,19,1,1,2,9,59,79.75644056231249,80.37596374092391,"[79, 0, 175]",175,l,0.09609604167053476,colour,0.5
106,19,1,1,2,10,60,80.89714831922902,81.54393469402567,"[36, 0, 218]",218,a,0.12353016703855246,colour,0.5
106,19,1,1,2,11,61,82.05332043615635,82.67991826904472,"[92, 0, 162]",162,l,0.10339164349716157,colour,0.5
106,19,1,1,2,12,62,83.1939573007985,83.7758835538989,"[43, 0, 211]",211,a,0.05859285150654614,colour,0.5
106,19,1,1,2,13,63,84.28767254389822,84.96789210510906,"[34, 0, 220]",220,a,0.15687985811382532,colour,0.5
106,19,1,1,2,14,64,85.47523536230437,86.03195429494372,"[84, 0, 170]",170,l,0.033413100230973214,colour,0.5
106,19,1,1,2,15,65,86.55338187614689,87.13593237503665,"[5, 0, 249]",249,a,0.05937069718493149,colour,0.5
106,19,1,1,2,16,66,87.64706324849976,88.27191752550425,"[61, 0, 193]",193,l,0.10134837089572102,colour,0.5
106,19,1,1,2,17,67,88.78764970082557,89.4399306200794,"[37, 0, 217]",217,a,0.1290006868657656,colour,0.5
106,19,1,1,2,18,68,89.95973476837389,90.65596456016647,"[25, 0, 229]",229,a,0.1731996515300125,colour,0.5
106,19,1,1,2,19,69,91.16269656846998,91.81589711795095,"[2, 0, 252]",252,a,0.1298541509313509,colour,0.5
106,19,1,1,2,20,70,92.33453823928721,93.46387723978842,"[35, 0, 219]",219,a,0.6059733035508543,colour,0.5
106,19,1,1,2,21,71,93.97517352848081,94.67992299521575,"[28, 0, 226]",226,a,0.18158423731802031,colour,0.5
106,19,1,1,2,22,72,95.19385883928044,95.7358885006397,"[9, 0, 245]",245,a,0.018535964423790574,colour,0.5
106,19,1,1,2,23,73,96.25643189769471,96.85588350665057,"[26, 0, 228]",228,a,0.076126478088554,colour,0.5
106,19,1,1,2,24,74,97.36577967309859,97.99188401707215,"[22, 0, 232]",232,a,0.10263664089143276,colour,0.5
106,19,1,1,2,25,75,98.50637479004217,99.09596292173956,"[63, 0, 191]",191,l,0.06622243468882516,colour,0.5
106,19,1,1,2,26,76,99.61572177777998,100.20795064634876,"[57, 0, 197]",197,l,0.06965755886631086,colour,0.5
106,19,1,1,2,27,77,100.72516643925337,101.35991688276408,"[62, 0, 192]",192,l,0.11137135577155277,colour,0.5
106,19,1,1,2,28,78,101.88137439620914,102.5679080952541,"[33, 0, 221]",221,a,0.16313806979451329,colour,0.5
106,19,1,1,2,29,79,103.08453430078225,103.73588062368799,"[60, 0, 194]",194,l,0.12802631204249337,colour,0.5
106,19,1,1,2,30,80,104.25636336853495,104.87192682025488,"[82, 0, 172]",172,l,0.09220051165902987,colour,0.5
106,19,1,1,2,31,81,105.38139448233414,106.00787849380868,"[13, 0, 241]",241,a,0.10323371132835746,colour,0.5
106,19,1,1,2,32,82,106.52200535312295,107.09590069408296,"[11, 0, 243]",243,a,0.050563120865263045,colour,0.5
106,19,1,1,2,33,83,107.61574580235174,108.18398078973405,"[69, 0, 185]",185,l,0.04558884690050036,colour,0.5
106,19,1,1,2,34,84,108.69389822386438,109.29589092673268,"[1, 0, 253]",253,a,0.0785490243579261,colour,0.5
106,19,1,1,2,35,85,109.80328735313378,110.35188951517921,"[64, 0, 190]",190,l,0.02531759737757966,colour,0.5
106,19,1,1,2,36,86,110.86573910701554,111.55996501073241,"[65, 0, 189]",189,l,0.1711394435260445,colour,0.5
106,19,1,1,2,37,87,112.06898998998804,112.60796143772313,"[4, 0, 250]",250,a,0.015660101489629596,colour,0.5
106,19,1,1,2,38,88,113.11577455309452,113.65586964326212,"[31, 0, 223]",223,a,0.01671403320506215,colour,0.5
106,19,1,1,2,39,89,114.16262016235851,114.82388549478492,"[53, 0, 201]",201,a,0.13790081697516143,colour,0.5
106,19,1,1,2,40,90,115.33456777769607,116.39199051301694,"[51, 0, 203]",203,a,0.5340637337067164,colour,0.5
106,19,1,1,2,41,91,116.91260165162385,117.54388270637719,"[46, 0, 208]",208,a,0.10788069933187217,colour,0.5
106,19,1,1,2,42,92,118.05326884234091,118.71986487932736,"[88, 0, 166]",166,l,0.14337606297340244,colour,0.5
106,19,1,1,2,43,93,119.24086238077143,119.92791280563688,"[18, 0, 236]",236,a,0.163758770970162,colour,0.5
106,19,1,1,2,44,94,120.44386671623215,121.24794491194189,"[12, 0, 242]",242,a,0.2806183695793152,colour,0.5
106,19,1,1,2,45,95,121.7562617562944,122.47995442413958,"[90, 0, 164]",164,l,0.20020999864209443,colour,0.5
106,19,1,1,2,46,96,122.99068436241942,123.91984132735524,"[72, 0, 182]",182,l,0.40576566802337766,colour,0.5
106,19,1,1,2,47,97,124.42815502086887,125.06388574687298,"[23, 0, 231]",231,a,0.11235085059888661,colour,0.5
106,19,1,1,2,48,98,125.58439015317708,126.28791633452056,"[91, 0, 163]",163,l,0.18021050276001915,colour,0.5
106,19,1,1,2,49,99,126.80322236852953,127.44790245534386,"[3, 0, 251]",251,a,0.1213474728865549,colour,0.5
106,19,1,1,2,50,100,127.95936376554891,128.66392024775269,"[96, 0, 158]",158,l,0.18105254531838,colour,0.5
106,19,1,1,3,1,101,143.3805603166693,144.0639570329804,"[78, 0, 176]",176,l,0.15930358588229865,colour,0.5
106,19,1,1,3,2,102,144.58443780854577,145.55988663533935,"[92, 0, 162]",162,l,0.45212330209324136,colour,0.5
106,19,1,1,3,3,103,146.06869775633095,146.76786878943676,"[17, 0, 237]",237,a,0.1758175453869626,colour,0.5
106,19,1,1,3,4,104,147.287563448539,147.8478695298545,"[23, 0, 231]",231,a,0.03719244571402669,colour,0.5
106,19,1,1,3,5,105,148.36555596865946,148.9918690509512,"[83, 0, 171]",171,l,0.10283395770238712,colour,0.5
106,19,1,1,3,6,106,149.50624324550154,150.1358973227907,"[89, 0, 165]",165,l,0.10625411570072174,colour,0.5
106,19,1,1,3,7,107,150.64684663322987,151.2478393612546,"[66, 0, 188]",188,l,0.07758646493311971,colour,0.5
106,19,1,1,3,8,108,151.7561837747926,152.35989640274784,"[30, 0, 224]",224,a,0.08027840178692713,colour,0.5
106,19,1,1,3,9,109,152.8812428516685,153.5678568952717,"[77, 0, 177]",177,l,0.16326488816412166,colour,0.5
106,19,1,1,3,10,110,154.08432201785035,154.65589996939525,"[76, 0, 178]",178,l,0.048176020733080804,colour,0.5
106,19,1,1,3,11,111,155.1624610486324,155.76785461098189,"[68, 0, 186]",186,l,0.08231970522319898,colour,0.5
106,19,1,1,3,12,112,156.28755163319875,156.9519149576081,"[12, 0, 242]",242,a,0.14135011954931542,colour,0.5
106,19,1,1,3,13,113,157.45932004862698,158.11190147232264,"[38, 0, 216]",216,a,0.12916058831615373,colour,0.5
106,19,1,1,3,14,114,158.63118023017887,159.24786889972165,"[59, 0, 195]",195,a,0.09329540334874764,colour,0.5
106,19,1,1,3,15,115,159.7562093747547,160.30387142661493,"[56, 0, 198]",198,a,0.024427111726254225,colour,0.5
106,19,1,1,3,16,116,160.81866073480342,161.77586780005367,"[16, 0, 238]",238,a,0.43380316521506757,colour,0.5
106,19,1,1,3,17,117,162.2874445070629,163.00789582298603,"[81, 0, 173]",173,l,0.19729238806758076,colour,0.5
106,19,1,1,3,18,118,163.5218103994266,164.04785464250017,"[8, 0, 246]",246,a,0.00271359842736274,colour,0.5
106,19,1,1,3,19,119,164.56864537479123,165.30383401125437,"[80, 0, 174]",174,l,0.2117087241495028,colour,0.5
106,19,1,1,3,20,120,165.81866703630658,166.44783983385423,"[26, 0, 228]",228,a,0.10578543902374804,colour,0.5
106,19,1,1,3,21,121,166.95931650401326,167.6878601720673,"[22, 0, 232]",232,a,0.20547729398822412,colour,0.5
106,19,1,1,3,22,122,168.20933777169557,168.82387131633004,"[49, 0, 205]",205,a,0.09169875195948407,colour,0.5
106,19,1,1,3,23,123,169.33418653486297,170.01590743672568,"[67, 0, 187]",187,a,0.1585615801741369,colour,0.5
106,19,1,1,3,24,124,170.52175723022083,171.13590874429792,"[27, 0, 227]",227,a,0.0911008938564919,colour,0.5
106,19,1,1,3,25,125,171.64686514396453,172.2158354417188,"[28, 0, 226]",226,a,0.04556442849570885,colour,0.5
106,19,1,1,3,26,126,172.725762328133,173.38385759474477,"[61, 0, 193]",193,a,0.1347524126758799,colour,0.5
106,19,1,1,3,27,127,173.89765362354228,174.55984410003293,"[41, 0, 213]",213,a,0.13898507482372224,colour,0.5
106,19,1,1,3,28,128,175.06940943590598,175.79188984597567,"[93, 0, 161]",161,l,0.19918678689282387,colour,0.5
106,19,1,1,3,29,129,176.3038631558302,176.8318730838946,"[4, 0, 250]",250,a,0.005016021605115384,colour,0.5
106,19,1,1,3,30,130,177.3506445682142,177.99986609234475,"[72, 0, 182]",182,l,0.12584873795276508,colour,0.5
106,19,1,1,3,31,131,178.50695374357747,179.1278274198412,"[14, 0, 240]",240,a,0.10560269455891103,colour,0.5
106,19,1,1,3,32,132,179.64125480881194,180.3278550678515,"[53, 0, 201]",201,a,0.16395845083752647,colour,0.5
106,19,1,1,3,33,133,180.84449545183452,181.44787409849232,"[57, 0, 197]",197,a,0.07996411278145388,colour,0.5
106,19,1,1,3,34,134,181.9722882132628,182.56781554146437,"[44, 0, 210]",210,a,0.07317066448740661,colour,0.5
106,19,1,1,3,35,135,183.0815572194988,183.74383552360814,"[40, 0, 214]",214,a,0.15134907979518175,colour,0.5
106,19,1,1,3,36,136,184.25864767486928,184.8558693281957,"[52, 0, 202]",202,a,0.07384335331153125,colour,0.5
106,19,1,1,3,37,137,185.3680171117885,185.9678680804791,"[58, 0, 196]",196,a,0.07647581939818338,colour,0.5
106,19,1,1,3,38,138,186.47737158258678,187.10382290481357,"[90, 0, 164]",164,l,0.10308011143933982,colour,0.5
106,19,1,1,3,39,139,187.61919471109286,188.6318808820797,"[9, 0, 245]",245,a,0.4894272062811069,colour,0.5
106,19,1,1,3,40,140,189.15042629878735,189.82386383326957,"[18, 0, 236]",236,a,0.15003481600433588,colour,0.5
106,19,1,1,3,41,141,190.33791980036767,190.9598225959926,"[62, 0, 192]",192,a,0.09868203400401399,colour,0.5
106,19,1,1,3,42,142,191.47857123723952,192.06388614070602,"[1, 0, 253]",253,a,0.06187437573680654,colour,0.5
106,19,1,1,3,43,143,192.5723258649232,193.1918966989033,"[47, 0, 207]",207,a,0.09625673078699037,colour,0.5
106,19,1,1,3,44,144,193.70857095369138,194.2878722237656,"[79, 0, 175]",175,l,0.05590997310355306,colour,0.5
106,19,1,1,3,45,145,194.79299458378227,195.51182404224528,"[64, 0, 190]",190,a,0.19558821676764637,colour,0.5
106,19,1,1,3,46,146,196.02729115926195,196.5918590472429,"[31, 0, 223]",223,a,0.04308792529627681,colour,0.5
106,19,1,1,3,47,147,197.1034877419006,197.69585760735208,"[55, 0, 199]",199,a,0.06922984216362238,colour,0.5
106,19,1,1,3,48,148,198.21282252040692,198.7998534105136,"[10, 0, 244]",244,a,0.06364825775381178,colour,0.5
106,19,1,1,3,49,149,199.30666812648997,199.93581493018428,"[34, 0, 220]",220,a,0.10614305111812428,colour,0.5
106,19,1,1,3,50,150,200.4473782464629,201.08785402809735,"[36, 0, 218]",218,a,0.11724911228520796,colour,0.5
106,19,1,1,4,1,151,209.64969965309137,210.23188348143594,"[8, 0, 246]",246,a,0.05847863620147109,colour,0.5
106,19,1,1,4,2,152,210.74420101265423,211.28786749759456,"[33, 0, 221]",221,a,0.02038664638530463,colour,0.5
106,19,1,1,4,3,153,211.8067039664602,212.3598172396887,"[61, 0, 193]",193,a,0.02979286853224039,colour,0.5
106,19,1,1,4,4,154,212.86921716033248,213.44781659694854,"[68, 0, 186]",186,a,0.0553558319224976,colour,0.5
106,19,1,1,4,5,155,213.96290759113617,214.8718602603185,"[78, 0, 176]",176,l,0.3856401414377615,colour,0.5
106,19,1,1,4,6,156,215.38490207411814,216.30382731585996,"[16, 0, 238]",238,a,0.3957659200532362,colour,0.5
106,19,1,1,4,7,157,216.8222916003433,217.49582168861525,"[66, 0, 188]",188,a,0.15019353589741513,colour,0.5
106,19,1,1,4,8,158,218.0097303573275,218.5598314969684,"[84, 0, 170]",170,l,0.025123431347310543,colour,0.5
106,19,1,1,4,9,159,219.07394457166083,220.05583081004443,"[53, 0, 201]",201,a,0.45830668305279687,colour,0.5
106,19,1,1,4,10,160,220.57398238091264,221.2878966422286,"[69, 0, 185]",185,l,0.19056510587688535,colour,0.5
106,19,1,1,4,11,161,221.80831637169467,222.35985307971714,"[2, 0, 252]",252,a,0.028121780313085765,colour,0.5
106,19,1,1,4,12,162,222.87080317782238,223.47181599203032,"[57, 0, 197]",197,a,0.07790941861458123,colour,0.5
106,19,1,1,4,13,163,223.9802025470417,224.60779956704937,"[12, 0, 242]",242,a,0.10467479354701936,colour,0.5
106,19,1,1,4,14,164,225.12078191014007,225.75185895274626,"[23, 0, 231]",231,a,0.1050190149107948,colour,0.5
106,19,1,1,4,15,165,226.26411110546906,226.87981712946203,"[40, 0, 214]",214,a,0.09240216080797836,colour,0.5
106,19,1,1,4,16,166,227.3892115362105,227.98382632335415,"[5, 0, 249]",249,a,0.07135897321859375,colour,0.5
106,19,1,1,4,17,167,228.49856876389822,229.18387169443304,"[87, 0, 167]",167,l,0.16193605202715844,colour,0.5
106,19,1,1,4,18,168,229.70166841009632,230.3198162787594,"[65, 0, 189]",189,a,0.0948869347339496,colour,0.5
106,19,1,1,4,19,169,230.8265671916888,231.77586189238355,"[9, 0, 245]",245,a,0.4258518099668436,colour,0.5
106,19,1,1,4,20,170,232.29541358543793,232.90379249991383,"[58, 0, 196]",196,a,0.08504590671509504,colour,0.5
106,19,1,1,4,21,171,233.4204088593251,234.08784378808923,"[43, 0, 211]",211,a,0.14443078235490248,colour,0.5
106,19,1,1,4,22,172,234.60789684701012,235.20785848639207,"[39, 0, 215]",215,a,0.07657191780162975,colour,0.5
106,19,1,1,4,23,173,235.717269040877,236.39979181304807,"[3, 0, 251]",251,a,0.15925238595809788,colour,0.5
106,19,1,1,4,24,174,236.9203509639483,237.56782066146843,"[77, 0, 177]",177,l,0.12438678194303066,colour,0.5
106,19,1,1,4,25,175,238.0765183547628,239.01585584291024,"[26, 0, 228]",228,a,0.4159347696695477,colour,0.5
106,19,1,1,4,26,176,239.5297345793224,240.29581767134368,"[98, 0, 156]",156,l,0.2552349999314174,colour,0.5
106,19,1,1,4,27,177,240.8141114205937,241.535854157235,"[94, 0, 160]",160,l,0.19840697199106216,colour,0.5
106,19,1,1,4,28,178,242.04097336652922,242.9437950362335,"[73, 0, 181]",181,a,0.37942210194887593,colour,0.5
106,19,1,1,4,29,179,243.4628780526691,244.247846056649,"[0, 0, 254]",254,a,0.2600686709629372,colour,0.5
106,19,1,1,4,30,180,244.75208895874675,245.4877856564126,"[13, 0, 241]",241,a,0.2124538806383498,colour,0.5
106,19,1,1,4,31,181,246.00196332187625,246.6797713645501,"[41, 0, 213]",213,a,0.15448527492117137,colour,0.5
106,19,1,1,4,32,182,247.1899952107924,247.86381910811178,"[10, 0, 244]",244,a,0.15050664340378717,colour,0.5
106,19,1,1,4,33,183,248.37733314320212,249.0798124820576,"[35, 0, 219]",219,a,0.1820934801362455,colour,0.5
106,19,1,1,4,34,184,249.5931071449886,250.31185704650125,"[49, 0, 205]",205,a,0.19546179223107174,colour,0.5
106,19,1,1,4,35,185,250.82739426812623,251.383824511664,"[64, 0, 190]",190,a,0.03299680509371683,colour,0.5
106,19,1,1,4,36,186,251.89191056229174,252.56787304294994,"[27, 0, 227]",227,a,0.15259402676019818,colour,0.5
106,19,1,1,4,37,187,253.07935719616944,253.7358117006952,"[4, 0, 250]",250,a,0.13696740218438208,colour,0.5
106,19,1,1,4,38,188,254.24722181085963,254.871823632624,"[72, 0, 182]",182,l,0.10123100480996072,colour,0.5
106,19,1,1,4,39,189,255.38995196652832,256.0318117227289,"[70, 0, 184]",184,l,0.11848972691223025,colour,0.5
106,19,1,1,4,40,190,256.5337167554535,257.1517602549284,"[95, 0, 159]",159,l,0.09468174097128212,colour,0.5
106,19,1,1,4,41,191,257.6658276435337,258.2958775359439,"[97, 0, 157]",157,l,0.10673421388491988,colour,0.5
106,19,1,1,4,42,192,258.8064203974209,259.4638051659567,"[55, 0, 199]",199,a,0.1328702230239287,colour,0.5
106,19,1,1,4,43,193,259.98035299620824,260.6237983760657,"[25, 0, 229]",229,a,0.12535800592740998,colour,0.5
106,19,1,1,4,44,194,261.13159928220557,261.7758166001295,"[36, 0, 218]",218,a,0.12081459938781336,colour,0.5
106,19,1,1,4,45,195,262.2878891591099,262.8638013850432,"[76, 0, 178]",178,a,0.06498142622876912,colour,0.5
106,19,1,1,4,46,196,263.37888725922676,263.91981257655425,"[91, 0, 163]",163,l,0.017559226544108242,colour,0.5
106,19,1,1,4,47,197,264.4413433453883,265.1117833185708,"[92, 0, 162]",162,l,0.14711563003947958,colour,0.5
106,19,1,1,4,48,198,265.628809671558,266.19181950512575,"[48, 0, 206]",206,a,0.03967367502627894,colour,0.5
106,19,1,1,4,49,199,266.7069739084691,267.27186317474116,"[14, 0, 240]",240,a,0.041614941554144025,colour,0.5
106,19,1,1,4,50,200,267.7850963976816,268.39184833463514,"[75, 0, 179]",179,l,0.0833641845965758,colour,0.5
106,19,1,1,5,1,201,272.8937880258309,273.4238238972612,"[54, 0, 200]",200,a,0.005867910338565707,colour,0.4
106,19,1,1,5,2,202,273.9415753206704,274.4878431579564,"[42, 0, 212]",212,a,0.022956097207497805,colour,0.4
106,19,1,1,5,3,203,275.0039412160986,275.6637950047734,"[24, 0, 230]",230,a,0.13676417770329863,colour,0.4
106,19,1,1,5,4,204,276.17585653607966,276.7837904046173,"[18, 0, 236]",236,a,0.08456856542034075,colour,0.4
106,19,1,1,5,5,205,277.3009301853017,278.0157967660343,"[80, 0, 174]",174,l,0.1915973760187626,colour,0.4
106,19,1,1,5,6,206,278.53526063147,279.1598049517488,"[22, 0, 232]",232,a,0.10124872787855566,colour,0.4
106,19,1,1,5,7,207,279.67593294219114,280.3358296600636,"[13, 0, 241]",241,a,0.13667004852322862,colour,0.4
106,19,1,1,5,8,208,280.8477049022331,281.44784889230505,"[85, 0, 169]",169,l,0.07684012688696384,colour,0.4
106,19,1,1,5,9,209,281.95716374221956,282.5917991826427,"[35, 0, 219]",219,a,0.11165846936637536,colour,0.4
106,19,1,1,5,10,210,283.1133390099276,283.7197931993869,"[61, 0, 193]",193,a,0.08306604326935485,colour,0.4
106,19,1,1,5,11,211,284.2383610653342,284.9517991669127,"[43, 0, 211]",211,a,0.1904371059499681,colour,0.4
106,19,1,1,5,12,212,285.4726580345887,286.119827227667,"[20, 0, 234]",234,a,0.12374914536485448,colour,0.4
106,19,1,1,5,13,213,286.62902707449393,287.2717737717321,"[39, 0, 215]",215,a,0.11944834789028391,colour,0.4
106,19,1,1,5,14,214,287.7851728037931,288.39980480994564,"[32, 0, 222]",222,a,0.09130214917240664,colour,0.4
106,19,1,1,5,15,215,288.9034734846791,289.57580746291205,"[88, 0, 166]",166,l,0.14821170322829857,colour,0.4
106,19,1,1,5,16,216,290.09192048723344,290.72782253613696,"[62, 0, 192]",192,a,0.11256431502988562,colour,0.4
106,19,1,1,5,17,217,291.2481217487948,291.83177225937834,"[84, 0, 170]",170,l,0.06028599519049749,colour,0.4
106,19,1,1,5,18,218,292.3419122164487,293.0637758638477,"[98, 0, 156]",156,l,0.19848101504612714,colour,0.4
106,19,1,1,5,19,219,293.5762347857235,294.12781442294363,"[60, 0, 194]",194,a,0.028946099861059338,colour,0.4
106,19,1,1,5,20,220,294.6379260231042,295.2877836084226,"[3, 0, 251]",251,a,0.12670968513702974,colour,0.4
106,19,1,1,5,21,221,295.79412019543815,296.423772697337,"[66, 0, 188]",188,a,0.10632776492275298,colour,0.4
106,19,1,1,5,22,222,296.93478187237633,297.4957791532506,"[36, 0, 218]",218,a,0.03761779930209741,colour,0.4
106,19,1,1,5,23,223,298.01289490930503,298.5677726122667,"[72, 0, 182]",182,l,0.03153091063722968,colour,0.4
106,19,1,1,5,24,224,299.07542622002074,299.61575604235986,"[70, 0, 184]",184,l,0.01689402078045532,colour,0.4
106,19,1,1,5,25,225,300.12227970617823,300.71977783937473,"[81, 0, 173]",173,l,0.07439434377010912,colour,0.4
106,19,1,1,5,26,226,301.2316239369684,302.3277672401746,"[91, 0, 163]",163,l,0.5804461801308207,colour,0.4
106,19,1,1,5,27,227,302.84904594760155,303.4397663863492,"[58, 0, 196]",196,a,0.06822120281867683,colour,0.4
106,19,1,1,5,28,228,303.945965521154,304.52776810666546,"[87, 0, 167]",167,l,0.05589658237295225,colour,0.4
106,19,1,1,5,29,229,305.0426755686058,305.663828087796,"[94, 0, 160]",160,l,0.09783880988834426,colour,0.4
106,19,1,1,5,30,230,306.1832419348066,306.7277551884763,"[10, 0, 244]",244,a,0.02111211058218032,colour,0.4
106,19,1,1,5,31,231,307.2456657256116,307.91178166441387,"[52, 0, 202]",202,a,0.1397432282101363,colour,0.4
106,19,1,1,5,32,232,308.42053370847134,308.983800329559,"[95, 0, 159]",159,l,0.04011911479756236,colour,0.4
106,19,1,1,5,33,233,309.4987196068978,310.1117431462626,"[50, 0, 204]",204,a,0.08971691929036751,colour,0.4
106,19,1,1,5,34,234,310.6236483207904,311.2637893333449,"[71, 0, 183]",183,a,0.11675168486544862,colour,0.4
106,19,1,1,5,35,235,311.7799815207254,312.48780416720547,"[45, 0, 209]",209,a,0.18445576797239482,colour,0.4
106,19,1,1,5,36,236,312.9987373299664,313.6077885393752,"[86, 0, 168]",168,l,0.08580090932082385,colour,0.4
106,19,1,1,5,37,237,314.1236672253581,314.82375788869103,"[75, 0, 179]",179,l,0.1767304801614955,colour,0.4
106,19,1,1,5,38,238,315.3424825053662,315.97584306658246,"[38, 0, 216]",216,a,0.11007363343378529,colour,0.4
106,19,1,1,5,39,239,316.48508544877404,317.071741397609,"[76, 0, 178]",178,a,0.06337414105655625,colour,0.4
106,19,1,1,5,40,240,317.57880935649155,318.2957589883008,"[90, 0, 164]",164,l,0.19374107936164364,colour,0.4
106,19,1,1,5,41,241,318.813154768839,319.47195738268783,"[7, 0, 247]",247,a,0.1355499507044442,colour,0.4
106,19,1,1,5,42,242,319.9725115239271,320.64779107575305,"[99, 0, 155]",155,l,0.15221002703765407,colour,0.4
106,19,1,1,5,43,243,321.1599995116121,321.74378511135,"[51, 0, 203]",203,a,0.060507336573209614,colour,0.4
106,19,1,1,5,44,244,322.2537545331288,322.8957757661701,"[11, 0, 243]",243,a,0.11887057591229677,colour,0.4
106,19,1,1,5,45,245,323.4099873023806,324.05586980079534,"[31, 0, 223]",223,a,0.12255933682899922,colour,0.4
106,19,1,1,5,46,246,324.5662720592809,325.11176598933525,"[4, 0, 250]",250,a,0.022112085425760597,colour,0.4
106,19,1,1,5,47,247,325.6287407485652,326.279781447025,"[89, 0, 165]",165,l,0.1277415615040809,colour,0.4
106,19,1,1,5,48,248,326.8005855701049,327.3677737149992,"[21, 0, 233]",233,a,0.04381023871246725,colour,0.4
106,19,1,1,5,49,249,327.8787309023901,328.471765579714,"[57, 0, 197]",197,a,0.06962683884194121,colour,0.4
106,19,1,1,5,50,250,328.9881515392917,329.6078086255002,"[74, 0, 180]",180,l,0.09635716152843088,colour,0.4
106,19,1,1,6,1,251,339.1811450991081,340.05572210857645,"[76, 0, 178]",178,l,0.3566924661863595,colour,0.28
106,19,1,1,6,2,252,340.56611609627726,341.56777851993684,"[42, 0, 212]",212,a,0.4783833727706224,colour,0.28
106,19,1,1,6,3,253,342.0816718286369,342.74379574519116,"[68, 0, 186]",186,a,0.13876491494011134,colour,0.28
106,19,1,1,6,4,254,343.25352689018473,343.8797226063907,"[94, 0, 160]",160,l,0.10295644379220903,colour,0.28
106,19,1,1,6,5,255,344.38166229758644,344.9677644990152,"[64, 0, 190]",190,a,0.06269987678388134,colour,0.28
106,19,1,1,6,6,256,345.47541613760404,346.0397937980015,"[7, 0, 247]",247,a,0.040922166605014354,colour,0.28
106,19,1,1,6,7,257,346.5536000667489,347.1277262014337,"[66, 0, 188]",188,a,0.05098374834051356,colour,0.28
106,19,1,1,6,8,258,347.64734327292535,348.19177303131437,"[5, 0, 249]",249,a,0.021025858353823423,colour,0.28
106,19,1,1,6,9,259,348.70979857142083,349.3437353292247,"[77, 0, 177]",177,l,0.11064352846005931,colour,0.28
106,19,1,1,6,10,260,349.8410819892306,350.5117610268644,"[98, 0, 156]",156,l,0.1473121591261588,colour,0.28
106,19,1,1,6,11,261,351.02866607537726,351.61572020238964,"[63, 0, 191]",191,a,0.06368527928134426,colour,0.28
106,19,1,1,6,12,262,352.1226006906363,352.76776402641553,"[70, 0, 184]",184,a,0.12205166945932433,colour,0.28
106,19,1,1,6,13,263,353.27863693074323,353.83974803308956,"[65, 0, 189]",189,a,0.04087136045563966,colour,0.28
106,19,1,1,6,14,264,354.3410674169427,354.96785665897187,"[85, 0, 169]",169,l,0.1033790404908359,colour,0.28
106,19,1,1,6,15,265,355.481690496963,356.11175259854645,"[36, 0, 218]",218,a,0.10672239848645404,colour,0.28
106,19,1,1,6,16,266,356.62235453689937,357.2957676529186,"[13, 0, 241]",241,a,0.15009940671734512,colour,0.28
106,19,1,1,6,17,267,357.7974328334676,358.41574611741817,"[51, 0, 203]",203,a,0.09495822078315541,colour,0.28
106,19,1,1,6,18,268,358.92249663651455,359.5117696914822,"[91, 0, 163]",163,l,0.0659191733575426,colour,0.28
106,19,1,1,6,19,269,360.03191569802584,360.6479876048397,"[12, 0, 242]",242,a,0.09288028971059248,colour,0.28
106,19,1,1,6,20,270,361.1568093596725,361.8397271592985,"[39, 0, 215]",215,a,0.15949657041346654,colour,0.28
106,19,1,1,6,21,271,362.3599007350276,362.96775071439333,"[90, 0, 164]",164,l,0.08434722397942096,colour,0.28
106,19,1,1,6,22,272,363.4849728088593,364.15173347340897,"[88, 0, 166]",166,l,0.14348870288813487,colour,0.28
106,19,1,1,6,23,273,364.67244425503304,365.2477385366801,"[15, 0, 239]",239,a,0.04902869719080627,colour,0.28
106,19,1,1,6,24,274,365.7690775025403,366.36779183190083,"[93, 0, 161]",161,l,0.07540022622561082,colour,0.28
106,19,1,1,6,25,275,366.8784607240814,367.53577223728644,"[78, 0, 176]",176,l,0.13409350847359747,colour,0.28
106,19,1,1,6,26,276,368.05026497953804,368.71171620721,"[87, 0, 167]",167,l,0.13802763540297747,colour,0.28
106,19,1,1,6,27,277,369.22212870564545,369.8397531530936,"[49, 0, 205]",205,a,0.09420400584349409,colour,0.28
106,19,1,1,6,28,278,370.3471968410304,370.9037444507121,"[48, 0, 206]",206,a,0.03323074959916994,colour,0.28
106,19,1,1,6,29,279,371.4254000686924,371.9758194357855,"[57, 0, 197]",197,a,0.026981990202330053,colour,0.28
106,19,1,1,6,30,280,372.48787860403536,373.1037275940762,"[55, 0, 199]",199,a,0.09259002527687699,colour,0.28
106,19,1,1,6,31,281,373.6129223209573,374.2237344154855,"[92, 0, 162]",162,l,0.08743497601244599,colour,0.28
106,19,1,1,6,32,282,374.73790420405567,375.3197930417955,"[16, 0, 238]",238,a,0.05878859292715788,colour,0.28
106,19,1,1,6,33,283,375.8192341744434,376.39176405163016,"[52, 0, 202]",202,a,0.04924491862766445,colour,0.28
106,19,1,1,6,34,284,376.9129135775729,377.4959910423495,"[27, 0, 227]",227,a,0.05974130623508245,colour,0.28
106,19,1,1,6,35,285,378.00669222988654,378.59177043189993,"[40, 0, 214]",214,a,0.06244742154376581,colour,0.28
106,19,1,1,6,36,286,379.10046182369115,379.65571525570704,"[86, 0, 168]",168,l,0.03194838733179495,colour,0.28
106,19,1,1,6,37,287,380.16305181750795,380.8557236052002,"[97, 0, 157]",157,l,0.1692875799490139,colour,0.28
106,19,1,1,6,38,288,381.3661774575012,381.89572929235874,"[71, 0, 183]",183,a,0.006285780924372375,colour,0.28
106,19,1,1,6,39,289,382.4130179467611,382.99970934167504,"[95, 0, 159]",159,l,0.06337847333634272,colour,0.28
106,19,1,1,6,40,290,383.5086768194451,384.5997532948968,"[74, 0, 180]",180,a,0.566823837463744,colour,0.28
106,19,1,1,6,41,291,385.1190253573586,385.79975061671576,"[60, 0, 194]",194,a,0.16986417036969215,colour,0.28
106,19,1,1,6,42,292,386.30974445701577,386.895696603111,"[50, 0, 204]",204,a,0.06259905220940709,colour,0.28
106,19,1,1,6,43,293,387.4034797862405,388.007697718509,"[99, 0, 155]",155,l,0.0809495152789168,colour,0.28
106,19,1,1,6,44,294,388.52844473393634,389.0878209450166,"[69, 0, 185]",185,a,0.03604123409604654,colour,0.28
106,19,1,1,6,45,295,389.6066432354273,390.2157550971606,"[59, 0, 195]",195,a,0.08586786314845085,colour,0.28
106,19,1,1,6,46,296,390.7315715554869,391.27172414714005,"[84, 0, 170]",170,l,0.016979485342744738,colour,0.28
106,19,1,1,6,47,297,391.7784695462324,392.7997210783069,"[72, 0, 182]",182,a,0.49791931197978556,colour,0.28
106,19,1,1,6,48,298,393.3104927642271,393.8796934618149,"[89, 0, 165]",165,l,0.04670303699094802,colour,0.28
106,19,1,1,6,49,299,394.3878244108637,394.9277162765502,"[1, 0, 253]",253,a,0.01671915320912376,colour,0.28
106,19,1,1,6,50,300,395.4346940446994,396.4398041955428,"[58, 0, 196]",196,a,0.4819169583497569,colour,0.28
106,19,1,1,7,1,301,401.6842848387896,402.7357608945458,"[71, 0, 183]",183,a,0.5274041930679232,colour,0.14
106,19,1,1,7,2,302,403.24109159910586,403.7677116448758,"[51, 0, 203]",203,a,0.0015738082583993673,colour,0.14
106,19,1,1,7,3,303,404.28966225346085,404.8717901557102,"[86, 0, 168]",168,l,0.05884373135631904,colour,0.14
106,19,1,1,7,4,304,405.3834712319076,406.35173000756186,"[56, 0, 198]",198,a,0.444969484815374,colour,0.14
106,19,1,1,7,5,305,406.868582674535,407.5277074543992,"[61, 0, 193]",193,a,0.1358512428123504,colour,0.14
106,19,1,1,7,6,306,408.0404404930305,408.7757567355293,"[75, 0, 179]",179,a,0.21080563543364406,colour,0.14
106,19,1,1,7,7,307,409.2916413292405,409.9677144805901,"[87, 0, 167]",167,l,0.15276771283242851,colour,0.14
106,19,1,1,7,8,308,410.47911277541425,411.1597450871486,"[12, 0, 242]",242,a,0.15723943943157792,colour,0.14
106,19,1,1,7,9,309,411.6665913108154,412.3117574034841,"[30, 0, 224]",224,a,0.12178700498770922,colour,0.14
106,19,1,1,7,10,310,412.82283668307355,413.56010443216655,"[53, 0, 201]",201,a,0.21397609513951465,colour,0.14
106,19,1,1,7,11,311,414.07283668307355,414.719749876298,"[59, 0, 195]",195,a,0.1235388315981254,colour,0.14
106,19,1,1,7,12,312,415.2290942646214,415.7917303384165,"[54, 0, 200]",200,a,0.03935190290212631,colour,0.14
106,19,1,1,7,13,313,416.3071986369323,417.031684116635,"[98, 0, 156]",156,l,0.20122769649606198,colour,0.14
106,19,1,1,7,14,314,417.54159367387183,418.08773981273407,"[57, 0, 197]",197,a,0.022841881844215095,colour,0.14
106,19,1,1,7,15,315,418.60408520617057,419.30375051591545,"[97, 0, 157]",157,l,0.17659381567500532,colour,0.14
106,19,1,1,7,16,316,419.82279769238085,420.4396876171231,"[34, 0, 220]",220,a,0.09357267082668841,colour,0.14
106,19,1,1,7,17,317,420.94774216006044,421.599675313395,"[24, 0, 230]",230,a,0.12842252105474472,colour,0.14
106,19,1,1,7,18,318,422.11977484612726,422.7277039885521,"[58, 0, 196]",196,a,0.08473476843209937,colour,0.14
106,19,1,1,7,19,319,423.2448217138299,423.8557106083026,"[42, 0, 212]",212,a,0.08765907440101728,colour,0.14
106,19,1,1,7,20,320,424.36986464302754,424.92772887961473,"[73, 0, 181]",181,a,0.03471200412604958,colour,0.14
106,19,1,1,7,21,321,425.44793356920127,426.00772607541876,"[95, 0, 159]",159,l,0.036600889172405005,colour,0.14
106,19,1,1,7,22,322,426.5260336092324,427.1516960580484,"[16, 0, 238]",238,a,0.1023861548746936,colour,0.14
106,19,1,1,7,23,323,427.66662833228474,428.3357398631633,"[81, 0, 173]",173,l,0.1457781292265281,colour,0.14
106,19,1,1,7,24,324,428.8541746091796,429.88777399860555,"[4, 0, 250]",250,a,0.5105341968592256,colour,0.14
106,19,1,1,7,25,325,430.40099855692824,431.0557095055119,"[94, 0, 160]",160,l,0.13141023617936298,colour,0.14
106,19,1,1,7,26,326,431.57425728533417,432.19171592366183,"[66, 0, 188]",188,a,0.09410672594094649,colour,0.14
106,19,1,1,7,27,327,432.6992974576424,433.4077352914028,"[70, 0, 184]",184,a,0.1855475088232197,colour,0.14
106,19,1,1,7,28,328,433.91917769698193,434.5037100285408,"[63, 0, 191]",191,a,0.06124540377641097,colour,0.14
106,19,1,1,7,29,329,435.0130256661214,435.95170976390364,"[68, 0, 186]",186,a,0.4152581423986703,colour,0.14
106,19,1,1,7,30,330,436.4661654845695,437.15968089026865,"[96, 0, 158]",158,l,0.17025329021271318,colour,0.14
106,19,1,1,7,31,331,437.66933996148873,438.511669654632,"[79, 0, 175]",175,l,0.3191467407159507,colour,0.14
106,19,1,1,7,32,332,439.03073100949405,439.58374739665305,"[52, 0, 202]",202,a,0.02958531177137047,colour,0.14
106,19,1,1,7,33,333,440.0932205726276,440.879699369485,"[60, 0, 194]",194,a,0.263106404512655,colour,0.14
106,19,1,1,7,34,334,441.39017015718855,442.01568570150994,"[92, 0, 162]",162,l,0.10221601347438991,colour,0.14
106,19,1,1,7,35,335,442.53122686152346,443.17574507766403,"[84, 0, 170]",170,l,0.12113991612568498,colour,0.14
106,19,1,1,7,36,336,443.6875387937762,444.35971759667154,"[78, 0, 176]",176,l,0.14910297648748383,colour,0.14
106,19,1,1,7,37,337,444.87503071996616,445.4157118528383,"[93, 0, 161]",161,l,0.017463915806729347,colour,0.14
106,19,1,1,7,38,338,445.92183851997834,446.55973736778833,"[82, 0, 172]",172,l,0.11481041833758354,colour,0.14
106,19,1,1,7,39,339,447.0781398184481,447.67167980008526,"[77, 0, 177]",177,a,0.07036451227031648,colour,0.14
106,19,1,1,7,40,340,448.18744939076714,448.72771107777953,"[85, 0, 169]",169,l,0.017115362221375108,colour,0.14
106,19,1,1,7,41,341,449.2343146923231,449.79969587217784,"[67, 0, 187]",187,a,0.041957981360610574,colour,0.14
106,19,1,1,7,42,342,450.3246688543004,451.343727452273,"[62, 0, 192]",192,a,0.49236608447972685,colour,0.14
106,19,1,1,7,43,343,451.85938755382085,452.44770868320484,"[76, 0, 178]",178,a,0.06494794937316328,colour,0.14
106,19,1,1,7,44,344,452.9687262707739,454.1117167585762,"[69, 0, 185]",185,a,0.61993553530192,colour,0.14
106,19,1,1,7,45,345,454.624995667662,455.3436683753971,"[88, 0, 166]",166,l,0.19533221691381186,colour,0.14
106,19,1,1,7,46,346,455.8599483903963,456.6876447383547,"[55, 0, 199]",199,a,0.30420974030857906,colour,0.14
106,19,1,1,7,47,347,457.205441454018,457.9356703887461,"[99, 0, 155]",155,l,0.20688214240362868,colour,0.14
106,19,1,1,7,48,348,458.4555592139368,459.21569680795074,"[91, 0, 163]",163,l,0.23691880161641166,colour,0.14
106,19,1,1,7,49,349,459.7367963154684,460.4637271845131,"[89, 0, 165]",165,l,0.20365260588005185,colour,0.14
106,19,1,1,7,50,350,460.9711889892933,461.58368950133445,"[74, 0, 180]",180,a,0.08961255016038194,colour,0.14
106,19,1,1,8,1,351,465.8064920773613,466.55169227713486,"[95, 0, 159]",159,l,0.22102554328739643,colour,0.06
106,19,1,1,8,2,352,467.0729197845794,467.82366336567793,"[81, 0, 173]",173,l,0.22804348374484107,colour,0.06
106,19,1,1,8,3,353,468.3385357753723,469.0716693237773,"[52, 0, 202]",202,a,0.20859970443416387,colour,0.06
106,19,1,1,8,4,354,469.59031005122233,470.2556993443286,"[41, 0, 213]",213,a,0.14212560222949833,colour,0.06
106,19,1,1,8,5,355,470.76212848513387,471.3916821316816,"[54, 0, 200]",200,a,0.10622930340468884,colour,0.06
106,19,1,1,8,6,356,471.90373381687095,472.6156741224113,"[61, 0, 193]",193,a,0.18876523000653833,colour,0.06
106,19,1,1,8,7,357,473.1224104630528,473.74375242210226,"[50, 0, 204]",204,a,0.09787189291091636,colour,0.06
106,19,1,1,8,8,358,474.2630792291602,474.98365933273453,"[91, 0, 163]",163,l,0.1971041297656484,colour,0.06
106,19,1,1,8,9,359,475.49748647533124,476.2476774905808,"[94, 0, 160]",160,l,0.22684422292513773,colour,0.06
106,19,1,1,8,10,360,476.76438758533914,477.479670461209,"[88, 0, 166]",166,l,0.19192308658966795,colour,0.06
106,19,1,1,8,11,361,477.9988377606496,478.63967351743486,"[85, 0, 169]",169,l,0.11751574592199177,colour,0.06
106,19,1,1,8,12,362,479.154905508447,479.7679637062829,"[28, 0, 226]",226,a,0.09001545450882986,colour,0.06
106,19,1,1,8,13,363,480.27995749615366,480.96769990830217,"[57, 0, 197]",197,a,0.16459490585839376,colour,0.06
106,19,1,1,8,14,364,481.4831745083793,482.03165457822615,"[80, 0, 174]",174,a,0.022264897648710757,colour,0.06
106,19,1,1,8,15,365,482.5504969547619,483.11973152309656,"[65, 0, 189]",189,a,0.045788526826072484,colour,0.06
106,19,1,1,8,16,366,483.62858360400423,484.2236595847644,"[90, 0, 164]",164,l,0.07168625917984173,colour,0.06
106,19,1,1,8,17,367,484.74012667656643,485.31169044971466,"[78, 0, 176]",176,l,0.04704607685562223,colour,0.06
106,19,1,1,8,18,368,485.81934011902194,486.4476385785965,"[68, 0, 186]",186,a,0.10493315645726398,colour,0.06
106,19,1,1,8,19,369,486.96003015281167,487.49603278998984,"[69, 0, 185]",185,a,0.012661752523854375,colour,0.06
106,19,1,1,8,20,370,488.00889619166264,488.59167827194324,"[62, 0, 192]",192,a,0.05787526426138356,colour,0.06
106,19,1,1,8,21,371,489.104096627736,489.7277532192529,"[76, 0, 178]",178,a,0.10057052515912801,colour,0.06
106,19,1,1,8,22,372,490.24471576925134,490.8316418963368,"[63, 0, 191]",191,a,0.06365140853449702,colour,0.06
106,19,1,1,8,23,373,491.33842746773735,492.5916601550416,"[73, 0, 181]",181,a,0.7298169719288126,colour,0.06
106,19,1,1,8,24,374,493.1040698462166,493.8397153439,"[92, 0, 162]",162,l,0.2125129575142637,colour,0.06
106,19,1,1,8,25,375,494.3541045046295,494.93563139799517,"[77, 0, 177]",177,l,0.05841877165948972,colour,0.06
106,19,1,1,8,26,376,495.44011809071526,496.03968115808675,"[60, 0, 194]",194,a,0.07626668724697083,colour,0.06
106,19,1,1,8,27,377,496.5494308138732,497.59962490113685,"[70, 0, 184]",184,a,0.5268906179699115,colour,0.06
106,19,1,1,8,28,378,498.1119223461719,498.78363641089527,"[86, 0, 168]",168,l,0.14832316164392978,colour,0.06
106,19,1,1,8,29,379,499.2895929365768,500.21570035256445,"[59, 0, 195]",195,a,0.40273974975571036,colour,0.06
106,19,1,1,8,30,380,500.72703681356506,501.5356828342774,"[89, 0, 165]",165,l,0.28509954846231267,colour,0.06
106,19,1,1,8,31,381,502.0560840530088,502.75166675593937,"[96, 0, 158]",158,l,0.17232413205783814,colour,0.06
106,19,1,1,8,32,382,503.2591722776415,503.99168945720885,"[84, 0, 170]",170,l,0.20915581489680335,colour,0.06
106,19,1,1,8,33,383,504.50918527453905,505.11164586630184,"[98, 0, 156]",156,l,0.07911025476641953,colour,0.06
106,19,1,1,8,34,384,505.61847791151376,506.23166214005323,"[79, 0, 175]",175,l,0.08981892542215064,colour,0.06
106,19,1,1,8,35,385,506.7434412838775,507.4476326709264,"[71, 0, 183]",183,a,0.18082214548485354,colour,0.06
106,19,1,1,8,36,386,507.962250262266,508.5996276580263,"[53, 0, 201]",201,a,0.11406289873411879,colour,0.06
106,19,1,1,8,37,387,509.1186602622038,509.81571791809984,"[10, 0, 244]",244,a,0.1743335339706391,colour,0.06
106,19,1,1,8,38,388,510.32185088674305,511.02367486600997,"[72, 0, 182]",182,a,0.17847206688020378,colour,0.06
106,19,1,1,8,39,389,511.54054486216046,512.1916698436835,"[74, 0, 180]",180,a,0.1275670877075754,colour,0.06
106,19,1,1,8,40,390,512.712472785206,513.3116739081452,"[97, 0, 157]",157,l,0.07589017052669078,colour,0.06
106,19,1,1,8,41,391,513.8218430098495,514.4556706722942,"[83, 0, 171]",171,l,0.11047023622086272,colour,0.06
106,19,1,1,8,42,392,514.9624018929317,515.679627610778,"[87, 0, 167]",167,l,0.1938198485877365,colour,0.06
106,19,1,1,8,43,393,516.1968083513784,516.7836427123984,"[75, 0, 179]",179,a,0.063463150174357,colour,0.06
106,19,1,1,8,44,394,517.290606695984,517.95167195471,"[93, 0, 161]",161,l,0.13638096558861434,colour,0.06
106,19,1,1,8,45,395,518.4638071351801,519.4076549468446,"[51, 0, 203]",203,a,0.4205482807592489,colour,0.06
106,19,1,1,8,46,396,519.9192269276828,520.5596263032057,"[56, 0, 198]",198,a,0.1171014200663194,colour,0.06
106,19,1,1,8,47,397,521.0754498508177,521.7677010110347,"[66, 0, 188]",188,a,0.16895596170797944,colour,0.06
106,19,1,1,8,48,398,522.27860069694,522.8156450566021,"[64, 0, 190]",190,a,0.01386298262514174,colour,0.06
106,19,1,1,8,49,399,523.3254443369224,523.9996608986403,"[67, 0, 187]",187,a,0.15085716627072543,colour,0.06
106,19,1,1,8,50,400,524.5129425646155,525.5116783192498,"[55, 0, 199]",199,a,0.47543976840097457,colour,0.06
106,19,1,1,9,1,401,529.8894163360819,530.6636642478989,"[88, 0, 166]",166,l,0.25018983375048265,colour,0.06
106,19,1,1,9,2,402,531.1714769694372,532.0716252130223,"[86, 0, 168]",168,l,0.3769452049746178,colour,0.06
106,19,1,1,9,3,403,532.5778152893763,533.1916269144858,"[83, 0, 171]",171,l,0.09064048802247271,colour,0.06
106,19,1,1,9,4,404,533.7027215540875,534.3596510367352,"[82, 0, 172]",172,l,0.13365240104030818,colour,0.06
106,19,1,1,9,5,405,534.8745423509972,535.5996382918674,"[80, 0, 174]",174,l,0.2016912531107664,colour,0.06
106,19,1,1,9,6,406,536.1089318740997,536.6476425958099,"[87, 0, 167]",167,l,0.016144138120580465,colour,0.06
106,19,1,1,9,7,407,537.1557688187459,537.9116965936846,"[98, 0, 156]",156,l,0.23248882265761495,colour,0.06
106,19,1,1,9,8,408,538.4215191109688,539.0476462979568,"[60, 0, 194]",194,a,0.10297574219293892,colour,0.06
106,19,1,1,9,9,409,539.5620933540631,540.0956888049841,"[91, 0, 163]",163,l,0.010285680065862834,colour,0.06
106,19,1,1,9,10,410,540.600149503909,541.543674361892,"[76, 0, 178]",178,a,0.4202115425723605,colour,0.06
106,19,1,1,9,11,411,542.0550407551345,542.6396691851551,"[85, 0, 169]",169,l,0.06115245615364984,colour,0.06
106,19,1,1,9,12,412,543.1488001089892,544.0636529839248,"[59, 0, 195]",195,a,0.39147418102947995,colour,0.06
106,19,1,1,9,13,413,544.5706567459274,545.3196225065622,"[75, 0, 179]",179,a,0.22589938656892627,colour,0.06
106,19,1,1,9,14,414,545.8362703736057,546.5036513454979,"[10, 0, 244]",244,a,0.1441259456332773,colour,0.06
106,19,1,1,9,15,415,547.0237815982546,547.6236526530702,"[52, 0, 202]",202,a,0.07673772698035464,colour,0.06
106,19,1,1,9,16,416,548.133142370556,548.8076779474504,"[55, 0, 199]",199,a,0.15114821842871606,colour,0.06
106,19,1,1,9,17,417,549.3206268136273,549.89565170469,"[73, 0, 181]",181,a,0.05182303400943056,colour,0.06
106,19,1,1,9,18,418,550.4036093615578,550.9916351064458,"[95, 0, 159]",159,l,0.06473369710147381,colour,0.06
106,19,1,1,9,19,419,551.5129693461349,552.0796443098225,"[64, 0, 190]",190,a,0.04328366671688855,colour,0.06
106,19,1,1,9,20,420,552.5910619031056,553.1835908822832,"[77, 0, 177]",177,a,0.0691286237561144,colour,0.06
106,19,1,1,9,21,421,553.7004293708014,554.3116557912435,"[70, 0, 184]",184,a,0.08817934483522549,colour,0.06
106,19,1,1,9,22,422,554.8283379229251,555.7356297438382,"[93, 0, 161]",161,l,0.3837788255768828,colour,0.06
106,19,1,1,9,23,423,556.2529581767158,556.7996442783624,"[97, 0, 157]",157,l,0.02344919234747067,colour,0.06
106,19,1,1,9,24,424,557.3154052044265,557.9356164318742,"[8, 0, 246]",246,a,0.09687467507319525,colour,0.06
106,19,1,1,9,25,425,558.4561113858945,559.0955879804096,"[56, 0, 198]",198,a,0.1161837590043433,colour,0.06
106,19,1,1,9,26,426,559.6123055582284,560.1756135331816,"[57, 0, 197]",197,a,0.038067177520133555,colour,0.06
106,19,1,1,9,27,427,560.6923437140649,561.2876335531473,"[61, 0, 193]",193,a,0.0719221729086712,colour,0.06
106,19,1,1,9,28,428,561.801618627971,562.3836291641346,"[72, 0, 182]",182,a,0.05713286472018808,colour,0.06
106,19,1,1,9,29,429,562.8973034945084,563.5116507500061,"[36, 0, 218]",218,a,0.09102448774501681,colour,0.06
106,19,1,1,9,30,430,564.0223779313965,564.5676371292793,"[66, 0, 188]",188,a,0.022030953143257648,colour,0.06
106,19,1,1,9,31,431,565.0847946329741,565.7356289561721,"[81, 0, 173]",173,l,0.12736150017008185,colour,0.06
106,19,1,1,9,32,432,566.2566217314452,567.2716075687786,"[58, 0, 196]",196,a,0.49161659576930106,colour,0.06
106,19,1,1,9,33,433,567.7879210606334,568.4636275414377,"[51, 0, 203]",203,a,0.15258260519476607,colour,0.06
106,19,1,1,9,34,434,568.9753747837385,569.5836071874946,"[65, 0, 189]",189,a,0.0850845035747625,colour,0.06
106,19,1,1,9,35,435,570.1004346483387,570.6716404155013,"[79, 0, 175]",175,l,0.04787984862923622,colour,0.06
106,19,1,1,9,36,436,571.1785319314222,571.7675958541804,"[99, 0, 155]",155,l,0.06628033006563783,colour,0.06
106,19,1,1,9,37,437,572.2879261806374,572.8156170935254,"[89, 0, 165]",165,l,0.0046182372607290745,colour,0.06
106,19,1,1,9,38,438,573.33476548834,573.9836770558031,"[90, 0, 164]",164,l,0.12555335357319564,colour,0.06
106,19,1,1,9,39,439,574.4921360784792,575.1516188642709,"[67, 0, 187]",187,a,0.13597530429251492,colour,0.06
106,19,1,1,9,40,440,575.6641010230524,576.2476128998678,"[62, 0, 192]",192,a,0.06011821678839624,colour,0.06
106,19,1,1,9,41,441,576.757850530732,577.2876107100747,"[74, 0, 180]",180,a,0.0062838117009960115,colour,0.06
106,19,1,1,9,42,442,577.8047938137897,578.4156303267227,"[94, 0, 160]",160,l,0.08777171425754204,colour,0.06
106,19,1,1,9,43,443,578.9297335553565,579.5196103760973,"[84, 0, 170]",170,l,0.06642053922405466,colour,0.06
106,19,1,1,9,44,444,580.0390604569111,580.5996438057045,"[68, 0, 186]",186,a,0.037179054925218225,colour,0.06
106,19,1,1,9,45,445,581.1191884095897,581.647652441985,"[96, 0, 158]",158,l,0.005098729277960956,colour,0.06
106,19,1,1,9,46,446,582.1660249603447,582.75161594979,"[54, 0, 200]",200,a,0.06607198558049276,colour,0.06
106,19,1,1,9,47,447,583.2723846267327,583.8316017240868,"[71, 0, 183]",183,a,0.03592820034828037,colour,0.06
106,19,1,1,9,48,448,584.352318807214,584.8956044432125,"[69, 0, 185]",185,a,0.01989591441815719,colour,0.06
106,19,1,1,9,49,449,585.4148446041509,586.4876021242235,"[78, 0, 176]",176,a,0.5493662231601775,colour,0.06
106,19,1,1,9,50,450,587.0086520071491,587.6236034223693,"[63, 0, 191]",191,a,0.09166606276994571,colour,0.06
106,19,1,1,10,1,451,613.5873369083856,614.431564545026,"[86, 0, 168]",168,l,0.3202400569571182,colour,0.06
106,19,1,1,10,2,452,614.9494951682864,615.6156201655394,"[97, 0, 157]",157,l,0.1429235340328887,colour,0.06
106,19,1,1,10,3,453,616.1369481036672,616.6796295800013,"[66, 0, 188]",188,a,0.019380763929802924,colour,0.06
106,19,1,1,10,4,454,617.1993915868225,617.7756165263709,"[85, 0, 169]",169,l,0.05296164256287739,colour,0.06
106,19,1,1,10,5,455,618.2931261283229,618.9115678060916,"[70, 0, 184]",184,l,0.09503817156655714,colour,0.06
106,19,1,1,10,6,456,619.4182360113482,620.3355744478758,"[52, 0, 202]",202,a,0.3941050717839971,colour,0.06
106,19,1,1,10,7,457,620.8556909160106,621.4555741800577,"[64, 0, 190]",190,a,0.07653765322174877,colour,0.06
106,19,1,1,10,8,458,621.9650327836862,622.5516001171782,"[53, 0, 201]",201,a,0.0632433841819875,colour,0.06
106,19,1,1,10,9,459,623.0587192760431,623.6475567374146,"[87, 0, 167]",167,l,0.0654150506015867,colour,0.06
106,19,1,1,10,10,460,624.1681225837092,624.7356009930954,"[59, 0, 195]",195,a,0.044476626033429056,colour,0.06
106,19,1,1,10,11,461,625.2463443221641,625.8475741454167,"[65, 0, 189]",189,a,0.07801063702208921,colour,0.06
106,19,1,1,10,12,462,626.3556215991266,626.9435587287298,"[95, 0, 159]",159,l,0.06469628179911524,colour,0.06
106,19,1,1,10,13,463,627.4649886729894,628.0636006023851,"[61, 0, 193]",193,a,0.07519818324362859,colour,0.06
106,19,1,1,10,14,464,628.5743455068441,629.1595989703201,"[80, 0, 174]",174,l,0.06187752651749179,colour,0.06
106,19,1,1,10,15,465,629.6681489713956,630.2396040430176,"[75, 0, 179]",179,a,0.0481401807628572,colour,0.06
106,19,1,1,10,16,466,630.7462316821911,631.3035886452417,"[91, 0, 163]",163,l,0.03400898911058903,colour,0.06
106,19,1,1,10,17,467,631.8243175437674,632.407617925317,"[94, 0, 160]",160,l,0.059804715448990464,colour,0.06
106,19,1,1,10,18,468,632.9181107683689,633.5355709820287,"[92, 0, 162]",162,l,0.09406379674328491,colour,0.06
106,19,1,1,10,19,469,634.0430658699479,634.647548860521,"[77, 0, 177]",177,a,0.08103852445492521,colour,0.06
106,19,1,1,10,20,470,635.1681221898762,635.7435921268188,"[73, 0, 181]",181,a,0.052116449165623635,colour,0.06
106,19,1,1,10,21,471,636.2618441283703,636.791604307713,"[71, 0, 183]",183,a,0.006461042328737676,colour,0.06
106,19,1,1,10,22,472,637.3087996206013,637.8875936171389,"[6, 0, 248]",248,a,0.05546925950329751,colour,0.06
106,19,1,1,10,23,473,638.402533768327,638.9995584986755,"[57, 0, 197]",197,a,0.07375788869103417,colour,0.06
106,19,1,1,10,24,474,639.5136156473309,640.0475757995737,"[68, 0, 186]",186,a,0.010618873755447567,colour,0.06
106,19,1,1,10,25,475,640.5604443211923,641.1595481641707,"[88, 0, 166]",166,l,0.07570900139398873,colour,0.06
106,19,1,1,10,26,476,641.669869684265,642.2635943796486,"[51, 0, 203]",203,a,0.07044958299957216,colour,0.06
106,19,1,1,10,27,477,642.7792753549875,643.3355957155582,"[58, 0, 196]",196,a,0.033005075878463686,colour,0.06
106,19,1,1,10,28,478,643.841735379654,644.9836388527183,"[60, 0, 194]",194,a,0.6185814930358902,colour,0.06
106,19,1,1,10,29,479,645.4912932481966,646.1356413229369,"[81, 0, 173]",173,l,0.120977257785853,colour,0.06
106,19,1,1,10,30,480,646.6475602820283,647.1835511038662,"[78, 0, 176]",176,l,0.012649543292354792,colour,0.06
106,19,1,1,10,31,481,647.6819906863384,648.2715831503156,"[83, 0, 171]",171,l,0.06617714243475348,colour,0.06
106,19,1,1,10,32,482,648.7914030524553,649.3278219847707,"[99, 0, 155]",155,l,0.013037875352893025,colour,0.06
106,19,1,1,10,33,483,649.8383065570379,650.415557465225,"[56, 0, 198]",198,a,0.05412545724539086,colour,0.06
106,19,1,1,10,34,484,650.9320218001376,651.4956153133535,"[76, 0, 178]",178,a,0.04024041933007538,colour,0.06
106,19,1,1,10,35,485,652.0100533109508,652.5440713585704,"[93, 0, 161]",161,l,0.010612178361043334,colour,0.06
106,19,1,1,10,36,486,653.0569985632319,654.0155348585104,"[54, 0, 200]",200,a,0.43518162600230426,colour,0.06
106,19,1,1,10,37,487,654.52573586168,655.1436202474288,"[67, 0, 187]",187,a,0.09441747039090842,colour,0.06
106,19,1,1,10,38,488,655.6507626431994,656.215644426411,"[74, 0, 180]",180,a,0.04157910158392042,colour,0.06
106,19,1,1,10,39,489,656.7289690216421,657.3035461098771,"[82, 0, 172]",172,l,0.05132481892360374,colour,0.06
106,19,1,1,10,40,490,657.8226405478199,658.751591531327,"[84, 0, 170]",170,l,0.40562309575034305,colour,0.06
106,19,1,1,10,41,491,659.2600501601701,659.9195774505497,"[89, 0, 165]",165,l,0.13613323646131903,colour,0.06
106,19,1,1,10,42,492,660.4319698124891,660.9995521971723,"[62, 0, 192]",192,a,0.044208023115061224,colour,0.06
106,19,1,1,10,43,493,661.5100722155767,662.1837082483689,"[50, 0, 204]",204,a,0.15002615138655528,colour,0.06
106,19,1,1,10,44,494,662.6975306647946,663.303541383706,"[72, 0, 182]",182,a,0.08260445576161146,colour,0.06
106,19,1,1,10,45,495,663.8225913171191,664.4635531046079,"[69, 0, 185]",185,a,0.11758073058445007,colour,0.06
106,19,1,1,10,46,496,664.9788705601823,665.5755341338227,"[98, 0, 156]",156,l,0.07359916885616258,colour,0.06
106,19,1,1,10,47,497,666.0882396032102,666.6555372372968,"[55, 0, 199]",199,a,0.041866215236950666,colour,0.06
106,19,1,1,10,48,498,667.1693466568831,667.8156265458092,"[9, 0, 245]",245,a,0.12326156406197697,colour,0.06
106,19,1,1,10,49,499,668.3253246077802,668.9035554046277,"[19, 0, 235]",235,a,0.054841075267177075,colour,0.06
106,19,1,1,10,50,500,669.419129253889,670.0075827154797,"[90, 0, 164]",164,l,0.06507791846524924,colour,0.06
106,19,1,1,11,1,501,674.4495837836294,675.1035684803501,"[89, 0, 165]",165,l,0.1277069030329585,colour,0.06
106,19,1,1,11,2,502,675.6245581048424,676.1675739563652,"[58, 0, 196]",196,a,0.01971001911442727,colour,0.06
106,19,1,1,11,3,503,676.6870370340766,677.2395563877071,"[51, 0, 203]",203,a,0.029311195015907288,colour,0.06
106,19,1,1,11,4,504,677.749377723434,678.4475318463519,"[50, 0, 204]",204,a,0.17475376749644056,colour,0.06
106,19,1,1,11,5,505,678.9681957603316,679.559597552463,"[91, 0, 163]",163,l,0.06841812573838979,colour,0.06
106,19,1,1,11,6,506,680.0774616157287,680.663570906443,"[95, 0, 159]",159,l,0.07504852185957134,colour,0.06
106,19,1,1,11,7,507,681.1745477860677,681.7595700620441,"[53, 0, 201]",201,a,0.06162861594930291,colour,0.06
106,19,1,1,11,8,508,682.2682709061191,683.2315912477789,"[71, 0, 183]",183,a,0.4400787061895244,colour,0.06
106,19,1,1,11,9,509,683.7526289215311,684.3995484162588,"[55, 0, 199]",199,a,0.1235195331973955,colour,0.06
106,19,1,1,11,10,510,684.9088069461868,685.519550117664,"[75, 0, 179]",179,a,0.08731957920826972,colour,0.06
106,19,1,1,11,11,511,686.033838453819,686.6715391970938,"[96, 0, 158]",158,l,0.11434528627432883,colour,0.06
106,19,1,1,11,12,512,687.1901362076751,687.8235723872785,"[25, 0, 229]",229,a,0.11022368870908394,colour,0.06
106,19,1,1,11,13,513,688.3307892199373,688.9115591414738,"[62, 0, 192]",192,a,0.05753104295581579,colour,0.06
106,19,1,1,11,14,514,689.4244418415474,690.0155352523434,"[85, 0, 169]",169,l,0.06772574462229386,colour,0.06
106,19,1,1,11,15,515,690.5338482999941,691.0715716499835,"[61, 0, 193]",193,a,0.014699905121233314,colour,0.06
106,19,1,1,11,16,516,691.580684063083,692.2235847540433,"[86, 0, 168]",168,l,0.11962636624230072,colour,0.06
106,19,1,1,11,17,517,692.7369128938881,693.3835598472506,"[77, 0, 177]",177,l,0.12334466562606394,colour,0.06
106,19,1,1,11,18,518,693.8933161983732,694.5275377067737,"[65, 0, 189]",189,a,0.11095545440912247,colour,0.06
106,19,1,1,11,19,519,695.0338246692554,695.663521675684,"[99, 0, 155]",155,l,0.10634627565741539,colour,0.06
106,19,1,1,11,20,520,696.1744650784531,696.783610810875,"[90, 0, 164]",164,l,0.08575207239482552,colour,0.06
106,19,1,1,11,21,521,697.2871719656978,697.9515624655178,"[66, 0, 188]",188,a,0.14121581811923534,colour,0.06
106,19,1,1,11,22,522,698.4590573533787,699.0955289035337,"[68, 0, 186]",186,a,0.1130448070471175,colour,0.06
106,19,1,1,11,23,523,699.6170809400501,700.1835499223089,"[94, 0, 160]",160,l,0.04318284220062196,colour,0.06
106,19,1,1,11,24,524,700.6951675892924,701.3035480791004,"[81, 0, 173]",173,l,0.08509277435950935,colour,0.06
106,19,1,1,11,25,525,701.8201955523691,702.527602297545,"[82, 0, 172]",172,l,0.18417731893714517,colour,0.06
106,19,1,1,11,26,526,703.0389493923285,703.6875439137802,"[70, 0, 184]",184,a,0.12525796907721087,colour,0.06
106,19,1,1,11,27,527,704.1952333615627,704.8235826272867,"[79, 0, 175]",175,a,0.105090694851242,colour,0.06
106,19,1,1,11,28,528,705.324775586545,705.9355857118499,"[72, 0, 182]",182,a,0.08750704978592694,colour,0.06
106,19,1,1,11,29,529,706.4497389589087,707.1515267043142,"[52, 0, 202]",202,a,0.17851223918842152,colour,0.06
106,19,1,1,11,30,530,707.6685270635062,708.3675421336084,"[73, 0, 181]",181,a,0.17576358845690265,colour,0.06
106,19,1,1,11,31,531,708.8871765343356,709.4555229800753,"[97, 0, 157]",157,l,0.04516152408905327,colour,0.06
106,19,1,1,11,32,532,709.9653234420111,710.5755939984228,"[8, 0, 246]",246,a,0.09937165823066607,colour,0.06
106,19,1,1,11,33,533,711.093553766259,711.7035458735772,"[87, 0, 167]",167,l,0.08671817649155855,colour,0.06
106,19,1,1,11,34,534,712.2185009908862,712.8235558457673,"[83, 0, 171]",171,l,0.08159502875059843,colour,0.06
106,19,1,1,11,35,535,713.3434919324354,714.0555795363616,"[76, 0, 178]",178,l,0.1887782269041054,colour,0.06
106,19,1,1,11,36,536,714.5622749170288,715.2155282418826,"[64, 0, 190]",190,a,0.12992858787765726,colour,0.06
106,19,1,1,11,37,537,715.734136280138,716.4395710387616,"[69, 0, 185]",185,a,0.18198280944488943,colour,0.06
106,19,1,1,11,38,538,716.9528901200974,717.6075514441472,"[92, 0, 162]",162,l,0.13140590389957651,colour,0.06
106,19,1,1,11,39,539,718.1247010709485,718.8635229360079,"[84, 0, 170]",170,l,0.215437657374423,colour,0.06
106,19,1,1,11,40,540,719.3644504431286,720.0555405456107,"[60, 0, 194]",194,a,0.16775709472130984,colour,0.06
106,19,1,1,11,41,541,720.5677363784052,721.2874980701599,"[54, 0, 200]",200,l,0.1966295454185456,colour,0.06
106,19,1,1,11,42,542,721.8019163754652,722.4076313161058,"[59, 0, 195]",195,a,0.08202038233866915,colour,0.06
106,19,1,1,11,43,543,722.9238018419128,723.5675201570266,"[12, 0, 242]",242,a,0.12036364583764225,colour,0.06
106,19,1,1,11,44,544,724.0800669065211,724.967531736067,"[56, 0, 198]",198,a,0.3684491607709788,colour,0.06
106,19,1,1,11,45,545,725.4820611059549,726.1435158782988,"[80, 0, 174]",174,l,0.1383123859995976,colour,0.06
106,19,1,1,11,46,546,726.655577409605,727.3435419508605,"[57, 0, 197]",197,a,0.16460475197527558,colour,0.06
106,19,1,1,11,47,547,727.8587837880477,728.4955081872758,"[63, 0, 191]",191,a,0.11342053610133007,colour,0.06
106,19,1,1,11,48,548,729.0150220710784,729.6395368529484,"[93, 0, 161]",161,l,0.10106243879999965,colour,0.06
106,19,1,1,11,49,549,730.1556632680004,730.8075255290605,"[67, 0, 187]",187,a,0.12853909941622987,colour,0.06
106,19,1,1,11,50,550,731.3278085940401,731.9515561639564,"[78, 0, 176]",176,l,0.10139326931675896,colour,0.06
106,19,1,1,12,1,551,736.6079764039023,737.2235713633127,"[83, 0, 171]",171,l,0.09147937985835597,colour,0.06
106,19,1,1,12,2,552,737.7338735848898,738.3034953037859,"[63, 0, 191]",191,a,0.046442311024293303,colour,0.06
106,19,1,1,12,3,553,738.8118373542093,739.4475558709819,"[93, 0, 161]",161,l,0.11243631516117603,colour,0.06
106,19,1,1,12,4,554,739.9681725233677,740.5115274762502,"[52, 0, 202]",202,a,0.020368135650642216,colour,0.06
106,19,1,1,12,5,555,741.0305789849954,741.5915274290019,"[94, 0, 160]",160,l,0.03759574395371601,colour,0.06
106,19,1,1,12,6,556,742.108730618842,742.7355013500783,"[87, 0, 167]",167,l,0.10348813579184934,colour,0.06
106,19,1,1,12,7,557,743.2493249480613,743.8555412545684,"[70, 0, 184]",184,a,0.08283761260099709,colour,0.06
106,19,1,1,12,8,558,744.3743789049331,745.0314801044296,"[54, 0, 200]",200,a,0.13381899782689288,colour,0.06
106,19,1,1,12,9,559,745.5462264834205,746.231513266277,"[73, 0, 181]",181,l,0.16193644586019218,colour,0.06
106,19,1,1,12,10,560,746.7494234095211,747.3355063125491,"[90, 0, 164]",164,l,0.06276171060744673,colour,0.06
106,19,1,1,12,11,561,747.8430673665134,748.519525305368,"[97, 0, 157]",157,l,0.15390907833352685,colour,0.06
106,19,1,1,12,12,562,749.0305718957679,749.6235400131554,"[53, 0, 201]",201,a,0.06957051891367882,colour,0.06
106,19,1,1,12,13,563,750.1399740218767,750.7035147597198,"[89, 0, 165]",165,l,0.04022112081293017,colour,0.06
106,19,1,1,12,14,564,751.2181150218821,751.767529294244,"[64, 0, 190]",190,a,0.026023369224276394,colour,0.06
106,19,1,1,12,15,565,752.2806506649358,752.8795729449484,"[81, 0, 173]",173,a,0.07578422600636259,colour,0.06
106,19,1,1,12,16,566,753.3898708342458,753.9995793725247,"[68, 0, 186]",186,a,0.08629321667831391,colour,0.06
106,19,1,1,12,17,567,754.5149527541944,755.119515695551,"[57, 0, 197]",197,a,0.08123426587553695,colour,0.06
106,19,1,1,12,18,568,755.6399811111041,756.2475282229716,"[80, 0, 174]",174,a,0.08423419023165479,colour,0.06
106,19,1,1,12,19,569,756.7650063172914,757.623493539344,"[98, 0, 156]",156,l,0.33553112484514713,colour,0.06
106,19,1,1,12,20,570,758.1400760280085,758.8235176426824,"[78, 0, 176]",176,l,0.16021179454401135,colour,0.06
106,19,1,1,12,21,571,759.3431331387837,760.2394854954327,"[27, 0, 227]",227,a,0.37297799508087337,colour,0.06
106,19,1,1,12,22,572,760.749353304971,761.359550999885,"[92, 0, 162]",162,l,0.08682215178851038,colour,0.06
106,19,1,1,12,23,573,761.8742989542661,762.4795180428191,"[77, 0, 177]",177,l,0.08190734853269532,colour,0.06
106,19,1,1,12,24,574,762.999308800383,763.5355355358915,"[88, 0, 166]",166,l,0.012974466138985008,colour,0.06
106,19,1,1,12,25,575,764.0461823727237,764.6235155946924,"[96, 0, 158]",158,l,0.05399824504274875,colour,0.06
106,19,1,1,12,26,576,765.1405836953782,766.7835198324756,"[95, 0, 159]",159,l,1.119624790851958,colour,0.06
106,19,1,1,12,27,577,767.2914286524174,767.9835273943027,"[46, 0, 208]",208,a,0.1686771187814884,colour,0.06
106,19,1,1,12,28,578,768.4945515355212,769.08747199754,"[59, 0, 195]",195,a,0.06949883897323161,colour,0.06
106,19,1,1,12,29,579,769.591400610574,770.2155365126673,"[58, 0, 196]",196,a,0.10068277129903436,colour,0.06
106,19,1,1,12,30,580,770.7320741028525,771.3675125951995,"[60, 0, 194]",194,a,0.11208697379333898,colour,0.06
106,19,1,1,12,31,581,771.8883332597907,772.583544959838,"[82, 0, 172]",172,l,0.17198463686509058,colour,0.06
106,19,1,1,12,32,582,773.0915356997284,773.6634984387783,"[67, 0, 187]",187,a,0.04868171893758699,colour,0.06
106,19,1,1,12,33,583,774.1851221552351,774.7595641543157,"[75, 0, 179]",179,a,0.05097272066632286,colour,0.06
106,19,1,1,12,34,584,775.2789252259536,775.8794626680901,"[74, 0, 180]",180,l,0.07717253285227343,colour,0.06
106,19,1,1,12,35,585,776.3882753644721,777.327502575703,"[79, 0, 175]",175,l,0.4160875818342902,colour,0.06
106,19,1,1,12,36,586,777.8423923146329,778.7674981803866,"[62, 0, 192]",192,a,0.4016031104256399,colour,0.06
106,19,1,1,12,37,587,779.2798267392791,780.2474766291562,"[56, 0, 198]",198,a,0.4442144822096452,colour,0.06
106,19,1,1,12,38,588,780.7642426500097,781.4474841909832,"[99, 0, 155]",155,l,0.15990420087473467,colour,0.06
106,19,1,1,12,39,589,781.9673615946667,782.5516079941299,"[65, 0, 189]",189,a,0.061309600714594126,colour,0.06
106,19,1,1,12,40,590,783.0612052315264,783.719502541062,"[69, 0, 185]",185,a,0.1349134956835769,colour,0.06
106,19,1,1,12,41,591,784.2329425331554,784.8634851267561,"[84, 0, 170]",170,l,0.11974373232806101,colour,0.06
106,19,1,1,12,42,592,785.3768605281366,785.9994974525762,"[51, 0, 203]",203,a,0.09933896898292005,colour,0.06
106,19,1,1,12,43,593,786.5201625480549,787.1594985395786,"[35, 0, 219]",219,a,0.11622078053187579,colour,0.06
106,19,1,1,12,44,594,787.6768612370361,788.2314695494133,"[85, 0, 169]",169,l,0.03127569844946265,colour,0.06
106,19,1,1,12,45,595,788.739323624759,789.3595285506453,"[66, 0, 188]",188,a,0.09688412735704333,colour,0.06
106,19,1,1,12,46,596,789.8799837262486,790.479492049024,"[76, 0, 178]",178,a,0.07565031840931624,colour,0.06
106,19,1,1,12,47,597,790.9898064798326,791.991472841939,"[55, 0, 199]",199,a,0.4783790404908359,colour,0.06
106,19,1,1,12,48,598,792.5070581127075,793.1354900861043,"[86, 0, 168]",168,l,0.10509345179889351,colour,0.06
106,19,1,1,12,49,599,793.6477922573104,794.1754926224821,"[50, 0, 204]",204,a,0.00442997895879671,colour,0.06
106,19,1,1,12,50,600,794.6966011884506,795.335455900291,"[72, 0, 182]",182,a,0.11565955018159002,colour,0.06
106,19,1,1,13,1,601,803.5583939593052,804.2314778201398,"[63, 0, 191]",191,a,0.14687065785983577,colour,0.06
106,19,1,1,13,2,602,804.7488117668545,805.3514515585266,"[88, 0, 166]",166,l,0.07958090072497725,colour,0.06
106,19,1,1,13,3,603,805.8582414622069,806.4635058430722,"[87, 0, 167]",167,l,0.08188214240362868,colour,0.06
106,19,1,1,13,4,604,806.9838503479841,807.5915494843503,"[29, 0, 225]",225,a,0.08449964236933738,colour,0.06
106,19,1,1,13,5,605,808.1088093880098,808.7275224255864,"[71, 0, 183]",183,l,0.09537057753186673,colour,0.06
106,19,1,1,13,6,606,809.2338775233366,809.8074782675831,"[65, 0, 189]",189,l,0.05031972413416952,colour,0.06
106,19,1,1,13,7,607,810.3290748086292,811.0154537262279,"[31, 0, 223]",223,a,0.16298486368032172,colour,0.06
106,19,1,1,13,8,608,811.532153580978,812.159544225724,"[98, 0, 156]",156,l,0.10400013549951836,colour,0.06
106,19,1,1,13,9,609,812.6728507039952,813.36749605363,"[79, 0, 175]",175,l,0.17134896951029077,colour,0.06
106,19,1,1,13,10,610,813.8760996178025,814.439479272638,"[73, 0, 181]",181,a,0.03928101062774658,colour,0.06
106,19,1,1,13,11,611,814.954977109679,815.6314669499989,"[64, 0, 190]",190,a,0.15326041408115998,colour,0.06
106,19,1,1,13,12,612,816.1424717927584,816.8235070088413,"[61, 0, 193]",193,a,0.1576529776211828,colour,0.06
106,19,1,1,13,13,613,817.3300097988686,817.9515321393847,"[70, 0, 184]",184,a,0.09821926505537704,colour,0.06
106,19,1,1,13,14,614,818.4705738019547,819.119516483217,"[89, 0, 165]",165,l,0.1256935626734048,colour,0.06
106,19,1,1,13,15,615,819.6269003065536,820.1914571668603,"[68, 0, 186]",186,a,0.041255360236391425,colour,0.06
106,19,1,1,13,16,616,820.7049554481055,821.303476792993,"[58, 0, 196]",196,a,0.07534075545845553,colour,0.06
106,19,1,1,13,17,617,821.8150645276764,822.4074544792529,"[75, 0, 179]",179,l,0.06982533721020445,colour,0.06
106,19,1,1,13,18,618,822.9237656081095,823.4794388798182,"[92, 0, 162]",162,l,0.03242021467303857,colour,0.06
106,19,1,1,13,19,619,823.9861578912241,824.6634448757395,"[80, 0, 174]",174,l,0.15388544753659517,colour,0.06
106,19,1,1,13,20,620,825.1737029865617,826.1994163991185,"[66, 0, 188]",188,a,0.5024662631913088,colour,0.06
106,19,1,1,13,21,621,826.7205663188943,827.3195015958627,"[53, 0, 201]",201,a,0.07563574612140656,colour,0.06
106,19,1,1,13,22,622,827.8299743527314,828.4234383221483,"[52, 0, 202]",202,a,0.07015026011504233,colour,0.06
106,19,1,1,13,23,623,828.9392799866037,829.575466786162,"[91, 0, 163]",163,l,0.11281480104662478,colour,0.06
106,19,1,1,13,24,624,830.0955690758419,830.7034970367095,"[26, 0, 228]",228,a,0.08460007311077788,colour,0.06
106,19,1,1,13,25,625,831.2205974327517,831.8154504966806,"[76, 0, 178]",178,a,0.07163505919743329,colour,0.06
106,19,1,1,13,26,626,832.3302055402892,833.2394382338971,"[94, 0, 160]",160,l,0.38617695338325575,colour,0.06
106,19,1,1,13,27,627,833.7517065343563,834.3275388095644,"[60, 0, 194]",194,a,0.050769496185239404,colour,0.06
106,19,1,1,13,28,628,834.847323265567,835.5274345191428,"[77, 0, 177]",177,l,0.1598270070971921,colour,0.06
106,19,1,1,13,29,629,836.0472902612528,836.6474657590152,"[57, 0, 197]",197,a,0.07681137614417821,colour,0.06
106,19,1,1,13,30,630,837.1586691000848,837.7354761439492,"[95, 0, 159]",159,l,0.05343819613335654,colour,0.06
106,19,1,1,13,31,631,838.2523796170135,838.8234573842492,"[62, 0, 192]",192,a,0.05863223609048873,colour,0.06
106,19,1,1,13,32,632,839.3351490942878,840.2474443337996,"[51, 0, 203]",203,a,0.38890118565177545,colour,0.06
106,19,1,1,13,33,633,840.7593751082895,841.3354535371764,"[99, 0, 155]",155,l,0.050776191521435976,colour,0.06
106,19,1,1,13,34,634,841.8550832117326,842.511462491646,"[97, 0, 157]",157,l,0.13321523205377162,colour,0.06
106,19,1,1,13,35,635,843.026980808645,843.6554596496862,"[85, 0, 169]",169,l,0.10517931019421667,colour,0.06
106,19,1,1,13,36,636,844.1675440240651,844.791426683194,"[59, 0, 195]",195,a,0.1005461067543365,colour,0.06
106,19,1,1,13,37,637,845.3091020942666,845.9274646089762,"[84, 0, 170]",170,l,0.09400393214309588,colour,0.06
106,19,1,1,13,38,638,846.4351812321111,846.9994639756624,"[90, 0, 164]",164,l,0.041009600390680134,colour,0.06
106,19,1,1,13,39,639,847.5132730013574,848.1034668681095,"[72, 0, 182]",182,a,0.0697087588487193,colour,0.06
106,19,1,1,13,40,640,848.6197401877143,849.1994687806,"[93, 0, 161]",161,l,0.0563369020819664,colour,0.06
106,19,1,1,13,41,641,849.7135479846038,850.3194460635423,"[83, 0, 171]",171,l,0.08255601272685453,colour,0.06
106,19,1,1,13,42,642,850.8386216337676,851.4394410696113,"[50, 0, 204]",204,a,0.07798503700178117,colour,0.06
106,19,1,1,13,43,643,851.9479493230465,852.5035060163937,"[56, 0, 198]",198,a,0.03232057171408087,colour,0.06
106,19,1,1,13,44,644,853.0122135558631,853.5754632415483,"[78, 0, 176]",176,a,0.03991116408724338,colour,0.06
106,19,1,1,13,45,645,854.0903281681822,855.0714779146947,"[55, 0, 199]",199,a,0.4578380064922385,colour,0.06
106,19,1,1,13,46,646,855.5902844512602,856.2394748615916,"[74, 0, 180]",180,l,0.12589048565132543,colour,0.06
106,19,1,1,13,47,647,856.7465443958645,857.3034752176027,"[54, 0, 200]",200,a,0.033506835578009486,colour,0.06
106,19,1,1,13,48,648,857.8246377405012,858.3834476011689,"[96, 0, 158]",158,l,0.0357033142936416,colour,0.06
106,19,1,1,13,49,649,858.902825608151,859.447467649472,"[67, 0, 187]",187,a,0.021387802727986127,colour,0.06
106,19,1,1,13,50,650,859.9681792187621,860.57544709387,"[82, 0, 172]",172,l,0.08433107635937631,colour,0.06
106,19,1,1,14,1,651,865.7486518654041,866.2954604531405,"[78, 0, 176]",176,l,0.02268591889878735,colour,0.06
106,19,1,1,14,2,652,866.8120764187188,867.3914592148503,"[83, 0, 171]",171,l,0.0540281772846356,colour,0.06
106,19,1,1,14,3,653,867.9091421090416,868.5034532410209,"[77, 0, 177]",177,l,0.07078868435928598,colour,0.06
106,19,1,1,14,4,654,869.0185974043561,869.6074498319067,"[51, 0, 203]",203,a,0.06556549976812676,colour,0.06
106,19,1,1,14,5,655,870.1278628659784,870.6634586603614,"[97, 0, 157]",157,l,0.012127697467803955,colour,0.06
106,19,1,1,14,6,656,871.1749053981621,871.7274775271071,"[53, 0, 201]",201,a,0.02927023498341441,colour,0.06
106,19,1,1,14,7,657,872.237263416755,872.8234231196693,"[41, 0, 213]",213,a,0.06293736590305343,colour,0.06
106,19,1,1,14,8,658,873.3310247397749,873.9354411704117,"[58, 0, 196]",196,a,0.08103813056368381,colour,0.06
106,19,1,1,14,9,659,874.4559337613755,875.0234791245894,"[90, 0, 164]",164,l,0.044062300119549036,colour,0.06
106,19,1,1,14,10,660,875.5342153643724,876.1194554371177,"[56, 0, 198]",198,a,0.06195078190648928,colour,0.06
106,19,1,1,14,11,661,876.6278553829179,877.2395327569102,"[50, 0, 204]",204,a,0.08818092016736045,colour,0.06
106,19,1,1,14,12,662,877.7529369090335,878.3594438738073,"[54, 0, 200]",200,a,0.08315426472108811,colour,0.06
106,19,1,1,14,13,663,878.8778293890646,879.4634207723429,"[76, 0, 178]",178,l,0.0620803571655415,colour,0.06
106,19,1,1,14,14,664,879.9716718444251,880.5595069678966,"[86, 0, 168]",168,l,0.06517283531138673,colour,0.06
106,19,1,1,14,15,665,881.0810562474653,881.695402715297,"[64, 0, 190]",190,a,0.0909220878384076,colour,0.06
106,19,1,1,14,16,666,882.2060046536499,883.1914721330395,"[69, 0, 185]",185,a,0.46213604701915756,colour,0.06
106,19,1,1,14,17,667,883.7060070167645,884.3194559097174,"[75, 0, 179]",179,a,0.09011037135496736,colour,0.06
106,19,1,1,14,18,668,884.8310089859879,885.3674775428954,"[55, 0, 199]",199,a,0.013074503047391772,colour,0.06
106,19,1,1,14,19,669,885.8778498690808,886.4074576300336,"[96, 0, 158]",158,l,0.006246396282222122,colour,0.06
106,19,1,1,14,20,670,886.9247695213417,887.55145557574,"[87, 0, 167]",167,l,0.10340818506665528,colour,0.06
106,19,1,1,14,21,671,888.065397721366,888.6714178925613,"[98, 0, 156]",156,l,0.08265053579816595,colour,0.06
106,19,1,1,14,22,672,889.1904166259337,889.79145149549,"[57, 0, 197]",197,a,0.07765578181715682,colour,0.06
106,19,1,1,14,23,673,890.2998270228272,890.9034455216606,"[80, 0, 174]",174,l,0.08038434636546299,colour,0.06
106,19,1,1,14,24,674,891.424904216663,892.4794656613376,"[89, 0, 165]",165,l,0.5313749476335943,colour,0.06
106,19,1,1,14,25,675,892.9872405736824,893.5994397935574,"[91, 0, 163]",163,l,0.08896900591207668,colour,0.06
106,19,1,1,14,26,676,894.114036904939,894.6874324554228,"[88, 0, 166]",166,l,0.05000976740848273,colour,0.06
106,19,1,1,14,27,677,895.2078427325469,895.7754467788036,"[94, 0, 160]",160,l,0.04272243630839512,colour,0.06
106,19,1,1,14,28,678,896.2875339101302,896.879437068128,"[82, 0, 172]",172,l,0.06883639009902254,colour,0.06
106,19,1,1,14,29,679,897.3969175255043,897.9754441006226,"[92, 0, 162]",162,l,0.0551380350952968,colour,0.06
106,19,1,1,14,30,680,898.4906020485796,899.0314556860249,"[84, 0, 170]",170,l,0.01744973741006106,colour,0.06
106,19,1,1,14,31,681,899.5440544231678,900.0954426513053,"[85, 0, 169]",169,l,0.03496997320326045,colour,0.06
106,19,1,1,14,32,682,900.6157458023517,901.1914201453328,"[67, 0, 187]",187,a,0.05262135964585468,colour,0.06
106,19,1,1,14,33,683,901.7096414269181,902.6954164999188,"[99, 0, 155]",155,l,0.4626366251613945,colour,0.06
106,19,1,1,14,34,684,903.2097477652715,904.047528538038,"[74, 0, 180]",180,a,0.3147297586547211,colour,0.06
106,19,1,1,14,35,685,904.5592702665017,905.2474147953326,"[79, 0, 175]",175,a,0.1648485425976105,colour,0.06
106,19,1,1,14,36,686,905.7623951188289,906.3114352375269,"[72, 0, 182]",182,a,0.025823689356911927,colour,0.06
106,19,1,1,14,37,687,906.8248074880685,907.7995060384274,"[60, 0, 194]",194,a,0.4513505764189176,colour,0.06
106,19,1,1,14,38,688,908.3091651096474,909.2554417690844,"[65, 0, 189]",189,a,0.42289520864142105,colour,0.06
106,19,1,1,14,39,689,909.7622655435116,910.3274139604182,"[61, 0, 193]",193,a,0.04176263383124024,colour,0.06
106,19,1,1,14,40,690,910.8403876388911,911.495405393478,"[62, 0, 192]",192,a,0.1316209437791258,colour,0.06
106,19,1,1,14,41,691,912.0122757835197,912.5994433381711,"[49, 0, 205]",205,a,0.0638428176753223,colour,0.06
106,19,1,1,14,42,692,913.10723951814,913.6394253945327,"[95, 0, 159]",159,l,0.008940696250647306,colour,0.06
106,19,1,1,14,43,693,914.1540488936007,914.7034194490407,"[93, 0, 161]",161,l,0.026165547606069595,colour,0.06
106,19,1,1,14,44,694,915.2165817797068,915.7439497389132,"[68, 0, 186]",186,a,0.004074729862622917,colour,0.06
106,19,1,1,14,45,695,916.2635699611856,917.2873984271428,"[73, 0, 181]",181,a,0.500578953535296,colour,0.06
106,19,1,1,14,46,696,917.7936979926308,918.5195260930341,"[70, 0, 184]",184,a,0.2026266371831298,colour,0.06
106,19,1,1,14,47,697,919.0279528204119,919.5994279781589,"[52, 0, 202]",202,a,0.048089374671690166,colour,0.06
106,19,1,1,14,48,698,920.0936270215898,920.7353891039966,"[63, 0, 191]",191,a,0.11847673001466319,colour,0.06
106,19,1,1,14,49,699,921.2498074093019,922.1994250636781,"[6, 0, 248]",248,a,0.42632875737035647,colour,0.06
106,19,1,1,14,50,700,922.7186077231308,923.5834079014603,"[71, 0, 183]",183,a,0.341584536654409,colour,0.06
106,19,1,1,15,1,701,928.6552146775066,929.3754434704897,"[97, 0, 157]",157,l,0.20849927375093102,colour,0.06
106,19,1,1,15,2,702,929.8936426966684,930.4874071704689,"[42, 0, 212]",212,a,0.07043540454469621,colour,0.06
106,19,1,1,15,3,703,930.9906048055273,931.5914218782564,"[84, 0, 170]",170,l,0.07749036652967334,colour,0.06
106,19,1,1,15,4,704,932.0999884209014,932.6793924847734,"[86, 0, 168]",168,l,0.05617778835585341,colour,0.06
106,19,1,1,15,5,705,933.195630358241,933.7994268753682,"[66, 0, 188]",188,a,0.08056275855051354,colour,0.06
106,19,1,1,15,6,706,934.3206016074982,934.9433799226535,"[52, 0, 202]",202,a,0.09951029199874029,colour,0.06
106,19,1,1,15,7,707,935.4611656105844,936.1194069940248,"[25, 0, 229]",229,a,0.1348154279985465,colour,0.06
106,19,1,1,15,8,708,936.6331195274834,937.239373249351,"[82, 0, 172]",172,l,0.08301720634335652,colour,0.06
106,19,1,1,15,9,709,937.7581242536544,938.3993916655891,"[59, 0, 195]",195,a,0.11799033032730222,colour,0.06
106,19,1,1,15,10,710,938.9143337860005,939.5433793712873,"[51, 0, 203]",203,a,0.1057405406027101,colour,0.06
106,19,1,1,15,11,711,940.0425215748837,940.7193855688092,"[89, 0, 165]",165,l,0.15342779859201983,colour,0.06
106,19,1,1,15,12,712,941.2299705718178,941.9753940821975,"[87, 0, 167]",167,l,0.22210468107368797,colour,0.06
106,19,1,1,15,13,713,942.4956322486978,943.1433957552654,"[60, 0, 194]",194,a,0.12446279416326433,colour,0.06
106,19,1,1,15,14,714,943.6519032210344,944.3993810317479,"[64, 0, 190]",190,a,0.22415701218415052,colour,0.06
106,19,1,1,15,15,715,944.9185400604038,945.6074191118823,"[65, 0, 189]",189,a,0.16553147142985836,colour,0.06
106,19,1,1,15,16,716,946.1216633373406,946.6873875569436,"[76, 0, 178]",178,a,0.0425700179184787,colour,0.06
106,19,1,1,15,17,717,947.1998011865653,947.9273791444139,"[79, 0, 175]",175,l,0.20425400853855535,colour,0.06
106,19,1,1,15,18,718,948.4341745619313,949.0794206053833,"[80, 0, 174]",174,l,0.12186734954593703,colour,0.06
106,19,1,1,15,19,719,949.5903640081524,950.1913902130909,"[71, 0, 183]",183,a,0.07841275370446965,colour,0.06
106,19,1,1,15,20,720,950.6997696788749,951.2873724332894,"[88, 0, 166]",166,l,0.06457773415604606,colour,0.06
106,19,1,1,15,21,721,951.8091080019949,952.3993849701947,"[37, 0, 217]",217,a,0.06687149283243343,colour,0.06
106,19,1,1,15,22,722,952.918487285031,953.5594628571416,"[83, 0, 171]",171,l,0.11767722276272252,colour,0.06
106,19,1,1,15,23,723,954.0747590450337,954.8153792105732,"[91, 0, 163]",163,l,0.2172773116035387,colour,0.06
106,19,1,1,15,24,724,955.3247440789128,955.9994159264606,"[73, 0, 181]",181,a,0.15009468054631725,colour,0.06
106,19,1,1,15,25,725,956.5161023904802,957.2474242476746,"[55, 0, 199]",199,a,0.20692704082466662,colour,0.06
106,19,1,1,15,26,726,957.7672555713216,958.375415901246,"[77, 0, 177]",177,a,0.08520344505086541,colour,0.06
106,19,1,1,15,27,727,958.8922090975102,959.8073640522198,"[62, 0, 192]",192,a,0.39187590387882665,colour,0.06
106,19,1,1,15,28,728,960.3140964544145,960.8953720740974,"[58, 0, 196]",196,a,0.057991448789834976,colour,0.06
106,19,1,1,15,29,729,961.4078617159394,962.33538697724,"[61, 0, 193]",193,a,0.404284413496498,colour,0.06
106,19,1,1,15,30,730,962.8453843620955,963.831390228821,"[99, 0, 155]",155,l,0.4627815604326315,colour,0.06
106,19,1,1,15,31,731,964.3454343805206,964.9593720362755,"[96, 0, 158]",158,l,0.09069168794667348,colour,0.06
106,19,1,1,15,32,732,965.4710046694381,966.1594012596761,"[75, 0, 179]",179,a,0.16530264698667452,colour,0.06
106,19,1,1,15,33,733,966.6740956509602,967.263378552103,"[94, 0, 160]",160,l,0.06590420723659918,colour,0.06
106,19,1,1,15,34,734,967.7834280664101,968.3274029326858,"[68, 0, 186]",186,a,0.020516221702564508,colour,0.06
106,19,1,1,15,35,735,968.8459664663533,969.5114416178549,"[90, 0, 164]",164,l,0.14215435297228396,colour,0.06
106,19,1,1,15,36,736,970.0134797704522,970.7754274803447,"[93, 0, 161]",161,l,0.2386036744574085,colour,0.06
106,19,1,1,15,37,737,971.2947905212059,972.0473792704288,"[92, 0, 162]",162,l,0.24176310637267306,colour,0.06
106,19,1,1,15,38,738,972.563506079372,973.335387371073,"[74, 0, 180]",180,a,0.2472170847468078,colour,0.06
106,19,1,1,15,39,739,973.8460558693623,974.6874033107888,"[85, 0, 169]",169,l,0.3180471228552051,colour,0.06
106,19,1,1,15,40,740,975.20543712168,975.8073735045618,"[57, 0, 197]",197,a,0.0786049505113624,colour,0.06
106,19,1,1,15,41,741,976.3148376724566,976.9673608069425,"[95, 0, 159]",159,l,0.12916688981931657,colour,0.06
106,19,1,1,15,42,742,977.4867273924174,978.0393975889892,"[70, 0, 184]",184,a,0.029430924158077687,colour,0.06
106,19,1,1,15,43,743,978.5491858416935,979.1834207408247,"[67, 0, 187]",187,a,0.11093930673087016,colour,0.06
106,19,1,1,15,44,744,979.6898569709156,980.623374991701,"[53, 0, 201]",201,a,0.4102334561175667,colour,0.06
106,19,1,1,15,45,745,981.1429916693596,981.751349709928,"[72, 0, 182]",182,a,0.08505535894073546,colour,0.06
106,19,1,1,15,46,746,982.2679676447297,982.9354002104374,"[63, 0, 191]",191,a,0.1441346102510579,colour,0.06
106,19,1,1,15,47,747,983.4554225493921,984.1514168212889,"[54, 0, 200]",200,a,0.17266047646990046,colour,0.06
106,19,1,1,15,48,748,984.6586104170419,985.3033739991952,"[98, 0, 156]",156,l,0.12214264780050144,colour,0.06
106,19,1,1,15,49,749,985.8147856848082,986.4873973243521,"[69, 0, 185]",185,a,0.14933455793652683,colour,0.06
106,19,1,1,15,50,750,987.0023331432021,987.6473649344407,"[50, 0, 204]",204,a,0.12168618041323498,colour,0.06
106,19,1,1,16,1,751,995.0183953614323,996.231394718634,"[72, 0, 182]",182,l,0.6888613284099847,colour,0.06
106,19,1,1,16,2,752,996.7379794286098,997.4153940192191,"[74, 0, 180]",180,l,0.15435530577087775,colour,0.06
106,19,1,1,16,3,753,997.9254414224997,998.5914084875258,"[71, 0, 183]",183,l,0.14255056192632765,colour,0.06
106,19,1,1,16,4,754,999.1129471332533,999.6633991895942,"[93, 0, 161]",161,l,0.027114716300275177,colour,0.06
106,19,1,1,16,5,755,1000.1754548132303,1000.9193742260686,"[83, 0, 171]",171,l,0.22052654047729447,colour,0.06
106,19,1,1,16,6,756,1001.4254666286288,1002.0233471861575,"[98, 0, 156]",156,l,0.07453218981390819,colour,0.06
106,19,1,1,16,7,757,1002.5347502071527,1003.5113986886572,"[92, 0, 162]",162,l,0.45322961534839123,colour,0.06
106,19,1,1,16,8,758,1004.0191672994406,1004.5513551449985,"[30, 0, 224]",224,a,0.008811514766421169,colour,0.06
106,19,1,1,16,9,759,1005.0535465037101,1005.7673662420129,"[65, 0, 189]",189,a,0.19052572129294276,colour,0.06
106,19,1,1,16,10,760,1006.2880096759764,1006.9033970785677,"[50, 0, 204]",204,a,0.10138696775538847,colour,0.06
106,19,1,1,16,11,761,1007.419356109167,1008.0073834294453,"[84, 0, 170]",170,l,0.0647537832846865,colour,0.06
106,19,1,1,16,12,762,1008.528773989121,1009.1033506835229,"[62, 0, 192]",192,a,0.0513019758509472,colour,0.06
106,19,1,1,16,13,763,1009.6225246783579,1010.4953372580931,"[57, 0, 197]",197,a,0.34952683351002634,colour,0.06
106,19,1,1,16,14,764,1011.0130697768764,1011.6153728303034,"[82, 0, 172]",172,l,0.0789310549153015,colour,0.06
106,19,1,1,16,15,765,1012.1225164075731,1012.7194198334473,"[78, 0, 176]",176,l,0.07364879344822839,colour,0.06
106,19,1,1,16,16,766,1013.2318866322166,1013.7753479234525,"[77, 0, 177]",177,l,0.020167274225968868,colour,0.06
106,19,1,1,16,17,767,1014.2942860045587,1014.8393675779807,"[52, 0, 202]",202,a,0.020568603242281824,colour,0.06
106,19,1,1,16,18,768,1015.3580098807579,1015.927320067538,"[80, 0, 174]",174,l,0.046007111261133105,colour,0.06
106,19,1,1,16,19,769,1016.4361185854068,1016.9913905281574,"[51, 0, 203]",203,a,0.03193539037602022,colour,0.06
106,19,1,1,16,20,770,1017.4986124808202,1018.0954265036271,"[73, 0, 181]",181,l,0.07352315657772124,colour,0.06
106,19,1,1,16,21,771,1018.607935443928,1019.1353786276886,"[89, 0, 165]",165,l,0.004062520689330995,colour,0.06
106,19,1,1,16,22,772,1019.6548271331121,1020.2793245857465,"[38, 0, 216]",216,a,0.10130819864571095,colour,0.06
106,19,1,1,16,23,773,1020.7954498192994,1021.3833731642808,"[86, 0, 168]",168,l,0.06469273718539625,colour,0.06
106,19,1,1,16,24,774,1021.9048401300679,1022.4473290157039,"[75, 0, 179]",179,l,0.019393760827369988,colour,0.06
106,19,1,1,16,25,775,1022.9673265423626,1023.5513244250324,"[60, 0, 194]",194,a,0.060710561054293066,colour,0.06
106,19,1,1,16,26,776,1024.0612005053554,1024.5993539351039,"[90, 0, 164]",164,l,0.014914551167748868,colour,0.06
106,19,1,1,16,27,777,1025.1079972776934,1025.7033261075267,"[53, 0, 201]",201,a,0.07203126820968464,colour,0.06
106,19,1,1,16,28,778,1026.2173651392804,1026.7594550590147,"[94, 0, 160]",160,l,0.018769908929243684,colour,0.06
106,19,1,1,16,29,779,1027.2797995639266,1027.8793618435739,"[76, 0, 178]",178,a,0.07618909963639453,colour,0.06
106,19,1,1,16,30,780,1028.3892650992493,1028.9193470507162,"[64, 0, 190]",190,a,0.006848192890174687,colour,0.06
106,19,1,1,16,31,781,1029.4360437546857,1030.0553778872709,"[96, 0, 158]",158,l,0.09600663866149262,colour,0.06
106,19,1,1,16,32,782,1030.5767294561956,1031.1434497121372,"[56, 0, 198]",198,a,0.043452232785057276,colour,0.06
106,19,1,1,16,33,783,1031.6548365854542,1032.2393397724372,"[61, 0, 193]",193,a,0.06137852376559749,colour,0.06
106,19,1,1,16,34,784,1032.7485762469587,1033.3354145464255,"[99, 0, 155]",155,l,0.06347575323889032,colour,0.06
106,19,1,1,16,35,785,1033.8423324500327,1034.4076494330075,"[59, 0, 195]",195,a,0.041984762880019844,colour,0.06
106,19,1,1,16,36,786,1034.9204525761888,1035.4713425892405,"[68, 0, 186]",186,a,0.02775392826879397,colour,0.06
106,19,1,1,16,37,787,1035.9828775485512,1036.5594081125455,"[88, 0, 166]",166,l,0.05352484219474718,colour,0.06
106,19,1,1,16,38,788,1037.077048471372,1037.6713978064363,"[81, 0, 173]",173,l,0.07087493658764288,colour,0.06
106,19,1,1,16,39,789,1038.186505342077,1038.7433759054402,"[55, 0, 199]",199,a,0.033560398616828024,colour,0.06
106,19,1,1,16,40,790,1039.264678637439,1039.7833709586994,"[97, 0, 157]",157,l,0.007900155324023217,colour,0.06
106,19,1,1,16,41,791,1040.2990275156335,1041.1833147963043,"[85, 0, 169]",169,l,0.3609798729303293,colour,0.06
106,19,1,1,16,42,792,1041.689701795578,1042.2953186685918,"[87, 0, 167]",167,l,0.08235908980714157,colour,0.06
106,19,1,1,16,43,793,1042.8146513833199,1043.399317228701,"[70, 0, 184]",184,a,0.06136749609140679,colour,0.06
106,19,1,1,16,44,794,1043.9092980720452,1044.4393926265766,"[58, 0, 196]",196,a,0.006611097662243992,colour,0.06
106,19,1,1,16,45,795,1044.956212604302,1045.8953472618014,"[66, 0, 188]",188,a,0.41625457257032394,colour,0.06
106,19,1,1,16,46,796,1046.4092980720452,1046.9436158363824,"[95, 0, 159]",159,l,0.01084415358491242,colour,0.06
106,19,1,1,16,47,797,1047.4563201242709,1048.1033294158406,"[91, 0, 163]",163,l,0.12370306538650766,colour,0.06
106,19,1,1,16,48,798,1048.603509009583,1049.1433457368403,"[14, 0, 240]",240,a,0.016520654840860516,colour,0.06
106,19,1,1,16,49,799,1049.6504471726366,1050.2153900019475,"[69, 0, 185]",185,a,0.040536591433919966,colour,0.06
106,19,1,1,16,50,800,1050.729720085801,1051.3513286786037,"[79, 0, 175]",175,l,0.09911762760020792,colour,0.06
