id,age,condition,counterbalance,block,trialinblock,trial,tstart,tend,trialstim,trialintensity,response,RT,trialtype,colourfreq
145,19,0,2,Practice,1,NA,5.907699232921004e-06,2.2884158978122286,"[80, 0, 174]",174,a,1.7640490636986215,colour,0.5
145,19,0,2,Practice,2,NA,2.797780364926439,3.5364047252223827,"[29, 0, 225]",225,a,0.2154024353949353,colour,0.5
145,19,0,2,Practice,3,NA,4.047695097338874,4.736408584896708,"[61, 0, 193]",193,a,0.16537222743500024,colour,0.5
145,19,0,2,Practice,4,NA,5.250755198969273,5.800363992108032,"[14, 0, 240]",240,a,0.026176948507782072,colour,0.5
145,19,0,2,Practice,5,NA,6.313655099947937,9.144385376363061,"[8, 0, 246]",246,a,2.3077785295899957,colour,0.5
145,19,0,2,Practice,6,NA,9.657041605067207,11.24040572400554,"[77, 0, 177]",177,l,1.060106354067102,colour,0.5
145,19,0,2,Practice,7,NA,11.750755986664444,12.288401325524319,"[13, 0, 241]",241,a,0.014278872607974336,colour,0.5
145,19,0,2,Practice,8,NA,12.797667725069914,15.168408383236965,"[39, 0, 215]",215,a,1.8475344870821573,colour,0.5
145,19,0,2,Practice,9,NA,15.688289315847214,16.688358632673044,"[81, 0, 173]",173,l,0.4767662597296294,colour,0.5
145,19,0,2,Practice,10,NA,17.203897811239585,18.12837555227452,"[84, 0, 170]",170,l,0.4012310038378928,colour,0.5
145,19,0,2,1,1,1,4.950605458841892,7.287873572407989,"[71, 0, 183]",183,a,1.8132600728131365,colour,0.5
145,19,0,2,1,2,2,7.7951104855164886,8.863869627646636,"[40, 0, 214]",214,a,0.545478140382329,colour,0.5
145,19,0,2,1,3,3,9.373210070159985,9.9918529096758,"[60, 0, 194]",194,a,0.09602428608923219,colour,0.5
145,19,0,2,1,4,4,10.498195005551679,11.59987215770525,"[73, 0, 181]",181,l,0.5783024151460268,colour,0.5
145,19,0,2,1,5,5,12.10754860250745,12.719861949241022,"[15, 0, 239]",239,a,0.08908393874298781,colour,0.5
145,19,0,2,1,6,6,13.232569771731505,14.271826332987985,"[62, 0, 192]",192,l,0.5159960394958034,colour,0.5
145,19,0,2,1,7,7,14.77944251941517,15.999838917137822,"[21, 0, 233]",233,a,0.69704135300708,colour,0.5
145,19,0,2,1,8,8,16.513890934700612,17.671922667621402,"[25, 0, 229]",229,a,0.6354568963579368,colour,0.5
145,19,0,2,1,9,9,18.185751374723623,19.015843621222302,"[68, 0, 186]",186,l,0.30681045705568977,colour,0.5
145,19,0,2,1,10,10,19.52947343629785,20.495830356521765,"[49, 0, 205]",205,a,0.4429632786195725,colour,0.5
145,19,0,2,1,11,11,21.013960645359475,21.599830410064897,"[6, 0, 248]",248,a,0.06268722433014773,colour,0.5
145,19,0,2,1,12,12,22.107678177708294,23.127896635996876,"[30, 0, 224]",224,a,0.49711429318995215,colour,0.5
145,19,0,2,1,13,13,23.6389002885262,24.93585515304585,"[75, 0, 179]",179,l,0.7736714996863157,colour,0.5
145,19,0,2,1,14,14,25.451412054680986,26.463858363655163,"[8, 0, 246]",246,a,0.48924210714176297,colour,0.5
145,19,0,2,1,15,15,26.9826164424303,28.22380788839655,"[86, 0, 168]",168,l,0.7179907887184527,colour,0.5
145,19,0,2,1,16,16,28.732529205619358,29.86381960925064,"[0, 0, 254]",254,a,0.6079381158342585,colour,0.5
145,19,0,2,1,17,17,30.37320101170917,31.567801309603965,"[46, 0, 208]",208,a,0.6718785568955354,colour,0.5
145,19,0,2,1,18,18,32.07626899026218,32.943855338933645,"[28, 0, 226]",226,a,0.3442470577720087,colour,0.5
145,19,0,2,1,19,19,33.45134076860268,34.479795720166294,"[85, 0, 169]",169,l,0.5051916728552897,colour,0.5
145,19,0,2,1,20,20,34.9981406548759,36.15981979199569,"[87, 0, 167]",167,l,0.6383512677566614,colour,0.5
145,19,0,2,1,21,21,36.67014799930621,37.26378124867915,"[80, 0, 174]",174,l,0.07043613673886284,colour,0.5
145,19,0,2,1,22,22,37.779470482462784,38.831811382609885,"[78, 0, 176]",176,l,0.5289890061831102,colour,0.5
145,19,0,2,1,23,23,39.342002925492125,40.215801794838626,"[9, 0, 245]",245,a,0.3508703594270628,colour,0.5
145,19,0,2,1,24,24,40.73250557488063,41.647805531625636,"[48, 0, 206]",206,a,0.3920272257528268,colour,0.5
145,19,0,2,1,25,25,42.15446467322181,43.09580412640935,"[24, 0, 230]",230,a,0.41803797145257704,colour,0.5
145,19,0,2,1,26,26,43.60752221485018,44.58379183526267,"[92, 0, 162]",162,l,0.45336513506481424,colour,0.5
145,19,0,2,1,27,27,45.09208267921349,46.159807188931154,"[64, 0, 190]",190,l,0.5447889105707873,colour,0.5
145,19,0,2,1,28,28,46.67005899018841,47.64779726086999,"[35, 0, 219]",219,a,0.45448050581035204,colour,0.5
145,19,0,2,1,29,29,48.154440254787914,49.007783570792526,"[67, 0, 187]",187,l,0.3300398650462739,colour,0.5
145,19,0,2,1,30,30,49.513721974915825,50.62377740474767,"[97, 0, 157]",157,l,0.5874813809350599,colour,0.5
145,19,0,2,1,31,31,51.13874196258257,52.07979115154012,"[95, 0, 159]",159,l,0.4177075349725783,colour,0.5
145,19,0,2,1,32,32,52.59189599638921,53.58378947217716,"[79, 0, 175]",175,l,0.46894409201922826,colour,0.5
145,19,0,2,1,33,33,54.09184991646907,55.11981531791389,"[2, 0, 252]",252,a,0.5048112179792952,colour,0.5
145,19,0,2,1,34,34,55.63874471950112,56.559818059089594,"[14, 0, 240]",240,a,0.3977627994026989,colour,0.5
145,19,0,2,1,35,35,57.07615753193386,58.383807667851215,"[59, 0, 195]",195,a,0.7842970603960566,colour,0.5
145,19,0,2,1,36,36,58.9043199349544,59.88781386541086,"[20, 0, 234]",234,a,0.4601763010432478,colour,0.5
145,19,0,2,1,37,37,60.40431678420282,61.41575957459281,"[34, 0, 220]",220,a,0.48811295177438296,colour,0.5
145,19,0,2,1,38,38,61.93556488881586,63.38377576635685,"[27, 0, 227]",227,a,0.9248869466246106,colour,0.5
145,19,0,2,1,39,39,63.904343565693125,64.64780159317888,"[61, 0, 193]",193,l,0.22017229956691153,colour,0.5
145,19,0,2,1,40,40,65.15433864263468,66.59980796088348,"[33, 0, 221]",221,a,0.922087098180782,colour,0.5
145,19,0,2,1,41,41,67.10743320576148,67.96779957669787,"[93, 0, 161]",161,l,0.33714838448213413,colour,0.5
145,19,0,2,1,42,42,68.48246323649073,69.41584937137668,"[83, 0, 171]",171,l,0.4101523946155794,colour,0.5
145,19,0,2,1,43,43,69.93550147968926,70.76777484317427,"[29, 0, 225]",225,a,0.3089183187694289,colour,0.5
145,19,0,2,1,44,44,71.27925780581427,71.91186759225093,"[26, 0, 228]",228,a,0.10998571914387867,colour,0.5
145,19,0,2,1,45,45,72.41995245494763,73.31974513462046,"[4, 0, 250]",250,a,0.3765404286386911,colour,0.5
145,19,0,2,1,46,46,73.82625737180933,74.76773664017674,"[12, 0, 242]",242,a,0.4181982666195836,colour,0.5
145,19,0,2,1,47,47,75.27935114724096,76.16780146714882,"[57, 0, 197]",197,a,0.3652272134786472,colour,0.5
145,19,0,2,1,48,48,76.6855186119501,77.57580346474424,"[91, 0, 163]",163,l,0.3670467802148778,colour,0.5
145,19,0,2,1,49,49,78.09178847653675,79.0237792164553,"[69, 0, 185]",185,l,0.40900157776195556,colour,0.5
145,19,0,2,1,50,50,79.54485310739256,81.75973212198005,"[50, 0, 204]",204,l,1.6915846220799722,colour,0.5
145,19,0,2,2,1,51,90.05970660076127,92.25577515512123,"[95, 0, 159]",159,l,1.6720353074779268,colour,0.5
145,19,0,2,2,2,52,92.76362134737428,93.84771644376451,"[22, 0, 232]",232,a,0.5607672269979957,colour,0.5
145,19,0,2,2,3,53,94.35731958129327,95.23174584668595,"[59, 0, 195]",195,l,0.3512059158529155,colour,0.5
145,19,0,2,2,4,54,95.74795850127703,96.72775579680456,"[56, 0, 198]",198,l,0.45640129086677916,colour,0.5
145,19,0,2,2,5,55,97.24796913511818,98.20775867975317,"[67, 0, 187]",187,l,0.43656092436867766,colour,0.5
145,19,0,2,2,6,56,98.71669700590428,99.68782379032928,"[5, 0, 249]",249,a,0.44777685968438163,colour,0.5
145,19,0,2,2,7,57,100.20106212285464,101.15978946589166,"[20, 0, 234]",234,a,0.43545224898844026,colour,0.5
145,19,0,2,2,8,58,101.66987467044964,102.61573665277683,"[87, 0, 167]",167,l,0.42258964516804554,colour,0.5
145,19,0,2,2,9,59,103.12291015672963,103.75971006660257,"[8, 0, 246]",246,a,0.1134113882726524,colour,0.5
145,19,0,2,2,10,60,104.27922157201101,105.287773535616,"[1, 0, 253]",253,a,0.48532373714260757,colour,0.5
145,19,0,2,2,11,61,105.79467528610257,106.5757317848329,"[55, 0, 199]",199,l,0.25765931251225993,colour,0.5
145,19,0,2,2,12,62,107.09168765207869,107.92772499809507,"[24, 0, 230]",230,a,0.31301234391867183,colour,0.5
145,19,0,2,2,13,63,108.43537505524,109.06370177064673,"[76, 0, 178]",178,l,0.10497679066611454,colour,0.5
145,19,0,2,2,14,64,109.57603740901686,110.15969888138352,"[93, 0, 161]",161,l,0.0601807908678893,colour,0.5
145,19,0,2,2,15,65,110.66981756282621,112.31971835313016,"[68, 0, 186]",186,l,1.1266993453609757,colour,0.5
145,19,0,2,2,16,66,112.82603760596248,113.75971282352111,"[94, 0, 160]",160,l,0.410329231293872,colour,0.5
145,19,0,2,2,17,67,114.27910932601662,115.22369682395947,"[13, 0, 241]",241,a,0.42132421923452057,colour,0.5
145,19,0,2,2,18,68,115.73226532904664,116.77572737375158,"[89, 0, 165]",165,l,0.5202160952030681,colour,0.5
145,19,0,2,2,19,69,117.2948269166809,118.5276814387762,"[14, 0, 240]",240,a,0.709603058785433,colour,0.5
145,19,0,2,2,20,70,119.04477748903446,120.23176514514489,"[70, 0, 184]",184,l,0.6637684880988672,colour,0.5
145,19,0,2,2,21,71,120.74785058756243,121.64772439943044,"[84, 0, 170]",170,l,0.3765400347765535,colour,0.5
145,19,0,2,2,22,72,122.15416023056605,123.03976580363815,"[19, 0, 235]",235,a,0.3623588358750567,colour,0.5
145,19,0,2,2,23,73,123.56038637828897,124.42370895438944,"[26, 0, 228]",228,a,0.3404267553414684,colour,0.5
145,19,0,2,2,24,74,124.93520412623184,125.78376773191849,"[42, 0, 212]",212,a,0.3254610159783624,colour,0.5
145,19,0,2,2,25,75,126.2946666215139,127.15174320005463,"[78, 0, 176]",176,l,0.333707749232417,colour,0.5
145,19,0,2,2,26,76,127.66976124289795,128.32771499440423,"[75, 0, 179]",179,l,0.13466959897777997,colour,0.5
145,19,0,2,2,27,77,128.84160238449113,129.58366619850858,"[39, 0, 215]",215,a,0.21890372285270132,colour,0.5
145,19,0,2,2,28,78,130.09155453226413,130.87967898431816,"[97, 0, 157]",157,l,0.2649852347385604,colour,0.5
145,19,0,2,2,29,79,131.38845228916034,133.39967610136955,"[29, 0, 225]",225,a,1.487565900228219,colour,0.5
145,19,0,2,2,30,80,133.91972599373548,134.52775508788181,"[99, 0, 155]",155,l,0.08478353850659914,colour,0.5
145,19,0,2,2,31,81,135.04465500306105,136.20771732597495,"[41, 0, 213]",213,a,0.6398738748684991,colour,0.5
145,19,0,2,2,32,82,136.71652095692116,137.9437824774941,"[31, 0, 223]",223,a,0.7039639773138333,colour,0.5
145,19,0,2,2,33,83,138.4516814450617,139.5277137341036,"[57, 0, 197]",197,a,0.553542129258858,colour,0.5
145,19,0,2,2,34,84,140.04464397538686,141.03965355764376,"[85, 0, 169]",169,l,0.471750635857461,colour,0.5
145,19,0,2,2,35,85,141.56028949227766,142.495666122908,"[80, 0, 174]",174,l,0.41215391803416423,colour,0.5
145,19,0,2,2,36,86,143.01342147073592,143.9756776704453,"[82, 0, 172]",172,l,0.440090174874058,colour,0.5
145,19,0,2,2,37,87,144.4821324061777,147.25578303201473,"[48, 0, 206]",206,l,2.2504125532577746,colour,0.5
145,19,0,2,2,38,88,147.76336140927742,148.5836764384876,"[40, 0, 214]",214,a,0.296951713738963,colour,0.5
145,19,0,2,2,39,89,149.09161400294397,149.82377614444704,"[96, 0, 158]",158,l,0.20915289322147146,colour,0.5
145,19,0,2,2,40,90,150.34145666161203,151.27174559462583,"[47, 0, 207]",207,a,0.40709063882241026,colour,0.5
145,19,0,2,2,41,91,151.77893288320047,152.58371582307154,"[38, 0, 216]",216,a,0.2814397105248645,colour,0.5
145,19,0,2,2,42,92,153.0915352338343,153.65566038849647,"[10, 0, 244]",244,a,0.04097294044913724,colour,0.5
145,19,0,2,2,43,93,154.16970689222217,156.23166313912952,"[64, 0, 190]",190,a,1.5388052142225206,colour,0.5
145,19,0,2,2,44,94,156.74263213321683,157.68764695365098,"[21, 0, 233]",233,a,0.4221658672904596,colour,0.5
145,19,0,2,2,45,95,158.1958310654445,159.15163568020216,"[44, 0, 210]",210,a,0.4325740252388641,colour,0.5
145,19,0,2,2,46,96,159.66450025324593,160.75162914238172,"[66, 0, 188]",188,a,0.5638014136056881,colour,0.5
145,19,0,2,2,47,97,161.2583016747085,162.31167720729718,"[33, 0, 221]",221,a,0.5302753059659153,colour,0.5
145,19,0,2,2,48,98,162.82073880711687,164.05567165248794,"[51, 0, 203]",203,a,0.711570317595033,colour,0.5
145,19,0,2,2,49,99,164.57071970560355,165.36770174544654,"[34, 0, 220]",220,a,0.27358642901526764,colour,0.5
145,19,0,2,2,50,100,165.8831743641058,166.86370027402882,"[27, 0, 227]",227,a,0.4570302623033058,colour,0.5
145,19,0,2,3,1,101,178.6168811680982,180.10365189405275,"[1, 0, 253]",253,a,0.9627343282918446,colour,0.5
145,19,0,2,3,2,102,180.6176991854445,181.50358675199095,"[29, 0, 225]",225,a,0.3626609154744074,colour,0.5
145,19,0,2,3,3,103,182.02391863780213,183.1916362158372,"[69, 0, 185]",185,l,0.6445263731002342,colour,0.5
145,19,0,2,3,4,104,183.7113631547836,185.12758155952906,"[74, 0, 180]",180,l,0.8929173168435227,colour,0.5
145,19,0,2,3,5,105,185.64891578242532,186.65561352088116,"[71, 0, 183]",183,l,0.4833958628878463,colour,0.5
145,19,0,2,3,6,106,187.1644388133136,188.44763389372383,"[44, 0, 210]",210,a,0.7599357401486486,colour,0.5
145,19,0,2,3,7,107,188.96136610864778,189.56764455905068,"[81, 0, 173]",173,l,0.08299311634618789,colour,0.5
145,19,0,2,3,8,108,190.086363647104,191.13572392368224,"[64, 0, 190]",190,a,0.5260513117827941,colour,0.5
145,19,0,2,3,9,109,191.64892759779468,192.21564701350871,"[95, 0, 159]",159,l,0.04350182312191464,colour,0.5
145,19,0,2,3,10,110,192.72702875782852,193.84764870232902,"[18, 0, 236]",236,a,0.597347607370466,colour,0.5
145,19,0,2,3,11,111,194.3675520841207,195.6156161359977,"[91, 0, 163]",163,l,0.7246952225686982,colour,0.5
145,19,0,2,3,12,112,196.1331631395151,197.2876100896974,"[4, 0, 250]",250,a,0.63110687158769,colour,0.5
145,19,0,2,3,13,113,197.805077930243,199.02363546279958,"[42, 0, 212]",212,a,0.695569158095168,colour,0.5
145,19,0,2,3,14,114,199.53956533622113,200.59158840298187,"[13, 0, 241]",241,a,0.5287979910790455,colour,0.5
145,19,0,2,3,15,115,201.10198553325608,201.82355716629536,"[39, 0, 215]",215,a,0.19827960361726582,colour,0.5
145,19,0,2,3,16,116,202.3363902316778,204.04757458055974,"[38, 0, 216]",216,a,1.1879734516551252,colour,0.5
145,19,0,2,3,17,117,204.5550926994474,205.7036331470008,"[54, 0, 200]",200,a,0.6252224243071396,colour,0.5
145,19,0,2,3,18,118,206.21131825639168,208.1836123992107,"[60, 0, 194]",194,a,1.4490221995220054,colour,0.5
145,19,0,2,3,19,119,208.69574914555415,209.69559751497582,"[41, 0, 213]",213,a,0.4766559829295147,colour,0.5
145,19,0,2,3,20,120,210.21121231192956,211.22360387639492,"[27, 0, 227]",227,a,0.48898138134973124,colour,0.5
145,19,0,2,3,21,121,211.74253524720552,212.879648264352,"[92, 0, 162]",162,l,0.6139198429591488,colour,0.5
145,19,0,2,3,22,122,213.39886162863695,214.7276092862594,"[90, 0, 164]",164,l,0.8056072587496601,colour,0.5
145,19,0,2,3,23,123,215.24248995495145,216.3355458267033,"[9, 0, 245]",245,a,0.5698989313386846,colour,0.5
145,19,0,2,3,24,124,216.85190262875403,217.9196582522709,"[56, 0, 198]",198,a,0.5444376002706122,colour,0.5
145,19,0,2,3,25,125,218.4301443916629,219.67958217707928,"[47, 0, 207]",207,a,0.7261233067838475,colour,0.5
145,19,0,2,3,26,126,220.1955561611976,221.37558653458836,"[50, 0, 204]",204,a,0.6566918701864779,colour,0.5
145,19,0,2,3,27,127,221.88307944731787,222.93553889502073,"[75, 0, 179]",179,a,0.5290996768162586,colour,0.5
145,19,0,2,3,28,128,223.44559219808434,224.70366780541372,"[63, 0, 191]",191,a,0.7347493133274838,colour,0.5
145,19,0,2,3,29,129,225.2112162503763,226.43153269746108,"[59, 0, 195]",195,a,0.6969834577175789,colour,0.5
145,19,0,2,3,30,130,226.9455339089327,227.89556238395744,"[68, 0, 186]",186,a,0.42671675331075676,colour,0.5
145,19,0,2,3,31,131,228.41432833962608,229.56753388844663,"[58, 0, 196]",196,a,0.6299013101670425,colour,0.5
145,19,0,2,3,32,132,230.08623958574026,230.75954307607026,"[48, 0, 206]",206,a,0.15002051935880445,colour,0.5
145,19,0,2,3,33,133,231.27363723510643,232.20761177534587,"[98, 0, 156]",156,l,0.41061201243428513,colour,0.5
145,19,0,2,3,34,134,232.7269149364438,233.59957322888658,"[32, 0, 222]",222,a,0.3494678751740139,colour,0.5
145,19,0,2,3,35,135,234.1174175858323,234.99157997468137,"[85, 0, 169]",169,l,0.35083570101414807,colour,0.5
145,19,0,2,3,36,136,235.50802657354507,236.4235360561579,"[36, 0, 218]",218,a,0.39237105296342634,colour,0.5
145,19,0,2,3,37,137,236.92998882266693,237.90359013905982,"[19, 0, 235]",235,a,0.45028526239912026,colour,0.5
145,19,0,2,3,38,138,238.41428934890428,239.3995410123316,"[79, 0, 175]",175,l,0.4619415170745924,colour,0.5
145,19,0,2,3,39,139,239.91428029045346,240.9275339829619,"[88, 0, 166]",166,l,0.48991912775090896,colour,0.5
145,19,0,2,3,40,140,241.44557211195934,242.19157359437668,"[16, 0, 238]",238,a,0.22271457299939357,colour,0.5
145,19,0,2,3,41,141,242.71117450273596,243.47956256355974,"[84, 0, 170]",170,l,0.24510942213237286,colour,0.5
145,19,0,2,3,42,142,243.99235073055024,245.04750998990494,"[24, 0, 230]",230,a,0.5319404852052685,colour,0.5
145,19,0,2,3,43,143,245.5548945950868,246.31158701665117,"[31, 0, 223]",223,a,0.2333858198253438,colour,0.5
145,19,0,2,3,44,144,246.8205221920216,247.79171947480063,"[34, 0, 220]",220,a,0.4478552349610254,colour,0.5
145,19,0,2,3,45,145,248.304837684409,249.43951594797545,"[61, 0, 193]",193,a,0.611340548057342,colour,0.5
145,19,0,2,3,46,146,249.94554375504958,251.0475383467856,"[76, 0, 178]",178,l,0.5790133064729162,colour,0.5
145,19,0,2,3,47,147,251.55483591210213,252.4474834447028,"[17, 0, 237]",237,a,0.36930194016895257,colour,0.5
145,19,0,2,3,48,148,252.96107072444283,253.94354813935934,"[30, 0, 224]",224,a,0.4591349732654635,colour,0.5
145,19,0,2,3,49,149,254.4611136536114,255.46372563770274,"[11, 0, 243]",243,a,0.47930813929997385,colour,0.5
145,19,0,2,3,50,150,255.97675089974655,257.0476541373937,"[20, 0, 234]",234,a,0.5476257805130444,colour,0.5
145,19,0,2,4,1,151,297.4289604917576,298.70347363952897,"[10, 0, 244]",244,a,0.7503794702643063,colour,0.5
145,19,0,2,4,2,152,299.21096182611655,300.3115381797834,"[78, 0, 176]",176,l,0.5772882626915816,colour,0.5
145,19,0,2,4,3,153,300.82033787228283,302.2314748809149,"[73, 0, 181]",181,l,0.8878839699318632,colour,0.5
145,19,0,2,4,4,154,302.7422158384288,303.7034125934588,"[55, 0, 199]",199,a,0.43803469467093237,colour,0.5
145,19,0,2,4,5,155,304.2109956968343,305.12744568276685,"[42, 0, 212]",212,a,0.39313196268631145,colour,0.5
145,19,0,2,4,6,156,305.64844553076546,306.65543432111735,"[7, 0, 247]",247,a,0.4836916409258265,colour,0.5
145,19,0,2,4,7,157,307.16401424776996,308.13546280402807,"[68, 0, 186]",186,l,0.4481793698796537,colour,0.5
145,19,0,2,4,8,158,308.6491304282681,309.7914733212965,"[35, 0, 219]",219,a,0.619677865790436,colour,0.5
145,19,0,2,4,9,159,310.3046951122815,311.3834449360438,"[87, 0, 167]",167,l,0.5554652773716953,colour,0.5
145,19,0,2,4,10,160,311.89827834328753,313.07145068305545,"[75, 0, 179]",179,l,0.649740495136939,colour,0.5
145,19,0,2,4,11,161,313.58590678620385,315.29545076811337,"[79, 0, 175]",175,l,1.1863007893553004,colour,0.5
145,19,0,2,4,12,162,315.80460689088795,317.19947689425317,"[72, 0, 182]",182,l,0.8715602509037126,colour,0.5
145,19,0,2,4,13,163,317.71088620775845,319.35947352292715,"[76, 0, 178]",178,l,1.1256406883476302,colour,0.5
145,19,0,2,4,14,164,319.86710231241887,320.93540892595774,"[0, 0, 254]",254,a,0.5449610211071558,colour,0.5
145,19,0,2,4,15,165,321.44517944788095,322.1835415069945,"[41, 0, 213]",213,a,0.215098780405242,colour,0.5
145,19,0,2,4,16,166,322.69520839554025,323.77543120185146,"[77, 0, 177]",177,l,0.5568736692948733,colour,0.5
145,19,0,2,4,17,167,324.28900824161246,325.37552312543266,"[8, 0, 246]",246,a,0.5632622389530297,colour,0.5
145,19,0,2,4,18,168,325.88273089396534,327.04746902995976,"[57, 0, 197]",197,a,0.641468161920784,colour,0.5
145,19,0,2,4,19,169,327.5546307185432,328.86344151746016,"[86, 0, 168]",168,l,0.785895679728128,colour,0.5
145,19,0,2,4,20,170,329.38273640780244,330.4554190399067,"[32, 0, 222]",222,a,0.5501991677156184,colour,0.5
145,19,0,2,4,21,171,330.97650710929884,332.27941652559093,"[90, 0, 164]",164,l,0.7797091528773308,colour,0.5
145,19,0,2,4,22,172,332.78891450635274,334.0074314728263,"[61, 0, 193]",193,a,0.6952371462539304,colour,0.5
145,19,0,2,4,23,173,334.5232794263575,335.9434098995407,"[4, 0, 250]",250,a,0.8972425293468405,colour,0.5
145,19,0,2,4,24,174,336.46080409095157,337.4313783099642,"[21, 0, 233]",233,a,0.4473818325204775,colour,0.5
145,19,0,2,4,25,175,337.94514833408175,338.89545565180015,"[49, 0, 205]",205,a,0.4270586113270838,colour,0.5
145,19,0,2,4,26,176,339.41385848182836,340.5274112606712,"[89, 0, 165]",165,l,0.5901835556724109,colour,0.5
145,19,0,2,4,27,177,341.0389273063338,342.0313764982857,"[98, 0, 156]",156,l,0.46920481784036383,colour,0.5
145,19,0,2,4,28,178,342.53890249406686,343.5113695350883,"[71, 0, 183]",183,a,0.4493160083075054,colour,0.5
145,19,0,2,4,29,179,344.02331566016073,345.07939966901904,"[22, 0, 232]",232,a,0.5328853208338842,colour,0.5
145,19,0,2,4,30,180,345.5857882386772,346.7995601532166,"[59, 0, 195]",195,a,0.6905574726988561,colour,0.5
145,19,0,2,4,31,181,347.3201448879263,348.3673854874214,"[43, 0, 211]",211,a,0.5239592039142735,colour,0.5
145,19,0,2,4,32,182,348.88256862957496,350.03137492289534,"[6, 0, 248]",248,a,0.6256395067903213,colour,0.5
145,19,0,2,4,33,183,350.53884656800074,351.47935461308225,"[99, 0, 155]",155,l,0.4171589080360718,colour,0.5
145,19,0,2,4,34,184,351.9919517649396,353.2474043605034,"[33, 0, 221]",221,a,0.7323696981475223,colour,0.5
145,19,0,2,4,35,185,353.75752579886466,358.7994703564327,"[94, 0, 160]",160,a,4.51864662047592,colour,0.5
145,19,0,2,4,36,186,359.3200448511343,361.2073770433781,"[9, 0, 245]",245,a,1.364010624383809,colour,0.5
145,19,0,2,4,37,187,361.72632259264356,362.41533934132895,"[81, 0, 173]",173,l,0.16568494084640406,colour,0.5
145,19,0,2,4,38,188,362.9293578819779,363.8793587878463,"[48, 0, 206]",206,l,0.42659544889465906,colour,0.5
145,19,0,2,4,39,189,364.3980865404883,365.6953793245193,"[38, 0, 216]",216,a,0.7738644840137567,colour,0.5
145,19,0,2,4,40,190,366.21076293408987,367.09537562236073,"[93, 0, 161]",161,l,0.3613671326311305,colour,0.5
145,19,0,2,4,41,191,367.61693197418936,368.58333536819555,"[51, 0, 203]",203,a,0.44305150004220195,colour,0.5
145,19,0,2,4,42,192,369.1012577065849,370.0553896590427,"[24, 0, 230]",230,a,0.43089821218745783,colour,0.5
145,19,0,2,4,43,193,370.57002653731615,371.38333387157763,"[16, 0, 238]",238,a,0.29006296014995314,colour,0.5
145,19,0,2,4,44,194,371.8980530636036,372.78335655710544,"[23, 0, 231]",231,a,0.36187125503784046,colour,0.5
145,19,0,2,4,45,195,373.3044162696169,374.2713836505136,"[25, 0, 229]",229,a,0.44365093304077163,colour,0.5
145,19,0,2,4,46,196,374.7888125003374,375.7033294920111,"[28, 0, 226]",226,a,0.39119502998073585,colour,0.5
145,19,0,2,4,47,197,376.21065147579066,377.34331167445634,"[62, 0, 192]",192,a,0.6094457568251528,colour,0.5
145,19,0,2,4,48,198,377.8512838972965,378.81538880831795,"[53, 0, 201]",201,a,0.4409003152977675,colour,0.5
145,19,0,2,4,49,199,379.33566516192514,380.57534305923036,"[30, 0, 224]",224,a,0.7164536093187053,colour,0.5
145,19,0,2,4,50,200,381.0856436973263,381.98334151218296,"[47, 0, 207]",207,a,0.3744459576846566,colour,0.5
145,19,0,2,5,1,201,392.3035545354069,394.0953153639857,"[58, 0, 196]",196,l,1.26774372937507,colour,0.5
145,19,0,2,5,2,202,394.61680515590706,396.1193033186137,"[25, 0, 229]",229,a,0.9792151917354204,colour,0.5
145,19,0,2,5,3,203,396.6325499218947,397.19937331284746,"[4, 0, 250]",250,a,0.043757822742918506,colour,0.5
145,19,0,2,5,4,204,397.7105471066898,398.3913293313235,"[52, 0, 202]",202,a,0.15755675511900336,colour,0.5
145,19,0,2,5,5,205,398.8979711437132,399.55134762151283,"[95, 0, 159]",159,l,0.1299804731097538,colour,0.5
145,19,0,2,5,6,206,400.0699328020564,401.08734550420195,"[55, 0, 199]",199,a,0.49416281419689767,colour,0.5
145,19,0,2,5,7,207,401.60111513445736,403.27932318419334,"[33, 0, 221]",221,a,1.154888057266362,colour,0.5
145,19,0,2,5,8,208,403.78864747902844,404.97534565860406,"[82, 0, 172]",172,l,0.6634211162745487,colour,0.5
145,19,0,2,5,9,209,405.49175641752663,406.75925793184433,"[66, 0, 188]",188,l,0.7444367338030133,colour,0.5
145,19,0,2,5,10,210,407.2728448177513,408.5673334210296,"[51, 0, 203]",203,a,0.770985472627217,colour,0.5
145,19,0,2,5,11,211,409.0855527189851,410.0232632787083,"[63, 0, 191]",191,a,0.414458702551201,colour,0.5
145,19,0,2,5,12,212,410.5386271959869,411.4634735764994,"[12, 0, 242]",242,a,0.4015311141847633,colour,0.5
145,19,0,2,5,13,213,411.9760439468664,412.98330488454667,"[17, 0, 237]",237,a,0.48387596069369465,colour,0.5
145,19,0,2,5,14,214,413.4917828051839,414.50326970627066,"[26, 0, 228]",228,a,0.48839533908176236,colour,0.5
145,19,0,2,5,15,215,415.02304114977596,415.9673828880477,"[80, 0, 174]",174,l,0.4210315919481218,colour,0.5
145,19,0,2,5,16,216,416.47612665445195,417.83133679864113,"[91, 0, 163]",163,l,0.8320535976672545,colour,0.5
145,19,0,2,5,17,217,418.3510999713908,419.39126316527836,"[62, 0, 192]",192,a,0.5168983397888951,colour,0.5
145,19,0,2,5,18,218,419.89787583309226,420.81531200843165,"[34, 0, 220]",220,a,0.3940192968584597,colour,0.5
145,19,0,2,5,19,219,421.3354879313847,422.3032776619366,"[87, 0, 167]",167,l,0.4445461441355292,colour,0.5
145,19,0,2,5,20,220,422.8198191775882,423.7512864966993,"[99, 0, 155]",155,l,0.408164261985803,colour,0.5
145,19,0,2,5,21,221,424.2573761375097,425.33536505154916,"[94, 0, 160]",160,l,0.5548256721231155,colour,0.5
145,19,0,2,5,22,222,425.8510798852658,426.71132889023283,"[84, 0, 170]",170,l,0.33696445857640356,colour,0.5
145,19,0,2,5,23,223,427.22610873446683,428.43130544852465,"[5, 0, 249]",249,a,0.6818916877091397,colour,0.5
145,19,0,2,5,24,224,428.94478126996546,429.92732642631745,"[57, 0, 197]",197,a,0.4595394526841119,colour,0.5
145,19,0,2,5,25,225,430.44485019292915,431.39128955293563,"[93, 0, 161]",161,l,0.4232379150635097,colour,0.5
145,19,0,2,5,26,226,431.8978762269253,432.75123332752264,"[37, 0, 217]",217,a,0.3299992989632301,colour,0.5
145,19,0,2,5,27,227,433.2573103652976,434.09525353022036,"[22, 0, 232]",232,a,0.3147515661257785,colour,0.5
145,19,0,2,5,28,228,434.6166251684772,435.42333952721674,"[16, 0, 238]",238,a,0.2833782186207827,colour,0.5
145,19,0,2,5,29,229,435.94475094386144,436.81539786676876,"[15, 0, 239]",239,a,0.347339533502236,colour,0.5
145,19,0,2,5,30,230,437.3354800544621,438.38333308388246,"[6, 0, 248]",248,a,0.524606292223325,colour,0.5
145,19,0,2,5,31,231,438.8985642752086,440.0712608494505,"[10, 0, 244]",244,a,0.650088654627325,colour,0.5
145,19,0,2,5,32,232,440.5854042391875,442.2472629699332,"[30, 0, 224]",224,a,1.1386387750681024,colour,0.5
145,19,0,2,5,33,233,442.7572611345968,444.35928526474163,"[18, 0, 236]",236,a,1.0787722729728557,colour,0.5
145,19,0,2,5,34,234,444.86668483607355,445.83922237547813,"[88, 0, 166]",166,l,0.4492659899406135,colour,0.5
145,19,0,2,5,35,235,446.35095503620687,447.2232876183698,"[97, 0, 157]",157,l,0.34898659586906433,colour,0.5
145,19,0,2,5,36,236,447.74161758692935,448.6632726364769,"[90, 0, 164]",164,l,0.3985599428997375,colour,0.5
145,19,0,2,5,37,237,449.1790780546726,450.3352299625112,"[20, 0, 234]",234,a,0.6329264382948168,colour,0.5
145,19,0,2,5,38,238,450.8509321931633,451.78325415722793,"[43, 0, 211]",211,a,0.40902284541516565,colour,0.5
145,19,0,2,5,39,239,452.3041488484305,453.167235904868,"[59, 0, 195]",195,a,0.3397914824017789,colour,0.5
145,19,0,2,5,40,240,453.67903788242256,454.67925134676625,"[32, 0, 222]",222,a,0.47718058532336727,colour,0.5
145,19,0,2,5,41,241,455.1948031283973,456.15124183459557,"[36, 0, 218]",218,a,0.43333217804320157,colour,0.5
145,19,0,2,5,42,242,456.66348019312136,457.6232335039822,"[13, 0, 241]",241,a,0.4365471397759393,colour,0.5
145,19,0,2,5,43,243,458.1321860085591,459.1112712312315,"[27, 0, 227]",227,a,0.4557589286705479,colour,0.5
145,19,0,2,5,44,244,459.63224784232443,460.57521269633435,"[11, 0, 243]",243,a,0.4198402089823503,colour,0.5
145,19,0,2,5,45,245,461.08527939012856,461.99923357644,"[86, 0, 168]",168,l,0.39070587372407317,colour,0.5
145,19,0,2,5,46,246,462.5071423901536,463.6312915851595,"[53, 0, 201]",201,a,0.6011911466484889,colour,0.5
145,19,0,2,5,47,247,464.14776339015225,465.08724192282534,"[24, 0, 230]",230,a,0.41613569715991616,colour,0.5
145,19,0,2,5,48,248,465.60097807619604,466.61523725654115,"[83, 0, 171]",171,l,0.4910455261997413,colour,0.5
145,19,0,2,5,49,249,467.13218915931066,468.0072223408206,"[75, 0, 179]",179,l,0.3517990473774262,colour,0.5
145,19,0,2,5,50,250,468.52269062717096,469.43928869906813,"[41, 0, 213]",213,a,0.3936128481873311,colour,0.5
145,19,0,2,6,1,251,499.84999444676214,501.29525148222456,"[39, 0, 215]",215,a,0.9211997640086338,colour,0.5
145,19,0,2,6,2,252,501.80394168564817,502.57515834562946,"[14, 0, 240]",240,a,0.24791123979957774,colour,0.5
145,19,0,2,6,3,253,503.08512657805113,504.58322627295274,"[34, 0, 220]",220,a,0.9748218439344782,colour,0.5
145,19,0,2,6,4,254,505.10074216267094,505.9591834162711,"[10, 0, 244]",244,a,0.3350885719410144,colour,0.5
145,19,0,2,6,5,255,506.47574304882437,507.39117533768876,"[13, 0, 241]",241,a,0.3921375025238376,colour,0.5
145,19,0,2,6,6,256,507.8975706027413,508.78319429271505,"[23, 0, 231]",231,a,0.3622926698299125,colour,0.5
145,19,0,2,6,7,257,509.3038597657578,510.15915301139466,"[74, 0, 180]",180,l,0.33198467470356263,colour,0.5
145,19,0,2,6,8,258,510.67885395654594,511.61513840127736,"[94, 0, 160]",160,l,0.4129447599989362,colour,0.5
145,19,0,2,6,9,259,512.1319835719187,513.1191288450209,"[5, 0, 249]",249,a,0.46398124349070713,colour,0.5
145,19,0,2,6,10,260,513.6319827842235,514.5111619784439,"[8, 0, 246]",246,a,0.35594860470155254,colour,0.5
145,19,0,2,6,11,261,515.0226217042073,515.9991997057223,"[71, 0, 183]",183,a,0.453400975005934,colour,0.5
145,19,0,2,6,12,262,516.5069935165229,517.3911670669331,"[76, 0, 178]",178,l,0.3609602901269682,colour,0.5
145,19,0,2,6,13,263,517.8975513042824,518.7751724453119,"[66, 0, 188]",188,l,0.354392520734109,colour,0.5
145,19,0,2,6,14,264,519.2881803781493,520.1191256942402,"[30, 0, 224]",224,a,0.3076922773907427,colour,0.5
145,19,0,2,6,15,265,520.6319059843372,521.775323288166,"[67, 0, 187]",187,a,0.6200535944954026,colour,0.5
145,19,0,2,6,16,266,522.2883008948993,523.1271869262273,"[2, 0, 252]",252,a,0.3156554418092128,colour,0.5
145,19,0,2,6,17,267,523.6475987627055,524.5111580399971,"[18, 0, 236]",236,a,0.34021959255915135,colour,0.5
145,19,0,2,6,18,268,525.0226248549588,525.935204520094,"[41, 0, 213]",213,a,0.38933371563325636,colour,0.5
145,19,0,2,6,19,269,526.4445043964952,527.3671468169778,"[12, 0, 242]",242,a,0.39935039106057957,colour,0.5
145,19,0,2,6,20,270,527.8818065382948,529.6791371315194,"[72, 0, 182]",182,a,1.2737675980024505,colour,0.5
145,19,0,2,6,21,271,530.1944691473036,531.1191119096475,"[55, 0, 199]",199,a,0.4013720005750656,colour,0.5
145,19,0,2,6,22,272,531.6320111411042,532.4951541236078,"[81, 0, 173]",173,l,0.3398269284807611,colour,0.5
145,19,0,2,6,23,273,533.0068978120398,533.8791437481414,"[33, 0, 221]",221,a,0.3488940421375446,colour,0.5
145,19,0,2,6,24,274,534.3976509472413,535.2391099719389,"[91, 0, 163]",163,l,0.31822961673606187,colour,0.5
145,19,0,2,6,25,275,535.7569972580532,536.823104243842,"[63, 0, 191]",191,a,0.5427720271982253,colour,0.5
145,19,0,2,6,26,276,537.33509881192,538.2631743326201,"[35, 0, 219]",219,a,0.40552037640009075,colour,0.5
145,19,0,2,6,27,277,538.7725982703851,539.6790914454323,"[60, 0, 194]",194,a,0.3832476194074843,colour,0.5
145,19,0,2,6,28,278,540.1944624519383,541.1351473336981,"[57, 0, 197]",197,a,0.41779024255811237,colour,0.5
145,19,0,2,6,29,279,541.6476204241917,542.69513238332,"[1, 0, 253]",253,a,0.5242159912304487,colour,0.5
145,19,0,2,6,30,280,543.2100993042404,544.2391072150203,"[65, 0, 189]",189,a,0.5057162751909345,colour,0.5
145,19,0,2,6,31,281,544.7569732334523,545.6631147043954,"[22, 0, 232]",232,a,0.3828718907025177,colour,0.5
145,19,0,2,6,32,282,546.178934301046,547.0631677159981,"[77, 0, 177]",177,l,0.3610201546398457,colour,0.5
145,19,0,2,6,33,283,547.5695306856942,548.4471159867535,"[7, 0, 247]",247,a,0.35435274231713265,colour,0.5
145,19,0,2,6,34,284,548.960124707286,551.1110943945532,"[61, 0, 193]",193,l,1.6277012885839213,colour,0.5
145,19,0,2,6,35,285,551.6319989319018,552.5350975516194,"[16, 0, 238]",238,a,0.37989599324646406,colour,0.5
145,19,0,2,6,36,286,553.0537599258823,553.8791134220082,"[9, 0, 245]",245,a,0.3018972330610268,colour,0.5
145,19,0,2,6,37,287,554.3975804488582,555.3911477685033,"[58, 0, 196]",196,a,0.4703020717133768,colour,0.5
145,19,0,2,6,38,288,555.8975276735728,556.8551203474053,"[80, 0, 174]",174,l,0.43424471834441647,colour,0.5
145,19,0,2,6,39,289,557.3662886273814,558.3670735617052,"[32, 0, 222]",222,a,0.47824081769795157,colour,0.5
145,19,0,2,6,40,290,558.8819392642763,559.7270886223414,"[79, 0, 175]",175,l,0.3218632363132201,colour,0.5
145,19,0,2,6,41,291,560.2412906950922,561.3511078483134,"[83, 0, 171]",171,l,0.5867181081557646,colour,0.5
145,19,0,2,6,42,292,561.8662874458532,575.5910748282913,"[40, 0, 214]",214,a,13.201517802197486,colour,0.5
145,19,0,2,6,43,293,576.1006716643169,576.9271499835013,"[82, 0, 172]",172,l,0.30321307128178887,colour,0.5
145,19,0,2,6,44,294,577.4444138120161,578.1991291285958,"[73, 0, 181]",181,l,0.2314114717883058,colour,0.5
145,19,0,2,6,45,295,578.7100863073138,579.4710456522298,"[46, 0, 208]",208,a,0.2377523861359805,colour,0.5
145,19,0,2,6,46,296,579.9912578089861,580.8551526427327,"[53, 0, 201]",201,a,0.3408599855029024,colour,0.5
145,19,0,2,6,47,297,581.366070830758,582.3510952452489,"[84, 0, 170]",170,l,0.46160438522929326,colour,0.5
145,19,0,2,6,48,298,582.8662342767057,583.7110575305996,"[21, 0, 233]",233,a,0.3215292552486062,colour,0.5
145,19,0,2,6,49,299,584.2255608952255,585.111068400729,"[93, 0, 161]",161,l,0.3625246448791586,colour,0.5
145,19,0,2,6,50,300,585.6318327290355,586.5831727099721,"[20, 0, 234]",234,a,0.428094031434739,colour,0.5
145,19,0,2,7,1,301,591.2560370624415,592.1750509833219,"[24, 0, 230]",230,a,0.39496373865404166,colour,0.5
145,19,0,2,7,2,302,592.6942923106253,593.799026098568,"[3, 0, 251]",251,a,0.5814197031431831,colour,0.5
145,19,0,2,7,3,303,594.3193824028131,595.4630824878113,"[34, 0, 220]",220,a,0.6204683139512781,colour,0.5
145,19,0,2,7,4,304,595.9755780275154,596.9030454505701,"[64, 0, 190]",190,l,0.404344747250434,colour,0.5
145,19,0,2,7,5,305,597.4130381013965,598.2470975547621,"[63, 0, 191]",191,l,0.3107796331460122,colour,0.5
145,19,0,2,7,6,306,598.7568290859635,599.6470761295641,"[80, 0, 174]",174,l,0.36698927872930653,colour,0.5
145,19,0,2,7,7,307,600.1630891044042,601.0390214354265,"[52, 0, 202]",202,a,0.35322240539244376,colour,0.5
145,19,0,2,7,8,308,601.5536110522517,602.2550961652887,"[86, 0, 168]",168,l,0.17811588986660354,colour,0.5
145,19,0,2,7,9,309,602.7724505782826,603.7510238016548,"[67, 0, 187]",187,a,0.45527922472683713,colour,0.5
145,19,0,2,7,10,310,604.2724722397979,605.1190548020531,"[72, 0, 182]",182,a,0.32341223111143336,colour,0.5
145,19,0,2,7,11,311,605.631735055329,606.5510313634877,"[68, 0, 186]",186,a,0.3959597741777543,colour,0.5
145,19,0,2,7,12,312,607.0692837444949,607.9030690813088,"[54, 0, 200]",200,a,0.3105169381306041,colour,0.5
145,19,0,2,7,13,313,608.4129770553263,609.3670479617431,"[5, 0, 249]",249,a,0.43062488333089277,colour,0.5
145,19,0,2,7,14,314,609.8817439168633,611.3110462666082,"[61, 0, 193]",193,a,0.9059689665446058,colour,0.5
145,19,0,2,7,15,315,611.8191783907823,612.7990603631479,"[36, 0, 218]",218,a,0.4565954567515291,colour,0.5
145,19,0,2,7,16,316,613.3192496768606,614.1350339061755,"[17, 0, 237]",237,a,0.29251464910339564,colour,0.5
145,19,0,2,7,17,317,614.647351033811,615.5509935543232,"[2, 0, 252]",252,a,0.3803497033950407,colour,0.5
145,19,0,2,7,18,318,616.0693282490538,616.9829929588304,"[19, 0, 235]",235,a,0.39051485862000845,colour,0.5
145,19,0,2,7,19,319,617.4910541907884,618.4150108740723,"[12, 0, 242]",242,a,0.4007717798522208,colour,0.5
145,19,0,2,7,20,320,618.9285552246438,619.8390270280361,"[71, 0, 183]",183,l,0.38719001394929364,colour,0.5
145,19,0,2,7,21,321,620.3504564276664,621.230974303151,"[78, 0, 176]",176,l,0.35727192598278634,colour,0.5
145,19,0,2,7,22,322,621.7410480861727,622.7270571147092,"[42, 0, 212]",212,a,0.46286666044034064,colour,0.5
145,19,0,2,7,23,323,623.2411288245348,624.1270337202586,"[57, 0, 197]",197,a,0.362846022908343,colour,0.5
145,19,0,2,7,24,324,624.6473092861706,625.8790295328945,"[58, 0, 196]",196,a,0.7084309742203914,colour,0.5
145,19,0,2,7,25,325,626.3973000308033,627.4230244507198,"[4, 0, 250]",250,a,0.5025678733945824,colour,0.5
145,19,0,2,7,26,326,627.944182624633,628.8069809922308,"[38, 0, 216]",216,a,0.33952918121940456,colour,0.5
145,19,0,2,7,27,327,629.3192610983679,630.199070445582,"[77, 0, 177]",177,l,0.35666619142284617,colour,0.5
145,19,0,2,7,28,328,630.709806676954,631.6950173804071,"[10, 0, 244]",244,a,0.46192064325441606,colour,0.5
145,19,0,2,7,29,329,632.2097960431129,633.2390985504026,"[79, 0, 175]",175,l,0.5060770377749577,colour,0.5
145,19,0,2,7,30,330,633.7566168031772,634.5830210793938,"[14, 0, 240]",240,a,0.3032914465293288,colour,0.5
145,19,0,2,7,31,331,635.1001785695844,636.2629797728732,"[30, 0, 224]",224,a,0.6394682138925418,colour,0.5
145,19,0,2,7,32,332,636.7725340735633,637.7829776776198,"[66, 0, 188]",188,l,0.48818108707200736,colour,0.5
145,19,0,2,7,33,333,638.3034478032496,639.3111285803607,"[74, 0, 180]",180,l,0.48426783707691357,colour,0.5
145,19,0,2,7,34,334,639.8190425140492,640.759251236479,"[44, 0, 210]",210,a,0.4163042630534619,colour,0.5
145,19,0,2,7,35,335,641.2722268739599,642.3190433017444,"[20, 0, 234]",234,a,0.5239154870214406,colour,0.5
145,19,0,2,7,36,336,642.8346439202433,644.9109786827175,"[73, 0, 181]",181,l,1.5531297729176003,colour,0.5
145,19,0,2,7,37,337,645.4284827570373,646.574950788985,"[60, 0, 194]",194,a,0.6233520515088458,colour,0.5
145,19,0,2,7,38,338,647.0847476985655,648.0070013934164,"[22, 0, 232]",232,a,0.3989400039135944,colour,0.5
145,19,0,2,7,39,339,648.5222203755111,649.7030167785997,"[82, 0, 172]",172,l,0.6576193765795324,colour,0.5
145,19,0,2,7,40,340,650.2097574462532,651.6709845273872,"[75, 0, 179]",179,l,0.9380157900741324,colour,0.5
145,19,0,2,7,41,341,652.1784951631853,653.1990436640917,"[29, 0, 225]",225,a,0.497317911387654,colour,0.5
145,19,0,2,7,42,342,653.7097192432266,654.5909968468768,"[92, 0, 162]",162,l,0.3579721834685188,colour,0.5
145,19,0,2,7,43,343,655.1004030616023,655.9589482904412,"[16, 0, 238]",238,a,0.335316214710474,colour,0.5
145,19,0,2,7,44,344,656.4754453015339,658.2309896631341,"[27, 0, 227]",227,a,1.2326702023565304,colour,0.5
145,19,0,2,7,45,345,658.7409031509887,659.7269795271277,"[7, 0, 247]",247,a,0.4629580326145515,colour,0.5
145,19,0,2,7,46,346,660.2409362340404,661.3989711177128,"[40, 0, 214]",214,a,0.6348913340480067,colour,0.5
145,19,0,2,7,47,347,661.9127525633376,662.7509915063274,"[76, 0, 178]",178,l,0.314922495133942,colour,0.5
145,19,0,2,7,48,348,663.2721646463615,664.1749552788388,"[98, 0, 156]",156,l,0.37956516293343157,colour,0.5
145,19,0,2,7,49,349,664.6940489140397,665.6789433594968,"[25, 0, 229]",229,a,0.4616418005898595,colour,0.5
145,19,0,2,7,50,350,666.1940386740607,667.3029858223454,"[49, 0, 205]",205,a,0.5856184911972377,colour,0.5
145,19,0,2,8,1,351,673.6306484352972,674.5669561169343,"[15, 0, 239]",239,a,0.4120385212590918,colour,0.5
145,19,0,2,8,2,352,675.0845259634953,676.0310307018517,"[45, 0, 209]",209,a,0.4237251020676922,colour,0.5
145,19,0,2,8,3,353,676.537756009493,677.3429902964272,"[61, 0, 193]",193,a,0.2822207063436508,colour,0.5
145,19,0,2,8,4,354,677.8500543113041,678.6389766945795,"[44, 0, 210]",210,a,0.26662245093029924,colour,0.5
145,19,0,2,8,5,355,679.1470213850262,680.0230572974542,"[81, 0, 173]",173,l,0.3536099494958762,colour,0.5
145,19,0,2,8,6,356,680.5376417942753,681.4869924609957,"[32, 0, 222]",222,a,0.4270215898286551,colour,0.5
145,19,0,2,8,7,357,682.0063472158508,682.9429479186365,"[9, 0, 245]",245,a,0.4136087837105151,colour,0.5
145,19,0,2,8,8,358,683.4595977418358,684.3909642364597,"[26, 0, 228]",228,a,0.40869477202068083,colour,0.5
145,19,0,2,8,9,359,684.8970038589032,685.7749349563965,"[74, 0, 180]",180,l,0.3557331711635925,colour,0.5
145,19,0,2,8,10,360,686.2876849203603,686.9429557955591,"[31, 0, 223]",223,a,0.13239317134139128,colour,0.5
145,19,0,2,8,11,361,687.4595185788639,688.2549606823886,"[78, 0, 176]",176,l,0.27254982737940736,colour,0.5
145,19,0,2,8,12,362,688.7720141973405,689.7269874040212,"[4, 0, 250]",250,a,0.43221050573629327,colour,0.5
145,19,0,2,8,13,363,690.2407684558129,691.382940025971,"[23, 0, 231]",231,a,0.6192655094491784,colour,0.5
145,19,0,2,8,14,364,691.8969404497475,693.1189201068482,"[86, 0, 168]",168,l,0.6991830854385626,colour,0.5
145,19,0,2,8,15,365,693.6312923728547,694.8469890109263,"[52, 0, 202]",202,a,0.6921769658802077,colour,0.5
145,19,0,2,8,16,366,695.3659534647886,696.4709121385531,"[8, 0, 246]",246,a,0.5818659302312881,colour,0.5
145,19,0,2,8,17,367,696.9906788559165,697.9349075604987,"[91, 0, 163]",163,l,0.42093155515613034,colour,0.5
145,19,0,2,8,18,368,698.4439384403522,699.4869621348917,"[96, 0, 158]",158,l,0.5197478127665818,colour,0.5
145,19,0,2,8,19,369,700.0064374064968,701.030957052717,"[76, 0, 178]",178,l,0.5012823613069486,colour,0.5
145,19,0,2,8,20,370,701.5376977203414,702.582901350339,"[63, 0, 191]",191,l,0.5218627637077589,colour,0.5
145,19,0,2,8,21,371,703.1001699049957,704.5029128821334,"[57, 0, 197]",197,a,0.8795415321947075,colour,0.5
145,19,0,2,8,22,372,705.0220447203901,706.3589040221996,"[66, 0, 188]",188,a,0.8136578568664845,colour,0.5
145,19,0,2,8,23,373,706.8657006158901,708.0469712090853,"[85, 0, 169]",169,l,0.6580667851667386,colour,0.5
145,19,0,2,8,24,374,708.5532097235846,709.5668934954738,"[53, 0, 201]",201,a,0.4907308435358573,colour,0.5
145,19,0,2,8,25,375,710.0844905173872,711.0469259168603,"[27, 0, 227]",227,a,0.43916660695686005,colour,0.5
145,19,0,2,8,26,376,711.5531853051507,712.6229361505248,"[55, 0, 199]",199,a,0.5463607483834494,colour,0.5
145,19,0,2,8,27,377,713.1313364835805,714.502920759056,"[1, 0, 253]",253,a,0.8483540798188187,colour,0.5
145,19,0,2,8,28,378,715.0219257790013,716.0949640537146,"[12, 0, 242]",242,a,0.5496777161315549,colour,0.5
145,19,0,2,8,29,379,716.6156763944018,717.6309166441497,"[38, 0, 216]",216,a,0.49188244811375625,colour,0.5
145,19,0,2,8,30,380,718.1469422220543,719.2149105222197,"[28, 0, 226]",226,a,0.5446014400513377,colour,0.5
145,19,0,2,8,31,381,719.7250819789479,720.7588794462208,"[25, 0, 229]",229,a,0.5106294991855975,colour,0.5
145,19,0,2,8,32,382,721.2719397605106,722.046923947637,"[29, 0, 225]",225,a,0.25167128385510296,colour,0.5
145,19,0,2,8,33,383,722.5531506467378,723.4229094478069,"[64, 0, 190]",190,l,0.346470710093854,colour,0.5
145,19,0,2,8,34,384,723.9438360405038,724.9188934041013,"[97, 0, 157]",157,l,0.45172043578349985,colour,0.5
145,19,0,2,8,35,385,725.4280975760485,726.3509329808585,"[22, 0, 232]",232,a,0.399557159980759,colour,0.5
145,19,0,2,8,36,386,726.8656596559449,727.6788732549758,"[3, 0, 251]",251,a,0.2899385049531702,colour,0.5
145,19,0,2,8,37,387,728.1937779482687,729.3108930606686,"[75, 0, 179]",179,l,0.5938518336915877,colour,0.5
145,19,0,2,8,38,388,729.8187845451757,730.7108822693117,"[73, 0, 181]",181,l,0.36872731943731196,colour,0.5
145,19,0,2,8,39,389,731.225017388293,732.254907513241,"[34, 0, 220]",220,a,0.5068710305495188,colour,0.5
145,19,0,2,8,40,390,732.771916129801,733.7028852341755,"[79, 0, 175]",175,l,0.4084474369592499,colour,0.5
145,19,0,2,8,41,391,734.2094467020652,734.9108687997796,"[37, 0, 217]",217,a,0.17818363130209036,colour,0.5
145,19,0,2,8,42,392,735.4281074221653,737.1908855460933,"[10, 0, 244]",244,a,1.2394372576382011,colour,0.5
145,19,0,2,8,43,393,737.7093502098869,738.6148820077942,"[87, 0, 167]",167,l,0.3822425254038535,colour,0.5
145,19,0,2,8,44,394,739.131253775995,739.759000750666,"[36, 0, 218]",218,a,0.10444391757482663,colour,0.5
145,19,0,2,8,45,395,740.2718810775259,741.2388807537791,"[51, 0, 203]",203,a,0.44372379448032007,colour,0.5
145,19,0,2,8,46,396,741.7561859360721,742.7348426547251,"[90, 0, 164]",164,l,0.4553473599953577,colour,0.5
145,19,0,2,8,47,397,743.2561938129948,744.1988349259191,"[48, 0, 206]",206,a,0.4193573542579543,colour,0.5
145,19,0,2,8,48,398,744.7094120436523,745.6788126027386,"[60, 0, 194]",194,a,0.44618414802243933,colour,0.5
145,19,0,2,8,49,399,746.1937291114009,747.2228350897494,"[0, 0, 254]",254,a,0.5058084350603167,colour,0.5
145,19,0,2,8,50,400,747.7405908314395,748.6948255775787,"[54, 0, 200]",200,a,0.43099155358504504,colour,0.5
145,19,0,2,9,1,401,774.7085081679688,776.1908059892885,"[96, 0, 158]",158,l,0.9584733126393985,colour,0.5
145,19,0,2,9,2,402,776.7093565114192,777.5828981995583,"[81, 0, 173]",173,l,0.3504469753825106,colour,0.5
145,19,0,2,9,3,403,778.1006385812652,778.8307881717046,"[31, 0, 223]",223,a,0.20765746143297292,colour,0.5
145,19,0,2,9,4,404,779.3498688100372,780.1827817787998,"[32, 0, 222]",222,a,0.30963984393747523,colour,0.5
145,19,0,2,9,5,405,780.6935735424049,781.526824036875,"[75, 0, 179]",179,l,0.30993128969566897,colour,0.5
145,19,0,2,9,6,406,782.0372160471452,782.6147740940796,"[10, 0, 244]",244,a,0.05435384507291019,colour,0.5
145,19,0,2,9,7,407,783.1310418870416,783.8867611160967,"[19, 0, 235]",235,a,0.23237954429350793,colour,0.5
145,19,0,2,9,8,408,784.396742345416,785.1587784642179,"[70, 0, 184]",184,l,0.23867871100082994,colour,0.5
145,19,0,2,9,9,409,785.6779937977262,786.4468135133211,"[68, 0, 186]",186,l,0.2455851876293309,colour,0.5
145,19,0,2,9,10,410,786.9591609670606,787.7348698300775,"[14, 0, 240]",240,a,0.2524861504207365,colour,0.5
145,19,0,2,9,11,411,788.256029579381,789.2387870185194,"[58, 0, 196]",196,a,0.4593964867235627,colour,0.5
145,19,0,2,9,12,412,789.7560319424665,790.4547774654056,"[56, 0, 198]",198,a,0.17536093981470913,colour,0.5
145,19,0,2,9,13,413,790.9747769455425,792.3268166325579,"[34, 0, 220]",220,a,0.8289512757619377,colour,0.5
145,19,0,2,9,14,414,792.8341673670511,794.7747565443278,"[51, 0, 203]",203,a,1.4173715846554842,colour,0.5
145,19,0,2,9,15,415,795.2872635055683,796.3027975641307,"[12, 0, 242]",242,a,0.4922475429775659,colour,0.5
145,19,0,2,9,16,416,796.8185218501603,798.2067941518617,"[42, 0, 212]",212,a,0.865041712182574,colour,0.5
145,19,0,2,9,17,417,798.7247850193817,799.7267739397066,"[47, 0, 207]",207,a,0.47875439235940576,colour,0.5
145,19,0,2,9,18,418,800.2404021793918,801.0467931908788,"[95, 0, 159]",159,l,0.2831868096254766,colour,0.5
145,19,0,2,9,19,419,801.55286668404,802.2627214101667,"[54, 0, 200]",200,a,0.18651701058843173,colour,0.5
145,19,0,2,9,20,420,802.7716065671411,803.606794782012,"[65, 0, 189]",189,a,0.3118170224770438,colour,0.5
145,19,0,2,9,21,421,804.1153258717968,804.9588364382798,"[5, 0, 249]",249,a,0.32025516469730064,colour,0.5
145,19,0,2,9,22,422,805.4747466194385,806.9107742768247,"[9, 0, 245]",245,a,0.912914433865808,colour,0.5
145,19,0,2,9,23,423,807.4278947455459,808.4227294603479,"[26, 0, 228]",228,a,0.4715840391581878,colour,0.5
145,19,0,2,9,24,424,808.9434583425464,809.9587793306564,"[17, 0, 237]",237,a,0.492112453939626,colour,0.5
145,19,0,2,9,25,425,810.474674545665,811.5507355854497,"[43, 0, 211]",211,a,0.5528895270836074,colour,0.5
145,19,0,2,9,26,426,812.0683755365026,813.1347857834189,"[44, 0, 210]",210,a,0.5430981313402299,colour,0.5
145,19,0,2,9,27,427,813.6465712194913,814.7507225097797,"[61, 0, 193]",193,a,0.5807214148808271,colour,0.5
145,19,0,2,9,28,428,815.2716368932452,816.3427724998037,"[63, 0, 191]",191,a,0.5479132877953816,colour,0.5
145,19,0,2,9,29,429,816.8497140287072,817.7027280897892,"[82, 0, 172]",172,l,0.3296917055558879,colour,0.5
145,19,0,2,9,30,430,818.2090642779658,819.1827904434176,"[55, 0, 199]",199,a,0.45064484342583455,colour,0.5
145,19,0,2,9,31,431,819.6934400287282,820.646764991543,"[85, 0, 169]",169,l,0.4300219056895003,colour,0.5
145,19,0,2,9,32,432,821.1621419057192,821.6867844317458,"[3, 0, 251]",251,a,0.0012540044263005257,colour,0.5
145,19,0,2,9,33,433,822.2092434777296,822.8546977510559,"[88, 0, 166]",166,l,0.12253639724804088,colour,0.5
145,19,0,2,9,34,434,823.3653059825883,824.1987073199416,"[83, 0, 171]",171,l,0.31009709869977087,colour,0.5
145,19,0,2,9,35,435,824.7090300133859,825.622771523078,"[64, 0, 190]",190,l,0.3904242741409689,colour,0.5
145,19,0,2,9,36,436,826.1309158564545,827.126779689861,"[30, 0, 224]",224,a,0.4725103640521411,colour,0.5
145,19,0,2,9,37,437,827.6464818165405,828.7347170180001,"[41, 0, 213]",213,a,0.564823049120605,colour,0.5
145,19,0,2,9,38,438,829.2557373459276,830.1667109086411,"[72, 0, 182]",182,l,0.38759331186884083,colour,0.5
145,19,0,2,9,39,439,830.6777661549568,831.510861868097,"[87, 0, 167]",167,l,0.3098032898560632,colour,0.5
145,19,0,2,9,40,440,832.0215354780084,832.9027819678595,"[27, 0, 227]",227,a,0.357943432754837,colour,0.5
145,19,0,2,9,41,441,833.4121657333744,834.206830779498,"[2, 0, 252]",252,a,0.27143681966117583,colour,0.5
145,19,0,2,9,42,442,834.7246318134421,835.5187687125872,"[99, 0, 155]",155,l,0.27105675867642276,colour,0.5
145,19,0,2,9,43,443,836.0370782011887,836.8947152220644,"[11, 0, 243]",243,a,0.33436940985848196,colour,0.5
145,19,0,2,9,44,444,837.4121208349825,838.2787068158214,"[1, 0, 253]",253,a,0.34331324984668754,colour,0.5
145,19,0,2,9,45,445,838.787077216577,839.5666808188544,"[6, 0, 248]",248,a,0.2562973944004625,colour,0.5
145,19,0,2,9,46,446,840.0840064811346,840.886747725337,"[18, 0, 236]",236,a,0.2794992331764661,colour,0.5
145,19,0,2,9,47,447,841.3964579888852,842.23078368188,"[77, 0, 177]",177,l,0.3108398915210273,colour,0.5
145,19,0,2,9,48,448,842.7402387334441,843.5187230265001,"[78, 0, 176]",176,l,0.25528284811298363,colour,0.5
145,19,0,2,9,49,449,844.037104195013,844.8627274753817,"[21, 0, 233]",233,a,0.3023895400983747,colour,0.5
145,19,0,2,9,50,450,845.3808609150001,846.238724790921,"[92, 0, 162]",162,l,0.335203968686983,colour,0.5
145,19,0,2,10,1,451,852.2863159130211,853.398951819283,"[44, 0, 210]",210,a,0.5886526777758263,colour,0.5
145,19,0,2,10,2,452,853.912143284193,854.7507902512152,"[56, 0, 198]",198,a,0.31548845127690583,colour,0.5
145,19,0,2,10,3,453,855.2713356013701,856.2628710714926,"[3, 0, 251]",251,a,0.4677306537050754,colour,0.5
145,19,0,2,10,4,454,856.7712158722861,857.646750025393,"[14, 0, 240]",240,a,0.3510684637585655,colour,0.5
145,19,0,2,10,5,455,858.1619182014256,859.022695747175,"[70, 0, 184]",184,l,0.3373917810677085,colour,0.5
145,19,0,2,10,6,456,859.5370415735524,860.5906833457702,"[35, 0, 219]",219,a,0.5303182351344731,colour,0.5
145,19,0,2,10,7,457,861.0995480227866,861.9667090181902,"[77, 0, 177]",177,l,0.34385793830733746,colour,0.5
145,19,0,2,10,8,458,862.4744910136214,863.2947016737598,"[78, 0, 176]",176,l,0.29695407682447694,colour,0.5
145,19,0,2,10,9,459,863.8026278166799,864.6626999849395,"[88, 0, 166]",166,l,0.3367513880948536,colour,0.5
145,19,0,2,10,10,460,865.1775971952011,866.0146605090122,"[12, 0, 242]",242,a,0.3137547428777907,colour,0.5
145,19,0,2,10,11,461,866.5213633674721,867.2867054263188,"[38, 0, 216]",216,a,0.24236353053129278,colour,0.5
145,19,0,2,10,12,462,867.8025840998162,868.6386655565584,"[50, 0, 204]",204,a,0.31269687358872034,colour,0.5
145,19,0,2,10,13,463,869.1464168320235,870.0946986017807,"[30, 0, 224]",224,a,0.4250803248141892,colour,0.5
145,19,0,2,10,14,464,870.615186056617,871.4226506912382,"[17, 0, 237]",237,a,0.2842820942751132,colour,0.5
145,19,0,2,10,15,465,871.9432047059818,872.7266928075114,"[24, 0, 230]",230,a,0.26021970284637064,colour,0.5
145,19,0,2,10,16,466,873.2400977367361,874.0866613943945,"[71, 0, 183]",183,l,0.32334015736705624,colour,0.5
145,19,0,2,10,17,467,874.5994881582446,875.454799126921,"[92, 0, 162]",162,l,0.3319728593050968,colour,0.5
145,19,0,2,10,18,468,875.9744543859852,877.0546578938956,"[68, 0, 186]",186,l,0.5570804382441565,colour,0.5
145,19,0,2,10,19,469,877.5682093336654,878.3666789284034,"[80, 0, 174]",174,l,0.27512715305783786,colour,0.5
145,19,0,2,10,20,470,878.8806316968403,880.3027412442316,"[69, 0, 185]",185,a,0.8988147610216402,colour,0.5
145,19,0,2,10,21,471,880.8182386751578,881.7267184074735,"[33, 0, 221]",221,a,0.3852515058533754,colour,0.5
145,19,0,2,10,22,472,882.2400449614215,883.0786805069365,"[37, 0, 217]",217,a,0.31531830996391363,colour,0.5
145,19,0,2,10,23,473,883.5995381766406,884.4306599355768,"[61, 0, 193]",193,a,0.30799632621346973,colour,0.5
145,19,0,2,10,24,474,884.9432137644326,885.7026887052052,"[66, 0, 188]",188,a,0.23622190207242966,colour,0.5
145,19,0,2,10,25,475,886.2088094598439,886.7586734649667,"[83, 0, 171]",171,l,0.026648775587091222,colour,0.5
145,19,0,2,10,26,476,887.2713163029111,888.1106595890014,"[32, 0, 222]",222,a,0.3160918227513321,colour,0.5
145,19,0,2,10,27,477,888.6306452845165,889.5666315881535,"[20, 0, 234]",234,a,0.41273208337952383,colour,0.5
145,19,0,2,10,28,478,890.0838260998426,891.0946540972218,"[62, 0, 192]",192,a,0.48756983867497183,colour,0.5
145,19,0,2,10,29,479,891.6149686538265,892.5907955917646,"[76, 0, 178]",178,l,0.45233601646032184,colour,0.5
145,19,0,2,10,30,480,893.0993314076914,893.918661822885,"[55, 0, 199]",199,a,0.29605098883621395,colour,0.5
145,19,0,2,10,31,481,894.4275477675546,895.3826438540709,"[25, 0, 229]",229,a,0.4318615585216321,colour,0.5
145,19,0,2,10,32,482,895.8962035646255,896.8546520649688,"[47, 0, 207]",207,a,0.43502295727375895,colour,0.5
145,19,0,2,10,33,483,897.3648739339551,898.2466552661499,"[58, 0, 196]",196,a,0.35826087230816483,colour,0.5
145,19,0,2,10,34,484,898.755633764551,899.7666216632351,"[26, 0, 228]",228,a,0.4877179246104788,colour,0.5
145,19,0,2,10,35,485,900.2868901399197,901.1026456184918,"[9, 0, 245]",245,a,0.29249810756300576,colour,0.5
145,19,0,2,10,36,486,901.6156149544695,902.4706175420433,"[53, 0, 201]",201,a,0.33230920345522463,colour,0.5
145,19,0,2,10,37,487,902.989964813838,903.7266892628977,"[4, 0, 250]",250,a,0.2134399026981555,colour,0.5
145,19,0,2,10,38,488,904.2400189675973,905.126644600794,"[2, 0, 252]",252,a,0.3633985882916022,colour,0.5
145,19,0,2,10,39,489,905.6461572877597,906.3506525628036,"[49, 0, 205]",205,a,0.18120403331704438,colour,0.5
145,19,0,2,10,40,490,906.8648313986196,908.1826785912563,"[64, 0, 190]",190,l,0.7943688742234372,colour,0.5
145,19,0,2,10,41,491,908.6930414569797,909.390615289245,"[42, 0, 212]",212,a,0.1742762890062295,colour,0.5
145,19,0,2,10,42,492,909.9118317523098,910.7906399439671,"[43, 0, 211]",211,a,0.3554752022901084,colour,0.5
145,19,0,2,10,43,493,911.3024312877096,912.26262806874,"[52, 0, 202]",202,a,0.4369736745720729,colour,0.5
145,19,0,2,10,44,494,912.7712087830587,913.6546202422469,"[16, 0, 238]",238,a,0.3601548758451827,colour,0.5
145,19,0,2,10,45,495,914.1617965031182,915.0946611864201,"[39, 0, 215]",215,a,0.4095691092661582,colour,0.5
145,19,0,2,10,46,496,915.6148804324039,916.5186127497291,"[21, 0, 233]",233,a,0.3803355249692686,colour,0.5
145,19,0,2,10,47,497,917.0367867554305,917.9906327759963,"[82, 0, 172]",172,l,0.430604403372854,colour,0.5
145,19,0,2,10,48,498,918.5054783924425,919.46261499307,"[79, 0, 175]",175,l,0.4337854943587445,colour,0.5
145,19,0,2,10,49,499,919.9742224109068,920.7665988201916,"[98, 0, 156]",156,l,0.269146213599015,colour,0.5
145,19,0,2,10,50,500,921.286866509181,922.1746441407886,"[75, 0, 179]",179,l,0.3651732566067949,colour,0.5
145,19,0,2,11,1,501,929.0359395935375,929.8306058211892,"[69, 0, 185]",185,l,0.2706302238511853,colour,0.5
145,19,0,2,11,2,502,930.3493154569296,930.9506034896185,"[32, 0, 222]",222,a,0.0782457013556268,colour,0.5
145,19,0,2,11,3,503,931.4585796509346,932.2305859713815,"[87, 0, 167]",167,l,0.24897344142664224,colour,0.5
145,19,0,2,11,4,504,932.7399075092981,933.5345816138724,"[30, 0, 224]",224,a,0.27142736737732776,colour,0.5
145,19,0,2,11,5,505,934.0523192386609,934.8945923422289,"[74, 0, 180]",180,l,0.31899761565728113,colour,0.5
145,19,0,2,11,6,506,935.4117809462186,936.1745791562716,"[80, 0, 174]",174,l,0.23952626675600186,colour,0.5
145,19,0,2,11,7,507,936.6929335432651,937.4305445388309,"[52, 0, 202]",202,a,0.21456708887126297,colour,0.5
145,19,0,2,11,8,508,937.9429372848244,938.7186682031897,"[88, 0, 166]",166,l,0.25249520887155086,colour,0.5
145,19,0,2,11,9,509,939.2398476447561,940.1425539942575,"[99, 0, 155]",155,l,0.37944188926485367,colour,0.5
145,19,0,2,11,10,510,940.6617319124343,941.4385529954743,"[77, 0, 177]",177,l,0.25350266593159176,colour,0.5
145,19,0,2,11,11,511,941.9585701986507,942.7266242783808,"[92, 0, 162]",162,l,0.24493849312420934,colour,0.5
145,19,0,2,11,12,512,943.2398913616198,943.9425903068332,"[53, 0, 201]",201,a,0.17950143871712498,colour,0.5
145,19,0,2,11,13,513,944.4585678355652,945.1505730847421,"[81, 0, 173]",173,l,0.16894677019445226,colour,0.5
145,19,0,2,11,14,514,945.6616484171827,946.3346313171787,"[75, 0, 179]",179,l,0.1496995351917576,colour,0.5
145,19,0,2,11,15,515,946.849477327487,947.5585404239246,"[78, 0, 176]",176,l,0.1861637310939841,colour,0.5
145,19,0,2,11,16,516,948.0679824785911,948.7906312793784,"[3, 0, 251]",251,a,0.1993622852023691,colour,0.5
145,19,0,2,11,17,517,949.3024163215887,950.0705850103986,"[38, 0, 216]",216,a,0.24494046237668954,colour,0.5
145,19,0,2,11,18,518,950.5835287463851,951.3745940436202,"[68, 0, 186]",186,l,0.267779175483156,colour,0.5
145,19,0,2,11,19,519,951.8959834049165,952.6945569748932,"[89, 0, 165]",165,l,0.27528035899740644,colour,0.5
145,19,0,2,11,20,520,953.2085507032753,953.9585741370975,"[40, 0, 214]",214,a,0.22705869007040747,colour,0.5
145,19,0,2,11,21,521,954.474118041835,955.2466127308144,"[60, 0, 194]",194,a,0.2493019086541608,colour,0.5
145,19,0,2,11,22,522,955.7554269956017,956.5025434549607,"[39, 0, 215]",215,a,0.22377559306914918,colour,0.5
145,19,0,2,11,23,523,957.0210715278808,957.7505826945708,"[17, 0, 237]",237,l,0.20636761706555262,colour,0.5
145,19,0,2,11,24,524,958.2710307648522,959.0305395763717,"[46, 0, 208]",208,l,0.23614234526758082,colour,0.5
145,19,0,2,11,25,525,959.5366099187522,960.3425287093851,"[42, 0, 212]",212,l,0.2826480288640596,colour,0.5
145,19,0,2,11,26,526,960.8491681586893,961.566618985089,"[54, 0, 200]",200,a,0.19432933212374337,colour,0.5
145,19,0,2,11,27,527,962.0835480448441,962.8385122718464,"[50, 0, 204]",204,a,0.2316469914803747,colour,0.5
145,19,0,2,11,28,528,963.349111838761,963.9425587991718,"[44, 0, 210]",210,a,0.07096034524147399,colour,0.5
145,19,0,2,11,29,529,964.4585052141338,965.1665695180709,"[10, 0, 244]",244,a,0.18511216327897273,colour,0.5
145,19,0,2,11,30,530,965.6772466725961,966.3505860028963,"[43, 0, 211]",211,a,0.15002288244431838,colour,0.5
145,19,0,2,11,31,531,966.8646069066308,967.6225237941835,"[76, 0, 178]",178,l,0.23453899976448156,colour,0.5
145,19,0,2,11,32,532,968.1303798325825,968.7905123379896,"[48, 0, 206]",206,a,0.13691176203428768,colour,0.5
145,19,0,2,11,33,533,969.3022201864806,970.0705294781656,"[56, 0, 198]",198,a,0.24506964371539652,colour,0.5
145,19,0,2,11,34,534,970.5837619029917,971.3345415203949,"[28, 0, 226]",226,a,0.2278790705022402,colour,0.5
145,19,0,2,11,35,535,971.849101598782,972.4785428972682,"[67, 0, 187]",187,a,0.10622961356421001,colour,0.5
145,19,0,2,11,36,536,972.9897257495322,973.8065674543323,"[29, 0, 225]",225,a,0.29366467826184817,colour,0.5
145,19,0,2,11,37,537,974.3178657033714,974.8705468861444,"[36, 0, 218]",218,a,0.02947895013494417,colour,0.5
145,19,0,2,11,38,538,975.3803918448684,976.0546204785642,"[14, 0, 240]",240,a,0.1509929241728969,colour,0.5
145,19,0,2,11,39,539,976.567816669587,977.2705010425125,"[11, 0, 243]",243,a,0.1794163680751808,colour,0.5
145,19,0,2,11,40,540,977.7865289835026,978.438511641667,"[83, 0, 171]",171,l,0.1286847210722044,colour,0.5
145,19,0,2,11,41,541,978.9584445618966,979.6626050681516,"[5, 0, 249]",249,a,0.18120009484118782,colour,0.5
145,19,0,2,11,42,542,980.1772017742041,980.8945352346054,"[15, 0, 239]",239,a,0.19409144937526435,colour,0.5
145,19,0,2,11,43,543,981.4115871741669,982.1185034181981,"[33, 0, 221]",221,a,0.18379908203496598,colour,0.5
145,19,0,2,11,44,544,982.6303932233423,983.2625138535223,"[35, 0, 219]",219,a,0.10896447749109939,colour,0.5
145,19,0,2,11,45,545,983.771686123946,984.4305476895825,"[13, 0, 241]",241,a,0.13641945502604358,colour,0.5
145,19,0,2,11,46,546,984.9428415803413,985.7184893972881,"[93, 0, 161]",161,l,0.2523360952618532,colour,0.5
145,19,0,2,11,47,547,986.2397141311085,986.9825341286778,"[95, 0, 159]",159,l,0.21994780757813714,colour,0.5
145,19,0,2,11,48,548,987.4896875465347,988.2225239517284,"[21, 0, 233]",233,a,0.2096085726225283,colour,0.5
145,19,0,2,11,49,549,988.7396475712012,989.4625811223523,"[47, 0, 207]",207,a,0.19970926316455007,colour,0.5
145,19,0,2,11,50,550,989.9739573528059,990.726530543121,"[82, 0, 172]",172,l,0.22934023771085776,colour,0.5
145,19,0,2,12,1,551,998.4263055784977,999.2224778717791,"[0, 0, 254]",254,a,0.2727908608794678,colour,0.5
145,19,0,2,12,2,552,999.7397212203068,1000.3664871255751,"[39, 0, 215]",215,a,0.10364874327206053,colour,0.5
145,19,0,2,12,3,553,1000.8803465526144,1001.6144838298787,"[90, 0, 164]",164,l,0.21100002914317884,colour,0.5
145,19,0,2,12,4,554,1002.1302833404043,1002.8224996908393,"[86, 0, 168]",168,l,0.16892038253718056,colour,0.5
145,19,0,2,12,5,555,1003.333395429654,1004.0384897438635,"[78, 0, 176]",176,l,0.18177235251641832,colour,0.5
145,19,0,2,12,6,556,1004.5520128267526,1005.7344708644669,"[12, 0, 242]",242,a,0.6590521868783981,colour,0.5
145,19,0,2,12,7,557,1006.2551686328661,1007.0545322571415,"[76, 0, 178]",178,a,0.27614091167924926,colour,0.5
145,19,0,2,12,8,558,1007.5677792542556,1008.2304721499968,"[36, 0, 218]",218,a,0.13951193075627089,colour,0.5
145,19,0,2,12,9,559,1008.7397283095343,1009.3984520292142,"[69, 0, 185]",185,l,0.1355868654209189,colour,0.5
145,19,0,2,12,10,560,1009.9114768973959,1010.6385426767229,"[28, 0, 226]",226,a,0.20410064174211584,colour,0.5
145,19,0,2,12,11,561,1011.145848118962,1011.8625124356768,"[34, 0, 220]",220,a,0.19338804110884666,colour,0.5
145,19,0,2,12,12,562,1012.3802087066579,1013.1024794156547,"[93, 0, 161]",161,l,0.19905232868040912,colour,0.5
145,19,0,2,12,13,563,1013.6144838298787,1014.3104495905282,"[33, 0, 221]",221,a,0.17258393441443332,colour,0.5
145,19,0,2,12,14,564,1014.8177014697576,1015.55048116119,"[79, 0, 175]",175,l,0.20957233881927095,colour,0.5
145,19,0,2,12,15,565,1016.067635894462,1016.822558767657,"[63, 0, 191]",191,l,0.2316245422407519,colour,0.5
145,19,0,2,12,16,566,1017.3333146912919,1018.0944788359047,"[41, 0, 213]",213,a,0.23793001048034057,colour,0.5
145,19,0,2,12,17,567,1018.6144984021666,1019.3984807799279,"[1, 0, 253]",253,a,0.2606033084448427,colour,0.5
145,19,0,2,12,18,568,1019.9114741404774,1020.6544516763242,"[20, 0, 234]",234,a,0.21976348783937283,colour,0.5
145,19,0,2,12,19,569,1021.1613498821971,1021.9905150161358,"[38, 0, 216]",216,a,0.30576716002542526,colour,0.5
145,19,0,2,12,20,570,1022.5050999068189,1023.2304977499589,"[62, 0, 192]",192,a,0.2022735919454135,colour,0.5
145,19,0,2,12,21,571,1023.7397460326029,1024.4544458473974,"[23, 0, 231]",231,a,0.19177957563078962,colour,0.5
145,19,0,2,12,22,572,1024.9739368728478,1025.726610099926,"[73, 0, 181]",181,l,0.22947453905362636,colour,0.5
145,19,0,2,12,23,573,1026.2395593497786,1027.006493332592,"[37, 0, 217]",217,a,0.2435308889253065,colour,0.5
145,19,0,2,12,24,574,1027.5206946176186,1028.302458069229,"[61, 0, 193]",193,a,0.2592193349846639,colour,0.5
145,19,0,2,12,25,575,1028.817629002151,1029.558451808669,"[50, 0, 204]",204,a,0.21752329400624149,colour,0.5
145,19,0,2,12,26,576,1030.067640226771,1030.782417235314,"[80, 0, 174]",174,l,0.1915401175210718,colour,0.5
145,19,0,2,12,27,577,1031.3019637929974,1032.030435994966,"[4, 0, 250]",250,a,0.20516756948200054,colour,0.5
145,19,0,2,12,28,578,1032.5363791252312,1033.3104448643571,"[14, 0, 240]",240,a,0.2508028542797547,colour,0.5
145,19,0,2,12,29,579,1033.817568743776,1034.6304306386737,"[72, 0, 182]",182,l,0.28953087475383654,colour,0.5
145,19,0,2,12,30,580,1035.145722482208,1035.854417332972,"[55, 0, 199]",199,a,0.1854406305064913,colour,0.5
145,19,0,2,12,31,581,1036.3643776885,1037.1184136213851,"[21, 0, 233]",233,a,0.2306741928041447,colour,0.5
145,19,0,2,12,32,582,1037.630156128289,1038.430445289734,"[82, 0, 172]",172,l,0.2770877165312413,colour,0.5
145,19,0,2,12,33,583,1038.9425607683952,1039.6704516542668,"[48, 0, 206]",206,a,0.20474497316172346,colour,0.5
145,19,0,2,12,34,584,1040.1769556207,1040.9664908277337,"[60, 0, 194]",194,a,0.2662171838164795,colour,0.5
145,19,0,2,12,35,585,1041.4738699191075,1042.2464197464578,"[17, 0, 237]",237,a,0.24936256086220965,colour,0.5
145,19,0,2,12,36,586,1042.7550406330556,1043.534423681791,"[40, 0, 214]",214,a,0.2561146500520408,colour,0.5
145,19,0,2,12,37,587,1044.0518883715558,1044.8224386447691,"[47, 0, 207]",207,a,0.24721610231790692,colour,0.5
145,19,0,2,12,38,588,1045.3331866914814,1046.1264161703584,"[85, 0, 169]",169,l,0.27002370162517764,colour,0.5
145,19,0,2,12,39,589,1046.6457035776111,1047.318425751815,"[30, 0, 224]",224,a,0.14948961546178907,colour,0.5
145,19,0,2,12,40,590,1047.8331713314983,1048.550485887332,"[54, 0, 200]",200,a,0.19409932629787363,colour,0.5
145,19,0,2,12,41,591,1049.0675342822797,1049.7664475834754,"[15, 0, 239]",239,a,0.17559961025835946,colour,0.5
145,19,0,2,12,42,592,1050.2862493531138,1050.9504333483346,"[45, 0, 209]",209,a,0.14151148495147936,colour,0.5
145,19,0,2,12,43,593,1051.4581684761215,1052.1104130416352,"[18, 0, 236]",236,l,0.12906675130943768,colour,0.5
145,19,0,2,12,44,594,1052.6300226146122,1053.8064374852693,"[56, 0, 198]",198,a,0.6530952720204368,colour,0.5
145,19,0,2,12,45,595,1054.3175222699938,1055.5904025338532,"[51, 0, 203]",203,a,0.7496256497688591,colour,0.5
145,19,0,2,12,46,596,1056.0987524546508,1057.046437942132,"[75, 0, 179]",179,l,0.4243899134453386,colour,0.5
145,19,0,2,12,47,597,1057.567470479291,1058.5904513706919,"[57, 0, 197]",197,a,0.499712492688559,colour,0.5
145,19,0,2,12,48,598,1059.0987800238363,1060.2464291987708,"[68, 0, 186]",186,a,0.6244646653649397,colour,0.5
145,19,0,2,12,49,599,1060.7549252362805,1061.5744702973461,"[65, 0, 189]",189,a,0.2961982870765496,colour,0.5
145,19,0,2,12,50,600,1062.0831396269205,1062.9424028363137,"[3, 0, 251]",251,a,0.3360578259744216,colour,0.5
145,19,0,2,13,1,601,1074.9572535727639,1075.8064418175782,"[33, 0, 221]",221,a,0.3253070223436225,colour,0.5
145,19,0,2,13,2,602,1076.3175466884277,1077.1103653863247,"[11, 0, 243]",243,a,0.26966372673632577,colour,0.5
145,19,0,2,13,3,603,1077.6299926823413,1078.4623881379957,"[5, 0, 249]",249,a,0.3091042138985358,colour,0.5
145,19,0,2,13,4,604,1078.9736966270139,1079.7023574810592,"[34, 0, 220]",220,a,0.20549485521041788,colour,0.5
145,19,0,2,13,5,605,1080.2236468055635,1080.8704208555282,"[0, 0, 254]",254,a,0.12352061740239151,colour,0.5
145,19,0,2,13,6,606,1081.3799676731578,1082.134350584034,"[47, 0, 207]",207,a,0.23141304714954458,colour,0.5
145,19,0,2,13,7,607,1082.6455803039426,1083.5264754834934,"[31, 0, 223]",223,a,0.35765356235788204,colour,0.5
145,19,0,2,13,8,608,1084.0360935871722,1084.7343924891902,"[32, 0, 222]",222,a,0.17496000495157205,colour,0.5
145,19,0,2,13,9,609,1085.254917359387,1086.0223940614378,"[24, 0, 230]",230,a,0.24421736181830056,colour,0.5
145,19,0,2,13,10,610,1086.5361487255432,1087.4303818805784,"[64, 0, 190]",190,a,0.3709352179139387,colour,0.5
145,19,0,2,13,11,611,1087.9423374579346,1088.630371561827,"[53, 0, 201]",201,l,0.16478185285814106,colour,0.5
145,19,0,2,13,12,612,1089.1455263470998,1089.7503901040764,"[79, 0, 175]",175,l,0.08153785683680326,colour,0.5
145,19,0,2,13,13,613,1090.2704577194818,1090.9423658148153,"[12, 0, 242]",242,a,0.14855856442591175,colour,0.5
145,19,0,2,13,14,614,1091.4579621010344,1092.1743396981328,"[55, 0, 199]",199,a,0.19328761048382148,colour,0.5
145,19,0,2,13,15,615,1092.6923435625504,1093.4943274416728,"[60, 0, 194]",194,a,0.2788056710851379,colour,0.5
145,19,0,2,13,16,616,1094.0048884117277,1094.7744103540317,"[74, 0, 180]",180,l,0.24621770367957652,colour,0.5
145,19,0,2,13,17,617,1095.2860961471742,1095.9743673460907,"[70, 0, 184]",184,l,0.165540793328546,colour,0.5
145,19,0,2,13,18,618,1096.4892054795055,1097.7343601938628,"[37, 0, 217]",217,a,0.7218004573369399,colour,0.5
145,19,0,2,13,19,619,1098.2547826641821,1098.8143876527902,"[40, 0, 214]",214,a,0.036208196252118796,colour,0.5
145,19,0,2,13,20,620,1099.3329113934014,1099.9263764707139,"[95, 0, 159]",159,l,0.07016477713477798,colour,0.5
145,19,0,2,13,21,621,1100.442339427187,1101.166419856745,"[57, 0, 197]",197,a,0.2008663815795444,colour,0.5
145,19,0,2,13,22,622,1101.6767082856386,1102.3183087796788,"[43, 0, 211]",211,a,0.11833130766171962,colour,0.5
145,19,0,2,13,23,623,1102.8329814979224,1103.8223256110796,"[82, 0, 172]",172,l,0.4661824466311373,colour,0.5
145,19,0,2,13,24,624,1104.3329149380152,1104.9743728599278,"[19, 0, 235]",235,a,0.11811823718016967,colour,0.5
145,19,0,2,13,25,625,1105.489142858045,1106.3023663031927,"[61, 0, 193]",193,a,0.2898924250039272,colour,0.5
145,19,0,2,13,26,626,1106.8173363748647,1107.7023358195438,"[49, 0, 205]",205,a,0.3617471936449874,colour,0.5
145,19,0,2,13,27,627,1108.2236070271465,1108.926377652242,"[63, 0, 191]",191,a,0.17957902629859746,colour,0.5
145,19,0,2,13,28,628,1109.4422649903572,1110.2703462611826,"[51, 0, 203]",203,a,0.30491527199046686,colour,0.5
145,19,0,2,13,29,629,1110.7860217103444,1111.6383268493228,"[75, 0, 179]",179,l,0.3289792388386559,colour,0.5
145,19,0,2,13,30,630,1112.1453593565384,1112.9023377099948,"[27, 0, 227]",227,a,0.23359180107945576,colour,0.5
145,19,0,2,13,31,631,1113.4110523318523,1114.0783465258428,"[46, 0, 208]",208,a,0.14404076142818667,colour,0.5
145,19,0,2,13,32,632,1114.5986209101975,1115.326361740881,"[14, 0, 240]",240,a,0.2046272133011371,colour,0.5
145,19,0,2,13,33,633,1115.832883824216,1116.6223233267665,"[45, 0, 209]",209,a,0.26623726994148456,colour,0.5
145,19,0,2,13,34,634,1117.1297776426363,1117.7903307751694,"[91, 0, 163]",163,l,0.1372882784344256,colour,0.5
145,19,0,2,13,35,635,1118.3016546241706,1118.9743515922746,"[38, 0, 216]",216,a,0.14946952933678403,colour,0.5
145,19,0,2,13,36,636,1119.48908259967,1120.5103270257532,"[68, 0, 186]",186,l,0.4979244336136617,colour,0.5
145,19,0,2,13,37,637,1121.020356698078,1121.6303676233802,"[39, 0, 215]",215,a,0.08672283432679251,colour,0.5
145,19,0,2,13,38,638,1122.1454456087376,1122.8543350192485,"[97, 0, 157]",157,l,0.18566157791065052,colour,0.5
145,19,0,2,13,39,639,1123.3640251966717,1124.0384464208328,"[62, 0, 192]",192,a,0.15111107783741318,colour,0.5
145,19,0,2,13,40,640,1124.5516473380267,1125.1823406717158,"[36, 0, 218]",218,a,0.10743044881382957,colour,0.5
145,19,0,2,13,41,641,1125.6922707011108,1126.2782818563865,"[28, 0, 226]",226,a,0.06292195632704534,colour,0.5
145,19,0,2,13,42,642,1126.7859362458403,1127.310364519857,"[92, 0, 162]",162,l,0.0011386076512280852,colour,0.5
145,19,0,2,13,43,643,1127.832823565841,1128.4943581616099,"[23, 0, 231]",231,a,0.1382354771194514,colour,0.5
145,19,0,2,13,44,644,1129.0047123627446,1129.662315985479,"[66, 0, 188]",188,a,0.13432301484863274,colour,0.5
145,19,0,2,13,45,645,1130.176524753595,1130.8623060605605,"[26, 0, 228]",228,a,0.1623376469942741,colour,0.5
145,19,0,2,13,46,646,1131.3797049781133,1132.006317283609,"[83, 0, 171]",171,l,0.10329034377355129,colour,0.5
145,19,0,2,13,47,647,1132.5203212519991,1133.2782983979268,"[77, 0, 177]",177,l,0.2352684018551372,colour,0.5
145,19,0,2,13,48,648,1133.7860122580605,1134.446321600146,"[94, 0, 160]",160,l,0.13703464186983183,colour,0.5
145,19,0,2,13,49,649,1134.9578443411738,1135.6783344741561,"[99, 0, 155]",155,l,0.1973654879257083,colour,0.5
145,19,0,2,13,50,650,1136.1922195011866,1136.894337917969,"[96, 0, 158]",158,l,0.1789768363814801,colour,0.5
145,19,0,2,14,1,651,1142.6757898376673,1143.5902631125064,"[61, 0, 193]",193,a,0.3904675971425604,colour,0.5
145,19,0,2,14,2,652,1144.0984566765837,1145.5662944563082,"[66, 0, 188]",188,a,0.9445851348573342,colour,0.5
145,19,0,2,14,3,653,1146.0828284888994,1146.83033367389,"[29, 0, 225]",225,a,0.22431791850249283,colour,0.5
145,19,0,2,14,4,654,1147.3484186704736,1148.0942736423458,"[13, 0, 241]",241,a,0.22257869626628235,colour,0.5
145,19,0,2,14,5,655,1148.6139950674842,1149.3342811884359,"[3, 0, 251]",251,a,0.19690744549734518,colour,0.5
145,19,0,2,14,6,656,1149.8483237536857,1150.5183339070354,"[64, 0, 190]",190,l,0.14675790231558494,colour,0.5
145,19,0,2,14,7,657,1151.0359592858003,1151.7582811947505,"[46, 0, 208]",208,l,0.1992149869329296,colour,0.5
145,19,0,2,14,8,658,1152.2702607966785,1153.0143115617975,"[83, 0, 171]",171,l,0.2210994121269323,colour,0.5
145,19,0,2,14,9,659,1153.5359336858382,1154.1982910251245,"[12, 0, 242]",242,a,0.13914289741660468,colour,0.5
145,19,0,2,14,10,660,1154.7077551351395,1155.4462865479,"[43, 0, 211]",211,a,0.21547332761110738,colour,0.5
145,19,0,2,14,11,661,1155.9580282670795,1156.6462734722008,"[94, 0, 160]",160,l,0.16533520593657158,colour,0.5
145,19,0,2,14,12,662,1157.160898535134,1157.830334067723,"[56, 0, 198]",198,a,0.14621951535809785,colour,0.5
145,19,0,2,14,13,663,1158.3482875198824,1159.2702714305196,"[1, 0, 253]",253,a,0.3986780965933576,colour,0.5
145,19,0,2,14,14,664,1159.7858019444975,1160.57427888838,"[84, 0, 170]",170,l,0.26518018831848167,colour,0.5
145,19,0,2,14,15,665,1161.0827402674768,1161.8062551347539,"[19, 0, 235]",235,a,0.2002665546897333,colour,0.5
145,19,0,2,14,16,666,1162.3171685966372,1162.9982895285066,"[67, 0, 187]",187,a,0.1579379976610653,colour,0.5
145,19,0,2,14,17,667,1163.5045556121913,1164.61424437174,"[38, 0, 216]",216,a,0.5864250870072283,colour,0.5
145,19,0,2,14,18,668,1165.1294893476588,1166.1502946359105,"[25, 0, 229]",229,a,0.4974459112272598,colour,0.5
145,19,0,2,14,19,669,1166.660787864501,1167.3422538051382,"[71, 0, 183]",183,l,0.1581278312660288,colour,0.5
145,19,0,2,14,20,670,1167.8482745229849,1168.5022929691477,"[77, 0, 177]",177,l,0.13063504453748465,colour,0.5
145,19,0,2,14,21,671,1169.0201140891877,1169.670222042274,"[87, 0, 167]",167,l,0.12676590526825748,colour,0.5
145,19,0,2,14,22,672,1170.176470009057,1171.246300017403,"[86, 0, 168]",168,l,0.5466269880416803,colour,0.5
145,19,0,2,14,23,673,1171.7545459629619,1172.574264316092,"[59, 0, 195]",195,a,0.2964109637250658,colour,0.5
145,19,0,2,14,24,674,1173.0826870983292,1173.7263111711072,"[2, 0, 252]",252,a,0.12038954481249675,colour,0.5
145,19,0,2,14,25,675,1174.2389961505542,1174.9582685129135,"[36, 0, 218]",218,a,0.19608233895269223,colour,0.5
145,19,0,2,14,26,676,1175.473416208959,1176.3582191246678,"[75, 0, 179]",179,l,0.3615987138473429,colour,0.5
145,19,0,2,14,27,677,1176.8796013967367,1177.6543016211363,"[90, 0, 164]",164,l,0.2513680227275472,colour,0.5
145,19,0,2,14,28,678,1178.160919015092,1178.7742669942381,"[23, 0, 231]",231,a,0.09014968495466746,colour,0.5
145,19,0,2,14,29,679,1179.2858488121128,1179.8942390627053,"[88, 0, 166]",166,l,0.08563030656659976,colour,0.5
145,19,0,2,14,30,680,1180.410825476778,1180.982269070606,"[92, 0, 162]",162,l,0.04812675213906914,colour,0.5
145,19,0,2,14,31,681,1181.488987682882,1182.1182442677673,"[30, 0, 224]",224,a,0.105988186202012,colour,0.5
145,19,0,2,14,32,682,1182.6295728429395,1183.2942499328346,"[91, 0, 163]",163,l,0.14134961436502635,colour,0.5
145,19,0,2,14,33,683,1183.8015167782141,1184.3742466717958,"[10, 0, 244]",244,a,0.049491033307276666,colour,0.5
145,19,0,2,14,34,684,1184.8952173752186,1185.4942242541001,"[50, 0, 204]",204,a,0.07575147709576413,colour,0.5
145,19,0,2,14,35,685,1186.0045819998486,1186.9502620254934,"[74, 0, 180]",180,a,0.42238642083248124,colour,0.5
145,19,0,2,14,36,686,1187.4577025567705,1188.118252538523,"[37, 0, 217]",217,a,0.13736271526431665,colour,0.5
145,19,0,2,14,37,687,1188.6295677229355,1189.6142502794391,"[80, 0, 174]",174,l,0.4613932840002235,colour,0.5
145,19,0,2,14,38,688,1190.1295117968693,1190.9023542515351,"[53, 0, 201]",201,a,0.24940194544615224,colour,0.5
145,19,0,2,14,39,689,1191.4107644307078,1192.2622779399971,"[22, 0, 232]",232,a,0.32816791685763747,colour,0.5
145,19,0,2,14,40,690,1192.7704518118117,1193.446226683358,"[26, 0, 228]",228,a,0.15279082939377986,colour,0.5
145,19,0,2,14,41,691,1193.9576241814939,1194.5662314410147,"[27, 0, 227]",227,a,0.0854125099722296,colour,0.5
145,19,0,2,14,42,692,1195.0826591352816,1195.7022984042123,"[4, 0, 250]",250,a,0.09636338715790771,colour,0.5
145,19,0,2,14,43,693,1196.2233502398012,1196.7662463283632,"[49, 0, 205]",205,a,0.01977892656577751,colour,0.5
145,19,0,2,14,44,694,1197.2857267199724,1197.9581865930231,"[76, 0, 178]",178,l,0.14976058126194403,colour,0.5
145,19,0,2,14,45,695,1198.4733453167428,1199.1822130657383,"[85, 0, 169]",169,l,0.18563991639530286,colour,0.5
145,19,0,2,14,46,696,1199.6919071816083,1200.3981916972552,"[65, 0, 189]",189,a,0.18298303391202353,colour,0.5
145,19,0,2,14,47,697,1200.9107951506448,1201.6542323043104,"[42, 0, 212]",212,a,0.2201376411539968,colour,0.5
145,19,0,2,14,48,698,1202.160823310609,1202.7982332873507,"[34, 0, 220]",220,a,0.11419750412460417,colour,0.5
145,19,0,2,14,49,699,1203.3169886092073,1203.96623719114,"[21, 0, 233]",233,a,0.12599396784207784,colour,0.5
145,19,0,2,14,50,700,1204.4732578830153,1205.1581817881088,"[47, 0, 207]",207,a,0.16162872489076108,colour,0.5
145,19,0,2,15,1,701,1209.9724512872053,1210.7021755243768,"[78, 0, 176]",176,l,0.20573825176688842,colour,0.5
145,19,0,2,15,2,702,1211.2232565045415,1212.2541966219142,"[16, 0, 238]",238,a,0.5080568996781949,colour,0.5
145,19,0,2,15,3,703,1212.7701324030058,1213.4782553899859,"[31, 0, 223]",223,a,0.18488097592489794,colour,0.5
145,19,0,2,15,4,704,1213.9888407784456,1214.5662042656622,"[6, 0, 248]",248,a,0.054066337790573016,colour,0.5
145,19,0,2,15,5,705,1215.0824630001734,1215.8062094486668,"[13, 0, 241]",241,a,0.20043748369789682,colour,0.5
145,19,0,2,15,6,706,1216.316912203154,1217.0222916615894,"[5, 0, 249]",249,a,0.18202401985763572,colour,0.5
145,19,0,2,15,7,707,1217.5356958030898,1218.2301996088354,"[65, 0, 189]",189,l,0.1712428900937084,colour,0.5
145,19,0,2,15,8,708,1218.7387822923774,1219.4303369821864,"[46, 0, 208]",208,l,0.16822327580302954,colour,0.5
145,19,0,2,15,9,709,1219.9419392800191,1220.5182133902854,"[68, 0, 186]",186,l,0.05316324980231002,colour,0.5
145,19,0,2,15,10,710,1221.0356780800503,1221.6541980397596,"[96, 0, 158]",158,l,0.0952259610639885,colour,0.5
145,19,0,2,15,11,711,1222.1606862523477,1222.8541936286783,"[60, 0, 194]",194,a,0.1702311007247772,colour,0.5
145,19,0,2,15,12,712,1223.3638621445862,1224.0221971386345,"[62, 0, 192]",192,a,0.1351071614481043,colour,0.5
145,19,0,2,15,13,713,1224.5356430277752,1225.2381954624143,"[51, 0, 203]",203,a,0.17920841756858863,colour,0.5
145,19,0,2,15,14,714,1225.754391575494,1227.726133940596,"[53, 0, 201]",201,a,1.4485519478621427,colour,0.5
145,19,0,2,15,15,715,1228.238844913838,1228.8141430746473,"[43, 0, 211]",211,a,0.05210459278896451,colour,0.5
145,19,0,2,15,16,716,1229.3325419662287,1230.046163037914,"[45, 0, 209]",209,a,0.19044995287549682,colour,0.5
145,19,0,2,15,17,717,1230.5669356369472,1231.270208021364,"[19, 0, 235]",235,a,0.1800284041382838,colour,0.5
145,19,0,2,15,18,718,1231.7856613416225,1232.5181775503152,"[14, 0, 240]",240,a,0.20923717616824433,colour,0.5
145,19,0,2,15,19,719,1233.0356646892906,1234.7422182014852,"[17, 0, 237]",237,a,1.1837077098316513,colour,0.5
145,19,0,2,15,20,720,1235.2543399817077,1235.8701459513104,"[85, 0, 169]",169,l,0.09241666030720808,colour,0.5
145,19,0,2,15,21,721,1236.3793800554995,1237.086143487395,"[55, 0, 199]",199,a,0.18341547637828626,colour,0.5
145,19,0,2,15,22,722,1237.5980856740207,1240.1422046532098,"[40, 0, 214]",214,a,2.0208289189904463,colour,0.5
145,19,0,2,15,23,723,1240.6606137847411,1241.7661462916003,"[7, 0, 247]",247,a,0.5822652897040825,colour,0.5
145,19,0,2,15,24,724,1242.285644800082,1242.9981505010219,"[70, 0, 184]",184,l,0.18984067370183766,colour,0.5
145,19,0,2,15,25,725,1243.5043452986283,1245.7261036144628,"[22, 0, 232]",232,a,1.698505670967279,colour,0.5
145,19,0,2,15,26,726,1246.2388138000388,1246.8541656656307,"[84, 0, 170]",170,l,0.09217956522479653,colour,0.5
145,19,0,2,15,27,727,1247.3637321755232,1247.9581637499796,"[56, 0, 198]",198,a,0.07116278191097081,colour,0.5
145,19,0,2,15,28,728,1248.4730786832515,1249.3741399396386,"[97, 0, 157]",157,l,0.37779167614644393,colour,0.5
145,19,0,2,15,29,729,1249.8949716155475,1250.630206934351,"[86, 0, 168]",168,l,0.21202127079595812,colour,0.5
145,19,0,2,15,30,730,1251.145607479295,1251.8941516289779,"[99, 0, 155]",155,l,0.2259614361973945,colour,0.5
145,19,0,2,15,31,731,1252.4105777478835,1253.4061694339616,"[50, 0, 204]",204,a,0.4723563704174012,colour,0.5
145,19,0,2,15,32,732,1253.9262425632041,1254.5341499590722,"[12, 0, 242]",242,l,0.08460827721864916,colour,0.5
145,19,0,2,15,33,733,1255.0511243110523,1256.1021635514626,"[1, 0, 253]",253,a,0.5276719864632469,colour,0.5
145,19,0,2,15,34,734,1256.6137142555672,1257.4141956136737,"[67, 0, 187]",187,a,0.2772527378401719,colour,0.5
145,19,0,2,15,35,735,1257.926261467801,1258.5101332537306,"[72, 0, 182]",182,a,0.06061323339235969,colour,0.5
145,19,0,2,15,36,736,1259.0199037756247,1259.7661065131833,"[29, 0, 225]",225,a,0.2236428671167232,colour,0.5
145,19,0,2,15,37,737,1260.285483717249,1260.9341316846549,"[76, 0, 178]",178,l,0.12597270021797158,colour,0.5
145,19,0,2,15,38,738,1261.4417742587102,1262.2861059932911,"[8, 0, 246]",246,a,0.321289403247647,colour,0.5
145,19,0,2,15,39,739,1262.8017507225159,1263.870148708229,"[15, 0, 239]",239,a,0.5457203554396983,colour,0.5
145,19,0,2,15,40,740,1264.3792701725615,1265.8781087218667,"[93, 0, 161]",161,l,0.975790310301818,colour,0.5
145,19,0,2,15,41,741,1266.394879061816,1266.9821568245825,"[92, 0, 162]",162,l,0.06401369636296295,colour,0.5
145,19,0,2,15,42,742,1267.488616680319,1268.2861095379048,"[24, 0, 230]",230,a,0.27417325897840783,colour,0.5
145,19,0,2,15,43,743,1268.8011394741188,1270.2941203576338,"[48, 0, 206]",206,a,0.9697660478122998,colour,0.5
145,19,0,2,15,44,744,1270.8011233264406,1272.2541127328004,"[32, 0, 222]",222,a,0.9297599983692635,colour,0.5
145,19,0,2,15,45,745,1272.7698886125872,1273.4541288016771,"[21, 0, 233]",233,a,0.1609650950122159,colour,0.5
145,19,0,2,15,46,746,1273.9730200002668,1274.6941111416672,"[2, 0, 252]",252,a,0.1978444042033516,colour,0.5
145,19,0,2,15,47,747,1275.2073526249442,1275.7901212493016,"[95, 0, 159]",159,l,0.05956481635803357,colour,0.5
145,19,0,2,15,48,748,1276.3010677942075,1276.9500871580385,"[90, 0, 164]",164,l,0.1256757406226825,colour,0.5
145,19,0,2,15,49,749,1277.4573382495728,1278.1581108958926,"[34, 0, 220]",220,a,0.17755111525184475,colour,0.5
145,19,0,2,15,50,750,1278.6760761634505,1279.3101124586829,"[94, 0, 160]",160,a,0.11072929968941025,colour,0.5
145,19,0,2,16,1,751,1283.8315128476243,1284.414097939938,"[36, 0, 218]",218,a,0.058669605263276026,colour,0.5
145,19,0,2,16,2,752,1284.9260684834444,1285.750082904502,"[70, 0, 184]",184,a,0.3007306623912882,colour,0.5
145,19,0,2,16,3,753,1286.2698563172307,1286.9901136874687,"[56, 0, 198]",198,a,0.19702599302399904,colour,0.5
145,19,0,2,16,4,754,1287.5041818526806,1288.2621101617697,"[26, 0, 228]",228,a,0.2346248581307009,colour,0.5
145,19,0,2,16,5,755,1288.7697803050396,1289.5900492543296,"[90, 0, 164]",164,l,0.2969851906236727,colour,0.5
145,19,0,2,16,6,756,1290.0978580312512,1290.8701514651475,"[79, 0, 175]",175,l,0.24887694924836978,colour,0.5
145,19,0,2,16,7,757,1291.379166591185,1292.2381052717683,"[6, 0, 248]",248,a,0.33562183889443986,colour,0.5
145,19,0,2,16,8,758,1292.7540843759198,1293.5580745045736,"[68, 0, 186]",186,l,0.2806417793035507,colour,0.5
145,19,0,2,16,9,759,1294.0666508865834,1295.4860877976462,"[72, 0, 182]",182,l,0.8961720569641329,colour,0.5
145,19,0,2,16,10,760,1296.0041609788896,1296.7740925206454,"[62, 0, 192]",192,a,0.24665290309349075,colour,0.5
145,19,0,2,16,11,761,1297.2853907696845,1298.0381853012077,"[83, 0, 171]",171,l,0.23007712286198512,colour,0.5
145,19,0,2,16,12,762,1298.5509813451208,1299.2301054797426,"[31, 0, 223]",223,a,0.15581713907886297,colour,0.5
145,19,0,2,16,13,763,1299.7384632774338,1300.4780533471785,"[45, 0, 209]",209,a,0.21629764646058902,colour,0.5
145,19,0,2,16,14,764,1300.9884934066213,1301.5820872714685,"[63, 0, 191]",191,a,0.07034476459375583,colour,0.5
145,19,0,2,16,15,765,1302.0977879267302,1302.7101260857307,"[18, 0, 236]",236,a,0.08895160662359558,colour,0.5
145,19,0,2,16,16,766,1303.2229059819656,1303.7660864270583,"[89, 0, 165]",165,l,0.019973486312665045,colour,0.5
145,19,0,2,16,17,767,1304.2853702896973,1304.8941283921013,"[37, 0, 217]",217,a,0.08598122303374112,colour,0.5
145,19,0,2,16,18,768,1305.4104670772504,1306.062049982167,"[8, 0, 246]",246,a,0.128463773697149,colour,0.5
145,19,0,2,16,19,769,1306.5822050313,1307.3100907971675,"[17, 0, 237]",237,a,0.20456931801163591,colour,0.5
145,19,0,2,16,20,770,1307.8165419882862,1308.5901173896273,"[60, 0, 194]",194,l,0.250188061298104,colour,0.5
145,19,0,2,16,21,771,1309.0978024990181,1309.830123360327,"[46, 0, 208]",208,l,0.2090422226174269,colour,0.5
145,19,0,2,16,22,772,1310.3478046651871,1311.1500248516677,"[13, 0, 241]",241,a,0.27891555399401113,colour,0.5
145,19,0,2,16,23,773,1311.6603302159056,1312.286044947221,"[96, 0, 158]",158,l,0.10240694804815575,colour,0.5
145,19,0,2,16,24,774,1312.8009118313494,1313.486061409989,"[81, 0, 173]",173,l,0.16179335236665793,colour,0.5
145,19,0,2,16,25,775,1314.0040711820766,1314.6460202294693,"[7, 0, 247]",247,a,0.11867119639646262,colour,0.5
145,19,0,2,16,26,776,1315.1603286405152,1315.830129267997,"[1, 0, 253]",253,a,0.14654955797595903,colour,0.5
145,19,0,2,16,27,777,1316.347723532992,1316.9980796088057,"[57, 0, 197]",197,a,0.12698055111104622,colour,0.5
145,19,0,2,16,28,778,1317.504028252908,1318.1660504295724,"[2, 0, 252]",252,a,0.13860569201642647,colour,0.5
145,19,0,2,16,29,779,1318.6759150805883,1319.2620577802882,"[91, 0, 163]",163,l,0.06291329173836857,colour,0.5
145,19,0,2,16,30,780,1319.769582200708,1320.342067516176,"[5, 0, 249]",249,a,0.04917477531125769,colour,0.5
145,19,0,2,16,31,781,1320.8634513636061,1322.5020562679274,"[64, 0, 190]",190,a,1.1153274471871555,colour,0.5
145,19,0,2,16,32,782,1323.0196706190472,1324.5180523074232,"[86, 0, 168]",168,l,0.975099111237796,colour,0.5
145,19,0,2,16,33,783,1325.0352389421896,1325.5900338943466,"[76, 0, 178]",178,l,0.03147614121553488,colour,0.5
145,19,0,2,16,34,784,1326.0977548437077,1326.7020286199695,"[33, 0, 221]",221,a,0.08094866378814913,colour,0.5
145,19,0,2,16,35,785,1327.222763409838,1328.5900086882175,"[43, 0, 211]",211,a,0.8439048059226479,colour,0.5
145,19,0,2,16,36,786,1329.0976847391867,1330.5180030767224,"[73, 0, 181]",181,l,0.8968900375184603,colour,0.5
145,19,0,2,16,37,787,1331.0352598160098,1331.974043211172,"[25, 0, 229]",229,a,0.41555516872904263,colour,0.5
145,19,0,2,16,38,788,1332.488356742193,1333.278118804301,"[84, 0, 170]",170,l,0.2664688511285931,colour,0.5
145,19,0,2,16,39,789,1333.7851840007352,1334.5580508738349,"[88, 0, 166]",166,l,0.24951576683088206,colour,0.5
145,19,0,2,16,40,790,1335.0664850775793,1335.774020840734,"[12, 0, 242]",242,a,0.184189776860876,colour,0.5
145,19,0,2,16,41,791,1336.2851946345472,1336.8940326876182,"[16, 0, 238]",238,a,0.08616829969105311,colour,0.5
145,19,0,2,16,42,792,1337.4102083206817,1338.1340953720792,"[85, 0, 169]",169,l,0.20048986517940648,colour,0.5
145,19,0,2,16,43,793,1338.6445622130414,1339.4940269374638,"[28, 0, 226]",226,a,0.326119525852846,colour,0.5
145,19,0,2,16,44,794,1340.0039364868717,1340.806115319574,"[9, 0, 245]",245,a,0.27884820639155805,colour,0.5
145,19,0,2,16,45,795,1341.3164537668636,1342.038026187569,"[32, 0, 222]",222,a,0.19828905587201007,colour,0.5
145,19,0,2,16,46,796,1342.5508045084134,1343.190017116518,"[95, 0, 159]",159,l,0.11584023415343836,colour,0.5
145,19,0,2,16,47,797,1343.7071080468013,1344.397984534473,"[66, 0, 188]",188,a,0.16764983659959398,colour,0.5
145,19,0,2,16,48,798,1344.9102803944552,1345.6460749740363,"[47, 0, 207]",207,a,0.21253996549057774,colour,0.5
145,19,0,2,16,49,799,1346.1601707084337,1346.9100180932728,"[97, 0, 157]",157,l,0.22655929386382923,colour,0.5
145,19,0,2,16,50,800,1347.4257994868967,1348.1819929060584,"[4, 0, 250]",250,a,0.23297543270746246,colour,0.5
