id,age,condition,counterbalance,block,trialinblock,trial,tstart,tend,trialstim,trialintensity,response,RT,trialtype,colourfreq
021,80,0,1,Practice,1,NA,5.9076701290905476e-06,1.0919185180100612,"[63, 0, 191]",191,a,0.48942011705366895,colour,0.5
021,80,0,1,Practice,2,NA,1.6220780570874922,2.6198886676575057,"[27, 0, 227]",227,a,0.47160410293145105,colour,0.5
021,80,0,1,Practice,3,NA,3.125852282566484,4.07590237975819,"[35, 0, 219]",219,a,0.4269904185202904,colour,0.5
021,80,0,1,Practice,4,NA,4.595956226403359,5.9718108720262535,"[98, 0, 156]",156,a,0.8634165975963697,colour,0.5
021,80,0,1,Practice,5,NA,6.491592964972369,9.459797783754766,"[91, 0, 163]",163,a,2.4505522507824935,colour,0.5
021,80,0,1,Practice,6,NA,9.972023942682426,10.507956081419252,"[70, 0, 184]",184,a,0.013102072232868522,colour,0.5
021,80,0,1,Practice,7,NA,11.018817564239725,17.459871826751623,"[45, 0, 209]",209,a,5.918241919018328,colour,0.5
021,80,0,1,Practice,8,NA,17.973538674064912,18.70796521869488,"[13, 0, 241]",241,a,0.21173865644959733,colour,0.5
021,80,0,1,Practice,9,NA,19.22484230407281,48.30788235348882,"[1, 0, 253]",253,a,28.56115757615771,colour,0.5
021,80,0,1,Practice,10,NA,48.825101297174115,55.58792058803374,"[97, 0, 157]",157,l,6.2404850763850845,colour,0.5
021,80,0,1,1,1,1,6.735644710017368,10.280025631480385,"[76, 0, 178]",178,l,3.0205496986745857,colour,0.5
021,80,0,1,1,2,2,10.796535258647054,11.503978237626143,"[17, 0, 237]",237,a,0.18480156466830522,colour,0.5
021,80,0,1,1,3,3,12.015288310940377,12.823940239381045,"[10, 0, 244]",244,a,0.2854114744695835,colour,0.5
021,80,0,1,1,4,4,13.343517532397527,14.432048187823966,"[74, 0, 180]",180,a,0.5657427303958684,colour,0.5
021,80,0,1,1,5,5,14.952833800169174,15.75190897117136,"[28, 0, 226]",226,a,0.2764774736133404,colour,0.5
021,80,0,1,1,6,6,16.26528752327431,31.056032065302134,"[49, 0, 205]",205,a,14.26749936194392,colour,0.5
021,80,0,1,1,7,7,31.566037720942404,32.216033940028865,"[50, 0, 204]",204,a,0.12732447864254937,colour,0.5
021,80,0,1,1,8,8,32.72236304398393,33.456078696704935,"[45, 0, 209]",209,a,0.21105809073196724,colour,0.5
021,80,0,1,1,9,9,33.97235674248077,35.408030675840564,"[82, 0, 172]",172,l,0.912838353018742,colour,0.5
021,80,0,1,1,10,10,35.925424093264155,36.9120632642298,"[78, 0, 176]",176,l,0.46390441519906744,colour,0.5
021,80,0,1,1,11,11,37.42550995165948,42.5200109173893,"[6, 0, 248]",248,l,4.5695780019741505,colour,0.5
021,80,0,1,1,12,12,43.03831018041819,43.80796033493243,"[29, 0, 225]",225,a,0.24680551572237164,colour,0.5
021,80,0,1,1,13,13,44.31954058655538,44.9199397888151,"[30, 0, 224]",224,a,0.07767232332844287,colour,0.5
021,80,0,1,1,14,14,45.428903328138404,48.936015003942885,"[48, 0, 206]",206,a,2.984336747729685,colour,0.5
021,80,0,1,1,15,15,49.44577214278979,50.54393902630545,"[35, 0, 219]",219,a,0.5754805707838386,colour,0.5
021,80,0,1,1,16,16,51.05511716124602,52.17598650522996,"[80, 0, 174]",174,l,0.597636766906362,colour,0.5
021,80,0,1,1,17,17,52.69585681962781,53.25597031030338,"[9, 0, 245]",245,a,0.036329529306385666,colour,0.5
021,80,0,1,1,18,18,53.77558501868043,54.39197239611531,"[66, 0, 188]",188,a,0.09415595669997856,colour,0.5
021,80,0,1,1,19,19,54.90031641576206,55.847984138992615,"[86, 0, 168]",168,l,0.42469941679155454,colour,0.5
021,80,0,1,1,20,20,56.353383766603656,59.36793558567297,"[58, 0, 196]",196,l,2.4917698017670773,colour,0.5
021,80,0,1,1,21,21,59.88589653506642,60.50391640380258,"[54, 0, 200]",200,a,0.09516183915548027,colour,0.5
021,80,0,1,1,22,22,61.01092922425596,61.60008885158459,"[39, 0, 215]",215,a,0.06696365273091942,colour,0.5
021,80,0,1,1,23,23,62.12029354122933,65.8879646200221,"[62, 0, 192]",192,a,3.2446066739503294,colour,0.5
021,80,0,1,1,24,24,66.4015192212537,67.0559017023188,"[2, 0, 252]",252,a,0.1312412762781605,colour,0.5
021,80,0,1,1,25,25,67.5734140612185,68.2640760531649,"[12, 0, 242]",242,a,0.16787564230617136,colour,0.5
021,80,0,1,1,26,26,68.77905834588455,69.8319286161568,"[96, 0, 158]",158,l,0.5300941606401466,colour,0.5
021,80,0,1,1,27,27,70.34163258585613,70.93595277628629,"[40, 0, 214]",214,a,0.07133731170324609,colour,0.5
021,80,0,1,1,28,28,71.45095830585342,72.01610514736967,"[5, 0, 249]",249,a,0.042273845756426454,colour,0.5
021,80,0,1,1,29,29,72.52905243821442,73.87996718473732,"[52, 0, 202]",202,a,0.8279988216236234,colour,0.5
021,80,0,1,1,30,30,74.3883891858859,74.98400040325942,"[14, 0, 240]",240,a,0.07269844319671392,colour,0.5
021,80,0,1,1,31,31,75.49786496121669,76.67218983056955,"[61, 0, 193]",193,l,0.6517220519017428,colour,0.5
021,80,0,1,1,32,32,77.18535649357364,79.40795860206708,"[44, 0, 210]",210,a,1.699868928117212,colour,0.5
021,80,0,1,1,33,33,79.91562048060587,80.96794133580988,"[43, 0, 211]",211,a,0.5239198381314054,colour,0.5
021,80,0,1,1,34,34,81.48355417582206,84.31198859104188,"[4, 0, 250]",250,a,2.305733530141879,colour,0.5
021,80,0,1,1,35,35,84.82736788043985,85.51997192663839,"[87, 0, 167]",167,l,0.16992049041436985,colour,0.5
021,80,0,1,1,36,36,86.03037615434732,87.04793183627771,"[51, 0, 203]",203,a,0.49315613944781944,colour,0.5
021,80,0,1,1,37,37,87.56304449198069,88.15196702402318,"[84, 0, 170]",170,l,0.06590735795907676,colour,0.5
021,80,0,1,1,38,38,88.67237887659576,91.47220432409085,"[27, 0, 227]",227,a,2.2768480826052837,colour,0.5
021,80,0,1,1,39,39,91.98498344270047,92.63191357126925,"[73, 0, 181]",181,l,0.12415992666501552,colour,0.5
021,80,0,1,1,40,40,93.14232646359596,93.79214978427626,"[34, 0, 220]",220,a,0.12676836817990988,colour,0.5
021,80,0,1,1,41,41,94.31414332205895,95.88789963541785,"[3, 0, 251]",251,l,1.050958542211447,colour,0.5
021,80,0,1,1,42,42,96.40872108773328,99.37603266397491,"[75, 0, 179]",179,a,2.4443802913301624,colour,0.5
021,80,0,1,1,43,43,99.89289123861818,100.46392095665215,"[20, 0, 234]",234,a,0.048502912861295044,colour,0.5
021,80,0,1,1,44,44,100.97104090324137,102.05596196075203,"[65, 0, 189]",189,l,0.5619176988257095,colour,0.5
021,80,0,1,1,45,45,102.5647640232346,103.46394340589177,"[70, 0, 184]",184,l,0.3763426207588054,colour,0.5
021,80,0,1,1,46,46,103.97103814629372,104.97585685114609,"[8, 0, 246]",246,a,0.4818539430270903,colour,0.5
021,80,0,1,1,47,47,105.48666240787134,108.10390718781855,"[83, 0, 171]",171,l,2.0937861353741027,colour,0.5
021,80,0,1,1,48,48,108.61282976716757,109.20800381555455,"[97, 0, 157]",157,l,0.07248340331716463,colour,0.5
021,80,0,1,1,49,49,109.72214997332776,112.4879491024767,"[89, 0, 165]",165,l,2.2429950564401224,colour,0.5
021,80,0,1,1,50,50,113.00345560407732,113.96795512043172,"[72, 0, 182]",182,l,0.44199082808336243,colour,0.5
021,80,0,1,2,1,51,119.45740004978143,120.19189709273633,"[64, 0, 190]",190,a,0.2110013768542558,colour,0.5
021,80,0,1,2,2,52,120.70828856615117,121.35190566285746,"[60, 0, 194]",194,a,0.12076497479574755,colour,0.5
021,80,0,1,2,3,53,121.86451424617553,122.43991644162452,"[51, 0, 203]",203,a,0.05279583344236016,colour,0.5
021,80,0,1,2,4,54,122.95948388852412,123.51988921896555,"[33, 0, 221]",221,a,0.03737637173617259,colour,0.5
021,80,0,1,2,5,55,124.03752603317844,130.26394175173482,"[74, 0, 180]",180,l,5.703683325846214,colour,0.5
021,80,0,1,2,6,56,130.7719191008946,131.44004207849503,"[18, 0, 236]",236,a,0.14363993977895007,colour,0.5
021,80,0,1,2,7,57,131.96088243537815,132.8240375192836,"[24, 0, 230]",230,a,0.3403939403942786,colour,0.5
021,80,0,1,2,8,58,133.33592772769043,134.43194342480274,"[59, 0, 195]",195,l,0.5727173478226177,colour,0.5
021,80,0,1,2,9,59,134.94504707242595,136.25591123342747,"[61, 0, 193]",193,l,0.7878241746220738,colour,0.5
021,80,0,1,2,10,60,136.77316562319174,137.57592876744457,"[42, 0, 212]",212,l,0.27993741002865136,colour,0.5
021,80,0,1,2,11,61,138.08684026869014,138.83989375608508,"[62, 0, 192]",192,l,0.23015252861659974,colour,0.5
021,80,0,1,2,12,62,139.35244917019736,140.30393759271828,"[41, 0, 213]",213,a,0.42849727300927043,colour,0.5
021,80,0,1,2,13,63,140.82125775481109,141.39203186682425,"[82, 0, 172]",172,l,0.048306383774615824,colour,0.5
021,80,0,1,2,14,64,141.89940269326326,145.6959422841901,"[50, 0, 204]",204,l,3.2742845394532196,colour,0.5
021,80,0,1,2,15,65,146.2118887117249,146.87994079705095,"[25, 0, 229]",229,a,0.145589477091562,colour,0.5
021,80,0,1,2,16,66,147.3994798870408,148.2158921554801,"[47, 0, 207]",207,a,0.293853955634404,colour,0.5
021,80,0,1,2,17,67,148.7285999879823,149.4318630802445,"[79, 0, 175]",175,l,0.17989030602620915,colour,0.5
021,80,0,1,2,18,68,149.9474948248244,150.70396847021766,"[40, 0, 214]",214,a,0.234211110859178,colour,0.5
021,80,0,1,2,19,69,151.21299541875487,152.00798483216204,"[83, 0, 171]",171,l,0.27267725428100675,colour,0.5
021,80,0,1,2,20,70,152.52702098095324,153.47189318580786,"[90, 0, 164]",164,l,0.4217896831105463,colour,0.5
021,80,0,1,2,21,71,153.98009423940675,154.65601772931404,"[34, 0, 220]",220,a,0.15296936192316934,colour,0.5
021,80,0,1,2,22,72,155.1676302763517,155.7599036495085,"[21, 0, 233]",233,a,0.07081349665531889,colour,0.5
021,80,0,1,2,23,73,156.27574964630185,157.35988104273565,"[58, 0, 196]",196,l,0.5611823884537444,colour,0.5
021,80,0,1,2,24,74,157.86940699402476,158.47189554886427,"[7, 0, 247]",247,a,0.0773698496632278,colour,0.5
021,80,0,1,2,25,75,158.9809492789209,159.5519262215821,"[27, 0, 227]",227,a,0.0484024821780622,colour,0.5
021,80,0,1,2,26,76,160.0593281618203,160.60791811469244,"[43, 0, 211]",211,a,0.025374311197083443,colour,0.5
021,80,0,1,2,27,77,161.121556998929,161.99200414010556,"[98, 0, 156]",156,l,0.34779115457786247,colour,0.5
021,80,0,1,2,28,78,162.5122600296745,165.10389694781043,"[94, 0, 160]",160,l,2.068642617901787,colour,0.5
021,80,0,1,2,29,79,165.62150107283378,166.6559058771236,"[6, 0, 248]",248,a,0.5110828242613934,colour,0.5
021,80,0,1,2,30,80,167.16987283498747,170.91993624420138,"[23, 0, 231]",231,a,3.226822955242824,colour,0.5
021,80,0,1,2,31,81,171.43565778568154,173.83986894378904,"[95, 0, 159]",159,l,1.8815437499433756,colour,0.5
021,80,0,1,2,32,82,174.3587400711258,175.0879178310861,"[78, 0, 176]",176,l,0.20623505354160443,colour,0.5
021,80,0,1,2,33,83,175.60871762188617,178.73603422363522,"[87, 0, 167]",167,l,2.604572787473444,colour,0.5
021,80,0,1,2,34,84,179.2507447625976,180.00787691841833,"[31, 0, 223]",223,a,0.23412525246385485,colour,0.5
021,80,0,1,2,35,85,180.5164021071978,183.97587851266144,"[2, 0, 252]",252,l,2.9365782035747543,colour,0.5
021,80,0,1,2,36,86,184.4851827287348,185.07188436365686,"[85, 0, 169]",169,l,0.06402398680802435,colour,0.5
021,80,0,1,2,37,87,185.580412703217,186.47193572117249,"[69, 0, 185]",185,l,0.36899030511267483,colour,0.5
021,80,0,1,2,38,88,186.98661908478243,187.63195334968623,"[32, 0, 222]",222,a,0.12259793368866667,colour,0.5
021,80,0,1,2,39,89,188.14254780497868,188.67988597368822,"[75, 0, 179]",179,l,0.014946452691219747,colour,0.5
021,80,0,1,2,40,90,189.18931228196016,190.83984767610673,"[37, 0, 217]",217,a,1.1279510874883272,colour,0.5
021,80,0,1,2,41,91,191.34796326520154,191.9039409797988,"[38, 0, 216]",216,a,0.033140952757094055,colour,0.5
021,80,0,1,2,42,92,192.4104662190075,193.14385655499063,"[0, 0, 254]",254,a,0.21069811552297324,colour,0.5
021,80,0,1,2,43,93,193.64859609678388,198.18382325139828,"[26, 0, 228]",228,a,4.012981949257664,colour,0.5
021,80,0,1,2,44,94,198.69556931214174,201.5439705339959,"[81, 0, 173]",173,a,2.3254537892644294,colour,0.5
021,80,0,1,2,45,95,202.05500215827487,204.79989752126858,"[22, 0, 232]",232,a,2.222198810253758,colour,0.5
021,80,0,1,2,46,96,205.32055395212956,205.95190471759997,"[96, 0, 158]",158,a,0.1086290066014044,colour,0.5
021,80,0,1,2,47,97,206.46251610829495,207.19993509416236,"[88, 0, 166]",166,l,0.21487288229400292,colour,0.5
021,80,0,1,2,48,98,207.71251532057067,208.4079542697291,"[10, 0, 244]",244,a,0.17269198410212994,colour,0.5
021,80,0,1,2,49,99,208.91566734825028,209.4639437997248,"[28, 0, 226]",226,a,0.025614163314457983,colour,0.5
021,80,0,1,2,50,100,209.97824395127827,210.65590627095662,"[54, 0, 200]",200,a,0.15344276477117091,colour,0.5
021,80,0,1,3,1,101,246.9380669411621,252.4239475649083,"[92, 0, 162]",162,a,4.961799702548888,colour,0.5
021,80,0,1,3,2,102,252.93948439264204,254.87986399710644,"[68, 0, 186]",186,l,1.41751409182325,colour,0.5
021,80,0,1,3,3,103,255.3864530393621,255.99984876310918,"[4, 0, 250]",250,a,0.09094808163354173,colour,0.5
021,80,0,1,3,4,104,256.5114116855548,257.0638361222809,"[33, 0, 221]",221,a,0.0297873547533527,colour,0.5
021,80,0,1,3,5,105,257.5738295686897,260.1358630581526,"[23, 0, 231]",231,a,2.0392739214003086,colour,0.5
021,80,0,1,3,6,106,260.6535621000221,261.2557883534464,"[78, 0, 176]",176,l,0.07924219314008951,colour,0.5
021,80,0,1,3,7,107,261.76289845391875,262.29584051441634,"[41, 0, 213]",213,a,0.009719723486341536,colour,0.5
021,80,0,1,3,8,108,262.8096357554896,266.27180843014503,"[37, 0, 217]",217,l,2.9389806637191214,colour,0.5
021,80,0,1,3,9,109,266.7799779761117,267.47181953664403,"[8, 0, 246]",246,a,0.16901937092188746,colour,0.5
021,80,0,1,3,10,110,267.9831922314479,268.6398751665838,"[99, 0, 155]",155,l,0.13438416679855436,colour,0.5
021,80,0,1,3,11,111,269.15504965605214,272.6558519201935,"[75, 0, 179]",179,a,2.977908394590486,colour,0.5
021,80,0,1,3,12,112,273.17184285231633,273.7279387207236,"[89, 0, 165]",165,l,0.033200029633007944,colour,0.5
021,80,0,1,3,13,113,274.23427845846163,274.8398531899438,"[11, 0, 243]",243,a,0.0828399756574072,colour,0.5
021,80,0,1,3,14,114,275.3594044891652,277.24784763203934,"[28, 0, 226]",226,a,1.3655067379586399,colour,0.5
021,80,0,1,3,15,115,277.76557148614665,278.78377977077616,"[64, 0, 190]",190,a,0.4941718680784106,colour,0.5
021,80,0,1,3,16,116,279.29798224853585,279.83983782998985,"[22, 0, 232]",232,a,0.019375643925741315,colour,0.5
021,80,0,1,3,17,117,280.36039422400063,280.9919037093641,"[76, 0, 178]",178,l,0.10823279758915305,colour,0.5
021,80,0,1,3,18,118,281.50116539007286,282.07981051283423,"[70, 0, 184]",184,l,0.055858773179352283,colour,0.5
021,80,0,1,3,19,119,282.5948877224,283.60783737624297,"[56, 0, 198]",198,a,0.4904460856341757,colour,0.5
021,80,0,1,3,20,120,284.12607874395326,284.7838668107288,"[25, 0, 229]",229,a,0.13363034569192678,colour,0.5
021,80,0,1,3,21,121,285.2995064322604,288.1837889867602,"[26, 0, 228]",228,a,2.361675404768903,colour,0.5
021,80,0,1,3,22,122,288.70428630389506,290.9278730272199,"[36, 0, 218]",218,a,1.6994589344831184,colour,0.5
021,80,0,1,3,23,123,291.438703790016,291.99197932780953,"[80, 0, 174]",174,l,0.030384031299035996,colour,0.5
021,80,0,1,3,24,124,292.50121304538334,295.5758236105903,"[7, 0, 247]",247,a,2.552048707730137,colour,0.5
021,80,0,1,3,25,125,296.0960665032035,296.70392711641034,"[83, 0, 171]",171,l,0.0835150275961496,colour,0.5
021,80,0,1,3,26,126,297.22247647162294,299.4638134367415,"[87, 0, 167]",167,l,1.7181788249872625,colour,0.5
021,80,0,1,3,27,127,299.9727017515106,302.95183224999346,"[6, 0, 248]",248,l,2.456394167325925,colour,0.5
021,80,0,1,3,28,128,303.4580877047265,304.3997268284438,"[0, 0, 254]",254,a,0.41882244794396684,colour,0.5
021,80,0,1,3,29,129,304.91127045237226,307.11980162764667,"[65, 0, 189]",189,a,1.6864246036857367,colour,0.5
021,80,0,1,3,30,130,307.6299644277897,308.1439904625877,"[91, 0, 163]",163,l,0.004115296003874391,colour,0.5
021,80,0,1,3,31,131,308.66416640143143,309.19979842961766,"[63, 0, 191]",191,a,0.012898060085717589,colour,0.5
021,80,0,1,3,32,132,309.7111951490515,310.23982026445447,"[74, 0, 180]",180,a,0.006249547062907368,colour,0.5
021,80,0,1,3,33,133,310.7579899521661,311.4479304184206,"[61, 0, 193]",193,a,0.1671017351327464,colour,0.5
021,80,0,1,3,34,134,311.96112268138677,312.61573241162114,"[2, 0, 252]",252,a,0.13181235291995108,colour,0.5
021,80,0,1,3,35,135,313.13285840762546,316.04784873477183,"[24, 0, 230]",230,a,2.392212248290889,colour,0.5
021,80,0,1,3,36,136,316.55634005286265,319.12784789979924,"[69, 0, 185]",185,l,2.048286297591403,colour,0.5
021,80,0,1,3,37,137,319.634362505225,320.21573816175805,"[16, 0, 238]",238,a,0.05900717747863382,colour,0.5
021,80,0,1,3,38,138,320.7281978712999,323.23181140766246,"[93, 0, 161]",161,l,1.9810272604809143,colour,0.5
021,80,0,1,3,39,139,323.74627618677914,325.567838384537,"[82, 0, 172]",172,l,1.2984694360056892,colour,0.5
021,80,0,1,3,40,140,326.0792225008481,327.8238118456211,"[5, 0, 249]",249,a,1.2219971611630172,colour,0.5
021,80,0,1,3,41,141,328.34478453476913,328.89584271993954,"[47, 0, 207]",207,a,0.0278909865883179,colour,0.5
021,80,0,1,3,42,142,329.40890501381364,331.2478602351039,"[29, 0, 225]",225,a,1.3158258319017477,colour,0.5
021,80,0,1,3,43,143,331.7681724446011,333.8077756212442,"[3, 0, 251]",251,a,1.5170389561099,colour,0.5
021,80,0,1,3,44,144,334.3148262508912,335.9758249496226,"[10, 0, 244]",244,a,1.1381816291250288,colour,0.5
021,80,0,1,3,45,145,336.48828977916855,337.1037378340843,"[77, 0, 177]",177,l,0.09313353267498314,colour,0.5
021,80,0,1,3,46,146,337.61316650541266,338.2317928968696,"[38, 0, 216]",216,a,0.09626185079105198,colour,0.5
021,80,0,1,3,47,147,338.7381535085151,339.3118432618794,"[9, 0, 245]",245,a,0.050923489907290787,colour,0.5
021,80,0,1,3,48,148,339.831924283877,341.46382446441567,"[55, 0, 199]",199,a,1.1090980771114118,colour,0.5
021,80,0,1,3,49,149,341.9725749330828,342.54383111256175,"[81, 0, 173]",173,l,0.04815120849525556,colour,0.5
021,80,0,1,3,50,150,343.05062495468883,344.69576505356235,"[51, 0, 203]",203,a,1.1209414178156294,colour,0.5
021,80,0,1,4,1,151,351.2557970180642,352.5597814784851,"[36, 0, 218]",218,a,0.7806802034028806,colour,0.5
021,80,0,1,4,2,152,353.07031961379107,355.9197873704252,"[54, 0, 200]",200,a,2.326623511617072,colour,0.5
021,80,0,1,4,3,153,356.4297004722757,357.9837337695644,"[41, 0, 213]",213,a,1.0305766219389625,colour,0.5
021,80,0,1,4,4,154,358.49231645988766,360.1437730596517,"[11, 0, 243]",243,a,1.1292925266898237,colour,0.5
021,80,0,1,4,5,155,360.66413528763223,362.5278496327228,"[8, 0, 246]",246,a,1.341137521492783,colour,0.5
021,80,0,1,4,6,156,363.0389903523028,364.6157099623815,"[28, 0, 226]",226,a,1.0520128677599132,colour,0.5
021,80,0,1,4,7,157,365.1345755758812,366.98379520955496,"[46, 0, 208]",208,a,1.3261977642541751,colour,0.5
021,80,0,1,4,8,158,367.4940930988523,368.83974763925653,"[43, 0, 211]",211,a,0.822416843380779,colour,0.5
021,80,0,1,4,9,159,369.35502295329934,369.9437914916198,"[73, 0, 181]",181,l,0.06571713037556037,colour,0.5
021,80,0,1,4,10,160,370.4643025933765,372.02379695820855,"[50, 0, 204]",204,a,1.036824987444561,colour,0.5
021,80,0,1,4,11,161,372.54244319949066,374.1917923297151,"[89, 0, 165]",165,a,1.126868405030109,colour,0.5
021,80,0,1,4,12,162,374.7001887309598,376.37576209183317,"[1, 0, 253]",253,l,1.1525483406730928,colour,0.5
021,80,0,1,4,13,163,376.88770271243993,378.263794847182,"[67, 0, 187]",187,a,0.8537437417544425,colour,0.5
021,80,0,1,4,14,164,378.7782289063907,380.7278052069014,"[17, 0, 237]",237,a,1.4267694709124044,colour,0.5
021,80,0,1,4,15,165,381.2484671516577,382.24770230287686,"[70, 0, 184]",184,l,0.47631213709246367,colour,0.5
021,80,0,1,4,16,166,382.7641095300787,383.9837621264742,"[62, 0, 192]",192,a,0.6972738772747107,colour,0.5
021,80,0,1,4,17,167,384.49838247476146,386.41579377278686,"[95, 0, 159]",159,l,1.395630830898881,colour,0.5
021,80,0,1,4,18,168,386.9215915785753,387.519747828308,"[82, 0, 172]",172,l,0.07533406012225896,colour,0.5
021,80,0,1,4,19,169,388.03099646163173,389.59970957797486,"[19, 0, 235]",235,a,1.0462930434150621,colour,0.5
021,80,0,1,4,20,170,390.10899095097557,391.4797189042438,"[69, 0, 185]",185,l,0.8479928036103956,colour,0.5
021,80,0,1,4,21,171,391.9997908677906,392.5517261478817,"[15, 0, 239]",239,a,0.027749989763833582,colour,0.5
021,80,0,1,4,22,172,393.063643925474,394.9437662854907,"[33, 0, 221]",221,a,1.3574309272808023,colour,0.5
021,80,0,1,4,23,173,395.45429496851284,396.2078029541299,"[55, 0, 199]",199,a,0.23075235600117594,colour,0.5
021,80,0,1,4,24,174,396.71994601155166,397.631857645174,"[30, 0, 224]",224,a,0.388958293304313,colour,0.5
021,80,0,1,4,25,175,398.14323900459567,398.7197731132037,"[86, 0, 168]",168,l,0.05381431896239519,colour,0.5
021,80,0,1,4,26,176,399.2368317616056,399.80772914743284,"[64, 0, 190]",190,a,0.0476809564861469,colour,0.5
021,80,0,1,4,27,177,400.31502356770216,403.1997940973379,"[10, 0, 244]",244,l,2.3618357001105323,colour,0.5
021,80,0,1,4,28,178,403.7137291536783,405.4316862433916,"[71, 0, 183]",183,l,1.1952636876958422,colour,0.5
021,80,0,1,4,29,179,405.94806668913225,406.5919768071617,"[44, 0, 210]",210,a,0.12128406373085454,colour,0.5
021,80,0,1,4,30,180,407.1043435690808,409.11986582452664,"[66, 0, 188]",188,a,1.491231020539999,colour,0.5
021,80,0,1,4,31,181,409.63711824512575,410.2718103993684,"[27, 0, 227]",227,a,0.10972586745629087,colour,0.5
021,80,0,1,4,32,182,410.77767909748945,413.52775156509597,"[90, 0, 164]",164,l,2.227169145771768,colour,0.5
021,80,0,1,4,33,183,414.0446243182523,415.77573546784697,"[83, 0, 171]",171,l,1.2085878890939057,colour,0.5
021,80,0,1,4,34,184,416.29442069988,418.5517907385947,"[96, 0, 158]",158,l,1.7344521445338614,colour,0.5
021,80,0,1,4,35,185,419.0601780813304,420.7517270143144,"[48, 0, 206]",206,a,1.1690292170387693,colour,0.5
021,80,0,1,4,36,186,421.2632982074865,423.0477238856256,"[5, 0, 249]",249,a,1.2618437345372513,colour,0.5
021,80,0,1,4,37,187,423.56041320733493,424.28771074692486,"[23, 0, 231]",231,a,0.20426976238377392,colour,0.5
021,80,0,1,4,38,188,424.796376932587,426.19968500197865,"[21, 0, 233]",233,a,0.8805587412789464,colour,0.5
021,80,0,1,4,39,189,426.71860772313084,428.1997732234886,"[42, 0, 212]",212,a,0.9586607505916618,colour,0.5
021,80,0,1,4,40,190,428.71844230784336,429.27173950715223,"[85, 0, 169]",169,l,0.030847981804981828,colour,0.5
021,80,0,1,4,41,191,429.7808428617427,432.0237386689987,"[84, 0, 170]",170,l,1.7200499869068153,colour,0.5
021,80,0,1,4,42,192,432.5308251386741,434.1518303594785,"[52, 0, 202]",202,a,1.0985028340946883,colour,0.5
021,80,0,1,4,43,193,434.6727805994451,435.90381258603884,"[35, 0, 219]",219,a,0.7082582400762476,colour,0.5
021,80,0,1,4,44,194,436.4226518117939,437.59166409348836,"[20, 0, 234]",234,a,0.646585907205008,colour,0.5
021,80,0,1,4,45,195,438.1101563410484,439.35172764450544,"[57, 0, 197]",197,a,0.7187353292829357,colour,0.5
021,80,0,1,4,46,196,439.86009647644823,441.5277984327986,"[97, 0, 157]",157,l,1.1438120504608378,colour,0.5
021,80,0,1,4,47,197,442.0485194543726,443.3357331677689,"[7, 0, 247]",247,a,0.7645549698499963,colour,0.5
021,80,0,1,4,48,198,443.8495500704157,444.86366747744614,"[4, 0, 250]",250,a,0.4917382941348478,colour,0.5
021,80,0,1,4,49,199,445.3806048212573,446.7997600690578,"[75, 0, 179]",179,l,0.895943938405253,colour,0.5
021,80,0,1,4,50,200,447.31827122118557,448.0157877075835,"[53, 0, 201]",201,a,0.17477857985068113,colour,0.5
021,80,0,1,5,1,201,453.14692855317844,455.7597969172639,"[92, 0, 162]",162,a,2.0891446612076834,colour,0.5
021,80,0,1,5,2,202,456.27272097114474,456.8077712889062,"[16, 0, 238]",238,a,0.011781113047618419,colour,0.5
021,80,0,1,5,3,203,457.3197831956786,457.91168359678704,"[75, 0, 179]",179,l,0.06894075928721577,colour,0.5
021,80,0,1,5,4,204,458.42889269429725,460.60769047174836,"[84, 0, 170]",170,l,1.65597243711818,colour,0.5
021,80,0,1,5,5,205,461.11643030657433,463.1197063169675,"[79, 0, 175]",175,l,1.4797638027230278,colour,0.5
021,80,0,1,5,6,206,463.6322463710676,465.90383267216384,"[74, 0, 180]",180,l,1.7487101546139456,colour,0.5
021,80,0,1,5,7,207,466.41345314646605,467.0076862969436,"[26, 0, 228]",228,a,0.0719997605192475,colour,0.5
021,80,0,1,5,8,208,467.52435582556063,468.8797088218271,"[29, 0, 225]",225,a,0.8326288742828183,colour,0.5
021,80,0,1,5,9,209,469.3993164409767,470.83180691779125,"[40, 0, 214]",214,a,0.909674194874242,colour,0.5
021,80,0,1,5,10,210,471.3523392872303,472.1997043004376,"[73, 0, 181]",181,l,0.32445735909277573,colour,0.5
021,80,0,1,5,11,211,472.71177804103354,473.3116987204412,"[21, 0, 233]",233,a,0.07545221387408674,colour,0.5
021,80,0,1,5,12,212,473.8235227626865,475.2396493353299,"[67, 0, 187]",187,l,0.8928896632860415,colour,0.5
021,80,0,1,5,13,213,475.76101705193287,476.38368075789185,"[56, 0, 198]",198,a,0.09959142422303557,colour,0.5
021,80,0,1,5,14,214,476.90146014431957,478.3996701146243,"[31, 0, 223]",223,a,0.9752680515521206,colour,0.5
021,80,0,1,5,15,215,478.9127465868951,480.36770203505876,"[23, 0, 231]",231,a,0.9247817305731587,colour,0.5
021,80,0,1,5,16,216,480.8730772442068,482.5677190491697,"[55, 0, 199]",199,a,1.1718377323122695,colour,0.5
021,80,0,1,5,17,217,483.0763816902181,484.28767293773126,"[30, 0, 224]",224,a,0.6890027191257104,colour,0.5
021,80,0,1,5,18,218,484.7948220288963,486.43170475418447,"[3, 0, 251]",251,a,1.112877028703224,colour,0.5
021,80,0,1,5,19,219,486.95263136335416,488.2476849736413,"[37, 0, 217]",217,a,0.7722798637696542,colour,0.5
021,80,0,1,5,20,220,488.76497008342994,490.10372050484875,"[61, 0, 193]",193,a,0.8159605271648616,colour,0.5
021,80,0,1,5,21,221,490.624441920314,491.50364819471724,"[43, 0, 211]",211,a,0.356474275526125,colour,0.5
021,80,0,1,5,22,222,492.0150583049399,492.58367492898833,"[89, 0, 165]",165,l,0.04552543768659234,colour,0.5
021,80,0,1,5,23,223,493.0931461357395,493.86372222204227,"[65, 0, 189]",189,a,0.24660032201791182,colour,0.5
021,80,0,1,5,24,224,494.37573649187107,495.35967427364085,"[52, 0, 202]",202,a,0.4608981892815791,colour,0.5
021,80,0,1,5,25,225,495.8762571561383,497.1436517551192,"[57, 0, 197]",197,a,0.7452269812929444,colour,0.5
021,80,0,1,5,26,226,497.6595903057023,498.9917264786782,"[66, 0, 188]",188,a,0.8110079147154465,colour,0.5
021,80,0,1,5,27,227,499.5017128358595,500.11174708470935,"[10, 0, 244]",244,a,0.07991685124579817,colour,0.5
021,80,0,1,5,28,228,500.6271673340816,502.03968470270047,"[6, 0, 248]",248,a,0.8894328776514158,colour,0.5
021,80,0,1,5,29,229,502.5489940387197,503.303650085174,"[69, 0, 185]",185,l,0.23143528477521613,colour,0.5
021,80,0,1,5,30,230,503.8223172003054,504.4877045241301,"[24, 0, 230]",230,a,0.14269746642094105,colour,0.5
021,80,0,1,5,31,231,504.994185258809,505.74365671759006,"[81, 0, 173]",173,l,0.22641099244356155,colour,0.5
021,80,0,1,5,32,232,506.25966537272325,506.94368672859855,"[14, 0, 240]",240,a,0.1614646184607409,colour,0.5
021,80,0,1,5,33,233,507.46293949265964,508.7917153722374,"[13, 0, 241]",241,a,0.806045456090942,colour,0.5
021,80,0,1,5,34,234,509.3079957810696,510.03970006265445,"[87, 0, 167]",167,l,0.20864263363182545,colour,0.5
021,80,0,1,5,35,235,510.5580288641504,511.5357241880847,"[36, 0, 218]",218,a,0.4551826972165145,colour,0.5
021,80,0,1,5,36,236,512.0426058578887,513.2796688070521,"[11, 0, 243]",243,a,0.714272661076393,colour,0.5
021,80,0,1,5,37,237,513.7925400856184,514.3758975748206,"[54, 0, 200]",200,a,0.06050891196355224,colour,0.5
021,80,0,1,5,38,238,514.8862190948566,516.1836995837511,"[35, 0, 219]",219,a,0.7730340787093155,colour,0.5
021,80,0,1,5,39,239,516.6895982141141,517.9117170736426,"[77, 0, 177]",177,l,0.6997507743071765,colour,0.5
021,80,0,1,5,40,240,518.4352733920678,519.2236749447766,"[94, 0, 160]",160,l,0.265754624560941,colour,0.5
021,80,0,1,5,41,241,519.7320256598177,521.2876894792425,"[12, 0, 242]",242,a,1.0323930393205956,colour,0.5
021,80,0,1,5,42,242,521.7946700043394,523.2076422650134,"[62, 0, 192]",192,a,0.8904446678352542,colour,0.5
021,80,0,1,5,43,243,523.716290727607,525.4716466382379,"[28, 0, 226]",226,a,1.2327779055340216,colour,0.5
021,80,0,1,5,44,244,525.9820319613791,527.7916645661462,"[19, 0, 235]",235,a,1.287480347091332,colour,0.5
021,80,0,1,5,45,245,528.2970823106007,530.0076020139386,"[17, 0, 237]",237,a,1.1877747075050138,colour,0.5
021,80,0,1,5,46,246,530.5156537999283,532.9997310031904,"[33, 0, 221]",221,a,1.9608150877756998,colour,0.5
021,80,0,1,5,47,247,533.517059829901,536.0236725028954,"[15, 0, 239]",239,a,1.983514397405088,colour,0.5
021,80,0,1,5,48,248,536.5326797591406,537.1037051448366,"[98, 0, 156]",156,l,0.04851590975886211,colour,0.5
021,80,0,1,5,49,249,537.6107356884168,539.0636691316031,"[90, 0, 164]",164,l,0.9275737043353729,colour,0.5
021,80,0,1,5,50,250,539.5806856384734,541.1597372101969,"[59, 0, 195]",195,a,1.0560856283991598,colour,0.5
021,80,0,1,6,1,251,546.2831279558013,547.327680200222,"[63, 0, 191]",191,l,0.5211093536927365,colour,0.5
021,80,0,1,6,2,252,547.8464367183624,548.4956448517623,"[49, 0, 205]",205,a,0.1249440738465637,colour,0.5
021,80,0,1,6,3,253,549.0039061637945,551.3436364738736,"[66, 0, 188]",188,a,1.8169356896542013,colour,0.5
021,80,0,1,6,4,254,551.8634012375842,552.6716628647409,"[90, 0, 164]",164,l,0.2855304159456864,colour,0.5
021,80,0,1,6,5,255,553.1914020284312,554.6156678208499,"[26, 0, 228]",228,a,0.9016834549838677,colour,0.5
021,80,0,1,6,6,256,555.1303929321584,556.8636225790251,"[24, 0, 230]",230,a,1.2111793952644803,colour,0.5
021,80,0,1,6,7,257,557.3803047107067,558.0077099277405,"[87, 0, 167]",167,l,0.10428015992511064,colour,0.5
021,80,0,1,6,8,258,558.5210010459996,559.0796450975467,"[62, 0, 192]",192,a,0.03559382515959442,colour,0.5
021,80,0,1,6,9,259,559.59909793525,560.5197206529556,"[76, 0, 178]",178,l,0.39845510001759976,colour,0.5
021,80,0,1,6,10,260,561.0393192136544,562.4156945236027,"[59, 0, 195]",195,a,0.8534822280635126,colour,0.5
021,80,0,1,6,11,261,562.92974143225,564.3356209216872,"[99, 0, 155]",155,a,0.8838044255389832,colour,0.5
021,80,0,1,6,12,262,564.8516181553132,566.3116246773861,"[1, 0, 253]",253,a,0.936858621891588,colour,0.5
021,80,0,1,6,13,263,566.8204759706277,567.4157189420657,"[4, 0, 250]",250,a,0.0719973974628374,colour,0.5
021,80,0,1,6,14,264,567.9299619859667,568.7516061036149,"[71, 0, 183]",183,a,0.29862264200346544,colour,0.5
021,80,0,1,6,15,265,569.2579604137572,570.0156404091977,"[91, 0, 163]",163,l,0.2349145197076723,colour,0.5
021,80,0,1,6,16,266,570.523557106033,572.0157727414044,"[41, 0, 213]",213,a,0.9693257042672485,colour,0.5
021,80,0,1,6,17,267,572.5252321327571,573.5756676475867,"[12, 0, 242]",242,l,0.527549522172194,colour,0.5
021,80,0,1,6,18,268,574.0876878250856,575.3996197023662,"[23, 0, 231]",231,a,0.7892014537937939,colour,0.5
021,80,0,1,6,19,269,575.915804406628,577.0236858936842,"[97, 0, 157]",157,l,0.5977029330679215,colour,0.5
021,80,0,1,6,20,270,577.5384358172887,578.33564967243,"[32, 0, 222]",222,a,0.2745070624514483,colour,0.5
021,80,0,1,6,21,271,578.8547704980592,582.335881253879,"[42, 0, 212]",212,l,2.9585327506647445,colour,0.5
021,80,0,1,6,22,272,582.8544660551706,584.7196624425123,"[31, 0, 223]",223,a,1.3422962162294425,colour,0.5
021,80,0,1,6,23,273,585.2293293906259,586.1916852036375,"[2, 0, 252]",252,a,0.4397734755766578,colour,0.5
021,80,0,1,6,24,274,586.6981690890389,587.3356725155027,"[75, 0, 179]",179,l,0.11345164990052581,colour,0.5
021,80,0,1,6,25,275,587.8558988666628,589.215668451041,"[38, 0, 216]",216,a,0.8370679116342217,colour,0.5
021,80,0,1,6,26,276,589.7308059189818,591.2157101986813,"[43, 0, 211]",211,a,0.9621254131197929,colour,0.5
021,80,0,1,6,27,277,591.730866177415,593.031773519644,"[9, 0, 245]",245,a,0.7782273310003802,colour,0.5
021,80,0,1,6,28,278,593.53264234378,594.2637026872835,"[78, 0, 176]",176,l,0.2083720615482889,colour,0.5
021,80,0,1,6,29,279,594.7826640052954,595.6156611255137,"[17, 0, 237]",237,a,0.3103293182211928,colour,0.5
021,80,0,1,6,30,280,596.1263107191771,597.2716875194455,"[18, 0, 236]",236,a,0.6227881612721831,colour,0.5
021,80,0,1,6,31,281,597.7826065038098,598.679657149245,"[94, 0, 160]",160,l,0.3774717770284042,colour,0.5
021,80,0,1,6,32,282,599.1744300261489,600.0796553375549,"[10, 0, 244]",244,a,0.38253978634020314,colour,0.5
021,80,0,1,6,33,283,600.5962252230966,601.2316601708299,"[74, 0, 180]",180,l,0.11276596417883411,colour,0.5
021,80,0,1,6,34,284,601.7369688199833,602.9516743177664,"[54, 0, 200]",200,a,0.6963609425001778,colour,0.5
021,80,0,1,6,35,285,603.4671772747533,604.1756237731315,"[85, 0, 169]",169,l,0.1852993859210983,colour,0.5
021,80,0,1,6,36,286,604.6857432502438,605.951623117784,"[52, 0, 202]",202,a,0.7427441765903495,colour,0.5
021,80,0,1,6,37,287,606.4670658163377,607.2076028804295,"[68, 0, 186]",186,a,0.2181197481113486,colour,0.5
021,80,0,1,6,38,288,607.7171244993806,609.2716556179221,"[25, 0, 229]",229,a,1.0299736438319087,colour,0.5
021,80,0,1,6,39,289,609.7813883383642,611.1435930720763,"[84, 0, 170]",170,l,0.8392738426337019,colour,0.5
021,80,0,1,6,40,290,611.6563375322148,612.7676679280121,"[14, 0, 240]",240,a,0.5885338061489165,colour,0.5
021,80,0,1,6,41,291,613.2825706637814,614.4956149194622,"[67, 0, 187]",187,l,0.6899006877792999,colour,0.5
021,80,0,1,6,42,292,615.0032066934509,616.0075874416507,"[20, 0, 234]",234,a,0.4814770324737765,colour,0.5
021,80,0,1,6,43,293,616.5189955825917,618.527647589799,"[50, 0, 204]",204,a,1.4860330420779064,colour,0.5
021,80,0,1,6,44,294,619.0333882879349,619.6876195322257,"[88, 0, 166]",166,l,0.13102072261972353,colour,0.5
021,80,0,1,6,45,295,620.206726573233,622.1116919462802,"[83, 0, 171]",171,l,1.382681570830755,colour,0.5
021,80,0,1,6,46,296,622.628507985617,624.6158415069222,"[19, 0, 235]",235,a,1.464122999634128,colour,0.5
021,80,0,1,6,47,297,625.1284300041152,625.6795779861859,"[30, 0, 224]",224,a,0.028493964695371687,colour,0.5
021,80,0,1,6,48,298,626.1911164901685,627.3837256563711,"[37, 0, 217]",217,a,0.6700977210421115,colour,0.5
021,80,0,1,6,49,299,627.8942413424375,629.3596045629238,"[0, 0, 254]",254,a,0.9414099053828977,colour,0.5
021,80,0,1,6,50,300,629.8797025202657,630.4955727779889,"[73, 0, 181]",181,l,0.092888560553547,colour,0.5
021,80,0,1,7,1,301,635.6789344419376,637.8876180356019,"[93, 0, 161]",161,l,1.685133576800581,colour,0.5
021,80,0,1,7,2,302,638.398650447547,639.0716244253563,"[32, 0, 222]",222,a,0.15025024971691892,colour,0.5
021,80,0,1,7,3,303,639.5860183122568,640.1916308529326,"[92, 0, 162]",162,l,0.08303650480229408,colour,0.5
021,80,0,1,7,4,304,640.7110565152834,642.503903800738,"[56, 0, 198]",198,a,1.2701546711614355,colour,0.5
021,80,0,1,7,5,305,643.0234365892247,644.7275834716856,"[62, 0, 192]",192,a,1.1813428098103032,colour,0.5
021,80,0,1,7,6,306,645.2435960652656,645.9115926183295,"[88, 0, 166]",166,l,0.1454532063798979,colour,0.5
021,80,0,1,7,7,307,646.4310891730129,647.9196215613047,"[11, 0, 243]",243,a,0.9660296077490784,colour,0.5
021,80,0,1,7,8,308,648.4311663667904,649.0075894108741,"[41, 0, 213]",213,a,0.05378202360589057,colour,0.5
021,80,0,1,7,9,309,649.5248607360409,650.0796297375346,"[40, 0, 214]",214,a,0.03162543359212577,colour,0.5
021,80,0,1,7,10,310,650.5875188651844,651.112550136575,"[44, 0, 210]",210,a,0.0018940050504170358,colour,0.5
021,80,0,1,7,11,311,651.6343660498387,652.1608183172648,"[29, 0, 225]",225,a,0.003355961060151458,colour,0.5
021,80,0,1,7,12,312,652.6810048899497,653.2236765201087,"[30, 0, 224]",224,a,0.02034804946742952,colour,0.5
021,80,0,1,7,13,313,653.7425129890325,654.3035984913586,"[75, 0, 179]",179,a,0.0381451589637436,colour,0.5
021,80,0,1,7,14,314,654.82071385358,656.0475608333945,"[60, 0, 194]",194,a,0.7040251840371639,colour,0.5
021,80,0,1,7,15,315,656.5576543166535,657.5595369001967,"[5, 0, 249]",249,a,0.47909150773193687,colour,0.5
021,80,0,1,7,16,316,658.0731226152275,658.8078059473773,"[77, 0, 177]",177,l,0.21133260132046416,colour,0.5
021,80,0,1,7,17,317,659.3231257660082,660.2477164813317,"[23, 0, 231]",231,a,0.40196938713779673,colour,0.5
021,80,0,1,7,18,318,660.7606771629071,661.7516746328329,"[25, 0, 229]",229,a,0.4679586651036516,colour,0.5
021,80,0,1,7,19,319,662.2620575928595,662.9595524176839,"[76, 0, 178]",178,l,0.1746840567793697,colour,0.5
021,80,0,1,7,20,320,663.4807625959511,664.1996322266641,"[72, 0, 182]",182,a,0.19621285639004782,colour,0.5
021,80,0,1,7,21,321,664.7150115160039,665.5916018658318,"[53, 0, 201]",201,a,0.3531254036934115,colour,0.5
021,80,0,1,7,22,322,666.1058244297747,667.4477118339273,"[1, 0, 253]",253,a,0.8194452758762054,colour,0.5
021,80,0,1,7,23,323,667.9651757497923,668.5995784273255,"[74, 0, 180]",180,l,0.10974477214040235,colour,0.5
021,80,0,1,7,24,324,669.1073013519635,670.1275403061882,"[9, 0, 245]",245,a,0.49810481345048174,colour,0.5
021,80,0,1,7,25,325,670.6286686747335,671.2155944079859,"[63, 0, 191]",191,l,0.07023926929105073,colour,0.5
021,80,0,1,7,26,326,671.7317519368953,672.7355348269921,"[55, 0, 199]",199,a,0.4808811435941607,colour,0.5
021,80,0,1,7,27,327,673.2485352869844,674.2396343691507,"[20, 0, 234]",234,a,0.46880070766201243,colour,0.5
021,80,0,1,7,28,328,674.7485010224045,675.6637619216926,"[67, 0, 187]",187,a,0.39208818681072444,colour,0.5
021,80,0,1,7,29,329,676.1704951115535,678.0555519671761,"[12, 0, 242]",242,a,1.3624426166643389,colour,0.5
021,80,0,1,7,30,330,678.5637837407412,680.431623621902,"[17, 0, 237]",237,a,1.344968066958245,colour,0.5
021,80,0,1,7,31,331,680.9386226577917,682.4076206822647,"[37, 0, 217]",217,a,0.9468875144957565,colour,0.5
021,80,0,1,7,32,332,682.9230791346636,684.3835933241062,"[27, 0, 227]",227,a,0.9360886531067081,colour,0.5
021,80,0,1,7,33,333,684.8929558293894,685.5356154866167,"[95, 0, 159]",159,l,0.11995286453748122,colour,0.5
021,80,0,1,7,34,334,686.0493611030979,687.1595875487546,"[24, 0, 230]",230,a,0.5858950385008939,colour,0.5
021,80,0,1,7,35,335,687.6755595762515,688.4635976091959,"[61, 0, 193]",193,a,0.2657703784061596,colour,0.5
021,80,0,1,7,36,336,688.97216533334,690.1756773361703,"[45, 0, 209]",209,a,0.6807878808467649,colour,0.5
021,80,0,1,7,37,337,690.6909046010114,691.6635602726019,"[13, 0, 241]",241,a,0.4497180851176381,colour,0.5
021,80,0,1,7,38,338,692.1768860493321,693.1756537054316,"[35, 0, 219]",219,a,0.47507546085398644,colour,0.5
021,80,0,1,7,39,339,693.6927714307094,695.4636779537541,"[70, 0, 184]",184,a,1.2481697979965247,colour,0.5
021,80,0,1,7,40,340,695.9754870298202,696.5035891178413,"[84, 0, 170]",170,l,0.005777719663456082,colour,0.5
021,80,0,1,7,41,341,697.0221109038102,697.7435350191663,"[33, 0, 221]",221,a,0.19802769838133827,colour,0.5
021,80,0,1,7,42,342,698.2563960577245,699.0316069228575,"[81, 0, 173]",173,l,0.25259347539395094,colour,0.5
021,80,0,1,7,43,343,699.537830476067,700.4795979935443,"[51, 0, 203]",203,a,0.4183596789953299,colour,0.5
021,80,0,1,7,44,344,700.9910321283387,702.1276163184084,"[50, 0, 204]",204,a,0.6127033426309936,colour,0.5
021,80,0,1,7,45,345,702.6336185302353,703.3915789440507,"[31, 0, 223]",223,a,0.23586171912029386,colour,0.5
021,80,0,1,7,46,346,703.8985996413976,704.4637456952478,"[94, 0, 160]",160,l,0.0424526518327184,colour,0.5
021,80,0,1,7,47,347,704.9767969613895,705.9595945592155,"[57, 0, 197]",197,a,0.4589214765583165,colour,0.5
021,80,0,1,7,48,348,706.4774613794289,707.1036464617937,"[66, 0, 188]",188,l,0.1034070035093464,colour,0.5
021,80,0,1,7,49,349,707.6182376655051,708.4236829004367,"[22, 0, 232]",232,a,0.2827667990932241,colour,0.5
021,80,0,1,7,50,350,708.918176146748,709.7595480066375,"[28, 0, 226]",226,a,0.3214302593260072,colour,0.5
021,80,0,1,8,1,351,714.7601253847824,715.487590308825,"[38, 0, 216]",216,a,0.20396059332415462,colour,0.5
021,80,0,1,8,2,352,715.9953152027447,717.9835683542769,"[44, 0, 210]",210,a,1.465800783247687,colour,0.5
021,80,0,1,8,3,353,718.4965782666113,719.7595633666497,"[34, 0, 220]",220,a,0.7403637718525715,colour,0.5
021,80,0,1,8,4,354,720.2777358112507,720.9677522897837,"[75, 0, 179]",179,l,0.16747903951909393,colour,0.5
021,80,0,1,8,5,355,721.480905561999,722.2715252549388,"[57, 0, 197]",197,l,0.2673162235878408,colour,0.5
021,80,0,1,8,6,356,722.7794836994726,723.5115979746333,"[97, 0, 157]",157,l,0.20937991322716698,colour,0.5
021,80,0,1,8,7,357,724.0293285241933,724.6396357082413,"[48, 0, 206]",206,a,0.08780637272866443,colour,0.5
021,80,0,1,8,8,358,725.1543265549699,727.4555840262328,"[37, 0, 217]",217,a,1.778059158823453,colour,0.5
021,80,0,1,8,9,359,727.966795638029,728.631522088428,"[84, 0, 170]",170,l,0.14082787989173084,colour,0.5
021,80,0,1,8,10,360,729.1399968649494,731.999526597152,"[25, 0, 229]",229,l,2.336323542811442,colour,0.5
021,80,0,1,8,11,361,732.5141516716103,733.1355649168254,"[39, 0, 215]",215,a,0.09872378170257434,colour,0.5
021,80,0,1,8,12,362,733.6560401785537,735.0555523610092,"[23, 0, 231]",231,a,0.8768628911930136,colour,0.5
021,80,0,1,8,13,363,735.5623804677161,736.8476261330652,"[35, 0, 219]",219,a,0.7623218634980731,colour,0.5
021,80,0,1,8,14,364,737.3606009930954,738.5514622711344,"[40, 0, 214]",214,a,0.6682115929434076,colour,0.5
021,80,0,1,8,15,365,739.0640098082949,740.3995507793152,"[43, 0, 211]",211,a,0.8135399501770735,colour,0.5
021,80,0,1,8,16,366,740.9075029222877,741.5035824224469,"[89, 0, 165]",165,l,0.07332899048924446,colour,0.5
021,80,0,1,8,17,367,742.0167762608035,743.3195114419796,"[27, 0, 227]",227,a,0.7805482650292106,colour,0.5
021,80,0,1,8,18,368,743.8293225376983,744.9674884130363,"[49, 0, 205]",205,a,0.6154673533164896,colour,0.5
021,80,0,1,8,19,369,745.4855718485196,746.8477025391767,"[30, 0, 224]",224,a,0.8391229996341281,colour,0.5
021,80,0,1,8,20,370,747.3603650793666,748.3435466770316,"[13, 0, 241]",241,a,0.4691689535975456,colour,0.5
021,80,0,1,8,21,371,748.8617466908763,749.8875353279291,"[26, 0, 228]",228,a,0.5029877151246183,colour,0.5
021,80,0,1,8,22,372,750.408571032458,751.3435514031444,"[11, 0, 243]",243,a,0.4118497997405939,colour,0.5
021,80,0,1,8,23,373,751.8615572510171,752.8475406685029,"[62, 0, 192]",192,a,0.46317737561184913,colour,0.5
021,80,0,1,8,24,374,753.3617884385167,754.2716465594713,"[19, 0, 235]",235,a,0.3870276605593972,colour,0.5
021,80,0,1,8,25,375,754.7837151800632,756.167573168641,"[74, 0, 180]",180,a,0.8598026674007997,colour,0.5
021,80,0,1,8,26,376,756.6758549606893,758.0795891713933,"[59, 0, 195]",195,a,0.881115639465861,colour,0.5
021,80,0,1,8,27,377,758.5977553145494,759.2236265016836,"[81, 0, 173]",173,l,0.10329003125661984,colour,0.5
021,80,0,1,8,28,378,759.7382314900169,761.1675719871419,"[98, 0, 156]",156,l,0.9066927813109942,colour,0.5
021,80,0,1,8,29,379,761.6773917474784,762.9275488919811,"[4, 0, 250]",250,a,0.7274625609861687,colour,0.5
021,80,0,1,8,30,380,763.443184968899,764.9835892281262,"[66, 0, 188]",188,a,1.0181145492824726,colour,0.5
021,80,0,1,8,31,381,765.4896965968073,766.8555778822047,"[77, 0, 177]",177,a,0.8432804371695966,colour,0.5
021,80,0,1,8,32,382,767.3662893097498,769.0155553384684,"[92, 0, 162]",162,l,1.126465500681661,colour,0.5
021,80,0,1,8,33,383,769.5242502748733,770.8396133378264,"[82, 0, 172]",172,l,0.7922655750298873,colour,0.5
021,80,0,1,8,34,384,771.3524003333296,772.3435183201218,"[1, 0, 253]",253,a,0.4686222954769619,colour,0.5
021,80,0,1,8,35,385,772.8524609855958,774.1195279047242,"[51, 0, 203]",203,a,0.7445944647188298,colour,0.5
021,80,0,1,8,36,386,774.6335783579852,775.6235766407917,"[76, 0, 178]",178,a,0.46725722547853366,colour,0.5
021,80,0,1,8,37,387,776.1351624062518,776.8715892942855,"[90, 0, 164]",164,l,0.2141273319721222,colour,0.5
021,80,0,1,8,38,388,777.3851836739341,778.1756399208098,"[63, 0, 191]",191,a,0.26794874016195536,colour,0.5
021,80,0,1,8,39,389,778.6820355847594,779.3515708938357,"[93, 0, 161]",161,l,0.1468781409203075,colour,0.5
021,80,0,1,8,40,390,779.8695082124323,781.5195509053301,"[80, 0, 174]",174,l,1.1274477523984388,colour,0.5
021,80,0,1,8,41,391,782.025913092366,782.6395281883306,"[67, 0, 187]",187,a,0.0902757867006585,colour,0.5
021,80,0,1,8,42,392,783.1509851661394,783.9835360589204,"[3, 0, 251]",251,a,0.30624592368258163,colour,0.5
021,80,0,1,8,43,393,784.4980989057221,785.1355767321656,"[36, 0, 218]",218,a,0.11455717537319288,colour,0.5
021,80,0,1,8,44,394,785.6543100134004,786.7115196780651,"[15, 0, 239]",239,a,0.5336742200888693,colour,0.5
021,80,0,1,8,45,395,787.2176510713762,788.2475487029296,"[96, 0, 158]",158,l,0.5070151835097931,colour,0.5
021,80,0,1,8,46,396,788.7644553268328,789.3355193094467,"[72, 0, 182]",182,l,0.0482071345904842,colour,0.5
021,80,0,1,8,47,397,789.8427522897837,790.7275590532226,"[68, 0, 186]",186,a,0.3620338045875542,colour,0.5
021,80,0,1,8,48,398,791.2332012898987,791.8395259039826,"[50, 0, 204]",204,a,0.08331771072698757,colour,0.5
021,80,0,1,8,49,399,792.3582308283658,793.3915041132714,"[2, 0, 252]",252,a,0.5104187999968417,colour,0.5
021,80,0,1,8,50,400,793.9062374953646,795.0234771553078,"[20, 0, 234]",234,a,0.5938668737653643,colour,0.5
021,80,0,1,9,1,401,800.9837585818605,804.287523670122,"[76, 0, 178]",178,a,2.7801398468436673,colour,0.5
021,80,0,1,9,2,402,804.7972599351197,806.887539266434,"[29, 0, 225]",225,a,1.5679852890898474,colour,0.5
021,80,0,1,9,3,403,807.4062221353524,809.1035263388185,"[25, 0, 229]",229,a,1.1741960817016661,colour,0.5
021,80,0,1,9,4,404,809.6105753931333,810.247510893736,"[93, 0, 161]",161,l,0.1138478588545695,colour,0.5
021,80,0,1,9,5,405,810.7666565316613,811.4475310586859,"[68, 0, 186]",186,l,0.15788652829360217,colour,0.5
021,80,0,1,9,6,406,811.9543713746243,812.5195709915133,"[18, 0, 236]",236,a,0.04073312057880685,colour,0.5
021,80,0,1,9,7,407,813.0339932352654,813.8555570083554,"[22, 0, 232]",232,a,0.29997629043646157,colour,0.5
021,80,0,1,9,8,408,814.3764202083694,815.9435079225805,"[73, 0, 181]",181,a,1.0441359493415803,colour,0.5
021,80,0,1,9,9,409,816.4549940450233,817.0475060888566,"[71, 0, 183]",183,l,0.06977374339476228,colour,0.5
021,80,0,1,9,10,410,817.5642878635554,818.1675318148336,"[16, 0, 238]",238,a,0.07979278976563364,colour,0.5
021,80,0,1,9,11,411,818.6754469363368,822.2475439768168,"[12, 0, 242]",242,a,3.049225226335693,colour,0.5
021,80,0,1,9,12,412,822.753281524172,823.3514858231065,"[96, 0, 158]",158,l,0.07563732151174918,colour,0.5
021,80,0,1,9,13,413,823.8626328441896,824.4555328262504,"[8, 0, 246]",246,a,0.07031370617914945,colour,0.5
021,80,0,1,9,14,414,824.9669181241188,825.6955389860086,"[77, 0, 177]",177,l,0.20595384755870327,colour,0.5
021,80,0,1,9,15,415,826.201291893376,826.7595168928383,"[46, 0, 208]",208,a,0.0353441268671304,colour,0.5
021,80,0,1,9,16,416,827.2795951578883,828.631611097604,"[4, 0, 250]",250,a,0.8294221807736903,colour,0.5
021,80,0,1,9,17,417,829.1388310810435,831.3274974556989,"[10, 0, 244]",244,a,1.6658752989023924,colour,0.5
021,80,0,1,9,18,418,831.841953570256,832.5996119041811,"[60, 0, 194]",194,a,0.2349783226964064,colour,0.5
021,80,0,1,9,19,419,833.1075014257221,834.5995142303873,"[98, 0, 156]",156,l,0.9682044248911552,colour,0.5
021,80,0,1,9,20,420,835.1089842555812,835.6556108865188,"[55, 0, 199]",199,a,0.023609881463926286,colour,0.5
021,80,0,1,9,21,421,836.1715604647761,837.3995369946933,"[61, 0, 193]",193,a,0.7052650110563263,colour,0.5
021,80,0,1,9,22,422,837.9060890154797,838.4635204153601,"[11, 0, 243]",243,a,0.035010539286304265,colour,0.5
021,80,0,1,9,23,423,838.9840362432296,839.5514764495892,"[99, 0, 155]",155,l,0.04338842979632318,colour,0.5
021,80,0,1,9,24,424,840.0636096608359,841.607486459543,"[95, 0, 159]",159,l,1.021095962903928,colour,0.5
021,80,0,1,9,25,425,842.1263241099659,843.335476380249,"[92, 0, 162]",162,l,0.6864261790760793,colour,0.5
021,80,0,1,9,26,426,843.8448266762425,844.8795130804065,"[14, 0, 240]",240,a,0.511853186879307,colour,0.5
021,80,0,1,9,27,427,845.3918566054199,846.0794749560882,"[42, 0, 212]",212,a,0.164818610297516,colour,0.5
021,80,0,1,9,28,428,846.5936274154228,848.2235422186786,"[40, 0, 214]",214,a,1.1069610691047274,colour,0.5
021,80,0,1,9,29,429,848.7367289678077,849.2875520270318,"[1, 0, 253]",253,a,0.028099724964704365,colour,0.5
021,80,0,1,9,30,430,849.7991417309386,851.1595012965263,"[32, 0, 222]",222,a,0.8369875670759939,colour,0.5
021,80,0,1,9,31,431,851.6731161561329,853.1994861098356,"[7, 0, 247]",247,a,1.0032909765141085,colour,0.5
021,80,0,1,9,32,432,853.7200381715083,854.3996027669637,"[75, 0, 179]",179,l,0.15689049189677462,colour,0.5
021,80,0,1,9,33,433,854.9074178516166,855.8315072010737,"[31, 0, 223]",223,a,0.40118248300859705,colour,0.5
021,80,0,1,9,34,434,856.3450503807398,857.2395374830812,"[36, 0, 218]",218,a,0.37140812521101907,colour,0.5
021,80,0,1,9,35,435,857.7511649961816,858.4474798587034,"[20, 0, 234]",234,a,0.17348952213069424,colour,0.5
021,80,0,1,9,36,436,858.9543367161532,860.2874819224235,"[69, 0, 185]",185,a,0.8101064013899304,colour,0.5
021,80,0,1,9,37,437,860.7980503839208,861.4314790804638,"[54, 0, 200]",200,a,0.11057618085760623,colour,0.5
021,80,0,1,9,38,438,861.9386289592949,862.6075215118472,"[78, 0, 176]",176,l,0.14586398768005893,colour,0.5
021,80,0,1,9,39,439,863.1263012668933,864.4956153133535,"[63, 0, 191]",191,l,0.8562237895675935,colour,0.5
021,80,0,1,9,40,440,865.007406272518,865.9916421956732,"[64, 0, 190]",190,a,0.4613251182017848,colour,0.5
021,80,0,1,9,41,441,866.5022480724729,867.3756277903449,"[41, 0, 213]",213,a,0.35037517757155,colour,0.5
021,80,0,1,9,42,442,867.8929420447676,869.0874861759949,"[79, 0, 175]",175,l,0.6810419115354307,colour,0.5
021,80,0,1,9,43,443,869.6023062041495,870.1756277115783,"[39, 0, 215]",215,a,0.050645434646867216,colour,0.5
021,80,0,1,9,44,444,870.6959391334676,871.6954491891083,"[13, 0, 241]",241,a,0.47655159537680447,colour,0.5
021,80,0,1,9,45,445,872.2130710372003,873.1194853693596,"[62, 0, 192]",192,a,0.38351809955202043,colour,0.5
021,80,0,1,9,46,446,873.6348394526285,874.5675237016403,"[48, 0, 206]",206,a,0.40978250256739557,colour,0.5
021,80,0,1,9,47,447,875.0880017203162,876.4875335950055,"[47, 0, 207]",207,a,0.8767663989565335,colour,0.5
021,80,0,1,9,48,448,876.9942644218099,877.7194418887957,"[72, 0, 182]",182,l,0.20202365913428366,colour,0.5
021,80,0,1,9,49,449,878.2309197404538,879.111478481791,"[56, 0, 198]",198,a,0.3576684163999744,colour,0.5
021,80,0,1,9,50,450,879.621844112582,880.663472051092,"[91, 0, 163]",163,l,0.5190928625524975,colour,0.5
021,80,0,1,10,1,451,886.7251727408147,887.3914863902028,"[90, 0, 164]",164,l,0.1510446369065903,colour,0.5
021,80,0,1,10,2,452,887.9053399204859,890.7114373642835,"[80, 0, 174]",174,l,2.283442638698034,colour,0.5
021,80,0,1,10,3,453,891.2178452374064,891.7754550495301,"[38, 0, 216]",216,a,0.03492468089098111,colour,0.5
021,80,0,1,10,4,454,892.2958810805576,895.0795096145594,"[60, 0, 194]",194,a,2.2612076734076254,colour,0.5
021,80,0,1,10,5,455,895.5940023567528,896.2954411546816,"[99, 0, 155]",155,l,0.1783909346559085,colour,0.5
021,80,0,1,10,6,456,896.8127491075429,898.0155301323393,"[97, 0, 157]",157,l,0.679860767617356,colour,0.5
021,80,0,1,10,7,457,898.5314600183046,900.4234552574926,"[47, 0, 207]",207,a,1.369403449469246,colour,0.5
021,80,0,1,10,8,458,900.9392390266294,901.9434508149279,"[64, 0, 190]",190,a,0.4811276911641471,colour,0.5
021,80,0,1,10,9,459,902.4543556207791,903.247490807611,"[0, 0, 254]",254,a,0.2701570342760533,colour,0.5
021,80,0,1,10,10,460,903.7668597561424,904.295492748497,"[36, 0, 218]",218,a,0.0061235164175741374,colour,0.5
021,80,0,1,10,11,461,904.8137455377146,905.9914653588785,"[73, 0, 181]",181,l,0.6550961299217306,colour,0.5
021,80,0,1,10,12,462,906.5012130453833,907.3514708569273,"[30, 0, 224]",224,a,0.32768807717366144,colour,0.5
021,80,0,1,10,13,463,907.8605171039235,908.6235061424086,"[13, 0, 241]",241,a,0.2400754766422324,colour,0.5
021,80,0,1,10,14,464,909.141867239261,909.7034891597577,"[9, 0, 245]",245,a,0.03882848168723285,colour,0.5
021,80,0,1,10,15,465,910.2200425038463,911.1835129007814,"[12, 0, 242]",242,a,0.4408951487275772,colour,0.5
021,80,0,1,10,16,466,911.7043375038775,912.2874137870967,"[98, 0, 156]",156,l,0.060056776797864586,colour,0.5
021,80,0,1,10,17,467,912.7981535715517,913.5195099453558,"[7, 0, 247]",247,a,0.19880593795096502,colour,0.5
021,80,0,1,10,18,468,914.0325182822999,914.6954385552672,"[84, 0, 170]",170,l,0.1403028832282871,colour,0.5
021,80,0,1,10,19,469,915.2043631038396,916.1994868975016,"[75, 0, 179]",179,l,0.47207986877765507,colour,0.5
021,80,0,1,10,20,470,916.7199373469339,917.4874217428151,"[79, 0, 175]",175,l,0.24324396712472662,colour,0.5
021,80,0,1,10,21,471,918.0027206875966,918.5834882460185,"[33, 0, 221]",221,a,0.05914266040781513,colour,0.5
021,80,0,1,10,22,472,919.096083832439,920.1035779326339,"[83, 0, 171]",171,l,0.4850043165497482,colour,0.5
021,80,0,1,10,23,473,920.6125855827122,922.3675303182099,"[92, 0, 162]",162,l,1.2323954811436124,colour,0.5
021,80,0,1,10,24,474,922.8781684904243,925.1594441888737,"[27, 0, 227]",227,l,1.769764369877521,colour,0.5
021,80,0,1,10,25,475,925.6796457276796,927.5354634621181,"[28, 0, 226]",226,a,1.3332176739349961,colour,0.5
021,80,0,1,10,26,476,928.054672509199,928.7994682292338,"[48, 0, 206]",206,a,0.22160449682269245,colour,0.5
021,80,0,1,10,27,477,929.3217240683734,930.0634395194356,"[17, 0, 237]",237,a,0.21927174739539623,colour,0.5
021,80,0,1,10,28,478,930.5717878714204,931.2314959370415,"[87, 0, 167]",167,l,0.13706704514333978,colour,0.5
021,80,0,1,10,29,479,931.7436000037706,932.895434695587,"[81, 0, 173]",173,l,0.628870717715472,colour,0.5
021,80,0,1,10,30,480,933.415473576053,933.9674190961523,"[91, 0, 163]",163,l,0.029031170532107353,colour,0.5
021,80,0,1,10,31,481,934.4780029176036,935.7034824643633,"[72, 0, 182]",182,l,0.7029728277702816,colour,0.5
021,80,0,1,10,32,482,936.2123948037042,937.8874089033925,"[65, 0, 189]",189,l,1.1521942731342278,colour,0.5
021,80,0,1,10,33,483,938.4013191474951,939.4634235292906,"[63, 0, 191]",191,l,0.5395255889743567,colour,0.5
021,80,0,1,10,34,484,939.9796090212767,941.1593851119396,"[66, 0, 188]",188,l,0.6656035452033393,colour,0.5
021,80,0,1,10,35,485,941.6668599136756,942.2234721141285,"[25, 0, 229]",229,a,0.03376480471342802,colour,0.5
021,80,0,1,10,36,486,942.7294522705488,943.4234284759732,"[86, 0, 168]",168,l,0.17124775116099045,colour,0.5
021,80,0,1,10,37,487,943.9337180944858,945.2074563697097,"[39, 0, 215]",215,a,0.7502181906020269,colour,0.5
021,80,0,1,10,38,488,945.7148661868996,946.9195644536521,"[42, 0, 212]",212,a,0.6818351172260009,colour,0.5
021,80,0,1,10,39,489,947.433753540623,948.4875288688927,"[56, 0, 198]",198,a,0.5310460862820037,colour,0.5
021,80,0,1,10,40,490,948.9962336514145,949.8555337714497,"[19, 0, 235]",235,a,0.33682766562560573,colour,0.5
021,80,0,1,10,41,491,950.3726581921219,951.2714468796039,"[10, 0, 244]",244,a,0.37652536522364244,colour,0.5
021,80,0,1,10,42,492,951.7788425183389,952.4634046246647,"[26, 0, 228]",228,a,0.16218456882052124,colour,0.5
021,80,0,1,10,43,493,952.981893327611,953.7274042717763,"[85, 0, 169]",169,l,0.22284511144971475,colour,0.5
021,80,0,1,10,44,494,954.2476065983064,954.8314170103404,"[2, 0, 252]",252,l,0.06078460410935804,colour,0.5
021,80,0,1,10,45,495,955.3413852506201,956.5035257086856,"[70, 0, 184]",184,l,0.6390327301924117,colour,0.5
021,80,0,1,10,46,496,957.013200927584,959.1114264941425,"[40, 0, 214]",214,a,1.5755514630582184,colour,0.5
021,80,0,1,10,47,497,959.6237865606672,960.5994275843259,"[59, 0, 195]",195,a,0.4529755847179331,colour,0.5
021,80,0,1,10,48,498,961.1081520591397,961.8714325436158,"[24, 0, 230]",230,a,0.2403614087961614,colour,0.5
021,80,0,1,10,49,499,962.3921070913784,963.3194318850874,"[34, 0, 220]",220,a,0.4052690282696858,colour,0.5
021,80,0,1,10,50,500,963.8270811605616,965.9913873773767,"[43, 0, 211]",211,a,1.6411189320497215,colour,0.5
021,80,0,1,11,1,501,973.96945882414,993.5514035880915,"[6, 0, 248]",248,l,19.05865586688742,colour,0.5
021,80,0,1,11,2,502,994.0680053751566,995.9433929195511,"[74, 0, 180]",180,l,1.352458622539416,colour,0.5
021,80,0,1,11,3,503,996.4587064366788,998.5674346924643,"[75, 0, 179]",179,l,1.5862006629467942,colour,0.5
021,80,0,1,11,4,504,999.0849844666664,1000.663378709578,"[58, 0, 196]",196,l,1.055757160880603,colour,0.5
021,80,0,1,11,5,505,1001.1630955343717,1001.6954019276309,"[83, 0, 171]",171,l,0.00948774826247245,colour,0.5
021,80,0,1,11,6,506,1002.2100451189326,1003.7833926202729,"[15, 0, 239]",239,a,1.0504973486531526,colour,0.5
021,80,0,1,11,7,507,1004.3037918697228,1005.7033832151792,"[11, 0, 243]",243,a,0.8771275556646287,colour,0.5
021,80,0,1,11,8,508,1006.210031334369,1007.7353749255417,"[10, 0, 244]",244,a,1.0026308907545172,colour,0.5
021,80,0,1,11,9,509,1008.2427701703855,1009.567413818615,"[53, 0, 201]",201,a,0.8016840064083226,colour,0.5
021,80,0,1,11,10,510,1010.0863700166228,1010.8154260782176,"[71, 0, 183]",183,a,0.2062358412076719,colour,0.5
021,80,0,1,11,11,511,1011.3208012873656,1012.335476774082,"[69, 0, 185]",185,a,0.49182257713982835,colour,0.5
021,80,0,1,11,12,512,1012.8519836443593,1013.671525806305,"[12, 0, 242]",242,a,0.2961370804114267,colour,0.5
021,80,0,1,11,13,513,1014.1816444957512,1015.0793615284492,"[22, 0, 232]",232,a,0.3748215877567418,colour,0.5
021,80,0,1,11,14,514,1015.5880292895017,1016.3673853829387,"[35, 0, 219]",219,a,0.25637163931969553,colour,0.5
021,80,0,1,11,15,515,1016.8847244495992,1018.0154407293303,"[57, 0, 197]",197,a,0.6079890069668181,colour,0.5
021,80,0,1,11,16,516,1018.5300004253513,1019.0794863776537,"[31, 0, 223]",223,a,0.02708478400018066,colour,0.5
021,80,0,1,11,17,517,1019.5926719452254,1020.1514940150664,"[55, 0, 199]",199,a,0.0362184647237882,colour,0.5
021,80,0,1,11,18,518,1020.6706928221975,1021.4793482952518,"[19, 0, 235]",235,a,0.28652211994631216,colour,0.5
021,80,0,1,11,19,519,1021.9987597791478,1023.4873603028245,"[50, 0, 204]",204,a,0.9645735594094731,colour,0.5
021,80,0,1,11,20,520,1024.0001646275632,1024.9914358204114,"[91, 0, 163]",163,l,0.46868491696659476,colour,0.5
021,80,0,1,11,21,521,1025.500291839824,1026.927360239788,"[26, 0, 228]",228,a,0.904380118008703,colour,0.5
021,80,0,1,11,22,522,1027.4378211813164,1029.5674248462892,"[43, 0, 211]",211,a,1.6071666567004286,colour,0.5
021,80,0,1,11,23,523,1030.079414303822,1030.623429342464,"[99, 0, 155]",155,l,0.021212541323620826,colour,0.5
021,80,0,1,11,24,524,1031.141906230012,1031.7433506993111,"[34, 0, 220]",220,a,0.07880187348928303,colour,0.5
021,80,0,1,11,25,525,1032.2511480608373,1032.8073482983746,"[38, 0, 216]",216,a,0.03359781397739425,colour,0.5
021,80,0,1,11,26,526,1033.3137557776645,1034.5033638380119,"[60, 0, 194]",194,a,0.6670450213714503,colour,0.5
021,80,0,1,11,27,527,1035.0169995714677,1037.0473879350466,"[77, 0, 177]",177,a,1.50720934959827,colour,0.5
021,80,0,1,11,28,528,1037.5639176483382,1038.103445600369,"[44, 0, 210]",210,a,0.016464334854390472,colour,0.5
021,80,0,1,11,29,529,1038.6106470730738,1039.8233632550691,"[40, 0, 214]",214,a,0.6899703984963708,colour,0.5
021,80,0,1,11,30,530,1040.3307462907396,1042.3834716257406,"[65, 0, 189]",189,l,1.5301666283630766,colour,0.5
021,80,0,1,11,31,531,1042.8933370722225,1043.423352857586,"[56, 0, 198]",198,a,0.011316374875605106,colour,0.5
021,80,0,1,11,32,532,1043.9391374143888,1044.599409073533,"[14, 0, 240]",240,a,0.13744080491596833,colour,0.5
021,80,0,1,11,33,533,1045.1112268142751,1046.1353770522983,"[29, 0, 225]",225,a,0.5011051316396333,colour,0.5
021,80,0,1,11,34,534,1046.6437525796355,1047.1834786362015,"[94, 0, 160]",160,l,0.01678492547944188,colour,0.5
021,80,0,1,11,35,535,1047.6906277273665,1048.2633529520826,"[49, 0, 205]",205,a,0.04975376755464822,colour,0.5
021,80,0,1,11,36,536,1048.7844083489035,1049.4473660372314,"[98, 0, 156]",156,l,0.13952897605486214,colour,0.5
021,80,0,1,11,37,537,1049.9562543519423,1051.3514023277676,"[2, 0, 252]",252,l,0.8724352753488347,colour,0.5
021,80,0,1,11,38,538,1051.8626375703607,1053.5513941357494,"[97, 0, 157]",157,l,1.1649253425421193,colour,0.5
021,80,0,1,11,39,539,1054.0669506557751,1054.6793735801475,"[64, 0, 190]",190,l,0.08975354698486626,colour,0.5
021,80,0,1,11,40,540,1055.1920558126876,1056.231418743264,"[66, 0, 188]",188,l,0.5167250608792529,colour,0.5
021,80,0,1,11,41,541,1056.7357880698983,1058.7753884895938,"[78, 0, 176]",176,l,1.5169133192393929,colour,0.5
021,80,0,1,11,42,542,1059.2825836607371,1059.9354139950592,"[17, 0, 237]",237,a,0.12963911111000925,colour,0.5
021,80,0,1,11,43,543,1060.4542737008305,1061.0473438242916,"[47, 0, 207]",207,a,0.0695598850143142,colour,0.5
021,80,0,1,11,44,544,1061.5637809838518,1062.5594100817689,"[41, 0, 213]",213,a,0.47297232365235686,colour,0.5
021,80,0,1,11,45,545,1063.0796927529154,1064.1354038338177,"[52, 0, 202]",202,a,0.5331626142724417,colour,0.5
021,80,0,1,11,46,546,1064.641927103803,1065.2954269762267,"[16, 0, 238]",238,a,0.13088681502267718,colour,0.5
021,80,0,1,11,47,547,1065.8135608239681,1066.4473242895328,"[82, 0, 172]",172,l,0.11120397120248526,colour,0.5
021,80,0,1,11,48,548,1066.9651682666736,1068.4793660183204,"[36, 0, 218]",218,a,0.9995825233054347,colour,0.5
021,80,0,1,11,49,549,1068.9867281801417,1069.7434235607507,"[25, 0, 229]",229,a,0.2337893018266186,colour,0.5
021,80,0,1,11,50,550,1070.2526080476819,1071.231349820213,"[88, 0, 166]",166,l,0.45652925642207265,colour,0.5
021,80,0,1,12,1,551,1076.987194887537,1078.7352933994262,"[99, 0, 155]",155,l,1.2245638550375588,colour,0.5
021,80,0,1,12,2,552,1079.2495734648546,1079.951356484089,"[31, 0, 223]",223,a,0.1792384910513647,colour,0.5
021,80,0,1,12,3,553,1080.468119354162,1081.8313181549893,"[64, 0, 190]",190,a,0.8407125617959537,colour,0.5
021,80,0,1,12,4,554,1082.3434773601475,1083.3593619538005,"[20, 0, 234]",234,a,0.49358346220105886,colour,0.5
021,80,0,1,12,5,555,1083.8749866092112,1084.4232918114285,"[24, 0, 230]",230,a,0.025621646374929696,colour,0.5
021,80,0,1,12,6,556,1084.9370453048614,1085.4953624642221,"[9, 0, 245]",245,a,0.03541698830667883,colour,0.5
021,80,0,1,12,7,557,1086.0150906002964,1086.9033706908813,"[66, 0, 188]",188,a,0.3651814211625606,colour,0.5
021,80,0,1,12,8,558,1087.421244206489,1088.1752929425566,"[82, 0, 172]",172,a,0.23130531562492251,colour,0.5
021,80,0,1,12,9,559,1088.6867928496213,1089.5673098432599,"[50, 0, 204]",204,a,0.35736239806283265,colour,0.5
021,80,0,1,12,10,560,1090.0773915111786,1091.159326822788,"[48, 0, 206]",206,a,0.5591521127498709,colour,0.5
021,80,0,1,12,11,561,1091.6737557619344,1092.3674176782952,"[39, 0, 215]",215,a,0.17039546853629872,colour,0.5
021,80,0,1,12,12,562,1092.8770038880175,1093.9994482218171,"[25, 0, 229]",229,a,0.5999955101287924,colour,0.5
021,80,0,1,12,13,563,1094.5154234000947,1095.231359666388,"[47, 0, 207]",207,a,0.19337913498748094,colour,0.5
021,80,0,1,12,14,564,1095.746571571217,1096.327506908041,"[11, 0, 243]",243,a,0.057750415115151554,colour,0.5
021,80,0,1,12,15,565,1096.8401832328527,1097.591296241444,"[76, 0, 178]",178,l,0.22823646827600896,colour,0.5
021,80,0,1,12,16,566,1098.105979998887,1098.8635150590562,"[86, 0, 168]",168,l,0.23504055035300553,colour,0.5
021,80,0,1,12,17,567,1099.371551485092,1099.9192986076232,"[15, 0, 239]",239,a,0.025193929730448872,colour,0.5
021,80,0,1,12,18,568,1100.4338185252273,1101.375287901319,"[16, 0, 238]",238,a,0.41892169712809846,colour,0.5
021,80,0,1,12,19,569,1101.8869870944181,1104.4233308021794,"[27, 0, 227]",227,a,2.013493555074092,colour,0.5
021,80,0,1,12,20,570,1104.935397453548,1105.879309068201,"[35, 0, 219]",219,a,0.42141552950488403,colour,0.5
021,80,0,1,12,21,571,1106.3885636596242,1107.0073885494494,"[77, 0, 177]",177,l,0.0961472416529432,colour,0.5
021,80,0,1,12,22,572,1107.513478195062,1109.1674022395164,"[61, 0, 193]",193,l,1.1306146674323827,colour,0.5
021,80,0,1,12,23,573,1109.6869759879773,1111.455575361615,"[59, 0, 195]",195,l,1.2455062180524692,colour,0.5
021,80,0,1,12,24,574,1111.968163858808,1112.8713805559673,"[18, 0, 236]",236,a,0.3802058554138057,colour,0.5
021,80,0,1,12,25,575,1113.3901646432932,1114.191326803877,"[91, 0, 163]",163,l,0.2786412630812265,colour,0.5
021,80,0,1,12,26,576,1114.7025013942039,1115.303274356178,"[95, 0, 159]",159,l,0.07658688398078084,colour,0.5
021,80,0,1,12,27,577,1115.8132449595141,1116.3441035751603,"[28, 0, 226]",226,a,0.007960413757245988,colour,0.5
021,80,0,1,12,28,578,1116.8695822554873,1118.5273585068644,"[87, 0, 167]",167,a,1.1344810528680682,colour,0.5
021,80,0,1,12,29,579,1119.0468003169517,1119.6474236174836,"[26, 0, 228]",228,a,0.07764632947510108,colour,0.5
021,80,0,1,12,30,580,1120.1563942460343,1121.759471206693,"[17, 0, 237]",237,a,1.080214598798193,colour,0.5
021,80,0,1,12,31,581,1122.265498624649,1123.2396312184283,"[0, 0, 254]",254,l,0.4508476352202706,colour,0.5
021,80,0,1,12,32,582,1123.7504139320226,1124.895295667986,"[78, 0, 176]",176,l,0.6218787710531615,colour,0.5
021,80,0,1,12,33,583,1125.4068306272966,1126.0233377338736,"[21, 0, 233]",233,a,0.09438871964812279,colour,0.5
021,80,0,1,12,34,584,1126.5312867261237,1127.239255095541,"[98, 0, 156]",156,l,0.1852316444274038,colour,0.5
021,80,0,1,12,35,585,1127.7518920357688,1128.5593053188059,"[88, 0, 166]",166,l,0.2844697888940573,colour,0.5
021,80,0,1,12,36,586,1129.078618341242,1131.0713290409185,"[40, 0, 214]",214,l,1.4701011868892238,colour,0.5
021,80,0,1,12,37,587,1131.5794462053454,1133.367362146033,"[43, 0, 211]",211,a,1.265394649351947,colour,0.5
021,80,0,1,12,38,588,1133.8755639873561,1134.5593899956439,"[81, 0, 173]",173,l,0.1609935787273571,colour,0.5
021,80,0,1,12,39,589,1135.0786982919672,1135.8873833034304,"[70, 0, 184]",184,l,0.2859372587990947,colour,0.5
021,80,0,1,12,40,590,1136.4095331980498,1137.0634001348517,"[92, 0, 162]",162,l,0.13124167016940191,colour,0.5
021,80,0,1,12,41,591,1137.5813634473016,1138.1433831522008,"[22, 0, 232]",232,a,0.0392270537558943,colour,0.5
021,80,0,1,12,42,592,1138.6592988597113,1139.439459580346,"[45, 0, 209]",209,a,0.25972366193309426,colour,0.5
021,80,0,1,12,43,593,1139.9541583039681,1140.703347375209,"[68, 0, 186]",186,a,0.22657483228249475,colour,0.5
021,80,0,1,12,44,594,1141.2198302208562,1142.8474158193567,"[58, 0, 196]",196,a,1.1044837782974355,colour,0.5
021,80,0,1,12,45,595,1143.3604552701,1145.1034034588956,"[54, 0, 200]",200,a,1.2199802761897445,colour,0.5
021,80,0,1,12,46,596,1145.610563971568,1146.144628492999,"[49, 0, 205]",205,a,0.011630663881078362,colour,0.5
021,80,0,1,12,47,597,1146.6573965839343,1147.303446860693,"[84, 0, 170]",170,l,0.12270663521485403,colour,0.5
021,80,0,1,12,48,598,1147.8137293900363,1148.6314551346004,"[14, 0, 240]",240,a,0.29299930995330215,colour,0.5
021,80,0,1,12,49,599,1149.1421720759827,1149.7832827372476,"[60, 0, 194]",194,a,0.11838378239190206,colour,0.5
021,80,0,1,12,50,600,1150.298373731377,1150.9513080410543,"[79, 0, 175]",175,l,0.13049139367649332,colour,0.5
021,80,0,1,13,1,601,1155.3768416235107,1156.3593855845975,"[22, 0, 232]",232,a,0.46311987412627786,colour,0.5
021,80,0,1,13,2,602,1156.873285194859,1157.4713020230993,"[76, 0, 178]",178,l,0.07541794929420575,colour,0.5
021,80,0,1,13,3,603,1157.9828007486067,1159.3353097834042,"[5, 0, 249]",249,l,0.8302614664426073,colour,0.5
021,80,0,1,13,4,604,1159.8421792439767,1160.7513371068635,"[33, 0, 221]",221,a,0.3864223193959333,colour,0.5
021,80,0,1,13,5,605,1161.4541122239898,1162.0953563990188,"[88, 0, 166]",166,l,0.12090636551147327,colour,0.5
021,80,0,1,13,6,606,1162.6077893270412,1163.1437376135145,"[6, 0, 248]",248,a,0.012660570966545492,colour,0.5
021,80,0,1,13,7,607,1163.654688499344,1165.3594344214653,"[51, 0, 203]",203,a,1.1825546736945398,colour,0.5
021,80,0,1,13,8,608,1165.8733391517308,1166.5832763569197,"[98, 0, 156]",156,l,0.18575388408498839,colour,0.5
021,80,0,1,13,9,609,1167.093603390851,1168.415345182293,"[45, 0, 209]",209,a,0.7989475649083033,colour,0.5
021,80,0,1,13,10,610,1168.9217660523718,1171.1672541534645,"[71, 0, 183]",183,a,1.7224894685787149,colour,0.5
021,80,0,1,13,11,611,1171.6876597044757,1172.3352833957179,"[55, 0, 199]",199,a,0.12354789004893973,colour,0.5
021,80,0,1,13,12,612,1172.8455273281434,1176.2153096573893,"[39, 0, 215]",215,a,2.8516429676674306,colour,0.5
021,80,0,1,13,13,613,1176.735090568778,1177.2712661043042,"[72, 0, 182]",182,a,0.013935450173448771,colour,0.5
021,80,0,1,13,14,614,1177.7818499257555,1178.6473353960318,"[4, 0, 250]",250,a,0.3412308630649932,colour,0.5
021,80,0,1,13,15,615,1179.1571149840602,1180.4154515207047,"[50, 0, 204]",204,a,0.7355604270123877,colour,0.5
021,80,0,1,13,16,616,1180.9227325502434,1182.631344857742,"[8, 0, 246]",246,a,1.1853076566476375,colour,0.5
021,80,0,1,13,17,617,1183.1414663040778,1183.895237772609,"[79, 0, 175]",175,l,0.23061647912254557,colour,0.5
021,80,0,1,13,18,618,1184.3972046391573,1184.9752117315657,"[24, 0, 230]",230,a,0.05542514880653471,colour,0.5
021,80,0,1,13,19,619,1185.4910616668058,1188.7434082007967,"[48, 0, 206]",206,l,2.7296019320492633,colour,0.5
021,80,0,1,13,20,620,1189.2518491065712,1189.8953429294634,"[42, 0, 212]",212,a,0.12040066730696708,colour,0.5
021,80,0,1,13,21,621,1190.3987303982722,1191.1432019830681,"[29, 0, 225]",225,a,0.22186522278934717,colour,0.5
021,80,0,1,13,22,622,1191.6642376875388,1192.2633817028254,"[9, 0, 245]",245,a,0.07634309335844591,colour,0.5
021,80,0,1,13,23,623,1192.773447616899,1193.551307489688,"[60, 0, 194]",194,l,0.2547422987408936,colour,0.5
021,80,0,1,13,24,624,1194.0706638351548,1195.1752594656427,"[3, 0, 251]",251,a,0.579127190168947,colour,0.5
021,80,0,1,13,25,625,1195.6828114612144,1197.0473674550885,"[56, 0, 198]",198,l,0.8418440811219625,colour,0.5
021,80,0,1,13,26,626,1197.5575645198114,1198.2872456149198,"[75, 0, 179]",179,l,0.20708024693885818,colour,0.5
021,80,0,1,13,27,627,1198.8075503413565,1199.3752977474942,"[94, 0, 160]",160,l,0.04497838573297486,colour,0.5
021,80,0,1,13,28,628,1199.8857130028773,1201.767321343592,"[86, 0, 168]",168,l,1.3585510250995867,colour,0.5
021,80,0,1,13,29,629,1202.2644320899271,1203.0313871568069,"[30, 0, 224]",224,a,0.2438709697453305,colour,0.5
021,80,0,1,13,30,630,1203.5455935730133,1204.4473183818627,"[81, 0, 173]",173,l,0.3792255728621967,colour,0.5
021,80,0,1,13,31,631,1204.9673962530796,1205.8872616050066,"[99, 0, 155]",155,l,0.39659457182278857,colour,0.5
021,80,0,1,13,32,632,1206.4049681299366,1207.1752862471621,"[23, 0, 231]",231,a,0.2478752012248151,colour,0.5
021,80,0,1,13,33,633,1207.6861902653472,1208.2713275442948,"[85, 0, 169]",169,l,0.060948837839532644,colour,0.5
021,80,0,1,13,34,634,1208.7814194521634,1210.2313147679088,"[83, 0, 171]",171,l,0.9271089661051519,colour,0.5
021,80,0,1,13,35,635,1210.7502508798498,1211.671313523373,"[46, 0, 208]",208,a,0.3984759738086723,colour,0.5
021,80,0,1,13,36,636,1212.1894485526718,1214.2712263258873,"[40, 0, 214]",214,l,1.5588854790548794,colour,0.5
021,80,0,1,13,37,637,1214.7826750329696,1215.367293616815,"[2, 0, 252]",252,a,0.06187201268039644,colour,0.5
021,80,0,1,13,38,638,1215.8765840482665,1216.815279173723,"[64, 0, 190]",190,a,0.4160375634673983,colour,0.5
021,80,0,1,13,39,639,1217.329502919165,1218.351256210939,"[58, 0, 196]",196,a,0.49855104088783264,colour,0.5
021,80,0,1,13,40,640,1218.860791614512,1219.6072154935682,"[27, 0, 227]",227,a,0.22329015732975677,colour,0.5
021,80,0,1,13,41,641,1220.1264934637002,1221.9912889158586,"[47, 0, 207]",207,a,1.3423139392980374,colour,0.5
021,80,0,1,13,42,642,1222.5015084298211,1223.8552919500507,"[70, 0, 184]",184,a,0.831123988959007,colour,0.5
021,80,0,1,13,43,643,1224.3623910227907,1225.1033183881664,"[65, 0, 189]",189,a,0.21859472623327747,colour,0.5
021,80,0,1,13,44,644,1225.612342579756,1226.1672888119356,"[92, 0, 162]",162,l,0.04411980166332796,colour,0.5
021,80,0,1,13,45,645,1226.6738443772774,1227.5194378715823,"[35, 0, 219]",219,a,0.3225066402810626,colour,0.5
021,80,0,1,13,46,646,1228.0333831679309,1228.8392427287763,"[32, 0, 222]",222,a,0.283560398616828,colour,0.5
021,80,0,1,13,47,647,1229.3481412835536,1230.1352427508682,"[74, 0, 180]",180,l,0.2639748348738067,colour,0.5
021,80,0,1,13,48,648,1230.6450676312088,1231.6153109964798,"[25, 0, 229]",229,a,0.4476515755522996,colour,0.5
021,80,0,1,13,49,649,1232.1292692897841,1232.8392053134157,"[44, 0, 210]",210,a,0.18749783386010677,colour,0.5
021,80,0,1,13,50,650,1233.3453292236663,1234.1912563054357,"[96, 0, 158]",158,l,0.3354255741578527,colour,0.5
021,80,0,1,14,1,651,1239.4570558284177,1240.0392242968082,"[35, 0, 219]",219,l,0.05849635927006602,colour,0.5
021,80,0,1,14,2,652,1240.5517387509462,1241.4633301877766,"[5, 0, 249]",249,a,0.3888976409798488,colour,0.5
021,80,0,1,14,3,653,1241.9750770362443,1242.7593613236677,"[23, 0, 231]",231,a,0.26143807324115187,colour,0.5
021,80,0,1,14,4,654,1243.2720025961753,1244.071188437927,"[39, 0, 215]",215,a,0.2761954799061641,colour,0.5
021,80,0,1,14,5,655,1244.5846134638414,1245.5432517651934,"[2, 0, 252]",252,l,0.4361760869505815,colour,0.5
021,80,0,1,14,6,656,1246.0530884609325,1246.7592423821916,"[11, 0, 243]",243,l,0.18289141193963587,colour,0.5
021,80,0,1,14,7,657,1247.271915950114,1248.1912106192904,"[59, 0, 195]",195,l,0.3959459075704217,colour,0.5
021,80,0,1,14,8,658,1248.7094500177773,1249.3671715246164,"[32, 0, 222]",222,a,0.1344932620995678,colour,0.5
021,80,0,1,14,9,659,1249.8813117747195,1251.1433075337554,"[70, 0, 184]",184,l,0.7369562169187702,colour,0.5
021,80,0,1,14,10,660,1251.656150849245,1252.6712776834029,"[71, 0, 183]",183,l,0.4919230078230612,colour,0.5
021,80,0,1,14,11,661,1253.1875017723069,1254.3912236950127,"[68, 0, 186]",186,l,0.6806161640561186,colour,0.5
021,80,0,1,14,12,662,1254.9061614830862,1255.6072753581102,"[20, 0, 234]",234,a,0.17782458412693813,colour,0.5
021,80,0,1,14,13,663,1256.1249295015587,1256.863207071554,"[90, 0, 164]",164,l,0.21220378845464438,colour,0.5
021,80,0,1,14,14,664,1257.3778471121332,1257.9114134184783,"[22, 0, 232]",232,a,0.010133655567187816,colour,0.5
021,80,0,1,14,15,665,1258.424859712075,1259.0311925969436,"[58, 0, 196]",196,a,0.08567487861728296,colour,0.5
021,80,0,1,14,16,666,1259.5473973873304,1260.255301166093,"[9, 0, 245]",245,a,0.18531750282272696,colour,0.5
021,80,0,1,14,17,667,1260.76617091964,1261.7112231121282,"[67, 0, 187]",187,a,0.4220118122175336,colour,0.5
021,80,0,1,14,18,668,1262.2192713535042,1262.9432172643137,"[92, 0, 162]",162,l,0.20116074272664264,colour,0.5
021,80,0,1,14,19,669,1263.453604162787,1264.4872996505583,"[36, 0, 218]",218,a,0.5105074153398164,colour,0.5
021,80,0,1,14,20,670,1265.000440713542,1265.6071985581657,"[53, 0, 201]",201,a,0.08079985377844423,colour,0.5
021,80,0,1,14,21,671,1266.1281940903864,1266.9351946228999,"[83, 0, 171]",171,l,0.28388098924187943,colour,0.5
021,80,0,1,14,22,672,1267.4562953119166,1268.1911869885516,"[4, 0, 250]",250,l,0.2121360469609499,colour,0.5
021,80,0,1,14,23,673,1268.704177602427,1269.7832079065265,"[77, 0, 177]",177,a,0.55642669898225,colour,0.5
021,80,0,1,14,24,674,1270.2978550363332,1271.5192035332439,"[78, 0, 176]",176,l,0.6981434890767559,colour,0.5
021,80,0,1,14,25,675,1272.0304029358667,1272.6632093558437,"[21, 0, 233]",233,l,0.10999604576500133,colour,0.5
021,80,0,1,14,26,676,1273.171040982008,1274.2472375647048,"[88, 0, 166]",166,a,0.5508340868982486,colour,0.5
021,80,0,1,14,27,677,1274.7674532819656,1275.6631778482115,"[37, 0, 217]",217,a,0.37259438913315535,colour,0.5
021,80,0,1,14,28,678,1276.1736057066591,1276.7032292214571,"[33, 0, 221]",221,a,0.006359036255162209,colour,0.5
021,80,0,1,14,29,679,1277.2204552543699,1277.87959106185,"[94, 0, 160]",160,a,0.1359453719924204,colour,0.5
021,80,0,1,14,30,680,1278.3923044081894,1279.0311973230564,"[38, 0, 216]",216,l,0.1144858892657794,colour,0.5
021,80,0,1,14,31,681,1279.5497990598087,1280.5512373850797,"[25, 0, 229]",229,a,0.478728775633499,colour,0.5
021,80,0,1,14,32,682,1281.0655788904405,1281.8151972537744,"[96, 0, 158]",158,l,0.22739600104978308,colour,0.5
021,80,0,1,14,33,683,1282.3311220197356,1283.0152796463226,"[6, 0, 248]",248,a,0.16140396619448438,colour,0.5
021,80,0,1,14,34,684,1283.5361302432138,1285.2232795234304,"[76, 0, 178]",178,l,1.164805613399949,colour,0.5
021,80,0,1,14,35,685,1285.7392515509273,1286.3432568064309,"[41, 0, 213]",213,a,0.0806379831628874,colour,0.5
021,80,0,1,14,36,686,1286.864190110995,1287.6951577431173,"[85, 0, 169]",169,l,0.308534168463666,colour,0.5
021,80,0,1,14,37,687,1288.2079880617093,1289.0871986684506,"[82, 0, 172]",172,l,0.3562123680021614,colour,0.5
021,80,0,1,14,38,688,1289.5848320483346,1290.8552163316635,"[75, 0, 179]",179,l,0.7477436567423865,colour,0.5
021,80,0,1,14,39,689,1291.3660845098784,1292.05527469964,"[26, 0, 228]",228,a,0.16677523689577356,colour,0.5
021,80,0,1,14,40,690,1292.569479146623,1293.3112280745408,"[98, 0, 156]",156,l,0.21908979053841904,colour,0.5
021,80,0,1,14,41,691,1293.8191837621853,1294.4952061074437,"[27, 0, 227]",227,a,0.15347033395664766,colour,0.5
021,80,0,1,14,42,692,1295.0066902606632,1295.6711713449913,"[12, 0, 242]",242,l,0.1396676097647287,colour,0.5
021,80,0,1,14,43,693,1296.1801982935285,1296.8632251884555,"[65, 0, 189]",189,l,0.160624151234515,colour,0.5
021,80,0,1,14,44,694,1297.383518887218,1298.4952592765912,"[64, 0, 190]",190,l,0.5888209198019467,colour,0.5
021,80,0,1,14,45,695,1299.008355047321,1299.9111546616768,"[1, 0, 253]",253,a,0.38025705533800647,colour,0.5
021,80,0,1,14,46,696,1300.430249493511,1301.3032586023328,"[48, 0, 206]",206,a,0.3502310300245881,colour,0.5
021,80,0,1,14,47,697,1301.8209978165105,1302.487219306,"[81, 0, 173]",173,l,0.1432141923578456,colour,0.5
021,80,0,1,14,48,698,1303.008443662664,1303.6553017174592,"[15, 0, 239]",239,a,0.12418749585049227,colour,0.5
021,80,0,1,14,49,699,1304.1646114473115,1304.8233238704852,"[99, 0, 155]",155,l,0.13567676907405257,colour,0.5
021,80,0,1,14,50,700,1305.336577967275,1306.0954521035892,"[87, 0, 167]",167,l,0.23611890053143725,colour,0.5
021,80,0,1,15,1,701,1311.0673508032341,1311.727229010372,"[57, 0, 197]",197,a,0.1368464914849028,colour,0.5
021,80,0,1,15,2,702,1312.239991587412,1312.86332601303,"[95, 0, 159]",159,l,0.10056067904224619,colour,0.5
021,80,0,1,15,3,703,1313.370761824015,1313.8954236679128,"[16, 0, 238]",238,a,0.0018073589308187366,colour,0.5
021,80,0,1,15,4,704,1314.417374670331,1315.0232321831863,"[31, 0, 223]",223,a,0.08237956982338801,colour,0.5
021,80,0,1,15,5,705,1315.542489279469,1316.4072536178282,"[84, 0, 170]",170,l,0.3419204872334376,colour,0.5
021,80,0,1,15,6,706,1316.9176483932533,1317.5432316790684,"[26, 0, 228]",228,a,0.10296786535764113,colour,0.5
021,80,0,1,15,7,707,1318.058090304141,1318.6791770510608,"[85, 0, 169]",169,a,0.09849141258746386,colour,0.5
021,80,0,1,15,8,708,1319.1987937286613,1320.1513022121508,"[27, 0, 227]",227,l,0.4298394999350421,colour,0.5
021,80,0,1,15,9,709,1320.6675058210385,1322.1512139906408,"[10, 0, 244]",244,l,0.9607713708537631,colour,0.5
021,80,0,1,15,10,710,1322.6702221763553,1323.7354080085643,"[65, 0, 189]",189,l,0.5425188179360703,colour,0.5
021,80,0,1,15,11,711,1324.2484261916834,1325.9352273120894,"[20, 0, 234]",234,l,1.164326302940026,colour,0.5
021,80,0,1,15,12,712,1326.4512950441567,1327.5832113723736,"[24, 0, 230]",230,l,0.609261523175519,colour,0.5
021,80,0,1,15,13,713,1328.0922509239172,1328.6951927954215,"[39, 0, 215]",215,l,0.08783866808516905,colour,0.5
021,80,0,1,15,14,714,1329.202621517179,1330.1511375845294,"[80, 0, 174]",174,a,0.4253925856319256,colour,0.5
021,80,0,1,15,15,715,1330.6711654373212,1331.3752114952076,"[83, 0, 171]",171,a,0.181376286665909,colour,0.5
021,80,0,1,15,16,716,1331.8900338864769,1333.143186623056,"[58, 0, 196]",196,l,0.7304908422520384,colour,0.5
021,80,0,1,15,17,717,1333.655489188095,1334.2791772873607,"[35, 0, 219]",219,l,0.10035902995150536,colour,0.5
021,80,0,1,15,18,718,1334.7961910372833,1336.167228159611,"[0, 0, 254]",254,a,0.8479691728716716,colour,0.5
021,80,0,1,15,19,719,1336.686885403411,1337.4151805546717,"[87, 0, 167]",167,l,0.21736435155617073,colour,0.5
021,80,0,1,15,20,720,1337.9246840567794,1338.5911505184486,"[72, 0, 182]",182,l,0.1435796813457273,colour,0.5
021,80,0,1,15,21,721,1339.1102004518034,1339.6791983187431,"[11, 0, 243]",243,a,0.045614446920808405,colour,0.5
021,80,0,1,15,22,722,1340.1879543012474,1340.7831500111497,"[73, 0, 181]",181,a,0.07206592662259936,colour,0.5
021,80,0,1,15,23,723,1341.2974367719726,1341.9432704334613,"[93, 0, 161]",161,l,0.12267827824689448,colour,0.5
021,80,0,1,15,24,724,1342.4537400396075,1343.159435918089,"[52, 0, 202]",202,a,0.18273308587959036,colour,0.5
021,80,0,1,15,25,725,1343.672350913519,1344.335189266596,"[77, 0, 177]",177,a,0.14027688949136063,colour,0.5
021,80,0,1,15,26,726,1344.8441929781693,1345.8231698767631,"[45, 0, 209]",209,l,0.45638668426545337,colour,0.5
021,80,0,1,15,27,727,1346.344196916616,1347.0391238660668,"[56, 0, 198]",198,l,0.17217328905826434,colour,0.5
021,80,0,1,15,28,728,1347.547335553565,1348.3271729266853,"[15, 0, 239]",239,l,0.2572503095725551,colour,0.5
021,80,0,1,15,29,729,1348.8456281527178,1349.4631616217084,"[61, 0, 193]",193,a,0.09459824563236907,colour,0.5
021,80,0,1,15,30,730,1349.9735666371416,1351.1671801104094,"[5, 0, 249]",249,l,0.670387985475827,colour,0.5
021,80,0,1,15,31,731,1351.6769628492766,1352.8072053323267,"[34, 0, 220]",220,l,0.6076991363661364,colour,0.5
021,80,0,1,15,32,732,1353.3172598248348,1354.2631493337685,"[82, 0, 172]",172,l,0.42329850688111037,colour,0.5
021,80,0,1,15,33,733,1354.770385464828,1356.4071401901892,"[68, 0, 186]",186,l,1.1140664433478378,colour,0.5
021,80,0,1,15,34,734,1356.9267497786204,1357.495193110488,"[14, 0, 240]",240,a,0.04581333906389773,colour,0.5
021,80,0,1,15,35,735,1358.0047072464367,1358.5911914784228,"[25, 0, 229]",229,a,0.06156166212167591,colour,0.5
021,80,0,1,15,36,736,1359.1002259100205,1359.8552494147443,"[79, 0, 175]",175,l,0.23199454607674852,colour,0.5
021,80,0,1,15,37,737,1360.3657721900381,1361.1511501875939,"[94, 0, 160]",160,l,0.26293350622290745,colour,0.5
021,80,0,1,15,38,738,1361.66272650077,1362.4391173282638,"[55, 0, 199]",199,a,0.25307829974917695,colour,0.5
021,80,0,1,15,39,739,1362.959650879202,1363.575115869462,"[53, 0, 201]",201,a,0.09238246851600707,colour,0.5
021,80,0,1,15,40,740,1364.0844169346965,1364.9592495501856,"[40, 0, 214]",214,a,0.3519143274752423,colour,0.5
021,80,0,1,15,41,741,1365.4752105500083,1366.2711451936048,"[42, 0, 212]",212,l,0.2725602820282802,colour,0.5
021,80,0,1,15,42,742,1366.7877615530742,1367.7751466681948,"[4, 0, 250]",250,l,0.4727761883987114,colour,0.5
021,80,0,1,15,43,743,1368.2948980411165,1369.7831582819344,"[13, 0, 241]",241,a,0.9658283524913713,colour,0.5
021,80,0,1,15,44,744,1370.2949031611206,1370.903176918684,"[88, 0, 166]",166,l,0.08507111278595403,colour,0.5
021,80,0,1,15,45,745,1371.4198826811626,1372.0711451148381,"[28, 0, 226]",226,l,0.1359292243141681,colour,0.5
021,80,0,1,15,46,746,1372.5838785473607,1373.279154838121,"[23, 0, 231]",231,a,0.17204292601672933,colour,0.5
021,80,0,1,15,47,747,1373.7966876769788,1374.6233084317646,"[22, 0, 232]",232,a,0.30381943902466446,colour,0.5
021,80,0,1,15,48,748,1375.1403879539575,1375.903132414096,"[19, 0, 235]",235,a,0.23993408592650667,colour,0.5
021,80,0,1,15,49,749,1376.4215388032608,1377.143176776939,"[70, 0, 184]",184,l,0.19868305802810937,colour,0.5
021,80,0,1,15,50,750,1377.6558432555757,1378.3591252524056,"[99, 0, 155]",155,l,0.17991078598424792,colour,0.5
021,80,0,1,16,1,751,1382.5784639536287,1383.679139241809,"[0, 0, 254]",254,a,0.5770847052335739,colour,0.5
021,80,0,1,16,2,752,1384.1885655501392,1384.8871178512927,"[76, 0, 178]",178,l,0.17579824692802504,colour,0.5
021,80,0,1,16,3,753,1385.4072973347502,1386.1351029355428,"[37, 0, 217]",217,a,0.20536071562673897,colour,0.5
021,80,0,1,16,4,754,1386.6416986731929,1387.2391184309963,"[55, 0, 199]",199,a,0.07422420231159776,colour,0.5
021,80,0,1,16,5,755,1387.7511090700864,1388.3911299596657,"[63, 0, 191]",191,a,0.11522159347077832,colour,0.5
021,80,0,1,16,6,756,1388.8928494909778,1389.4551413434092,"[95, 0, 159]",159,l,0.039260530669707805,colour,0.5
021,80,0,1,16,7,757,1389.970861703332,1390.5431154944818,"[27, 0, 227]",227,a,0.04929178627207875,colour,0.5
021,80,0,1,16,8,758,1391.0489526849124,1391.7351520087686,"[92, 0, 162]",162,a,0.16356302954955027,colour,0.5
021,80,0,1,16,9,759,1392.2522350755753,1392.9031828264124,"[85, 0, 169]",169,l,0.12829176423838362,colour,0.5
021,80,0,1,16,10,760,1393.4238955772598,1394.0231939801015,"[68, 0, 186]",186,l,0.07625329645816237,colour,0.5
021,80,0,1,16,11,761,1394.5346249641152,1395.1511525506503,"[29, 0, 225]",225,a,0.09302995115285739,colour,0.5
021,80,0,1,16,12,762,1395.659677739488,1396.1992789468495,"[98, 0, 156]",156,l,0.016948765376582742,colour,0.5
021,80,0,1,16,13,763,1396.706627324049,1397.2310820050188,"[57, 0, 197]",197,l,0.0018502881866879761,colour,0.5
021,80,0,1,16,14,764,1397.7535044410033,1398.67927236174,"[60, 0, 194]",194,a,0.40333051863126457,colour,0.5
021,80,0,1,16,15,765,1399.1909443794866,1399.9911042021704,"[88, 0, 166]",166,l,0.27775314054451883,colour,0.5
021,80,0,1,16,16,766,1400.505900205695,1401.0871533761965,"[80, 0, 174]",174,l,0.05771496897796169,colour,0.5
021,80,0,1,16,17,767,1401.5999336763052,1402.1911771424348,"[14, 0, 240]",240,a,0.06822907971218228,colour,0.5
021,80,0,1,16,18,768,1402.7092251317808,1403.647138079221,"[32, 0, 222]",222,a,0.41455118893645704,colour,0.5
021,80,0,1,16,19,769,1404.1622503410326,1404.7671066975454,"[34, 0, 220]",220,a,0.08153319486882538,colour,0.5
021,80,0,1,16,20,770,1405.2872881502262,1405.9432924888679,"[82, 0, 172]",172,l,0.13285643846029416,colour,0.5
021,80,0,1,16,21,771,1406.4511256903643,1407.0231829524273,"[75, 0, 179]",179,l,0.048851860396098346,colour,0.5
021,80,0,1,16,22,772,1407.544845265802,1408.279135145829,"[28, 0, 226]",226,a,0.21090724767418578,colour,0.5
021,80,0,1,16,23,773,1408.794915370352,1409.6230851211003,"[18, 0, 236]",236,a,0.30512897664448246,colour,0.5
021,80,0,1,16,24,774,1410.138641641126,1410.7991271586507,"[84, 0, 170]",170,l,0.13733289117226377,colour,0.5
021,80,0,1,16,25,775,1411.3104837057763,1412.1671592366183,"[69, 0, 185]",185,a,0.33340238768141717,colour,0.5
021,80,0,1,16,26,776,1412.6881559503381,1413.4151565301,"[56, 0, 198]",198,a,0.20379202731419355,colour,0.5
021,80,0,1,16,27,777,1413.922622667218,1414.6470971192466,"[45, 0, 209]",209,a,0.20127929036971182,colour,0.5
021,80,0,1,16,28,778,1415.1568463811418,1415.7511610577349,"[7, 0, 247]",247,a,0.07096985343378037,colour,0.5
021,80,0,1,16,29,779,1416.2662512641982,1417.3271012467449,"[24, 0, 230]",230,a,0.5379316945327446,colour,0.5
021,80,0,1,16,30,780,1417.8443635134608,1418.3751276060357,"[48, 0, 206]",206,a,0.005053830856923014,colour,0.5
021,80,0,1,16,31,781,1418.8930495646782,1419.5751867616782,"[93, 0, 161]",161,l,0.15893140144180506,colour,0.5
021,80,0,1,16,32,782,1420.0962598815677,1420.6551260621636,"[33, 0, 221]",221,l,0.035685591225046664,colour,0.5
021,80,0,1,16,33,783,1421.1752563149203,1421.9594212670345,"[1, 0, 253]",253,a,0.2609875135240145,colour,0.5
021,80,0,1,16,34,784,1422.4721365825972,1423.0710880071856,"[46, 0, 208]",208,a,0.07583109365077689,colour,0.5
021,80,0,1,16,35,785,1423.5814626964857,1424.2230672404985,"[40, 0, 214]",214,a,0.11848933307919651,colour,0.5
021,80,0,1,16,36,786,1424.737702948798,1425.4070523625705,"[53, 0, 201]",201,a,0.14633463352220133,colour,0.5
021,80,0,1,16,37,787,1425.9251704564667,1426.7990767463343,"[50, 0, 204]",204,a,0.3507323958328925,colour,0.5
021,80,0,1,16,38,788,1427.3156970442506,1428.3670892107766,"[70, 0, 184]",184,a,0.5349542192998342,colour,0.5
021,80,0,1,16,39,789,1428.8869914267561,1429.6151105288882,"[81, 0, 173]",173,l,0.20497789734508842,colour,0.5
021,80,0,1,16,40,790,1430.1214522359078,1430.679098675726,"[79, 0, 175]",175,a,0.03483842866262421,colour,0.5
021,80,0,1,16,41,791,1431.1993774083676,1431.8150901276967,"[83, 0, 171]",171,l,0.09237341006519273,colour,0.5
021,80,0,1,16,42,792,1432.3245715743979,1432.871068236127,"[35, 0, 219]",219,a,0.023649659880902618,colour,0.5
021,80,0,1,16,43,793,1433.3898184527643,1433.9911057775607,"[13, 0, 241]",241,a,0.07859667972661555,colour,0.5
021,80,0,1,16,44,794,1434.4986967638251,1435.1670993720181,"[11, 0, 243]",243,a,0.14538467716192827,colour,0.5
021,80,0,1,16,45,795,1435.686222954595,1436.3350943496916,"[5, 0, 249]",249,a,0.12645289761712775,colour,0.5
021,80,0,1,16,46,796,1436.8425423699082,1437.5591273004538,"[10, 0, 244]",244,a,0.1941231099772267,colour,0.5
021,80,0,1,16,47,797,1438.0768637576257,1438.7750915297656,"[39, 0, 215]",215,a,0.17500228428980336,colour,0.5
021,80,0,1,16,48,798,1439.2813202029793,1439.98308352998,"[42, 0, 212]",212,a,0.17879856517538428,colour,0.5
021,80,0,1,16,49,799,1440.5000370214693,1441.679099463392,"[54, 0, 200]",200,a,0.6560405724449083,colour,0.5
021,80,0,1,16,50,800,1442.1874147323542,1443.0471256336896,"[9, 0, 245]",245,a,0.33664649655111134,colour,0.5
