id,age,condition,counterbalance,block,trialinblock,trial,tstart,tend,trialstim,trialintensity,response,RT,trialtype,colourfreq
051,72,0,2,Practice,1,NA,6.3015613704919815e-06,6.578315639810171,"[61, 0, 193]",193,a,6.051108971238136,colour,0.5
051,72,0,2,Practice,2,NA,7.097892728226725,10.410314032924362,"[87, 0, 167]",167,a,2.7891885399003513,colour,0.5
051,72,0,2,Practice,3,NA,10.914014804642648,32.08222436212236,"[59, 0, 195]",195,a,20.64488305733539,colour,0.5
051,72,0,2,Practice,4,NA,32.603217719937675,36.46642681461526,"[28, 0, 226]",226,a,3.3447182329255156,colour,0.5
051,72,0,2,Practice,5,NA,36.973729305842426,38.63425985549111,"[26, 0, 228]",228,a,1.1376522459904663,colour,0.5
051,72,0,2,Practice,6,NA,39.14571820729179,40.31421842292184,"[9, 0, 245]",245,a,0.6456057642935775,colour,0.5
051,72,0,2,Practice,7,NA,40.833066108985804,45.52227729500737,"[89, 0, 165]",165,a,4.1657941013691016,colour,0.5
051,72,0,2,Practice,8,NA,46.03661072085379,47.22623406647472,"[37, 0, 217]",217,a,0.6662688824580982,colour,0.5
051,72,0,2,Practice,9,NA,47.73983454541303,48.8422415337991,"[45, 0, 209]",209,a,0.579093485197518,colour,0.5
051,72,0,2,Practice,10,NA,49.349284874566365,57.05027480586432,"[72, 0, 182]",182,a,7.17756221286254,colour,0.5
051,72,0,2,1,1,1,4.8268260166514665,5.527920317137614,"[4, 0, 250]",250,a,0.17694781348109245,colour,0.5
051,72,0,2,1,2,2,6.046482071164064,7.0799723520176485,"[6, 0, 248]",248,a,0.5102122238022275,colour,0.5
051,72,0,2,1,3,3,7.592968671524432,8.551940182689577,"[28, 0, 226]",226,a,0.4358655646792613,colour,0.5
051,72,0,2,1,4,4,9.061792825290468,10.11993942654226,"[19, 0, 235]",235,a,0.5347397566074505,colour,0.5
051,72,0,2,1,5,5,10.640123825112823,11.424253022298217,"[85, 0, 169]",169,l,0.2608101801597513,colour,0.5
051,72,0,2,1,6,6,11.936966560548171,12.495932557852939,"[24, 0, 230]",230,a,0.03559026651782915,colour,0.5
051,72,0,2,1,7,7,13.015588415437378,14.295956976304296,"[65, 0, 189]",189,a,0.7568431686377153,colour,0.5
051,72,0,2,1,8,8,14.814138275338337,17.095937284000684,"[94, 0, 160]",160,l,1.7583456902648322,colour,0.5
051,72,0,2,1,9,9,17.61129313352285,18.13591578003252,"[88, 0, 166]",166,a,0.0018309889710508287,colour,0.5
051,72,0,2,1,10,10,18.658267905702814,19.911965231294744,"[92, 0, 162]",162,l,0.7304220254300162,colour,0.5
051,72,0,2,1,11,11,20.42407776089385,21.07990303519182,"[82, 0, 172]",172,l,0.13247356802457944,colour,0.5
051,72,0,2,1,12,12,21.597495534806512,22.2160641811206,"[44, 0, 210]",210,a,0.09512517403345555,colour,0.5
051,72,0,2,1,13,13,22.72258685779525,24.05591664649546,"[54, 0, 200]",200,a,0.8100292824674398,colour,0.5
051,72,0,2,1,14,14,24.56649002683116,26.383898009720724,"[84, 0, 170]",170,l,1.2941421350114979,colour,0.5
051,72,0,2,1,15,15,26.894726602127776,27.487895347294398,"[49, 0, 205]",205,a,0.06970912520773709,colour,0.5
051,72,0,2,1,16,16,28.004313792684115,28.62388201954309,"[46, 0, 208]",208,a,0.09621809603413567,colour,0.5
051,72,0,2,1,17,17,29.144960054196417,29.75192797346972,"[33, 0, 221]",221,a,0.08360636688303202,colour,0.5
051,72,0,2,1,18,18,30.271611400239635,30.879907367459964,"[31, 0, 223]",223,a,0.08500727626960725,colour,0.5
051,72,0,2,1,19,19,31.384207572496962,32.12793646479258,"[64, 0, 190]",190,l,0.22035237378440797,colour,0.5
051,72,0,2,1,20,20,32.634365406178404,33.82388083805563,"[68, 0, 186]",186,l,0.66625706711784,colour,0.5
051,72,0,2,1,21,21,34.33762900909642,36.14392384601524,"[3, 0, 251]",251,a,1.283644569979515,colour,0.5
051,72,0,2,1,22,22,36.6502232120838,37.303905965411104,"[43, 0, 211]",211,a,0.13034286245238036,colour,0.5
051,72,0,2,1,23,23,37.823170340270735,38.37591160525335,"[55, 0, 199]",199,a,0.029478961718268692,colour,0.5
051,72,0,2,1,24,24,38.88574888790026,39.44791645742953,"[90, 0, 164]",164,l,0.03883831249549985,colour,0.5
051,72,0,2,1,25,25,39.963879617105704,40.5278856587247,"[32, 0, 222]",222,a,0.04053460626164451,colour,0.5
051,72,0,2,1,26,26,41.04213204467669,41.71190260985168,"[7, 0, 247]",247,a,0.14659293874865398,colour,0.5
051,72,0,2,1,27,27,42.23114138474921,43.895892779459246,"[96, 0, 158]",158,l,1.1414855468901806,colour,0.5
051,72,0,2,1,28,28,44.403161793830805,45.15986829798203,"[50, 0, 204]",204,a,0.2333591302158311,colour,0.5
051,72,0,2,1,29,29,45.6688532983535,46.30386973160785,"[8, 0, 246]",246,a,0.1116568500874564,colour,0.5
051,72,0,2,1,30,30,46.825106092204805,47.43190032552229,"[48, 0, 206]",206,a,0.08348939474672079,colour,0.5
051,72,0,2,1,31,31,47.950301390490495,48.583894071227405,"[1, 0, 253]",253,a,0.12298621732043102,colour,0.5
051,72,0,2,1,32,32,49.094229962618556,49.95188780123135,"[12, 0, 242]",242,a,0.3343971107387915,colour,0.5
051,72,0,2,1,33,33,50.46933930402156,51.63988869916648,"[62, 0, 192]",192,a,0.6471957196481526,colour,0.5
051,72,0,2,1,34,34,52.15695817163214,53.9438360183849,"[16, 0, 238]",238,a,1.2744120375136845,colour,0.5
051,72,0,2,1,35,35,54.45915720943594,56.25594145874493,"[89, 0, 165]",165,l,1.2710801023058593,colour,0.5
051,72,0,2,1,36,36,56.77527318126522,57.37591672525741,"[30, 0, 224]",224,a,0.07870416867081076,colour,0.5
051,72,0,2,1,37,37,57.883212914981414,58.68792212882545,"[57, 0, 197]",197,a,0.2813319076085463,colour,0.5
051,72,0,2,1,38,38,59.195805542578455,59.799905870866496,"[20, 0, 234]",234,a,0.08074153278721496,colour,0.5
051,72,0,2,1,39,39,60.32092679786729,61.10387603309937,"[52, 0, 202]",202,a,0.2626399875152856,colour,0.5
051,72,0,2,1,40,40,61.615065388265066,62.815918852051254,"[10, 0, 244]",244,a,0.6778908771811984,colour,0.5
051,72,0,2,1,41,41,63.33513754076557,64.7598832641379,"[66, 0, 188]",188,l,0.9013955924892798,colour,0.5
051,72,0,2,1,42,42,65.2727630052832,66.59987436322263,"[79, 0, 175]",175,l,0.8037667408934794,colour,0.5
051,72,0,2,1,43,43,67.11781935475301,67.7038839100278,"[42, 0, 212]",212,a,0.06260690448107198,colour,0.5
051,72,0,2,1,44,44,68.21164483774919,69.56783855473623,"[91, 0, 163]",163,l,0.8331720535061322,colour,0.5
051,72,0,2,1,45,45,70.08680793916574,71.43189244862879,"[63, 0, 191]",191,a,0.8216788463760167,colour,0.5
051,72,0,2,1,46,46,71.94632788054878,72.6559079818544,"[14, 0, 240]",240,a,0.1861070905579254,colour,0.5
051,72,0,2,1,47,47,73.15355691959849,75.59986688016215,"[75, 0, 179]",179,l,1.933147044328507,colour,0.5
051,72,0,2,1,48,48,76.11417431221344,76.91989531577565,"[74, 0, 180]",180,l,0.281252350716386,colour,0.5
051,72,0,2,1,49,49,77.427824809507,78.01585189823527,"[78, 0, 176]",176,l,0.06473288394045085,colour,0.5
051,72,0,2,1,50,50,78.53735016629798,79.1118809483014,"[38, 0, 216]",216,a,0.05119522340828553,colour,0.5
051,72,0,2,2,1,51,84.59893031488173,85.88785753812408,"[94, 0, 160]",160,l,0.7770710872136988,colour,0.5
051,72,0,2,2,2,52,86.39998148923041,88.29585772717837,"[22, 0, 232]",232,a,1.372535559348762,colour,0.5
051,72,0,2,2,3,53,88.79854907217668,90.59187614341499,"[98, 0, 156]",156,l,1.2699710326851346,colour,0.5
051,72,0,2,2,4,54,91.11120747204404,92.10384610085748,"[20, 0, 234]",234,a,0.46930149488616735,colour,0.5
051,72,0,2,2,5,55,92.61425327829784,93.30387524544494,"[58, 0, 196]",196,a,0.16629586089402437,colour,0.5
051,72,0,2,2,6,56,93.8173961674911,94.36788345314562,"[24, 0, 230]",230,a,0.027173782465979457,colour,0.5
051,72,0,2,2,7,57,94.87989870290039,96.0238446042058,"[89, 0, 165]",165,l,0.6205114874755964,colour,0.5
051,72,0,2,2,8,58,96.53633483190788,97.14385413529817,"[90, 0, 164]",164,l,0.08447085838997737,colour,0.5
051,72,0,2,2,9,59,97.66131705965381,98.8798943705624,"[88, 0, 166]",166,l,0.6951511678635143,colour,0.5
051,72,0,2,2,10,60,99.39591700094752,99.92786754178815,"[97, 0, 157]",157,l,0.008471228589769453,colour,0.5
051,72,0,2,2,11,61,100.4429051639163,101.62381467194064,"[68, 0, 186]",186,a,0.6581785026937723,colour,0.5
051,72,0,2,2,12,62,102.13329316105228,102.67182368313661,"[42, 0, 212]",212,l,0.015245769580360502,colour,0.5
051,72,0,2,2,13,63,103.18020885641454,103.86380774027202,"[4, 0, 250]",250,a,0.1585315854754299,colour,0.5
051,72,0,2,2,14,64,104.38511420541909,105.51185377297224,"[16, 0, 238]",238,a,0.6035390980541706,colour,0.5
051,72,0,2,2,15,65,106.02586306375451,106.56785430858145,"[9, 0, 245]",245,a,0.01889671984827146,colour,0.5
051,72,0,2,2,16,66,107.0884089221945,107.62381152115995,"[81, 0, 173]",173,l,0.012033957347739488,colour,0.5
051,72,0,2,2,17,67,108.13541598973097,109.38385074824328,"[95, 0, 159]",159,l,0.7251200737664476,colour,0.5
051,72,0,2,2,18,68,109.90115731576225,110.99980622786097,"[50, 0, 204]",204,a,0.5752897227648646,colour,0.5
051,72,0,2,2,19,69,111.498584321409,112.18384050822351,"[73, 0, 181]",181,a,0.1619513482437469,colour,0.5
051,72,0,2,2,20,70,112.70182527822908,113.74382735375548,"[34, 0, 220]",220,a,0.518754344608169,colour,0.5
051,72,0,2,2,21,71,114.26442568429047,115.47982544754632,"[8, 0, 246]",246,a,0.6919681063736789,colour,0.5
051,72,0,2,2,22,72,115.99887635803316,117.48783902736614,"[91, 0, 163]",163,l,0.978024193958845,colour,0.5
051,72,0,2,2,23,73,118.0023307792726,118.58382199745392,"[63, 0, 191]",191,a,0.05818756116786972,colour,0.5
051,72,0,2,2,24,74,119.09613223763881,120.27179178164806,"[96, 0, 158]",158,l,0.6523657330544665,colour,0.5
051,72,0,2,2,25,75,120.78372983756708,121.46381719253259,"[23, 0, 231]",231,a,0.15677267021965235,colour,0.5
051,72,0,2,2,26,76,121.97141743125394,122.56788069626782,"[17, 0, 237]",237,a,0.0731154972454533,colour,0.5
051,72,0,2,2,27,77,123.08079391432693,124.20789109379984,"[62, 0, 192]",192,a,0.6036741871503182,colour,0.5
051,72,0,2,2,28,78,124.71165212389315,126.51981969742337,"[82, 0, 172]",172,l,1.284684716607444,colour,0.5
051,72,0,2,2,29,79,127.04007853282383,127.62378080119379,"[37, 0, 217]",217,a,0.060460838896688074,colour,0.5
051,72,0,2,2,30,80,128.13388314202894,128.91180729912594,"[26, 0, 228]",228,a,0.25493872741935775,colour,0.5
051,72,0,2,2,31,81,129.43056085606804,130.76782477012603,"[30, 0, 224]",224,a,0.813875186315272,colour,0.5
051,72,0,2,2,32,82,131.27733712998452,131.87177839089418,"[7, 0, 247]",247,a,0.0710139362490736,colour,0.5
051,72,0,2,2,33,83,132.38678056688514,133.3998810586054,"[45, 0, 209]",209,a,0.48968931479612365,colour,0.5
051,72,0,2,2,34,84,133.91839082498336,134.5598147349665,"[83, 0, 171]",171,l,0.11829315120121464,colour,0.5
051,72,0,2,2,35,85,135.0745829665684,136.12785021256423,"[99, 0, 155]",155,l,0.5300092750694603,colour,0.5
051,72,0,2,2,36,86,136.6371676187846,137.34380647994112,"[1, 0, 253]",253,a,0.18328951799776405,colour,0.5
051,72,0,2,2,37,87,137.84655060031218,139.2317853225395,"[35, 0, 219]",219,a,0.8618042468442582,colour,0.5
051,72,0,2,2,38,88,139.75303152931156,140.34383601840818,"[18, 0, 236]",236,a,0.06756778579438105,colour,0.5
051,72,0,2,2,39,89,140.864285869,141.59977117559174,"[55, 0, 199]",199,a,0.21210445574251935,colour,0.5
051,72,0,2,2,40,90,142.11446693958715,142.76021724531893,"[41, 0, 213]",213,a,0.12240096257301047,colour,0.5
051,72,0,2,2,41,91,143.2706779857981,143.84784005134134,"[48, 0, 206]",206,a,0.05377294396748766,colour,0.5
051,72,0,2,2,42,92,144.36456884717336,145.08779767353553,"[14, 0, 240]",240,a,0.19987081858562306,colour,0.5
051,72,0,2,2,43,93,145.59965892956825,146.93579329398926,"[56, 0, 198]",198,l,0.8128192858421244,colour,0.5
051,72,0,2,2,44,94,147.43355250853347,148.19180131267058,"[57, 0, 197]",197,l,0.23495184245985,colour,0.5
051,72,0,2,2,45,95,148.6992199884844,149.26380065100966,"[92, 0, 162]",162,l,0.041138371801935136,colour,0.5
051,72,0,2,2,46,96,149.77940777415643,150.41577667370439,"[69, 0, 185]",185,l,0.11602459958521649,colour,0.5
051,72,0,2,2,47,97,150.93467792280717,151.59983694786206,"[33, 0, 221]",221,a,0.14181480190018192,colour,0.5
051,72,0,2,2,48,98,152.1066530396347,153.06415786914295,"[70, 0, 184]",184,l,0.4341310679446906,colour,0.5
051,72,0,2,2,49,99,153.57550712564262,154.29579746874515,"[27, 0, 227]",227,a,0.19704891368746758,colour,0.5
051,72,0,2,2,50,100,154.80998714093585,155.34379939071368,"[49, 0, 205]",205,a,0.008820569782983512,colour,0.5
051,72,0,2,3,1,101,160.85827145032817,161.6078284722753,"[53, 0, 201]",201,a,0.22560312552377582,colour,0.5
051,72,0,2,3,2,102,162.12567618396133,163.3597840149887,"[78, 0, 176]",176,l,0.710920752317179,colour,0.5
051,72,0,2,3,3,103,163.87579482997535,164.5117777606938,"[94, 0, 160]",160,l,0.11289352574385703,colour,0.5
051,72,0,2,3,4,104,165.03209724841872,166.43178729177453,"[43, 0, 211]",211,a,0.8762682325905189,colour,0.5
051,72,0,2,3,5,105,166.93850649747765,168.15977377502713,"[97, 0, 157]",157,l,0.6978828820865601,colour,0.5
051,72,0,2,3,6,106,168.66068572486984,169.87182053236756,"[58, 0, 196]",196,a,0.6878650211729109,colour,0.5
051,72,0,2,3,7,107,170.37957673397614,171.08774923055898,"[64, 0, 190]",190,l,0.1849090118193999,colour,0.5
051,72,0,2,3,8,108,171.5983517554705,172.97580054076388,"[37, 0, 217]",217,a,0.8540864452370442,colour,0.5
051,72,0,2,3,9,109,173.48914383840747,174.19978299096692,"[1, 0, 253]",253,a,0.18733746476937085,colour,0.5
051,72,0,2,3,10,110,174.70793579524616,175.39977353869472,"[54, 0, 200]",200,l,0.1685872555244714,colour,0.5
051,72,0,2,3,11,111,175.91379110026173,176.47974982915912,"[98, 0, 156]",156,l,0.042515256558544934,colour,0.5
051,72,0,2,3,12,112,176.99201595864724,178.18379836675012,"[83, 0, 171]",171,l,0.6685197110055014,colour,0.5
051,72,0,2,3,13,113,178.69530319230398,179.6638112848741,"[67, 0, 187]",187,l,0.4444951192708686,colour,0.5
051,72,0,2,3,14,114,180.18051723763347,181.1437722153496,"[47, 0, 207]",207,l,0.4396338809747249,colour,0.5
051,72,0,2,3,15,115,181.6649333514506,182.35979504266288,"[31, 0, 223]",223,l,0.17149423115188256,colour,0.5
051,72,0,2,3,16,116,182.86821132974,183.4397402193281,"[8, 0, 246]",246,a,0.04815749102272093,colour,0.5
051,72,0,2,3,17,117,183.94646218197886,185.00775915541453,"[25, 0, 229]",229,a,0.5379968610359356,colour,0.5
051,72,0,2,3,18,118,185.5246651818743,186.52774308650987,"[32, 0, 222]",222,a,0.4797927583567798,colour,0.5
051,72,0,2,3,19,119,187.04040227405494,187.61579951673048,"[91, 0, 163]",163,l,0.052012847212608904,colour,0.5
051,72,0,2,3,20,120,188.13423799705924,189.78379088366637,"[81, 0, 173]",173,l,1.1262129957322031,colour,0.5
051,72,0,2,3,21,121,190.29062784923008,191.67975494917482,"[0, 0, 254]",254,a,0.865695049171336,colour,0.5
051,72,0,2,3,22,122,192.1975061686244,192.85576540970942,"[55, 0, 199]",199,l,0.13378704362548888,colour,0.5
051,72,0,2,3,23,123,193.37050292134518,194.35173892753664,"[33, 0, 221]",221,l,0.4578161646495573,colour,0.5
051,72,0,2,3,24,124,194.87064529658528,196.1037385809468,"[11, 0, 243]",243,a,0.7096899843309075,colour,0.5
051,72,0,2,3,25,125,196.62177218782017,198.09577462571906,"[77, 0, 177]",177,l,0.9506393101764843,colour,0.5
051,72,0,2,3,26,126,198.60636257834267,199.3197235990665,"[2, 0, 252]",252,a,0.1901113205240108,colour,0.5
051,72,0,2,3,27,127,199.8412053255597,200.54375606769463,"[30, 0, 224]",224,a,0.17966259235981852,colour,0.5
051,72,0,2,3,28,128,201.06012685771566,201.70382798393257,"[24, 0, 230]",230,a,0.1206420473754406,colour,0.5
051,72,0,2,3,29,129,202.21642966999207,203.7197562882211,"[6, 0, 248]",248,a,0.9800083888694644,colour,0.5
051,72,0,2,3,30,130,204.23210079298588,205.40771425701678,"[36, 0, 218]",218,a,0.6522074070526287,colour,0.5
051,72,0,2,3,31,131,205.90737377735786,206.55180115514668,"[3, 0, 251]",251,a,0.12107527768239379,colour,0.5
051,72,0,2,3,32,132,207.06414802302606,207.71175964380382,"[7, 0, 247]",247,a,0.12417169311083853,colour,0.5
051,72,0,2,3,33,133,208.2204457152402,210.19175641424954,"[52, 0, 202]",202,a,1.447107104351744,colour,0.5
051,72,0,2,3,34,134,210.70585313887568,212.09575020725606,"[86, 0, 168]",168,l,0.8732060817419551,colour,0.5
051,72,0,2,3,35,135,212.59656172647374,213.35975920269266,"[73, 0, 181]",181,l,0.2399115422158502,colour,0.5
051,72,0,2,3,36,136,213.8789967960911,214.5997660556459,"[9, 0, 245]",245,a,0.19797642045887187,colour,0.5
051,72,0,2,3,37,137,215.11344136524713,216.10375000245403,"[49, 0, 205]",205,l,0.46690494334325194,colour,0.5
051,72,0,2,3,38,138,216.6135833466542,217.1757312238915,"[59, 0, 195]",195,l,0.03885839867871255,colour,0.5
051,72,0,2,3,39,139,217.692910185433,218.9357034971472,"[84, 0, 170]",170,l,0.7180469976156019,colour,0.5
051,72,0,2,3,40,140,219.44454080535797,220.62371463509044,"[72, 0, 182]",182,l,0.6558906526188366,colour,0.5
051,72,0,2,3,41,141,221.13211516838055,221.7037094363477,"[13, 0, 241]",241,a,0.048229170963168144,colour,0.5
051,72,0,2,3,42,142,222.2121875572484,222.97567372239428,"[60, 0, 194]",194,l,0.2401391850435175,colour,0.5
051,72,0,2,3,43,143,223.49352970486507,224.71967791294446,"[87, 0, 167]",167,l,0.702911504835356,colour,0.5
051,72,0,2,3,44,144,225.22989289363613,226.30371967633255,"[76, 0, 178]",178,l,0.5504368733963929,colour,0.5
051,72,0,2,3,45,145,226.8251872244291,227.3676975579583,"[62, 0, 192]",192,l,0.01936106401262805,colour,0.5
051,72,0,2,3,46,146,227.88766376598505,228.98372668679804,"[65, 0, 189]",189,l,0.5732815032242797,colour,0.5
051,72,0,2,3,47,147,229.49723185505718,230.711790757603,"[34, 0, 220]",220,l,0.6911812024773099,colour,0.5
051,72,0,2,3,48,148,231.23343632399337,231.85570121282944,"[28, 0, 226]",226,a,0.09893248102162033,colour,0.5
051,72,0,2,3,49,149,232.3740774655016,233.62370793975424,"[39, 0, 215]",215,l,0.7262575002969243,colour,0.5
051,72,0,2,3,50,150,234.13989519764436,234.7200319803087,"[17, 0, 237]",237,a,0.069220362638589,colour,0.5
051,72,0,2,4,1,151,240.18962137639755,240.815669153817,"[85, 0, 169]",169,l,0.10186151199741289,colour,0.5
051,72,0,2,4,2,152,241.33120026468532,241.9356912879157,"[38, 0, 216]",216,a,0.08120508922729641,colour,0.5
051,72,0,2,4,3,153,242.45623487385456,244.16772197640967,"[75, 0, 179]",179,l,1.185170131502673,colour,0.5
051,72,0,2,4,4,154,244.6789684391697,246.22367800748907,"[40, 0, 214]",214,a,1.0204453214537352,colour,0.5
051,72,0,2,4,5,155,246.74255601962795,247.6237185735954,"[43, 0, 211]",211,a,0.35802785673877224,colour,0.5
051,72,0,2,4,6,156,248.13510170084191,248.74369659699732,"[74, 0, 180]",180,l,0.08517820539418608,colour,0.5
051,72,0,2,4,7,157,249.26025722065242,250.59969319414813,"[73, 0, 181]",181,l,0.8165293129277416,colour,0.5
051,72,0,2,4,8,158,251.11976022669114,251.70372991630575,"[89, 0, 165]",165,l,0.060625466459896415,colour,0.5
051,72,0,2,4,9,159,252.21351245441474,252.80770992470207,"[69, 0, 185]",185,l,0.07084733946248889,colour,0.5
051,72,0,2,4,10,160,253.32301614963217,254.47176815086277,"[56, 0, 198]",198,l,0.6254373164847493,colour,0.5
051,72,0,2,4,11,161,254.97937114647357,255.53566371876514,"[19, 0, 235]",235,a,0.03292077989317477,colour,0.5
051,72,0,2,4,12,162,256.04194142331835,256.7117092315457,"[98, 0, 156]",156,l,0.15876828675391153,colour,0.5
051,72,0,2,4,13,163,257.23274118622066,257.83968980709324,"[61, 0, 193]",193,l,0.08345434244256467,colour,0.5
051,72,0,2,4,14,164,258.3579380598967,259.5836904529715,"[88, 0, 166]",166,l,0.7025684651453048,colour,0.5
051,72,0,2,4,15,165,260.0831357212155,261.2237020320608,"[99, 0, 155]",155,l,0.61721617996227,colour,0.5
051,72,0,2,4,16,166,261.73953207186423,262.3756745100836,"[36, 0, 218]",218,l,0.11263752600643784,colour,0.5
051,72,0,2,4,17,167,262.8957978626131,263.5118545606383,"[0, 0, 254]",254,a,0.09214021696243435,colour,0.5
051,72,0,2,4,18,168,264.0122623879579,265.55969658121467,"[14, 0, 240]",240,l,1.0228320267633535,colour,0.5
051,72,0,2,4,19,169,266.0760626451229,266.7837101452751,"[21, 0, 233]",233,l,0.1844383660936728,colour,0.5
051,72,0,2,4,20,170,267.29503892181674,267.90369840868516,"[22, 0, 232]",232,a,0.08537158364197239,colour,0.5
051,72,0,2,4,21,171,268.42009322327795,270.1196688544587,"[6, 0, 248]",248,l,1.1762806387268938,colour,0.5
051,72,0,2,4,22,172,270.63895882933866,271.7676684134058,"[13, 0, 241]",241,a,0.6052204256411642,colour,0.5
051,72,0,2,4,23,173,272.2796108016046,273.2876523444429,"[49, 0, 205]",205,l,0.4845669567002915,colour,0.5
051,72,0,2,4,24,174,273.7954888906097,274.6316742580384,"[18, 0, 236]",236,a,0.3128155443118885,colour,0.5
051,72,0,2,4,25,175,275.13928119209595,275.84770574996946,"[51, 0, 203]",203,l,0.18496218096697703,colour,0.5
051,72,0,2,4,26,176,276.35811883507995,277.0557023943984,"[60, 0, 194]",194,l,0.17425587767502293,colour,0.5
051,72,0,2,4,27,177,277.57701988721965,278.3596430182224,"[28, 0, 226]",226,a,0.2592190432478674,colour,0.5
051,72,0,2,4,28,178,278.8739992871415,279.43964766559657,"[1, 0, 253]",253,a,0.04236441367538646,colour,0.5
051,72,0,2,4,29,179,279.9437584307743,282.6397410070058,"[35, 0, 219]",219,a,2.1725454054540023,colour,0.5
051,72,0,2,4,30,180,283.14712896285346,284.6876149291056,"[93, 0, 161]",161,l,1.0170940877869725,colour,0.5
051,72,0,2,4,31,181,285.1941947134328,286.26365020195954,"[39, 0, 215]",215,l,0.5436753293033689,colour,0.5
051,72,0,2,4,32,182,286.7772999115987,287.91967200522777,"[90, 0, 164]",164,l,0.6219635967863724,colour,0.5
051,72,0,2,4,33,183,288.4310819139937,289.0156522184261,"[65, 0, 189]",189,l,0.061165822844486684,colour,0.5
051,72,0,2,4,34,184,289.5248857354745,290.0556212621741,"[97, 0, 157]",157,l,0.007445654191542417,colour,0.5
051,72,0,2,4,35,185,290.5717703170376,291.87167677865364,"[95, 0, 159]",159,l,0.776538607722614,colour,0.5
051,72,0,2,4,36,186,292.383621136134,294.3437304677209,"[32, 0, 222]",222,a,1.4368186714709736,colour,0.5
051,72,0,2,4,37,187,294.85249767138157,296.0876358029782,"[4, 0, 250]",250,a,0.7149021392106079,colour,0.5
051,72,0,2,4,38,188,296.59958331118105,298.08765746449353,"[48, 0, 206]",206,a,0.9646763671189547,colour,0.5
051,72,0,2,4,39,189,298.59967586491257,299.2956446565804,"[86, 0, 168]",168,l,0.17255643312819302,colour,0.5
051,72,0,2,4,40,190,299.8029554186505,300.8636505957693,"[63, 0, 191]",191,l,0.5373060555430129,colour,0.5
051,72,0,2,4,41,191,301.3830205213162,302.55968437198317,"[76, 0, 178]",178,l,0.6536244641174562,colour,0.5
051,72,0,2,4,42,192,303.0706141827977,304.19171427277615,"[44, 0, 210]",210,l,0.597629442345351,colour,0.5
051,72,0,2,4,43,193,304.7114083333872,305.24766360846115,"[79, 0, 175]",175,l,0.012941378052346408,colour,0.5
051,72,0,2,4,44,194,305.7585591546376,307.0636257834849,"[81, 0, 173]",173,l,0.7786322917672805,colour,0.5
051,72,0,2,4,45,195,307.56224870181177,308.19158863596385,"[66, 0, 188]",188,l,0.10594923718599603,colour,0.5
051,72,0,2,4,46,196,308.70293828635477,309.2319078085711,"[9, 0, 245]",245,a,0.0055945790954865515,colour,0.5
051,72,0,2,4,47,197,309.7654660278349,311.1676176072797,"[50, 0, 204]",204,l,0.8787892393302172,colour,0.5
051,72,0,2,4,48,198,311.6898787546088,312.23963663791073,"[27, 0, 227]",227,a,0.02712612715549767,colour,0.5
051,72,0,2,4,49,199,312.75179170287447,313.26370022038464,"[5, 0, 249]",249,a,0.0010740174329839647,colour,0.5
051,72,0,2,4,50,200,313.77249696245417,315.20763194328174,"[34, 0, 220]",220,a,0.9117245915695094,colour,0.5
051,72,0,2,5,1,201,320.06907227658667,321.07162518484984,"[53, 0, 201]",201,a,0.479075959068723,colour,0.5
051,72,0,2,5,2,202,321.5855911526596,322.119649556058,"[6, 0, 248]",248,a,0.010707484849262983,colour,0.5
051,72,0,2,5,3,203,322.632512755692,323.19965971726924,"[70, 0, 184]",184,l,0.04373814770951867,colour,0.5
051,72,0,2,5,4,204,323.71095619845437,324.4557161789853,"[41, 0, 213]",213,l,0.22702057647984475,colour,0.5
051,72,0,2,5,5,205,324.9617536376463,326.72766589274397,"[97, 0, 157]",157,a,1.242617262643762,colour,0.5
051,72,0,2,5,6,206,327.2431450159638,328.39166819280945,"[77, 0, 177]",177,l,0.6252608735812828,colour,0.5
051,72,0,2,5,7,207,328.89958587120054,330.19163077749545,"[19, 0, 235]",235,a,0.7687581846257672,colour,0.5
051,72,0,2,5,8,208,330.71214915724704,331.25559487449937,"[11, 0, 243]",243,a,0.020053838728927076,colour,0.5
051,72,0,2,5,9,209,331.7746690218919,332.3116312500788,"[31, 0, 223]",223,a,0.017221693822648376,colour,0.5
051,72,0,2,5,10,210,332.8181381729082,334.05566537287086,"[28, 0, 226]",226,a,0.7144472472718917,colour,0.5
051,72,0,2,5,11,211,334.568055957614,335.2556244129082,"[69, 0, 185]",185,l,0.16480948694515973,colour,0.5
051,72,0,2,5,12,212,335.7714154620189,336.367696376401,"[12, 0, 242]",242,a,0.07296938041690737,colour,0.5
051,72,0,2,5,13,213,336.8808659880888,337.5436745416373,"[87, 0, 167]",167,l,0.13945251499535516,colour,0.5
051,72,0,2,5,14,214,338.05280408338876,339.67160391720245,"[85, 0, 169]",169,a,1.0954469460411929,colour,0.5
051,72,0,2,5,15,215,340.17796590476064,341.7275725513464,"[81, 0, 173]",173,l,1.0263498571584933,colour,0.5
051,72,0,2,5,16,216,342.240642520017,342.95159399230033,"[59, 0, 195]",195,a,0.18766120600048453,colour,0.5
051,72,0,2,5,17,217,343.4595104890759,344.2476632146281,"[44, 0, 210]",210,a,0.2650574129074812,colour,0.5
051,72,0,2,5,18,218,344.7564579874743,345.3596130859223,"[99, 0, 155]",155,l,0.07976558298105374,colour,0.5
051,72,0,2,5,19,219,345.86584667977877,346.415580932342,"[10, 0, 244]",244,a,0.02625730336876586,colour,0.5
051,72,0,2,5,20,220,346.9284539781511,348.215603775403,"[25, 0, 229]",229,l,0.7637980910367332,colour,0.5
051,72,0,2,5,21,221,348.7273248223355,350.36764005647274,"[80, 0, 174]",174,l,1.1169469863525592,colour,0.5
051,72,0,2,5,22,222,350.8857540079043,351.63161242427304,"[45, 0, 209]",209,a,0.22248701786156744,colour,0.5
051,72,0,2,5,23,223,352.1514376355335,353.38360695767915,"[18, 0, 236]",236,a,0.7087089145206846,colour,0.5
051,72,0,2,5,24,224,353.90166419529123,354.45559290528763,"[40, 0, 214]",214,a,0.030572671443223953,colour,0.5
051,72,0,2,5,25,225,354.964189573715,356.015581720043,"[22, 0, 232]",232,a,0.5280014493619092,colour,0.5
051,72,0,2,5,26,226,356.5268002197845,357.4955784904887,"[21, 0, 233]",233,a,0.44548603519797325,colour,0.5
051,72,0,2,5,27,227,358.0113770226599,358.62360908446135,"[9, 0, 245]",245,a,0.0889504601364024,colour,0.5
051,72,0,2,5,28,228,359.13666999468114,359.75157036154997,"[94, 0, 160]",160,l,0.09176882042083889,colour,0.5
051,72,0,2,5,29,229,360.2615545486333,361.8875853907084,"[33, 0, 221]",221,a,1.1026874065864831,colour,0.5
051,72,0,2,5,30,230,362.40227052086266,363.6075515987468,"[91, 0, 163]",163,l,0.6819841162068769,colour,0.5
051,72,0,2,5,31,231,364.1230291465763,364.7356463895412,"[14, 0, 240]",240,a,0.09288970549823716,colour,0.5
051,72,0,2,5,32,232,365.2452308231732,365.903598765668,"[92, 0, 162]",162,l,0.14732076571090147,colour,0.5
051,72,0,2,5,33,233,366.4204795859987,367.4237016381812,"[15, 0, 239]",239,a,0.47984947211807594,colour,0.5
051,72,0,2,5,34,234,367.93620249972446,369.15957921516383,"[29, 0, 225]",225,a,0.7000699075870216,colour,0.5
051,72,0,2,5,35,235,369.6725786854513,370.35160108149284,"[78, 0, 176]",176,l,0.15833151177503169,colour,0.5
051,72,0,2,5,36,236,370.8731828448945,371.60758428793633,"[17, 0, 237]",237,a,0.21098160149995238,colour,0.5
051,72,0,2,5,37,237,372.12335091852583,373.48762910754886,"[39, 0, 215]",215,l,0.8410351842176169,colour,0.5
051,72,0,2,5,38,238,373.99838720157277,375.4555850283359,"[50, 0, 204]",204,a,0.9338165820809081,colour,0.5
051,72,0,2,5,39,239,375.96731513371924,377.6075795617653,"[48, 0, 206]",206,l,1.1169166602776386,colour,0.5
051,72,0,2,5,40,240,378.1237750904402,380.7435630832915,"[83, 0, 171]",171,l,2.108812889782712,colour,0.5
051,72,0,2,5,41,241,381.2522613639594,382.5275485267048,"[54, 0, 200]",200,l,0.7519720841664821,colour,0.5
051,72,0,2,5,42,242,383.0336328530684,384.5915693375282,"[52, 0, 202]",202,a,1.0346588212414645,colour,0.5
051,72,0,2,5,43,243,385.1131672486081,385.9195503069204,"[68, 0, 186]",186,l,0.28304868133272976,colour,0.5
051,72,0,2,5,44,244,386.4258075315156,387.08754443074577,"[65, 0, 189]",189,l,0.13861756201367825,colour,0.5
051,72,0,2,5,45,245,387.5977936760173,388.16756286274176,"[20, 0, 234]",234,a,0.046429689682554454,colour,0.5
051,72,0,2,5,46,246,388.6759582759696,389.3675782227074,"[74, 0, 180]",180,l,0.16846752644050866,colour,0.5
051,72,0,2,5,47,247,389.87917205743724,390.54353157558944,"[90, 0, 164]",164,l,0.1409940273151733,colour,0.5
051,72,0,2,5,48,248,391.05128383875126,391.6476974791731,"[86, 0, 168]",168,l,0.07326082629151642,colour,0.5
051,72,0,2,5,49,249,392.160624088021,392.8555306776543,"[47, 0, 207]",207,a,0.1715970248915255,colour,0.5
051,72,0,2,5,50,250,393.36382605409017,394.09554658900015,"[75, 0, 179]",179,l,0.20838812709553167,colour,0.5
051,72,0,2,6,1,251,398.92623071878916,400.21554312313674,"[11, 0, 243]",243,a,0.7651934865280055,colour,0.5
051,72,0,2,6,2,252,400.726302792551,401.3995573173743,"[62, 0, 192]",192,l,0.15012219065101817,colour,0.5
051,72,0,2,6,3,253,401.91386474942556,403.1515987184248,"[77, 0, 177]",177,l,0.71421054599341,colour,0.5
051,72,0,2,6,4,254,403.6640294754179,404.1998593970784,"[19, 0, 235]",235,a,0.012361637083813548,colour,0.5
051,72,0,2,6,5,255,404.7122098095133,405.8795363647514,"[3, 0, 251]",251,a,0.6422186907147989,colour,0.5
051,72,0,2,6,6,256,406.38592237693956,407.423540949123,"[2, 0, 252]",252,a,0.5143003428238444,colour,0.5
051,72,0,2,6,7,257,407.93287844146835,408.4955430444097,"[89, 0, 165]",165,l,0.039250275236554444,colour,0.5
051,72,0,2,6,8,258,409.0110213799053,409.73555107886204,"[13, 0, 241]",241,a,0.2011208850890398,colour,0.5
051,72,0,2,6,9,259,410.2434081049869,410.9995718896389,"[82, 0, 172]",172,l,0.24312374828150496,colour,0.5
051,72,0,2,6,10,260,411.51427907519974,412.1595512521453,"[97, 0, 157]",157,l,0.12184288311982527,colour,0.5
051,72,0,2,6,11,261,412.67058740125503,413.83150766126346,"[14, 0, 240]",240,a,0.6375189292011783,colour,0.5
051,72,0,2,6,12,262,414.34263478877256,415.55953628598945,"[94, 0, 160]",160,l,0.6936569170211442,colour,0.5
051,72,0,2,6,13,263,416.0771906193695,416.81552736932645,"[67, 0, 187]",187,l,0.21505120978690684,colour,0.5
051,72,0,2,6,14,264,417.32716177019756,418.6795899277786,"[50, 0, 204]",204,a,0.8277633695979603,colour,0.5
051,72,0,2,6,15,265,419.1881074332632,419.9515455492656,"[43, 0, 211]",211,a,0.23878908180631697,colour,0.5
051,72,0,2,6,16,266,420.47155783727067,421.02351692452794,"[39, 0, 215]",215,a,0.03062623442383483,colour,0.5
051,72,0,2,6,17,267,421.5325452479883,422.71168323775055,"[55, 0, 199]",199,a,0.6684117972617969,colour,0.5
051,72,0,2,6,18,268,423.2114746964071,423.8956119674258,"[38, 0, 216]",216,a,0.16118649975396693,colour,0.5
051,72,0,2,6,19,269,424.41486452688696,424.98354985006154,"[31, 0, 223]",223,a,0.04614375764504075,colour,0.5
051,72,0,2,6,20,270,425.49590262555284,426.57548546412727,"[0, 0, 254]",254,a,0.5538688453962095,colour,0.5
051,72,0,2,6,21,271,427.0924454474589,427.68759956915164,"[23, 0, 231]",231,a,0.07167599099921063,colour,0.5
051,72,0,2,6,22,272,428.20233747462044,428.8555669114576,"[66, 0, 188]",188,l,0.12989545363234356,colour,0.5
051,72,0,2,6,23,273,429.37488209240837,430.47151096956804,"[83, 0, 171]",171,l,0.573632025916595,colour,0.5
051,72,0,2,6,24,274,430.9843848031014,431.51151349022985,"[73, 0, 181]",181,l,0.0038474792963825166,colour,0.5
051,72,0,2,6,25,275,432.03135563683463,432.7275571913342,"[29, 0, 225]",225,a,0.17283291288185865,colour,0.5
051,72,0,2,6,26,276,433.2344772583456,434.1194983192836,"[44, 0, 210]",210,a,0.36156537936767563,colour,0.5
051,72,0,2,6,27,277,434.6252935627708,435.84748677170137,"[76, 0, 178]",178,l,0.6989572933525778,colour,0.5
051,72,0,2,6,28,278,436.34876854275353,436.95154318615096,"[15, 0, 239]",239,a,0.07959189696703106,colour,0.5
051,72,0,2,6,29,279,437.45814305660315,438.1515006508562,"[74, 0, 180]",180,l,0.170053543348331,colour,0.5
051,72,0,2,6,30,280,438.66148523177253,439.85554879455594,"[37, 0, 217]",217,a,0.6707520288182423,colour,0.5
051,72,0,2,6,31,281,440.3625641722465,441.5515164046665,"[84, 0, 170]",170,l,0.6637561464449391,colour,0.5
051,72,0,2,6,32,282,442.06759535497986,442.6715097880806,"[88, 0, 166]",166,l,0.08055760688148439,colour,0.5
051,72,0,2,6,33,283,443.1855348327081,443.71961095917504,"[8, 0, 246]",246,a,0.010610204946715385,colour,0.5
051,72,0,2,6,34,284,444.23252063262044,444.9755118518369,"[58, 0, 196]",196,a,0.2195721653988585,colour,0.5
051,72,0,2,6,35,285,445.48252801719354,446.27950722019887,"[49, 0, 205]",205,l,0.2734451461583376,colour,0.5
051,72,0,2,6,36,286,446.79519902012544,447.62348029686837,"[69, 0, 185]",185,l,0.30487521982286125,colour,0.5
051,72,0,2,6,37,287,448.13908308767714,448.7754988549277,"[63, 0, 191]",191,l,0.12237260566325858,colour,0.5
051,72,0,2,6,38,288,449.2880091687548,449.9596103290096,"[99, 0, 155]",155,a,0.14568591193528846,colour,0.5
051,72,0,2,6,39,289,450.4780362062738,451.15958709211554,"[30, 0, 224]",224,a,0.15881160978460684,colour,0.5
051,72,0,2,6,40,290,451.6656359722838,453.6395385703072,"[68, 0, 186]",186,l,1.450495753379073,colour,0.5
051,72,0,2,6,41,291,454.1502919381601,454.8315289289458,"[57, 0, 197]",197,a,0.15802470594644547,colour,0.5
051,72,0,2,6,42,292,455.3378432611935,455.9595047783223,"[17, 0, 237]",237,a,0.0989592625410296,colour,0.5
051,72,0,2,6,43,293,456.4785808949382,457.3595008398988,"[46, 0, 208]",208,a,0.35756075562676415,colour,0.5
051,72,0,2,6,44,294,457.8693235501996,458.6155049201334,"[86, 0, 168]",168,l,0.22283557138871402,colour,0.5
051,72,0,2,6,45,295,459.13503435318125,460.0394755550078,"[34, 0, 220]",220,a,0.3810883140540682,colour,0.5
051,72,0,2,6,46,296,460.5570779007394,461.11950343928766,"[85, 0, 169]",169,l,0.03943932120455429,colour,0.5
051,72,0,2,6,47,297,461.6352728268248,462.71148513333173,"[42, 0, 212]",212,a,0.5528771418030374,colour,0.5
051,72,0,2,6,48,298,463.2291197744198,463.97547325491905,"[21, 0, 233]",233,a,0.22297144815092906,colour,0.5
051,72,0,2,6,49,299,464.49488414044026,465.41549507400487,"[53, 0, 201]",201,l,0.3972659227438271,colour,0.5
051,72,0,2,6,50,300,465.9323999188491,466.7674644012586,"[36, 0, 218]",218,a,0.313026251795236,colour,0.5
051,72,0,2,7,1,301,472.2901233328157,473.7034435904352,"[0, 0, 254]",254,a,0.8891324168071151,colour,0.5
051,72,0,2,7,2,302,474.21431786898756,475.63146670133574,"[70, 0, 184]",184,l,0.8937408061465248,colour,0.5
051,72,0,2,7,3,303,476.1519657826866,476.8554885361227,"[20, 0, 234]",234,a,0.18017774255713448,colour,0.5
051,72,0,2,7,4,304,477.3708766810014,478.4315064797411,"[65, 0, 189]",189,l,0.5373572555254214,colour,0.5
051,72,0,2,7,5,305,478.93978295160923,481.1434563510702,"[63, 0, 191]",191,l,1.6803839208441786,colour,0.5
051,72,0,2,7,6,306,481.66380616487004,482.2554621484596,"[86, 0, 168]",168,l,0.06830782198812813,colour,0.5
051,72,0,2,7,7,307,482.773455976916,483.319477839279,"[98, 0, 156]",156,l,0.022607534658163786,colour,0.5
051,72,0,2,7,8,308,483.83608572446974,484.4554337915615,"[26, 0, 228]",228,a,0.09607316076289862,colour,0.5
051,72,0,2,7,9,309,484.97679893975146,486.99947224667994,"[78, 0, 176]",176,l,1.4995063143433072,colour,0.5
051,72,0,2,7,10,310,487.49672536936123,488.199454523623,"[74, 0, 180]",180,l,0.1793833556585014,colour,0.5
051,72,0,2,7,11,311,488.7154747909517,489.33546876505716,"[56, 0, 198]",198,a,0.09654774493537843,colour,0.5
051,72,0,2,7,12,312,489.856270320015,491.015855836682,"[37, 0, 217]",217,a,0.6340440280037001,colour,0.5
051,72,0,2,7,13,313,491.5284764273674,492.25548459769925,"[51, 0, 203]",203,a,0.20369112252956256,colour,0.5
051,72,0,2,7,14,314,492.7536683779326,493.8874684185139,"[82, 0, 172]",172,l,0.6104247035691515,colour,0.5
051,72,0,2,7,15,315,494.39445150084794,495.1834632039536,"[76, 0, 178]",178,l,0.2656434553209692,colour,0.5
051,72,0,2,7,16,316,495.6924466289929,496.31143865949707,"[52, 0, 202]",202,l,0.0958277948666364,colour,0.5
051,72,0,2,7,17,317,496.81756040116306,497.37542678113095,"[44, 0, 210]",210,a,0.03461746743414551,colour,0.5
051,72,0,2,7,18,318,497.89581519179046,498.7354274112731,"[75, 0, 179]",179,l,0.31630344240693375,colour,0.5
051,72,0,2,7,19,319,499.2552975209546,499.82346651225816,"[39, 0, 215]",215,l,0.04489802347961813,colour,0.5
051,72,0,2,7,20,320,500.33346566552063,501.6154174863477,"[60, 0, 194]",194,a,0.7586493453127332,colour,0.5
051,72,0,2,7,21,321,502.1304732253775,503.00743108190363,"[3, 0, 251]",251,a,0.3535797626245767,colour,0.5
051,72,0,2,7,22,322,503.52125487138983,505.30345067969756,"[68, 0, 186]",186,l,1.258851191319991,colour,0.5
051,72,0,2,7,23,323,505.805923046486,506.55148489703424,"[35, 0, 219]",219,a,0.22221920278389007,colour,0.5
051,72,0,2,7,24,324,507.07158422493376,507.6234594230773,"[48, 0, 206]",206,a,0.02851561503484845,colour,0.5
051,72,0,2,7,25,325,508.1341548956116,509.21546514169313,"[28, 0, 226]",226,a,0.5579183675581589,colour,0.5
051,72,0,2,7,26,326,509.7273823238211,510.3194502700935,"[11, 0, 243]",243,a,0.06872293539345264,colour,0.5
051,72,0,2,7,27,327,510.8367725915159,511.56740729365265,"[45, 0, 209]",209,a,0.2072014698642306,colour,0.5
051,72,0,2,7,28,328,512.0868941913941,512.7674352566828,"[67, 0, 187]",187,l,0.16591737506678328,colour,0.5
051,72,0,2,7,29,329,513.2814134336659,513.8634658821393,"[90, 0, 164]",164,l,0.0586381207103841,colour,0.5
051,72,0,2,7,30,330,514.3753543135244,515.6234373676707,"[5, 0, 249]",249,a,0.7249066092772409,colour,0.5
051,72,0,2,7,31,331,516.1410491657443,516.7994320744183,"[30, 0, 224]",224,a,0.13502647628774866,colour,0.5
051,72,0,2,7,32,332,517.3129782025935,518.103416415106,"[47, 0, 207]",207,a,0.26700301095843315,colour,0.5
051,72,0,2,7,33,333,518.5975349193322,519.1754141780548,"[96, 0, 158]",158,l,0.05447517096763477,colour,0.5
051,72,0,2,7,34,334,519.6913745807833,520.2794241187512,"[4, 0, 250]",250,a,0.06474785011960194,colour,0.5
051,72,0,2,7,35,335,520.8008511007065,521.7434177541872,"[16, 0, 238]",238,a,0.41923818417126313,colour,0.5
051,72,0,2,7,36,336,522.2540588760166,523.3514451186056,"[21, 0, 233]",233,a,0.5819650146877393,colour,0.5
051,72,0,2,7,37,337,523.8711442991626,524.5115004932741,"[77, 0, 177]",177,l,0.11519240349298343,colour,0.5
051,72,0,2,7,38,338,525.0296006600838,525.743461471051,"[22, 0, 232]",232,a,0.18790145189268515,colour,0.5
051,72,0,2,7,39,339,526.2514567370526,527.3834537516814,"[34, 0, 220]",220,a,0.6086673637619242,colour,0.5
051,72,0,2,7,40,340,527.8953445461229,528.4315474397154,"[87, 0, 167]",167,l,0.020642638148274273,colour,0.5
051,72,0,2,7,41,341,528.9523564776755,529.6474643225083,"[27, 0, 227]",227,a,0.17192431073635817,colour,0.5
051,72,0,2,7,42,342,530.1539578545489,531.2073850019369,"[50, 0, 204]",204,a,0.530989557155408,colour,0.5
051,72,0,2,7,43,343,531.7165551098878,532.3674388012732,"[92, 0, 162]",162,l,0.1275193821056746,colour,0.5
051,72,0,2,7,44,344,532.8761532296194,533.4634532790515,"[23, 0, 231]",231,a,0.06413345067994669,colour,0.5
051,72,0,2,7,45,345,533.969945629593,534.4953918076353,"[29, 0, 225]",225,a,0.002010976488236338,colour,0.5
051,72,0,2,7,46,346,535.0169397002319,535.9833895548363,"[72, 0, 182]",182,l,0.44310760067310184,colour,0.5
051,72,0,2,7,47,347,536.5014310386032,537.0953673892072,"[32, 0, 222]",222,a,0.07055510592181236,colour,0.5
051,72,0,2,7,48,348,537.5992914714734,539.1114843456307,"[19, 0, 235]",235,a,0.989704477833584,colour,0.5
051,72,0,2,7,49,349,539.630577397591,540.6393802443054,"[53, 0, 201]",201,l,0.48579536168836057,colour,0.5
051,72,0,2,7,50,350,541.1463440282387,541.8954071676126,"[69, 0, 185]",185,l,0.225620454759337,colour,0.5
051,72,0,2,8,1,351,548.772281528858,558.1034069628222,"[0, 0, 254]",254,a,8.806876940943766,colour,0.5
051,72,0,2,8,2,352,558.6176805241266,559.847444236395,"[88, 0, 166]",166,l,0.7064805351546966,colour,0.5
051,72,0,2,8,3,353,560.3678066532593,560.9274055607384,"[56, 0, 198]",198,a,0.036336604272946715,colour,0.5
051,72,0,2,8,4,354,561.4460283608641,562.1034325627843,"[37, 0, 217]",217,a,0.13413835410028696,colour,0.5
051,72,0,2,8,5,355,562.6179152562399,563.1513635925367,"[89, 0, 165]",165,l,0.010120260820258409,colour,0.5
051,72,0,2,8,6,356,563.6649365022313,564.3833820717409,"[55, 0, 199]",199,a,0.19513679249212146,colour,0.5
051,72,0,2,8,7,357,564.899240074621,566.1513683186495,"[80, 0, 174]",174,l,0.7285421995911747,colour,0.5
051,72,0,2,8,8,358,566.6558205481269,567.2713498866651,"[72, 0, 182]",182,l,0.09245293051935732,colour,0.5
051,72,0,2,8,9,359,567.780893754214,568.5433960926603,"[30, 0, 224]",224,a,0.239029721589759,colour,0.5
051,72,0,2,8,10,360,569.0622591386782,570.415884193615,"[21, 0, 233]",233,l,0.830194185662549,colour,0.5
051,72,0,2,8,11,361,570.9373816739535,571.535380149784,"[62, 0, 192]",192,l,0.0746172311482951,colour,0.5
051,72,0,2,8,12,362,572.0468471662025,573.0633729345282,"[34, 0, 220]",220,a,0.49312010523863137,colour,0.5
051,72,0,2,8,13,363,573.5782750737271,574.2314379505697,"[5, 0, 249]",249,a,0.12982101674424484,colour,0.5
051,72,0,2,8,14,364,574.7501911136787,575.7033427659189,"[82, 0, 172]",172,l,0.42974086914910004,colour,0.5
051,72,0,2,8,15,365,576.2190589843085,577.5113973057014,"[48, 0, 206]",206,a,0.7689889782341197,colour,0.5
051,72,0,2,8,16,366,578.0317380610504,578.6554066162207,"[39, 0, 215]",215,a,0.10030897200340405,colour,0.5
051,72,0,2,8,17,367,579.1726552884793,580.0393542504753,"[12, 0, 242]",242,a,0.343432720284909,colour,0.5
051,72,0,2,8,18,368,580.5478028329671,581.7353640021174,"[24, 0, 230]",230,a,0.6646076409961097,colour,0.5
051,72,0,2,8,19,369,582.2509597036988,582.7833942809957,"[75, 0, 179]",179,l,0.009111227991525084,colour,0.5
051,72,0,2,8,20,370,583.2979258112609,584.1593716584612,"[67, 0, 187]",187,l,0.3380539686768316,colour,0.5
051,72,0,2,8,21,371,584.6730178234866,586.0073566450737,"[71, 0, 183]",183,l,0.810999718378298,colour,0.5
051,72,0,2,8,22,372,586.5169131156872,587.3033864828176,"[96, 0, 158]",158,l,0.26320988236693665,colour,0.5
051,72,0,2,8,23,373,587.8139303247444,589.0393629150931,"[92, 0, 162]",162,l,0.7021163302124478,colour,0.5
051,72,0,2,8,24,374,589.5484885183978,590.2073475866346,"[44, 0, 210]",210,a,0.1358720631687902,colour,0.5
051,72,0,2,8,25,375,590.7203734445502,592.0073668850819,"[27, 0, 227]",227,a,0.7636582758277655,colour,0.5
051,72,0,2,8,26,376,592.5174223582144,593.7913247593096,"[40, 0, 214]",214,a,0.7506578208995052,colour,0.5
051,72,0,2,8,27,377,594.2967001632787,594.871369578992,"[16, 0, 238]",238,a,0.04815512802451849,colour,0.5
051,72,0,2,8,28,378,595.3779761447804,596.0633536360692,"[78, 0, 176]",176,l,0.16194425901630893,colour,0.5
051,72,0,2,8,29,379,596.5813250153442,597.2953555738204,"[18, 0, 236]",236,a,0.1906863353215158,colour,0.5
051,72,0,2,8,30,380,597.8156388276839,599.8953713276424,"[70, 0, 184]",184,a,1.5563240799237974,colour,0.5
051,72,0,2,8,31,381,600.4097232642816,600.9433937295689,"[94, 0, 160]",160,l,0.01072205713717267,colour,0.5
051,72,0,2,8,32,382,601.456684645731,602.3993332191021,"[28, 0, 226]",226,a,0.41932679939782247,colour,0.5
051,72,0,2,8,33,383,602.9099448025227,604.2713498866651,"[74, 0, 180]",180,a,0.8380754332756624,colour,0.5
051,72,0,2,8,34,384,604.78523747914,605.5833257518243,"[84, 0, 170]",170,l,0.274863384780474,colour,0.5
051,72,0,2,8,35,385,606.0977237683837,606.9833781332709,"[13, 0, 241]",241,a,0.3622089233249426,colour,0.5
051,72,0,2,8,36,386,607.5041395159205,608.0393412535777,"[90, 0, 164]",164,l,0.011835852987132967,colour,0.5
051,72,0,2,8,37,387,608.5510248851497,609.1913444516249,"[11, 0, 243]",243,a,0.11723055533366278,colour,0.5
051,72,0,2,8,38,388,609.7073930758052,610.2553187886369,"[46, 0, 208]",208,a,0.02460039424477145,colour,0.5
051,72,0,2,8,39,389,610.7699117588345,611.3113591026631,"[29, 0, 225]",225,a,0.018042468407656997,colour,0.5
051,72,0,2,8,40,390,611.8325726202456,612.791286556283,"[81, 0, 173]",173,l,0.43536498671164736,colour,0.5
051,72,0,2,8,41,391,613.3016937337234,613.8633815991343,"[95, 0, 159]",159,l,0.038442103657871485,colour,0.5
051,72,0,2,8,42,392,614.3798378537176,615.039382607385,"[23, 0, 231]",231,a,0.13615563209168613,colour,0.5
051,72,0,2,8,43,393,615.5518129705451,616.3833359918208,"[7, 0, 247]",247,a,0.30853404698427767,colour,0.5
051,72,0,2,8,44,394,616.8956911304267,617.5193419625284,"[76, 0, 178]",178,l,0.10032472584862262,colour,0.5
051,72,0,2,8,45,395,618.0363893795875,618.871345160529,"[79, 0, 175]",175,l,0.31164818548131734,colour,0.5
051,72,0,2,8,46,396,619.3801749856793,620.0553601424326,"[47, 0, 207]",207,a,0.15178973361616954,colour,0.5
051,72,0,2,8,47,397,620.5677357609966,621.1593417262193,"[2, 0, 252]",252,a,0.06823299132520333,colour,0.5
051,72,0,2,8,48,398,621.6772075547487,622.7513442940544,"[17, 0, 237]",237,a,0.5507602207944728,colour,0.5
051,72,0,2,8,49,399,623.2710820715292,623.8953146138228,"[91, 0, 163]",163,l,0.10088201757753268,colour,0.5
051,72,0,2,8,50,400,624.4118165545515,625.2795399093884,"[60, 0, 194]",194,l,0.3443137533031404,colour,0.5
051,72,0,2,9,1,401,630.460968506115,632.4473280518432,"[65, 0, 189]",189,a,1.46224259713199,colour,0.5
051,72,0,2,9,2,402,632.962029723567,633.5833076349227,"[90, 0, 164]",164,l,0.09794983587926254,colour,0.5
051,72,0,2,9,3,403,634.1027260035044,635.3833592287265,"[92, 0, 162]",162,l,0.7573516235570423,colour,0.5
051,72,0,2,9,4,404,635.8996819695458,636.5032880213694,"[41, 0, 213]",213,a,0.08012319495901465,colour,0.5
051,72,0,2,9,5,405,637.0247977109975,637.7352840513922,"[9, 0, 245]",245,a,0.18724609253695235,colour,0.5
051,72,0,2,9,6,406,638.2436349601485,639.09533194307,"[87, 0, 167]",167,l,0.3284346797154285,colour,0.5
051,72,0,2,9,7,407,639.6031015354092,640.303393178212,"[18, 0, 236]",236,a,0.17535588890314102,colour,0.5
051,72,0,2,9,8,408,640.8235476445407,642.1673679090454,"[82, 0, 172]",172,l,0.8204638321185485,colour,0.5
051,72,0,2,9,9,409,642.6706059120479,643.4073341958574,"[66, 0, 188]",188,l,0.2136475434526801,colour,0.5
051,72,0,2,9,10,410,643.9207393272663,644.5273295484949,"[71, 0, 183]",183,l,0.08315501967445016,colour,0.5
051,72,0,2,9,11,411,645.046377308201,646.0633138576522,"[97, 0, 157]",157,l,0.49406454735435545,colour,0.5
051,72,0,2,9,12,412,646.5771329209674,647.6873423878569,"[70, 0, 184]",184,l,0.586748271540273,colour,0.5
051,72,0,2,9,13,413,648.2023063608212,649.7753192612436,"[20, 0, 234]",234,a,1.0496198403998278,colour,0.5
051,72,0,2,9,14,414,650.2961952529731,652.6632626577048,"[89, 0, 165]",165,l,1.8436621354776435,colour,0.5
051,72,0,2,9,15,415,653.1715517326375,654.2073007189902,"[99, 0, 155]",155,l,0.5123303263681009,colour,0.5
051,72,0,2,9,16,416,654.7185597848147,656.0553203640156,"[84, 0, 170]",170,l,0.8133923314744607,colour,0.5
051,72,0,2,9,17,417,656.5624338092748,657.1513072725502,"[22, 0, 232]",232,a,0.06550994166173041,colour,0.5
051,72,0,2,9,18,418,657.6718776400085,658.2233176385635,"[24, 0, 230]",230,a,0.027999676996842027,colour,0.5
051,72,0,2,9,19,419,658.7345369260293,659.6072652728762,"[11, 0, 243]",243,a,0.350087532249745,colour,0.5
051,72,0,2,9,20,420,660.1262964910129,660.7833308717818,"[3, 0, 251]",251,a,0.1339831788209267,colour,0.5
051,72,0,2,9,21,421,661.2857993001235,661.9112602474052,"[80, 0, 174]",174,l,0.10244282841449603,colour,0.5
051,72,0,2,9,22,422,662.4265373277012,662.9913070362527,"[15, 0, 239]",239,a,0.04158932517748326,colour,0.5
051,72,0,2,9,23,423,663.504759035306,664.0313067999668,"[47, 0, 207]",207,a,0.003207873785868287,colour,0.5
051,72,0,2,9,24,424,664.5394533026847,665.4072912666597,"[16, 0, 238]",238,a,0.3445106761646457,colour,0.5
051,72,0,2,9,25,425,665.914588244108,666.543295268144,"[44, 0, 210]",210,a,0.10536083165789023,colour,0.5
051,72,0,2,9,26,426,667.0552924009389,668.1272688962054,"[48, 0, 206]",206,a,0.5485881613567472,colour,0.5
051,72,0,2,9,27,427,668.633687597583,669.5192454702919,"[78, 0, 176]",176,l,0.3623731570551172,colour,0.5
051,72,0,2,9,28,428,670.0399761329754,671.4952937400085,"[1, 0, 253]",253,a,0.9319265162339434,colour,0.5
051,72,0,2,9,29,429,672.0088323851814,673.2952756230952,"[51, 0, 203]",203,a,0.763230953074526,colour,0.5
051,72,0,2,9,30,430,673.8058927203529,674.8072723620571,"[81, 0, 173]",173,l,0.4780460523907095,colour,0.5
051,72,0,2,9,31,431,675.3216766801779,676.0313513044966,"[13, 0, 241]",241,a,0.18628865346545354,colour,0.5
051,72,0,2,9,32,432,676.5404694247991,678.6553018532577,"[34, 0, 220]",220,a,1.5914870238048024,colour,0.5
051,72,0,2,9,33,433,679.1656731907278,679.7912432332523,"[64, 0, 190]",190,l,0.10220061324071139,colour,0.5
051,72,0,2,9,34,434,680.3064265783178,681.2072471559513,"[83, 0, 171]",171,l,0.377434213005472,colour,0.5
051,72,0,2,9,35,435,681.7283728459151,682.3272574747098,"[67, 0, 187]",187,l,0.07551323028746992,colour,0.5
051,72,0,2,9,36,436,682.8378308550455,683.9353065006435,"[56, 0, 198]",198,l,0.5741121239843778,colour,0.5
051,72,0,2,9,37,437,684.4473938241135,685.5114441733458,"[4, 0, 250]",250,a,0.5409640950383618,colour,0.5
051,72,0,2,9,38,438,686.0254959994927,686.8792744573439,"[32, 0, 222]",222,l,0.33034719474380836,colour,0.5
051,72,0,2,9,39,439,687.3850909685134,687.927314582339,"[77, 0, 177]",177,a,0.01883685530629009,colour,0.5
051,72,0,2,9,40,440,688.4475801131339,691.0392471244559,"[25, 0, 229]",229,a,2.0681940005742945,colour,0.5
051,72,0,2,9,41,441,691.557304755901,692.1912566240062,"[43, 0, 211]",211,a,0.10931780008831993,colour,0.5
051,72,0,2,9,42,442,692.6994653543807,693.4712730867323,"[63, 0, 191]",191,l,0.24870926892617717,colour,0.5
051,72,0,2,9,43,443,693.9808590957546,695.5672722045565,"[72, 0, 182]",182,l,1.0629987810389139,colour,0.5
051,72,0,2,9,44,444,696.0767140660319,696.7512190511334,"[68, 0, 186]",186,l,0.15130569721804932,colour,0.5
051,72,0,2,9,45,445,697.2643634566339,697.991218814801,"[23, 0, 231]",231,a,0.20348238426959142,colour,0.5
051,72,0,2,9,46,446,698.487723630562,699.3753066581558,"[0, 0, 254]",254,a,0.3641588537138887,colour,0.5
051,72,0,2,9,47,447,699.8940724243294,700.5272586562205,"[85, 0, 169]",169,l,0.10976008884608746,colour,0.5
051,72,0,2,9,48,448,701.0348419595393,701.743217286712,"[12, 0, 242]",242,a,0.1850051101646386,colour,0.5
051,72,0,2,9,49,449,702.2537323778961,702.9191923011094,"[39, 0, 215]",215,a,0.14214917697245255,colour,0.5
051,72,0,2,9,50,450,703.4256795316469,703.9832328042248,"[29, 0, 225]",225,a,0.03438037232263014,colour,0.5
051,72,0,2,10,1,451,708.1469426737749,713.8392451552209,"[86, 0, 168]",168,l,5.168131182144862,colour,0.5
051,72,0,2,10,2,452,714.3513470509788,715.1272098193876,"[84, 0, 170]",170,l,0.2524980652378872,colour,0.5
051,72,0,2,10,3,453,715.6333315610536,716.2552841301658,"[47, 0, 207]",207,a,0.0986292198067531,colour,0.5
051,72,0,2,10,4,454,716.774017994816,717.4392979305703,"[2, 0, 252]",252,a,0.14190538646653295,colour,0.5
051,72,0,2,10,5,455,717.9460092593217,718.4872265972081,"[32, 0, 222]",222,a,0.017877447011414915,colour,0.5
051,72,0,2,10,6,456,718.9978417251841,719.599249723833,"[15, 0, 239]",239,a,0.07807086466345936,colour,0.5
051,72,0,2,10,7,457,720.1072154513677,720.6472169873887,"[12, 0, 242]",242,a,0.016575786808971316,colour,0.5
051,72,0,2,10,8,458,721.1541843158775,721.7192513779737,"[14, 0, 240]",240,a,0.041673608182463795,colour,0.5
051,72,0,2,10,9,459,722.2323863311904,722.9432117728284,"[83, 0, 171]",171,l,0.18744774156948552,colour,0.5
051,72,0,2,10,10,460,723.4512302757357,724.2472823657445,"[38, 0, 216]",216,a,0.2726306730764918,colour,0.5
051,72,0,2,10,11,461,724.76379415259,725.4558067634935,"[63, 0, 191]",191,l,0.16732301062438637,colour,0.5
051,72,0,2,10,12,462,725.9683619757998,726.6072499128641,"[76, 0, 178]",178,l,0.11842745263129473,colour,0.5
051,72,0,2,10,13,463,727.1218188585481,727.9033218921395,"[49, 0, 205]",205,a,0.2575735556310974,colour,0.5
051,72,0,2,10,14,464,728.4194823685102,729.1032120091259,"[37, 0, 217]",217,a,0.16036099899793044,colour,0.5
051,72,0,2,10,15,465,729.6226776392432,730.1672674783622,"[8, 0, 246]",246,a,0.021184569864999503,colour,0.5
051,72,0,2,10,16,466,730.6853262913646,731.3672213984537,"[78, 0, 176]",176,l,0.15854103775927797,colour,0.5
051,72,0,2,10,17,467,731.8885274697677,732.4232199648395,"[74, 0, 180]",180,l,0.011341576522681862,colour,0.5
051,72,0,2,10,18,468,732.9354329251219,734.5832300473121,"[58, 0, 196]",196,l,1.1231047649635002,colour,0.5
051,72,0,2,10,19,469,735.0931421606219,735.6552112687496,"[79, 0, 175]",175,l,0.038938743236940354,colour,0.5
051,72,0,2,10,20,470,736.1713043975178,737.3592097878573,"[66, 0, 188]",188,l,0.6645528964581899,colour,0.5
051,72,0,2,10,21,471,737.8745601235423,738.423192395654,"[34, 0, 220]",220,a,0.025169895263388753,colour,0.5
051,72,0,2,10,22,472,738.9371717541944,739.6952059124014,"[9, 0, 245]",245,a,0.2347289258032106,colour,0.5
051,72,0,2,10,23,473,740.1951316724881,741.1832351672929,"[43, 0, 211]",211,a,0.4647242193459533,colour,0.5
051,72,0,2,10,24,474,741.6952685338911,742.6472248642822,"[42, 0, 212]",212,a,0.4285853257169947,colour,0.5
051,72,0,2,10,25,475,743.1641348291887,743.8872132064425,"[11, 0, 243]",243,a,0.19972076336853206,colour,0.5
051,72,0,2,10,26,476,744.3986014536931,745.1352237930405,"[88, 0, 166]",166,l,0.21329347614664584,colour,0.5
051,72,0,2,10,27,477,745.6486076567671,746.5832209888613,"[92, 0, 162]",162,l,0.40893714816775173,colour,0.5
051,72,0,2,10,28,478,747.1046790846158,747.8552211148781,"[16, 0, 238]",238,a,0.2272946931188926,colour,0.5
051,72,0,2,10,29,479,748.3703296292224,749.3512497710763,"[97, 0, 157]",157,l,0.45769446628401056,colour,0.5
051,72,0,2,10,30,480,749.8704294690979,750.6632441469701,"[1, 0, 253]",253,a,0.26952716847881675,colour,0.5
051,72,0,2,10,31,481,751.1829850752256,752.6151953573572,"[50, 0, 204]",204,a,0.908599425398279,colour,0.5
051,72,0,2,10,32,482,753.1363308934378,753.8631984608364,"[55, 0, 199]",199,l,0.20359581185039133,colour,0.5
051,72,0,2,10,33,483,754.3614393487223,755.2471965074074,"[95, 0, 159]",159,l,0.3623585847672075,colour,0.5
051,72,0,2,10,34,484,755.7678929054528,756.4712344898726,"[80, 0, 174]",174,l,0.18008715804899111,colour,0.5
051,72,0,2,10,35,485,756.9866738346755,757.783226896543,"[73, 0, 181]",181,l,0.27322459255810827,colour,0.5
051,72,0,2,10,36,486,758.2992050223402,758.983203659649,"[53, 0, 201]",201,a,0.16055674041854218,colour,0.5
051,72,0,2,10,37,487,759.502549954399,760.1672111584339,"[7, 0, 247]",247,a,0.141341399285011,colour,0.5
051,72,0,2,10,38,488,760.6744888374233,761.2311764369952,"[35, 0, 219]",219,a,0.03341269324300811,colour,0.5
051,72,0,2,10,39,489,761.7526888835127,762.2872415633174,"[18, 0, 236]",236,a,0.011200973589438945,colour,0.5
051,72,0,2,10,40,490,762.7996258465573,763.4552427763701,"[21, 0, 233]",233,a,0.13229751895414665,colour,0.5
051,72,0,2,10,41,491,763.9716190802865,764.7112121981918,"[72, 0, 182]",182,l,0.2162886731675826,colour,0.5
051,72,0,2,10,42,492,765.2218946738285,765.7991701669525,"[91, 0, 163]",163,l,0.05416403280105442,colour,0.5
051,72,0,2,10,43,493,766.3155799477245,767.0951767678489,"[28, 0, 226]",226,a,0.25630615995032713,colour,0.5
051,72,0,2,10,44,494,767.6125341415172,768.3591617386555,"[77, 0, 177]",177,l,0.2233830169425346,colour,0.5
051,72,0,2,10,45,495,768.8782067414722,769.4471653935616,"[67, 0, 187]",187,l,0.045566379732917994,colour,0.5
051,72,0,2,10,46,496,769.9566564857378,770.5591857632971,"[99, 0, 155]",155,l,0.0792937558144331,colour,0.5
051,72,0,2,10,47,497,771.0660026427358,771.6392557890504,"[39, 0, 215]",215,a,0.049852997064590454,colour,0.5
051,72,0,2,10,48,498,772.1599068948417,772.8951779493946,"[90, 0, 164]",164,l,0.21054285735590383,colour,0.5
051,72,0,2,10,49,499,773.4099469686626,774.8311587139615,"[19, 0, 235]",235,a,0.897949835867621,colour,0.5
051,72,0,2,10,50,500,775.3477402114659,776.5111956566689,"[46, 0, 208]",208,a,0.6401317020063289,colour,0.5
051,72,0,2,11,1,501,782.0504799995106,783.8552447456168,"[55, 0, 199]",199,a,1.2858351400936954,colour,0.5
051,72,0,2,11,2,502,784.3744055390707,785.1831938134856,"[23, 0, 231]",231,a,0.285493281960953,colour,0.5
051,72,0,2,11,3,503,785.7025995790027,786.5191946642008,"[89, 0, 165]",165,l,0.2939538767677732,colour,0.5
051,72,0,2,11,4,504,787.0308219757862,787.6471823289176,"[53, 0, 201]",201,a,0.0929314530803822,colour,0.5
051,72,0,2,11,5,505,788.1558873049798,789.3671213616035,"[43, 0, 211]",211,a,0.6875964183709584,colour,0.5
051,72,0,2,11,6,506,789.8773540653638,790.4711580837611,"[92, 0, 162]",162,l,0.07109664380550385,colour,0.5
051,72,0,2,11,7,507,790.9868368867901,791.5911758856382,"[14, 0, 240]",240,a,0.08091167418751866,colour,0.5
051,72,0,2,11,8,508,792.1118722836836,792.9511788788368,"[51, 0, 203]",203,l,0.3162853255053051,colour,0.5
051,72,0,2,11,9,509,793.4713971481542,794.4151406128076,"[48, 0, 206]",206,a,0.4203724599792622,colour,0.5
051,72,0,2,11,10,510,794.9246580926701,796.2231348941568,"[44, 0, 210]",210,a,0.775205833662767,colour,0.5
051,72,0,2,11,11,511,796.7372517048498,797.4151520343148,"[12, 0, 242]",242,a,0.15448797098360956,colour,0.5
051,72,0,2,11,12,512,797.9273122192826,798.8872037541587,"[20, 0, 234]",234,a,0.43657251785043627,colour,0.5
051,72,0,2,11,13,513,799.3962348345085,800.3751723567839,"[38, 0, 216]",216,a,0.4556834897957742,colour,0.5
051,72,0,2,11,14,514,800.8963232528768,801.8631795562687,"[9, 0, 245]",245,a,0.44351601868402213,colour,0.5
051,72,0,2,11,15,515,802.3808067142963,802.9991469300585,"[17, 0, 237]",237,a,0.0949247065000236,colour,0.5
051,72,0,2,11,16,516,803.5059476618189,804.1271554686246,"[94, 0, 160]",160,l,0.09797149733640254,colour,0.5
051,72,0,2,11,17,517,804.6466116463998,805.175195987511,"[64, 0, 190]",190,a,0.005296043993439525,colour,0.5
051,72,0,2,11,18,518,805.6935458524968,806.34312945907,"[86, 0, 168]",168,l,0.12645993701880798,colour,0.5
051,72,0,2,11,19,519,806.8499018339207,807.4711277576862,"[24, 0, 230]",230,a,0.0978458605823107,colour,0.5
051,72,0,2,11,20,520,807.9905973261921,808.70313875383,"[41, 0, 213]",213,a,0.1891649091267027,colour,0.5
051,72,0,2,11,21,521,809.2094365445664,810.3911636763951,"[35, 0, 219]",219,a,0.6585628961911425,colour,0.5
051,72,0,2,11,22,522,810.8971022797632,811.5911109010922,"[49, 0, 205]",205,a,0.17063564737327397,colour,0.5
051,72,0,2,11,23,523,812.1003215750679,812.7671020631678,"[60, 0, 194]",194,a,0.1435256678960286,colour,0.5
051,72,0,2,11,24,524,813.2879040119005,813.9672733860789,"[26, 0, 228]",228,a,0.1560235756332986,colour,0.5
051,72,0,2,11,25,525,814.4755545840599,815.5831142566167,"[19, 0, 235]",235,a,0.5843745630700141,colour,0.5
051,72,0,2,11,26,526,816.1006894269958,816.7191525226808,"[80, 0, 174]",174,l,0.09517204167786986,colour,0.5
051,72,0,2,11,27,527,817.2257390023442,817.9271621640073,"[37, 0, 217]",217,a,0.1781466799438931,colour,0.5
051,72,0,2,11,28,528,818.4445892483927,819.167171380017,"[4, 0, 250]",250,a,0.19926232687430456,colour,0.5
051,72,0,2,11,29,529,819.6790153068141,820.2951468355604,"[88, 0, 166]",166,l,0.09272035176400095,colour,0.5
051,72,0,2,11,30,530,820.8041361682699,821.735212765343,"[78, 0, 176]",176,l,0.4077674262225628,colour,0.5
051,72,0,2,11,31,531,822.2417393804644,822.9831304043182,"[56, 0, 198]",198,a,0.21808382222661749,colour,0.5
051,72,0,2,11,32,532,823.4917814235087,824.2151079236064,"[50, 0, 204]",204,a,0.1999909415608272,colour,0.5
051,72,0,2,11,33,533,824.7262846756494,825.7671469615889,"[33, 0, 221]",221,a,0.5177256194874644,colour,0.5
051,72,0,2,11,34,534,826.2733502293122,826.8951235986315,"[91, 0, 163]",163,l,0.09852406295249239,colour,0.5
051,72,0,2,11,35,535,827.4143040843774,828.3191091996268,"[39, 0, 215]",215,a,0.38144592591561377,colour,0.5
051,72,0,2,11,36,536,828.8362609858159,829.9191623688093,"[18, 0, 236]",236,a,0.5595402244362049,colour,0.5
051,72,0,2,11,37,537,830.4301386534353,831.223165614123,"[52, 0, 202]",202,a,0.2696445345063694,colour,0.5
051,72,0,2,11,38,538,831.7432357974467,832.4711848652805,"[97, 0, 157]",157,l,0.20515583490487188,colour,0.5
051,72,0,2,11,39,539,832.9777154188487,833.5751231260365,"[75, 0, 179]",179,l,0.07401070866035298,colour,0.5
051,72,0,2,11,40,540,834.0871639756951,835.2630881840596,"[45, 0, 209]",209,a,0.6525114559917711,colour,0.5
051,72,0,2,11,41,541,835.7747804802493,836.8391206999659,"[59, 0, 195]",195,l,0.5409428274142556,colour,0.5
051,72,0,2,11,42,542,837.3530090801069,838.791142014903,"[6, 0, 248]",248,a,0.9147197885904461,colour,0.5
051,72,0,2,11,43,543,839.3064100367483,839.8631181163364,"[40, 0, 214]",214,a,0.03337567177368328,colour,0.5
051,72,0,2,11,44,544,840.3845628213603,842.3190879320027,"[95, 0, 159]",159,l,1.4111722228699364,colour,0.5
051,72,0,2,11,45,545,842.8406244030921,844.1830890505225,"[57, 0, 197]",197,l,0.819155870412942,colour,0.5
051,72,0,2,11,46,546,844.6903600341175,845.423067940399,"[71, 0, 183]",183,l,0.22169538791058585,colour,0.5
051,72,0,2,11,47,547,845.9436686339322,846.5591302310349,"[1, 0, 253]",253,a,0.0921433677431196,colour,0.5
051,72,0,2,11,48,548,847.0687512923032,847.7110971952206,"[77, 0, 177]",177,l,0.11893511982634664,colour,0.5
051,72,0,2,11,49,549,848.2251088491175,848.8231136264512,"[66, 0, 188]",188,l,0.07468772953143343,colour,0.5
051,72,0,2,11,50,550,849.3346409013029,849.9990847024601,"[65, 0, 189]",189,l,0.14103971346048638,colour,0.5
051,72,0,2,12,1,551,854.7092236709432,855.3271464101854,"[68, 0, 186]",186,a,0.09399523050524294,colour,0.5
051,72,0,2,12,2,552,855.8355902665062,856.4390966753708,"[99, 0, 155]",155,l,0.08025237638503313,colour,0.5
051,72,0,2,12,3,553,856.9606894663884,857.567085915478,"[12, 0, 242]",242,a,0.08311405970016494,colour,0.5
051,72,0,2,12,4,554,858.0856716941344,858.6391080968897,"[30, 0, 224]",224,a,0.03003428428201005,colour,0.5
051,72,0,2,12,5,555,859.1483294047066,860.1990976993693,"[14, 0, 240]",240,a,0.5275441944249906,colour,0.5
051,72,0,2,12,6,556,860.710864826222,861.3431184313959,"[25, 0, 229]",229,a,0.10885621281340718,colour,0.5
051,72,0,2,12,7,557,861.8468251108425,862.8711379976594,"[60, 0, 194]",194,l,0.5008930452750064,colour,0.5
051,72,0,2,12,8,558,863.3782006368274,864.2150539667346,"[49, 0, 205]",205,a,0.31345672521274537,colour,0.5
051,72,0,2,12,9,559,864.7117131699924,865.4071077345288,"[9, 0, 245]",245,a,0.17204364598728716,colour,0.5
051,72,0,2,12,10,560,865.9149950867868,866.6310716740554,"[64, 0, 190]",190,l,0.1930742222466506,colour,0.5
051,72,0,2,12,11,561,867.1493553729379,867.8470988336485,"[7, 0, 247]",247,a,0.17226813809247687,colour,0.5
051,72,0,2,12,12,562,868.355283539393,869.1270711856778,"[11, 0, 243]",243,a,0.2484477554098703,colour,0.5
051,72,0,2,12,13,563,869.63847754983,870.2790657191072,"[98, 0, 156]",156,l,0.11727545381290838,colour,0.5
051,72,0,2,12,14,564,870.7948398327571,871.6070967068663,"[81, 0, 173]",173,l,0.28887405403656885,colour,0.5
051,72,0,2,12,15,565,872.1230858603376,872.7110999521683,"[4, 0, 250]",250,a,0.06337096530478448,colour,0.5
051,72,0,2,12,16,566,873.2181377790985,873.8311000309186,"[82, 0, 172]",172,l,0.08947348728543147,colour,0.5
051,72,0,2,12,17,567,874.343238160538,875.1030635292991,"[74, 0, 180]",180,l,0.2366075700847432,colour,0.5
051,72,0,2,12,18,568,875.6246330834692,876.2231065372471,"[93, 0, 161]",161,l,0.07511780911590904,colour,0.5
051,72,0,2,12,19,569,876.7340351665043,877.4550753919175,"[46, 0, 208]",208,a,0.19769600225845352,colour,0.5
051,72,0,2,12,20,570,877.9617276438512,878.8471122243791,"[66, 0, 188]",188,l,0.3625688983593136,colour,0.5
051,72,0,2,12,21,571,879.368283206597,879.9030910984729,"[85, 0, 169]",169,l,0.011662560806144029,colour,0.5
051,72,0,2,12,22,572,880.4150468775188,881.0470748090302,"[89, 0, 165]",165,l,0.10873608983820304,colour,0.5
051,72,0,2,12,23,573,881.5558313789079,882.2151441574097,"[17, 0, 237]",237,a,0.1362292812555097,colour,0.5
051,72,0,2,12,24,574,882.7277100034989,883.3910789995571,"[90, 0, 164]",164,l,0.1399617575807497,colour,0.5
051,72,0,2,12,25,575,883.8995803573634,884.5350855531287,"[73, 0, 181]",181,l,0.11204163735965267,colour,0.5
051,72,0,2,12,26,576,885.0560241664061,885.6230911772582,"[42, 0, 212]",212,a,0.04379052919102833,colour,0.5
051,72,0,2,12,27,577,886.1342596585746,886.6951204478974,"[34, 0, 220]",220,a,0.03754295379621908,colour,0.5
051,72,0,2,12,28,578,887.2124199262471,887.7670705554774,"[79, 0, 175]",175,l,0.031268596882000566,colour,0.5
051,72,0,2,12,29,579,888.2750114707742,888.9910325257806,"[37, 0, 217]",217,a,0.1927138533210382,colour,0.5
051,72,0,2,12,30,580,889.5094580091536,890.1590695787454,"[29, 0, 225]",225,a,0.1263752601807937,colour,0.5
051,72,0,2,12,31,581,890.6565074151149,891.26306573482,"[2, 0, 252]",252,a,0.08316919807111844,colour,0.5
051,72,0,2,12,32,582,891.7816715996014,892.3750857106643,"[1, 0, 253]",253,a,0.07012266322271898,colour,0.5
051,72,0,2,12,33,583,892.8910252396017,893.5110605675727,"[83, 0, 171]",171,l,0.09667456324677914,colour,0.5
051,72,0,2,12,34,584,894.0317699625739,894.6710505639203,"[75, 0, 179]",179,l,0.11590723361587152,colour,0.5
051,72,0,2,12,35,585,895.1881145224907,895.8230340696173,"[18, 0, 236]",236,a,0.1116072254953906,colour,0.5
051,72,0,2,12,36,586,896.3444512054557,897.063024381001,"[58, 0, 196]",196,l,0.19518011546460912,colour,0.5
051,72,0,2,12,37,587,897.5789209807408,898.1270707917865,"[53, 0, 201]",201,l,0.022492925520054996,colour,0.5
051,72,0,2,12,38,588,898.6437806830509,899.4630747932824,"[36, 0, 218]",218,a,0.29599439160665497,colour,0.5
051,72,0,2,12,39,589,899.9739337118226,900.5270959979389,"[48, 0, 206]",206,a,0.029899982851929963,colour,0.5
051,72,0,2,12,40,590,901.0365642471006,901.719039488933,"[33, 0, 221]",221,a,0.15916488942457363,colour,0.5
051,72,0,2,12,41,591,902.2396657824866,902.8950657033129,"[72, 0, 182]",182,l,0.14440985163673759,colour,0.5
051,72,0,2,12,42,592,903.4148661022773,904.1111019213567,"[21, 0, 233]",233,a,0.17286008823430166,colour,0.5
051,72,0,2,12,43,593,904.6181161175482,905.1831107120379,"[55, 0, 199]",199,a,0.04174607584718615,colour,0.5
051,72,0,2,12,44,594,905.6962866252288,906.2550556996721,"[56, 0, 198]",198,a,0.0353653805796057,colour,0.5
051,72,0,2,12,45,595,906.7652332650032,907.5110589921824,"[15, 0, 239]",239,a,0.22245235939044505,colour,0.5
051,72,0,2,12,46,596,908.0310019633034,909.4070486576529,"[76, 0, 178]",178,l,0.8519380165380426,colour,0.5
051,72,0,2,12,47,597,909.9225372332148,910.5750191507395,"[92, 0, 162]",162,l,0.12917944201035425,colour,0.5
051,72,0,2,12,48,598,911.0944528793334,911.7830484844162,"[31, 0, 223]",223,a,0.16516040358692408,colour,0.5
051,72,0,2,12,49,599,912.2976469684509,912.8790558729088,"[10, 0, 244]",244,a,0.057891782955266535,colour,0.5
051,72,0,2,12,50,600,913.3915063221939,913.9430554160499,"[51, 0, 203]",203,a,0.028248981398064643,colour,0.5
051,72,0,2,13,1,601,918.8286534610088,919.9510410328512,"[79, 0, 175]",175,l,0.5982316325535066,colour,0.5
051,72,0,2,13,2,602,920.4702203370398,921.0390427184757,"[76, 0, 178]",178,l,0.0455380228231661,colour,0.5
051,72,0,2,13,3,603,921.548459373822,922.6630157164182,"[93, 0, 161]",161,l,0.591623688233085,colour,0.5
051,72,0,2,13,4,604,923.1735158414813,924.2550312812091,"[56, 0, 198]",198,a,0.5704686567769386,colour,0.5
051,72,0,2,13,5,605,924.7586816406692,925.5270262872218,"[69, 0, 185]",185,l,0.24507170944707468,colour,0.5
051,72,0,2,13,6,606,926.0400230006198,926.5671056077699,"[80, 0, 174]",174,l,0.00451110937865451,colour,0.5
051,72,0,2,13,7,607,927.0869134897948,928.6470625998336,"[67, 0, 187]",187,l,1.03665404394269,colour,0.5
051,72,0,2,13,8,608,929.1653230618685,929.9110290599056,"[74, 0, 180]",180,l,0.22237949795089662,colour,0.5
051,72,0,2,13,9,609,930.4311126339599,930.9750490830629,"[16, 0, 238]",238,a,0.020639881258830428,colour,0.5
051,72,0,2,13,10,610,931.4937463200185,932.1750026092632,"[94, 0, 160]",160,l,0.1580144659965299,colour,0.5
051,72,0,2,13,11,611,932.6812614092487,933.2949885095586,"[88, 0, 166]",166,l,0.09035294491332024,colour,0.5
051,72,0,2,13,12,612,933.8063984183245,934.335000482446,"[35, 0, 219]",219,a,0.005207822541706264,colour,0.5
051,72,0,2,13,13,613,934.8439441290684,935.3830406074994,"[5, 0, 249]",249,a,0.0280272462987341,colour,0.5
051,72,0,2,13,14,614,935.8969947599107,936.5430325730122,"[71, 0, 183]",183,l,0.12242183636408299,colour,0.5
051,72,0,2,13,15,615,937.0534035166493,937.703033990867,"[44, 0, 210]",210,a,0.12621575267985463,colour,0.5
051,72,0,2,13,16,616,938.2097626488539,938.7910679719062,"[9, 0, 245]",245,a,0.05613838165299967,colour,0.5
051,72,0,2,13,17,617,939.3055061607156,939.9670429863036,"[34, 0, 220]",220,a,0.13817133475095034,colour,0.5
051,72,0,2,13,18,618,940.477454889915,941.1910356765147,"[37, 0, 217]",217,a,0.19016685272799805,colour,0.5
051,72,0,2,13,19,619,941.7119207267533,942.2710190562066,"[11, 0, 243]",243,a,0.03575095551786944,colour,0.5
051,72,0,2,13,20,620,942.7901451912476,944.3510567866615,"[24, 0, 230]",230,a,1.037479150807485,colour,0.5
051,72,0,2,13,21,621,944.8654012402403,945.9350217501633,"[51, 0, 203]",203,l,0.5462652590940706,colour,0.5
051,72,0,2,13,22,622,946.4436440185527,947.2069848546525,"[97, 0, 157]",157,l,0.24002812057733536,colour,0.5
051,72,0,2,13,23,623,947.7256241962896,949.0309838464018,"[95, 0, 159]",159,l,0.7820969530148432,colour,0.5
051,72,0,2,13,24,624,949.5382441962138,950.1030391108361,"[83, 0, 171]",171,l,0.04133135621668771,colour,0.5
051,72,0,2,13,25,625,950.6165438852622,951.4870288866223,"[64, 0, 190]",190,l,0.3470742182689719,colour,0.5
051,72,0,2,13,26,626,952.0072199805873,952.9910132273217,"[15, 0, 239]",239,a,0.4603446544497274,colour,0.5
051,72,0,2,13,27,627,953.5073178512393,954.4550580627401,"[84, 0, 170]",170,l,0.42463426501490176,colour,0.5
051,72,0,2,13,28,628,954.9765744477045,956.7030091785709,"[20, 0, 234]",234,a,1.20336383668473,colour,0.5
051,72,0,2,13,29,629,957.2112218473922,957.9350154486019,"[38, 0, 216]",216,a,0.2005068794824183,colour,0.5
051,72,0,2,13,30,630,958.4456636596587,959.0630389533471,"[3, 0, 251]",251,a,0.09402673819568008,colour,0.5
051,72,0,2,13,31,631,959.5707612842089,960.1190091628232,"[1, 0, 253]",253,a,0.02493398159276694,colour,0.5
051,72,0,2,13,32,632,960.6333351056674,962.270965887059,"[33, 0, 221]",221,a,1.114283801347483,colour,0.5
051,72,0,2,13,33,633,962.789709991659,963.4790436637122,"[53, 0, 201]",201,l,0.1659142243443057,colour,0.5
051,72,0,2,13,34,634,963.9929470100324,964.7109727399657,"[17, 0, 237]",237,a,0.19489694037474692,colour,0.5
051,72,0,2,13,35,635,965.2273986684158,966.3910502488143,"[23, 0, 231]",231,a,0.6402073203935288,colour,0.5
051,72,0,2,13,36,636,966.8993692559889,967.5189859259408,"[42, 0, 212]",212,a,0.09623266832204536,colour,0.5
051,72,0,2,13,37,637,968.0400663236505,969.2470247906167,"[32, 0, 222]",222,a,0.6835205085226335,colour,0.5
051,72,0,2,13,38,638,969.7590321634198,970.7590266495827,"[10, 0, 244]",244,a,0.4768101644003764,colour,0.5
051,72,0,2,13,39,639,971.2747389294673,971.870961948589,"[61, 0, 193]",193,l,0.0715720157022588,colour,0.5
051,72,0,2,13,40,640,972.3856147833867,973.5350252947537,"[85, 0, 169]",169,l,0.625991063658148,colour,0.5
051,72,0,2,13,41,641,974.0420607585693,974.8070210884907,"[25, 0, 229]",229,a,0.24175670964177698,colour,0.5
051,72,0,2,13,42,642,975.3234359892667,976.118993015145,"[58, 0, 196]",196,l,0.27229393494781107,colour,0.5
051,72,0,2,13,43,643,976.6359726907685,977.4390466569457,"[40, 0, 214]",214,a,0.27971123228780925,colour,0.5
051,72,0,2,13,44,644,977.9487937488593,981.967219429207,"[21, 0, 233]",233,a,3.4955788843799382,colour,0.5
051,72,0,2,13,45,645,982.4801680934033,984.1589494558284,"[92, 0, 162]",162,l,1.1554016931331716,colour,0.5
051,72,0,2,13,46,646,984.6617317792261,985.542961680796,"[81, 0, 173]",173,l,0.3578707122360356,colour,0.5
051,72,0,2,13,47,647,986.0524949144456,986.8713148343959,"[54, 0, 200]",200,l,0.2955367428367026,colour,0.5
051,72,0,2,13,48,648,987.3806672928622,988.038934410899,"[31, 0, 223]",223,a,0.13487839029403403,colour,0.5
051,72,0,2,13,49,649,988.5402831357205,989.7509488729411,"[47, 0, 207]",207,a,0.687255741795525,colour,0.5
051,72,0,2,13,50,650,990.2469645322417,990.9589644219377,"[91, 0, 163]",163,l,0.18859068199526519,colour,0.5
051,72,0,2,14,1,651,996.4536284026108,997.5829421460512,"[58, 0, 196]",196,a,0.6031606122851372,colour,0.5
051,72,0,2,14,2,652,998.097381910251,998.7269550011843,"[95, 0, 159]",159,l,0.10621350776636973,colour,0.5
051,72,0,2,14,3,653,999.2380584978964,1001.2229702665936,"[68, 0, 186]",186,l,1.4614864132599905,colour,0.5
051,72,0,2,14,4,654,1001.7382591623464,1002.3669618541026,"[48, 0, 206]",206,a,0.10539745935238898,colour,0.5
051,72,0,2,14,5,655,1002.878906999249,1003.8229627835681,"[72, 0, 182]",182,l,0.42058356129564345,colour,0.5
051,72,0,2,14,6,656,1004.3322108729044,1006.070964311657,"[43, 0, 211]",211,a,1.215482864761725,colour,0.5
051,72,0,2,14,7,657,1006.5823691004189,1007.3829626259976,"[3, 0, 251]",251,a,0.277161868638359,colour,0.5
051,72,0,2,14,8,658,1007.8949593649595,1008.5829634136753,"[25, 0, 229]",229,a,0.16457042255206034,colour,0.5
051,72,0,2,14,9,659,1009.0982810601708,1009.6389265339822,"[97, 0, 157]",157,l,0.01731739833485335,colour,0.5
051,72,0,2,14,10,660,1010.1451187740313,1010.8309566710377,"[8, 0, 246]",246,a,0.1624621661612764,colour,0.5
051,72,0,2,14,11,661,1011.3484408630757,1011.9029560093768,"[22, 0, 232]",232,a,0.031190221547149122,colour,0.5
051,72,0,2,14,12,662,1012.411004050693,1013.1029351355974,"[80, 0, 174]",174,l,0.1686120678205043,colour,0.5
051,72,0,2,14,13,663,1013.6141737214639,1014.4069596485351,"[54, 0, 200]",200,l,0.26795769308228046,colour,0.5
051,72,0,2,14,14,664,1014.9282940767589,1015.5349331348552,"[46, 0, 208]",208,l,0.08340038557071239,colour,0.5
051,72,0,2,14,15,665,1016.0533692520694,1019.1830362751498,"[45, 0, 209]",209,a,2.6063334337668493,colour,0.5
051,72,0,2,14,16,666,1019.6943390578963,1020.3349209256121,"[37, 0, 217]",217,a,0.11727742297807708,colour,0.5
051,72,0,2,14,17,667,1020.8505883071339,1021.5189303936786,"[7, 0, 247]",247,a,0.14504394336836413,colour,0.5
051,72,0,2,14,18,668,1022.0382172177779,1023.1749726769631,"[2, 0, 252]",252,a,0.6133907560724765,colour,0.5
051,72,0,2,14,19,669,1023.6946261714329,1024.2869528743904,"[24, 0, 230]",230,a,0.06916246726177633,colour,0.5
051,72,0,2,14,20,670,1024.8040613375488,1025.5589533942402,"[52, 0, 202]",202,a,0.23152774741174653,colour,0.5
051,72,0,2,14,21,671,1026.0697993158828,1026.7589533942519,"[90, 0, 164]",164,l,0.16588547360152006,colour,0.5
051,72,0,2,14,22,672,1027.273006008123,1027.9669283771655,"[0, 0, 254]",254,a,0.18298113672062755,colour,0.5
051,72,0,2,14,23,673,1028.4795336078387,1029.1909498181194,"[9, 0, 245]",245,a,0.18813027627766132,colour,0.5
051,72,0,2,14,24,674,1029.6983314724057,1031.1029890924692,"[57, 0, 197]",197,l,0.8812413231353275,colour,0.5
051,72,0,2,14,25,675,1031.6204701336683,1032.3109372938634,"[71, 0, 183]",183,l,0.1671213615918532,colour,0.5
051,72,0,2,14,26,676,1032.8237162104924,1033.414934631437,"[63, 0, 191]",191,l,0.06796753918752074,colour,0.5
051,72,0,2,14,27,677,1033.9341580463806,1034.7029473448056,"[40, 0, 214]",214,a,0.24541986914118752,colour,0.5
051,72,0,2,14,28,678,1035.2156262246426,1036.0869154590182,"[30, 0, 224]",224,a,0.34807261725654826,colour,0.5
051,72,0,2,14,29,679,1036.6062523015426,1037.1349922117079,"[29, 0, 225]",225,a,0.005396474676672369,colour,0.5
051,72,0,2,14,30,680,1037.6531869014725,1038.9510020421003,"[39, 0, 215]",215,a,0.7744283821084537,colour,0.5
051,72,0,2,14,31,681,1039.4658864582307,1040.2069135686033,"[84, 0, 170]",170,l,0.21761278266785666,colour,0.5
051,72,0,2,14,32,682,1040.715993485821,1041.2709119301871,"[65, 0, 189]",189,l,0.031481273646932095,colour,0.5
051,72,0,2,14,33,683,1041.7785936949076,1042.4789152700105,"[12, 0, 242]",242,a,0.17695017653750256,colour,0.5
051,72,0,2,14,34,684,1042.9850779716508,1043.7189252736862,"[93, 0, 161]",161,l,0.21056294348090887,colour,0.5
051,72,0,2,14,35,685,1044.236836788361,1044.8069600423914,"[82, 0, 172]",172,l,0.04668608325300738,colour,0.5
051,72,0,2,14,36,686,1045.302637782006,1045.9749561354402,"[33, 0, 221]",221,a,0.14904738555196673,colour,0.5
051,72,0,2,14,37,687,1046.4902871726663,1047.9989015641622,"[73, 0, 181]",181,l,0.9852555960533209,colour,0.5
051,72,0,2,14,38,688,1048.5060476986691,1049.198926770303,"[42, 0, 212]",212,a,0.16749236430041492,colour,0.5
051,72,0,2,14,39,689,1049.7113795826444,1050.9429195392877,"[61, 0, 193]",193,l,0.7082362995715812,colour,0.5
051,72,0,2,14,40,690,1051.461390314973,1053.4469373568427,"[31, 0, 223]",223,a,1.4621417726157233,colour,0.5
051,72,0,2,14,41,691,1053.961702043889,1055.0068891501287,"[32, 0, 222]",222,a,0.5219129876350053,colour,0.5
051,72,0,2,14,42,692,1055.5117505853414,1056.2789389007376,"[51, 0, 203]",203,a,0.24387323681730777,colour,0.5
051,72,0,2,14,43,693,1056.7930694960523,1057.3588923481875,"[53, 0, 201]",201,a,0.04272557026706636,colour,0.5
051,72,0,2,14,44,694,1057.8712746621459,1058.9669185310486,"[23, 0, 231]",231,a,0.5722610488301143,colour,0.5
051,72,0,2,14,45,695,1059.4807671327726,1060.9989267702913,"[64, 0, 190]",190,a,0.9947496420936659,colour,0.5
051,72,0,2,14,46,696,1061.5144756042282,1062.1108813677565,"[4, 0, 250]",250,a,0.07301506656222045,colour,0.5
051,72,0,2,14,47,697,1062.623935582582,1063.2469026984181,"[88, 0, 166]",166,l,0.09996790153672919,colour,0.5
051,72,0,2,14,48,698,1063.7647153578,1065.1509012175957,"[85, 0, 169]",169,l,0.8613552626920864,colour,0.5
051,72,0,2,14,49,699,1065.6645804656437,1066.23087750806,"[99, 0, 155]",155,l,0.042952425370458513,colour,0.5
051,72,0,2,14,50,700,1066.7427490040427,1067.4788790362072,"[56, 0, 198]",198,a,0.21295240573817864,colour,0.5
051,72,0,2,15,1,701,1072.2287054486806,1073.6308948372607,"[16, 0, 238]",238,a,0.8781263969140127,colour,0.5
051,72,0,2,15,2,702,1074.1515420046635,1075.6548867397942,"[38, 0, 216]",216,a,0.9800501365680248,colour,0.5
051,72,0,2,15,3,703,1076.167285595322,1076.9268655981869,"[0, 0, 254]",254,a,0.23635826574172825,colour,0.5
051,72,0,2,15,4,704,1077.4328876968357,1078.5669059279608,"[61, 0, 193]",193,a,0.6108602969907224,colour,0.5
051,72,0,2,15,5,705,1079.0737515581422,1081.2709521024371,"[60, 0, 194]",194,l,1.6739406040869653,colour,0.5
051,72,0,2,15,6,706,1081.77707345027,1082.5428935454693,"[27, 0, 227]",227,a,0.24255976115819067,colour,0.5
051,72,0,2,15,7,707,1083.058461677807,1083.8068993901252,"[82, 0, 172]",172,l,0.2252459074370563,colour,0.5
051,72,0,2,15,8,708,1084.3120093420148,1085.0470027352567,"[39, 0, 215]",215,a,0.20993751636706293,colour,0.5
051,72,0,2,15,9,709,1085.551418730931,1086.2868544129306,"[15, 0, 239]",239,a,0.2092853077338077,colour,0.5
051,72,0,2,15,10,710,1086.804659589252,1088.046899941517,"[31, 0, 223]",223,a,0.7188917967723683,colour,0.5
051,72,0,2,15,11,711,1088.5548703952227,1089.294861297356,"[93, 0, 161]",161,l,0.21703501092270017,colour,0.5
051,72,0,2,15,12,712,1089.804913225933,1091.4149925267557,"[66, 0, 188]",188,l,1.086703963810578,colour,0.5
051,72,0,2,15,13,713,1091.9241744500468,1092.454888709064,"[29, 0, 225]",225,a,0.007301900535821915,colour,0.5
051,72,0,2,15,14,714,1092.9613849980524,1093.5828881891794,"[19, 0, 235]",235,a,0.09813258034409955,colour,0.5
051,72,0,2,15,15,715,1094.1021903732326,1095.6788916392252,"[20, 0, 234]",234,a,1.0534232088830322,colour,0.5
051,72,0,2,15,16,716,1096.196017037786,1096.790898618172,"[87, 0, 167]",167,l,0.07155389874242246,colour,0.5
051,72,0,2,15,17,717,1097.3055656314245,1098.006870639394,"[47, 0, 207]",207,a,0.17797102476470172,colour,0.5
051,72,0,2,15,18,718,1098.524385157507,1099.1269104965613,"[17, 0, 237]",237,a,0.07917835895204917,colour,0.5
051,72,0,2,15,19,719,1099.63382150518,1100.2868378714193,"[88, 0, 166]",166,l,0.12960203853435814,colour,0.5
051,72,0,2,15,20,720,1100.8063428860623,1101.566881903389,"[52, 0, 202]",202,a,0.23717785876942798,colour,0.5
051,72,0,2,15,21,721,1102.0876330460305,1102.7668665433885,"[67, 0, 187]",187,a,0.15581089886836708,colour,0.5
051,72,0,2,15,22,722,1103.2753037043149,1104.7108628569986,"[65, 0, 189]",189,a,0.9109085430973209,colour,0.5
051,72,0,2,15,23,723,1105.2300665796502,1105.9988669057493,"[37, 0, 217]",217,a,0.24547658290248364,colour,0.5
051,72,0,2,15,24,724,1106.5114138472127,1107.615145732765,"[55, 0, 199]",199,a,0.5803916008444503,colour,0.5
051,72,0,2,15,25,725,1108.117878037796,1108.822874168225,"[12, 0, 242]",242,a,0.181598344235681,colour,0.5
051,72,0,2,15,26,726,1109.3368488006527,1110.0948731127428,"[89, 0, 165]",165,l,0.23473443964030594,colour,0.5
051,72,0,2,15,27,727,1110.6024863483035,1111.1509071252658,"[79, 0, 175]",175,l,0.025667716283351183,colour,0.5
051,72,0,2,15,28,728,1111.6651326374267,1112.3588250005268,"[28, 0, 226]",226,a,0.17034223227528855,colour,0.5
051,72,0,2,15,29,729,1112.8683117604232,1114.2228190298192,"[64, 0, 190]",190,l,0.831139809335582,colour,0.5
051,72,0,2,15,30,730,1114.743422086467,1115.3588635974447,"[72, 0, 182]",182,l,0.0922741245594807,colour,0.5
051,72,0,2,15,31,731,1115.8560978155583,1116.3988377611386,"[70, 0, 184]",184,l,0.019533962302375585,colour,0.5
051,72,0,2,15,32,732,1116.9186720308498,1117.5348555472447,"[10, 0, 244]",244,a,0.09281211788766086,colour,0.5
051,72,0,2,15,33,733,1118.0436424431973,1118.6228540821467,"[18, 0, 236]",236,a,0.05589852959383279,colour,0.5
051,72,0,2,15,34,734,1119.1376022276236,1119.9508232361404,"[62, 0, 192]",192,l,0.2898551238467917,colour,0.5
051,72,0,2,15,35,735,1120.465843922866,1121.0388375248294,"[22, 0, 232]",232,a,0.049650954199023545,colour,0.5
051,72,0,2,15,36,736,1121.559613479767,1122.582836595364,"[4, 0, 250]",250,a,0.4978289252030663,colour,0.5
051,72,0,2,15,37,737,1123.0930511822226,1123.982840927667,"[36, 0, 218]",218,a,0.3666487466543913,colour,0.5
051,72,0,2,15,38,738,1124.4993692560238,1125.2068135317531,"[9, 0, 245]",245,a,0.18398032343247905,colour,0.5
051,72,0,2,15,39,739,1125.7117088377126,1126.4788609193056,"[69, 0, 185]",185,l,0.24379879998741671,colour,0.5
051,72,0,2,15,40,740,1126.9930588622228,1127.7107943278388,"[6, 0, 248]",248,a,0.19460194994462654,colour,0.5
051,72,0,2,15,41,741,1128.2275558128604,1129.054835146002,"[75, 0, 179]",179,l,0.3039599222247489,colour,0.5
051,72,0,2,15,42,742,1129.5625661414815,1130.9028347049025,"[56, 0, 198]",198,a,0.8154781386256218,colour,0.5
051,72,0,2,15,43,743,1131.423481478414,1132.1268502381863,"[63, 0, 191]",191,a,0.17990638286573812,colour,0.5
051,72,0,2,15,44,744,1132.6424522412708,1134.438804441772,"[42, 0, 212]",212,a,1.2787683655042201,colour,0.5
051,72,0,2,15,45,745,1134.9493270160747,1136.454878469056,"[85, 0, 169]",169,l,0.982188719091937,colour,0.5
051,72,0,2,15,46,746,1136.965642076917,1137.6708497025538,"[45, 0, 209]",209,a,0.18028683785814792,colour,0.5
051,72,0,2,15,47,747,1138.186151201313,1138.7348732702667,"[57, 0, 197]",197,a,0.025379421131219715,colour,0.5
051,72,0,2,15,48,748,1139.2486738228472,1139.8868386591203,"[48, 0, 206]",206,a,0.1270920594688505,colour,0.5
051,72,0,2,15,49,749,1140.4083392902394,1141.1428494347492,"[73, 0, 181]",181,l,0.2117826837929897,colour,0.5
051,72,0,2,15,50,750,1141.6584018132999,1142.2468290492543,"[83, 0, 171]",171,l,0.07737296994309872,colour,0.5
051,72,0,2,16,1,751,1147.3175735950354,1149.358875018952,"[29, 0, 225]",225,a,1.5180241545313038,colour,0.5
051,72,0,2,16,2,752,1149.866051085759,1150.9748935139505,"[92, 0, 162]",162,l,0.5839555111597292,colour,0.5
051,72,0,2,16,3,753,1151.4926919948775,1152.262791224348,"[99, 0, 155]",155,l,0.24687512923264876,colour,0.5
051,72,0,2,16,4,754,1152.7741172439419,1153.3988188565709,"[98, 0, 156]",156,l,0.10131249105324969,colour,0.5
051,72,0,2,16,5,755,1153.914947431418,1154.5348086796002,"[1, 0, 253]",253,a,0.09663202794035897,colour,0.5
051,72,0,2,16,6,756,1155.0555424930062,1155.7268273951486,"[94, 0, 160]",160,l,0.14793792204000056,colour,0.5
051,72,0,2,16,7,757,1156.2431627390324,1156.9428439209005,"[56, 0, 198]",198,a,0.17655751231359318,colour,0.5
051,72,0,2,16,8,758,1157.4626124183415,1158.0068158948561,"[47, 0, 207]",207,a,0.020797025703359395,colour,0.5
051,72,0,2,16,9,759,1158.525250830513,1159.182798392314,"[7, 0, 247]",247,a,0.13433527696179226,colour,0.5
051,72,0,2,16,10,760,1159.6972302796785,1160.2468262923649,"[2, 0, 252]",252,a,0.02628369105514139,colour,0.5
051,72,0,2,16,11,761,1160.7598911410314,1161.3667869865312,"[97, 0, 157]",157,l,0.08368316682754084,colour,0.5
051,72,0,2,16,12,762,1161.8849403225468,1162.470799684117,"[6, 0, 248]",248,a,0.062463150767143816,colour,0.5
051,72,0,2,16,13,763,1162.978781165497,1163.5028563664528,"[13, 0, 241]",241,a,0.0007951746229082346,colour,0.5
051,72,0,2,16,14,764,1164.0258201345569,1164.6388371309731,"[82, 0, 172]",172,l,0.09019107423955575,colour,0.5
051,72,0,2,16,15,765,1165.1508358391584,1165.7347614180762,"[40, 0, 214]",214,a,0.06057505420176312,colour,0.5
051,72,0,2,16,16,766,1166.232350097387,1166.8787841193844,"[80, 0, 174]",174,l,0.12309531267965212,colour,0.5
051,72,0,2,16,17,767,1167.3886347927619,1167.942930960795,"[76, 0, 178]",178,l,0.03126032609725371,colour,0.5
051,72,0,2,16,18,768,1168.4511928603752,1169.1027968957205,"[16, 0, 238]",238,a,0.13340777019038796,colour,0.5
051,72,0,2,16,19,769,1169.6199230819475,1170.2227902790764,"[33, 0, 221]",221,a,0.07944814331131056,colour,0.5
051,72,0,2,16,20,770,1170.7293228019262,1171.3747863878962,"[96, 0, 158]",158,l,0.1219523721956648,colour,0.5
051,72,0,2,16,21,771,1171.8857516447897,1172.5347889873083,"[50, 0, 204]",204,a,0.12575259007280692,colour,0.5
051,72,0,2,16,22,772,1173.0420422478346,1173.6627998889307,"[22, 0, 232]",232,a,0.09747919015353546,colour,0.5
051,72,0,2,16,23,773,1174.1827227739268,1174.8787719101529,"[52, 0, 202]",202,a,0.1725717931985855,colour,0.5
051,72,0,2,16,24,774,1175.3860350168543,1176.7507657346432,"[41, 0, 213]",213,a,0.8417661619605497,colour,0.5
051,72,0,2,16,25,775,1177.2610988690867,1178.8387485157,"[27, 0, 227]",227,a,1.0542514665867202,colour,0.5
051,72,0,2,16,26,776,1179.3554391085054,1179.950841353042,"[78, 0, 176]",176,l,0.07206904905615374,colour,0.5
051,72,0,2,16,27,777,1180.4649124776479,1181.1907863721717,"[49, 0, 205]",205,a,0.20092790061607957,colour,0.5
051,72,0,2,16,28,778,1181.700835543801,1182.798754265823,"[75, 0, 179]",179,a,0.5746335757430643,colour,0.5
051,72,0,2,16,29,779,1183.312238954124,1184.582751918526,"[19, 0, 235]",235,a,0.7471785873640329,colour,0.5
051,72,0,2,16,30,780,1185.093555698637,1185.9188307506847,"[14, 0, 240]",240,a,0.31106135522713885,colour,0.5
051,72,0,2,16,31,781,1186.4283494121046,1187.2068001410225,"[64, 0, 190]",190,l,0.2551872441545129,colour,0.5
051,72,0,2,16,32,782,1187.7260645158822,1188.4627632612828,"[31, 0, 223]",223,a,0.21355814050184563,colour,0.5
051,72,0,2,16,33,783,1188.9776197143365,1189.678775454755,"[55, 0, 199]",199,a,0.1780423108721152,colour,0.5
051,72,0,2,16,34,784,1190.1961639422225,1190.742764364055,"[21, 0, 233]",233,a,0.023223509429953992,colour,0.5
051,72,0,2,16,35,785,1191.258801172895,1191.9908119721222,"[57, 0, 197]",197,a,0.20873904367908835,colour,0.5
051,72,0,2,16,36,786,1192.5095761629054,1193.094784497458,"[61, 0, 193]",193,a,0.05972552887396887,colour,0.5
051,72,0,2,16,37,787,1193.5930537422537,1194.1987759273616,"[37, 0, 217]",217,a,0.08255637408001348,colour,0.5
051,72,0,2,16,38,788,1194.7181639698101,1195.3748497970519,"[87, 0, 167]",167,l,0.13346999778877944,colour,0.5
051,72,0,2,16,39,789,1195.890081978985,1196.8067528795218,"[59, 0, 195]",195,a,0.3932447574334219,colour,0.5
051,72,0,2,16,40,790,1197.327750569617,1198.0387548172148,"[12, 0, 242]",242,a,0.18765647982945666,colour,0.5
051,72,0,2,16,41,791,1198.5465799418162,1199.246826686198,"[83, 0, 171]",171,l,0.17713567789178342,colour,0.5
051,72,0,2,16,42,792,1199.7654321571463,1201.6467483108863,"[70, 0, 184]",184,l,1.3580467613064684,colour,0.5
051,72,0,2,16,43,793,1202.156281150761,1202.7107892078348,"[5, 0, 249]",249,a,0.031246147700585425,colour,0.5
051,72,0,2,16,44,794,1203.2095263414085,1203.9027386065573,"[15, 0, 239]",239,a,0.1701397955766879,colour,0.5
051,72,0,2,16,45,795,1204.4127271259204,1205.0627829535515,"[74, 0, 180]",180,l,0.12673326599178836,colour,0.5
051,72,0,2,16,46,796,1205.5690744427848,1206.1907205999014,"[54, 0, 200]",200,a,0.09881196421338245,colour,0.5
051,72,0,2,16,47,797,1206.709794353461,1207.4467833631788,"[62, 0, 192]",192,a,0.2139421401079744,colour,0.5
051,72,0,2,16,48,798,1207.9599041379406,1208.6068001409876,"[39, 0, 215]",215,a,0.12384165037656203,colour,0.5
051,72,0,2,16,49,799,1209.1162116763298,1209.646790846251,"[46, 0, 208]",208,a,0.007238491321913898,colour,0.5
051,72,0,2,16,50,800,1210.1631588793825,1210.7027614496183,"[32, 0, 222]",222,a,0.016229596338234842,colour,0.5
