id,age,condition,counterbalance,block,trialinblock,trial,tstart,tend,trialstim,trialintensity,response,RT,trialtype,colourfreq
167,28,1,2,Practice,1,NA,6.301328539848328e-06,1.2119849771261215,"[96, 0, 158]",158,l,0.6925246408209205,colour,0.5
167,28,1,2,Practice,2,NA,1.7217121911235154,2.315924148540944,"[92, 0, 162]",162,l,0.07663341844454408,colour,0.5
167,28,1,2,Practice,3,NA,2.825595436617732,3.3563497071154416,"[70, 0, 184]",184,a,0.01469203969463706,colour,0.5
167,28,1,2,Practice,4,NA,3.864275075029582,7.627957883756608,"[31, 0, 223]",223,a,3.2461857963353395,colour,0.5
167,28,1,2,Practice,5,NA,8.137383805587888,8.74794707633555,"[60, 0, 194]",194,a,0.09353966126218438,colour,0.5
167,28,1,2,Practice,6,NA,9.257159139961004,11.027976079378277,"[10, 0, 244]",244,a,1.255172185599804,colour,0.5
167,28,1,2,Practice,7,NA,11.536965225823224,12.683928159065545,"[0, 0, 254]",254,a,0.6309278779663146,colour,0.5
167,28,1,2,Practice,8,NA,13.19292124407366,14.315935569815338,"[13, 0, 241]",241,a,0.6070978180505335,colour,0.5
167,28,1,2,Practice,9,NA,14.824528900906444,16.13195069693029,"[33, 0, 221]",221,a,0.7903371402062476,colour,0.5
167,28,1,2,Practice,10,NA,16.64033962134272,17.891941984649748,"[51, 0, 203]",203,a,0.7344936830922961,colour,0.5
167,28,1,2,1,1,1,4.187975717242807,4.807982632890344,"[50, 0, 204]",204,a,0.10243979841470718,colour,0.5
167,28,1,2,1,2,2,5.317161219660193,6.2960081323981285,"[5, 0, 249]",249,a,0.4610442756675184,colour,0.5
167,28,1,2,1,3,3,6.804226127453148,7.807985390070826,"[17, 0, 237]",237,a,0.4869613270275295,colour,0.5
167,28,1,2,1,4,4,8.317136800847948,9.311965993605554,"[8, 0, 246]",246,a,0.4783778418786824,colour,0.5
167,28,1,2,1,5,5,9.821231620386243,10.840001937933266,"[66, 0, 188]",188,l,0.5019621420651674,colour,0.5
167,28,1,2,1,6,6,11.349550345912576,12.440006191376597,"[56, 0, 198]",198,l,0.5741640022024512,colour,0.5
167,28,1,2,1,7,7,12.948870094493032,14.016010636929423,"[63, 0, 191]",191,l,0.5505619789473712,colour,0.5
167,28,1,2,1,8,8,14.525616546627134,15.567995976656675,"[6, 0, 248]",248,a,0.5261502084322274,colour,0.5
167,28,1,2,1,9,9,16.076393959578127,17.1040045497939,"[19, 0, 235]",235,a,0.5115042482502759,colour,0.5
167,28,1,2,1,10,10,17.613055530004203,18.6160160722211,"[59, 0, 195]",195,l,0.4865789022296667,colour,0.5
167,28,1,2,1,11,11,19.124850437045097,20.16800180543214,"[91, 0, 163]",163,l,0.5267661837860942,colour,0.5
167,28,1,2,1,12,12,20.67638127785176,21.74399207253009,"[79, 0, 175]",175,l,0.5506301145069301,colour,0.5
167,28,1,2,1,13,13,22.253088739234954,23.271986268926412,"[43, 0, 211]",211,a,0.5022193235345185,colour,0.5
167,28,1,2,1,14,14,23.782039981801063,24.84002911299467,"[45, 0, 209]",209,a,0.5418162294663489,colour,0.5
167,28,1,2,1,15,15,25.349636598024517,26.311981747858226,"[73, 0, 181]",181,l,0.4460328263230622,colour,0.5
167,28,1,2,1,16,16,26.82063966942951,27.887984224129468,"[65, 0, 189]",189,l,0.550968034658581,colour,0.5
167,28,1,2,1,17,17,28.39710688451305,29.50429883180186,"[95, 0, 159]",159,l,0.5911647686734796,colour,0.5
167,28,1,2,1,18,18,30.013749171979725,31.04798976937309,"[16, 0, 238]",238,a,0.5179247297346592,colour,0.5
167,28,1,2,1,19,19,31.556913931388408,32.712077531032264,"[80, 0, 174]",174,l,0.6382900457829237,colour,0.5
167,28,1,2,1,20,20,33.2211828622967,34.368103260174394,"[53, 0, 201]",201,a,0.6307660071179271,colour,0.5
167,28,1,2,1,21,21,34.87641814164817,35.951976359821856,"[39, 0, 215]",215,a,0.5585755682550371,colour,0.5
167,28,1,2,1,22,22,36.46149719879031,37.50397430220619,"[0, 0, 254]",254,a,0.5264077833853662,colour,0.5
167,28,1,2,1,23,23,38.013729479629546,39.04798031738028,"[32, 0, 222]",222,a,0.5174891357310116,colour,0.5
167,28,1,2,1,24,24,39.5571604790166,40.58399204118177,"[22, 0, 232]",232,a,0.5105735897086561,colour,0.5
167,28,1,2,1,25,25,41.093043809290975,42.143999634776264,"[76, 0, 178]",178,l,0.5349581856280565,colour,0.5
167,28,1,2,1,26,26,42.65297499625012,43.831957628484815,"[99, 0, 155]",155,l,0.6619499642401934,colour,0.5
167,28,1,2,1,27,27,44.34101924253628,45.30398430628702,"[27, 0, 227]",227,a,0.4463782296516001,colour,0.5
167,28,1,2,1,28,28,45.81304080039263,46.81596983456984,"[24, 0, 230]",230,a,0.48621223121881485,colour,0.5
167,28,1,2,1,29,29,47.324976310133934,48.40002016490325,"[54, 0, 200]",200,l,0.5578658576123416,colour,0.5
167,28,1,2,1,30,30,48.90912116365507,49.95199762750417,"[51, 0, 203]",203,l,0.526251032948494,colour,0.5
167,28,1,2,1,31,31,50.460729198530316,51.56004303973168,"[69, 0, 185]",185,l,0.5832898137159646,colour,0.5
167,28,1,2,1,32,32,52.069030216895044,53.096035859081894,"[23, 0, 231]",231,a,0.5087855281308293,colour,0.5
167,28,1,2,1,33,33,53.60500964522362,54.57600287022069,"[36, 0, 218]",218,a,0.45403578132390976,colour,0.5
167,28,1,2,1,34,34,55.08512986311689,56.16797423642129,"[34, 0, 220]",220,a,0.5653123082593083,colour,0.5
167,28,1,2,1,35,35,56.676402545534074,57.696007817052305,"[75, 0, 179]",179,l,0.5034016496501863,colour,0.5
167,28,1,2,1,36,36,58.20602529589087,59.24799473211169,"[86, 0, 168]",168,l,0.5247236974537373,colour,0.5
167,28,1,2,1,37,37,59.75746358325705,60.880108481273055,"[88, 0, 166]",166,l,0.6062679840251803,colour,0.5
167,28,1,2,1,38,38,61.3895607907325,62.4159996882081,"[11, 0, 243]",243,a,0.5101057006977499,colour,0.5
167,28,1,2,1,39,39,62.92505106236786,64.07997953565791,"[38, 0, 216]",216,a,0.638145110104233,colour,0.5
167,28,1,2,1,40,40,64.58903681766242,65.64800308132544,"[21, 0, 233]",233,a,0.5426094359718263,colour,0.5
167,28,1,2,1,41,41,66.15710447402671,67.17613433627412,"[57, 0, 197]",197,l,0.5019794711843133,colour,0.5
167,28,1,2,1,42,42,67.6849186825566,68.67198949865997,"[41, 0, 213]",213,a,0.4697167696431279,colour,0.5
167,28,1,2,1,43,43,69.1813118387945,70.5041338102892,"[9, 0, 245]",245,a,0.8058499558828771,colour,0.5
167,28,1,2,1,44,44,71.01320566423237,72.05599114950746,"[2, 0, 252]",252,a,0.5252731125801802,colour,0.5
167,28,1,2,1,45,45,72.56510593276471,73.57599026709795,"[33, 0, 221]",221,a,0.494614546187222,colour,0.5
167,28,1,2,1,46,46,74.0850703921169,75.00012012338266,"[64, 0, 190]",190,l,0.3988516232930124,colour,0.5
167,28,1,2,1,47,47,75.5092404205352,76.44003297295421,"[72, 0, 182]",182,l,0.41401273384690285,colour,0.5
167,28,1,2,1,48,48,76.9495668085292,78.00800256151706,"[62, 0, 192]",192,l,0.5422699404880404,colour,0.5
167,28,1,2,1,49,49,78.51767109287903,79.53607749659568,"[4, 0, 250]",250,a,0.5014336006715894,colour,0.5
167,28,1,2,1,50,50,80.04519346123561,80.95200235350057,"[81, 0, 173]",173,l,0.39047175692394376,colour,0.5
167,28,1,2,2,1,51,85.5162422186695,86.92802735837176,"[47, 0, 207]",207,a,0.8944937149062753,colour,0.5
167,28,1,2,2,2,52,87.437126387842,88.03204096620902,"[46, 0, 208]",208,a,0.07795043988153338,colour,0.5
167,28,1,2,2,3,53,88.54103523259982,89.3600246864371,"[26, 0, 228]",228,a,0.30309224454686046,colour,0.5
167,28,1,2,2,4,54,89.86901580216363,90.86403285944834,"[33, 0, 221]",221,a,0.47673786617815495,colour,0.5
167,28,1,2,2,5,55,91.37189048575237,92.29615700617433,"[50, 0, 204]",204,a,0.40733625274151564,colour,0.5
167,28,1,2,2,6,56,92.80515127256513,93.74399916175753,"[3, 0, 251]",251,a,0.42161514749750495,colour,0.5
167,28,1,2,2,7,57,94.25303557002917,95.1680116513744,"[93, 0, 161]",161,l,0.3974601640366018,colour,0.5
167,28,1,2,2,8,58,95.67736037960276,96.49605247937143,"[21, 0, 233]",233,a,0.30179885355755687,colour,0.5
167,28,1,2,2,9,59,97.00514126894996,97.92800884740427,"[9, 0, 245]",245,a,0.4059369168244302,colour,0.5
167,28,1,2,2,10,60,98.43716813530773,99.4559963485226,"[43, 0, 211]",211,a,0.5018479265272617,colour,0.5
167,28,1,2,2,11,61,99.96510010398924,100.94530539214611,"[54, 0, 200]",200,l,0.46393195586279035,colour,0.5
167,28,1,2,2,12,62,101.45441426802427,102.70403243415058,"[49, 0, 205]",205,l,0.7327190120704472,colour,0.5
167,28,1,2,2,13,63,103.21363479923457,104.24004612723365,"[22, 0, 232]",232,a,0.5101702911779284,colour,0.5
167,28,1,2,2,14,64,104.749303876888,105.59201862756163,"[92, 0, 162]",162,l,0.3251200639642775,colour,0.5
167,28,1,2,2,15,65,106.10107748443261,107.22399334888905,"[61, 0, 193]",193,l,0.6058875285089016,colour,0.5
167,28,1,2,2,16,66,107.73314397223294,108.68806078797206,"[12, 0, 242]",242,a,0.43811533553525805,colour,0.5
167,28,1,2,2,17,67,109.19786322675645,110.06413785880432,"[72, 0, 182]",182,l,0.34953104704618454,colour,0.5
167,28,1,2,2,18,68,110.57323413155973,111.44797685137019,"[40, 0, 214]",214,a,0.35674434108659625,colour,0.5
167,28,1,2,2,19,69,111.95702271163464,112.90405748272315,"[95, 0, 159]",159,l,0.43061689706519246,colour,0.5
167,28,1,2,2,20,70,113.41314390907064,114.30404141359031,"[74, 0, 180]",180,l,0.3729148795828223,colour,0.5
167,28,1,2,2,21,71,114.81314910808578,115.82405983004719,"[30, 0, 224]",224,a,0.4931892170570791,colour,0.5
167,28,1,2,2,22,72,116.33316319203004,117.32800577534363,"[84, 0, 170]",170,l,0.4782360573299229,colour,0.5
167,28,1,2,2,23,73,117.83625567238778,118.78404938522726,"[79, 0, 175]",175,l,0.43136402359232306,colour,0.5
167,28,1,2,2,24,74,119.29308461165056,120.28797248750925,"[99, 0, 155]",155,l,0.47861414961516857,colour,0.5
167,28,1,2,2,25,75,120.79704394796863,121.76002161437646,"[24, 0, 230]",230,a,0.4458260568790138,colour,0.5
167,28,1,2,2,26,76,122.26901824399829,123.23203332582489,"[36, 0, 218]",218,a,0.4433353734202683,colour,0.5
167,28,1,2,2,27,77,123.74111423827708,125.1200238512829,"[65, 0, 189]",189,l,0.8627272588200867,colour,0.5
167,28,1,2,2,28,78,125.62890587141737,126.5760379228741,"[38, 0, 216]",216,a,0.4293219307437539,colour,0.5
167,28,1,2,2,29,79,127.0853984663263,128.12801499152556,"[39, 0, 215]",215,a,0.5245874263346195,colour,0.5
167,28,1,2,2,30,80,128.63801711052656,130.04815164022148,"[1, 0, 253]",253,a,0.893057357519865,colour,0.5
167,28,1,2,2,31,81,130.55747201154009,131.5280351564288,"[63, 0, 191]",191,l,0.45423112949356437,colour,0.5
167,28,1,2,2,32,82,132.03714245650917,133.05606952495873,"[86, 0, 168]",168,l,0.5024347575381398,colour,0.5
167,28,1,2,2,33,83,133.56520715123042,134.6000129180029,"[11, 0, 243]",243,a,0.5177321387454867,colour,0.5
167,28,1,2,2,34,84,135.10913203377277,136.11201577587053,"[85, 0, 169]",169,l,0.48662576964125037,colour,0.5
167,28,1,2,2,35,85,136.62116718711331,137.59202886745334,"[45, 0, 209]",209,a,0.45373173244297504,colour,0.5
167,28,1,2,2,36,86,138.10111962631345,139.50406370544806,"[94, 0, 160]",160,l,0.8867243099957705,colour,0.5
167,28,1,2,2,37,87,140.01340061798692,141.91206713346764,"[82, 0, 172]",172,l,1.3814637060277164,colour,0.5
167,28,1,2,2,38,88,142.42117482749745,143.56001901486889,"[59, 0, 195]",195,l,0.6213601715862751,colour,0.5
167,28,1,2,2,39,89,144.06937995227054,145.15999766858295,"[55, 0, 199]",199,l,0.5713747832924128,colour,0.5
167,28,1,2,2,40,90,145.66978711029515,146.69607319543138,"[58, 0, 196]",196,l,0.510006844997406,colour,0.5
167,28,1,2,2,41,91,147.20598906232044,148.11201813910156,"[15, 0, 239]",239,a,0.38895269203931093,colour,0.5
167,28,1,2,2,42,92,148.6210959008895,149.7200028989464,"[19, 0, 235]",235,a,0.581086243968457,colour,0.5
167,28,1,2,2,43,93,150.228591109626,151.2960057691671,"[77, 0, 177]",177,l,0.551300834864378,colour,0.5
167,28,1,2,2,44,94,151.80509731546044,152.7760570636019,"[10, 0, 244]",244,l,0.4542457018978894,colour,0.5
167,28,1,2,2,45,95,153.28519784100354,154.28803117061034,"[14, 0, 240]",240,a,0.48666791105642915,colour,0.5
167,28,1,2,2,46,96,154.79715383099392,155.70403440343216,"[60, 0, 194]",194,l,0.39025592943653464,colour,0.5
167,28,1,2,2,47,97,156.21318030031398,157.1200711131096,"[97, 0, 157]",157,l,0.3908061324618757,colour,0.5
167,28,1,2,2,48,98,157.62912996998057,158.51205366384238,"[90, 0, 164]",164,l,0.3658733027987182,colour,0.5
167,28,1,2,2,49,99,159.0218974566087,159.88800391647965,"[76, 0, 178]",178,l,0.34889222867786884,colour,0.5
167,28,1,2,2,50,100,160.3971194876358,160.95204803999513,"[23, 0, 231]",231,l,0.03825192153453827,colour,0.5
167,28,1,2,3,1,101,165.93225805461407,166.74416694045067,"[84, 0, 170]",170,l,0.2935493499971926,colour,0.5
167,28,1,2,3,2,102,167.25320649892092,168.72809289442375,"[37, 0, 217]",217,a,0.958465370349586,colour,0.5
167,28,1,2,3,3,103,169.23719231737778,170.14404413895682,"[60, 0, 194]",194,a,0.39057848881930113,colour,0.5
167,28,1,2,3,4,104,170.653177827131,171.6000779028982,"[63, 0, 191]",191,a,0.43051410326734185,colour,0.5
167,28,1,2,3,5,105,172.1093325014226,173.00000275718048,"[5, 0, 249]",249,a,0.3740105601027608,colour,0.5
167,28,1,2,3,6,106,173.50879576802254,174.4720948128961,"[35, 0, 219]",219,a,0.44672284461557865,colour,0.5
167,28,1,2,3,7,107,174.9812080208212,175.96001397352666,"[52, 0, 202]",202,a,0.4625558569096029,colour,0.5
167,28,1,2,3,8,108,176.46904447395355,177.48002175614238,"[31, 0, 223]",223,a,0.49261065712198615,colour,0.5
167,28,1,2,3,9,109,177.9892027056776,178.9600049154833,"[22, 0, 232]",232,a,0.45412045903503895,colour,0.5
167,28,1,2,3,10,110,179.46897161239758,180.26405341830105,"[79, 0, 175]",175,l,0.27582114981487393,colour,0.5
167,28,1,2,3,11,111,180.7731217276305,181.60804344294593,"[9, 0, 245]",245,a,0.3180469796061516,colour,0.5
167,28,1,2,3,12,112,182.11757491528988,183.13606757158414,"[4, 0, 250]",250,a,0.5022327145561576,colour,0.5
167,28,1,2,3,13,113,183.6453737639822,184.54400050081313,"[68, 0, 186]",186,l,0.3813821794465184,colour,0.5
167,28,1,2,3,14,114,185.05266157351434,185.92001219373196,"[95, 0, 159]",159,l,0.34949757065624,colour,0.5
167,28,1,2,3,15,115,186.42891469364986,187.2560870903544,"[54, 0, 200]",200,a,0.3105008858256042,colour,0.5
167,28,1,2,3,16,116,187.7650821446441,188.63200268428773,"[27, 0, 227]",227,a,0.3502005855552852,colour,0.5
167,28,1,2,3,17,117,189.14017775096,190.05601635575294,"[49, 0, 205]",205,a,0.3985924725420773,colour,0.5
167,28,1,2,3,18,118,190.56503582838923,191.44809146039188,"[87, 0, 167]",167,l,0.3658859054557979,colour,0.5
167,28,1,2,3,19,119,191.9574898132123,192.8960462566465,"[25, 0, 229]",229,a,0.4217002186924219,colour,0.5
167,28,1,2,3,20,120,193.4050751812756,194.57609187951311,"[51, 0, 203]",203,a,0.6542711439542472,colour,0.5
167,28,1,2,3,21,121,195.08518145699054,196.15199116850272,"[55, 0, 199]",199,a,0.5481382496654987,colour,0.5
167,28,1,2,3,22,122,196.66200313344598,197.81609744066373,"[75, 0, 179]",179,l,0.6374448514543474,colour,0.5
167,28,1,2,3,23,123,198.32513266708702,199.79202674049884,"[33, 0, 221]",221,a,0.9497192269191146,colour,0.5
167,28,1,2,3,24,124,200.30192842893302,201.68014132790267,"[61, 0, 193]",193,a,0.859448489267379,colour,0.5
167,28,1,2,3,25,125,202.1893939571455,203.3600483168848,"[28, 0, 226]",226,a,0.6536197224631906,colour,0.5
167,28,1,2,3,26,126,203.86907172808424,204.73599660024047,"[19, 0, 235]",235,a,0.3487264192663133,colour,0.5
167,28,1,2,3,27,127,205.24537407932803,206.15205063903704,"[92, 0, 162]",162,l,0.39008854422718287,colour,0.5
167,28,1,2,3,28,128,206.66049745958298,207.63206373061985,"[67, 0, 187]",187,a,0.4548664032481611,colour,0.5
167,28,1,2,3,29,129,208.14013482164592,208.79203658690676,"[41, 0, 213]",213,a,0.1354074850678444,colour,0.5
167,28,1,2,3,30,130,209.30059368396178,210.44801978068426,"[66, 0, 188]",188,l,0.6303910659626126,colour,0.5
167,28,1,2,3,31,131,210.95694315480068,211.7200300740078,"[11, 0, 243]",243,a,0.2468285532668233,colour,0.5
167,28,1,2,3,32,132,212.2288671960123,213.0799980466254,"[24, 0, 230]",230,a,0.334456583019346,colour,0.5
167,28,1,2,3,33,133,213.5890624173917,214.42413773294538,"[26, 0, 228]",228,a,0.3180694291368127,colour,0.5
167,28,1,2,3,34,134,214.93322888528928,215.56806450570002,"[44, 0, 210]",210,a,0.11820467561483383,colour,0.5
167,28,1,2,3,35,135,216.07666256278753,217.12803862197325,"[40, 0, 214]",214,a,0.5353784188628197,colour,0.5
167,28,1,2,3,36,136,217.6370860580355,218.40806250507012,"[10, 0, 244]",244,a,0.254604653455317,colour,0.5
167,28,1,2,3,37,137,218.91688820533454,219.744024368003,"[53, 0, 201]",201,a,0.3108604671433568,colour,0.5
167,28,1,2,3,38,138,220.25313009275123,220.9120777673088,"[73, 0, 181]",181,l,0.1413628337904811,colour,0.5
167,28,1,2,3,39,139,221.4210728215985,222.0241494695656,"[34, 0, 220]",220,a,0.08621569722890854,colour,0.5
167,28,1,2,3,40,140,222.5332851265557,223.27204219531268,"[38, 0, 216]",216,a,0.22101587150245905,colour,0.5
167,28,1,2,3,41,141,223.78111168602481,224.5920552550815,"[46, 0, 208]",208,a,0.2946564517915249,colour,0.5
167,28,1,2,3,42,142,225.1011759461835,225.88803069805726,"[74, 0, 180]",180,l,0.2699725329875946,colour,0.5
167,28,1,2,3,43,143,226.39762085396796,227.1680057439953,"[94, 0, 160]",160,l,0.2538260193541646,colour,0.5
167,28,1,2,3,44,144,227.67673416389152,228.44806546671316,"[13, 0, 241]",241,a,0.2551394961774349,colour,0.5
167,28,1,2,3,45,145,228.95773557340726,229.72800782322884,"[42, 0, 212]",212,a,0.2539236927405,colour,0.5
167,28,1,2,3,46,146,230.23686306225136,231.00001732911915,"[62, 0, 192]",192,l,0.2458439376205206,colour,0.5
167,28,1,2,3,47,147,231.50900686951354,232.18426844244823,"[65, 0, 189]",189,l,0.15823402488604188,colour,0.5
167,28,1,2,3,48,148,232.69334502285346,233.3040563799441,"[89, 0, 165]",165,l,0.09369208011776209,colour,0.5
167,28,1,2,3,49,149,233.81312468927354,234.44806467927992,"[97, 0, 157]",157,l,0.11800932791084051,colour,0.5
167,28,1,2,3,50,150,234.95720506226644,235.62412733538076,"[83, 0, 171]",171,l,0.14986203564330935,colour,0.5
167,28,1,2,4,1,151,240.115828207694,242.3600518614985,"[36, 0, 218]",218,a,1.7269101738929749,colour,0.5
167,28,1,2,4,2,152,242.86877437401563,243.64805034315214,"[69, 0, 185]",185,l,0.2609900822862983,colour,0.5
167,28,1,2,4,3,153,244.15751131717116,244.71202593715861,"[19, 0, 235]",235,a,0.03833620436489582,colour,0.5
167,28,1,2,4,4,154,245.22106155753136,245.760027915705,"[47, 0, 207]",207,a,0.022223955020308495,colour,0.5
167,28,1,2,4,5,155,246.26988746225834,246.86403404083103,"[96, 0, 158]",158,l,0.07709736889228225,colour,0.5
167,28,1,2,4,6,156,247.37312479969114,248.08805692801252,"[65, 0, 189]",189,l,0.197928998619318,colour,0.5
167,28,1,2,4,7,157,248.59707600669935,249.56002492271364,"[49, 0, 205]",205,a,0.44584535574540496,colour,0.5
167,28,1,2,4,8,158,250.06861352734268,250.85603187326342,"[21, 0, 233]",233,a,0.2709799916483462,colour,0.5
167,28,1,2,4,9,159,251.3650623736903,251.88802833482623,"[90, 0, 164]",164,l,0.005429170094430447,colour,0.5
167,28,1,2,4,10,160,252.40031948825344,253.09610438812524,"[6, 0, 248]",248,a,0.179093302693218,colour,0.5
167,28,1,2,4,11,161,253.60509589780122,254.28002270124853,"[38, 0, 216]",216,a,0.15734708309173584,colour,0.5
167,28,1,2,4,12,162,254.7887893244624,255.56012338399887,"[43, 0, 211]",211,a,0.25447901617735624,colour,0.5
167,28,1,2,4,13,163,256.0679609240033,256.7680615913123,"[48, 0, 206]",206,a,0.18204636219888926,colour,0.5
167,28,1,2,4,14,164,257.2767171501182,257.8640147424303,"[31, 0, 223]",223,a,0.07054967526346445,colour,0.5
167,28,1,2,4,15,165,258.37310038134456,258.9440360260196,"[88, 0, 166]",166,l,0.05467688478529453,colour,0.5
167,28,1,2,4,16,166,259.4530617999844,260.0961559819989,"[74, 0, 180]",180,l,0.12614737264811993,colour,0.5
167,28,1,2,4,17,167,260.6057020272128,261.2641530614346,"[94, 0, 160]",160,l,0.1414983170107007,colour,0.5
167,28,1,2,4,18,168,261.7732351552695,262.4720436129719,"[75, 0, 179]",179,l,0.1812807247042656,colour,0.5
167,28,1,2,4,19,169,262.98181572556496,263.9040373964235,"[24, 0, 230]",230,a,0.40590383345261216,colour,0.5
167,28,1,2,4,20,170,264.41283395234495,265.36008573230356,"[70, 0, 184]",184,l,0.43128052772954106,colour,0.5
167,28,1,2,4,21,171,265.8691725526005,266.5601667072624,"[55, 0, 199]",199,a,0.17273859400302172,colour,0.5
167,28,1,2,4,22,172,267.06918460456654,267.76002634037286,"[84, 0, 170]",170,l,0.17202809546142817,colour,0.5
167,28,1,2,4,23,173,268.2696535177529,268.9600470568985,"[51, 0, 203]",203,a,0.17139715375378728,colour,0.5
167,28,1,2,4,24,174,269.46904919994995,270.1200171560049,"[26, 0, 228]",228,a,0.13291877089068294,colour,0.5
167,28,1,2,4,25,175,270.6288680625148,271.2960727228783,"[78, 0, 176]",176,l,0.15082302037626505,colour,0.5
167,28,1,2,4,26,176,271.80508077377453,272.41601977450773,"[18, 0, 236]",236,a,0.0940989232622087,colour,0.5
167,28,1,2,4,27,177,272.9247986068949,273.6400426616892,"[22, 0, 232]",232,a,0.19812986068427563,colour,0.5
167,28,1,2,4,28,178,274.1491877711378,274.808049980551,"[53, 0, 201]",201,l,0.14155975682660937,colour,0.5
167,28,1,2,4,29,179,275.3171446779743,276.4480713745579,"[72, 0, 182]",182,l,0.6130137825384736,colour,0.5
167,28,1,2,4,30,180,276.9577269088477,277.67203715397045,"[89, 0, 165]",165,l,0.19742448208853602,colour,0.5
167,28,1,2,4,31,181,278.18109286017716,278.9363891077228,"[71, 0, 183]",183,l,0.23827145621180534,colour,0.5
167,28,1,2,4,32,182,279.44548971252516,280.18437990080565,"[99, 0, 155]",155,l,0.22176969284191728,colour,0.5
167,28,1,2,4,33,183,280.6934824748896,281.2160321408883,"[52, 0, 202]",202,a,0.006049477960914373,colour,0.5
167,28,1,2,4,34,184,281.73241141811013,282.43204458989203,"[27, 0, 227]",227,a,0.18332045478746295,colour,0.5
167,28,1,2,4,35,185,282.941162917763,283.68009446002543,"[62, 0, 192]",192,l,0.22163578495383263,colour,0.5
167,28,1,2,4,36,186,284.1889095264487,284.7680986127816,"[81, 0, 173]",173,l,0.06144355656579137,colour,0.5
167,28,1,2,4,37,187,285.27678095316514,285.84006849769503,"[16, 0, 238]",238,a,0.046885030809789896,colour,0.5
167,28,1,2,4,38,188,286.34914822876453,286.9920580908656,"[50, 0, 204]",204,a,0.12663652980700135,colour,0.5
167,28,1,2,4,39,189,287.5012075328268,288.0560671617277,"[5, 0, 249]",249,a,0.03760207490995526,colour,0.5
167,28,1,2,4,40,190,288.5652433852665,289.13604118395597,"[80, 0, 174]",174,l,0.053342139814049006,colour,0.5
167,28,1,2,4,41,191,289.6444056900218,290.23205971345305,"[34, 0, 220]",220,a,0.07170758349820971,colour,0.5
167,28,1,2,4,42,192,290.74114968441427,291.3120715445839,"[10, 0, 244]",244,a,0.05433148145675659,colour,0.5
167,28,1,2,4,43,193,291.82072395225987,292.3680500909686,"[17, 0, 237]",237,a,0.030623907689005136,colour,0.5
167,28,1,2,4,44,194,292.8773996066302,293.44009126210585,"[25, 0, 229]",229,a,0.04593940591439605,colour,0.5
167,28,1,2,4,45,195,293.94860030990094,294.56809601327404,"[60, 0, 194]",194,l,0.10323379235342145,colour,0.5
167,28,1,2,4,46,196,295.0771926799789,295.6240190276876,"[2, 0, 252]",252,a,0.030063070822507143,colour,0.5
167,28,1,2,4,47,197,296.13294988451526,296.72816733131185,"[14, 0, 240]",240,a,0.07821156037971377,colour,0.5
167,28,1,2,4,48,198,297.2378728836775,297.8240263531916,"[87, 0, 167]",167,l,0.06940909661352634,colour,0.5
167,28,1,2,4,49,199,298.3331533456221,298.94408486271277,"[20, 0, 234]",234,a,0.0943612246774137,colour,0.5
167,28,1,2,4,50,200,299.4531055171974,300.0640220679343,"[3, 0, 251]",251,a,0.0935349352657795,colour,0.5
167,28,1,2,5,1,201,304.9166105436161,305.5441840332933,"[68, 0, 186]",186,l,0.1101233446970582,colour,0.4
167,28,1,2,5,2,202,306.05321768438444,306.6320853922516,"[99, 0, 155]",155,l,0.06191892921924591,colour,0.4
167,28,1,2,5,3,203,307.1415278557688,307.73610372655094,"[52, 0, 202]",202,a,0.07732068002223969,colour,0.4
167,28,1,2,5,4,204,308.245500897523,308.8000501762144,"[43, 0, 211]",211,a,0.0386812137439847,colour,0.4
167,28,1,2,5,5,205,309.3095402950421,309.8640277395025,"[62, 0, 192]",192,l,0.03832320775836706,colour,0.4
167,28,1,2,5,6,206,310.3732496490702,310.96809609234333,"[67, 0, 187]",187,l,0.07813594164326787,colour,0.4
167,28,1,2,5,7,207,311.4765582722612,312.12010695273057,"[96, 0, 158]",158,l,0.12656287988647819,colour,0.4
167,28,1,2,5,8,208,312.6288152867928,313.22406424116343,"[50, 0, 204]",204,a,0.07802724000066519,colour,0.4
167,28,1,2,5,9,209,313.73323061829433,314.33624858316034,"[74, 0, 180]",180,l,0.08589392434805632,colour,0.4
167,28,1,2,5,10,210,314.8455819510855,315.42405423754826,"[6, 0, 248]",248,a,0.06069721840322018,colour,0.4
167,28,1,2,5,11,211,315.9330355068669,316.59204383334145,"[98, 0, 156]",156,l,0.14187916601076722,colour,0.4
167,28,1,2,5,12,212,317.10110781062394,317.6960373558104,"[35, 0, 219]",219,a,0.07864360976964235,colour,0.4
167,28,1,2,5,13,213,318.2053817510605,318.7520489851013,"[25, 0, 229]",229,a,0.029833064414560795,colour,0.4
167,28,1,2,5,14,214,319.26118385465816,319.94409431517124,"[58, 0, 196]",196,a,0.16677930671721697,colour,0.4
167,28,1,2,5,15,215,320.45340641541407,321.56011865800247,"[60, 0, 194]",194,l,0.5889840419404209,colour,0.4
167,28,1,2,5,16,216,322.0696647032164,322.80806337157264,"[44, 0, 210]",210,a,0.22154047433286905,colour,0.4
167,28,1,2,5,17,217,323.31730969948694,323.8960958812386,"[82, 0, 172]",172,l,0.061357698403298855,colour,0.4
167,28,1,2,5,18,218,324.4051066888496,324.9600702938624,"[77, 0, 177]",177,l,0.03745438298210502,colour,0.4
167,28,1,2,5,19,219,325.46925636334345,326.0320315142162,"[53, 0, 201]",201,a,0.043956784065812826,colour,0.4
167,28,1,2,5,20,220,326.54096867283806,327.1360604823567,"[56, 0, 198]",198,a,0.07762157870456576,colour,0.4
167,28,1,2,5,21,221,327.64556399174035,328.2642156826332,"[24, 0, 230]",230,a,0.10177813656628132,colour,0.4
167,28,1,2,5,22,222,328.7732769032009,329.440077083651,"[11, 0, 243]",243,a,0.1497982325963676,colour,0.4
167,28,1,2,5,23,223,329.94919974403456,330.5200554379262,"[19, 0, 235]",235,a,0.05458708759397268,colour,0.4
167,28,1,2,5,24,224,331.0291820364073,331.59212811663747,"[66, 0, 188]",188,l,0.04630410764366388,colour,0.4
167,28,1,2,5,25,225,332.10136341676116,332.77609290368855,"[30, 0, 224]",224,a,0.15845457883551717,colour,0.4
167,28,1,2,5,26,226,333.28484849911183,333.84004486724734,"[84, 0, 170]",170,l,0.038450419902801514,colour,0.4
167,28,1,2,5,27,227,334.3492525978945,334.89604507479817,"[55, 0, 199]",199,a,0.02968773478642106,colour,0.4
167,28,1,2,5,28,228,335.4051972734742,337.09608115116134,"[57, 0, 197]",197,l,1.1741450186818838,colour,0.4
167,28,1,2,5,29,229,337.6056161685847,338.6400414798409,"[15, 0, 239]",239,a,0.5181563110090792,colour,0.4
167,28,1,2,5,30,230,339.14939178340137,339.9840771909803,"[16, 0, 238]",238,a,0.3176716445013881,colour,0.4
167,28,1,2,5,31,231,340.4932030015625,341.12007977766916,"[72, 0, 182]",182,l,0.10998549871146679,colour,0.4
167,28,1,2,5,32,232,341.6290003946051,342.24806326115504,"[64, 0, 190]",190,l,0.10282025393098593,colour,0.4
167,28,1,2,5,33,233,342.7577636940405,343.3600361077115,"[14, 0, 240]",240,a,0.08541421964764595,colour,0.4
167,28,1,2,5,34,234,343.8676802692935,344.4480631034821,"[23, 0, 231]",231,a,0.06404530489817262,colour,0.4
167,28,1,2,5,35,235,344.95743388682604,345.8160639638081,"[20, 0, 234]",234,a,0.34155566105619073,colour,0.4
167,28,1,2,5,36,236,346.3251421195455,347.0803280896507,"[37, 0, 217]",217,a,0.23822498228400946,colour,0.4
167,28,1,2,5,37,237,347.58946453453973,348.38405324472114,"[4, 0, 250]",250,a,0.27758242981508374,colour,0.4
167,28,1,2,5,38,238,348.89312903769314,349.4320721589029,"[79, 0, 175]",175,l,0.02271705074235797,colour,0.4
167,28,1,2,5,39,239,349.9413082469255,350.7040328281,"[32, 0, 222]",222,a,0.24502276862040162,colour,0.4
167,28,1,2,5,40,240,351.2130779004656,351.8000470250845,"[80, 0, 174]",174,l,0.07042128127068281,colour,0.4
167,28,1,2,5,41,241,352.30896724853665,352.8481722776778,"[87, 0, 167]",167,l,0.022694601211696863,colour,0.4
167,28,1,2,5,42,242,353.3574004890397,354.09610241884366,"[90, 0, 164]",164,l,0.22246522502973676,colour,0.4
167,28,1,2,5,43,243,354.6055444884114,355.34406958147883,"[65, 0, 189]",189,l,0.22172046173363924,colour,0.4
167,28,1,2,5,44,244,355.8524754419923,356.6480527059175,"[93, 0, 161]",161,l,0.277542257681489,colour,0.4
167,28,1,2,5,45,245,357.1578047326766,357.9040539381094,"[5, 0, 249]",249,a,0.22952176816761494,colour,0.4
167,28,1,2,5,46,246,358.41320692468435,358.9601147985086,"[39, 0, 215]",215,a,0.030123723205178976,colour,0.4
167,28,1,2,5,47,247,359.46922564320266,360.0320752309635,"[88, 0, 166]",166,l,0.044642864260822535,colour,0.4
167,28,1,2,5,48,248,360.54127941746265,361.08009335724637,"[76, 0, 178]",178,l,0.02133937645703554,colour,0.4
167,28,1,2,5,49,249,361.5892435866408,362.25602171197534,"[94, 0, 160]",160,l,0.14935830608010292,colour,0.4
167,28,1,2,5,50,250,362.76505969511345,364.17610322264954,"[9, 0, 245]",245,a,0.894535462372005,colour,0.4
167,28,1,2,6,1,251,371.06891048746184,371.76805253280327,"[35, 0, 219]",219,a,0.180294927675277,colour,0.28
167,28,1,2,6,2,252,372.2779561900534,372.80008916696534,"[91, 0, 163]",163,l,0.0054598902352154255,colour,0.28
167,28,1,2,6,3,253,373.3158473484218,373.8881839043461,"[99, 0, 155]",155,l,0.05451186327263713,colour,0.28
167,28,1,2,6,4,254,374.39737469982356,376.0080923587084,"[70, 0, 184]",184,l,1.0939398095943034,colour,0.28
167,28,1,2,6,5,255,376.51764470525086,377.6320865736343,"[53, 0, 201]",201,l,0.5974430711939931,colour,0.28
167,28,1,2,6,6,256,378.1407220461406,378.67209820030257,"[73, 0, 181]",181,l,0.014335609041154385,colour,0.28
167,28,1,2,6,7,257,379.18223580205813,380.43204616522416,"[40, 0, 214]",214,a,0.7330659907311201,colour,0.28
167,28,1,2,6,8,258,380.941600874532,381.6560954400338,"[76, 0, 178]",178,l,0.19785416824743152,colour,0.28
167,28,1,2,6,9,259,382.1652338542044,382.72809131862596,"[30, 0, 224]",224,a,0.04625527048483491,colour,0.28
167,28,1,2,6,10,260,383.2372821145691,383.8240641625598,"[68, 0, 186]",186,l,0.07057133736088872,colour,0.28
167,28,1,2,6,11,261,384.3331998195499,384.9200492152013,"[63, 0, 191]",191,l,0.07049571862444282,colour,0.28
167,28,1,2,6,12,262,385.42890248447657,386.40802942216396,"[4, 0, 250]",250,a,0.46280122362077236,colour,0.28
167,28,1,2,6,13,263,386.9169071097858,387.5680365427397,"[89, 0, 165]",165,l,0.13434410048648715,colour,0.28
167,28,1,2,6,14,264,388.07745931390673,388.7280625682324,"[84, 0, 170]",170,l,0.13418144220486283,colour,0.28
167,28,1,2,6,15,265,389.23682879749686,389.9521287782118,"[80, 0, 174]",174,l,0.1986989681608975,colour,0.28
167,28,1,2,6,16,266,390.46117345709354,391.20004001492634,"[95, 0, 159]",159,l,0.22248255461454391,colour,0.28
167,28,1,2,6,17,267,391.7087995489128,392.4640646823682,"[98, 0, 156]",156,l,0.23898313660174608,colour,0.28
167,28,1,2,6,18,268,392.9739663703367,393.71212321706116,"[94, 0, 160]",160,l,0.22151014814153314,colour,0.28
167,28,1,2,6,19,269,394.2211875882931,394.9520681258291,"[50, 0, 204]",204,a,0.21327127888798714,colour,0.28
167,28,1,2,6,20,270,395.46031881077215,396.22418042551726,"[61, 0, 193]",193,l,0.24720782693475485,colour,0.28
167,28,1,2,6,21,271,396.73197976266965,397.3920455663465,"[21, 0, 233]",233,a,0.14373024366796017,colour,0.28
167,28,1,2,6,22,272,397.9011505036615,398.56001822743565,"[67, 0, 187]",187,l,0.14265189273282886,colour,0.28
167,28,1,2,6,23,273,399.0691247396171,399.67209583707154,"[83, 0, 171]",171,l,0.0838274136185646,colour,0.28
167,28,1,2,6,24,274,400.18094950029626,400.8480868129991,"[38, 0, 216]",216,l,0.15011291531845927,colour,0.28
167,28,1,2,6,25,275,401.3570783226751,402.0880474760197,"[60, 0, 194]",194,a,0.2140629100613296,colour,0.28
167,28,1,2,6,26,276,402.5971362651326,403.2080685701221,"[7, 0, 247]",247,a,0.09395516896620393,colour,0.28
167,28,1,2,6,27,277,403.7168174702674,404.3840823895298,"[87, 0, 167]",167,l,0.15098370984196663,colour,0.28
167,28,1,2,6,28,278,404.8933444712311,405.55210191803053,"[27, 0, 227]",227,a,0.1419673878699541,colour,0.28
167,28,1,2,6,29,279,406.06034590722993,406.7360966373235,"[56, 0, 198]",198,l,0.15981453005224466,colour,0.28
167,28,1,2,6,30,280,407.24568364210427,407.9120864318684,"[90, 0, 164]",164,l,0.14939847867935896,colour,0.28
167,28,1,2,6,31,281,408.421860513743,409.04022312164307,"[32, 0, 222]",222,a,0.10124408127740026,colour,0.28
167,28,1,2,6,32,282,409.5492839482613,410.3200717428699,"[66, 0, 188]",188,l,0.2537184990942478,colour,0.28
167,28,1,2,6,33,283,410.8292834125459,411.528063907288,"[18, 0, 236]",236,a,0.18262334680184722,colour,0.28
167,28,1,2,6,34,284,412.03677814872935,412.7360454373993,"[55, 0, 199]",199,l,0.1825863253325224,colour,0.28
167,28,1,2,6,35,285,413.24465530971065,414.97605808777735,"[71, 0, 183]",183,l,1.2146442271769047,colour,0.28
167,28,1,2,6,36,286,415.48621735116467,416.528136768844,"[58, 0, 196]",196,l,0.5237623187713325,colour,0.28
167,28,1,2,6,37,287,417.03715466568246,418.00004883715883,"[54, 0, 200]",200,l,0.44653261732310057,colour,0.28
167,28,1,2,6,38,288,418.50919906655326,419.8721653902903,"[97, 0, 157]",157,l,0.8467989359050989,colour,0.28
167,28,1,2,6,39,289,420.3809639150277,421.1761233084835,"[92, 0, 162]",162,l,0.27839493472129107,colour,0.28
167,28,1,2,6,40,290,421.6851262394339,422.344044375699,"[33, 0, 221]",221,a,0.14087958494201303,colour,0.28
167,28,1,2,6,41,291,422.8533411156386,423.80007695779204,"[82, 0, 172]",172,l,0.42989930929616094,colour,0.28
167,28,1,2,6,42,292,424.3091263626702,425.10407938063145,"[79, 0, 175]",175,l,0.27794083021581173,colour,0.28
167,28,1,2,6,43,293,425.6132142501883,427.1520789959468,"[57, 0, 197]",197,l,1.0225323364138603,colour,0.28
167,28,1,2,6,44,294,427.6603568564169,428.640111584682,"[75, 0, 179]",179,l,0.4630607683211565,colour,0.28
167,28,1,2,6,45,295,429.14860369684175,430.08820540830493,"[86, 0, 168]",168,l,0.4224768835119903,colour,0.28
167,28,1,2,6,46,296,430.5972150345333,431.36006643390283,"[24, 0, 230]",230,a,0.2458541775122285,colour,0.28
167,28,1,2,6,47,297,431.86835098965093,433.13608883926645,"[88, 0, 166]",166,l,0.7511025727726519,colour,0.28
167,28,1,2,6,48,298,433.64547931496054,435.336120583117,"[17, 0, 237]",237,a,1.1737228156998754,colour,0.28
167,28,1,2,6,49,299,435.8447288800962,436.70409899391234,"[46, 0, 208]",208,a,0.3432661350816488,colour,0.28
167,28,1,2,6,50,300,437.2128853094764,437.99217860773206,"[51, 0, 203]",203,a,0.26217398373410106,colour,0.28
167,28,1,2,7,1,301,452.70841712411493,453.80804682988673,"[94, 0, 160]",160,l,0.5822898377664387,colour,0.14
167,28,1,2,7,2,302,454.31716003781185,454.8720732303336,"[7, 0, 247]",247,a,0.03841379238292575,colour,0.14
167,28,1,2,7,3,303,455.38099660445005,455.9360551261343,"[70, 0, 184]",184,l,0.03805775521323085,colour,0.14
167,28,1,2,7,4,304,456.4448804324493,457.6320751523599,"[84, 0, 170]",170,l,0.6696598981507123,colour,0.14
167,28,1,2,7,5,305,458.1410761140287,458.8240614053793,"[53, 0, 201]",201,a,0.1662590359337628,colour,0.14
167,28,1,2,7,6,306,459.33332663821056,459.96005296427757,"[90, 0, 164]",164,l,0.10937149217352271,colour,0.14
167,28,1,2,7,7,307,460.4690188737586,461.13622471597046,"[87, 0, 167]",167,l,0.15087185706943274,colour,0.14
167,28,1,2,7,8,308,461.6449972470291,462.22412528749555,"[56, 0, 198]",198,a,0.06174484919756651,colour,0.14
167,28,1,2,7,9,309,462.73330741841346,463.67223801556975,"[99, 0, 155]",155,l,0.4214548524469137,colour,0.14
167,28,1,2,7,10,310,464.18138666963205,464.85606771335006,"[49, 0, 205]",205,a,0.15791658498346806,colour,0.14
167,28,1,2,7,11,311,465.3650225950405,465.99208644777536,"[92, 0, 162]",162,l,0.11098783742636442,colour,0.14
167,28,1,2,7,12,312,466.5016384003684,467.19210401317105,"[55, 0, 199]",199,a,0.17376338178291917,colour,0.14
167,28,1,2,7,13,313,467.7012207657099,468.4560841759667,"[65, 0, 189]",189,l,0.23772007133811712,colour,0.14
167,28,1,2,7,14,314,468.9656916609965,469.5442525628023,"[71, 0, 183]",183,l,0.062256849370896816,colour,0.14
167,28,1,2,7,15,315,470.05402388749644,470.8240763717331,"[61, 0, 193]",193,l,0.2532009854912758,colour,0.14
167,28,1,2,7,16,316,471.33288434846327,471.8561326977797,"[18, 0, 236]",236,a,0.006273970473557711,colour,0.14
167,28,1,2,7,17,317,472.3677042941563,473.1760953455232,"[95, 0, 159]",159,l,0.29180027917027473,colour,0.14
167,28,1,2,7,18,318,473.6860277536325,474.4241038621403,"[76, 0, 178]",178,l,0.21922426484525204,colour,0.14
167,28,1,2,7,19,319,474.9326771069318,476.12012664508075,"[59, 0, 195]",195,l,0.6709253257140517,colour,0.14
167,28,1,2,7,20,320,476.62937809340656,477.43213005457073,"[72, 0, 182]",182,l,0.28580081975087523,colour,0.14
167,28,1,2,7,21,321,477.9408498099074,478.7360816709697,"[83, 0, 171]",171,l,0.27826378401368856,colour,0.14
167,28,1,2,7,22,322,479.24553949479014,479.9841110613197,"[88, 0, 166]",166,l,0.22167044365778565,colour,0.14
167,28,1,2,7,23,323,480.49327192502096,481.2081095301546,"[86, 0, 168]",168,l,0.197362647857517,colour,0.14
167,28,1,2,7,24,324,481.7166622951627,482.5281013227068,"[98, 0, 156]",156,l,0.2951503354124725,colour,0.14
167,28,1,2,7,25,325,483.0372259519063,483.69610785413533,"[67, 0, 187]",187,a,0.1419425755739212,colour,0.14
167,28,1,2,7,26,326,484.2048465143889,485.6400706246495,"[68, 0, 186]",186,a,0.9183261380530894,colour,0.14
167,28,1,2,7,27,327,486.14923030650243,486.9680854585022,"[60, 0, 194]",194,a,0.30248178262263536,colour,0.14
167,28,1,2,7,28,328,487.47707814956084,488.2401461643167,"[36, 0, 218]",218,a,0.24629567936062813,colour,0.14
167,28,1,2,7,29,329,488.749244405888,489.5283774086274,"[75, 0, 179]",179,l,0.26212790375575423,colour,0.14
167,28,1,2,7,30,330,490.0366911087185,490.84818488080055,"[50, 0, 204]",204,a,0.29450679011642933,colour,0.14
167,28,1,2,7,31,331,491.3574331779964,492.896107302513,"[62, 0, 192]",192,a,1.021833653561771,colour,0.14
167,28,1,2,7,32,332,493.405130319763,494.48022655630484,"[10, 0, 244]",244,a,0.5586468549445271,colour,0.14
167,28,1,2,7,33,333,494.98941144393757,496.1281540193595,"[74, 0, 180]",180,l,0.6231828923337162,colour,0.14
167,28,1,2,7,34,334,496.6378642981872,497.4801375470124,"[89, 0, 165]",165,l,0.32509682700037956,colour,0.14
167,28,1,2,7,35,335,497.98921452090144,498.79210275318474,"[96, 0, 158]",158,l,0.28610605048015714,colour,0.14
167,28,1,2,7,36,336,499.30108126532286,500.1760788038373,"[73, 0, 181]",181,l,0.3580373381264508,colour,0.14
167,28,1,2,7,37,337,500.68608486140147,501.4880904839374,"[52, 0, 202]",202,a,0.28330816654488444,colour,0.14
167,28,1,2,7,38,338,501.9971946333535,502.61607987526804,"[93, 0, 161]",161,l,0.10190219851210713,colour,0.14
167,28,1,2,7,39,339,503.12504972331226,503.7360454373993,"[80, 0, 174]",174,a,0.09356014151126146,colour,0.14
167,28,1,2,7,40,340,504.24493139609694,505.50409009307623,"[64, 0, 190]",190,a,0.7431760230101645,colour,0.14
167,28,1,2,7,41,341,506.01493740594015,506.87210946390405,"[63, 0, 191]",191,a,0.34091447945684195,colour,0.14
167,28,1,2,7,42,342,507.38118998287246,508.19208983471617,"[57, 0, 197]",197,a,0.2932894113473594,colour,0.14
167,28,1,2,7,43,343,508.7016890491359,509.32823144923896,"[78, 0, 176]",176,l,0.11029269872233272,colour,0.14
167,28,1,2,7,44,344,509.8373092110269,510.640115916729,"[17, 0, 237]",237,a,0.28648256696760654,colour,0.14
167,28,1,2,7,45,345,511.1488356725313,512.6162464721128,"[54, 0, 200]",200,a,0.9497712147422135,colour,0.14
167,28,1,2,7,46,346,513.1254104864784,513.8241141806357,"[85, 0, 169]",169,l,0.18178799888119102,colour,0.14
167,28,1,2,7,47,347,514.3342368165031,515.0320649910718,"[13, 0, 241]",241,a,0.18160446640104055,colour,0.14
167,28,1,2,7,48,348,515.5405941251665,516.3840867220424,"[66, 0, 188]",188,l,0.3269116706214845,colour,0.14
167,28,1,2,7,49,349,516.8933484097943,517.5840889276005,"[77, 0, 177]",177,l,0.17379410192370415,colour,0.14
167,28,1,2,7,50,350,518.093166295439,518.888056691736,"[81, 0, 173]",173,l,0.2785946149379015,colour,0.14
167,28,1,2,8,1,351,523.4039889536798,525.1441654437222,"[65, 0, 189]",189,l,1.2228736439719796,colour,0.06
167,28,1,2,8,2,352,525.6534306765534,526.2880902476609,"[94, 0, 160]",160,l,0.11667379550635815,colour,0.06
167,28,1,2,8,3,353,526.7970860893838,527.3761101542041,"[59, 0, 195]",195,a,0.06185591360554099,colour,0.06
167,28,1,2,8,4,354,527.8848629929125,528.5600887257606,"[89, 0, 165]",165,l,0.1584088928066194,colour,0.06
167,28,1,2,8,5,355,529.0688750413246,530.1360904145986,"[52, 0, 202]",202,a,0.5509999361820519,colour,0.06
167,28,1,2,8,6,356,530.6451433640905,531.5044122594409,"[67, 0, 187]",187,l,0.34205505810678005,colour,0.06
167,28,1,2,8,7,357,532.0142658981495,532.7361478372477,"[75, 0, 179]",179,l,0.2050521019846201,colour,0.06
167,28,1,2,8,8,358,533.244081475772,533.9040484242141,"[58, 0, 196]",196,a,0.14303983142599463,colour,0.06
167,28,1,2,8,9,359,534.4131671460345,535.1280921851285,"[93, 0, 161]",161,l,0.19691366329789162,colour,0.06
167,28,1,2,8,10,360,535.6371593130752,536.2960928091779,"[79, 0, 175]",175,l,0.1413061199709773,colour,0.06
167,28,1,2,8,11,361,536.8051051925868,537.3360741091892,"[18, 0, 236]",236,a,0.01402722718194127,colour,0.06
167,28,1,2,8,12,362,537.8448553048074,538.4480910669081,"[60, 0, 194]",194,a,0.08716486673802137,colour,0.06
167,28,1,2,8,13,363,538.9574693334289,540.5601245658472,"[68, 0, 186]",186,a,1.085736779961735,colour,0.06
167,28,1,2,8,14,364,541.0691790906712,542.0481067416258,"[69, 0, 185]",185,l,0.4608449889346957,colour,0.06
167,28,1,2,8,15,365,542.5564964544028,543.7841183082201,"[61, 0, 193]",193,a,0.7110862201079726,colour,0.06
167,28,1,2,8,16,366,544.2932787779719,545.0480527849868,"[92, 0, 162]",162,l,0.23801703145727515,colour,0.06
167,28,1,2,8,17,367,545.5574826453812,546.3841205928475,"[62, 0, 192]",192,a,0.3104146337136626,colour,0.06
167,28,1,2,8,18,368,546.8932263175957,547.5600690334104,"[96, 0, 158]",158,l,0.15061073750257492,colour,0.06
167,28,1,2,8,19,369,548.0691558537073,548.9600750198588,"[71, 0, 183]",183,a,0.3720472361892462,colour,0.06
167,28,1,2,8,20,370,549.4698061724193,550.1921221301891,"[50, 0, 204]",204,a,0.2040887540206313,colour,0.06
167,28,1,2,8,21,371,550.7012762981467,551.4000949957408,"[53, 0, 201]",201,a,0.18224564800038934,colour,0.06
167,28,1,2,8,22,372,551.9092026897706,552.6401218245737,"[48, 0, 206]",206,a,0.21467927936464548,colour,0.06
167,28,1,2,8,23,373,553.1492531495169,554.0080888140947,"[64, 0, 190]",190,a,0.34190263971686363,colour,0.06
167,28,1,2,8,24,374,554.5172351049259,555.2800731137395,"[55, 0, 199]",199,a,0.24656152538955212,colour,0.06
167,28,1,2,8,25,375,555.7887972015887,556.4240432097577,"[82, 0, 172]",172,l,0.11815780773758888,colour,0.06
167,28,1,2,8,26,376,556.9327956545167,557.7042884342372,"[57, 0, 197]",197,a,0.25551561964675784,colour,0.06
167,28,1,2,8,27,377,558.2133823437616,559.0802599540912,"[74, 0, 180]",180,l,0.34947315184399486,colour,0.06
167,28,1,2,8,28,378,559.5892585529946,560.3921133079566,"[83, 0, 171]",171,l,0.2859993176534772,colour,0.06
167,28,1,2,8,29,379,560.9012249405496,561.6241068551317,"[56, 0, 198]",198,a,0.20604065572842956,colour,0.06
167,28,1,2,8,30,380,562.134189712815,562.856120094657,"[45, 0, 209]",209,a,0.20411396026611328,colour,0.06
167,28,1,2,8,31,381,563.3652049456723,564.0960736679845,"[51, 0, 203]",203,a,0.2138325097039342,colour,0.06
167,28,1,2,8,32,382,564.6052109007724,565.3281290493906,"[88, 0, 166]",166,l,0.2054093205370009,colour,0.06
167,28,1,2,8,33,383,565.8372442265972,566.5600773040205,"[81, 0, 173]",173,l,0.20661133900284767,colour,0.06
167,28,1,2,8,34,384,567.0693716811948,567.8961041518487,"[63, 0, 191]",191,a,0.30799878062680364,colour,0.06
167,28,1,2,8,35,385,568.404119710438,569.184083334636,"[54, 0, 200]",200,a,0.26349455025047064,colour,0.06
167,28,1,2,8,36,386,569.6933241491206,570.8640872100368,"[77, 0, 177]",177,a,0.6539292857050896,colour,0.06
167,28,1,2,8,37,387,571.3734485413879,572.456105443649,"[99, 0, 155]",155,l,0.5659109544940293,colour,0.06
167,28,1,2,8,38,388,572.9651390947402,573.6561005599797,"[97, 0, 157]",157,l,0.17472436651587486,colour,0.06
167,28,1,2,8,39,389,574.1681455592625,574.920116562862,"[78, 0, 176]",176,l,0.23441452020779252,colour,0.06
167,28,1,2,8,40,390,575.4293101155199,575.9762266539037,"[91, 0, 163]",163,l,0.030222184490412474,colour,0.06
167,28,1,2,8,41,391,576.4854095727205,577.2081268592738,"[70, 0, 184]",184,l,0.20605798484757543,colour,0.06
167,28,1,2,8,42,392,577.7168978150003,578.2720914259553,"[76, 0, 178]",178,l,0.03879739856347442,colour,0.06
167,28,1,2,8,43,393,578.7810829356313,579.688074178528,"[80, 0, 174]",174,l,0.390339030418545,colour,0.06
167,28,1,2,8,44,394,580.1971995956264,581.4960709898733,"[86, 0, 168]",168,l,0.781939156819135,colour,0.06
167,28,1,2,8,45,395,582.0044307699427,582.6641102107242,"[98, 0, 156]",156,l,0.14338484033942223,colour,0.06
167,28,1,2,8,46,396,583.1731871850789,584.1041041929275,"[85, 0, 169]",169,l,0.41415845695883036,colour,0.06
167,28,1,2,8,47,397,584.6132032223977,585.688235655427,"[72, 0, 182]",182,l,0.55832350673154,colour,0.06
167,28,1,2,8,48,398,586.1978738605976,587.4241452156566,"[84, 0, 170]",170,l,0.7088507483713329,colour,0.06
167,28,1,2,8,49,399,587.9333427068777,588.4560940223746,"[90, 0, 164]",164,l,0.005987644661217928,colour,0.06
167,28,1,2,8,50,400,588.9676825539209,589.9041890273802,"[73, 0, 181]",181,l,0.41963095031678677,colour,0.06
167,28,1,2,9,1,401,594.5164478062652,596.62410803698,"[69, 0, 185]",185,l,1.5901620364747941,colour,0.06
167,28,1,2,9,2,402,597.1328352754936,597.7840848313645,"[80, 0, 174]",174,l,0.13428187277168036,colour,0.06
167,28,1,2,9,3,403,598.2931169071235,598.8960943059064,"[96, 0, 158]",158,l,0.08667689096182585,colour,0.06
167,28,1,2,9,4,404,599.4048191811889,599.9441037676297,"[92, 0, 162]",162,l,0.02235904475674033,colour,0.06
167,28,1,2,9,5,405,600.4533048029989,601.4481273004785,"[39, 0, 215]",215,a,0.477302641607821,colour,0.06
167,28,1,2,9,6,406,601.9572090008296,602.8001088593155,"[73, 0, 181]",181,l,0.32601133827120066,colour,0.06
167,28,1,2,9,7,407,603.3091937103309,604.2561528626829,"[82, 0, 172]",172,l,0.42995090316981077,colour,0.06
167,28,1,2,9,8,408,604.7656587352976,605.4000981464051,"[61, 0, 193]",193,a,0.11762020783498883,colour,0.06
167,28,1,2,9,9,409,605.9094141852111,606.6721391603351,"[78, 0, 176]",176,l,0.24588844226673245,colour,0.06
167,28,1,2,9,10,410,607.1811995925382,608.0081514352933,"[56, 0, 198]",198,a,0.3099798271432519,colour,0.06
167,28,1,2,9,11,411,608.5178735298105,609.560095814988,"[70, 0, 184]",184,l,0.5250970632769167,colour,0.06
167,28,1,2,9,12,412,610.0691869673319,610.8641108409502,"[84, 0, 170]",170,l,0.2782161287032068,colour,0.06
167,28,1,2,9,13,413,611.3732969104312,612.1360888392664,"[60, 0, 194]",194,a,0.24600974703207612,colour,0.06
167,28,1,2,9,14,414,612.6441173944622,613.2481365166605,"[53, 0, 201]",201,a,0.08738423883914948,colour,0.06
167,28,1,2,9,15,415,613.756582155358,614.5120729622431,"[77, 0, 177]",177,l,0.238611345179379,colour,0.06
167,28,1,2,9,16,416,615.0211743549444,615.8641837025061,"[67, 0, 187]",187,a,0.3259467473253608,colour,0.06
167,28,1,2,9,17,417,616.3728388673626,617.0882778759114,"[90, 0, 164]",164,l,0.19834529468789697,colour,0.06
167,28,1,2,9,18,418,617.5982512440532,618.6322779832408,"[71, 0, 183]",183,l,0.5172414067201316,colour,0.06
167,28,1,2,9,19,419,619.140999707859,619.8881315225735,"[88, 0, 166]",166,l,0.23047211905941367,colour,0.06
167,28,1,2,9,20,420,620.3979568043724,621.2001695903018,"[63, 0, 191]",191,a,0.28498122561722994,colour,0.06
167,28,1,2,9,21,421,621.7093237582594,622.4720743331127,"[59, 0, 195]",195,a,0.24620706401765347,colour,0.06
167,28,1,2,9,22,422,622.9811190115288,623.8161541544832,"[66, 0, 188]",188,a,0.3186582289636135,colour,0.06
167,28,1,2,9,23,423,624.3253945750184,625.064118954353,"[75, 0, 179]",179,l,0.22180986544117332,colour,0.06
167,28,1,2,9,24,424,625.5725618358701,626.200107362587,"[86, 0, 168]",168,l,0.11132142506539822,colour,0.06
167,28,1,2,9,25,425,626.7089149458334,627.504102696199,"[99, 0, 155]",155,l,0.2781672915443778,colour,0.06
167,28,1,2,9,26,426,628.0137491719797,628.7121397587471,"[74, 0, 180]",180,l,0.18173994962126017,colour,0.06
167,28,1,2,9,27,427,629.221233274322,630.0001335139386,"[89, 0, 165]",165,l,0.26249969471246004,colour,0.06
167,28,1,2,9,28,428,630.5093077681959,631.2481187935919,"[87, 0, 167]",167,l,0.2206944925710559,colour,0.06
167,28,1,2,9,29,429,631.7574505861849,632.7841399698518,"[52, 0, 202]",202,a,0.5091766170226038,colour,0.06
167,28,1,2,9,30,430,633.293255541008,634.7841238221154,"[6, 0, 248]",248,a,0.9745835270732641,colour,0.06
167,28,1,2,9,31,431,635.2932819286361,637.0961228990927,"[81, 0, 173]",173,l,1.2860131026245654,colour,0.06
167,28,1,2,9,32,432,637.6056898175739,638.2241040193476,"[83, 0, 171]",171,l,0.10074862278997898,colour,0.06
167,28,1,2,9,33,433,638.7339769569226,639.3601597757079,"[58, 0, 196]",196,a,0.10933959065005183,colour,0.06
167,28,1,2,9,34,434,639.8688224232756,640.6241277293302,"[91, 0, 163]",163,l,0.23837503790855408,colour,0.06
167,28,1,2,9,35,435,641.1336946478114,641.7680820710957,"[44, 0, 210]",210,a,0.11766983196139336,colour,0.06
167,28,1,2,9,36,436,642.2770987870172,643.7921488331631,"[79, 0, 175]",175,l,0.9977672859095037,colour,0.06
167,28,1,2,9,37,437,644.3012470747344,645.0322792432271,"[51, 0, 203]",203,a,0.21479270700365305,colour,0.06
167,28,1,2,9,38,438,645.5413751220331,646.4081054343842,"[65, 0, 189]",189,l,0.35016277665272355,colour,0.06
167,28,1,2,9,39,439,646.9175419900566,648.208264705725,"[64, 0, 190]",190,l,0.7745194877497852,colour,0.06
167,28,1,2,9,40,440,648.7177264676429,649.4321237527765,"[76, 0, 178]",178,l,0.19775767577812076,colour,0.06
167,28,1,2,9,41,441,649.9412208129652,650.8401350579225,"[62, 0, 192]",192,a,0.38260467862710357,colour,0.06
167,28,1,2,9,42,442,651.3492179396562,652.1281138467602,"[93, 0, 161]",161,l,0.2621330237016082,colour,0.06
167,28,1,2,9,43,443,652.6379214054905,653.4881416838616,"[54, 0, 200]",200,a,0.3332943427376449,colour,0.06
167,28,1,2,9,44,444,653.9967531315051,654.8160935021006,"[98, 0, 156]",156,l,0.30202177027240396,colour,0.06
167,28,1,2,9,45,445,655.3261519409716,656.2401567981578,"[97, 0, 157]",157,l,0.3971226383000612,colour,0.06
167,28,1,2,9,46,446,656.7491443692707,657.8641281700693,"[94, 0, 160]",160,l,0.5977530283853412,colour,0.06
167,28,1,2,9,47,447,658.3732858826406,659.048110680189,"[50, 0, 204]",204,a,0.15771099692210555,colour,0.06
167,28,1,2,9,48,448,659.5572242820635,663.272126478143,"[95, 0, 159]",159,l,3.198648556135595,colour,0.06
167,28,1,2,9,49,449,663.7812408679165,664.640149787534,"[57, 0, 197]",197,a,0.34271632600575686,colour,0.06
167,28,1,2,9,50,450,665.1491830446757,665.8641139916144,"[85, 0, 169]",169,l,0.19861941132694483,colour,0.06
167,28,1,2,10,1,451,671.3804487641901,673.7201308989897,"[62, 0, 192]",192,a,1.8218661067076027,colour,0.06
167,28,1,2,10,2,452,674.229488291312,675.1201089220122,"[70, 0, 184]",184,l,0.3736643688753247,colour,0.06
167,28,1,2,10,3,453,675.628355668392,676.2721583796665,"[78, 0, 176]",176,l,0.12748802499845624,colour,0.06
167,28,1,2,10,4,454,676.7812219629996,677.760178365279,"[34, 0, 220]",220,a,0.46304304525256157,colour,0.06
167,28,1,2,10,5,455,678.2698823423125,679.0241124480963,"[84, 0, 170]",170,l,0.23595248954370618,colour,0.06
167,28,1,2,10,6,456,679.5331638217904,680.840127968695,"[60, 0, 194]",194,a,0.7906242543831468,colour,0.06
167,28,1,2,10,7,457,681.3492833180353,685.4481146973558,"[85, 0, 169]",169,l,3.5825608037412167,colour,0.06
167,28,1,2,10,8,458,685.9574496410787,687.5520916781388,"[61, 0, 193]",193,a,1.0776778985746205,colour,0.06
167,28,1,2,10,9,459,688.0607436918654,690.1841648607515,"[92, 0, 162]",162,l,1.6064054360613227,colour,0.06
167,28,1,2,10,10,460,690.6933473856188,691.8241267837584,"[63, 0, 191]",191,a,0.6140803177841008,colour,0.06
167,28,1,2,10,11,461,692.3336905520409,693.7440932909958,"[66, 0, 188]",188,a,0.8939265757799149,colour,0.06
167,28,1,2,10,12,462,694.252401871141,696.8641179301776,"[86, 0, 168]",168,l,2.0948310834355652,colour,0.06
167,28,1,2,10,13,463,697.3729014890268,698.9761222847737,"[53, 0, 201]",201,a,1.0864685466513038,colour,0.06
167,28,1,2,10,14,464,699.4857585201971,700.8001443054527,"[73, 0, 181]",181,l,0.7981022126041353,colour,0.06
167,28,1,2,10,15,465,701.3093197410926,701.9201216828078,"[81, 0, 173]",173,l,0.09413318801671267,colour,0.06
167,28,1,2,10,16,466,702.4295633584261,703.0961512560025,"[82, 0, 172]",172,l,0.15033110650256276,colour,0.06
167,28,1,2,10,17,467,703.6048903097399,704.2480947687291,"[17, 0, 237]",237,a,0.1264167632907629,colour,0.06
167,28,1,2,10,18,468,704.7564710904844,705.400219057221,"[56, 0, 198]",198,a,0.12678500963374972,colour,0.06
167,28,1,2,10,19,469,705.9092341973446,706.6321452567354,"[79, 0, 175]",175,l,0.20616511115804315,colour,0.06
167,28,1,2,10,20,470,707.1415822063573,707.8641919731162,"[74, 0, 180]",180,l,0.20547903096303344,colour,0.06
167,28,1,2,10,21,471,708.3738030027598,711.8802475086413,"[98, 0, 156]",156,l,2.9886662866920233,colour,0.06
167,28,1,2,10,22,472,712.3896690984257,714.9521303535439,"[67, 0, 187]",187,l,2.046183590311557,colour,0.06
167,28,1,2,10,23,473,715.4608548353426,716.2001849501394,"[96, 0, 158]",158,l,0.22317769285291433,colour,0.06
167,28,1,2,10,24,474,716.7097148476169,717.5121820578352,"[71, 0, 183]",183,l,0.2862482285127044,colour,0.06
167,28,1,2,10,25,475,718.0219447184354,718.6001149243675,"[83, 0, 171]",171,l,0.06057985173538327,colour,0.06
167,28,1,2,10,26,476,719.1098161446862,719.912138025742,"[76, 0, 178]",178,l,0.28553615463897586,colour,0.06
167,28,1,2,10,27,477,720.4222216708586,721.4641639315523,"[54, 0, 200]",200,a,0.524731180164963,colour,0.06
167,28,1,2,10,28,478,721.9732830473222,723.0801362865604,"[65, 0, 189]",189,l,0.5896606701426208,colour,0.06
167,28,1,2,10,29,479,723.589647279121,724.160217828583,"[88, 0, 166]",166,l,0.05442600464448333,colour,0.06
167,28,1,2,10,30,480,724.6691916147247,725.6961350296624,"[75, 0, 179]",179,l,0.5081301680766046,colour,0.06
167,28,1,2,10,31,481,726.205157652963,727.712108251173,"[58, 0, 196]",196,a,0.9906563921831548,colour,0.06
167,28,1,2,10,32,482,728.2218460990116,730.8161584869958,"[64, 0, 190]",190,a,2.0773317078128457,colour,0.06
167,28,1,2,10,33,483,731.3252586978488,731.9681275999174,"[91, 0, 163]",163,l,0.12516118166968226,colour,0.06
167,28,1,2,10,34,484,732.4772297800519,734.0801551910117,"[50, 0, 204]",204,a,1.0866623185575008,colour,0.06
167,28,1,2,10,35,485,734.5892372853123,735.3841320141219,"[55, 0, 199]",199,a,0.2786974087357521,colour,0.06
167,28,1,2,10,36,486,735.8938257512636,736.5041483822279,"[97, 0, 157]",157,l,0.09366293530911207,colour,0.06
167,28,1,2,10,37,487,737.0137735903263,738.0802442003042,"[13, 0, 241]",241,a,0.5498707788065076,colour,0.06
167,28,1,2,10,38,488,738.5893597714603,740.1841235072352,"[69, 0, 185]",185,l,1.0785120646469295,colour,0.06
167,28,1,2,10,39,489,740.69335801946,742.1921579702757,"[72, 0, 182]",182,l,0.9821768826805055,colour,0.06
167,28,1,2,10,40,490,742.7016752641648,743.7281468510628,"[80, 0, 174]",174,l,0.50971894338727,colour,0.06
167,28,1,2,10,41,491,744.2371923173778,745.4641714147292,"[52, 0, 202]",202,a,0.7101984908804297,colour,0.06
167,28,1,2,10,42,492,745.9732869854197,747.7281228266656,"[90, 0, 164]",164,l,1.2378216837532818,colour,0.06
167,28,1,2,10,43,493,748.2373931789771,749.1122130928561,"[93, 0, 161]",161,l,0.3577269874513149,colour,0.06
167,28,1,2,10,44,494,749.6210269778967,750.6321086292155,"[59, 0, 195]",195,a,0.49399896524846554,colour,0.06
167,28,1,2,10,45,495,751.1409741076641,752.192183570005,"[95, 0, 159]",159,l,0.5343158217146993,colour,0.06
167,28,1,2,10,46,496,752.7016516337171,753.6801460538991,"[57, 0, 197]",197,a,0.4623498753644526,colour,0.06
167,28,1,2,10,47,497,754.1891619819216,755.1201443681493,"[68, 0, 186]",186,a,0.4137693368829787,colour,0.06
167,28,1,2,10,48,498,755.6293906965293,756.488137351349,"[87, 0, 167]",167,l,0.34224410401657224,colour,0.06
167,28,1,2,10,49,499,756.9971702150069,757.896209702827,"[77, 0, 177]",177,l,0.38200012454763055,colour,0.06
167,28,1,2,10,50,500,758.4045245843008,758.9602400413714,"[94, 0, 160]",160,l,0.038188118021935225,colour,0.06
167,28,1,2,11,1,501,764.3723174147308,770.8641305333003,"[63, 0, 191]",191,l,5.974470887333155,colour,0.06
167,28,1,2,11,2,502,771.3734520860016,773.8321376163512,"[59, 0, 195]",195,a,1.942282228730619,colour,0.06
167,28,1,2,11,3,503,774.3418179629371,775.1761489086784,"[58, 0, 196]",196,a,0.3173412070609629,colour,0.06
167,28,1,2,11,4,504,775.6850797655061,776.4081373359077,"[39, 0, 215]",215,a,0.20662079146131873,colour,0.06
167,28,1,2,11,5,505,776.917156020645,777.4562039053999,"[96, 0, 158]",158,l,0.02145437989383936,colour,0.06
167,28,1,2,11,6,506,777.964240337722,778.6881872126833,"[76, 0, 178]",178,l,0.20653729606419802,colour,0.06
167,28,1,2,11,7,507,779.1976375528611,780.0161630553193,"[38, 0, 216]",216,a,0.301117105409503,colour,0.06
167,28,1,2,11,8,508,780.5252585406415,781.3521430357359,"[53, 0, 201]",201,a,0.3104886766523123,colour,0.06
167,28,1,2,11,9,509,781.8608553078957,782.6881438894197,"[83, 0, 171]",171,l,0.31102627655491233,colour,0.06
167,28,1,2,11,10,510,783.1973299589008,784.0081738848239,"[81, 0, 173]",173,l,0.29398651933297515,colour,0.06
167,28,1,2,11,11,511,784.5171598801389,785.6561257662252,"[55, 0, 199]",199,a,0.6219726023264229,colour,0.06
167,28,1,2,11,12,512,786.165562715847,788.032182357274,"[62, 0, 192]",192,a,1.3497212752699852,colour,0.06
167,28,1,2,11,13,513,788.5414605867118,791.0161969261244,"[61, 0, 193]",193,a,1.958423228468746,colour,0.06
167,28,1,2,11,14,514,791.5252660233527,793.6721308892593,"[95, 0, 159]",159,l,1.6303847641684115,colour,0.06
167,28,1,2,11,15,515,794.1811893526465,798.3361792662181,"[73, 0, 181]",181,a,3.6380285318009555,colour,0.06
167,28,1,2,11,16,516,798.844401200302,799.8641525888816,"[52, 0, 202]",202,a,0.5035261055454612,colour,0.06
167,28,1,2,11,17,517,800.3724639257416,802.9201382244937,"[65, 0, 189]",189,a,2.030662111006677,colour,0.06
167,28,1,2,11,18,518,803.428700835444,807.6323189428076,"[57, 0, 197]",197,a,3.687626768834889,colour,0.06
167,28,1,2,11,19,519,808.1410867478698,812.4721251390874,"[89, 0, 165]",165,l,3.814006904605776,colour,0.06
167,28,1,2,11,20,520,812.9812430734746,813.9041453106329,"[50, 0, 204]",204,l,0.4065343816764653,colour,0.06
167,28,1,2,11,21,521,814.4130210289732,815.1601634775288,"[78, 0, 176]",176,l,0.2295426419004798,colour,0.06
167,28,1,2,11,22,522,815.6691538058221,816.5121383410878,"[77, 0, 177]",177,l,0.32672223076224327,colour,0.06
167,28,1,2,11,23,523,817.0212539117783,817.9041126212105,"[60, 0, 194]",194,l,0.3665775000117719,colour,0.06
167,28,1,2,11,24,524,818.4134865552187,819.2641562120989,"[70, 0, 184]",184,l,0.3336302936077118,colour,0.06
167,28,1,2,11,25,525,819.7732422444969,822.9681602893397,"[72, 0, 182]",182,l,2.677761315368116,colour,0.06
167,28,1,2,11,26,526,823.477313275449,824.0801823665388,"[67, 0, 187]",187,l,0.08627674309536815,colour,0.06
167,28,1,2,11,27,527,824.5892908484675,825.1521309837699,"[92, 0, 162]",162,l,0.04648409504443407,colour,0.06
167,28,1,2,11,28,528,825.6609814963304,826.4561483729631,"[85, 0, 169]",169,l,0.27866983972489834,colour,0.06
167,28,1,2,11,29,529,826.9652867871337,827.8801939454861,"[69, 0, 185]",185,l,0.3985180351883173,colour,0.06
167,28,1,2,11,30,530,828.3875832888298,828.9442695765756,"[91, 0, 163]",163,l,0.039250321220606565,colour,0.06
167,28,1,2,11,31,531,829.4539448032156,830.5121564576402,"[54, 0, 200]",200,a,0.5413904818706214,colour,0.06
167,28,1,2,11,32,532,831.0217288904823,832.144172926899,"[98, 0, 156]",156,l,0.6052569807507098,colour,0.06
167,28,1,2,11,33,533,832.6532707749866,833.2881816197187,"[87, 0, 167]",167,l,0.1166178691200912,colour,0.06
167,28,1,2,11,34,534,833.7972767110914,834.7121448786929,"[75, 0, 179]",179,l,0.3980162753723562,colour,0.06
167,28,1,2,11,35,535,835.2211686833762,836.0401786169969,"[71, 0, 183]",183,l,0.3019016468897462,colour,0.06
167,28,1,2,11,36,536,836.5493548405357,838.2241800320335,"[66, 0, 188]",188,a,1.1580280433408916,colour,0.06
167,28,1,2,11,37,537,838.7338580153883,839.3922330373898,"[84, 0, 170]",170,l,0.14231200329959393,colour,0.06
167,28,1,2,11,38,538,839.9012592053041,840.5442305072211,"[94, 0, 160]",160,l,0.12667591404169798,colour,0.06
167,28,1,2,11,39,539,841.0532775488682,841.8241149685346,"[49, 0, 205]",205,a,0.25248576048761606,colour,0.06
167,28,1,2,11,40,540,842.3340717949905,843.0081557678059,"[93, 0, 161]",161,l,0.15773659711703658,colour,0.06
167,28,1,2,11,41,541,843.51716224337,846.0241927923635,"[86, 0, 168]",168,l,1.9904378070496023,colour,0.06
167,28,1,2,11,42,542,846.5332784312777,847.2161558088847,"[74, 0, 180]",180,l,0.16590772522613406,colour,0.06
167,28,1,2,11,43,543,847.725587638095,848.9681535935961,"[99, 0, 155]",155,l,0.7256924011744559,colour,0.06
167,28,1,2,11,44,544,849.4771620384417,850.7601779713295,"[51, 0, 203]",203,a,0.7666953387670219,colour,0.06
167,28,1,2,11,45,545,851.2701867856085,852.7122051371261,"[68, 0, 186]",186,l,0.9236249448731542,colour,0.06
167,28,1,2,11,46,546,853.2217043144628,854.2801585784182,"[90, 0, 164]",164,l,0.5420954669825733,colour,0.06
167,28,1,2,11,47,547,854.7893722169101,855.4404087020084,"[80, 0, 174]",174,l,0.13498291885480285,colour,0.06
167,28,1,2,11,48,548,855.9491859590635,857.0881624789909,"[97, 0, 157]",157,l,0.6220860304310918,colour,0.06
167,28,1,2,11,49,549,857.5973127083853,858.4161257189699,"[88, 0, 166]",166,l,0.30097847152501345,colour,0.06
167,28,1,2,11,50,550,858.925247985404,859.544174187351,"[56, 0, 198]",198,a,0.1025717374868691,colour,0.06
167,28,1,2,12,1,551,864.3643613271415,865.3761436310597,"[55, 0, 199]",199,a,0.494393992703408,colour,0.06
167,28,1,2,12,2,552,865.8852343899198,866.4641505405307,"[83, 0, 171]",171,l,0.0614171689376235,colour,0.06
167,28,1,2,12,3,553,866.9732566592284,867.784279785119,"[60, 0, 194]",194,a,0.2947525503113866,colour,0.06
167,28,1,2,12,4,554,868.2933697560802,869.2481656610034,"[50, 0, 204]",204,a,0.43860252294689417,colour,0.06
167,28,1,2,12,5,555,869.7564817243256,870.472184216138,"[76, 0, 178]",178,l,0.19866194669157267,colour,0.06
167,28,1,2,12,6,556,870.9808913688175,871.6482480540872,"[53, 0, 201]",201,a,0.1498352545313537,colour,0.06
167,28,1,2,12,7,557,872.1573778032325,874.8481959085912,"[66, 0, 188]",188,l,2.1743116159923375,colour,0.06
167,28,1,2,12,8,558,875.357454052195,875.9841595045291,"[94, 0, 160]",160,l,0.10997013840824366,colour,0.06
167,28,1,2,12,9,559,876.4936149651185,877.1921686041169,"[96, 0, 158]",158,l,0.18164660828188062,colour,0.06
167,28,1,2,12,10,560,877.7012243103236,878.5283403871581,"[84, 0, 170]",170,l,0.3104512612335384,colour,0.06
167,28,1,2,12,11,561,879.0370136690326,880.0801465264522,"[68, 0, 186]",186,l,0.5248784786090255,colour,0.06
167,28,1,2,12,12,562,880.5888855806552,881.1761536346748,"[87, 0, 167]",167,l,0.07099393382668495,colour,0.06
167,28,1,2,12,13,563,881.6849048980512,882.2561473487876,"[80, 0, 174]",174,l,0.05432872427627444,colour,0.06
167,28,1,2,12,14,564,882.7654433017597,883.6641708631068,"[63, 0, 191]",191,a,0.3824573797173798,colour,0.06
167,28,1,2,12,15,565,884.1738760219887,884.8481569178402,"[93, 0, 161]",161,l,0.15708044916391373,colour,0.06
167,28,1,2,12,16,566,885.3578994921409,885.9842036152259,"[67, 0, 187]",187,a,0.10967435967177153,colour,0.06
167,28,1,2,12,17,567,886.4931963062845,887.6242699078284,"[77, 0, 177]",177,l,0.6148313828743994,colour,0.06
167,28,1,2,12,18,568,888.1330656753853,888.888140975032,"[90, 0, 164]",164,l,0.2384798009879887,colour,0.06
167,28,1,2,12,19,569,889.3969032657333,890.0721868942492,"[52, 0, 202]",202,a,0.1580134709365666,colour,0.06
167,28,1,2,12,20,570,890.581321763806,891.3841619463637,"[81, 0, 173]",173,l,0.2865924499928951,colour,0.06
167,28,1,2,12,21,571,891.8937261081301,892.4881342006847,"[56, 0, 198]",198,a,0.07731516566127539,colour,0.06
167,28,1,2,12,22,572,892.9972316548228,894.3921424527653,"[71, 0, 183]",183,l,0.8769663758575916,colour,0.06
167,28,1,2,12,23,573,894.9012989834882,896.2641975660808,"[98, 0, 156]",156,l,0.8460718961432576,colour,0.06
167,28,1,2,12,24,574,896.773257998284,897.400161949452,"[57, 0, 197]",197,a,0.11067709233611822,colour,0.06
167,28,1,2,12,25,575,897.9095094962977,898.7521655634046,"[89, 0, 165]",165,l,0.3259061807766557,colour,0.06
167,28,1,2,12,26,576,899.2610566420481,901.2641684212722,"[72, 0, 182]",182,l,1.4866596404463053,colour,0.06
167,28,1,2,12,27,577,901.773549051024,903.0002244925126,"[75, 0, 179]",179,l,0.7097514751367271,colour,0.06
167,28,1,2,12,28,578,903.5094152879901,905.9441585121676,"[62, 0, 192]",192,a,1.9180535962805152,colour,0.06
167,28,1,2,12,29,579,906.4531819233671,907.8643168224953,"[70, 0, 184]",184,l,0.8931117081083357,colour,0.06
167,28,1,2,12,30,580,908.3734036427923,908.9761782106943,"[97, 0, 157]",157,l,0.08572063222527504,colour,0.06
167,28,1,2,12,31,581,909.4849712215364,910.0481453388929,"[51, 0, 203]",203,a,0.04644313547760248,colour,0.06
167,28,1,2,12,32,582,910.5574688604102,911.9361913967878,"[59, 0, 195]",195,a,0.8617229512892663,colour,0.06
167,28,1,2,12,33,583,912.445210869424,913.0481693632901,"[73, 0, 181]",181,l,0.08676590025424957,colour,0.06
167,28,1,2,12,34,584,913.5574913099408,914.2161723501049,"[31, 0, 223]",223,a,0.14177676616236567,colour,0.06
167,28,1,2,12,35,585,914.7252071830444,915.3761408743449,"[78, 0, 176]",176,l,0.13423579279333353,colour,0.06
167,28,1,2,12,36,586,915.8848897744901,916.4242369821295,"[79, 0, 175]",175,l,0.02311719860881567,colour,0.06
167,28,1,2,12,37,587,916.9334903992712,917.4802367961966,"[10, 0, 244]",244,a,0.030666837003082037,colour,0.06
167,28,1,2,12,38,588,917.9894835180603,919.0801776405424,"[99, 0, 155]",155,l,0.5735767777077854,colour,0.06
167,28,1,2,12,39,589,919.5892617036588,920.5921675013378,"[85, 0, 169]",169,l,0.4859924651682377,colour,0.06
167,28,1,2,12,40,590,921.1013200939633,921.8001313083805,"[37, 0, 217]",217,a,0.18185967905446887,colour,0.06
167,28,1,2,12,41,591,922.309604098089,923.160195379518,"[64, 0, 190]",190,l,0.33336523501202464,colour,0.06
167,28,1,2,12,42,592,923.6692380886525,924.6242703013122,"[65, 0, 189]",189,l,0.43834731075912714,colour,0.06
167,28,1,2,12,43,593,925.1341314231977,925.7281759958714,"[82, 0, 172]",172,l,0.07775076013058424,colour,0.06
167,28,1,2,12,44,594,926.2374309883453,927.8001600592397,"[61, 0, 193]",193,l,1.0464368336834013,colour,0.06
167,28,1,2,12,45,595,928.3091263626702,929.1521747009829,"[91, 0, 163]",163,l,0.32674625515937805,colour,0.06
167,28,1,2,12,46,596,929.6615009796806,930.4642631807365,"[95, 0, 159]",159,l,0.28666688734665513,colour,0.06
167,28,1,2,12,47,597,930.9734331024811,931.784175415989,"[74, 0, 180]",180,l,0.2944288086146116,colour,0.06
167,28,1,2,12,48,598,932.2933291899972,933.0401987032965,"[86, 0, 168]",168,l,0.22926340531557798,colour,0.06
167,28,1,2,12,49,599,933.5484493882395,934.384151706472,"[54, 0, 200]",200,a,0.31890989653766155,colour,0.06
167,28,1,2,12,50,600,934.8932113512419,936.1842156671919,"[88, 0, 166]",166,l,0.7746845097281039,colour,0.06
167,28,1,2,13,1,601,941.2204940249212,942.4962064730935,"[94, 0, 160]",160,l,0.7568318536505103,colour,0.06
167,28,1,2,13,2,602,943.0053913611919,944.0321815693751,"[98, 0, 156]",156,l,0.5097969248890877,colour,0.06
167,28,1,2,13,3,603,944.5412652390078,947.0321748740971,"[62, 0, 192]",192,l,1.973782837856561,colour,0.06
167,28,1,2,13,4,604,947.5412900513038,948.552174385637,"[61, 0, 193]",193,l,0.4945739805698395,colour,0.06
167,28,1,2,13,5,605,949.0611485657282,950.2081642746925,"[75, 0, 179]",179,l,0.6300929239951074,colour,0.06
167,28,1,2,13,6,606,950.716878910549,951.5921761658974,"[57, 0, 197]",197,a,0.3590440093539655,colour,0.06
167,28,1,2,13,7,607,952.1013149740174,952.848143920768,"[53, 0, 201]",201,a,0.230416193138808,colour,0.06
167,28,1,2,13,8,608,953.3574898918159,954.0642004804686,"[86, 0, 168]",168,l,0.19042347138747573,colour,0.06
167,28,1,2,13,9,609,954.572894636076,955.2723210384138,"[3, 0, 251]",251,a,0.18108655884861946,colour,0.06
167,28,1,2,13,10,610,955.7813976183534,956.7441992359236,"[52, 0, 202]",202,a,0.44652828481048346,colour,0.06
167,28,1,2,13,11,611,957.2520131450146,957.9362091198564,"[68, 0, 186]",186,l,0.1672787037678063,colour,0.06
167,28,1,2,13,12,612,958.4448138722219,959.136192814447,"[63, 0, 191]",191,l,0.17495752358809114,colour,0.06
167,28,1,2,13,13,613,959.6447621206753,960.3762176739983,"[70, 0, 184]",184,l,0.21393057750537992,colour,0.06
167,28,1,2,13,14,614,960.8852237560786,961.464196620509,"[91, 0, 163]",163,l,0.06268653506413102,colour,0.06
167,28,1,2,13,15,615,961.9733236134052,962.5362275517546,"[95, 0, 159]",159,l,0.04640808282420039,colour,0.06
167,28,1,2,13,16,616,963.04449635325,963.6082265814766,"[50, 0, 204]",204,a,0.04657231690362096,colour,0.06
167,28,1,2,13,17,617,964.1186347557232,964.8802317548543,"[64, 0, 190]",190,a,0.24561511306092143,colour,0.06
167,28,1,2,13,18,618,965.3899648766965,965.9682024307549,"[90, 0, 164]",164,l,0.06087366119027138,colour,0.06
167,28,1,2,13,19,619,966.4770990232937,967.1122418437153,"[59, 0, 195]",195,a,0.11777223227545619,colour,0.06
167,28,1,2,13,20,620,967.6213499316946,968.2801782707684,"[96, 0, 158]",158,l,0.14117693854495883,colour,0.06
167,28,1,2,13,21,621,968.7878228258342,969.4321631374769,"[60, 0, 194]",194,a,0.1271571940742433,colour,0.06
167,28,1,2,13,22,622,969.9417954348028,970.664159047883,"[46, 0, 208]",208,l,0.20552077889442444,colour,0.06
167,28,1,2,13,23,623,971.1732167233713,971.7601610356942,"[83, 0, 171]",171,l,0.07057763822376728,colour,0.06
167,28,1,2,13,24,624,972.2689371113665,972.9441506350413,"[81, 0, 173]",173,l,0.15889017283916473,colour,0.06
167,28,1,2,13,25,625,973.4533847537823,974.1521719438024,"[89, 0, 165]",165,l,0.18025002907961607,colour,0.06
167,28,1,2,13,26,626,974.66138243163,975.3043352230452,"[72, 0, 182]",182,l,0.12677083117887378,colour,0.06
167,28,1,2,13,27,627,975.8132077911869,976.5121958423406,"[66, 0, 188]",188,l,0.18205187562853098,colour,0.06
167,28,1,2,13,28,628,977.0216457890347,977.5841673025861,"[97, 0, 157]",157,l,0.046278901398181915,colour,0.06
167,28,1,2,13,29,629,978.0930402646773,978.7442157771438,"[65, 0, 189]",189,l,0.13437363831326365,colour,0.06
167,28,1,2,13,30,630,979.2531013423577,979.9202197506092,"[12, 0, 242]",242,a,0.14923030650243163,colour,0.06
167,28,1,2,13,31,631,980.4289048477076,981.0001508430578,"[79, 0, 175]",175,l,0.05460165999829769,colour,0.06
167,28,1,2,13,32,632,981.5091663771309,982.1841896730475,"[93, 0, 161]",161,l,0.15764286182820797,colour,0.06
167,28,1,2,13,33,633,982.6928440504707,983.4001536788419,"[88, 0, 166]",166,l,0.19020212953910232,colour,0.06
167,28,1,2,13,34,634,983.9092999696732,984.528184030205,"[99, 0, 155]",155,l,0.1024768203496933,colour,0.06
167,28,1,2,13,35,635,985.0360688315704,985.6321940938942,"[80, 0, 174]",174,l,0.07796658761799335,colour,0.06
167,28,1,2,13,36,636,986.1404947969131,986.7042837077752,"[58, 0, 196]",196,a,0.046187922824174166,colour,0.06
167,28,1,2,13,37,637,987.2132901838049,987.792185460683,"[51, 0, 203]",203,a,0.062352947890758514,colour,0.06
167,28,1,2,13,38,638,988.3013116656803,988.9121711091138,"[54, 0, 200]",200,a,0.09375312644988298,colour,0.06
167,28,1,2,13,39,639,989.4212697446346,990.0401861001737,"[71, 0, 183]",183,l,0.10159263527020812,colour,0.06
167,28,1,2,13,40,640,990.5497423852794,991.5283136055805,"[85, 0, 169]",169,l,0.46225653402507305,colour,0.06
167,28,1,2,13,41,641,992.0373653736897,992.5841743918136,"[67, 0, 187]",187,l,0.02870823908597231,colour,0.06
167,28,1,2,13,42,642,993.0934073291719,993.8481951211579,"[92, 0, 162]",162,l,0.2384731057099998,colour,0.06
167,28,1,2,13,43,643,994.3574469629675,994.8962301826105,"[87, 0, 167]",167,l,0.02249649679288268,colour,0.06
167,28,1,2,13,44,644,995.4053382705897,996.000239064917,"[76, 0, 178]",178,l,0.07798785576596856,colour,0.06
167,28,1,2,13,45,645,996.5093833864667,997.1762060164474,"[78, 0, 176]",176,l,0.149710011202842,colour,0.06
167,28,1,2,13,46,646,997.6852203686722,998.4721767329611,"[73, 0, 181]",181,l,0.2699193637818098,colour,0.06
167,28,1,2,13,47,647,998.9812359842472,999.5921663199551,"[56, 0, 198]",198,a,0.09430096624419093,colour,0.06
167,28,1,2,13,48,648,1000.1016406845301,1001.376212160103,"[82, 0, 172]",172,l,0.7579645551741123,colour,0.06
167,28,1,2,13,49,649,1001.8861780455336,1003.4011867376976,"[74, 0, 180]",180,a,0.9978834707289934,colour,0.06
167,28,1,2,13,50,650,1003.9103802898899,1004.6482102447189,"[84, 0, 170]",170,l,0.22090086806565523,colour,0.06
167,28,1,2,14,1,651,1009.9324407991953,1011.0962627143599,"[74, 0, 180]",180,l,0.6464032782241702,colour,0.06
167,28,1,2,14,2,652,1011.6053885254078,1012.22425249964,"[73, 0, 181]",181,l,0.1018742355518043,colour,0.06
167,28,1,2,14,3,653,1012.7333928830922,1013.3361871433444,"[90, 0, 164]",164,l,0.08650950621813536,colour,0.06
167,28,1,2,14,4,654,1013.8446119078435,1014.4882039115764,"[76, 0, 178]",178,l,0.1265061665326357,colour,0.06
167,28,1,2,14,5,655,1014.9973159381188,1015.5441938797012,"[85, 0, 169]",169,a,0.030002024490386248,colour,0.06
167,28,1,2,14,6,656,1016.0541278631426,1016.6962086786516,"[80, 0, 174]",174,l,0.12590515706688166,colour,0.06
167,28,1,2,14,7,657,1017.2053463049233,1017.8081795559265,"[78, 0, 176]",176,l,0.08577025681734085,colour,0.06
167,28,1,2,14,8,658,1018.31735026557,1018.9361937600188,"[79, 0, 175]",175,l,0.10132324462756515,colour,0.06
167,28,1,2,14,9,659,1019.4454893185757,1019.9922219309956,"[56, 0, 198]",198,a,0.030267870519310236,colour,0.06
167,28,1,2,14,10,660,1020.5014123325236,1021.1201888727956,"[81, 0, 173]",173,a,0.1011881553567946,colour,0.06
167,28,1,2,14,11,661,1021.629918450024,1022.2882560566068,"[75, 0, 179]",179,l,0.14131911704316735,colour,0.06
167,28,1,2,14,12,662,1022.7976634679362,1023.6962866601534,"[57, 0, 197]",197,a,0.38108443189412355,colour,0.06
167,28,1,2,14,13,663,1024.2055625268258,1024.8002073206007,"[99, 0, 155]",155,l,0.0776416645385325,colour,0.06
167,28,1,2,14,14,664,1025.3092642086558,1025.952167375479,"[62, 0, 192]",192,a,0.12582244956865907,colour,0.06
167,28,1,2,14,15,665,1026.4612226877362,1027.1843007379211,"[54, 0, 200]",200,a,0.20689884712919593,colour,0.06
167,28,1,2,14,16,666,1027.693371804431,1028.304217856843,"[88, 0, 166]",166,l,0.09396974137052894,colour,0.06
167,28,1,2,14,17,667,1028.8134763939306,1029.360213338863,"[93, 0, 161]",161,l,0.029822824522852898,colour,0.06
167,28,1,2,14,18,668,1029.8694454883225,1031.320328924805,"[67, 0, 187]",187,l,0.9337909040041268,colour,0.06
167,28,1,2,14,19,669,1031.8289947235025,1032.624176172074,"[53, 0, 201]",201,a,0.2786127314902842,colour,0.06
167,28,1,2,14,20,670,1033.133941589389,1034.1122698066756,"[66, 0, 188]",188,l,0.4621013584546745,colour,0.06
167,28,1,2,14,21,671,1034.6214015255682,1035.360202705022,"[95, 0, 159]",159,l,0.22167398827150464,colour,0.06
167,28,1,2,14,22,672,1035.870218214579,1036.5681909304112,"[94, 0, 160]",160,l,0.17900626314803958,colour,0.06
167,28,1,2,14,23,673,1037.0781946247444,1037.7282291650772,"[51, 0, 203]",203,a,0.13388999551534653,colour,0.06
167,28,1,2,14,24,674,1038.2371678990312,1038.9682000675239,"[70, 0, 184]",184,l,0.21264270041137934,colour,0.06
167,28,1,2,14,25,675,1039.4776760078967,1040.0962363267317,"[97, 0, 157]",157,l,0.10248509095981717,colour,0.06
167,28,1,2,14,26,676,1040.6053885254078,1041.368218657095,"[59, 0, 195]",195,l,0.24648314993828535,colour,0.06
167,28,1,2,14,27,677,1041.8774287514389,1042.480236402247,"[23, 0, 231]",231,a,0.08569581992924213,colour,0.06
167,28,1,2,14,28,678,1042.9890152346343,1043.680218915455,"[87, 0, 167]",167,l,0.1748696956783533,colour,0.06
167,28,1,2,14,29,679,1044.1893207021058,1044.872153181117,"[61, 0, 193]",193,a,0.16569110983982682,colour,0.06
167,28,1,2,14,30,680,1045.3809832134284,1046.1922855763696,"[69, 0, 185]",185,l,0.294298839289695,colour,0.06
167,28,1,2,14,31,681,1046.7014850368723,1047.2721969769336,"[82, 0, 172]",172,l,0.05372417066246271,colour,0.06
167,28,1,2,14,32,682,1047.7809978644364,1048.4641682635993,"[71, 0, 183]",183,l,0.1661979896016419,colour,0.06
167,28,1,2,14,33,683,1048.972852179315,1049.5681917183101,"[11, 0, 243]",243,a,0.07825173251330853,colour,0.06
167,28,1,2,14,34,684,1050.0769957569428,1051.1522006946616,"[65, 0, 189]",189,a,0.5578237161971629,colour,0.06
167,28,1,2,14,35,685,1051.6613115393557,1052.8882642486133,"[86, 0, 168]",168,l,0.7107983180321753,colour,0.06
167,28,1,2,14,36,686,1053.3970860107802,1054.0161910187453,"[52, 0, 202]",202,a,0.10206170659512281,colour,0.06
167,28,1,2,14,37,687,1054.525312103331,1055.736196280457,"[84, 0, 170]",170,l,0.6946907951496542,colour,0.06
167,28,1,2,14,38,688,1056.2448608973064,1056.9042035997845,"[68, 0, 186]",186,a,0.14247978199273348,colour,0.06
167,28,1,2,14,39,689,1057.4134022723883,1058.528224596288,"[64, 0, 190]",190,a,0.5980200562626123,colour,0.06
167,28,1,2,14,40,690,1059.0379128200002,1059.6081887721084,"[50, 0, 204]",204,l,0.053604047279804945,colour,0.06
167,28,1,2,14,41,691,1060.1171212047338,1060.6801594449207,"[63, 0, 191]",191,l,0.04558651987463236,colour,0.06
167,28,1,2,14,42,692,1061.188278584741,1061.7125316355377,"[83, 0, 171]",171,l,0.007076235022395849,colour,0.06
167,28,1,2,14,43,693,1062.2336146184243,1062.8483436009847,"[26, 0, 228]",228,a,0.09884673962369561,colour,0.06
167,28,1,2,14,44,694,1063.3575615719892,1064.024249506183,"[72, 0, 182]",182,l,0.1502243741415441,colour,0.06
167,28,1,2,14,45,695,1064.5333359329961,1065.1121804038994,"[91, 0, 163]",163,l,0.06180668296292424,colour,0.06
167,28,1,2,14,46,696,1065.6213668668643,1066.2642042613588,"[98, 0, 156]",156,l,0.1263545355759561,colour,0.06
167,28,1,2,14,47,697,1066.772814921569,1068.0001988923177,"[58, 0, 196]",196,a,0.7103544534184039,colour,0.06
167,28,1,2,14,48,698,1068.5093377004378,1069.4241739665158,"[60, 0, 194]",194,a,0.3987689153291285,colour,0.06
167,28,1,2,14,49,699,1069.9332462144084,1070.5921572614461,"[77, 0, 177]",177,l,0.14171217568218708,colour,0.06
167,28,1,2,14,50,700,1071.101836820133,1071.7281874171458,"[96, 0, 158]",158,a,0.10938724596053362,colour,0.06
167,28,1,2,15,1,701,1077.1793028293177,1079.208200902678,"[89, 0, 165]",165,l,1.511562931817025,colour,0.06
167,28,1,2,15,2,702,1079.7173877595924,1080.5441997870803,"[70, 0, 184]",184,l,0.30974863935261965,colour,0.06
167,28,1,2,15,3,703,1081.0541038382798,1081.696191743482,"[95, 0, 159]",159,l,0.12316241208463907,colour,0.06
167,28,1,2,15,4,704,1082.205388840288,1082.752216369845,"[97, 0, 157]",157,l,0.03002920001745224,colour,0.06
167,28,1,2,15,5,705,1083.262263386976,1083.8882158058695,"[67, 0, 187]",187,l,0.10873424913734198,colour,0.06
167,28,1,2,15,6,706,1084.3973624906503,1088.2082351674326,"[73, 0, 181]",181,l,3.2930408949032426,colour,0.06
167,28,1,2,15,7,707,1088.7173794889823,1089.2962188399397,"[88, 0, 166]",166,l,0.061870486009866,colour,0.06
167,28,1,2,15,8,708,1089.8052233462222,1090.344221606385,"[51, 0, 203]",203,a,0.021600890439003706,colour,0.06
167,28,1,2,15,9,709,1090.8530354909599,1091.4083070834167,"[53, 0, 201]",201,a,0.0371889304369688,colour,0.06
167,28,1,2,15,10,710,1091.9174793683924,1092.4402503757738,"[50, 0, 204]",204,a,0.006032542325556278,colour,0.06
167,28,1,2,15,11,711,1092.9516085074283,1093.584192902781,"[76, 0, 178]",178,l,0.11617124732583761,colour,0.06
167,28,1,2,15,12,712,1094.0929390462115,1095.040273534134,"[46, 0, 208]",208,a,0.430152946151793,colour,0.06
167,28,1,2,15,13,713,1095.54931309307,1096.160232794471,"[75, 0, 179]",179,l,0.09391302755102515,colour,0.06
167,28,1,2,15,14,714,1096.670210889075,1097.3122420799918,"[58, 0, 196]",196,a,0.12380831968039274,colour,0.06
167,28,1,2,15,15,715,1097.8217830047943,1098.6721872091293,"[93, 0, 161]",161,l,0.33343297615647316,colour,0.06
167,28,1,2,15,16,716,1099.181311444845,1100.5522173149511,"[91, 0, 163]",163,l,0.8548826300539076,colour,0.06
167,28,1,2,15,17,717,1101.06143843662,1101.8882500701584,"[62, 0, 192]",192,a,0.3097868422046304,colour,0.06
167,28,1,2,15,18,718,1102.3974656783976,1103.048188268207,"[52, 0, 202]",202,a,0.134060924872756,colour,0.06
167,28,1,2,15,19,719,1103.5574865834787,1104.3042375491932,"[55, 0, 199]",199,a,0.22977855615317822,colour,0.06
167,28,1,2,15,20,720,1104.8135035694577,1105.9444987950847,"[84, 0, 170]",170,l,0.6134218065999448,colour,0.06
167,28,1,2,15,21,721,1106.4539444092661,1107.480314383749,"[94, 0, 160]",160,l,0.5079891704954207,colour,0.06
167,28,1,2,15,22,722,1107.9899380165152,1108.6322189061902,"[96, 0, 158]",158,l,0.12421043682843447,colour,0.06
167,28,1,2,15,23,723,1109.1421375297941,1109.8482703454792,"[37, 0, 217]",217,a,0.1891316557303071,colour,0.06
167,28,1,2,15,24,724,1110.3577592829242,1111.3202186478302,"[61, 0, 193]",193,l,0.4459312139078975,colour,0.06
167,28,1,2,15,25,725,1111.8290868834592,1112.536202345509,"[68, 0, 186]",186,l,0.19100203132256866,colour,0.06
167,28,1,2,15,26,726,1113.0455353199504,1113.9122179765254,"[74, 0, 180]",180,l,0.35019467817619443,colour,0.06
167,28,1,2,15,27,727,1114.4212319352664,1115.0562203680165,"[80, 0, 174]",174,l,0.11837363569065928,colour,0.06
167,28,1,2,15,28,728,1115.5648645050824,1116.1362337744795,"[71, 0, 183]",183,l,0.05438504461199045,colour,0.06
167,28,1,2,15,29,729,1116.6447203732096,1117.5442679226398,"[66, 0, 188]",188,l,0.3825940447859466,colour,0.06
167,28,1,2,15,30,730,1118.0528959119692,1118.744254374411,"[83, 0, 171]",171,l,0.17454004660248756,colour,0.06
167,28,1,2,15,31,731,1119.2530005173758,1119.9362520491704,"[85, 0, 169]",169,l,0.16628857422620058,colour,0.06
167,28,1,2,15,32,732,1120.4449753491208,1121.0482461634092,"[56, 0, 198]",198,a,0.0861314139328897,colour,0.06
167,28,1,2,15,33,733,1121.5564885772765,1122.7763496912085,"[86, 0, 168]",168,l,0.7035905383527279,colour,0.06
167,28,1,2,15,34,734,1123.2854636870325,1123.9522110922262,"[57, 0, 197]",197,a,0.15045753121376038,colour,0.06
167,28,1,2,15,35,735,1124.4612731002271,1126.808248479385,"[64, 0, 190]",190,a,1.8307693945243955,colour,0.06
167,28,1,2,15,36,736,1127.3169639026746,1128.1042176205665,"[65, 0, 189]",189,a,0.27040970232337713,colour,0.06
167,28,1,2,15,37,737,1128.6135549270548,1129.8802687763236,"[7, 0, 247]",247,a,0.749836356844753,colour,0.06
167,28,1,2,15,38,738,1130.3892843103968,1131.7362002190202,"[92, 0, 162]",162,l,0.8299470436759293,colour,0.06
167,28,1,2,15,39,739,1132.2447963068262,1134.0322851510718,"[63, 0, 191]",191,a,1.2706133211031556,colour,0.06
167,28,1,2,15,40,740,1134.5419540759176,1135.6642185184173,"[69, 0, 185]",185,l,0.605786703992635,colour,0.06
167,28,1,2,15,41,741,1136.1733368462883,1136.9282372780144,"[54, 0, 200]",200,a,0.23857471765950322,colour,0.06
167,28,1,2,15,42,742,1137.4369334029034,1137.9762120814994,"[99, 0, 155]",155,l,0.020594219211488962,colour,0.06
167,28,1,2,15,43,743,1138.4853520710021,1139.248226313386,"[81, 0, 173]",173,l,0.2465245039202273,colour,0.06
167,28,1,2,15,44,744,1139.7564411582425,1140.8321903916076,"[78, 0, 176]",176,l,0.5587634332478046,colour,0.06
167,28,1,2,15,45,745,1141.341227193363,1142.384190697223,"[77, 0, 177]",177,l,0.5268130511976779,colour,0.06
167,28,1,2,15,46,746,1142.8932345882058,1143.568378007505,"[87, 0, 167]",167,l,0.15875350823625922,colour,0.06
167,28,1,2,15,47,747,1144.0774238677695,1144.8162234714255,"[79, 0, 175]",175,l,0.22212376073002815,colour,0.06
167,28,1,2,15,48,748,1145.3261346118525,1145.9682032181881,"[98, 0, 156]",156,l,0.12514857808128,colour,0.06
167,28,1,2,15,49,749,1146.4773093373515,1147.16821211949,"[60, 0, 194]",194,a,0.1746696224436164,colour,0.06
167,28,1,2,15,50,750,1147.6771622747183,1148.4002458387986,"[59, 0, 195]",195,a,0.20642426190897822,colour,0.06
167,28,1,2,16,1,751,1154.2127632172778,1154.8962018257007,"[74, 0, 180]",180,l,0.16619759565219283,colour,0.06
167,28,1,2,16,2,752,1155.4052579258569,1155.968237876892,"[84, 0, 170]",170,l,0.04578816890716553,colour,0.06
167,28,1,2,16,3,753,1156.4773739278316,1157.128199311439,"[88, 0, 166]",166,l,0.1334358910098672,colour,0.06
167,28,1,2,16,4,754,1157.6372432024218,1158.2402139059268,"[78, 0, 176]",176,l,0.08424646593630314,colour,0.06
167,28,1,2,16,5,755,1158.7492042337544,1159.304211161565,"[50, 0, 204]",204,a,0.03900613682344556,colour,0.06
167,28,1,2,16,6,756,1159.813588640187,1160.568571779877,"[90, 0, 164]",164,l,0.23867002874612808,colour,0.06
167,28,1,2,16,7,757,1161.0778444954194,1161.6642169430852,"[54, 0, 200]",200,a,0.06947841355577111,colour,0.06
167,28,1,2,16,8,758,1162.1736204158515,1162.8402933841571,"[79, 0, 175]",175,l,0.1504413834773004,colour,0.06
167,28,1,2,16,9,759,1163.349359724205,1164.024213666562,"[82, 0, 172]",172,l,0.15870782220736146,colour,0.06
167,28,1,2,16,10,760,1164.5332414098084,1165.1202700054273,"[57, 0, 197]",197,a,0.07066074013710022,colour,0.06
167,28,1,2,16,11,761,1165.6282233363017,1166.4482407281175,"[67, 0, 187]",187,a,0.3029729085974395,colour,0.06
167,28,1,2,16,12,762,1166.9574500345625,1167.680227973964,"[65, 0, 189]",189,a,0.2059248653240502,colour,0.06
167,28,1,2,16,13,763,1168.189322277438,1169.2242556503043,"[91, 0, 163]",163,l,0.5177813693881035,colour,0.06
167,28,1,2,16,14,764,1169.7333389259875,1170.4722436866723,"[81, 0, 173]",173,l,0.22162436321377754,colour,0.06
167,28,1,2,16,15,765,1170.981182421092,1171.688222264871,"[76, 0, 178]",178,l,0.18980276957154274,colour,0.06
167,28,1,2,16,16,766,1172.196917601861,1172.944268395193,"[70, 0, 184]",184,l,0.23080925177782774,colour,0.06
167,28,1,2,16,17,767,1173.4540208154358,1174.1202314081602,"[75, 0, 179]",179,l,0.1483319429680705,colour,0.06
167,28,1,2,16,18,768,1174.6284364070743,1175.1762390993536,"[40, 0, 214]",214,a,0.03086927393451333,colour,0.06
167,28,1,2,16,19,769,1175.685511814896,1176.816208111588,"[55, 0, 199]",199,a,0.6144060287624598,colour,0.06
167,28,1,2,16,20,770,1177.325188986957,1178.0162461572327,"[95, 0, 159]",159,l,0.1743529699742794,colour,0.06
167,28,1,2,16,21,771,1178.525894602295,1179.2642011106946,"[99, 0, 155]",155,l,0.22195992060005665,colour,0.06
167,28,1,2,16,22,772,1179.7734750076197,1180.4322545100003,"[85, 0, 169]",169,l,0.14263928961008787,colour,0.06
167,28,1,2,16,23,773,1180.9412527144887,1181.6882663755678,"[60, 0, 194]",194,a,0.22941227909177542,colour,0.06
167,28,1,2,16,24,774,1182.1971255526878,1182.7922240574844,"[56, 0, 198]",198,a,0.07831277837976813,colour,0.06
167,28,1,2,16,25,775,1183.301228563767,1183.9362327507697,"[71, 0, 183]",183,l,0.1180365034379065,colour,0.06
167,28,1,2,16,26,776,1184.4454597802833,1185.0482713696547,"[93, 0, 161]",161,l,0.08605815842747688,colour,0.06
167,28,1,2,16,27,777,1185.557424355764,1186.3602641448379,"[80, 0, 174]",174,l,0.28692209953442216,colour,0.06
167,28,1,2,16,28,778,1186.869402165059,1187.6082127969712,"[72, 0, 182]",182,l,0.22216708399355412,colour,0.06
167,28,1,2,16,29,779,1188.1173779922538,1188.7042679539882,"[77, 0, 177]",177,l,0.07047208771109581,colour,0.06
167,28,1,2,16,30,780,1189.2125588110648,1189.848228204064,"[89, 0, 165]",165,l,0.11912312498316169,colour,0.06
167,28,1,2,16,31,781,1190.3574824091047,1191.1362546482123,"[68, 0, 186]",186,l,0.26246346067637205,colour,0.06
167,28,1,2,16,32,782,1191.6447896901518,1192.240215481259,"[94, 0, 160]",160,l,0.07904296927154064,colour,0.06
167,28,1,2,16,33,783,1192.7492601601407,1193.5443061254919,"[96, 0, 158]",158,l,0.2771688913926482,colour,0.06
167,28,1,2,16,34,784,1194.0529455365613,1194.7843561912887,"[69, 0, 185]",185,l,0.21509990701451898,colour,0.06
167,28,1,2,16,35,785,1195.2934764884412,1195.872210288886,"[86, 0, 168]",168,l,0.061694830656051636,colour,0.06
167,28,1,2,16,36,786,1196.3808500934392,1196.9602325581945,"[83, 0, 171]",171,l,0.06280823377892375,colour,0.06
167,28,1,2,16,37,787,1197.46895310143,1198.2002341812477,"[64, 0, 190]",190,l,0.2151798577979207,colour,0.06
167,28,1,2,16,38,788,1198.7093198196962,1199.288227699697,"[87, 0, 167]",167,l,0.06219974113628268,colour,0.06
167,28,1,2,16,39,789,1199.7969903848134,1200.4322261530906,"[66, 0, 188]",188,l,0.1181247248314321,colour,0.06
167,28,1,2,16,40,790,1200.941401194781,1201.608224612195,"[63, 0, 191]",191,l,0.1485422570258379,colour,0.06
167,28,1,2,16,41,791,1202.117888417095,1202.9443621304817,"[61, 0, 193]",193,l,0.30867698369547725,colour,0.06
167,28,1,2,16,42,792,1203.454001517035,1204.0963340005837,"[92, 0, 162]",162,l,0.1235137227922678,colour,0.06
167,28,1,2,16,43,793,1204.6053708023392,1205.2482298579998,"[51, 0, 203]",203,a,0.1265085292980075,colour,0.06
167,28,1,2,16,44,794,1205.757491152268,1206.3122219936922,"[46, 0, 208]",208,a,0.03772968100383878,colour,0.06
167,28,1,2,16,45,795,1206.821716838982,1207.5922572980635,"[97, 0, 157]",157,l,0.25320728681981564,colour,0.06
167,28,1,2,16,46,796,1208.1014622724615,1208.880188038107,"[73, 0, 181]",181,l,0.26174429757520556,colour,0.06
167,28,1,2,16,47,797,1209.3900479786098,1210.2082316228189,"[58, 0, 196]",196,l,0.3017681334167719,colour,0.06
167,28,1,2,16,48,798,1210.7173452242278,1211.3042119489983,"[53, 0, 201]",201,a,0.07031376147642732,colour,0.06
167,28,1,2,16,49,799,1211.813599274028,1212.8002281943336,"[59, 0, 195]",195,a,0.46937845507636666,colour,0.06
167,28,1,2,16,50,800,1213.3093303749338,1213.9442853308283,"[13, 0, 241]",241,a,0.1187158883549273,colour,0.06
