id,age,condition,counterbalance,block,trialinblock,trial,tstart,tend,trialstim,trialintensity,response,RT,trialtype,colourfreq
139,21,0,2,Practice,1,NA,5.907684226258425e-06,1.3914242481291694,"[34, 0, 220]",220,a,0.8672901767818075,colour,0.5
139,21,0,2,Practice,2,NA,1.9104761357129973,3.215413069215174,"[97, 0, 157]",157,l,0.7819075990933015,colour,0.5
139,21,0,2,Practice,3,NA,3.722963089577206,4.895398150343226,"[80, 0, 174]",174,l,0.6493856402312304,colour,0.5
139,21,0,2,Practice,4,NA,5.410461563425088,6.3273987363859305,"[89, 0, 165]",165,l,0.39388814627136526,colour,0.5
139,21,0,2,Practice,5,NA,6.8482946091198755,7.799403402668304,"[47, 0, 207]",207,a,0.4283082834394918,colour,0.5
139,21,0,2,Practice,6,NA,8.316667231178599,9.223380172079032,"[38, 0, 216]",216,a,0.3839037661882685,colour,0.5
139,21,0,2,Practice,7,NA,9.738571191138817,10.639395352464362,"[19, 0, 235]",235,a,0.3777601685028458,colour,0.5
139,21,0,2,Practice,8,NA,11.160436554228909,12.071400270808226,"[18, 0, 236]",236,a,0.3878737299464774,colour,0.5
139,21,0,2,Practice,9,NA,12.58225583738249,13.519439825510744,"[94, 0, 160]",160,l,0.4139837247239484,colour,0.5
139,21,0,2,Practice,10,NA,14.035856098265867,14.687433883168069,"[57, 0, 197]",197,a,0.1282873308532544,colour,0.5
139,21,0,2,1,1,1,4.429130633075147,5.440001559628399,"[18, 0, 236]",236,a,0.4869578025932242,colour,0.5
139,21,0,2,1,2,2,5.961225505756829,7.063999517933098,"[31, 0, 223]",223,a,0.5796344009963832,colour,0.5
139,21,0,2,1,3,3,7.570589736541024,8.767950104487227,"[53, 0, 201]",201,a,0.6748879312312965,colour,0.5
139,21,0,2,1,4,4,9.28930283812997,10.416011635774794,"[15, 0, 239]",239,a,0.6035250757563517,colour,0.5
139,21,0,2,1,5,5,10.932139219697092,11.991923014210442,"[58, 0, 196]",196,a,0.5365756541968949,colour,0.5
139,21,0,2,1,6,6,12.510238804347864,13.56796672477185,"[83, 0, 171]",171,l,0.5336529259184317,colour,0.5
139,21,0,2,1,7,7,14.08919067090028,14.983940945213817,"[22, 0, 232]",232,a,0.3716618630633093,colour,0.5
139,21,0,2,1,8,8,15.495446357046148,16.35997961455132,"[87, 0, 167]",167,l,0.34139679709005577,colour,0.5
139,21,0,2,1,9,9,16.87026134807047,17.847963384961076,"[91, 0, 163]",163,l,0.45450019810414233,colour,0.5
139,21,0,2,1,10,10,18.354766280198874,19.32798202173535,"[98, 0, 156]",156,l,0.45009385340881636,colour,0.5
139,21,0,2,1,11,11,19.839232615457604,20.743957817559476,"[27, 0, 227]",227,a,0.38158913553252205,colour,0.5
139,21,0,2,1,12,12,21.26100818174882,22.37590712490328,"[51, 0, 203]",203,a,0.5917896580867819,colour,0.5
139,21,0,2,1,13,13,22.886024230957446,23.847932271157788,"[40, 0, 214]",214,a,0.43891100113160064,colour,0.5
139,21,0,2,1,14,14,24.354819449356455,25.319956235875452,"[70, 0, 184]",184,l,0.44206688601207134,colour,0.5
139,21,0,2,1,15,15,25.839165267858334,27.991955309550576,"[19, 0, 235]",235,a,1.6274677381366018,colour,0.5
139,21,0,2,1,16,16,28.51317098492109,29.471966463258468,"[97, 0, 157]",157,l,0.4357129747709223,colour,0.5
139,21,0,2,1,17,17,29.981845686563247,30.807954578573117,"[46, 0, 208]",208,a,0.30291571782663596,colour,0.5
139,21,0,2,1,18,18,31.325616191150402,32.36793293281835,"[93, 0, 161]",161,l,0.5191322320883955,colour,0.5
139,21,0,2,1,19,19,32.88811633884279,33.74388850073228,"[44, 0, 210]",210,a,0.33265578760074277,colour,0.5
139,21,0,2,1,20,20,34.26315542801967,35.13595117259638,"[94, 0, 160]",160,l,0.3496888225827206,colour,0.5
139,21,0,2,1,21,21,35.65478880816818,36.7599223493994,"[1, 0, 253]",253,a,0.581900982487241,colour,0.5
139,21,0,2,1,22,22,37.279834789643246,38.335927463090684,"[9, 0, 245]",245,a,0.53294479151009,colour,0.5
139,21,0,2,1,23,23,38.8423944080223,39.68790571021009,"[57, 0, 197]",197,l,0.32238508175851166,colour,0.5
139,21,0,2,1,24,24,40.192338836406634,41.23988899855294,"[4, 0, 250]",250,a,0.5244944400815257,colour,0.5
139,21,0,2,1,25,25,41.75476375958715,42.79993588193429,"[32, 0, 222]",222,a,0.5219974589081176,colour,0.5
139,21,0,2,1,26,26,43.31740608554492,44.23989333085456,"[61, 0, 193]",193,l,0.3994279786347761,colour,0.5
139,21,0,2,1,27,27,44.75479920569205,45.72789679354537,"[89, 0, 165]",165,l,0.44998948432248653,colour,0.5
139,21,0,2,1,28,28,46.23907570736628,47.431908820014996,"[12, 0, 242]",242,a,0.6684611585519633,colour,0.5
139,21,0,2,1,29,29,47.94591318224866,48.90395405239542,"[63, 0, 191]",191,l,0.4349359173806988,colour,0.5
139,21,0,2,1,30,30,49.41467610530799,50.30393065796625,"[64, 0, 190]",190,l,0.36621261518985193,colour,0.5
139,21,0,2,1,31,31,50.820972751397676,51.879892448640476,"[80, 0, 174]",174,l,0.5357915075860546,colour,0.5
139,21,0,2,1,32,32,52.399106206770284,53.44786232417755,"[45, 0, 209]",209,l,0.5256791276792683,colour,0.5
139,21,0,2,1,33,33,53.96215891985457,54.951874429415966,"[99, 0, 155]",155,l,0.467120586861256,colour,0.5
139,21,0,2,1,34,34,55.46139958551703,56.48790578897888,"[55, 0, 199]",199,l,0.5032185063323595,colour,0.5
139,21,0,2,1,35,35,57.009277033365834,57.951992189253815,"[62, 0, 192]",192,l,0.4195759385538622,colour,0.5
139,21,0,2,1,36,36,58.450684227979764,59.39187598904482,"[39, 0, 215]",215,a,0.41806475294470147,colour,0.5
139,21,0,2,1,37,37,59.90381856950535,60.72792436273812,"[49, 0, 205]",205,a,0.30101501890840154,colour,0.5
139,21,0,2,1,38,38,61.24753314801592,62.21587938241828,"[7, 0, 247]",247,a,0.445139669468972,colour,0.5
139,21,0,2,1,39,39,62.731891569576874,63.775883730474106,"[11, 0, 243]",243,a,0.5208454604962753,colour,0.5
139,21,0,2,1,40,40,64.29443779720577,65.28790941235866,"[13, 0, 241]",241,a,0.4703639054678206,colour,0.5
139,21,0,2,1,41,41,65.79444016027946,66.8878520684375,"[5, 0, 249]",249,a,0.5704121121702883,colour,0.5
139,21,0,2,1,42,42,67.40548177952041,68.36791560361144,"[72, 0, 182]",182,l,0.43928791138159795,colour,0.5
139,21,0,2,1,43,43,68.87422264722545,70.21594988078277,"[16, 0, 238]",238,l,0.818575807009438,colour,0.5
139,21,0,2,1,44,44,70.73359849645476,72.32785126499266,"[90, 0, 164]",164,l,1.071111975821168,colour,0.5
139,21,0,2,1,45,45,72.84290522577976,73.99183164202896,"[48, 0, 206]",206,l,0.6256588052456209,colour,0.5
139,21,0,2,1,46,46,74.49913314581045,75.54383186573341,"[96, 0, 158]",158,l,0.521488216533271,colour,0.5
139,21,0,2,1,47,47,76.06310273147665,77.11199236254606,"[77, 0, 177]",177,l,0.5256629800092014,colour,0.5
139,21,0,2,1,48,48,77.62564659603186,78.59986349311112,"[47, 0, 207]",207,a,0.4510737412888375,colour,0.5
139,21,0,2,1,49,49,79.11006133751516,80.00788006298353,"[50, 0, 204]",204,a,0.374717711158155,colour,0.5
139,21,0,2,1,50,50,80.51627448833551,81.49591700255132,"[41, 0, 213]",213,a,0.4564914815132397,colour,0.5
139,21,0,2,2,1,51,91.28108052331027,92.87987118097772,"[53, 0, 201]",201,l,1.0749212505702417,colour,0.5
139,21,0,2,2,2,52,93.39131436520347,94.55983184367778,"[81, 0, 173]",173,l,0.6454633317921434,colour,0.5
139,21,0,2,2,3,53,95.07866199618275,96.03982803125245,"[59, 0, 195]",195,l,0.43813354989606523,colour,0.5
139,21,0,2,2,4,54,96.54748123916443,97.48795935198223,"[17, 0, 237]",237,a,0.4173814308096553,colour,0.5
139,21,0,2,2,5,55,97.9903141548898,98.91188295223492,"[50, 0, 204]",204,a,0.398512287588801,colour,0.5
139,21,0,2,2,6,56,99.42879074431312,100.47982210781447,"[26, 0, 228]",228,a,0.5278602446728655,colour,0.5
139,21,0,2,2,7,57,100.9912790766366,101.53586239979586,"[76, 0, 178]",178,l,0.019950249422436173,colour,0.5
139,21,0,2,2,8,58,102.05529592377661,102.75982979568062,"[25, 0, 229]",229,a,0.18139032226781637,colour,0.5
139,21,0,2,2,9,59,103.27399090846802,104.28785703089261,"[58, 0, 196]",196,l,0.49071942202408536,colour,0.5
139,21,0,2,2,10,60,104.80525476691037,105.63982109956942,"[86, 0, 168]",168,l,0.31148225371043736,colour,0.5
139,21,0,2,2,11,61,106.14894729006664,106.99182652203581,"[67, 0, 187]",187,l,0.3197459223192709,colour,0.5
139,21,0,2,2,12,62,107.50836528077662,108.36784589293848,"[14, 0, 240]",240,a,0.33631146256129796,colour,0.5
139,21,0,2,2,13,63,108.88331929930155,109.8318468287157,"[54, 0, 200]",200,a,0.4244336303190721,colour,0.5
139,21,0,2,2,14,64,110.35294789501313,111.27183342221088,"[38, 0, 216]",216,a,0.3959601680298874,colour,0.5
139,21,0,2,2,15,65,111.79054660256952,112.73584656720232,"[97, 0, 157]",157,l,0.42224581795062477,colour,0.5
139,21,0,2,2,16,66,113.24365258721127,114.51189571283294,"[16, 0, 238]",238,a,0.7452236373533196,colour,0.5
139,21,0,2,2,17,67,115.02484575036624,116.19980654303572,"[19, 0, 235]",235,a,0.652144528736244,colour,0.5
139,21,0,2,2,18,68,116.71230405196229,117.703789897545,"[87, 0, 167]",167,l,0.46832417904852264,colour,0.5
139,21,0,2,2,19,69,118.21235052574457,118.87180955516715,"[84, 0, 170]",170,l,0.13633753514113778,colour,0.5
139,21,0,2,2,20,70,119.38416449198257,120.23186360653881,"[1, 0, 253]",253,a,0.3229715178731567,colour,0.5
139,21,0,2,2,21,71,120.74529886186474,121.62376558939377,"[62, 0, 192]",192,l,0.3553735901309665,colour,0.5
139,21,0,2,2,22,72,122.13764273949528,123.03181327306947,"[34, 0, 220]",220,a,0.3710533715939164,colour,0.5
139,21,0,2,2,23,73,123.54398113321986,124.44780088426205,"[22, 0, 232]",232,a,0.3806557214343229,colour,0.5
139,21,0,2,2,24,74,124.96573582569317,125.85578476494902,"[90, 0, 164]",164,l,0.3669026327006577,colour,0.5
139,21,0,2,2,25,75,126.372049407144,127.20777325205381,"[52, 0, 202]",202,l,0.31261967983482464,colour,0.5
139,21,0,2,2,26,76,127.71575886566143,128.55180723935473,"[49, 0, 205]",205,l,0.31295917475154056,colour,0.5
139,21,0,2,2,27,77,129.05946753648777,129.89579750979283,"[75, 0, 179]",179,l,0.31298989470906236,colour,0.5
139,21,0,2,2,28,78,130.40329948098997,131.26377849177607,"[78, 0, 176]",176,l,0.3375501070077007,colour,0.5
139,21,0,2,2,29,79,131.77827358564127,133.07180593178737,"[55, 0, 199]",199,l,0.7703521688681576,colour,0.5
139,21,0,2,2,30,80,133.59075896412287,134.47174590971645,"[12, 0, 242]",242,a,0.35786426977483643,colour,0.5
139,21,0,2,2,31,81,134.98133565649732,135.7918474746225,"[36, 0, 218]",218,a,0.2872950132054939,colour,0.5
139,21,0,2,2,32,82,136.30954256407676,137.0878307220055,"[41, 0, 213]",213,a,0.25521943895910226,colour,0.5
139,21,0,2,2,33,83,137.60631389652735,138.40776529637287,"[37, 0, 217]",217,a,0.27820938880677204,colour,0.5
139,21,0,2,2,34,84,138.9189107333168,139.70374066684371,"[85, 0, 169]",169,l,0.26181477756017557,colour,0.5
139,21,0,2,2,35,85,140.21578604100887,141.03182942073954,"[35, 0, 219]",219,a,0.29295181771567513,colour,0.5
139,21,0,2,2,36,86,141.5438747949047,142.46376817302098,"[45, 0, 209]",209,a,0.39682584068305005,colour,0.5
139,21,0,2,2,37,87,142.9721070661417,143.83176136421798,"[94, 0, 160]",160,l,0.33648829924050006,colour,0.5
139,21,0,2,2,38,88,144.34708235232938,145.11976175491282,"[98, 0, 156]",156,l,0.24951694835817761,colour,0.5
139,21,0,2,2,39,89,145.62826724472689,146.3757428912836,"[89, 0, 165]",165,l,0.22505322823417373,colour,0.5
139,21,0,2,2,40,90,146.89388302627822,147.63178034757675,"[23, 0, 231]",231,a,0.21470139019629642,colour,0.5
139,21,0,2,2,41,91,148.14387849705372,148.89575812523162,"[20, 0, 234]",234,a,0.24067275131847055,colour,0.5
139,21,0,2,2,42,92,149.41316413200775,149.97577022416908,"[65, 0, 189]",189,l,0.039407404140092694,colour,0.5
139,21,0,2,2,43,93,150.47897533975083,151.2477592153964,"[11, 0, 243]",243,a,0.24570491668964678,colour,0.5
139,21,0,2,2,44,94,151.74751621265432,152.44777685967983,"[10, 0, 244]",244,a,0.17741051236953354,colour,0.5
139,21,0,2,2,45,95,152.96635101253742,153.51177480223032,"[96, 0, 158]",158,l,0.0223318338316858,colour,0.5
139,21,0,2,2,46,96,154.02879759722646,155.15174713851457,"[13, 0, 241]",241,a,0.5997260409931187,colour,0.5
139,21,0,2,2,47,97,155.66941859723192,156.52774130329817,"[2, 0, 252]",252,a,0.3358262447686684,colour,0.5
139,21,0,2,2,48,98,157.04451873247854,157.92774508421599,"[31, 0, 223]",223,a,0.3602466418756194,colour,0.5
139,21,0,2,2,49,99,158.43502965263588,159.38373520026653,"[71, 0, 183]",183,l,0.42559586871720967,colour,0.5
139,21,0,2,2,50,100,159.903753191134,160.8638156708016,"[44, 0, 210]",210,l,0.4370808005778599,colour,0.5
139,21,0,2,3,1,101,168.7154725399023,170.22377322999864,"[5, 0, 249]",249,a,0.9843009201022141,colour,0.5
139,21,0,2,3,2,102,170.73191126185748,171.53571707076526,"[55, 0, 199]",199,l,0.2806713177205893,colour,0.5
139,21,0,2,3,3,103,172.04431275122442,172.85569851276023,"[29, 0, 225]",225,a,0.28818786120564255,colour,0.5
139,21,0,2,3,4,104,173.37250272344227,174.20773426133837,"[24, 0, 230]",230,a,0.31206435752346806,colour,0.5
139,21,0,2,3,5,105,174.71624053884352,175.4956964490093,"[61, 0, 193]",193,l,0.2689166016166382,colour,0.5
139,21,0,2,3,6,106,176.01621344226578,176.91969291070018,"[20, 0, 234]",234,a,0.3802626635147135,colour,0.5
139,21,0,2,3,7,107,177.43806226384004,178.37576415894637,"[39, 0, 215]",215,a,0.41443113333798465,colour,0.5
139,21,0,2,3,8,108,178.89223753931537,179.71969417100627,"[7, 0, 247]",247,a,0.30462540162443474,colour,0.5
139,21,0,2,3,9,109,180.23595920704702,181.07971159473573,"[43, 0, 211]",211,a,0.32057457348446405,colour,0.5
139,21,0,2,3,10,110,181.5985697102792,182.4477536227887,"[96, 0, 158]",158,l,0.32632432555919877,colour,0.5
139,21,0,2,3,11,111,182.95794162105267,183.81571648787394,"[75, 0, 179]",179,l,0.33455491113682,colour,0.5
139,21,0,2,3,12,112,184.3329621994858,185.2557011121412,"[3, 0, 251]",251,a,0.3995492830827061,colour,0.5
139,21,0,2,3,13,113,185.77044235951325,186.53569265233727,"[80, 0, 174]",174,l,0.24230681675862797,colour,0.5
139,21,0,2,3,14,114,187.05170050719425,187.75972385121122,"[89, 0, 165]",165,l,0.18493099431043447,colour,0.5
139,21,0,2,3,15,115,188.27045338719017,189.01579911668296,"[14, 0, 240]",240,a,0.22233963197504636,colour,0.5
139,21,0,2,3,16,116,189.53613927326023,190.08769681449803,"[77, 0, 177]",177,l,0.028903147850542155,colour,0.5
139,21,0,2,3,17,117,190.5985299318727,191.19970414317686,"[6, 0, 248]",248,a,0.07800269862991627,colour,0.5
139,21,0,2,3,18,118,191.70786619961837,192.56769890975647,"[42, 0, 212]",212,a,0.3366407174921733,colour,0.5
139,21,0,2,3,19,119,193.07047591515948,193.81571215557187,"[37, 0, 217]",217,a,0.22217579220068728,colour,0.5
139,21,0,2,3,20,120,194.33605821983338,194.8958621004731,"[60, 0, 194]",194,l,0.03685252766172198,colour,0.5
139,21,0,2,3,21,121,195.41420427826597,196.1597410228801,"[59, 0, 195]",195,l,0.2316237545619515,colour,0.5
139,21,0,2,3,22,122,196.67063006633134,197.41578990069547,"[15, 0, 239]",239,a,0.22222187213719735,colour,0.5
139,21,0,2,3,23,123,197.93614069110436,198.61570711434842,"[56, 0, 198]",198,l,0.15644020281479243,colour,0.5
139,21,0,2,3,24,124,199.12363128804054,199.71970480483742,"[91, 0, 163]",163,l,0.07287916107725323,colour,0.5
139,21,0,2,3,25,125,200.23302190648064,200.80771275736834,"[86, 0, 168]",168,l,0.05018459543816789,colour,0.5
139,21,0,2,3,26,126,201.328795312922,202.7196831433289,"[81, 0, 173]",173,l,0.8678809451980669,colour,0.5
139,21,0,2,3,27,127,203.23501673449982,204.015704987582,"[31, 0, 223]",223,a,0.2575222542463962,colour,0.5
139,21,0,2,3,28,128,204.53193300213525,205.24766587398653,"[67, 0, 187]",187,l,0.19334511194256265,colour,0.5
139,21,0,2,3,29,129,205.76627310987578,206.5116720085257,"[26, 0, 228]",228,a,0.2222514105578739,colour,0.5
139,21,0,2,3,30,130,207.01807515046858,207.67167848334793,"[50, 0, 204]",204,a,0.1304400909625656,colour,0.5
139,21,0,2,3,31,131,208.189970642748,208.92768403814625,"[54, 0, 200]",200,a,0.214598596491669,colour,0.5
139,21,0,2,3,32,132,209.4399389381765,209.96768496762206,"[9, 0, 245]",245,a,0.0046414705252573185,colour,0.5
139,21,0,2,3,33,133,210.48691014727456,211.1116698029905,"[19, 0, 235]",235,a,0.10178861045733356,colour,0.5
139,21,0,2,3,34,134,211.62743032280378,213.5276463865057,"[72, 0, 182]",182,l,1.3772375353769348,colour,0.5
139,21,0,2,3,35,135,214.03369861200918,214.92773326884753,"[35, 0, 219]",219,l,0.3709919316788728,colour,0.5
139,21,0,2,3,36,136,215.4398708028857,216.04768288811692,"[38, 0, 216]",216,a,0.08465947714603317,colour,0.5
139,21,0,2,3,37,137,216.5650270611318,217.37565348833004,"[94, 0, 160]",160,l,0.2875911851051569,colour,0.5
139,21,0,2,3,38,138,217.89296379062216,218.47974767099413,"[84, 0, 170]",170,l,0.0636033092487196,colour,0.5
139,21,0,2,3,39,139,218.98680065819462,219.9919364049615,"[16, 0, 238]",238,a,0.48224504601284934,colour,0.5
139,21,0,2,3,40,140,220.50238473517402,221.46365277625682,"[51, 0, 203]",203,l,0.4382064113337947,colour,0.5
139,21,0,2,3,41,141,221.97118625510302,222.58365162622795,"[69, 0, 185]",185,l,0.0894084675232989,colour,0.5
139,21,0,2,3,42,142,223.09608966446694,223.82361939390285,"[28, 0, 226]",226,a,0.2042546353659418,colour,0.5
139,21,0,2,3,43,143,224.33053650436796,224.98369164094174,"[49, 0, 205]",205,a,0.12999898387806752,colour,0.5
139,21,0,2,3,44,144,225.5023697690408,226.0557330924048,"[27, 0, 227]",227,a,0.030317053593535093,colour,0.5
139,21,0,2,3,45,145,226.5648915782417,227.69564595800193,"[98, 0, 156]",156,l,0.6076474577662339,colour,0.5
139,21,0,2,3,46,146,228.20543144605153,228.87975893497833,"[58, 0, 196]",196,l,0.151110290161796,colour,0.5
139,21,0,2,3,47,147,229.39293740296625,230.02366697045272,"[45, 0, 209]",209,a,0.10822326004927163,colour,0.5
139,21,0,2,3,48,148,230.5335568275891,231.29569455855017,"[88, 0, 166]",166,l,0.23983425401320346,colour,0.5
139,21,0,2,3,49,149,231.8148130060422,232.39967413214163,"[21, 0, 233]",233,a,0.06168094882150399,colour,0.5
139,21,0,2,3,50,150,232.9086396336288,233.47163563294544,"[62, 0, 192]",192,l,0.03990246807325093,colour,0.5
139,21,0,2,4,1,151,238.01719254245472,239.0476194789735,"[18, 0, 236]",236,a,0.506551621737799,colour,0.5
139,21,0,2,4,2,152,239.5648569198279,240.1356124653712,"[21, 0, 233]",233,a,0.04767855581576441,colour,0.5
139,21,0,2,4,3,153,240.64294587064705,241.27964731913244,"[33, 0, 221]",221,a,0.11351378814106283,colour,0.5
139,21,0,2,4,4,154,241.7992017537158,242.3997020951797,"[68, 0, 186]",186,l,0.07730677343533898,colour,0.5
139,21,0,2,4,5,155,242.89746780902897,243.56762171601667,"[9, 0, 245]",245,a,0.14699499737298538,colour,0.5
139,21,0,2,4,6,156,244.08497849209107,244.72763134160368,"[52, 0, 202]",202,l,0.11948369991205254,colour,0.5
139,21,0,2,4,7,157,245.24125327974934,245.9436702314947,"[2, 0, 252]",252,a,0.1792714328812508,colour,0.5
139,21,0,2,4,8,158,246.45995338443345,246.99171427603687,"[6, 0, 248]",248,a,0.008599618915013707,colour,0.5
139,21,0,2,4,9,159,247.50687496898445,248.1836446945449,"[77, 0, 177]",177,l,0.15374078499735333,colour,0.5
139,21,0,2,4,10,160,248.69436280900118,249.48765963547203,"[97, 0, 157]",157,l,0.26972634819230734,colour,0.5
139,21,0,2,4,11,161,250.0086819326475,251.0716105843644,"[1, 0, 253]",253,a,0.539754382123192,colour,0.5
139,21,0,2,4,12,162,251.58687919100976,252.44762404758285,"[19, 0, 235]",235,a,0.3498948038372873,colour,0.5
139,21,0,2,4,13,163,252.96508676812664,253.62358284503034,"[66, 0, 188]",188,l,0.13538915490971704,colour,0.5
139,21,0,2,4,14,164,254.13697910964083,254.8076107513548,"[65, 0, 189]",189,l,0.147639328792593,colour,0.5
139,21,0,2,4,15,165,255.32442520202312,255.87163902001748,"[91, 0, 163]",163,l,0.023968262345078983,colour,0.5
139,21,0,2,4,16,166,256.38696709734995,257.3115992258572,"[55, 0, 199]",199,l,0.40013650688888447,colour,0.5
139,21,0,2,4,17,167,257.8257792432337,258.7836038921396,"[5, 0, 249]",249,a,0.44720735892633456,colour,0.5
139,21,0,2,4,18,168,259.2852367760429,260.08758850695494,"[73, 0, 181]",181,l,0.27926922734604887,colour,0.5
139,21,0,2,4,19,169,260.59765047462315,261.3916495278186,"[72, 0, 182]",182,l,0.27083620512439666,colour,0.5
139,21,0,2,4,20,170,261.91076679377375,262.83161564134207,"[15, 0, 239]",239,a,0.39774743941279667,colour,0.5
139,21,0,2,4,21,171,263.3482953968114,264.1595956938495,"[74, 0, 180]",180,l,0.2882024334930975,colour,0.5
139,21,0,2,4,22,172,264.67629514159944,265.5676335313851,"[75, 0, 179]",179,l,0.36798807120430865,colour,0.5
139,21,0,2,4,23,173,266.08265874144263,267.0955934189974,"[47, 0, 207]",207,l,0.4897970356028054,colour,0.5
139,21,0,2,4,24,174,267.61387139995577,268.37562670682837,"[67, 0, 187]",187,l,0.23860388032471747,colour,0.5
139,21,0,2,4,25,175,268.8951618429769,269.69561720727233,"[24, 0, 230]",230,a,0.27722792554459375,colour,0.5
139,21,0,2,4,26,176,270.2077015721529,270.87157364164614,"[53, 0, 201]",201,l,0.14067613839097248,colour,0.5
139,21,0,2,4,27,177,271.3795572860254,271.9676006846612,"[64, 0, 190]",190,l,0.06493332587660916,colour,0.5
139,21,0,2,4,28,178,272.4732184984555,273.271608930213,"[43, 0, 211]",211,l,0.2752590913351014,colour,0.5
139,21,0,2,4,29,179,273.7857991875753,275.1035873033625,"[36, 0, 218]",218,a,0.7951065470529102,colour,0.5
139,21,0,2,4,30,180,275.6138796707137,276.3995929999455,"[87, 0, 167]",167,l,0.2625583580734201,colour,0.5
139,21,0,2,4,31,181,276.9107018092477,277.7436565256671,"[3, 0, 251]",251,a,0.30923930295602986,colour,0.5
139,21,0,2,4,32,182,278.25560304458395,278.999577797505,"[8, 0, 246]",246,a,0.22123174427133563,colour,0.5
139,21,0,2,4,33,183,279.5078753368366,280.2875793697367,"[14, 0, 240]",240,a,0.2553399557159537,colour,0.5
139,21,0,2,4,34,184,280.8060054366447,281.5755860619611,"[60, 0, 194]",194,l,0.24643550029804828,colour,0.5
139,21,0,2,4,35,185,282.0872785504589,282.8875866164958,"[39, 0, 215]",215,l,0.2772936977612517,colour,0.5
139,21,0,2,4,36,186,283.3997209997692,284.0555826433815,"[27, 0, 227]",227,a,0.13274408778670477,colour,0.5
139,21,0,2,4,37,187,284.5716105843644,285.47957713584447,"[12, 0, 242]",242,a,0.384707998925478,colour,0.5
139,21,0,2,4,38,188,285.993546445819,286.87957894753436,"[93, 0, 161]",161,l,0.3629330627877607,colour,0.5
139,21,0,2,4,39,189,287.3858887480669,288.2156753703921,"[85, 0, 169]",169,l,0.30674074640046456,colour,0.5
139,21,0,2,4,40,190,288.7296671295667,289.6475960057751,"[95, 0, 159]",159,l,0.39548322099517463,colour,0.5
139,21,0,2,4,41,191,290.1672173941124,291.01556241547087,"[11, 0, 243]",243,a,0.32522825322394056,colour,0.5
139,21,0,2,4,42,192,291.5265514957073,292.2875813389646,"[22, 0, 232]",232,a,0.2383695421858647,colour,0.5
139,21,0,2,4,43,193,292.80781673260935,293.7995759070459,"[50, 0, 204]",204,l,0.468680609326384,colour,0.5
139,21,0,2,4,44,194,294.30781003723405,295.1835493839071,"[94, 0, 160]",160,l,0.352971131904269,colour,0.5
139,21,0,2,4,45,195,295.6983453758194,296.4715501684477,"[44, 0, 210]",210,a,0.25002067689456453,colour,0.5
139,21,0,2,4,46,196,296.9796653572612,297.799522344043,"[42, 0, 212]",212,a,0.2967799970542728,colour,0.5
139,21,0,2,4,47,197,298.3077399327153,299.1755570749242,"[59, 0, 195]",195,l,0.34457158655959574,colour,0.5
139,21,0,2,4,48,198,299.6827683880606,300.4715194484902,"[96, 0, 158]",158,l,0.2656409876703947,colour,0.5
139,21,0,2,4,49,199,300.9795940712056,301.75153777018795,"[26, 0, 228]",228,a,0.24876037093963532,colour,0.5
139,21,0,2,4,50,200,302.2631987510367,302.8955505685949,"[63, 0, 191]",191,l,0.1092771909043222,colour,0.5
139,21,0,2,5,1,201,312.3873392814521,313.8395291812026,"[66, 0, 188]",188,l,0.9261145633863634,colour,0.5
139,21,0,2,5,2,202,314.3452576656141,315.15959018001104,"[31, 0, 223]",223,a,0.2915568165617515,colour,0.5
139,21,0,2,5,3,203,315.6733385425978,316.59157619376583,"[2, 0, 252]",252,a,0.39573922064255385,colour,0.5
139,21,0,2,5,4,204,317.11083839490584,317.9275702167647,"[9, 0, 245]",245,a,0.29368515824307906,colour,0.5
139,21,0,2,5,5,205,318.4388416843044,319.24749573268264,"[93, 0, 161]",161,l,0.2976968696361837,colour,0.5
139,21,0,2,5,6,206,319.742356835151,320.5275558020153,"[98, 0, 156]",156,l,0.2621192202173006,colour,0.5
139,21,0,2,5,7,207,321.0391423460437,321.75154525325433,"[47, 0, 207]",207,l,0.1892199730136781,colour,0.5
139,21,0,2,5,8,208,322.2578964075765,323.02350509990674,"[26, 0, 228]",228,a,0.2423666812915144,colour,0.5
139,21,0,2,5,9,209,323.5391230476089,324.17549799808285,"[19, 0, 235]",235,a,0.11316799169480873,colour,0.5
139,21,0,2,5,10,210,324.6963009232527,325.43955808947067,"[59, 0, 195]",195,l,0.22011007197124854,colour,0.5
139,21,0,2,5,11,211,325.94629009249866,326.68752722457793,"[38, 0, 216]",216,a,0.21795652417085876,colour,0.5
139,21,0,2,5,12,212,327.1963666954698,327.927502869165,"[50, 0, 204]",204,l,0.20680163493170767,colour,0.5
139,21,0,2,5,13,213,328.44752479848876,329.09553316061874,"[41, 0, 213]",213,a,0.12477147108393183,colour,0.5
139,21,0,2,5,14,214,329.60387047835684,330.14353624521755,"[37, 0, 217]",217,a,0.016724260023238458,colour,0.5
139,21,0,2,5,15,215,330.65062113391286,331.759463913108,"[52, 0, 202]",202,a,0.584605520297373,colour,0.5
139,21,0,2,5,16,216,332.2766958401239,332.9754961076237,"[65, 0, 189]",189,l,0.17562481636923621,colour,0.5
139,21,0,2,5,17,217,333.49539791403595,334.263517372136,"[0, 0, 254]",254,a,0.24489320088559907,colour,0.5
139,21,0,2,5,18,218,334.77739334070066,335.7275084617727,"[68, 0, 186]",186,l,0.4284059571509715,colour,0.5
139,21,0,2,5,19,219,336.24534060949964,336.93548690739044,"[99, 0, 155]",155,a,0.16699053904085304,colour,0.5
139,21,0,2,5,20,220,337.44851177558985,338.55154769509727,"[81, 0, 173]",173,l,0.5799845297442516,colour,0.5
139,21,0,2,5,21,221,339.058747586711,340.06355959238545,"[77, 0, 177]",177,l,0.48079293724549643,colour,0.5
139,21,0,2,5,22,222,340.57769234828856,341.38351858518035,"[32, 0, 222]",222,a,0.28274649024479004,colour,0.5
139,21,0,2,5,23,223,341.8901088037883,342.6794915925775,"[60, 0, 194]",194,l,0.26624357145465183,colour,0.5
139,21,0,2,5,24,224,343.18934048977053,343.7916025026525,"[48, 0, 206]",206,l,0.07910625403201266,colour,0.5
139,21,0,2,5,25,225,344.2987145666948,344.97550634760955,"[67, 0, 187]",187,l,0.15364665589640936,colour,0.5
139,21,0,2,5,26,226,345.4861346652665,346.4075065398065,"[92, 0, 162]",162,l,0.3987044842474461,colour,0.5
139,21,0,2,5,27,227,346.9236561790831,347.74346787361947,"[74, 0, 180]",180,l,0.2966630249075024,colour,0.5
139,21,0,2,5,28,228,348.24671788760133,349.0955473390609,"[49, 0, 205]",205,l,0.3257544309599325,colour,0.5
139,21,0,2,5,29,229,349.60693459721006,350.4474751739417,"[36, 0, 218]",218,a,0.31742341475137437,colour,0.5
139,21,0,2,5,30,230,350.9662545203628,351.7435041074159,"[17, 0, 237]",237,a,0.25404026519981926,colour,0.5
139,21,0,2,5,31,231,352.2631046219358,353.0554798496769,"[87, 0, 167]",167,l,0.26919347508101055,colour,0.5
139,21,0,2,5,32,232,353.5756601049361,354.35948533830924,"[95, 0, 159]",159,l,0.26072776367345796,colour,0.5
139,21,0,2,5,33,233,354.8724578250426,355.66349515924367,"[3, 0, 251]",251,a,0.26783667695144686,colour,0.5
139,21,0,2,5,34,234,356.16930910815245,356.9274378846394,"[62, 0, 192]",192,l,0.23502382372089414,colour,0.5
139,21,0,2,5,35,235,357.4350135049658,358.1994780757964,"[72, 0, 182]",182,l,0.24133677501913553,colour,0.5
139,21,0,2,5,36,236,358.71622163425445,359.495471957011,"[27, 0, 227]",227,a,0.2560201270862308,colour,0.5
139,21,0,2,5,37,237,360.01309930501975,360.69543564444575,"[24, 0, 230]",230,a,0.15908566378357136,colour,0.5
139,21,0,2,5,38,238,361.21620863734915,362.03148480583013,"[28, 0, 226]",226,a,0.2921022927330341,colour,0.5
139,21,0,2,5,39,239,362.54437891728685,363.3194387227427,"[11, 0, 243]",243,a,0.25190404660588683,colour,0.5
139,21,0,2,5,40,240,363.82565833263106,364.4155126333858,"[64, 0, 190]",190,l,0.06679897253570743,colour,0.5
139,21,0,2,5,41,241,364.9349575788892,365.6234698113399,"[80, 0, 174]",174,l,0.16568257776680184,colour,0.5
139,21,0,2,5,42,242,366.1381283511337,366.8234500402905,"[44, 0, 210]",210,l,0.162195468727532,colour,0.5
139,21,0,2,5,43,243,367.34124319730154,367.88748579201956,"[70, 0, 184]",184,l,0.023059266675318213,colour,0.5
139,21,0,2,5,44,244,368.4038067541369,369.1834481655851,"[25, 0, 229]",229,a,0.2567692214379349,colour,0.5
139,21,0,2,5,45,245,369.7013177286449,370.27143997044595,"[45, 0, 209]",209,l,0.04694048914052473,colour,0.5
139,21,0,2,5,46,246,370.77945787939325,371.31143932453915,"[55, 0, 199]",199,l,0.00879851094850892,colour,0.5
139,21,0,2,5,47,247,371.8262164118614,372.599442472153,"[61, 0, 193]",193,l,0.24980918180153822,colour,0.5
139,21,0,2,5,48,248,373.10756671941544,373.79163007184525,"[18, 0, 236]",236,a,0.16084733520119698,colour,0.5
139,21,0,2,5,49,249,374.3109162975675,374.90350270532554,"[10, 0, 244]",244,a,0.06945152272555788,colour,0.5
139,21,0,2,5,50,250,375.4203210944497,376.13547658863536,"[96, 0, 158]",158,l,0.19219705198702286,colour,0.5
139,21,0,2,6,1,251,388.1071346707804,390.2234038028155,"[55, 0, 199]",199,l,1.5923272573454597,colour,0.5
139,21,0,2,6,2,252,390.73290690356225,391.71937870067177,"[76, 0, 178]",178,l,0.46336605665237585,colour,0.5
139,21,0,2,6,3,253,392.2329222635408,393.03944206255346,"[2, 0, 252]",252,a,0.2833679786185712,colour,0.5
139,21,0,2,6,4,254,393.5453721959175,394.3994563355186,"[0, 0, 254]",254,a,0.3308952977199624,colour,0.5
139,21,0,2,6,5,255,394.9203281836708,395.6154416624063,"[19, 0, 235]",235,a,0.17216803344217624,colour,0.5
139,21,0,2,6,6,256,396.12349816822416,396.8794537046301,"[5, 0, 249]",249,a,0.23125905352617337,colour,0.5
139,21,0,2,6,7,257,397.3906948460576,398.1753979612977,"[85, 0, 169]",169,l,0.2617403407398342,colour,0.5
139,21,0,2,6,8,258,398.6876296244368,399.40747700138536,"[84, 0, 170]",170,l,0.19672667035820268,colour,0.5
139,21,0,2,6,9,259,399.9219508275878,400.5994030875918,"[31, 0, 223]",223,a,0.1546450545197331,colour,0.5
139,21,0,2,6,10,260,401.1093973138154,401.8714196480123,"[52, 0, 202]",202,l,0.23873109245687374,colour,0.5
139,21,0,2,6,11,261,402.39068696914546,403.1354490194426,"[24, 0, 230]",230,a,0.22158187301965881,colour,0.5
139,21,0,2,6,12,262,403.65628896609996,404.2314024133284,"[56, 0, 198]",198,l,0.051918303817274136,colour,0.5
139,21,0,2,6,13,263,404.75011362445866,405.4154023566143,"[80, 0, 174]",174,l,0.1421731455579902,colour,0.5
139,21,0,2,6,14,264,405.9219713075595,406.839464196677,"[33, 0, 221]",221,a,0.39442810860373356,colour,0.5
139,21,0,2,6,15,265,407.3594049938047,407.91141782056866,"[27, 0, 227]",227,a,0.0288562802229535,colour,0.5
139,21,0,2,6,16,266,408.42190592918814,409.1194285615261,"[64, 0, 190]",190,l,0.17435820888476883,colour,0.5
139,21,0,2,6,17,267,409.62503259072446,414.103627081769,"[59, 0, 195]",195,l,3.9554052553176007,colour,0.5
139,21,0,2,6,18,268,414.61319674242395,415.16747890759825,"[49, 0, 205]",205,l,0.03107126793838688,colour,0.5
139,21,0,2,6,19,269,415.6757441515897,416.7434249444482,"[25, 0, 229]",229,a,0.5446991137687291,colour,0.5
139,21,0,2,6,20,270,417.2538185301205,417.7994136426546,"[60, 0, 194]",194,l,0.02165914552824688,colour,0.5
139,21,0,2,6,21,271,418.31761994371163,419.3274215794313,"[1, 0, 253]",253,a,0.49616551913186413,colour,0.5
139,21,0,2,6,22,272,419.83974343321506,420.59939284760594,"[71, 0, 183]",183,l,0.23651531704945228,colour,0.5
139,21,0,2,6,23,273,421.10536354706846,421.71138836091677,"[53, 0, 201]",201,l,0.08292498107584834,colour,0.5
139,21,0,2,6,24,274,422.2302850733299,423.25545141402426,"[73, 0, 181]",181,l,0.5019668649811138,colour,0.5
139,21,0,2,6,25,275,423.76217396475704,424.65539296733505,"[96, 0, 158]",158,l,0.3699777792307941,colour,0.5
139,21,0,2,6,26,276,425.1683918417243,425.95138448547596,"[94, 0, 160]",160,l,0.2598183741574758,colour,0.5
139,21,0,2,6,27,277,426.4652395802236,427.23938960231817,"[13, 0, 241]",241,a,0.2509521217643851,colour,0.5
139,21,0,2,6,28,278,427.7483425007463,428.4953612863942,"[8, 0, 246]",246,a,0.22380237457400654,colour,0.5
139,21,0,2,6,29,279,429.0140063314616,429.7673794221969,"[35, 0, 219]",219,a,0.2289621459231057,colour,0.5
139,21,0,2,6,30,280,430.2809454342655,431.06338866339,"[66, 0, 188]",188,l,0.2592945594951743,colour,0.5
139,21,0,2,6,31,281,431.57778253893366,432.5513933076177,"[92, 0, 162]",162,l,0.45087051695372793,colour,0.5
139,21,0,2,6,32,282,433.06213426511977,433.83935588913437,"[48, 0, 206]",206,l,0.2540461728840455,colour,0.5
139,21,0,2,6,33,283,434.35906668042526,434.97543033540705,"[43, 0, 211]",211,a,0.09330123754170927,colour,0.5
139,21,0,2,6,34,284,435.48404216353583,436.33535441772665,"[65, 0, 189]",189,l,0.3281694922461611,colour,0.5
139,21,0,2,6,35,285,436.8433676005275,437.7434064337044,"[12, 0, 242]",242,a,0.376860625127847,colour,0.5
139,21,0,2,6,36,286,438.2515019302368,439.04737844545934,"[32, 0, 222]",222,a,0.27252383356699283,colour,0.5
139,21,0,2,6,37,287,439.563949105695,440.31939618741717,"[93, 0, 161]",161,l,0.23227950750424498,colour,0.5
139,21,0,2,6,38,288,440.82966846864156,441.91145050975456,"[39, 0, 215]",215,l,0.5586664545153326,colour,0.5
139,21,0,2,6,39,289,442.42338088100087,443.2554183309926,"[88, 0, 166]",166,l,0.30891871262883797,colour,0.5
139,21,0,2,6,40,290,443.7671056994973,444.33535008542503,"[10, 0, 244]",244,a,0.045125254720005614,colour,0.5
139,21,0,2,6,41,291,444.845180078029,445.85533538710706,"[47, 0, 207]",207,l,0.48698891639742214,colour,0.5
139,21,0,2,6,42,292,446.3787546286708,447.167369024673,"[45, 0, 209]",209,a,0.26546021253489016,colour,0.5
139,21,0,2,6,43,293,447.6757213085443,448.463336912077,"[17, 0, 237]",237,a,0.26537002188979386,colour,0.5
139,21,0,2,6,44,294,448.97253635785773,449.70340235346384,"[7, 0, 247]",247,a,0.20772008289713995,colour,0.5
139,21,0,2,6,45,295,450.2225231640291,450.9673442911685,"[97, 0, 157]",157,l,0.22169766362912924,colour,0.5
139,21,0,2,6,46,296,451.4881413086546,452.0474095592631,"[87, 0, 167]",167,l,0.03615660246759944,colour,0.5
139,21,0,2,6,47,297,452.5662074164279,453.59132964641367,"[83, 0, 171]",171,l,0.5019558373041946,colour,0.5
139,21,0,2,6,48,298,454.0974637918039,454.87938556933887,"[68, 0, 186]",186,l,0.25874711409596785,colour,0.5
139,21,0,2,6,49,299,455.3943587917761,456.30335170491844,"[4, 0, 250]",250,a,0.38595136951971654,colour,0.5
139,21,0,2,6,50,300,456.8161898902986,457.9354010490474,"[79, 0, 175]",175,l,0.5960518552892609,colour,0.5
139,21,0,2,7,1,301,462.56543862979515,463.35931322777697,"[21, 0, 233]",233,a,0.2699543848011672,colour,0.5
139,21,0,2,7,2,302,463.87869752105644,464.7593871132144,"[16, 0, 238]",238,a,0.3576165408858287,colour,0.5
139,21,0,2,7,3,303,465.2692797272698,466.1353210196189,"[10, 0, 244]",244,a,0.3429249180608167,colour,0.5
139,21,0,2,7,4,304,466.64429164109924,467.3434132866182,"[86, 0, 168]",168,l,0.17595722206533537,colour,0.5
139,21,0,2,7,5,305,467.8630724841337,468.6153774655718,"[34, 0, 220]",220,a,0.22988374465239758,colour,0.5
139,21,0,2,7,6,306,469.1286622718749,469.7753181681769,"[90, 0, 164]",164,l,0.12353400817482907,colour,0.5
139,21,0,2,7,7,307,470.28485553349174,471.04734024243544,"[81, 0, 173]",173,l,0.23808754872879945,colour,0.5
139,21,0,2,7,8,308,471.55486938898,472.25532302035435,"[12, 0, 242]",242,a,0.17738727547839517,colour,0.5
139,21,0,2,7,9,309,472.77352065680816,473.53535552049425,"[51, 0, 203]",203,l,0.23869485865998286,colour,0.5
139,21,0,2,7,10,310,474.0548886874153,474.79130042306906,"[78, 0, 176]",176,l,0.21336389050156868,colour,0.5
139,21,0,2,7,11,311,475.3058372645687,475.91929630817003,"[79, 0, 175]",175,l,0.09036748158541741,colour,0.5
139,21,0,2,7,12,312,476.43080211384813,477.19128687477996,"[50, 0, 204]",204,l,0.2372557467979277,colour,0.5
139,21,0,2,7,13,313,477.7122567904894,478.43934147438495,"[35, 0, 219]",219,a,0.20405574333290133,colour,0.5
139,21,0,2,7,14,314,478.9465925659274,479.68732006178607,"[72, 0, 182]",182,l,0.21760403234839032,colour,0.5
139,21,0,2,7,15,315,480.1840806816367,480.9273311524789,"[66, 0, 188]",188,l,0.22031211476951285,colour,0.5
139,21,0,2,7,16,316,481.434156103071,482.1912908132358,"[73, 0, 181]",181,l,0.2340459050692516,colour,0.5
139,21,0,2,7,17,317,482.6997167462364,483.4872949344367,"[3, 0, 251]",251,a,0.2645362507319078,colour,0.5
139,21,0,2,7,18,318,483.99676101369596,484.7192774823493,"[65, 0, 189]",189,l,0.19938040208398888,colour,0.5
139,21,0,2,7,19,319,485.2311653182701,486.047322913229,"[32, 0, 222]",222,l,0.29305067296445486,colour,0.5
139,21,0,2,7,20,320,486.54686132617235,487.43932887132496,"[36, 0, 218]",218,a,0.36941694308097794,colour,0.5
139,21,0,2,7,21,321,487.953102046185,488.78333332020475,"[27, 0, 227]",227,a,0.3072925241012854,colour,0.5
139,21,0,2,7,22,322,489.28441363871616,490.3912808883265,"[46, 0, 208]",208,l,0.5838060137075445,colour,0.5
139,21,0,2,7,23,323,490.9093713987745,491.559308029015,"[61, 0, 193]",193,l,0.12670328380590945,colour,0.5
139,21,0,2,7,24,324,492.06559616804,492.72731626511495,"[83, 0, 171]",171,l,0.13855685515864025,colour,0.5
139,21,0,2,7,25,325,493.2374952049299,493.83927712001196,"[15, 0, 239]",239,a,0.07875258067360846,colour,0.5
139,21,0,2,7,26,326,494.346964592492,495.03124574154435,"[24, 0, 230]",230,a,0.16115611015993636,colour,0.5
139,21,0,2,7,27,327,495.550087315572,496.31131644470815,"[47, 0, 207]",207,a,0.23816671169606707,colour,0.5
139,21,0,2,7,28,328,496.83138524166,497.51130612595307,"[7, 0, 247]",247,a,0.16936306500065257,colour,0.5
139,21,0,2,7,29,329,498.021900966733,498.8312753587338,"[74, 0, 180]",180,l,0.2860926025550725,colour,0.5
139,21,0,2,7,30,330,499.3500747912817,500.3672712721923,"[11, 0, 243]",243,a,0.49399070366871456,colour,0.5
139,21,0,2,7,31,331,500.87826468473077,501.5752709854728,"[8, 0, 246]",246,a,0.1738379388325484,colour,0.5
139,21,0,2,7,32,332,502.0813893770387,502.71127138877046,"[9, 0, 245]",245,a,0.10678178511352598,colour,0.5
139,21,0,2,7,33,333,503.22197847554935,503.8632686192482,"[57, 0, 197]",197,l,0.11812138794357452,colour,0.5
139,21,0,2,7,34,334,504.3782134848011,505.1272574245809,"[13, 0, 241]",241,a,0.22584879636906408,colour,0.5
139,21,0,2,7,35,335,505.64383753711036,506.7433008830808,"[77, 0, 177]",177,l,0.5763682393453564,colour,0.5
139,21,0,2,7,36,336,507.2532226417111,508.0792704876517,"[53, 0, 201]",201,l,0.3030886160504451,colour,0.5
139,21,0,2,7,37,337,508.59696045711325,509.3193595597754,"[85, 0, 169]",169,l,0.19919332542031043,colour,0.5
139,21,0,2,7,38,338,509.83135176478254,510.56725701498135,"[95, 0, 159]",159,l,0.21272034677349438,colour,0.5
139,21,0,2,7,39,339,511.08134605402165,511.7832718802897,"[60, 0, 194]",194,l,0.17882087350244547,colour,0.5
139,21,0,2,7,40,340,512.3000831801933,513.0952598317649,"[96, 0, 158]",158,l,0.27202719425167743,colour,0.5
139,21,0,2,7,41,341,513.6125587125348,514.3992527173373,"[22, 0, 232]",232,a,0.26355478746882,colour,0.5
139,21,0,2,7,42,342,514.9093942418199,515.6712531300877,"[80, 0, 174]",174,l,0.23911351654442115,colour,0.5
139,21,0,2,7,43,343,516.190675626392,517.0072550299988,"[55, 0, 199]",199,l,0.2934350662799261,colour,0.5
139,21,0,2,7,44,344,517.5188470878661,518.3432821360298,"[54, 0, 200]",200,l,0.30137814456247725,colour,0.5
139,21,0,2,7,45,345,518.8625470940892,519.61522150271,"[5, 0, 249]",249,a,0.22955212664783176,colour,0.5
139,21,0,2,7,46,346,520.1281471218158,520.9993028932681,"[19, 0, 235]",235,a,0.3480193110372056,colour,0.5
139,21,0,2,7,47,347,521.5205768577894,522.2633086339624,"[42, 0, 212]",212,l,0.2197150448237153,colour,0.5
139,21,0,2,7,48,348,522.7705514547474,523.5752595639501,"[44, 0, 210]",210,l,0.2815673164859618,colour,0.5
139,21,0,2,7,49,349,524.0830880331582,525.0392459274394,"[93, 0, 161]",161,l,0.43303797538192157,colour,0.5
139,21,0,2,7,50,350,525.5518241747163,526.3752427073573,"[49, 0, 205]",205,a,0.3003466629061222,colour,0.5
139,21,0,2,8,1,351,543.6886737091513,545.6312447175455,"[24, 0, 230]",230,a,1.4186913613111756,colour,0.5
139,21,0,2,8,2,352,546.1303101219105,547.183187045945,"[48, 0, 206]",206,a,0.5298897311058681,colour,0.5
139,21,0,2,8,3,353,547.6926932974561,548.4791986502119,"[66, 0, 188]",188,l,0.2633732246422369,colour,0.5
139,21,0,2,8,4,354,548.9900585490882,549.6551980137579,"[29, 0, 225]",225,a,0.1420199396161479,colour,0.5
139,21,0,2,8,5,355,550.1619182014169,550.8392302523839,"[44, 0, 210]",210,a,0.1541405382922676,colour,0.5
139,21,0,2,8,6,356,551.3493761091672,551.9831757031911,"[69, 0, 185]",185,l,0.10972893181951804,colour,0.5
139,21,0,2,8,7,357,552.4910309539023,553.1032879806985,"[5, 0, 249]",249,a,0.08905440031867329,colour,0.5
139,21,0,2,8,8,358,553.6160505477214,554.7032995597597,"[76, 0, 178]",178,l,0.5641535115673832,colour,0.5
139,21,0,2,8,9,359,555.2112339734372,555.9752054495625,"[83, 0, 171]",171,l,0.24163924844742724,colour,0.5
139,21,0,2,8,10,360,556.4917788667167,557.1512205669328,"[90, 0, 164]",164,l,0.1363698304812715,colour,0.5
139,21,0,2,8,11,361,557.6636625436281,558.4472172050669,"[15, 0, 239]",239,a,0.26083607121654495,colour,0.5
139,21,0,2,8,12,362,558.9632096999444,559.5591890876408,"[82, 0, 172]",172,l,0.0730839607949747,colour,0.5
139,21,0,2,8,13,363,560.0725794445675,560.7672210962614,"[60, 0, 194]",194,l,0.17147250209382037,colour,0.5
139,21,0,2,8,14,364,561.2757454906646,562.0711938957079,"[68, 0, 186]",186,l,0.2723615691757004,colour,0.5
139,21,0,2,8,15,365,562.5881757307611,563.3031721113198,"[73, 0, 181]",181,l,0.19180241868525627,colour,0.5
139,21,0,2,8,16,366,563.8225355307818,564.543211558896,"[26, 0, 228]",228,a,0.19754508153800998,colour,0.5
139,21,0,2,8,17,367,565.0569091153989,565.8392085908758,"[55, 0, 199]",199,a,0.2578322107419808,colour,0.5
139,21,0,2,8,18,368,566.3549888029688,567.0551844654688,"[16, 0, 238]",238,a,0.17705565747382934,colour,0.5
139,21,0,2,8,19,369,567.5737487721858,568.3671818692387,"[31, 0, 223]",223,a,0.2702560705392898,colour,0.5
139,21,0,2,8,20,370,568.8861093016089,569.5911945573685,"[27, 0, 227]",227,a,0.1819424938148586,colour,0.5
139,21,0,2,8,21,371,570.1049641876184,570.8152155162566,"[92, 0, 162]",162,l,0.18711132361295313,colour,0.5
139,21,0,2,8,22,372,571.3237985936562,571.9351836462697,"[77, 0, 177]",177,l,0.08823086914617306,colour,0.5
139,21,0,2,8,23,373,572.448728390676,573.0951578257514,"[43, 0, 211]",211,a,0.123153553314296,colour,0.5
139,21,0,2,8,24,374,573.6078778574479,574.191152967272,"[74, 0, 180]",180,l,0.060123683275378426,colour,0.5
139,21,0,2,8,25,375,574.7016446205021,575.791170454017,"[4, 0, 250]",250,a,0.5664291515067816,colour,0.5
139,21,0,2,8,26,376,576.3110624142896,577.1831736551944,"[54, 0, 200]",200,l,0.3491082941518471,colour,0.5
139,21,0,2,8,27,377,577.7016044482502,578.4072131248263,"[1, 0, 253]",253,a,0.18249151459622226,colour,0.5
139,21,0,2,8,28,378,578.9203856851295,579.6791544607345,"[70, 0, 184]",184,l,0.23587965023307333,colour,0.5
139,21,0,2,8,29,379,580.1859904390035,580.9592011393165,"[10, 0, 244]",244,a,0.2501640366972424,colour,0.5
139,21,0,2,8,30,380,581.4671914790711,582.3191894184715,"[32, 0, 222]",222,a,0.3287539591337918,colour,0.5
139,21,0,2,8,31,381,582.826599623641,583.6391594389429,"[94, 0, 160]",160,l,0.2912917584653769,colour,0.5
139,21,0,2,8,32,382,584.1423361976408,584.9351950677924,"[18, 0, 236]",236,a,0.26982480959486566,colour,0.5
139,21,0,2,8,33,383,585.4547246901025,586.2711292262588,"[28, 0, 226]",226,a,0.29323459886472847,colour,0.5
139,21,0,2,8,34,384,586.7735352290961,587.6311667361147,"[88, 0, 166]",166,l,0.33440603749568254,colour,0.5
139,21,0,2,8,35,385,588.1455220147877,589.0471551349988,"[78, 0, 176]",176,l,0.3785218659149905,colour,0.5
139,21,0,2,8,36,386,589.5534968370262,590.5191708289581,"[20, 0, 234]",234,a,0.4427553281402652,colour,0.5
139,21,0,2,8,37,387,591.0379013385232,592.1671228711662,"[12, 0, 242]",242,a,0.606091767603175,colour,0.5
139,21,0,2,8,38,388,592.6785034339396,593.6071835076359,"[23, 0, 231]",231,a,0.40552234561801015,colour,0.5
139,21,0,2,8,39,389,594.1159906831886,595.6471556863821,"[11, 0, 243]",243,a,1.0083192008396509,colour,0.5
139,21,0,2,8,40,390,596.1631757504533,596.9751869388188,"[89, 0, 165]",165,l,0.2892098905658713,colour,0.5
139,21,0,2,8,41,391,597.4912786827913,598.3111860818112,"[97, 0, 157]",157,l,0.29578317381310626,colour,0.5
139,21,0,2,8,42,392,598.8204702043981,599.6231716702127,"[91, 0, 163]",163,l,0.2781514935022642,colour,0.5
139,21,0,2,8,43,393,600.1328531830209,601.1031245347699,"[59, 0, 195]",195,l,0.44717545743242226,colour,0.5
139,21,0,2,8,44,394,601.6172990383079,602.4231489059362,"[95, 0, 159]",159,l,0.2827110441394325,colour,0.5
139,21,0,2,8,45,395,602.9296989522923,603.7351435527867,"[6, 0, 248]",248,a,0.28224985092947463,colour,0.5
139,21,0,2,8,46,396,604.2423174505898,605.2071395544658,"[22, 0, 232]",232,a,0.4417750464144774,colour,0.5
139,21,0,2,8,47,397,605.7266144322361,606.5751819763641,"[75, 0, 179]",179,l,0.3253227761697417,colour,0.5
139,21,0,2,8,48,398,607.0859418384557,608.0711663265151,"[21, 0, 233]",233,a,0.46202855695719336,colour,0.5
139,21,0,2,8,49,399,608.5860718075069,617.6552054968247,"[51, 0, 203]",203,l,8.546197302473047,colour,0.5
139,21,0,2,8,50,400,618.1640252754355,618.7031120892484,"[42, 0, 212]",212,l,0.015836138170016056,colour,0.5
139,21,0,2,9,1,401,623.2123028704259,623.7511175369214,"[49, 0, 205]",205,l,0.014807019589170523,colour,0.5
139,21,0,2,9,2,402,624.2600558630616,624.9430727677031,"[6, 0, 248]",248,a,0.15980285664136318,colour,0.5
139,21,0,2,9,3,403,625.4631411708083,626.1191638972755,"[95, 0, 159]",159,l,0.1328543645577156,colour,0.5
139,21,0,2,9,4,404,626.6350083062039,627.5911291789976,"[47, 0, 207]",207,l,0.4329532985757396,colour,0.5
139,21,0,2,9,5,405,628.1038322753325,628.9111350394201,"[19, 0, 235]",235,a,0.28419938670413103,colour,0.5
139,21,0,2,9,6,406,629.4319123646251,630.2871252657474,"[29, 0, 225]",225,a,0.33192362860972935,colour,0.5
139,21,0,2,9,7,407,630.8069494845745,631.5111084154564,"[84, 0, 170]",170,l,0.18101223048142856,colour,0.5
139,21,0,2,9,8,408,632.0256936999672,632.8151016948755,"[33, 0, 221]",221,a,0.2663361251743481,colour,0.5
139,21,0,2,9,9,409,633.322540650775,633.9991299950457,"[31, 0, 223]",223,a,0.1534068039200065,colour,0.5
139,21,0,2,9,10,410,634.5099906816126,635.2391402980461,"[97, 0, 157]",157,l,0.2059635314717525,colour,0.5
139,21,0,2,9,11,411,635.7599286509289,636.4470927498537,"[87, 0, 167]",167,l,0.16378975576026278,colour,0.5
139,21,0,2,9,12,412,636.9632112753275,637.6871219574446,"[80, 0, 174]",174,l,0.20075137865660508,colour,0.5
139,21,0,2,9,13,413,638.197578558415,639.2950529840496,"[72, 0, 182]",182,l,0.5744746296468293,colour,0.5
139,21,0,2,9,14,414,639.8069672076267,640.6390932728805,"[56, 0, 198]",198,l,0.3089348602989048,colour,0.5
139,21,0,2,9,15,415,641.1506750907615,641.9350843971756,"[81, 0, 173]",173,l,0.2613323166860937,colour,0.5
139,21,0,2,9,16,416,642.438151666794,643.1990657194415,"[91, 0, 163]",163,l,0.23770394310304255,colour,0.5
139,21,0,2,9,17,417,643.719424386763,644.4790757703818,"[10, 0, 244]",244,a,0.23666143377158733,colour,0.5
139,21,0,2,9,18,418,644.9849933006858,645.8151162671625,"[15, 0, 239]",239,a,0.30702825369644415,colour,0.5
139,21,0,2,9,19,419,646.3288177621221,647.1271428155073,"[46, 0, 208]",208,l,0.2752208883102867,colour,0.5
139,21,0,2,9,20,420,647.6413082605964,648.3191023785907,"[12, 0, 242]",242,a,0.15770720414457173,colour,0.5
139,21,0,2,9,21,421,648.8258064185807,649.6550581985662,"[16, 0, 238]",238,a,0.30613107339468115,colour,0.5
139,21,0,2,9,22,422,650.1696675076587,650.9430357462156,"[3, 0, 251]",251,a,0.2504613901337507,colour,0.5
139,21,0,2,9,23,423,651.450867366189,652.1511110778533,"[93, 0, 161]",161,l,0.17712497430238727,colour,0.5
139,21,0,2,9,24,424,652.6696068554343,653.5670711198522,"[43, 0, 211]",211,l,0.37457986519439146,colour,0.5
139,21,0,2,9,25,425,654.0758109478052,654.847111103059,"[1, 0, 253]",253,a,0.2482026855541335,colour,0.5
139,21,0,2,9,26,426,655.3570364063003,656.1190831589252,"[78, 0, 176]",176,l,0.23878111084923148,colour,0.5
139,21,0,2,9,27,427,656.638481236801,657.3912013315135,"[61, 0, 193]",193,l,0.2297403848506292,colour,0.5
139,21,0,2,9,28,428,657.9039363293427,658.6630875290361,"[42, 0, 212]",212,l,0.23616479445627192,colour,0.5
139,21,0,2,9,29,429,659.169533206305,660.151063028688,"[28, 0, 226]",226,a,0.45858437708920974,colour,0.5
139,21,0,2,9,30,430,660.6695714093289,661.7350596636711,"[88, 0, 166]",166,l,0.5425109075540604,colour,0.5
139,21,0,2,9,31,431,662.2484578975104,663.1030571871702,"[7, 0, 247]",247,a,0.33252266778436024,colour,0.5
139,21,0,2,9,32,432,663.6226214678941,664.2710543955923,"[2, 0, 252]",252,a,0.1252547196481828,colour,0.5
139,21,0,2,9,33,433,664.7664727896004,665.5191609828184,"[57, 0, 197]",197,l,0.22941861298659205,colour,0.5
139,21,0,2,9,34,434,666.0321216541829,666.6630717752118,"[22, 0, 232]",232,a,0.10784201749811473,colour,0.5
139,21,0,2,9,35,435,667.1732357488931,667.7910814449092,"[73, 0, 181]",181,l,0.0946887556292495,colour,0.5
139,21,0,2,9,36,436,668.2981631828393,668.8710376177692,"[59, 0, 195]",195,l,0.04997979571999167,colour,0.5
139,21,0,2,9,37,437,669.3919319151214,670.0870331846431,"[24, 0, 230]",230,a,0.17198489523252647,colour,0.5
139,21,0,2,9,38,438,670.5951515242218,671.2790293753683,"[35, 0, 219]",219,a,0.16081937216222286,colour,0.5
139,21,0,2,9,39,439,671.7981950843337,672.3750796552745,"[66, 0, 188]",188,l,0.05126136933813541,colour,0.5
139,21,0,2,9,40,440,672.8944099917057,673.4870385409436,"[94, 0, 160]",160,l,0.06888399119998212,colour,0.5
139,21,0,2,9,41,441,674.0046611628054,674.7271138284709,"[68, 0, 186]",186,l,0.19931541755886428,colour,0.5
139,21,0,2,9,42,442,675.2390591658509,675.8150197749878,"[65, 0, 189]",189,l,0.05276546572622465,colour,0.5
139,21,0,2,9,43,443,676.3328373504269,677.0790404818149,"[86, 0, 168]",168,l,0.2231245662778747,colour,0.5
139,21,0,2,9,44,444,677.5983849966874,678.3590150866498,"[62, 0, 192]",192,l,0.23753458949067863,colour,0.5
139,21,0,2,9,45,445,678.8796648058774,679.4070536173535,"[71, 0, 183]",183,l,0.004267711040483846,colour,0.5
139,21,0,2,9,46,446,679.9265127412996,680.5350483209181,"[32, 0, 222]",222,a,0.08526875630650466,colour,0.5
139,21,0,2,9,47,447,681.0515287905077,681.6871010836271,"[9, 0, 245]",245,a,0.11242519887309754,colour,0.5
139,21,0,2,9,48,448,682.2077697074433,682.9350371357027,"[67, 0, 187]",187,l,0.20395570654727635,colour,0.5
139,21,0,2,9,49,449,683.4422027627484,684.0710643205016,"[30, 0, 224]",224,a,0.1057810234151475,colour,0.5
139,21,0,2,9,50,450,684.5827875289574,685.1910450535747,"[75, 0, 179]",179,l,0.08534949465683894,colour,0.5
139,21,0,2,10,1,451,689.7289436351789,690.6390089899201,"[35, 0, 219]",219,a,0.38615065539852367,colour,0.5
139,21,0,2,10,2,452,691.1546135468711,691.7509903247887,"[7, 0, 247]",247,a,0.07338131423148297,colour,0.5
139,21,0,2,10,3,453,692.2638903439297,693.0630235685089,"[2, 0, 252]",252,a,0.2759302042559284,colour,0.5
139,21,0,2,10,4,454,693.5763481532181,694.3189944648934,"[52, 0, 202]",202,l,0.2194468359621169,colour,0.5
139,21,0,2,10,5,455,694.8263388978462,695.4390275794326,"[3, 0, 251]",251,a,0.08947699665895925,colour,0.5
139,21,0,2,10,6,456,695.9514073285213,696.5510246681256,"[55, 0, 199]",199,l,0.07659194365169242,colour,0.5
139,21,0,2,10,7,457,697.0607329624358,697.8710033532011,"[40, 0, 214]",214,a,0.2861599501547971,colour,0.5
139,21,0,2,10,8,458,698.3898512287592,698.9990275951864,"[16, 0, 238]",238,a,0.08613954895190545,colour,0.5
139,21,0,2,10,9,459,699.5148038688244,700.2550189715434,"[76, 0, 178]",178,l,0.2170727346201602,colour,0.5
139,21,0,2,10,10,460,700.7648095795853,701.4950501483613,"[14, 0, 240]",240,a,0.2071529452168761,colour,0.5
139,21,0,2,10,11,461,702.0147538504311,702.8150036273178,"[37, 0, 217]",217,l,0.2770306088932557,colour,0.5
139,21,0,2,10,12,462,703.3272604965764,703.9990031767588,"[32, 0, 222]",222,a,0.1486152782163117,colour,0.5
139,21,0,2,10,13,463,704.5147538504311,705.2389662182864,"[68, 0, 186]",186,l,0.20111489815553796,colour,0.5
139,21,0,2,10,14,464,705.7402966287605,706.4389712595107,"[92, 0, 162]",162,l,0.18475415763168712,colour,0.5
139,21,0,2,10,15,465,706.9497512077273,707.6869908068561,"[61, 0, 193]",193,l,0.21407005568198656,colour,0.5
139,21,0,2,10,16,466,708.1997191093101,708.8950125754905,"[23, 0, 231]",231,a,0.1720987166145278,colour,0.5
139,21,0,2,10,17,467,709.402910755372,710.3350562765995,"[87, 0, 167]",167,l,0.4091504513862674,colour,0.5
139,21,0,2,10,18,468,710.8559801123715,711.8309980914241,"[98, 0, 156]",156,l,0.4518677340411159,colour,0.5
139,21,0,2,10,19,469,712.3403385339329,713.6789937717253,"[48, 0, 206]",206,a,0.8155081435452303,colour,0.5
139,21,0,2,10,20,470,714.1997108385526,715.4949871330641,"[18, 0, 236]",236,a,0.7721394402515216,colour,0.5
139,21,0,2,10,21,471,716.0121914908864,717.1509956810892,"[50, 0, 204]",204,l,0.6156314959916926,colour,0.5
139,21,0,2,10,22,472,717.6684044447843,718.7910223680678,"[77, 0, 177]",177,l,0.5994523182935154,colour,0.5
139,21,0,2,10,23,473,719.2966500280022,720.1109652131922,"[65, 0, 189]",189,l,0.291129494073175,colour,0.5
139,21,0,2,10,24,474,720.624787618754,721.4309655597767,"[63, 0, 191]",191,l,0.283052508284527,colour,0.5
139,21,0,2,10,25,475,721.9391614869405,722.7109830937829,"[54, 0, 200]",200,l,0.2487280755995016,colour,0.5
139,21,0,2,10,26,476,723.2202896655695,723.9750455482449,"[75, 0, 179]",179,l,0.231743877473491,colour,0.5
139,21,0,2,10,27,477,724.4859798839411,725.1989869503191,"[80, 0, 174]",174,l,0.1900112088460446,colour,0.5
139,21,0,2,10,28,478,725.7046433609835,726.6230271288737,"[64, 0, 190]",190,l,0.39520713522233564,colour,0.5
139,21,0,2,10,29,479,727.1422436439229,727.8149697565955,"[69, 0, 185]",185,l,0.14972237822894385,colour,0.5
139,21,0,2,10,30,480,728.3296735886347,729.0869898616261,"[96, 0, 158]",158,l,0.23406914196038997,colour,0.5
139,21,0,2,10,31,481,729.606376911825,730.3909236703571,"[30, 0, 224]",224,a,0.2613925750647468,colour,0.5
139,21,0,2,10,32,482,730.9032333149275,731.6309796594492,"[67, 0, 187]",187,l,0.20479420385254343,colour,0.5
139,21,0,2,10,33,483,732.1375769672782,732.8309957283504,"[45, 0, 209]",209,a,0.17017359926830977,colour,0.5
139,21,0,2,10,34,484,733.3407611302741,733.990973846288,"[5, 0, 249]",249,a,0.12707152945222333,colour,0.5
139,21,0,2,10,35,485,734.4969701457153,735.0229525345144,"[10, 0, 244]",244,a,0.002813239198985684,colour,0.5
139,21,0,2,10,36,486,735.5438665241468,736.2229701787978,"[39, 0, 215]",215,a,0.15597073884600832,colour,0.5
139,21,0,2,10,37,487,736.7313523949356,737.2870047489901,"[33, 0, 221]",221,a,0.0324288537594839,colour,0.5
139,21,0,2,10,38,488,737.793849785709,738.4469320608446,"[88, 0, 166]",166,l,0.12843856756808236,colour,0.5
139,21,0,2,10,39,489,738.968332449806,739.670984921227,"[56, 0, 198]",198,l,0.17947150645159127,colour,0.5
139,21,0,2,10,40,490,740.1872464126568,740.9189910778218,"[12, 0, 242]",242,a,0.20896817963784997,colour,0.5
139,21,0,2,10,41,491,741.4370811944232,742.1029945657178,"[73, 0, 181]",181,l,0.14301794439325022,colour,0.5
139,21,0,2,10,42,492,742.6089794436225,743.2949234088442,"[97, 0, 157]",157,l,0.16158106957482232,colour,0.5
139,21,0,2,10,43,493,743.8132880358366,744.5749673305068,"[41, 0, 213]",213,a,0.2386558679454538,colour,0.5
139,21,0,2,10,44,494,745.0945032543464,745.9509650399,"[36, 0, 218]",218,a,0.3333962173492182,colour,0.5
139,21,0,2,10,45,495,746.4694631805555,747.0469696337154,"[94, 0, 160]",160,l,0.05441922344652994,colour,0.5
139,21,0,2,10,46,496,747.5632342759104,748.142950596794,"[11, 0, 243]",243,a,0.05657828508537932,colour,0.5
139,21,0,2,10,47,497,748.6579454807393,749.2949501903454,"[27, 0, 227]",227,a,0.11379893236335192,colour,0.5
139,21,0,2,10,48,498,749.8142360222223,750.4389236041911,"[24, 0, 230]",230,a,0.1019674163644595,colour,0.5
139,21,0,2,10,49,499,750.9548121238281,751.5909503730895,"[62, 0, 192]",192,l,0.11304471801759064,colour,0.5
139,21,0,2,10,50,500,752.1110317731004,752.7349198484794,"[4, 0, 250]",250,a,0.10070986732898746,colour,0.5
139,21,0,2,11,1,501,757.4852323649716,758.1109266163226,"[45, 0, 209]",209,l,0.10179333660471457,colour,0.5
139,21,0,2,11,2,502,758.6285634166265,759.3349121291053,"[25, 0, 229]",229,a,0.18310000606470567,colour,0.5
139,21,0,2,11,3,503,759.8380329617271,760.4229425308363,"[72, 0, 182]",182,l,0.06179949635043158,colour,0.5
139,21,0,2,11,4,504,760.9317658540581,761.6949228574599,"[34, 0, 220]",220,a,0.23993271541530703,colour,0.5
139,21,0,2,11,5,505,762.2130381801812,762.7829150561661,"[70, 0, 184]",184,l,0.047449337669604574,colour,0.5
139,21,0,2,11,6,506,763.291116103323,763.9270515220946,"[19, 0, 235]",235,a,0.11167728605687444,colour,0.5
139,21,0,2,11,7,507,764.4484696341092,765.0069025381777,"[29, 0, 225]",225,a,0.03536103433361859,colour,0.5
139,21,0,2,11,8,508,765.5265916679596,766.1589233993914,"[46, 0, 208]",208,a,0.10965213192503143,colour,0.5
139,21,0,2,11,9,509,766.667209911046,767.902917844593,"[96, 0, 158]",158,l,0.7125517808517543,colour,0.5
139,21,0,2,11,10,510,768.4172703663476,769.4229417431447,"[55, 0, 199]",199,l,0.4825266456246027,colour,0.5
139,21,0,2,11,11,511,769.9329013109541,770.6708797644492,"[37, 0, 217]",217,a,0.2149160360550013,colour,0.5
139,21,0,2,11,12,512,771.182865274081,771.8788940500167,"[97, 0, 157]",157,l,0.17290294935264683,colour,0.5
139,21,0,2,11,13,513,772.3860171417359,773.022875340775,"[13, 0, 241]",241,a,0.11389463684736256,colour,0.5
139,21,0,2,11,14,514,773.5422312771702,774.1268931173904,"[65, 0, 189]",189,l,0.06153049979820935,colour,0.5
139,21,0,2,11,15,515,774.635989769466,775.3668671865958,"[63, 0, 191]",191,l,0.207760255148969,colour,0.5
139,21,0,2,11,16,516,775.8859616095056,776.5349522225893,"[14, 0, 240]",240,a,0.12633897661635274,colour,0.5
139,21,0,2,11,17,517,777.0422281264059,777.6389093469802,"[23, 0, 231]",231,a,0.07357744934506627,colour,0.5
139,21,0,2,11,18,518,778.1515951141087,778.9269408514788,"[24, 0, 230]",230,a,0.2521667416285709,colour,0.5
139,21,0,2,11,19,519,779.4484003172815,780.1908883030214,"[67, 0, 187]",187,l,0.21962052187700465,colour,0.5
139,21,0,2,11,20,520,780.6891459300391,781.3909280026596,"[5, 0, 249]",249,a,0.1891924038209254,colour,0.5
139,21,0,2,11,21,521,781.897376436847,782.7509343987117,"[79, 0, 175]",175,l,0.3304608860107692,colour,0.5
139,21,0,2,11,22,522,783.256755436842,784.014893271778,"[64, 0, 190]",190,l,0.23499507299129618,colour,0.5
139,21,0,2,11,23,523,784.5222892985062,785.1908957860883,"[80, 0, 174]",174,l,0.146234087652374,colour,0.5
139,21,0,2,11,24,524,785.709842123048,786.382890795277,"[74, 0, 180]",180,l,0.1499059102843603,colour,0.5
139,21,0,2,11,25,525,786.897260646238,787.5029636882223,"[92, 0, 162]",162,l,0.08249450782295753,colour,0.5
139,21,0,2,11,26,526,788.0223184430811,788.6548719095922,"[76, 0, 178]",178,l,0.10939179997694737,colour,0.5
139,21,0,2,11,27,527,789.1629260523355,789.9749352714739,"[59, 0, 195]",195,l,0.28887275872330065,colour,0.5
139,21,0,2,11,28,528,790.4910833353683,791.2309077432406,"[7, 0, 247]",247,a,0.2166686490227221,colour,0.5
139,21,0,2,11,29,529,791.7410921968944,792.3269509339257,"[11, 0, 243]",243,a,0.06267934744482773,colour,0.5
139,21,0,2,11,30,530,792.8347900369658,793.686882499313,"[2, 0, 252]",252,a,0.32889377432547917,colour,0.5
139,21,0,2,11,31,531,794.1923943686375,794.8628680782617,"[69, 0, 185]",185,l,0.14635775517490401,colour,0.5
139,21,0,2,11,32,532,795.3809117210817,797.0309507511815,"[85, 0, 169]",169,l,1.1272243415487537,colour,0.5
139,21,0,2,11,33,533,797.5371534257088,798.1268387666964,"[40, 0, 214]",214,l,0.06726646727656771,colour,0.5
139,21,0,2,11,34,534,798.6465515272153,799.4708932339686,"[82, 0, 172]",172,l,0.3012273016929612,colour,0.5
139,21,0,2,11,35,535,799.9902814657039,800.8069022231007,"[28, 0, 226]",226,a,0.29318536816299456,colour,0.5
139,21,0,2,11,36,536,801.3184080287788,801.8788641177503,"[26, 0, 228]",228,a,0.037298754738912976,colour,0.5
139,21,0,2,11,37,537,802.3847253281324,803.1588962240444,"[57, 0, 197]",197,l,0.2510541277779339,colour,0.5
139,21,0,2,11,38,538,803.6659661466069,804.4388499550619,"[17, 0, 237]",237,a,0.24975010495927563,colour,0.5
139,21,0,2,11,39,539,804.9472325650454,805.5429492577191,"[22, 0, 232]",232,a,0.07267042290368408,colour,0.5
139,21,0,2,11,40,540,806.0565704081732,806.7828796100616,"[81, 0, 173]",173,l,0.20320779373196274,colour,0.5
139,21,0,2,11,41,541,807.2909684112187,808.3028849978696,"[27, 0, 227]",227,a,0.48873168322552374,colour,0.5
139,21,0,2,11,42,542,808.822182645114,809.4788859367968,"[52, 0, 202]",202,l,0.13355383436191914,colour,0.5
139,21,0,2,11,43,543,809.994058051268,810.606823532748,"[9, 0, 245]",245,a,0.08968376560551405,colour,0.5
139,21,0,2,11,44,544,811.1191296327074,811.8228510011163,"[50, 0, 204]",204,l,0.1807700154313352,colour,0.5
139,21,0,2,11,45,545,812.3377935035955,813.078848679002,"[60, 0, 194]",194,l,0.21819676999348303,colour,0.5
139,21,0,2,11,46,546,813.5878177251002,814.1428911261069,"[8, 0, 246]",246,a,0.03196529747583554,colour,0.5
139,21,0,2,11,47,547,814.6503147220278,815.2708783466046,"[93, 0, 161]",161,l,0.09740629034422454,colour,0.5
139,21,0,2,11,48,548,815.790947931247,816.6148449863063,"[53, 0, 201]",201,l,0.3007728038583082,colour,0.5
139,21,0,2,11,49,549,817.1346664482139,817.766885539801,"[6, 0, 248]",248,a,0.10911650189518696,colour,0.5
139,21,0,2,11,50,550,818.2753083220364,818.8629909580927,"[47, 0, 207]",207,l,0.06471434771719942,colour,0.5
139,21,0,2,12,1,551,826.79006020324,827.6948212452921,"[14, 0, 240]",240,a,0.38079277970700787,colour,0.5
139,21,0,2,12,2,552,828.2128026605055,828.8388230160222,"[19, 0, 235]",235,a,0.1029114642942659,colour,0.5
139,21,0,2,12,3,553,829.3410588775555,829.9749336960917,"[7, 0, 247]",247,a,0.110826185692531,colour,0.5
139,21,0,2,12,4,554,830.481622769948,831.0469070122631,"[62, 0, 192]",192,l,0.042165504953118216,colour,0.5
139,21,0,2,12,5,555,831.5596282254969,832.2388319169336,"[3, 0, 251]",251,a,0.15593804966101743,colour,0.5
139,21,0,2,12,6,556,832.7473393759751,833.438838927385,"[37, 0, 217]",217,l,0.16844658626450837,colour,0.5
139,21,0,2,12,7,557,833.9503632438068,834.6227935784259,"[91, 0, 163]",163,l,0.14930253880720556,colour,0.5
139,21,0,2,12,8,558,835.1378475392135,835.7108161032443,"[11, 0, 243]",243,a,0.04978996213594655,colour,0.5
139,21,0,2,12,9,559,836.2316501422179,836.7989150341105,"[1, 0, 253]",253,a,0.044497858661088685,colour,0.5
139,21,0,2,12,10,560,837.3096256655003,837.8867808083755,"[94, 0, 160]",160,l,0.05395291024342441,colour,0.5
139,21,0,2,12,11,561,838.4034723792133,839.0228347746765,"[90, 0, 164]",164,l,0.0964531839654228,colour,0.5
139,21,0,2,12,12,562,839.5285211176074,840.2068418071844,"[73, 0, 181]",181,l,0.15596876961899397,colour,0.5
139,21,0,2,12,13,563,840.7159274315832,841.6628449201403,"[15, 0, 239]",239,a,0.4237916619740645,colour,0.5
139,21,0,2,12,14,564,842.1691023392063,842.710807438641,"[68, 0, 186]",186,l,0.018981389220243727,colour,0.5
139,21,0,2,12,15,565,843.2315040254957,844.1348641587106,"[26, 0, 228]",228,a,0.3804820355207994,colour,0.5
139,21,0,2,12,16,566,844.6534867545784,845.422861792486,"[25, 0, 229]",229,a,0.24650009097877046,colour,0.5
139,21,0,2,12,17,567,845.9347086684634,846.4708266740604,"[21, 0, 233]",233,a,0.013062677378002263,colour,0.5
139,21,0,2,12,18,568,846.9815727515547,847.7268373488519,"[34, 0, 220]",220,a,0.22210923229249602,colour,0.5
139,21,0,2,12,19,569,848.2472208284466,848.9187894288684,"[60, 0, 194]",194,l,0.14854281062343944,colour,0.5
139,21,0,2,12,20,570,849.4346818869612,850.1508196321006,"[44, 0, 210]",210,l,0.1930071924080039,colour,0.5
139,21,0,2,12,21,571,850.6694961848175,851.3828151769189,"[55, 0, 199]",199,l,0.1902553931240618,colour,0.5
139,21,0,2,12,22,572,851.8900446069542,852.6868301178461,"[69, 0, 185]",185,l,0.2816441163795389,colour,0.5
139,21,0,2,12,23,573,853.19447781192,853.8790023575598,"[95, 0, 159]",159,l,0.16133885452381946,colour,0.5
139,21,0,2,12,24,574,854.3976170765159,855.0068560643954,"[93, 0, 161]",161,l,0.08600288452544191,colour,0.5
139,21,0,2,12,25,575,855.5226520303136,856.1507597675677,"[85, 0, 169]",169,l,0.10574360808277561,colour,0.5
139,21,0,2,12,26,576,856.6632470365089,857.2867975861986,"[40, 0, 214]",214,a,0.10079139336994558,colour,0.5
139,21,0,2,12,27,577,857.8038971810897,858.4707687787554,"[71, 0, 183]",183,l,0.14656137335532549,colour,0.5
139,21,0,2,12,28,578,858.9885190065957,859.638781347157,"[98, 0, 156]",156,l,0.1271609324057863,colour,0.5
139,21,0,2,12,29,579,860.1447898557976,860.8870210541986,"[48, 0, 206]",206,a,0.21948346360477444,colour,0.5
139,21,0,2,12,30,580,861.3948747295267,862.0148471918415,"[75, 0, 179]",179,l,0.09687774953454209,colour,0.5
139,21,0,2,12,31,581,862.5353882096801,863.1507912752172,"[89, 0, 165]",165,l,0.09261161387712491,colour,0.5
139,21,0,2,12,32,582,863.6604156804119,864.3747937233616,"[13, 0, 241]",241,a,0.1913691885129083,colour,0.5
139,21,0,2,12,33,583,864.8947869019553,865.5748956506054,"[74, 0, 180]",180,l,0.1569545651827866,colour,0.5
139,21,0,2,12,34,584,866.0821904590116,866.8468334419035,"[65, 0, 189]",189,l,0.24145729177598696,colour,0.5
139,21,0,2,12,35,585,867.3635092589161,868.0548252782714,"[76, 0, 178]",178,l,0.16820752197872935,colour,0.5
139,21,0,2,12,36,586,868.5666044128034,869.182792806489,"[12, 0, 242]",242,a,0.09295780416960042,colour,0.5
139,21,0,2,12,37,587,869.6916925357596,870.38282226614,"[46, 0, 208]",208,l,0.16799917765001737,colour,0.5
139,21,0,2,12,38,588,870.8947601204541,871.5427810856431,"[24, 0, 230]",230,a,0.12484433252211602,colour,0.5
139,21,0,2,12,39,589,872.0529616008403,872.5827568089994,"[49, 0, 205]",205,l,0.006863547461762209,colour,0.5
139,21,0,2,12,40,590,873.0997540040312,874.4467717656803,"[18, 0, 236]",236,a,0.8227537212496827,colour,0.5
139,21,0,2,12,41,591,874.9601896917998,875.742754619218,"[92, 0, 162]",162,l,0.25938435629450396,colour,0.5
139,21,0,2,12,42,592,876.257048457976,877.1428627692226,"[81, 0, 173]",173,l,0.36291179512409144,colour,0.5
139,21,0,2,12,43,593,877.6633356517709,878.206783124188,"[20, 0, 234]",234,a,0.0203035289350737,colour,0.5
139,21,0,2,12,44,594,878.7257952333653,879.3427709244265,"[32, 0, 222]",222,a,0.10627214889245806,colour,0.5
139,21,0,2,12,45,595,879.8541329764562,880.5427732087314,"[54, 0, 200]",200,l,0.1656597347218849,colour,0.5
139,21,0,2,12,46,596,881.0571414843093,881.678766522808,"[72, 0, 182]",182,l,0.09833064599388308,colour,0.5
139,21,0,2,12,47,597,882.1978621272542,883.0467545940123,"[50, 0, 204]",204,l,0.32575246173200867,colour,0.5
139,21,0,2,12,48,598,883.5571974103864,884.118821251594,"[41, 0, 213]",213,a,0.03846965774027922,colour,0.5
139,21,0,2,12,49,599,884.6353584349522,885.3267697649449,"[30, 0, 224]",224,a,0.16831858644036402,colour,0.5
139,21,0,2,12,50,600,885.8384988810844,886.6627165264704,"[63, 0, 191]",191,l,0.30115916640170326,colour,0.5
139,21,0,2,13,1,601,891.2916214072416,892.3987635610888,"[75, 0, 179]",179,l,0.5832739282868715,colour,0.5
139,21,0,2,13,2,602,892.917361738529,893.7907435253751,"[61, 0, 193]",193,l,0.35020279110540287,colour,0.5
139,21,0,2,13,3,603,894.3080258646291,895.1107580504008,"[12, 0, 242]",242,a,0.2796118730266244,colour,0.5
139,21,0,2,13,4,604,895.620480916999,896.3827076570674,"[33, 0, 221]",221,a,0.23918598413729342,colour,0.5
139,21,0,2,13,5,605,896.9017682092549,897.4547278408677,"[24, 0, 230]",230,a,0.029866100369872584,colour,0.5
139,21,0,2,13,6,606,897.9642037662666,898.9827794945072,"[58, 0, 196]",196,l,0.49549440621103713,colour,0.5
139,21,0,2,13,7,607,899.4954877108353,900.262703687104,"[36, 0, 218]",218,a,0.2441291404011281,colour,0.5
139,21,0,2,13,8,608,900.7785177699202,901.4787000416686,"[41, 0, 213]",213,a,0.17707495590912004,colour,0.5
139,21,0,2,13,9,609,901.9972233884432,902.646756326933,"[7, 0, 247]",247,a,0.12644728415943973,colour,0.5
139,21,0,2,13,10,610,903.1534540653925,903.8627400784385,"[40, 0, 214]",214,a,0.18642209379413544,colour,0.5
139,21,0,2,13,11,611,904.3722593268544,905.0947226263511,"[69, 0, 185]",185,l,0.19937370670868404,colour,0.5
139,21,0,2,13,12,612,905.6065588684974,906.3506954919644,"[2, 0, 252]",252,a,0.22095880926281097,colour,0.5
139,21,0,2,13,13,613,906.8568347573478,907.4946905673191,"[66, 0, 188]",188,l,0.1149442353998893,colour,0.5
139,21,0,2,13,14,614,908.0128964745304,908.6626999849555,"[55, 0, 199]",199,l,0.1267217945496668,colour,0.5
139,21,0,2,13,15,615,909.1690330223787,910.0307168068889,"[95, 0, 159]",159,l,0.3386461793434137,colour,0.5
139,21,0,2,13,16,616,910.5440634469528,911.270803515938,"[81, 0, 173]",173,l,0.20368552845775412,colour,0.5
139,21,0,2,13,17,617,911.778364563977,912.3907476213694,"[1, 0, 253]",253,a,0.08903392034699209,colour,0.5
139,21,0,2,13,18,618,912.903436933108,913.5427149195807,"[99, 0, 155]",155,l,0.11641603644784482,colour,0.5
139,21,0,2,13,19,619,914.0595608778972,914.7267117121023,"[56, 0, 198]",198,l,0.14387652782625082,colour,0.5
139,21,0,2,13,20,620,915.2479671658789,915.7747951412052,"[93, 0, 161]",161,l,0.0036202288556523854,colour,0.5
139,21,0,2,13,21,621,916.2948852058194,917.1347393096516,"[98, 0, 156]",156,l,0.3166806219296632,colour,0.5
139,21,0,2,13,22,622,917.6542689319617,918.3027475457507,"[91, 0, 163]",163,l,0.12537051025810797,colour,0.5
139,21,0,2,13,23,623,918.8105090612057,919.5746853370488,"[9, 0, 245]",245,a,0.24107171692230622,colour,0.5
139,21,0,2,13,24,624,920.0918510980023,920.9347106376913,"[15, 0, 239]",239,a,0.31978963918209047,colour,0.5
139,21,0,2,13,25,625,921.4510237228965,922.0466777941178,"[14, 0, 240]",240,a,0.07244750628797192,colour,0.5
139,21,0,2,13,26,626,922.5604994119881,923.0946986017693,"[84, 0, 170]",170,l,0.011137953877550899,colour,0.5
139,21,0,2,13,27,627,923.6079574142618,924.2146813040704,"[27, 0, 227]",227,a,0.083596487842442,colour,0.5
139,21,0,2,13,28,628,924.7329195066218,925.3266945404334,"[72, 0, 182]",182,l,0.07063817955076956,colour,0.5
139,21,0,2,13,29,629,925.8423762911239,926.5106783360493,"[50, 0, 204]",204,l,0.14526404591288156,colour,0.5
139,21,0,2,13,30,630,927.0298830357301,927.6627169203161,"[94, 0, 160]",160,l,0.10970687646567967,colour,0.5
139,21,0,2,13,31,631,928.1704311742983,928.7668430044746,"[51, 0, 203]",203,l,0.07348410793565563,colour,0.5
139,21,0,2,13,32,632,929.2797768943378,929.9107088984688,"[74, 0, 180]",180,l,0.10769550693021301,colour,0.5
139,21,0,2,13,33,633,930.4204038020275,931.1346818081925,"[34, 0, 220]",220,a,0.20341731959706522,colour,0.5
139,21,0,2,13,34,634,931.6331146965063,932.2707074176092,"[71, 0, 183]",183,l,0.11441490689867351,colour,0.5
139,21,0,2,13,35,635,932.7893012627478,933.3268241156397,"[10, 0, 244]",244,a,0.014328497171845811,colour,0.5
139,21,0,2,13,36,636,933.8362275734466,934.4787189462581,"[38, 0, 216]",216,a,0.1195671951809345,colour,0.5
139,21,0,2,13,37,637,934.9924487981011,936.2626560317844,"[87, 0, 167]",167,l,0.7470869209382727,colour,0.5
139,21,0,2,13,38,638,936.773696311951,937.3506679227717,"[18, 0, 236]",236,a,0.05382491042018955,colour,0.5
139,21,0,2,13,39,639,937.8674039981629,938.7586738588129,"[25, 0, 229]",229,a,0.36801957885290904,colour,0.5
139,21,0,2,13,40,640,939.2744910923934,939.9506936802741,"[3, 0, 251]",251,a,0.1538242802662353,colour,0.5
139,21,0,2,13,41,641,940.4611845458135,941.166700274825,"[30, 0, 224]",224,a,0.1808239722795406,colour,0.5
139,21,0,2,13,42,642,941.6813978053347,942.3267000542714,"[53, 0, 201]",201,l,0.12207993017818808,colour,0.5
139,21,0,2,13,43,643,942.8377300944517,943.5906727119341,"[68, 0, 186]",186,l,0.2298463293191162,colour,0.5
139,21,0,2,13,44,644,944.1033454821577,944.8546823910842,"[64, 0, 190]",190,l,0.2283548359910128,colour,0.5
139,21,0,2,13,45,645,945.3689963159682,946.1746847068957,"[48, 0, 206]",206,l,0.2826818995645226,colour,0.5
139,21,0,2,13,46,646,946.6814974482745,947.2786823973852,"[45, 0, 209]",209,a,0.07410008247097721,colour,0.5
139,21,0,2,13,47,647,947.7908762513457,948.58266346759,"[21, 0, 233]",233,a,0.26868108194139495,colour,0.5
139,21,0,2,13,48,648,949.0895474950235,949.7827027733815,"[80, 0, 174]",174,l,0.17008892246121832,colour,0.5
139,21,0,2,13,49,649,950.2926745504051,950.9506491757206,"[37, 0, 217]",217,a,0.1348905463664778,colour,0.5
139,21,0,2,13,50,650,951.4645452304117,952.0546563185048,"[11, 0, 243]",243,a,0.0670778152289131,colour,0.5
139,21,0,2,14,1,651,956.5574459269669,957.206663788968,"[7, 0, 247]",247,a,0.12523699659595877,colour,0.5
139,21,0,2,14,2,652,957.7145202212155,958.5027096578028,"[25, 0, 229]",229,a,0.2650604592390664,colour,0.5
139,21,0,2,14,3,653,959.0113734735528,959.6466476255441,"[4, 0, 250]",250,a,0.11217550075525651,colour,0.5
139,21,0,2,14,4,654,960.1676025751199,960.7106829834279,"[10, 0, 244]",244,a,0.019886446433702076,colour,0.5
139,21,0,2,14,5,655,961.224766902475,961.7906990208207,"[53, 0, 201]",201,l,0.04281613790226402,colour,0.5
139,21,0,2,14,6,656,962.292370895439,963.4066747378761,"[86, 0, 168]",168,l,0.5912985326103808,colour,0.5
139,21,0,2,14,7,657,963.9173251108873,964.6706560601419,"[74, 0, 180]",180,l,0.22828079301598336,colour,0.5
139,21,0,2,14,8,658,965.1850007049838,966.4146197853856,"[39, 0, 215]",215,a,0.7065633583370072,colour,0.5
139,21,0,2,14,9,659,966.9349749080961,967.7506275929813,"[96, 0, 158]",158,l,0.2925796336139683,colour,0.5
139,21,0,2,14,10,660,968.2635244613571,968.9826514946831,"[88, 0, 166]",166,l,0.19597442524081998,colour,0.5
139,21,0,2,14,11,661,969.4979445197564,970.3746200374467,"[73, 0, 181]",181,l,0.353558749556214,colour,0.5
139,21,0,2,14,12,662,970.8885184552114,971.7986066529979,"[72, 0, 182]",182,l,0.3869753681083239,colour,0.5
139,21,0,2,14,13,663,972.3103156830107,973.3346553417673,"[5, 0, 249]",249,a,0.5012004414220428,colour,0.5
139,21,0,2,14,14,664,973.8416992705193,975.246667081517,"[57, 0, 197]",197,l,0.8817994490882484,colour,0.5
139,21,0,2,14,15,665,975.7645346753493,976.7506457098793,"[30, 0, 224]",224,a,0.4629395218562422,colour,0.5
139,21,0,2,14,16,666,977.2644941092508,978.2546200059392,"[80, 0, 174]",174,l,0.4669106671508416,colour,0.5
139,21,0,2,14,17,667,978.7645815429764,979.5985968856262,"[92, 0, 162]",162,l,0.3108883345294089,colour,0.5
139,21,0,2,14,18,668,980.1083339306656,980.9986179957509,"[41, 0, 213]",213,a,0.3671361831475224,colour,0.5
139,21,0,2,14,19,669,981.5146010383346,982.6946341686275,"[71, 0, 183]",183,l,0.6568986391057479,colour,0.5
139,21,0,2,14,20,670,983.1896807723783,983.9506401172716,"[93, 0, 161]",161,l,0.23786384442155395,colour,0.5
139,21,0,2,14,21,671,984.4708558186353,985.2386330248996,"[79, 0, 175]",175,l,0.2450310468493626,colour,0.5
139,21,0,2,14,22,672,985.7520777325203,986.6466267517267,"[47, 0, 207]",207,l,0.3714499741245163,colour,0.5
139,21,0,2,14,23,673,987.1583633509331,987.926667522624,"[9, 0, 245]",245,a,0.24515235129729263,colour,0.5
139,21,0,2,14,24,674,988.4396738800801,989.1985899539436,"[94, 0, 160]",160,l,0.23585523180554446,colour,0.5
139,21,0,2,14,25,675,989.7052305847897,990.5186115681904,"[98, 0, 156]",156,l,0.2902768183257649,colour,0.5
139,21,0,2,14,26,676,991.0332988587138,991.8226091799111,"[66, 0, 188]",188,l,0.26610966394764546,colour,0.5
139,21,0,2,14,27,677,992.3301808617812,993.118655048746,"[44, 0, 210]",210,a,0.26523572053611133,colour,0.5
139,21,0,2,14,28,678,993.6271069755571,994.2705746916386,"[82, 0, 172]",172,l,0.1203284987468578,colour,0.5
139,21,0,2,14,29,679,994.7832994494825,995.5105999607727,"[37, 0, 217]",217,a,0.20405692486929183,colour,0.5
139,21,0,2,14,30,680,996.0176690956437,996.8785730658442,"[29, 0, 225]",225,a,0.33772064215736464,colour,0.5
139,21,0,2,14,31,681,997.3926707694877,998.1745740362799,"[21, 0, 233]",233,a,0.25874553871472017,colour,0.5
139,21,0,2,14,32,682,998.6895972771085,999.3025864628958,"[38, 0, 216]",216,a,0.08982082387774426,colour,0.5
139,21,0,2,14,33,683,999.814542040262,1000.4945881674598,"[76, 0, 178]",178,l,0.1569076975547432,colour,0.5
139,21,0,2,14,34,684,1001.0020621756189,1001.7505980545598,"[1, 0, 253]",253,a,0.22572867345661507,colour,0.5
139,21,0,2,14,35,685,1002.2678878768806,1002.9826077778202,"[3, 0, 251]",251,a,0.1917346772388555,colour,0.5
139,21,0,2,14,36,686,1003.5020858063558,1004.1825754037113,"[12, 0, 242]",242,a,0.16022624067227298,colour,0.5
139,21,0,2,14,37,687,1004.7022980103707,1005.4945802905481,"[35, 0, 219]",219,a,0.26918993047092954,colour,0.5
139,21,0,2,14,38,688,1006.0148219857224,1006.7105518328394,"[97, 0, 157]",157,l,0.1725303714047186,colour,0.5
139,21,0,2,14,39,689,1007.2179695210757,1007.934575548647,"[46, 0, 208]",208,a,0.19343924104396137,colour,0.5
139,21,0,2,14,40,690,1008.4529039418435,1009.1906216695429,"[28, 0, 226]",226,a,0.21464546411971241,colour,0.5
139,21,0,2,14,41,691,1009.7028710557347,1010.5185918759103,"[26, 0, 228]",228,a,0.2930983282831221,colour,0.5
139,21,0,2,14,42,692,1011.0309365727394,1011.5665595144042,"[64, 0, 190]",190,l,0.01241046904669929,colour,0.5
139,21,0,2,14,43,693,1012.0778132588916,1013.0385433068691,"[81, 0, 173]",173,l,0.4375345107209796,colour,0.5
139,21,0,2,14,44,694,1013.5465549142878,1014.4785436849611,"[50, 0, 204]",204,l,0.408797565718487,colour,0.5
139,21,0,2,14,45,695,1014.999666412767,1015.6705579925842,"[0, 0, 254]",254,a,0.14802529749067617,colour,0.5
139,21,0,2,14,46,696,1016.1747114883979,1016.8865634055987,"[42, 0, 212]",212,a,0.18865086610549042,colour,0.5
139,21,0,2,14,47,697,1017.384160159681,1018.054565734014,"[55, 0, 199]",199,a,0.1472718708373577,colour,0.5
139,21,0,2,14,48,698,1018.5734344833886,1019.3505761567444,"[52, 0, 202]",202,a,0.25401584677183564,colour,0.5
139,21,0,2,14,49,699,1019.8702428373267,1020.4385908046502,"[6, 0, 248]",248,a,0.045282005272383685,colour,0.5
139,21,0,2,14,50,700,1020.9483475419697,1022.0626017598593,"[61, 0, 193]",193,a,0.5911157882464977,colour,0.5
139,21,0,2,15,1,701,1026.5413380353243,1027.9585701986475,"[28, 0, 226]",226,a,0.8932855624861986,colour,0.5
139,21,0,2,15,2,702,1028.479675597247,1029.2225735762681,"[78, 0, 176]",176,l,0.2198544661705455,colour,0.5
139,21,0,2,15,3,703,1029.729643104984,1030.7026111176315,"[38, 0, 216]",216,l,0.4501615948538529,colour,0.5
139,21,0,2,15,4,704,1031.216913227147,1031.7745403230952,"[6, 0, 248]",248,a,0.03436657416568778,colour,0.5
139,21,0,2,15,5,705,1032.295131753172,1032.9825711501785,"[16, 0, 238]",238,a,0.16426709664119699,colour,0.5
139,21,0,2,15,6,706,1033.4982552639435,1034.0625560737685,"[35, 0, 219]",219,a,0.041152534041430044,colour,0.5
139,21,0,2,15,7,707,1034.5762827748472,1035.2545420245083,"[74, 0, 180]",180,l,0.15496249408261065,colour,0.5
139,21,0,2,15,8,708,1035.7639246084977,1036.4145244747474,"[64, 0, 190]",190,l,0.12746734429038042,colour,0.5
139,21,0,2,15,9,709,1036.920167888507,1037.6466161178955,"[2, 0, 252]",252,a,0.20348742411624698,colour,0.5
139,21,0,2,15,10,710,1038.1546001561205,1038.862547487934,"[85, 0, 169]",169,l,0.1876662520780883,colour,0.5
139,21,0,2,15,11,711,1039.3705362523065,1040.0706811087225,"[9, 0, 245]",245,a,0.17725533719840314,colour,0.5
139,21,0,2,15,12,712,1040.5892745600154,1041.2465410509217,"[67, 0, 187]",187,l,0.13414342124178802,colour,0.5
139,21,0,2,15,13,713,1041.7611172769825,1042.4865304801056,"[84, 0, 170]",170,l,0.2022495673609228,colour,0.5
139,21,0,2,15,14,714,1042.9954617170247,1043.6785357292797,"[33, 0, 221]",221,a,0.15987256731386879,colour,0.5
139,21,0,2,15,15,715,1044.198556477067,1044.8144979295535,"[11, 0, 243]",243,a,0.09274749061296461,colour,0.5
139,21,0,2,15,16,716,1045.323623726205,1046.0145699245309,"[82, 0, 172]",172,l,0.16665261950583954,colour,0.5
139,21,0,2,15,17,717,1046.5278259801048,1047.7025729146067,"[3, 0, 251]",251,a,0.6524867805719623,colour,0.5
139,21,0,2,15,18,718,1048.215287826311,1048.7985152808155,"[91, 0, 163]",163,l,0.06003664339550596,colour,0.5
139,21,0,2,15,19,719,1049.3090888539332,1050.0385058915367,"[17, 0, 237]",237,a,0.2063172048310662,colour,0.5
139,21,0,2,15,20,720,1050.5599440896772,1051.5984834580909,"[42, 0, 212]",212,a,0.5163418359352363,colour,0.5
139,21,0,2,15,21,721,1052.105993700046,1053.0305423332834,"[40, 0, 214]",214,a,0.4014109912859567,colour,0.5
139,21,0,2,15,22,722,1053.5310905663732,1054.2945012063487,"[97, 0, 157]",157,l,0.24059516373290535,colour,0.5
139,21,0,2,15,23,723,1054.8122348926731,1055.5664988621797,"[60, 0, 194]",194,a,0.23098848159133922,colour,0.5
139,21,0,2,15,24,724,1056.077988126342,1056.5985255995706,"[25, 0, 229]",229,a,0.009873709465864522,colour,0.5
139,21,0,2,15,25,725,1057.1124129896584,1057.918509798485,"[50, 0, 204]",204,a,0.28292175154183496,colour,0.5
139,21,0,2,15,26,726,1058.4246979007244,1059.2225353732433,"[92, 0, 162]",162,l,0.27463681526933215,colour,0.5
139,21,0,2,15,27,727,1059.7378701459515,1060.5904446753252,"[39, 0, 215]",215,a,0.3297499946829703,colour,0.5
139,21,0,2,15,28,728,1061.0996760226003,1061.8145211664446,"[98, 0, 156]",156,l,0.19173428339399834,colour,0.5
139,21,0,2,15,29,729,1062.3340208564882,1063.6945053811128,"[83, 0, 171]",171,a,0.8374110795075467,colour,0.5
139,21,0,2,15,30,730,1064.2090595518198,1064.990519742299,"[68, 0, 186]",186,a,0.2583745361489491,colour,0.5
139,21,0,2,15,31,731,1065.50072231285,1066.1504521741458,"[77, 0, 177]",177,l,0.12658316089436994,colour,0.5
139,21,0,2,15,32,732,1066.6569073037094,1067.4384907678646,"[21, 0, 233]",233,a,0.2583942284281875,colour,0.5
139,21,0,2,15,33,733,1067.9538054544469,1068.6864827460172,"[15, 0, 239]",239,a,0.20962196335131011,colour,0.5
139,21,0,2,15,34,734,1069.2043542783053,1069.9904779946642,"[37, 0, 217]",217,a,0.26292975448450306,colour,0.5
139,21,0,2,15,35,735,1070.4903366040894,1071.2944893909803,"[66, 0, 188]",188,l,0.28101908339522197,colour,0.5
139,21,0,2,15,36,736,1071.802806622593,1072.5344949678342,"[87, 0, 167]",167,l,0.20860899244053144,colour,0.5
139,21,0,2,15,37,737,1073.0535374031238,1073.7984766839459,"[71, 0, 183]",183,l,0.22433485383953666,colour,0.5
139,21,0,2,15,38,738,1074.3166046097263,1074.9185499707369,"[13, 0, 241]",241,a,0.07877463602744683,colour,0.5
139,21,0,2,15,39,739,1075.425864865269,1076.0464666928706,"[7, 0, 247]",247,a,0.09738699190984335,colour,0.5
139,21,0,2,15,40,740,1076.5665910220528,1077.2304977499603,"[26, 0, 228]",228,a,0.1407679044186807,colour,0.5
139,21,0,2,15,41,741,1077.7385459850198,1078.4144661855976,"[31, 0, 223]",223,a,0.15282391241544246,colour,0.5
139,21,0,2,15,42,742,1078.9258727421816,1079.6625196036653,"[48, 0, 206]",206,l,0.22589527015043132,colour,0.5
139,21,0,2,15,43,743,1080.1791591868819,1081.0625162953625,"[61, 0, 193]",193,l,0.3602820879805222,colour,0.5
139,21,0,2,15,44,744,1081.5696756208777,1082.3025072999285,"[65, 0, 189]",189,l,0.2097578400880593,colour,0.5
139,21,0,2,15,45,745,1082.82039104143,1084.1184880582073,"[49, 0, 205]",205,l,0.7749830055618077,colour,0.5
139,21,0,2,15,46,746,1084.6330044197352,1085.310454316666,"[69, 0, 185]",185,l,0.15435597184205108,colour,0.5
139,21,0,2,15,47,747,1085.8204690228608,1086.6305105893266,"[62, 0, 192]",192,l,0.2925725443919873,colour,0.5
139,21,0,2,15,48,748,1087.1428088123744,1087.8065627281844,"[36, 0, 218]",218,l,0.14052765859560168,colour,0.5
139,21,0,2,15,49,749,1088.314775196864,1089.022501187444,"[94, 0, 160]",160,l,0.1845993763054139,colour,0.5
139,21,0,2,15,50,750,1089.5335257137863,1090.2464945771394,"[58, 0, 196]",196,l,0.19068626022271928,colour,0.5
139,21,0,2,16,1,751,1094.8295723703127,1095.5744513927561,"[49, 0, 205]",205,l,0.22093045237852493,colour,0.5
139,21,0,2,16,2,752,1096.095917947781,1096.8785305305178,"[27, 0, 227]",227,a,0.2593898701334183,colour,0.5
139,21,0,2,16,3,753,1097.3929051076261,1098.2144623259105,"[52, 0, 202]",202,l,0.29851213005076715,colour,0.5
139,21,0,2,16,4,754,1098.7209651107928,1099.414427588727,"[85, 0, 169]",169,l,0.17024134071289154,colour,0.5
139,21,0,2,16,5,755,1099.9240382093253,1100.702427585577,"[31, 0, 223]",223,a,0.2552395250859263,colour,0.5
139,21,0,2,16,6,756,1101.2208863416704,1101.7664885434247,"[38, 0, 216]",216,a,0.022420055248403514,colour,0.5
139,21,0,2,16,7,757,1102.284562118511,1103.046438729832,"[92, 0, 162]",162,l,0.2385849757347387,colour,0.5
139,21,0,2,16,8,758,1103.5664630222295,1104.2064806507592,"[20, 0, 234]",234,a,0.11675119906340115,colour,0.5
139,21,0,2,16,9,759,1104.722702363783,1105.3264527192282,"[37, 0, 217]",217,a,0.08092148845298652,colour,0.5
139,21,0,2,16,10,760,1105.847714868381,1106.4304326866654,"[65, 0, 189]",189,l,0.05956639173655276,colour,0.5
139,21,0,2,16,11,761,1106.9414776929784,1107.5584648055624,"[36, 0, 218]",218,a,0.09380181531287235,colour,0.5
139,21,0,2,16,12,762,1108.066442148412,1108.686493773695,"[62, 0, 192]",192,l,0.09687538646176108,colour,0.5
139,21,0,2,16,13,763,1109.2070044654215,1110.102433729568,"[35, 0, 219]",219,a,0.3722246684410493,colour,0.5
139,21,0,2,16,14,764,1110.6133767298684,1111.2624138167344,"[66, 0, 188]",188,l,0.1259388294756718,colour,0.5
139,21,0,2,16,15,765,1111.7695786560885,1112.3904435725576,"[60, 0, 194]",194,l,0.09790253581468278,colour,0.5
139,21,0,2,16,16,766,1112.910200443785,1113.6384280676434,"[22, 0, 232]",232,a,0.20512621570287592,colour,0.5
139,21,0,2,16,17,767,1114.1445641822625,1114.83042504606,"[16, 0, 238]",238,a,0.1627779663858746,colour,0.5
139,21,0,2,16,18,768,1115.3476668192166,1115.9504774590337,"[56, 0, 198]",198,l,0.07967299786560034,colour,0.5
139,21,0,2,16,19,769,1116.457126360638,1117.1744476118379,"[67, 0, 187]",187,l,0.19412768317124574,colour,0.5
139,21,0,2,16,20,770,1117.6914727699082,1118.2944633971706,"[26, 0, 228]",228,a,0.0798490468541786,colour,0.5
139,21,0,2,16,21,771,1118.8008259730154,1119.4784054451516,"[57, 0, 197]",197,l,0.15532837665523402,colour,0.5
139,21,0,2,16,22,772,1119.9883862806241,1120.9184487524149,"[7, 0, 247]",247,a,0.40611626479949336,colour,0.5
139,21,0,2,16,23,773,1121.4267907963008,1122.198442655685,"[19, 0, 235]",235,a,0.2484598667379032,colour,0.5
139,21,0,2,16,24,774,1122.7079449687403,1123.2784827176606,"[45, 0, 209]",209,l,0.047231147201273416,colour,0.5
139,21,0,2,16,25,775,1123.7756875953596,1124.5344382540666,"[68, 0, 186]",186,l,0.23571974891547143,colour,0.5
139,21,0,2,16,26,776,1125.0412088539647,1125.7264438970865,"[40, 0, 214]",214,a,0.16200524129726546,colour,0.5
139,21,0,2,16,27,777,1126.2443878969666,1126.918381798661,"[5, 0, 249]",249,a,0.15093739193798683,colour,0.5
139,21,0,2,16,28,778,1127.4336118084361,1128.0064527664895,"[64, 0, 190]",190,l,0.04979232520872756,colour,0.5
139,21,0,2,16,29,779,1128.5273080731263,1129.0624245293343,"[4, 0, 250]",250,a,0.01232539839384117,colour,0.5
139,21,0,2,16,30,780,1129.574204057713,1130.3104042982736,"[30, 0, 224]",224,a,0.22549787992920756,colour,0.5
139,21,0,2,16,31,781,1130.8274211855855,1131.4143972626157,"[21, 0, 233]",233,a,0.06397273643142398,colour,0.5
139,21,0,2,16,32,782,1131.9214085021817,1132.4944172384644,"[87, 0, 167]",167,l,0.0501322139707554,colour,0.5
139,21,0,2,16,33,783,1133.0148310441714,1133.686385466152,"[88, 0, 166]",166,a,0.1486503304759026,colour,0.5
139,21,0,2,16,34,784,1134.2024445209377,1134.8224106817229,"[11, 0, 243]",243,a,0.0969703032533289,colour,0.5
139,21,0,2,16,35,785,1135.3429446103405,1135.9584303834558,"[98, 0, 156]",156,l,0.091660476726247,colour,0.5
139,21,0,2,16,36,786,1136.4686309847798,1137.0784079657637,"[3, 0, 251]",251,a,0.08661334522184916,colour,0.5
139,21,0,2,16,37,787,1137.5937254092646,1138.174454307214,"[1, 0, 253]",253,a,0.057686566635311465,colour,0.5
139,21,0,2,16,38,788,1138.6874220677996,1139.2783795301107,"[58, 0, 196]",196,l,0.06784384494130791,colour,0.5
139,21,0,2,16,39,789,1139.7968245016077,1140.3584483428153,"[82, 0, 172]",172,l,0.038553546854927845,colour,0.5
139,21,0,2,16,40,790,1140.8749658338934,1141.470402502337,"[63, 0, 191]",191,l,0.07223876811349328,colour,0.5
139,21,0,2,16,41,791,1141.9842359355766,1143.0544117403801,"[24, 0, 230]",230,a,0.5470361936240806,colour,0.5
139,21,0,2,16,42,792,1143.563211432865,1144.230375263975,"[80, 0, 174]",174,l,0.14409905059619632,colour,0.5
139,21,0,2,16,43,793,1144.7506965159632,1145.6143802484853,"[86, 0, 168]",168,l,0.34057090284386504,colour,0.5
139,21,0,2,16,44,794,1146.1256946451963,1146.846388002517,"[53, 0, 201]",201,l,0.19746710010622337,colour,0.5
139,21,0,2,16,45,795,1147.3600611405923,1148.2144623259105,"[79, 0, 175]",175,l,0.3301276926240462,colour,0.5
139,21,0,2,16,46,796,1148.7205409390695,1149.278361019367,"[59, 0, 195]",195,l,0.03524681910585059,colour,0.5
139,21,0,2,16,47,797,1149.7985826284153,1150.5264077420593,"[33, 0, 221]",221,a,0.20457128723683127,colour,0.5
139,21,0,2,16,48,798,1151.0205949746874,1151.9263772584095,"[9, 0, 245]",245,a,0.383123164187964,colour,0.5
139,21,0,2,16,49,799,1152.4425615561,1153.1583909201258,"[51, 0, 203]",203,l,0.19262516216622316,colour,0.5
139,21,0,2,16,50,800,1153.6769347468712,1154.462401922597,"[84, 0, 170]",170,l,0.26239806291050627,colour,0.5
