id,age,condition,counterbalance,block,trialinblock,trial,tstart,tend,trialstim,trialintensity,response,RT,trialtype,colourfreq
037,63,0,1,Practice,1,NA,6.695743650197983e-06,3.5795430918224156,"[6, 0, 248]",248,a,2.9148749304004014,colour,0.5
037,63,0,1,Practice,2,NA,4.09619844192639,5.387514848262072,"[54, 0, 200]",200,a,0.7680349927395582,colour,0.5
037,63,0,1,Practice,3,NA,5.908655709587038,7.355595605447888,"[53, 0, 201]",201,a,0.9238628880120814,colour,0.5
037,63,0,1,Practice,4,NA,7.8617498418316245,19.259559034369886,"[35, 0, 219]",219,a,10.874459643382579,colour,0.5
037,63,0,1,Practice,5,NA,19.769325231667608,24.51556597230956,"[91, 0, 163]",163,l,4.223191695753485,colour,0.5
037,63,0,1,Practice,6,NA,25.036901393905282,25.731566041707993,"[18, 0, 236]",236,a,0.17171367071568966,colour,0.5
037,63,0,1,Practice,7,NA,26.2402948490344,27.195555527694523,"[66, 0, 188]",188,l,0.4326562858186662,colour,0.5
037,63,0,1,Practice,8,NA,27.708398055285215,32.90752497781068,"[21, 0, 233]",233,l,4.675834874622524,colour,0.5
037,63,0,1,Practice,9,NA,33.42708257865161,37.931543671526015,"[2, 0, 252]",252,l,3.9811186329461634,colour,0.5
037,63,0,1,Practice,10,NA,38.44491395261139,39.15553763136268,"[70, 0, 184]",184,l,0.1872686157003045,colour,0.5
037,63,0,1,1,1,1,6.474430341273546,7.439978668931872,"[5, 0, 249]",249,a,0.4413973023183644,colour,0.5
037,63,0,1,1,2,2,7.959622522350401,8.807980814948678,"[45, 0, 209]",209,a,0.3250351310707629,colour,0.5
037,63,0,1,1,3,3,9.31897659925744,10.975953343324363,"[77, 0, 177]",177,l,1.1336457058787346,colour,0.5
037,63,0,1,1,4,4,11.490852140821517,13.056197086814791,"[3, 0, 251]",251,l,1.0419690092094243,colour,0.5
037,63,0,1,1,5,5,13.557311670389026,15.30399273103103,"[47, 0, 207]",207,l,1.2232775543816388,colour,0.5
037,63,0,1,1,6,6,15.823010762687773,16.41596273239702,"[7, 0, 247]",247,a,0.06959611875936389,colour,0.5
037,63,0,1,1,7,7,16.93241643346846,18.655965741723776,"[98, 0, 156]",156,l,1.2001788849011064,colour,0.5
037,63,0,1,1,8,8,19.16671222122386,20.824009949807078,"[17, 0, 237]",237,l,1.1339040682651103,colour,0.5
037,63,0,1,1,9,9,21.338643295224756,23.80015391483903,"[67, 0, 187]",187,l,1.9381673717871308,colour,0.5
037,63,0,1,1,10,10,24.308904777280986,25.2559695225209,"[57, 0, 197]",197,l,0.4232303714379668,colour,0.5
037,63,0,1,1,11,11,25.762694047763944,28.608007123693824,"[34, 0, 220]",220,l,2.322200227994472,colour,0.5
037,63,0,1,1,12,12,29.122134376782924,30.096015302930027,"[58, 0, 196]",196,l,0.4508952903561294,colour,0.5
037,63,0,1,1,13,13,30.60650263214484,31.207977427635342,"[63, 0, 191]",191,l,0.07815360277891159,colour,0.5
037,63,0,1,1,14,14,31.715887035243213,32.271974632982165,"[38, 0, 216]",216,a,0.03248756239190698,colour,0.5
037,63,0,1,1,15,15,32.778352967929095,33.43998024472967,"[43, 0, 211]",211,a,0.14849960478022695,colour,0.5
037,63,0,1,1,16,16,33.95139114232734,36.06397830042988,"[87, 0, 167]",167,l,1.5895554423332214,colour,0.5
037,63,0,1,1,17,17,36.57301155058667,39.35995587334037,"[33, 0, 221]",221,l,2.26363809639588,colour,0.5
037,63,0,1,1,18,18,39.8742103385739,41.87996442755684,"[8, 0, 246]",246,l,1.4827924775891006,colour,0.5
037,63,0,1,1,19,19,42.38982002809644,44.59197838231921,"[89, 0, 165]",165,l,1.67887063883245,colour,0.5
037,63,0,1,1,20,20,45.10854590497911,45.63993266783655,"[80, 0, 174]",174,l,0.00805611815303564,colour,0.5
037,63,0,1,1,21,21,46.1554147512652,46.70414491323754,"[75, 0, 179]",179,l,0.024607493076473475,colour,0.5
037,63,0,1,1,22,22,47.21783184632659,48.81600621296093,"[83, 0, 171]",171,l,1.074722811114043,colour,0.5
037,63,0,1,1,23,23,49.31652490841225,50.84798059426248,"[37, 0, 217]",217,l,1.008247527293861,colour,0.5
037,63,0,1,1,24,24,51.36332995118573,53.52794336806983,"[95, 0, 159]",159,l,1.6413552397862077,colour,0.5
037,63,0,1,1,25,25,54.0484895221889,56.51232107542455,"[97, 0, 157]",157,l,1.9405182381160557,colour,0.5
037,63,0,1,1,26,26,57.032938121818006,57.73595860507339,"[68, 0, 186]",186,l,0.1797528536990285,colour,0.5
037,63,0,1,1,27,27,58.25160925416276,60.159981788601726,"[69, 0, 185]",185,l,1.385064732749015,colour,0.5
037,63,0,1,1,28,28,60.67348755290732,62.719967279117554,"[96, 0, 158]",158,l,1.5231648357585073,colour,0.5
037,63,0,1,1,29,29,63.235945214517415,64.92024068674073,"[30, 0, 224]",224,l,1.1609695539809763,colour,0.5
037,63,0,1,1,30,30,65.43910118052736,65.97593089425936,"[53, 0, 201]",201,a,0.013521518558263779,colour,0.5
037,63,0,1,1,31,31,66.48589283274487,67.0799723835662,"[59, 0, 195]",195,a,0.0710182967595756,colour,0.5
037,63,0,1,1,32,32,67.5960472044535,68.18393904203549,"[92, 0, 162]",162,l,0.06537409080192447,colour,0.5
037,63,0,1,1,33,33,68.70680494839326,70.52795794047415,"[94, 0, 160]",160,a,1.2978491289541125,colour,0.5
037,63,0,1,1,34,34,71.03500108700246,73.12000406440347,"[11, 0, 243]",243,l,1.5617664619348943,colour,0.5
037,63,0,1,1,35,35,73.62868954846635,74.55198332900181,"[73, 0, 181]",181,l,0.3998607359826565,colour,0.5
037,63,0,1,1,36,36,75.06621140707284,75.59200437646359,"[39, 0, 215]",215,a,0.0024623246863484383,colour,0.5
037,63,0,1,1,37,37,76.11305662244558,76.64797578938305,"[1, 0, 253]",253,a,0.01167359296232462,colour,0.5
037,63,0,1,1,38,38,77.15994200995192,79.17600619746372,"[72, 0, 182]",182,l,1.493090367410332,colour,0.5
037,63,0,1,1,39,39,79.6924205138348,80.41595012927428,"[62, 0, 192]",192,l,0.20065937656909227,colour,0.5
037,63,0,1,1,40,40,80.92689195694402,82.46395561518148,"[44, 0, 210]",210,l,1.0140280043706298,colour,0.5
037,63,0,1,1,41,41,82.97383602755144,84.48002334684134,"[28, 0, 226]",226,l,0.9808047371916473,colour,0.5
037,63,0,1,1,42,42,84.99154924787581,86.84810780640692,"[19, 0, 235]",235,l,1.3335965536534786,colour,0.5
037,63,0,1,1,43,43,87.36654570326209,88.92792265163735,"[50, 0, 204]",204,l,1.0380652081221342,colour,0.5
037,63,0,1,1,44,44,89.44606634555385,90.05617463728413,"[15, 0, 239]",239,a,0.08682451490312815,colour,0.5
037,63,0,1,1,45,45,90.57100923778489,92.27991535468027,"[16, 0, 238]",238,a,1.185890942811966,colour,0.5
037,63,0,1,1,46,46,92.78977528726682,93.92793801147491,"[56, 0, 198]",198,l,0.6148687074892223,colour,0.5
037,63,0,1,1,47,47,94.4460435025394,95.09596567833796,"[29, 0, 225]",225,a,0.12672465108335018,colour,0.5
037,63,0,1,1,48,48,95.60228848084807,96.14394910866395,"[6, 0, 248]",248,a,0.018409539945423603,colour,0.5
037,63,0,1,1,49,49,96.66479694843292,98.64794231252745,"[21, 0, 233]",233,l,1.4599289344623685,colour,0.5
037,63,0,1,1,50,50,99.16636209236458,101.27210932830349,"[31, 0, 223]",223,l,1.5825556190684438,colour,0.5
037,63,0,1,2,1,51,106.93107420671731,109.3919660942629,"[10, 0, 244]",244,l,1.9367487388662994,colour,0.5
037,63,0,1,2,2,52,109.90190755296499,111.67990802880377,"[74, 0, 180]",180,l,1.2550065694376826,colour,0.5
037,63,0,1,2,3,53,112.19879963621497,114.08794540027156,"[27, 0, 227]",227,l,1.3658048794604838,colour,0.5
037,63,0,1,2,4,54,114.60508006066084,116.67989581963047,"[28, 0, 226]",226,l,1.5515638832002878,colour,0.5
037,63,0,1,2,5,55,117.1988756484352,118.99989917548373,"[11, 0, 243]",243,l,1.2778224577195942,colour,0.5
037,63,0,1,2,6,56,119.51263536466286,121.07189696654677,"[97, 0, 157]",157,l,1.0359085081145167,colour,0.5
037,63,0,1,2,7,57,121.59074328141287,123.16791423922405,"[45, 0, 209]",209,l,1.0537658762186766,colour,0.5
037,63,0,1,2,8,58,123.68446679553017,125.23992069484666,"[51, 0, 203]",203,l,1.0320539376698434,colour,0.5
037,63,0,1,2,9,59,125.74708869075403,126.27988857310265,"[94, 0, 160]",160,l,0.0095444624312222,colour,0.5
037,63,0,1,2,10,60,126.79387246631086,127.71194818243384,"[39, 0, 215]",215,a,0.3948884312994778,colour,0.5
037,63,0,1,2,11,61,128.23133839853108,130.5679080951959,"[99, 0, 155]",155,l,1.811357649974525,colour,0.5
037,63,0,1,2,12,62,131.07689644675702,133.86387109570205,"[93, 0, 161]",161,l,2.269843926653266,colour,0.5
037,63,0,1,2,13,63,134.3748846030794,136.439912897069,"[0, 0, 254]",254,l,1.541781538631767,colour,0.5
037,63,0,1,2,14,64,136.95302008930594,138.5678726490587,"[9, 0, 245]",245,l,1.0915486966259778,colour,0.5
037,63,0,1,2,15,65,139.07807837845758,141.23192837974057,"[37, 0, 217]",217,l,1.630894691683352,colour,0.5
037,63,0,1,2,16,66,141.7499310770072,143.41587017895654,"[16, 0, 238]",238,l,1.1427459097467363,colour,0.5
037,63,0,1,2,17,67,143.92321264836937,145.59994115913287,"[92, 0, 162]",162,l,1.1537176691927016,colour,0.5
037,63,0,1,2,18,68,146.11068763909861,148.25589902419597,"[21, 0, 233]",233,l,1.6220075590535998,colour,0.5
037,63,0,1,2,19,69,148.76696294359863,150.36794267501682,"[14, 0, 240]",240,l,1.0777648775838315,colour,0.5
037,63,0,1,2,20,70,150.87627645442262,152.80791071010754,"[81, 0, 173]",173,l,1.4083138508722186,colour,0.5
037,63,0,1,2,21,71,153.32935837749392,155.2718915315345,"[77, 0, 177]",177,l,1.4176905346103013,colour,0.5
037,63,0,1,2,22,72,155.78395463805646,157.2558903596364,"[18, 0, 236]",236,l,0.9490926577709615,colour,0.5
037,63,0,1,2,23,73,157.76839102897793,160.36791549948975,"[98, 0, 156]",156,l,2.0764061086811125,colour,0.5
037,63,0,1,2,24,74,160.87776046572253,161.95186848379672,"[79, 0, 175]",175,l,0.5510617299005389,colour,0.5
037,63,0,1,2,25,75,162.51548365829512,163.160218489822,"[53, 0, 201]",201,a,0.11854289611801505,colour,0.5
037,63,0,1,2,26,76,163.67458953382447,165.18390005128458,"[61, 0, 193]",193,l,0.9861500142142177,colour,0.5
037,63,0,1,2,27,77,165.69016810925677,167.18405325710773,"[6, 0, 248]",248,l,0.9705919185653329,colour,0.5
037,63,0,1,2,28,78,167.7057726783678,169.62386572360992,"[25, 0, 229]",229,l,1.3947210470214486,colour,0.5
037,63,0,1,2,29,79,170.144788000267,172.10385520011187,"[38, 0, 216]",216,l,1.4359421427361667,colour,0.5
037,63,0,1,2,30,80,172.6135264802724,174.71185365924612,"[90, 0, 164]",164,l,1.5750981462188065,colour,0.5
037,63,0,1,2,31,81,175.22285416955128,176.9518917207606,"[8, 0, 246]",246,l,1.2057340815663338,colour,0.5
037,63,0,1,2,32,82,177.47289985604584,179.75988553231582,"[47, 0, 207]",207,l,1.7637664903886616,colour,0.5
037,63,0,1,2,33,83,180.27902368735522,180.80788826104254,"[40, 0, 214]",214,a,0.005561498459428549,colour,0.5
037,63,0,1,2,34,84,181.32587402267382,182.04788378672674,"[48, 0, 206]",206,a,0.19874331634491682,colour,0.5
037,63,0,1,2,35,85,182.56024188408628,183.1839307709597,"[65, 0, 189]",189,l,0.1005004202015698,colour,0.5
037,63,0,1,2,36,86,183.7008015550673,184.52786026662216,"[54, 0, 200]",200,l,0.3036229098215699,colour,0.5
037,63,0,1,2,37,87,185.0445821764879,186.60788739472628,"[71, 0, 183]",183,l,1.040234905667603,colour,0.5
037,63,0,1,2,38,88,187.1227495642379,187.8238701345399,"[57, 0, 197]",197,l,0.17785254726186395,colour,0.5
037,63,0,1,2,39,89,188.3414143952541,190.06388456514105,"[89, 0, 165]",165,l,1.197930418420583,colour,0.5
037,63,0,1,2,40,90,190.57712566526607,191.23187442263588,"[44, 0, 210]",210,a,0.13152760220691562,colour,0.5
037,63,0,1,2,41,91,191.749066978693,192.63193090027198,"[63, 0, 191]",191,l,0.35996493184939027,colour,0.5
037,63,0,1,2,42,92,193.1395620587282,194.61589625151828,"[95, 0, 159]",159,l,0.9530366309918463,colour,0.5
037,63,0,1,2,43,93,195.12392401276156,196.23990179039538,"[50, 0, 204]",204,a,0.5926266531459987,colour,0.5
037,63,0,1,2,44,94,196.74895748961717,197.35985859343782,"[4, 0, 250]",250,a,0.08742906851693988,colour,0.5
037,63,0,1,2,45,95,197.87408352037892,199.66385486908257,"[20, 0, 234]",234,l,1.2668625130318105,colour,0.5
037,63,0,1,2,46,96,200.17238242086023,200.73588613746688,"[83, 0, 171]",171,l,0.04022033326327801,colour,0.5
037,63,0,1,2,47,97,201.25046198116615,202.77610686421394,"[12, 0, 242]",242,l,1.0026895734481514,colour,0.5
037,63,0,1,2,48,98,203.29732688888907,204.43988099554554,"[52, 0, 202]",202,l,0.6192876589484513,colour,0.5
037,63,0,1,2,49,99,204.95356832258403,206.6638639275916,"[73, 0, 181]",181,l,1.1869330587796867,colour,0.5
037,63,0,1,2,50,100,207.17234973190352,207.71990229468793,"[13, 0, 241]",241,a,0.02430462557822466,colour,0.5
037,63,0,1,3,1,101,212.56221820320934,214.91987953009084,"[77, 0, 177]",177,l,1.8336579934693873,colour,0.5
037,63,0,1,3,2,102,215.43927998654544,220.95984465116635,"[44, 0, 210]",210,l,4.9972533183172345,colour,0.5
037,63,0,1,3,3,103,221.4704477712512,222.96797717548907,"[59, 0, 195]",195,l,0.9741495288908482,colour,0.5
037,63,0,1,3,4,104,223.48612086940557,224.64794546319172,"[73, 0, 181]",181,l,0.6384470812045038,colour,0.5
037,63,0,1,3,5,105,225.1580247678794,226.8558961097151,"[83, 0, 171]",171,l,1.1747135953046381,colour,0.5
037,63,0,1,3,6,106,227.36912696948275,228.05582805303857,"[21, 0, 233]",233,a,0.16562835732474923,colour,0.5
037,63,0,1,3,7,107,228.56983360787854,229.87183544784784,"[96, 0, 158]",158,l,0.7787251523695886,colour,0.5
037,63,0,1,3,8,108,230.38236097991467,231.79183155670762,"[54, 0, 200]",200,l,0.8861296917311847,colour,0.5
037,63,0,1,3,9,109,232.30426960485056,233.0558174191974,"[42, 0, 212]",212,a,0.22829515114426613,colour,0.5
037,63,0,1,3,10,110,233.57205883739516,234.4158410341479,"[61, 0, 193]",193,l,0.3206071211025119,colour,0.5
037,63,0,1,3,11,111,234.93128333892673,236.6398204220459,"[10, 0, 244]",244,l,1.1852536997757852,colour,0.5
037,63,0,1,3,12,112,237.15001866826788,237.71982943313196,"[65, 0, 189]",189,l,0.04653171403333545,colour,0.5
037,63,0,1,3,13,113,238.2281525786966,238.98384680319577,"[5, 0, 249]",249,a,0.23280429327860475,colour,0.5
037,63,0,1,3,14,114,239.49373981915414,241.14385891798884,"[31, 0, 223]",223,l,1.1271941158920527,colour,0.5
037,63,0,1,3,15,115,241.65000685257837,243.41582567431033,"[38, 0, 216]",216,l,1.2424543062224984,colour,0.5
037,63,0,1,3,16,116,243.93256491376087,246.15981322247535,"[99, 0, 155]",155,l,1.7038377136923373,colour,0.5
037,63,0,1,3,17,117,246.66695640562102,247.1919356896542,"[22, 0, 232]",232,a,0.001665574498474598,colour,0.5
037,63,0,1,3,18,118,247.71380004566163,248.26382832415402,"[20, 0, 234]",234,a,0.02666336903348565,colour,0.5
037,63,0,1,3,19,119,248.7763762548566,250.62382712680846,"[90, 0, 164]",164,l,1.3245703931897879,colour,0.5
037,63,0,1,3,20,120,251.1357055194676,252.95185076072812,"[45, 0, 209]",209,l,1.2928728857077658,colour,0.5
037,63,0,1,3,21,121,253.46390992868692,253.99187732161954,"[12, 0, 242]",242,a,0.003138164523988962,colour,0.5
037,63,0,1,3,22,122,254.51224191254005,256.11978823691607,"[98, 0, 156]",156,l,1.084271605592221,colour,0.5
037,63,0,1,3,23,123,256.63721119239926,258.18384176213294,"[4, 0, 250]",250,l,1.0233050449751318,colour,0.5
037,63,0,1,3,24,124,258.69973029429093,259.25583679648116,"[71, 0, 183]",183,l,0.03280972829088569,colour,0.5
037,63,0,1,3,25,125,259.76223994325846,261.487821102608,"[87, 0, 167]",167,l,1.2022516960278153,colour,0.5
037,63,0,1,3,26,126,261.9965349435806,262.57582794269547,"[72, 0, 182]",182,l,0.05597220081835985,colour,0.5
037,63,0,1,3,27,127,263.09034234657884,263.6318505560048,"[1, 0, 253]",253,a,0.016055129002779722,colour,0.5
037,63,0,1,3,28,128,264.13944705575705,266.9038267643191,"[25, 0, 229]",229,l,2.2413346022367477,colour,0.5
037,63,0,1,3,29,129,267.42061168979853,268.7918402212672,"[39, 0, 215]",215,l,0.8481621574610472,colour,0.5
037,63,0,1,3,30,130,269.3112268927507,269.9038153430447,"[93, 0, 161]",161,l,0.0695134112611413,colour,0.5
037,63,0,1,3,31,131,270.4205813636072,271.023824527394,"[0, 0, 254]",254,a,0.079892432782799,colour,0.5
037,63,0,1,3,32,132,271.52996694808826,273.0958156231791,"[85, 0, 169]",169,l,1.0425786823034286,colour,0.5
037,63,0,1,3,33,133,273.6081386683509,276.0878587542102,"[95, 0, 159]",159,l,1.9567435085773468,colour,0.5
037,63,0,1,3,34,134,276.5997446300462,278.8078689626418,"[17, 0, 237]",237,l,1.6848626108840108,colour,0.5
037,63,0,1,3,35,135,279.3288381071761,281.0238249213435,"[75, 0, 179]",179,l,1.1719834553077817,colour,0.5
037,63,0,1,3,36,136,281.53191806096584,283.5038179419935,"[94, 0, 160]",160,l,1.4484881041571498,colour,0.5
037,63,0,1,3,37,137,284.01628986094147,286.0318050272763,"[84, 0, 170]",170,l,1.4921388356015086,colour,0.5
037,63,0,1,3,38,138,286.5476002180949,287.86400145851076,"[47, 0, 207]",207,l,0.7930997405201197,colour,0.5
037,63,0,1,3,39,139,288.37567229475826,292.59187755780295,"[60, 0, 194]",194,l,3.6916068284772336,colour,0.5
037,63,0,1,3,40,140,293.1114453985356,294.75178687879816,"[3, 0, 251]",251,l,1.1173286689445376,colour,0.5
037,63,0,1,3,41,141,295.26760018616915,296.95980644831434,"[2, 0, 252]",252,l,1.1688571064732969,colour,0.5
037,63,0,1,3,42,142,297.47153124120086,298.12781717954203,"[52, 0, 202]",202,l,0.1337666162289679,colour,0.5
037,63,0,1,3,43,143,298.64262421103194,300.1520068021491,"[55, 0, 199]",199,l,0.9861464696004987,colour,0.5
037,63,0,1,3,44,144,300.6581834880635,302.1438140193932,"[29, 0, 225]",225,l,0.9621990621089935,colour,0.5
037,63,0,1,3,45,145,302.65828470652923,304.3038395247422,"[89, 0, 165]",165,l,1.1222860077396035,colour,0.5
037,63,0,1,3,46,146,304.8158593084663,306.1437903889455,"[14, 0, 240]",240,l,0.8045736541971564,colour,0.5
037,63,0,1,3,47,147,306.6594961765222,307.2078155572526,"[70, 0, 184]",184,l,0.02495722845196724,colour,0.5
037,63,0,1,3,48,148,307.7220554500818,309.35179932415485,"[37, 0, 217]",217,l,1.1184747605584562,colour,0.5
037,63,0,1,3,49,149,309.86673593102023,311.1600676467642,"[19, 0, 235]",235,l,0.7702310774475336,colour,0.5
037,63,0,1,3,50,150,311.67908843560144,313.4478319566697,"[16, 0, 238]",238,l,1.2454097256995738,colour,0.5
037,63,0,1,4,1,151,318.4141817614436,323.1679240851663,"[47, 0, 207]",207,a,4.229607839602977,colour,0.5
037,63,0,1,4,2,152,323.68123016972095,324.6797961764969,"[58, 0, 196]",196,l,0.47527789743617177,colour,0.5
037,63,0,1,4,3,153,325.1968745174818,325.74384576361626,"[11, 0, 243]",243,a,0.023685500025749207,colour,0.5
037,63,0,1,4,4,154,326.2593821971677,329.0877768341452,"[75, 0, 179]",179,l,2.3057752777822316,colour,0.5
037,63,0,1,4,5,155,329.60454482445493,330.9757828079164,"[24, 0, 230]",230,l,0.8479853207245469,colour,0.5
037,63,0,1,4,6,156,331.49514033505693,335.5198080865666,"[67, 0, 187]",187,l,3.501605316065252,colour,0.5
037,63,0,1,4,7,157,336.02635223045945,336.87179803242907,"[54, 0, 200]",200,l,0.32212500367313623,colour,0.5
037,63,0,1,4,8,158,337.3856153287925,337.95174008980393,"[61, 0, 193]",193,l,0.04282483598217368,colour,0.5
037,63,0,1,4,9,159,338.4638291904703,339.7438063789159,"[16, 0, 238]",238,l,0.7551578059792519,colour,0.5
037,63,0,1,4,10,160,340.262172202114,341.81581519776955,"[15, 0, 239]",239,l,1.0308731878176332,colour,0.5
037,63,0,1,4,11,161,342.32464640494436,344.03978237649426,"[27, 0, 227]",227,l,1.1920782621018589,colour,0.5
037,63,0,1,4,12,162,344.559002451133,345.92778598703444,"[32, 0, 222]",222,l,0.8454481652006507,colour,0.5
037,63,0,1,4,13,163,346.4340619216673,348.4078388726339,"[71, 0, 183]",183,l,1.4504533954896033,colour,0.5
037,63,0,1,4,14,164,348.92066367762163,349.63210813095793,"[52, 0, 202]",202,l,0.18813980277627707,colour,0.5
037,63,0,1,4,15,165,350.13937616348267,351.47177227493376,"[81, 0, 173]",173,l,0.8091036695986986,colour,0.5
037,63,0,1,4,16,166,351.9831504835747,352.5118236481212,"[25, 0, 229]",229,a,0.005454766098409891,colour,0.5
037,63,0,1,4,17,167,353.0299149607308,354.8557629897259,"[99, 0, 155]",155,l,1.3028064672835171,colour,0.5
037,63,0,1,4,18,168,355.3737495392561,357.23207489028573,"[86, 0, 168]",168,l,1.3349466575309634,colour,0.5
037,63,0,1,4,19,169,357.7487396928482,359.15174213796854,"[46, 0, 208]",208,l,0.8796493513509631,colour,0.5
037,63,0,1,4,20,170,359.6720059043728,360.19979724800214,"[5, 0, 249]",249,a,0.004454397596418858,colour,0.5
037,63,0,1,4,21,171,360.71884599979967,362.2237655292265,"[36, 0, 218]",218,a,0.9815857340581715,colour,0.5
037,63,0,1,4,22,172,362.73444978147745,365.4077589218505,"[3, 0, 251]",251,l,2.149958409834653,colour,0.5
037,63,0,1,4,23,173,365.9219984211959,369.0237745088525,"[1, 0, 253]",253,l,2.5784867964684963,colour,0.5
037,63,0,1,4,24,174,369.5326671558432,371.06374317454174,"[31, 0, 223]",223,l,1.0077028386294842,colour,0.5
037,63,0,1,4,25,175,371.57934183627367,372.3917648391798,"[44, 0, 210]",210,a,0.28898286912590265,colour,0.5
037,63,0,1,4,26,176,372.90747259603813,373.447764609009,"[6, 0, 248]",248,a,0.016884174663573503,colour,0.5
037,63,0,1,4,27,177,373.95439342968166,375.4557372322306,"[7, 0, 247]",247,l,0.9780568745918572,colour,0.5
037,63,0,1,4,28,178,375.9700480173342,376.6317253126763,"[62, 0, 192]",192,l,0.1383710689842701,colour,0.5
037,63,0,1,4,29,179,377.14193182997406,378.94376077130437,"[68, 0, 186]",186,l,1.278571552131325,colour,0.5
037,63,0,1,4,30,180,379.4557671644725,381.02405886584893,"[78, 0, 176]",176,l,1.0450165891088545,colour,0.5
037,63,0,1,4,31,181,381.5339617272839,383.6878893165849,"[95, 0, 159]",159,l,1.6308667287230492,colour,0.5
037,63,0,1,4,32,182,384.2056962721981,387.20775411697105,"[77, 0, 177]",177,l,2.478792184498161,colour,0.5
037,63,0,1,4,33,183,387.72131423233077,389.80774765787646,"[85, 0, 169]",169,l,1.5631527993828058,colour,0.5
037,63,0,1,4,34,184,390.31509957974777,391.11974845826626,"[53, 0, 201]",201,l,0.2814844367094338,colour,0.5
037,63,0,1,4,35,185,391.62758047832176,392.2798192561604,"[23, 0, 231]",231,a,0.1291361697949469,colour,0.5
037,63,0,1,4,36,186,392.8004201548174,394.37575972871855,"[43, 0, 211]",211,l,1.0520305908285081,colour,0.5
037,63,0,1,4,37,187,394.89413697319105,395.43975535873324,"[73, 0, 181]",181,l,0.022414165548980236,colour,0.5
037,63,0,1,4,38,188,395.95663283765316,396.5360644706525,"[60, 0, 194]",194,l,0.05605727108195424,colour,0.5
037,63,0,1,4,39,189,397.05038904072717,399.21577400155365,"[66, 0, 188]",188,l,1.6403623539954424,colour,0.5
037,63,0,1,4,40,190,399.72402586136013,400.40773371607065,"[17, 0, 237]",237,a,0.1603886317461729,colour,0.5
037,63,0,1,4,41,191,400.92714204918593,401.4557407768443,"[65, 0, 189]",189,l,0.005382692441344261,colour,0.5
037,63,0,1,4,42,192,401.9740585507825,403.38374534854665,"[93, 0, 161]",161,l,0.8864081408828497,colour,0.5
037,63,0,1,4,43,193,403.8959108553827,405.4957649745047,"[29, 0, 225]",225,l,1.076539228670299,colour,0.5
037,63,0,1,4,44,194,406.00525351054966,408.008798123803,"[91, 0, 163]",163,l,1.4802309037186205,colour,0.5
037,63,0,1,4,45,195,408.5208466583863,409.2957656835206,"[21, 0, 233]",233,a,0.2502508796751499,colour,0.5
037,63,0,1,4,46,196,409.80344725446776,410.39972840389237,"[26, 0, 228]",228,a,0.07300249254330993,colour,0.5
037,63,0,1,4,47,197,410.9127745497972,411.84780887747183,"[90, 0, 164]",164,l,0.42476125061511993,colour,0.5
037,63,0,1,4,48,198,412.36916517233476,413.0077780629508,"[2, 0, 252]",252,a,0.1152881532907486,colour,0.5
037,63,0,1,4,49,199,413.5253959726542,417.31973120803013,"[18, 0, 236]",236,l,3.2709498461335897,colour,0.5
037,63,0,1,4,50,200,417.83793712966144,419.503854569979,"[96, 0, 158]",158,l,1.1431306973099709,colour,0.5
037,63,0,1,5,1,201,424.30870785424486,427.1117821368389,"[2, 0, 252]",252,l,2.2789386166259646,colour,0.5
037,63,0,1,5,2,202,427.62205797061324,429.791766572278,"[4, 0, 250]",250,l,1.6466020550578833,colour,0.5
037,63,0,1,5,3,203,430.3110350901261,430.83970155892894,"[75, 0, 179]",179,l,0.005463430192321539,colour,0.5
037,63,0,1,5,4,204,431.35783934546635,433.1037969109602,"[82, 0, 172]",172,l,1.2226399178616703,colour,0.5
037,63,0,1,5,5,205,433.62344785314053,435.1677515809424,"[97, 0, 157]",157,l,1.0209912001155317,colour,0.5
037,63,0,1,5,6,206,435.68597680097446,436.511740940623,"[63, 0, 191]",191,l,0.3024685475975275,colour,0.5
037,63,0,1,5,7,207,437.0297972005792,437.74380322825164,"[11, 0, 243]",243,a,0.19094004714861512,colour,0.5
037,63,0,1,5,8,208,438.26412764703855,439.6558574340306,"[44, 0, 210]",210,l,0.8668422694317997,colour,0.5
037,63,0,1,5,9,209,440.17252893187106,440.839817349799,"[38, 0, 216]",216,l,0.14441305911168456,colour,0.5
037,63,0,1,5,10,210,441.35999053157866,443.1677157408558,"[57, 0, 197]",197,l,1.2844898751936853,colour,0.5
037,63,0,1,5,11,211,443.68811223329976,444.3597172028385,"[54, 0, 200]",200,l,0.1483597895130515,colour,0.5
037,63,0,1,5,12,212,444.87565654097125,445.4557159645483,"[53, 0, 201]",201,l,0.05677288956940174,colour,0.5
037,63,0,1,5,13,213,445.9693650887348,446.65571761876345,"[23, 0, 231]",231,a,0.16298250062391162,colour,0.5
037,63,0,1,5,14,214,447.1724907285534,448.7517187432386,"[33, 0, 221]",221,l,1.0558776776306331,colour,0.5
037,63,0,1,5,15,215,449.267671472393,450.959709955845,"[86, 0, 168]",168,l,1.1689705341123044,colour,0.5
037,63,0,1,5,16,216,451.47084279870614,453.3277388829738,"[72, 0, 182]",182,l,1.333476036787033,colour,0.5
037,63,0,1,5,17,217,453.84582704491913,454.8556897342205,"[25, 0, 229]",229,a,0.4865375584922731,colour,0.5
037,63,0,1,5,18,218,455.3614442171529,455.88767632469535,"[30, 0, 224]",224,a,0.0034099179320037365,colour,0.5
037,63,0,1,5,19,219,456.40827722335234,457.7357305684127,"[62, 0, 192]",192,l,0.8040884360671043,colour,0.5
037,63,0,1,5,20,220,458.25209762342274,459.59974108543247,"[0, 0, 254]",254,l,0.8230387261137366,colour,0.5
037,63,0,1,5,21,221,460.11355759436265,461.7917563319206,"[73, 0, 181]",181,l,1.1550634405575693,colour,0.5
037,63,0,1,5,22,222,462.30092506529763,463.5598039277829,"[35, 0, 219]",219,l,0.7358270608820021,colour,0.5
037,63,0,1,5,23,223,464.06643471773714,464.7516730572097,"[17, 0, 237]",237,a,0.16175763960927725,colour,0.5
037,63,0,1,5,24,224,465.2697553113103,467.11967480927706,"[80, 0, 174]",174,l,1.3266676226630807,colour,0.5
037,63,0,1,5,25,225,467.63836201047525,468.22373047703877,"[59, 0, 195]",195,l,0.06208390183746815,colour,0.5
037,63,0,1,5,26,226,468.7320815860294,471.2477050595917,"[68, 0, 186]",186,l,1.9923605704680085,colour,0.5
037,63,0,1,5,27,227,471.7632682751864,472.30369301419705,"[3, 0, 251]",251,a,0.017075189854949713,colour,0.5
037,63,0,1,5,28,228,472.81014342280105,473.50368285318837,"[12, 0, 242]",242,a,0.17028322257101536,colour,0.5
037,63,0,1,5,29,229,474.0145931728184,475.5356978001073,"[16, 0, 238]",238,l,0.9977196319960058,colour,0.5
037,63,0,1,5,30,230,476.04598269285634,477.5676784827374,"[40, 0, 214]",214,l,0.9983596317470074,colour,0.5
037,63,0,1,5,31,231,478.077127634082,479.79175396915525,"[64, 0, 190]",190,l,1.1913925763219595,colour,0.5
037,63,0,1,5,32,232,480.31161049893126,480.8556598019786,"[18, 0, 236]",236,a,0.02113259071484208,colour,0.5
037,63,0,1,5,33,233,481.3740193233825,482.6317229499109,"[92, 0, 162]",162,l,0.7343847970478237,colour,0.5
037,63,0,1,5,34,234,483.13966248976067,484.6317713926546,"[84, 0, 170]",170,l,0.9666168317198753,colour,0.5
037,63,0,1,5,35,235,485.1418577870354,486.31972648156807,"[39, 0, 215]",215,l,0.6549862469546497,colour,0.5
037,63,0,1,5,36,236,486.8292768513784,487.4236805373803,"[61, 0, 193]",193,l,0.07099860440939665,colour,0.5
037,63,0,1,5,37,237,487.93861753772944,488.5677194427699,"[45, 0, 209]",209,l,0.10577480494976044,colour,0.5
037,63,0,1,5,38,238,489.0792957562953,490.9277592054568,"[46, 0, 208]",208,l,1.325265530962497,colour,0.5
037,63,0,1,5,39,239,491.43873096536845,491.97572727594525,"[32, 0, 222]",222,a,0.013759795110672712,colour,0.5
037,63,0,1,5,40,240,492.4855261621997,493.9437064207159,"[71, 0, 183]",183,l,0.9349260199815035,colour,0.5
037,63,0,1,5,41,241,494.45578134292737,495.16772991931066,"[50, 0, 204]",204,l,0.1886301408521831,colour,0.5
037,63,0,1,5,42,242,495.67449855525047,497.5116609898396,"[77, 0, 177]",177,l,1.313889685086906,colour,0.5
037,63,0,1,5,43,243,498.01815550914034,499.5757066383958,"[26, 0, 228]",228,l,1.0344189829193056,colour,0.5
037,63,0,1,5,44,244,500.0963540105149,501.7357463221997,"[8, 0, 246]",246,l,1.1163487806916237,colour,0.5
037,63,0,1,5,45,245,502.2526190751232,502.79168898425996,"[76, 0, 178]",178,l,0.016034254804253578,colour,0.5
037,63,0,1,5,46,246,503.29958165669814,503.9117245567031,"[60, 0, 194]",194,l,0.08891189843416214,colour,0.5
037,63,0,1,5,47,247,504.42455093655735,504.9837014740333,"[1, 0, 253]",253,a,0.035671806428581476,colour,0.5
037,63,0,1,5,48,248,505.502785671968,507.1196811106056,"[9, 0, 245]",245,l,1.0937991323880851,colour,0.5
037,63,0,1,5,49,249,507.6276694876142,509.59968437161297,"[85, 0, 169]",169,l,1.4488606825470924,colour,0.5
037,63,0,1,5,50,250,510.113326406572,512.1357275750488,"[98, 0, 156]",156,l,1.4990949421189725,colour,0.5
037,63,0,1,6,1,251,516.8611204759218,518.599709183909,"[19, 0, 235]",235,a,1.214934322051704,colour,0.5
037,63,0,1,6,2,252,519.1151971747167,521.0478278608061,"[8, 0, 246]",246,l,1.4093335182406008,colour,0.5
037,63,0,1,6,3,253,521.568247590214,522.135674405843,"[12, 0, 242]",242,a,0.04398313723504543,colour,0.5
037,63,0,1,6,4,254,522.646351962816,523.1756887575611,"[87, 0, 167]",167,l,0.005929350387305021,colour,0.5
037,63,0,1,6,5,255,523.6933188764378,525.0796785741113,"[22, 0, 232]",232,l,0.8630802528932691,colour,0.5
037,63,0,1,6,6,256,525.5996008762158,527.4476905660704,"[20, 0, 234]",234,l,1.324744866695255,colour,0.5
037,63,0,1,6,7,257,527.9589714948088,529.3596585197374,"[34, 0, 220]",220,l,0.8774615372531116,colour,0.5
037,63,0,1,6,8,258,529.8667091494426,530.6876868796535,"[41, 0, 213]",213,l,0.2978132884018123,colour,0.5
037,63,0,1,6,9,259,531.1947107277811,532.5196442469023,"[47, 0, 207]",207,l,0.801830911077559,colour,0.5
037,63,0,1,6,10,260,533.0384476324543,534.7916712611914,"[65, 0, 189]",189,l,1.229878805577755,colour,0.5
037,63,0,1,6,11,261,535.3039943063632,536.8876952291466,"[4, 0, 250]",250,l,1.0604151766747236,colour,0.5
037,63,0,1,6,12,262,537.397821795661,538.9437840082683,"[71, 0, 183]",183,l,1.0226918263360858,colour,0.5
037,63,0,1,6,13,263,539.4618115178309,541.0956230326556,"[61, 0, 193]",193,l,1.1107794055715203,colour,0.5
037,63,0,1,6,14,264,541.6024393239059,543.1116671338677,"[5, 0, 249]",249,l,0.986063368152827,colour,0.5
037,63,0,1,6,15,265,543.6179190441035,545.1276824842207,"[88, 0, 166]",166,l,0.9862642292864621,colour,0.5
037,63,0,1,6,16,266,545.6492053763941,547.551719058305,"[2, 0, 252]",252,l,1.3791519235819578,colour,0.5
037,63,0,1,6,17,267,548.071143145673,549.8956721844152,"[63, 0, 191]",191,l,1.3012239942327142,colour,0.5
037,63,0,1,6,18,268,550.4170127259567,551.0476510240696,"[94, 0, 160]",160,l,0.10727102588862181,colour,0.5
037,63,0,1,6,19,269,551.5577011844143,554.1117010046728,"[91, 0, 163]",163,l,2.0313643137924373,colour,0.5
037,63,0,1,6,20,270,554.6201911410317,556.983789301943,"[70, 0, 184]",184,l,1.8408515895716846,colour,0.5
037,63,0,1,6,21,271,557.4951639659703,558.9517196100205,"[86, 0, 168]",168,l,0.9335511038079858,colour,0.5
037,63,0,1,6,22,272,559.4655160326511,559.9917059987783,"[66, 0, 188]",188,l,0.0028136353939771652,colour,0.5
037,63,0,1,6,23,273,560.5122588481754,561.9436524640769,"[60, 0, 194]",194,l,0.9084950205869973,colour,0.5
037,63,0,1,6,24,274,562.4497637711465,564.2396335811354,"[29, 0, 225]",225,l,1.2681401488371193,colour,0.5
037,63,0,1,6,25,275,564.74753097957,566.215633792337,"[99, 0, 155]",155,l,0.9446674049831927,colour,0.5
037,63,0,1,6,26,276,566.7319791857153,568.4396966756321,"[28, 0, 226]",226,l,1.1846782909706235,colour,0.5
037,63,0,1,6,27,277,568.9507602010854,569.6076569948345,"[45, 0, 209]",209,l,0.13344484427943826,colour,0.5
037,63,0,1,6,28,278,570.1225731214508,570.6636197431944,"[18, 0, 236]",236,a,0.017628937494009733,colour,0.5
037,63,0,1,6,29,279,571.1850725305267,571.7276460928842,"[53, 0, 201]",201,l,0.01925945933908224,colour,0.5
037,63,0,1,6,30,280,572.2475183769129,572.7838506628759,"[76, 0, 178]",178,l,0.012972890865057707,colour,0.5
037,63,0,1,6,31,281,573.2944533890113,575.0317073534243,"[98, 0, 156]",156,l,1.214132057968527,colour,0.5
037,63,0,1,6,32,282,575.5444711120799,577.1116379890591,"[49, 0, 205]",205,l,1.0440902630798519,colour,0.5
037,63,0,1,6,33,283,577.6226483457722,579.247631016653,"[72, 0, 182]",182,l,1.1017686044797301,colour,0.5
037,63,0,1,6,34,284,579.7647518925369,581.3036717465147,"[97, 0, 157]",157,l,1.0156234735623002,colour,0.5
037,63,0,1,6,35,285,581.8116435818374,583.0077059892938,"[44, 0, 210]",210,l,0.6728703966364264,colour,0.5
037,63,0,1,6,36,286,583.5147932465188,585.3516248506494,"[89, 0, 165]",165,l,1.3136774026788771,colour,0.5
037,63,0,1,6,37,287,585.8584765880369,588.6796740842983,"[90, 0, 164]",164,l,2.298193349968642,colour,0.5
037,63,0,1,6,38,288,589.1899156537838,590.4796113842167,"[33, 0, 221]",221,l,0.7682303399778903,colour,0.5
037,63,0,1,6,39,289,591.00053326739,592.3115975018591,"[21, 0, 233]",233,l,0.7877792762592435,colour,0.5
037,63,0,1,6,40,290,592.8286990793422,593.5516115385108,"[46, 0, 208]",208,l,0.1998200910165906,colour,0.5
037,63,0,1,6,41,291,594.063134288881,594.631606371142,"[51, 0, 203]",203,l,0.04530567163601518,colour,0.5
037,63,0,1,6,42,292,595.1412000642158,596.4396490203217,"[80, 0, 174]",174,l,0.7751943236216903,colour,0.5
037,63,0,1,6,43,293,596.9536628457718,597.5116570512764,"[26, 0, 228]",228,a,0.0347013701684773,colour,0.5
037,63,0,1,6,44,294,598.0317002641968,598.6076439977624,"[48, 0, 206]",206,l,0.05259812297299504,colour,0.5
037,63,0,1,6,45,295,599.1269696233794,599.6556191570126,"[13, 0, 241]",241,a,0.005402384325861931,colour,0.5
037,63,0,1,6,46,296,600.1738305925392,602.0796470665373,"[56, 0, 198]",198,l,1.382504340261221,colour,0.5
037,63,0,1,6,47,297,602.5957175553776,603.9676270466298,"[1, 0, 253]",253,l,0.8487281138077378,colour,0.5
037,63,0,1,6,48,298,604.4864237369038,605.87162828492,"[82, 0, 172]",172,l,0.8619298292323947,colour,0.5
037,63,0,1,6,49,299,606.3925418970175,607.8156186686829,"[38, 0, 216]",216,l,0.8998166252858937,colour,0.5
037,63,0,1,6,50,300,608.3300554850139,608.855633020401,"[57, 0, 197]",197,l,0.002241377253085375,colour,0.5
037,63,0,1,7,1,301,613.3496103286743,615.2397237722762,"[96, 0, 158]",158,l,1.3659470579586923,colour,0.5
037,63,0,1,7,2,302,615.7566095222719,617.5676068030298,"[66, 0, 188]",188,l,1.2877627345733345,colour,0.5
037,63,0,1,7,3,303,618.0846359129064,618.6875781784765,"[59, 0, 195]",195,l,0.07944069197401404,colour,0.5
037,63,0,1,7,4,304,619.1962845362723,620.8316730102524,"[78, 0, 176]",176,l,1.112157078459859,colour,0.5
037,63,0,1,7,5,305,621.3525125794113,621.9116178243421,"[67, 0, 187]",187,l,0.03588605858385563,colour,0.5
037,63,0,1,7,6,306,622.4306189208291,623.9356247023679,"[42, 0, 212]",212,l,0.9817452412098646,colour,0.5
037,63,0,1,7,7,307,624.4462443641387,625.1035952619277,"[48, 0, 206]",206,l,0.13390958262607455,colour,0.5
037,63,0,1,7,8,308,625.6180726438761,626.7356395898387,"[11, 0, 243]",243,l,0.5945151443593204,colour,0.5
037,63,0,1,7,9,309,627.2431289637461,629.1436328501441,"[61, 0, 193]",193,l,1.377288244664669,colour,0.5
037,63,0,1,7,10,310,629.6650864253752,631.6955905798823,"[97, 0, 157]",157,l,1.5073913065716624,colour,0.5
037,63,0,1,7,11,311,632.202420655638,633.4875946408138,"[12, 0, 242]",242,l,0.7618736666627228,colour,0.5
037,63,0,1,7,12,312,633.9993277047761,635.2716528610326,"[36, 0, 218]",218,l,0.7490307451225817,colour,0.5
037,63,0,1,7,13,313,635.7805443266407,637.0075854724273,"[68, 0, 186]",186,l,0.70410040859133,colour,0.5
037,63,0,1,7,14,314,637.5149070681073,638.2316278754734,"[0, 0, 254]",254,l,0.19335353514179587,colour,0.5
037,63,0,1,7,15,315,638.7493643327616,640.0477447593585,"[54, 0, 200]",200,l,0.7750714435242116,colour,0.5
037,63,0,1,7,16,316,640.5617963941768,642.047597066965,"[77, 0, 177]",177,l,0.9627023972570896,colour,0.5
037,63,0,1,7,17,317,642.5618216004223,643.8395893131383,"[25, 0, 229]",229,l,0.7547426926903427,colour,0.5
037,63,0,1,7,18,318,644.3599503594451,644.9035971523263,"[19, 0, 235]",235,a,0.020360258873552084,colour,0.5
037,63,0,1,7,19,319,645.4224741873331,646.8076326549053,"[87, 0, 167]",167,l,0.8618597243912518,colour,0.5
037,63,0,1,7,20,320,647.3285734425299,647.8636359698139,"[56, 0, 198]",198,l,0.011693285778164864,colour,0.5
037,63,0,1,7,21,321,648.3754891566932,649.7755932891741,"[80, 0, 174]",174,l,0.8771027433685958,colour,0.5
037,63,0,1,7,22,322,650.281729015056,651.6475433465093,"[14, 0, 240]",240,l,0.8424068870954216,colour,0.5
037,63,0,1,7,23,323,652.1567565840669,653.2635628716089,"[29, 0, 225]",225,l,0.5833326769061387,colour,0.5
037,63,0,1,7,24,324,653.7819566577673,654.3196197496727,"[30, 0, 224]",224,a,0.01488540694117546,colour,0.5
037,63,0,1,7,25,325,654.8286281870678,655.7996312812902,"[65, 0, 189]",189,l,0.44788945838809013,colour,0.5
037,63,0,1,7,26,326,656.3129578456283,656.8636119449511,"[4, 0, 250]",250,a,0.02720884559676051,colour,0.5
037,63,0,1,7,27,327,657.375482854899,658.5515867262147,"[84, 0, 170]",170,l,0.653102875687182,colour,0.5
037,63,0,1,7,28,328,659.0529620363377,660.5996481380425,"[79, 0, 175]",175,l,1.023235334083438,colour,0.5
037,63,0,1,7,29,329,661.1155654205941,662.8556613773108,"[92, 0, 162]",162,l,1.216734197922051,colour,0.5
037,63,0,1,7,30,330,663.3655638452619,664.4315641508438,"[50, 0, 204]",204,l,0.5426050699315965,colour,0.5
037,63,0,1,7,31,331,664.9437257191166,667.1356094214134,"[75, 0, 179]",179,l,1.6687358021736145,colour,0.5
037,63,0,1,7,32,332,667.6467296606861,669.023579555098,"[20, 0, 234]",234,l,0.8534436309710145,colour,0.5
037,63,0,1,7,33,333,669.5387359275483,670.8075779103674,"[9, 0, 245]",245,l,0.7455259100534022,colour,0.5
037,63,0,1,7,34,334,671.3199667278677,672.9195561828092,"[17, 0, 237]",237,l,1.076271413359791,colour,0.5
037,63,0,1,7,35,335,673.4293326199986,675.1836271160282,"[74, 0, 180]",180,l,1.230916983447969,colour,0.5
037,63,0,1,7,36,336,675.6950017800555,676.3195642172359,"[63, 0, 191]",191,l,0.10145628452301025,colour,0.5
037,63,0,1,7,37,337,676.835554361809,678.1195739847608,"[15, 0, 239]",239,l,0.7606306890957057,colour,0.5
037,63,0,1,7,38,338,678.6324373860843,679.6796264289878,"[35, 0, 219]",219,l,0.5237177950330079,colour,0.5
037,63,0,1,7,39,339,680.1949714538641,681.4235946787521,"[1, 0, 253]",253,l,0.703888519667089,colour,0.5
037,63,0,1,7,40,340,681.9450258044526,683.175591871608,"[85, 0, 169]",169,l,0.7075016619637609,colour,0.5
037,63,0,1,7,41,341,683.6950202905573,684.2716091438197,"[62, 0, 192]",192,l,0.05355634959414601,colour,0.5
037,63,0,1,7,42,342,684.7887024506927,685.8075940581039,"[28, 0, 226]",226,a,0.49582011299207807,colour,0.5
037,63,0,1,7,43,343,686.3199100140482,689.0958802141249,"[32, 0, 222]",222,l,2.2526785461232066,colour,0.5
037,63,0,1,7,44,344,689.6025496008806,690.1276616104878,"[23, 0, 231]",231,a,0.0019286633469164371,colour,0.5
037,63,0,1,7,45,345,690.6492475178093,691.1755950222723,"[5, 0, 249]",249,a,0.002790792379528284,colour,0.5
037,63,0,1,7,46,346,691.6961569301784,693.2395741106011,"[69, 0, 185]",185,l,1.0200258833356202,colour,0.5
037,63,0,1,7,47,347,693.7586921793409,695.0395803335123,"[43, 0, 211]",211,l,0.7578926724381745,colour,0.5
037,63,0,1,7,48,348,695.5555303054862,696.2635931978002,"[13, 0, 241]",241,a,0.1847302783280611,colour,0.5
037,63,0,1,7,49,349,696.7742809946649,698.0395897855051,"[22, 0, 232]",232,l,0.7422097274102271,colour,0.5
037,63,0,1,7,50,350,698.5556204961613,700.4558841367252,"[98, 0, 156]",156,l,1.3758073840290308,colour,0.5
037,63,0,1,8,1,351,708.6483755428344,710.5035836040042,"[76, 0, 178]",178,l,1.3277467605657876,colour,0.5
037,63,0,1,8,2,352,711.0116156977601,711.5836485410109,"[55, 0, 199]",199,l,0.04885186022147536,colour,0.5
037,63,0,1,8,3,353,712.0896732024848,713.3836453114636,"[73, 0, 181]",181,l,0.7707690708339214,colour,0.5
037,63,0,1,8,4,354,713.9021663097665,715.3116250713356,"[86, 0, 168]",168,l,0.8860611626878381,colour,0.5
037,63,0,1,8,5,355,715.8241009283811,717.0475316885859,"[31, 0, 223]",223,l,0.7001123246736825,colour,0.5
037,63,0,1,8,6,356,717.5584900574759,719.0635560979135,"[14, 0, 240]",240,l,0.9818929340690374,colour,0.5
037,63,0,1,8,7,357,719.57538525993,720.8635733481497,"[20, 0, 234]",234,l,0.7647928530350327,colour,0.5
037,63,0,1,8,8,358,721.3723179092631,722.6315591097809,"[36, 0, 218]",218,l,0.7358439960516989,colour,0.5
037,63,0,1,8,9,359,723.1379980966449,724.4395737955347,"[8, 0, 246]",246,l,0.7782706539146602,colour,0.5
037,63,0,1,8,10,360,724.9504679674283,725.5275581865571,"[63, 0, 191]",191,l,0.053837555926293135,colour,0.5
037,63,0,1,8,11,361,726.0441387062892,726.5915585425682,"[23, 0, 231]",231,a,0.024158508516848087,colour,0.5
037,63,0,1,8,12,362,727.106595186051,728.3355236416683,"[88, 0, 166]",166,l,0.7054587830789387,colour,0.5
037,63,0,1,8,13,363,728.858816083055,729.471521789208,"[57, 0, 197]",197,l,0.08931637834757566,colour,0.5
037,63,0,1,8,14,364,729.9838022985496,731.1995640913956,"[12, 0, 242]",242,l,0.6928182984702289,colour,0.5
037,63,0,1,8,15,365,731.718104781583,732.3675724593922,"[37, 0, 217]",217,l,0.1259972178377211,colour,0.5
037,63,0,1,8,16,366,732.8744478276931,733.399629548192,"[25, 0, 229]",229,a,0.0019487496465444565,colour,0.5
037,63,0,1,8,17,367,733.9213107661344,735.2555843410082,"[53, 0, 201]",201,l,0.8109452929347754,colour,0.5
037,63,0,1,8,18,368,735.764966932591,736.4635519227013,"[46, 0, 208]",208,l,0.17519526882097125,colour,0.5
037,63,0,1,8,19,369,736.9837896954268,738.151594445575,"[26, 0, 228]",228,l,0.6445154589600861,colour,0.5
037,63,0,1,8,20,370,738.671265474055,739.943560697604,"[4, 0, 250]",250,l,0.7489393725991249,colour,0.5
037,63,0,1,8,21,371,740.4524663416669,742.055533062201,"[84, 0, 170]",170,l,1.0799274849705398,colour,0.5
037,63,0,1,8,22,372,742.5618212064728,744.1675826208666,"[95, 0, 159]",159,l,1.0826072129420936,colour,0.5
037,63,0,1,8,23,373,744.6881039626896,747.0555476346053,"[92, 0, 162]",162,l,1.84430246707052,colour,0.5
037,63,0,1,8,24,374,747.5631291689351,748.111547798384,"[69, 0, 185]",185,l,0.025108464993536472,colour,0.5
037,63,0,1,8,25,375,748.6255281474441,749.1836023037322,"[45, 0, 209]",209,l,0.03469821950420737,colour,0.5
037,63,0,1,8,26,376,749.7037632763386,750.3115561478771,"[5, 0, 249]",249,a,0.08444332238286734,colour,0.5
037,63,0,1,8,27,377,750.8287353133783,752.3595324889757,"[82, 0, 172]",172,l,1.0076315524056554,colour,0.5
037,63,0,1,8,28,378,752.8755903746933,753.4395415000618,"[64, 0, 190]",190,l,0.040614178869873285,colour,0.5
037,63,0,1,8,29,379,753.9551007770933,756.2235520645045,"[74, 0, 180]",180,l,1.745096618309617,colour,0.5
037,63,0,1,8,30,380,756.733042569831,758.6875309166498,"[83, 0, 171]",171,l,1.431373135652393,colour,0.5
037,63,0,1,8,31,381,759.2018196466379,759.9275055686012,"[2, 0, 252]",252,a,0.20235330797731876,colour,0.5
037,63,0,1,8,32,382,760.4361331574619,761.1675767130218,"[33, 0, 221]",221,l,0.20808179676532745,colour,0.5
037,63,0,1,8,33,383,761.6861520623788,762.8715365189128,"[13, 0, 241]",241,l,0.662355103995651,colour,0.5
037,63,0,1,8,34,384,763.3893017265946,764.3675866378471,"[32, 0, 222]",222,a,0.4549696263857186,colour,0.5
037,63,0,1,8,35,385,764.8736558035016,766.1035416987725,"[77, 0, 177]",177,l,0.7065064134076238,colour,0.5
037,63,0,1,8,36,386,766.6236487142742,767.8795556155965,"[10, 0, 244]",244,l,0.7325396286323667,colour,0.5
037,63,0,1,8,37,387,768.3907459597103,769.8954969230108,"[80, 0, 174]",174,l,0.9817535122856498,colour,0.5
037,63,0,1,8,38,388,770.4061622708105,771.1835436206311,"[50, 0, 204]",204,l,0.2538175485096872,colour,0.5
037,63,0,1,8,39,389,771.703189836815,773.607550656423,"[66, 0, 188]",188,l,1.380984882824123,colour,0.5
037,63,0,1,8,40,390,774.1250169351697,775.2715319502167,"[35, 0, 219]",219,l,0.6230477057397366,colour,0.5
037,63,0,1,8,41,391,775.7813205965795,776.8715731464326,"[91, 0, 163]",163,l,0.5671408833004534,colour,0.5
037,63,0,1,8,42,392,777.3906593136489,778.151487713214,"[21, 0, 233]",233,a,0.2374205612577498,colour,0.5
037,63,0,1,8,43,393,778.6719543104991,779.343554160092,"[44, 0, 210]",210,l,0.1488304352387786,colour,0.5
037,63,0,1,8,44,394,779.8594726244919,781.3515397799201,"[78, 0, 176]",176,l,0.9687014585360885,colour,0.5
037,63,0,1,8,45,395,781.8594352090731,783.2874925560318,"[24, 0, 230]",230,l,0.9048172868788242,colour,0.5
037,63,0,1,8,46,396,783.7969743967988,785.095525752753,"[6, 0, 248]",248,l,0.775288452859968,colour,0.5
037,63,0,1,8,47,397,785.6094513568096,786.175535551738,"[75, 0, 179]",179,l,0.042717316653579473,colour,0.5
037,63,0,1,8,48,398,786.6875175260939,787.8395412638783,"[15, 0, 239]",239,l,0.6289250683039427,colour,0.5
037,63,0,1,8,49,399,788.3594891657121,788.9195353090763,"[65, 0, 189]",189,l,0.03676512325182557,colour,0.5
037,63,0,1,8,50,400,789.437496652361,790.815509179607,"[56, 0, 198]",198,l,0.8545097722671926,colour,0.5
037,63,0,1,9,1,401,795.657795549836,797.0155143784359,"[77, 0, 177]",177,l,0.8335886769928038,colour,0.5
037,63,0,1,9,2,402,797.5336281401105,798.1675444180146,"[61, 0, 193]",193,l,0.11074474733322859,colour,0.5
037,63,0,1,9,3,403,798.6741460631602,800.247583755292,"[1, 0, 253]",253,l,1.0501247704960406,colour,0.5
037,63,0,1,9,4,404,800.767880210653,801.4075293098576,"[54, 0, 200]",200,l,0.11637398647144437,colour,0.5
037,63,0,1,9,5,405,801.9241803279147,802.4634865443222,"[35, 0, 219]",219,a,0.015888138208538294,colour,0.5
037,63,0,1,9,6,406,802.9710290879011,804.2955266190693,"[69, 0, 185]",185,l,0.8106668442487717,colour,0.5
037,63,0,1,9,7,407,804.8055255794898,806.2234949572012,"[84, 0, 170]",170,l,0.8947494039312005,colour,0.5
037,63,0,1,9,8,408,806.7429639422335,807.7194639439695,"[23, 0, 231]",231,l,0.4535301197320223,colour,0.5
037,63,0,1,9,9,409,808.2273593731225,808.9035388631746,"[42, 0, 212]",212,l,0.15300126373767853,colour,0.5
037,63,0,1,9,10,410,809.4146890346892,810.6475709155202,"[34, 0, 220]",220,l,0.7094610454514623,colour,0.5
037,63,0,1,9,11,411,811.1648568133824,811.9035175954923,"[44, 0, 210]",210,l,0.21538960840553045,colour,0.5
037,63,0,1,9,12,412,812.4147815885954,813.7355513684452,"[68, 0, 186]",186,l,0.797464341390878,colour,0.5
037,63,0,1,9,13,413,814.2441655662842,815.7355442792177,"[75, 0, 179]",179,l,0.9681874895468354,colour,0.5
037,63,0,1,9,14,414,816.2441399665549,817.4955731718801,"[31, 0, 223]",223,l,0.7283235085196793,colour,0.5
037,63,0,1,9,15,415,818.0098276371136,819.5275444020517,"[41, 0, 213]",213,l,0.9944436219520867,colour,0.5
037,63,0,1,9,16,416,820.0410072370432,821.5035194070078,"[93, 0, 161]",161,l,0.9391567129641771,colour,0.5
037,63,0,1,9,17,417,822.0097835264169,823.6714836647734,"[83, 0, 171]",171,l,1.138629431836307,colour,0.5
037,63,0,1,9,18,418,824.1829430055805,825.5835134522058,"[5, 0, 249]",249,l,0.877063752617687,colour,0.5
037,63,0,1,9,19,419,826.1048748670146,827.5114723378792,"[82, 0, 172]",172,l,0.8832707647234201,colour,0.5
037,63,0,1,9,20,420,828.0268153930083,829.5034847487696,"[98, 0, 156]",156,l,0.9535344522446394,colour,0.5
037,63,0,1,9,21,421,830.0111568672583,831.4314522990026,"[28, 0, 226]",226,l,0.8961747321300209,colour,0.5
037,63,0,1,9,22,422,831.9486271315254,833.2636566073634,"[95, 0, 159]",159,l,0.7917134030722082,colour,0.5
037,63,0,1,9,23,423,833.7766917254776,835.4874855456874,"[88, 0, 166]",166,l,1.18787159351632,colour,0.5
037,63,0,1,9,24,424,835.9953845194541,837.2315699798055,"[7, 0, 247]",247,l,0.7129335850477219,colour,0.5
037,63,0,1,9,25,425,837.7454703780822,839.0554905268364,"[20, 0, 234]",234,l,0.7869029687717557,colour,0.5
037,63,0,1,9,26,426,839.5747917341068,840.7274897363968,"[33, 0, 221]",221,l,0.6293657822534442,colour,0.5
037,63,0,1,9,27,427,841.2467436818406,841.8635461726226,"[50, 0, 204]",204,l,0.0939578521065414,colour,0.5
037,63,0,1,9,28,428,842.3716983892955,842.9114713137969,"[18, 0, 236]",236,a,0.01642376882955432,colour,0.5
037,63,0,1,9,29,429,843.4185282448307,844.8635197849944,"[58, 0, 196]",196,l,0.921590790618211,colour,0.5
037,63,0,1,9,30,430,845.3716211956926,846.9355124565773,"[91, 0, 163]",163,l,1.0404550656676292,colour,0.5
037,63,0,1,9,31,431,847.4497696785256,849.3514747954905,"[97, 0, 157]",157,l,1.3783012167550623,colour,0.5
037,63,0,1,9,32,432,849.8573088347912,850.4714520783164,"[59, 0, 195]",195,l,0.09086419269442558,colour,0.5
037,63,0,1,9,33,433,850.982304896228,852.4318162123673,"[66, 0, 188]",188,l,0.9337283344939351,colour,0.5
037,63,0,1,9,34,434,852.9435299779288,854.6234868438914,"[96, 0, 158]",158,l,1.156704202760011,colour,0.5
037,63,0,1,9,35,435,855.1394045203924,856.295466360636,"[46, 0, 208]",208,l,0.6327749122865498,colour,0.5
037,63,0,1,9,36,436,856.8112430404872,858.0074452632107,"[29, 0, 225]",225,l,0.6728605502285063,colour,0.5
037,63,0,1,9,37,437,858.5143340220675,859.9594598636031,"[64, 0, 190]",190,l,0.9218152831308544,colour,0.5
037,63,0,1,9,38,438,860.4674572991207,861.6555683510378,"[36, 0, 218]",218,l,0.6648146719671786,colour,0.5
037,63,0,1,9,39,439,862.170630200766,862.8554731192999,"[11, 0, 243]",243,a,0.16160797839984298,colour,0.5
037,63,0,1,9,40,440,863.3738432745449,864.0314694703557,"[9, 0, 245]",245,a,0.13318687491118908,colour,0.5
037,63,0,1,9,41,441,864.547395023983,866.0154749937356,"[71, 0, 183]",183,l,0.944840697105974,colour,0.5
037,63,0,1,9,42,442,866.531783759594,867.7514718021266,"[76, 0, 178]",178,l,0.6963463700376451,colour,0.5
037,63,0,1,9,43,443,868.266049221158,870.0234952722676,"[78, 0, 176]",176,l,1.2339929202571511,colour,0.5
037,63,0,1,9,44,444,870.5317983319983,871.6234513977543,"[45, 0, 209]",209,l,0.568301547318697,colour,0.5
037,63,0,1,9,45,445,872.141137836501,873.4634625199251,"[38, 0, 216]",216,l,0.7989834048785269,colour,0.5
037,63,0,1,9,46,446,873.9870471949689,875.5034319730476,"[6, 0, 248]",248,l,0.9933365206234157,colour,0.5
037,63,0,1,9,47,447,876.0182200996205,877.4314629328437,"[10, 0, 244]",244,l,0.8898609881289303,colour,0.5
037,63,0,1,9,48,448,877.9402169459499,879.5994496396743,"[22, 0, 232]",232,l,1.1360111446119845,colour,0.5
037,63,0,1,9,49,449,880.1120436503552,880.7195190824568,"[67, 0, 187]",187,l,0.08451894065365195,colour,0.5
037,63,0,1,9,50,450,881.2370286844671,882.5034386687912,"[4, 0, 250]",250,l,0.7431254195980728,colour,0.5
037,63,0,1,10,1,451,887.595516694244,888.6074695242569,"[17, 0, 237]",237,a,0.4878128319978714,colour,0.5
037,63,0,1,10,2,452,889.1288510253653,890.6554990340956,"[71, 0, 183]",183,l,1.0035316161811352,colour,0.5
037,63,0,1,10,3,453,891.1754997116514,892.9836439727806,"[66, 0, 188]",188,l,1.284556434955448,colour,0.5
037,63,0,1,10,4,454,893.5037907669321,894.6554572866298,"[8, 0, 246]",246,l,0.6282850690186024,colour,0.5
037,63,0,1,10,5,455,895.1756454347633,896.2795140254311,"[32, 0, 222]",222,l,0.5808341181837022,colour,0.5
037,63,0,1,10,6,456,896.7850125082768,897.3594383597374,"[51, 0, 203]",203,l,0.05151071399450302,colour,0.5
037,63,0,1,10,7,457,897.8787277513184,899.3434568801895,"[47, 0, 207]",207,l,0.9414835548959672,colour,0.5
037,63,0,1,10,8,458,899.8659431189299,901.7356002051383,"[84, 0, 170]",170,l,1.3463244722224772,colour,0.5
037,63,0,1,10,9,459,902.2565000327304,903.5434719249606,"[27, 0, 227]",227,l,0.7636034381575882,colour,0.5
037,63,0,1,10,10,460,904.0534866391681,905.1514703840949,"[40, 0, 214]",214,l,0.5747078447602689,colour,0.5
037,63,0,1,10,11,461,905.6627765190788,907.1354219508357,"[56, 0, 198]",198,l,0.9492824915796518,colour,0.5
037,63,0,1,10,12,462,907.6472582020797,909.3194460636005,"[86, 0, 168]",168,l,1.1489304723218083,colour,0.5
037,63,0,1,10,13,463,909.8359549026936,911.031452535186,"[25, 0, 229]",229,l,0.6723107411526144,colour,0.5
037,63,0,1,10,14,464,911.539672493469,913.4154609730467,"[74, 0, 180]",180,l,1.3531545484438539,colour,0.5
037,63,0,1,10,15,465,913.9296177644283,914.5834256242961,"[28, 0, 226]",226,a,0.13043822441250086,colour,0.5
037,63,0,1,10,16,466,915.1014503766783,916.063465513289,"[95, 0, 159]",159,l,0.43866598093882203,colour,0.5
037,63,0,1,10,17,467,916.5702384812757,917.8394392579794,"[19, 0, 235]",235,l,0.7457649749703705,colour,0.5
037,63,0,1,10,18,468,918.3515311153606,920.439459186513,"[57, 0, 197]",197,l,1.5646234205923975,colour,0.5
037,63,0,1,10,19,469,920.9609797149897,921.5194374774583,"[75, 0, 179]",179,l,0.03527402225881815,colour,0.5
037,63,0,1,10,20,470,922.0390033489093,922.5754344905727,"[22, 0, 232]",232,a,0.013092619832605124,colour,0.5
037,63,0,1,10,21,471,923.0858174506575,924.2394551690668,"[42, 0, 212]",212,a,0.6308809071779251,colour,0.5
037,63,0,1,10,22,472,924.7590549113229,925.9995281724259,"[82, 0, 172]",172,l,0.7171733365394175,colour,0.5
037,63,0,1,10,23,473,926.509065545164,927.0474434671924,"[62, 0, 192]",192,l,0.015057123266160488,colour,0.5
037,63,0,1,10,24,474,927.5558902807534,928.8554703621194,"[4, 0, 250]",250,l,0.7761580646038055,colour,0.5
037,63,0,1,10,25,475,929.3683187975548,931.0074066664092,"[45, 0, 209]",209,l,1.1156587623991072,colour,0.5
037,63,0,1,10,26,476,931.5166506236419,932.0554684717208,"[93, 0, 161]",161,l,0.01526231737807393,colour,0.5
037,63,0,1,10,27,477,932.5636754329316,934.383451145608,"[78, 0, 176]",176,l,1.2964954799972475,colour,0.5
037,63,0,1,10,28,478,934.9012053259648,936.0554424780421,"[48, 0, 206]",206,l,0.6311085503548384,colour,0.5
037,63,0,1,10,29,479,936.5728370766155,938.1434063888155,"[67, 0, 187]",187,l,1.0473513072356582,colour,0.5
037,63,0,1,10,30,480,938.6510647227988,939.8234073659405,"[35, 0, 219]",219,l,0.6490360228344798,colour,0.5
037,63,0,1,10,31,481,940.3384928461164,940.8874376541935,"[21, 0, 233]",233,a,0.02555902488529682,colour,0.5
037,63,0,1,10,32,482,941.4011104088277,942.7594412742183,"[12, 0, 242]",242,l,0.8349966760724783,colour,0.5
037,63,0,1,10,33,483,943.2760241567157,944.8234451748431,"[80, 0, 174]",174,l,1.0239875796251,colour,0.5
037,63,0,1,10,34,484,945.3384577939287,946.9994265600108,"[94, 0, 160]",160,l,1.1376637215726078,colour,0.5
037,63,0,1,10,35,485,947.5103794154711,948.6793909091502,"[31, 0, 223]",223,l,0.6444248748011887,colour,0.5
037,63,0,1,10,36,486,949.1993754389696,949.9914255803451,"[20, 0, 234]",234,a,0.26868838304653764,colour,0.5
037,63,0,1,10,37,487,950.511867758818,951.2075890954584,"[50, 0, 204]",204,l,0.17266323324292898,colour,0.5
037,63,0,1,10,38,488,951.7149930051528,953.0634871744551,"[11, 0, 243]",243,l,0.8251308356411755,colour,0.5
037,63,0,1,10,39,489,953.5743904053234,954.8314623027109,"[34, 0, 220]",220,l,0.7325006383471191,colour,0.5
037,63,0,1,10,40,490,955.3411178290844,956.6873911013827,"[29, 0, 225]",225,l,0.8229221478104591,colour,0.5
037,63,0,1,10,41,491,957.2005853336304,958.5434254510328,"[61, 0, 193]",193,l,0.8194712698459625,colour,0.5
037,63,0,1,10,42,492,959.0599441365339,961.1594323734753,"[92, 0, 162]",162,l,1.576100878417492,colour,0.5
037,63,0,1,10,43,493,961.6693171183579,962.2954151607119,"[55, 0, 199]",199,l,0.10280363168567419,colour,0.5
037,63,0,1,10,44,494,962.8097633612342,964.495366402436,"[97, 0, 157]",157,l,1.1624850733205676,colour,0.5
037,63,0,1,10,45,495,965.0145128280856,967.3674444598146,"[70, 0, 184]",184,l,1.829639583826065,colour,0.5
037,63,0,1,10,46,496,967.8738661175594,969.0794316329993,"[6, 0, 248]",248,l,0.6822053324431181,colour,0.5
037,63,0,1,10,47,497,969.5926794284023,971.0796285560355,"[91, 0, 163]",163,l,0.963686618488282,colour,0.5
037,63,0,1,10,48,498,971.5925589115359,972.1194581938908,"[63, 0, 191]",191,l,0.0036182627081871033,colour,0.5
037,63,0,1,10,49,499,972.639481714461,975.5437818816863,"[41, 0, 213]",213,l,2.3810175717808306,colour,0.5
037,63,0,1,10,50,500,976.0625959015451,977.2633931240998,"[37, 0, 217]",217,l,0.6775516490451992,colour,0.5
037,63,0,1,11,1,501,982.04624302499,983.6554249911569,"[41, 0, 213]",213,l,1.0851719374768436,colour,0.5
037,63,0,1,11,2,502,984.1731141866185,986.3194188880734,"[11, 0, 243]",243,l,1.6229709056206048,colour,0.5
037,63,0,1,11,3,503,986.8294339957647,988.631366125308,"[87, 0, 167]",167,l,1.278903958387673,colour,0.5
037,63,0,1,11,4,504,989.1418688143604,991.3514184751548,"[69, 0, 185]",185,l,1.6848468566313386,colour,0.5
037,63,0,1,11,5,505,991.8620775211602,993.2394602890126,"[33, 0, 221]",221,l,0.8543270276859403,colour,0.5
037,63,0,1,11,6,506,993.7527195061557,995.239717470482,"[6, 0, 248]",248,l,0.9638996887952089,colour,0.5
037,63,0,1,11,7,507,995.7526734261774,996.3194090421312,"[62, 0, 192]",192,l,0.04074769327417016,colour,0.5
037,63,0,1,11,8,508,996.8336954088882,997.9993737847544,"[46, 0, 208]",208,l,0.6424454050138593,colour,0.5
037,63,0,1,11,9,509,998.5211231382564,999.9434130056761,"[13, 0, 241]",241,l,0.898986398242414,colour,0.5
037,63,0,1,11,10,510,1000.4584776121192,1001.7514020912349,"[2, 0, 252]",252,a,0.7696060435846448,colour,0.5
037,63,0,1,11,11,511,1002.2709904122166,1003.6153811006807,"[63, 0, 191]",191,l,0.8210608316585422,colour,0.5
037,63,0,1,11,12,512,1004.1317867529579,1005.5113372486085,"[7, 0, 247]",247,l,0.8562907432205975,colour,0.5
037,63,0,1,11,13,513,1006.0223869895563,1007.4233957864344,"[39, 0, 215]",215,l,0.8776923306286335,colour,0.5
037,63,0,1,11,14,514,1007.9442239343189,1008.8953704987653,"[34, 0, 220]",220,l,0.42787854140624404,colour,0.5
037,63,0,1,11,15,515,1009.413041183725,1011.0633895010687,"[36, 0, 218]",218,l,1.1273993095383048,colour,0.5
037,63,0,1,11,16,516,1011.584918694105,1012.1193577633239,"[74, 0, 180]",180,l,0.011154897976666689,colour,0.5
037,63,0,1,11,17,517,1012.6317390971817,1014.6957441796549,"[99, 0, 155]",155,l,1.540976517368108,colour,0.5
037,63,0,1,11,18,518,1015.2098576482385,1016.4394205897115,"[28, 0, 226]",226,l,0.7061956692487001,colour,0.5
037,63,0,1,11,19,519,1016.9598844298162,1018.6633641370572,"[91, 0, 163]",163,l,1.1802904531359673,colour,0.5
037,63,0,1,11,20,520,1019.1798272905871,1020.3193452390842,"[4, 0, 250]",250,l,0.6162097533233464,colour,0.5
037,63,0,1,11,21,521,1020.8361467057839,1021.4553429922089,"[49, 0, 205]",205,l,0.09602318005636334,colour,0.5
037,63,0,1,11,22,522,1021.9767280383967,1023.3354212418199,"[65, 0, 189]",189,l,0.8354539312422276,colour,0.5
037,63,0,1,11,23,523,1023.851642573718,1025.0713617298752,"[17, 0, 237]",237,l,0.6963778776116669,colour,0.5
037,63,0,1,11,24,524,1025.5860116165131,1027.343363932334,"[55, 0, 199]",199,l,1.234011430758983,colour,0.5
037,63,0,1,11,25,525,1027.851616973523,1029.615454356186,"[86, 0, 168]",168,l,1.24042599927634,colour,0.5
037,63,0,1,11,26,526,1030.1342041790485,1030.8154308041558,"[51, 0, 203]",203,l,0.15794954355806112,colour,0.5
037,63,0,1,11,27,527,1031.3216059142724,1033.3913851715624,"[71, 0, 183]",183,l,1.546406077221036,colour,0.5
037,63,0,1,11,28,528,1033.8997851177119,1035.703382033389,"[76, 0, 178]",178,l,1.280642000027001,colour,0.5
037,63,0,1,11,29,529,1036.2122790128924,1037.8473287792876,"[88, 0, 166]",166,l,1.1119889062829316,colour,0.5
037,63,0,1,11,30,530,1038.368401505053,1040.5674043660983,"[95, 0, 159]",159,l,1.6754894717596471,colour,0.5
037,63,0,1,11,31,531,1041.0872660158202,1042.9593684915453,"[68, 0, 186]",186,l,1.348713147919625,colour,0.5
037,63,0,1,11,32,532,1043.4778489237651,1045.583442165982,"[90, 0, 164]",164,l,1.5801019589416683,colour,0.5
037,63,0,1,11,33,533,1046.0921087455936,1048.7753936094232,"[83, 0, 171]",171,l,2.1596174808219075,colour,0.5
037,63,0,1,11,34,534,1049.2952824346721,1050.367385382764,"[44, 0, 210]",210,l,0.5489904941059649,colour,0.5
037,63,0,1,11,35,535,1050.8890067362227,1052.4873878718354,"[73, 0, 181]",181,l,1.0749681773595512,colour,0.5
037,63,0,1,11,36,536,1052.9983950778842,1054.9113547354937,"[97, 0, 157]",157,l,1.3901969389989972,colour,0.5
037,63,0,1,11,37,537,1055.4202564409934,1056.6873753475957,"[21, 0, 233]",233,l,0.7437429698184133,colour,0.5
037,63,0,1,11,38,538,1057.2013832656667,1058.6793412845582,"[18, 0, 236]",236,l,0.9545403346419334,colour,0.5
037,63,0,1,11,39,539,1059.1870712987147,1060.7913136491552,"[29, 0, 225]",225,l,1.0809243088588119,colour,0.5
037,63,0,1,11,40,540,1061.3121221046895,1062.9993773293681,"[16, 0, 238]",238,l,1.1646571336314082,colour,0.5
037,63,0,1,11,41,541,1063.5152067844756,1064.2077265479602,"[59, 0, 195]",195,l,0.16917494032531977,colour,0.5
037,63,0,1,11,42,542,1064.718424978666,1066.1514042182826,"[38, 0, 216]",216,l,0.9096871921792626,colour,0.5
037,63,0,1,11,43,543,1066.671397018712,1067.2233263910748,"[40, 0, 214]",214,a,0.028530198615044355,colour,0.5
037,63,0,1,11,44,544,1067.7339763785712,1069.5194323575124,"[67, 0, 187]",187,l,1.2622131621465087,colour,0.5
037,63,0,1,11,45,545,1070.032035427168,1070.6553060496226,"[60, 0, 194]",194,l,0.10013414407148957,colour,0.5
037,63,0,1,11,46,546,1071.1726380269974,1072.5754415798,"[94, 0, 160]",160,l,0.8799100769683719,colour,0.5
037,63,0,1,11,47,547,1073.0945340488106,1074.3513853922486,"[5, 0, 249]",249,l,0.7337018679827452,colour,0.5
037,63,0,1,11,48,548,1074.8601736701094,1075.4234190233983,"[79, 0, 175]",175,l,0.03988595772534609,colour,0.5
037,63,0,1,11,49,549,1075.9382122703828,1076.479344356805,"[25, 0, 229]",229,a,0.017686438746750355,colour,0.5
037,63,0,1,11,50,550,1077.0008286517113,1077.6634169123136,"[1, 0, 253]",253,a,0.13933599134907126,colour,0.5
037,63,0,1,12,1,551,1082.29682119051,1083.4234060267918,"[90, 0, 164]",164,l,0.6030663270503283,colour,0.5
037,63,0,1,12,2,552,1083.9383528730832,1085.4393154326826,"[5, 0, 249]",249,l,0.9777748808264732,colour,0.5
037,63,0,1,12,3,553,1085.953868827317,1087.887353764847,"[20, 0, 234]",234,l,1.4101515361107886,colour,0.5
037,63,0,1,12,4,554,1088.406942085363,1088.9357436439022,"[64, 0, 190]",190,l,0.005463036708533764,colour,0.5
037,63,0,1,12,5,555,1089.4538885192014,1091.079344986938,"[6, 0, 248]",248,l,1.1021640258841217,colour,0.5
037,63,0,1,12,6,556,1091.5944761531428,1092.9913523248397,"[27, 0, 227]",227,l,0.8736034221947193,colour,0.5
037,63,0,1,12,7,557,1093.5128551307134,1094.887322257273,"[24, 0, 230]",230,l,0.8512325803749263,colour,0.5
037,63,0,1,12,8,558,1095.4035305920988,1096.0233176476322,"[62, 0, 192]",192,l,0.09648319240659475,colour,0.5
037,63,0,1,12,9,559,1096.5441631246358,1098.0073188384995,"[55, 0, 199]",199,l,0.939921167679131,colour,0.5
037,63,0,1,12,10,560,1098.5284695462324,1099.7674075956456,"[35, 0, 219]",219,l,0.7140209935605526,colour,0.5
037,63,0,1,12,11,561,1100.2803895450197,1101.7994965859689,"[72, 0, 182]",182,l,0.9957527657970786,colour,0.5
037,63,0,1,12,12,562,1102.3117255019024,1103.5513039450161,"[17, 0, 237]",237,l,0.7169433305971324,colour,0.5
037,63,0,1,12,13,563,1104.0616443697363,1104.6793196229264,"[93, 0, 161]",161,l,0.09449702687561512,colour,0.5
037,63,0,1,12,14,564,1105.186652246397,1105.8073018244468,"[68, 0, 186]",186,l,0.09730199771001935,colour,0.5
037,63,0,1,12,15,565,1106.3272902928293,1106.911343707703,"[47, 0, 207]",207,l,0.060760185588151217,colour,0.5
037,63,0,1,12,16,566,1107.4210681570694,1109.2153360447846,"[63, 0, 191]",191,l,1.2713082456029952,colour,0.5
037,63,0,1,12,17,567,1109.7347081443295,1110.2953426931053,"[76, 0, 178]",178,l,0.03723261784762144,colour,0.5
037,63,0,1,12,18,568,1110.8128392980434,1111.4873461243697,"[43, 0, 211]",211,l,0.15109308017417789,colour,0.5
037,63,0,1,12,19,569,1112.0004162951373,1112.5993220335804,"[13, 0, 241]",241,a,0.07559163542464375,colour,0.5
037,63,0,1,12,20,570,1113.1098069995642,1114.7193123134784,"[82, 0, 172]",172,l,1.0862420168705285,colour,0.5
037,63,0,1,12,21,571,1115.2347644641995,1118.0313450153917,"[86, 0, 168]",168,l,2.2736260294914246,colour,0.5
037,63,0,1,12,22,572,1118.5481523899361,1120.7593187880702,"[77, 0, 177]",177,l,1.6882012425921857,colour,0.5
037,63,0,1,12,23,573,1121.266865663696,1121.8233128427528,"[66, 0, 188]",188,l,0.033145285211503506,colour,0.5
037,63,0,1,12,24,574,1122.3450614083558,1123.0393101549707,"[12, 0, 242]",242,a,0.17099450808018446,colour,0.5
037,63,0,1,12,25,575,1123.5481216697954,1124.111348906532,"[19, 0, 235]",235,a,0.038376346696168184,colour,0.5
037,63,0,1,12,26,576,1124.627724232152,1125.1753051518463,"[89, 0, 165]",165,l,0.024354250635951757,colour,0.5
037,63,0,1,12,27,577,1125.6903193457983,1127.5112884114496,"[73, 0, 181]",181,l,1.2977069499902427,colour,0.5
037,63,0,1,12,28,578,1128.018326438032,1129.9833088098094,"[34, 0, 220]",220,l,1.441532785538584,colour,0.5
037,63,0,1,12,29,579,1130.5027600722387,1131.8633067142218,"[39, 0, 215]",215,l,0.837356994394213,colour,0.5
037,63,0,1,12,30,580,1132.3775277030654,1133.8953090584837,"[7, 0, 247]",247,l,0.994334920309484,colour,0.5
037,63,0,1,12,31,581,1134.410166108515,1135.847329173237,"[8, 0, 246]",246,l,0.9137902786023915,colour,0.5
037,63,0,1,12,32,582,1136.3632054962218,1137.0712774470448,"[52, 0, 202]",202,l,0.18460267269983888,colour,0.5
037,63,0,1,12,33,583,1137.5821054526605,1139.1916249450296,"[87, 0, 167]",167,l,1.086299518123269,colour,0.5
037,63,0,1,12,34,584,1139.7070479514077,1141.6956079090014,"[70, 0, 184]",184,l,1.465226556174457,colour,0.5
037,63,0,1,12,35,585,1142.2026762617752,1143.783301641699,"[99, 0, 155]",155,l,1.0573865016922355,colour,0.5
037,63,0,1,12,36,586,1144.2964068646543,1145.8232927564532,"[81, 0, 173]",173,l,1.0035520964302123,colour,0.5
037,63,0,1,12,37,587,1146.3431945787743,1146.8793000094593,"[15, 0, 239]",239,a,0.012653087731450796,colour,0.5
037,63,0,1,12,38,588,1147.3901650370099,1147.9353194721043,"[50, 0, 204]",204,l,0.021813944447785616,colour,0.5
037,63,0,1,12,39,589,1148.4526802003384,1149.007302690763,"[54, 0, 200]",200,l,0.03132217191159725,colour,0.5
037,63,0,1,12,40,590,1149.5150315230712,1150.3993156533688,"[38, 0, 216]",216,a,0.36081288242712617,colour,0.5
037,63,0,1,12,41,591,1150.9057763018645,1151.5192811209708,"[29, 0, 225]",225,a,0.09016905445605516,colour,0.5
037,63,0,1,12,42,592,1152.0307806339115,1152.559319497086,"[33, 0, 221]",221,a,0.005240119993686676,colour,0.5
037,63,0,1,12,43,593,1153.0776419970207,1153.6394710806198,"[48, 0, 206]",206,l,0.038605171255767345,colour,0.5
037,63,0,1,12,44,594,1154.1570523623377,1155.4633034062572,"[37, 0, 217]",217,l,0.7832315373234451,colour,0.5
037,63,0,1,12,45,595,1155.9695533472113,1157.4875020873733,"[95, 0, 159]",159,l,0.9947153753601015,colour,0.5
037,63,0,1,12,46,596,1158.0007699686103,1160.3592875166796,"[11, 0, 243]",243,l,1.8351825708523393,colour,0.5
037,63,0,1,12,47,597,1160.875717193354,1161.4393095248379,"[59, 0, 195]",195,l,0.040503508411347866,colour,0.5
037,63,0,1,12,48,598,1161.9539180579595,1163.2793147396296,"[32, 0, 222]",222,l,0.8021046342328191,colour,0.5
037,63,0,1,12,49,599,1163.797615183983,1165.0313099627383,"[42, 0, 212]",212,l,0.7107245032675564,colour,0.5
037,63,0,1,12,50,600,1165.5476435408928,1167.4393083434552,"[96, 0, 158]",158,l,1.3684208039194345,colour,0.5
037,63,0,1,13,1,601,1172.2499448615126,1173.4873067396693,"[54, 0, 200]",200,l,0.7132573262788355,colour,0.5
037,63,0,1,13,2,602,1174.0006959256716,1175.775326655712,"[92, 0, 162]",162,l,1.251578928437084,colour,0.5
037,63,0,1,13,3,603,1176.2819810761139,1177.3992707547732,"[44, 0, 210]",210,l,0.5939905415289104,colour,0.5
037,63,0,1,13,4,604,1177.9070114023052,1179.4552870662883,"[75, 0, 179]",179,l,1.0253601325675845,colour,0.5
037,63,0,1,13,5,605,1179.9707360663451,1180.583256664686,"[63, 0, 191]",191,l,0.08919428614899516,colour,0.5
037,63,0,1,13,6,606,1181.0957419741899,1182.2713208487257,"[1, 0, 253]",253,l,0.6527877990156412,colour,0.5
037,63,0,1,13,7,607,1182.7832339000888,1184.3592674308456,"[67, 0, 187]",187,l,1.0530096921138465,colour,0.5
037,63,0,1,13,8,608,1184.8769081835635,1186.047290654853,"[41, 0, 213]",213,l,0.6470459192059934,colour,0.5
037,63,0,1,13,9,609,1186.5644442201592,1187.9913184540346,"[68, 0, 186]",186,l,0.9036444136872888,colour,0.5
037,63,0,1,13,10,610,1188.5018353220075,1189.1752795516513,"[50, 0, 204]",204,l,0.15052633546292782,colour,0.5
037,63,0,1,13,11,611,1189.6932834303007,1190.2553299167193,"[51, 0, 203]",203,l,0.038685121573507786,colour,0.5
037,63,0,1,13,12,612,1190.7714185225777,1191.9913034881465,"[8, 0, 246]",246,l,0.6968855452723801,colour,0.5
037,63,0,1,13,13,613,1192.5060104825534,1193.7195990332402,"[19, 0, 235]",235,l,0.6905103614553809,colour,0.5
037,63,0,1,13,14,614,1194.24022080563,1195.5752438693307,"[82, 0, 172]",172,l,0.8117660679854453,colour,0.5
037,63,0,1,13,15,615,1196.083970313426,1197.7192496918142,"[81, 0, 173]",173,l,1.1120267151854932,colour,0.5
037,63,0,1,13,16,616,1198.2401684243232,1199.6152794887312,"[25, 0, 229]",229,l,0.851806019898504,colour,0.5
037,63,0,1,13,17,617,1200.130719430279,1200.7193946270272,"[40, 0, 214]",214,l,0.0652866568416357,colour,0.5
037,63,0,1,13,18,618,1201.2401640918106,1202.3272611480206,"[86, 0, 168]",168,l,0.5637278147041798,colour,0.5
037,63,0,1,13,19,619,1202.833968738094,1204.0712601179257,"[89, 0, 165]",165,l,0.713979640044272,colour,0.5
037,63,0,1,13,20,620,1204.585080171004,1205.7512725158595,"[55, 0, 199]",199,l,0.6428514602594078,colour,0.5
037,63,0,1,13,21,621,1206.272536257282,1206.919448663015,"[56, 0, 198]",198,l,0.1236227210611105,colour,0.5
037,63,0,1,13,22,622,1207.428802503273,1208.5993031286635,"[15, 0, 239]",239,l,0.6477359370328486,colour,0.5
037,63,0,1,13,23,623,1209.1163058509119,1209.8473165701143,"[38, 0, 216]",216,l,0.2078911755234003,colour,0.5
037,63,0,1,13,24,624,1210.3662841897458,1211.6872552246787,"[17, 0, 237]",237,l,0.7976277871057391,colour,0.5
037,63,0,1,13,25,625,1212.1943763527088,1213.77529672347,"[26, 0, 228]",228,l,1.0576192643493414,colour,0.5
037,63,0,1,13,26,626,1214.2893645060249,1215.7192528424785,"[43, 0, 211]",211,l,0.906894430052489,colour,0.5
037,63,0,1,13,27,627,1216.2268989672884,1217.6232702285051,"[87, 0, 167]",167,l,0.8731319885700941,colour,0.5
037,63,0,1,13,28,628,1218.1331226779148,1219.2872806671076,"[24, 0, 230]",230,l,0.6311617195606232,colour,0.5
037,63,0,1,13,29,629,1219.8049950688146,1221.3992522438057,"[2, 0, 252]",252,l,1.0709639457054436,colour,0.5
037,63,0,1,13,30,630,1221.9144464256242,1223.8554183742963,"[31, 0, 223]",223,l,1.4176669036969543,colour,0.5
037,63,0,1,13,31,631,1224.368612606544,1226.1994435745291,"[80, 0, 174]",174,l,1.3073455416597426,colour,0.5
037,63,0,1,13,32,632,1226.7124452157877,1228.559315558523,"[79, 0, 175]",175,l,1.3236424918286502,colour,0.5
037,63,0,1,13,33,633,1229.0718682156876,1231.0872632591054,"[84, 0, 170]",170,l,1.4921624660491943,colour,0.5
037,63,0,1,13,34,634,1231.603010400664,1232.3192656817846,"[49, 0, 205]",205,l,0.1911507546901703,colour,0.5
037,63,0,1,13,35,635,1232.839121030178,1233.3752524550073,"[94, 0, 160]",160,l,0.0128169278614223,colour,0.5
037,63,0,1,13,36,636,1233.8859701841138,1234.8152638138272,"[36, 0, 218]",218,l,0.40588894207030535,colour,0.5
037,63,0,1,13,37,637,1235.3235034639947,1235.8632531515323,"[59, 0, 195]",195,l,0.017206734512001276,colour,0.5
037,63,0,1,13,38,638,1236.3703707349487,1236.9992343634367,"[22, 0, 232]",232,a,0.10566925443708897,colour,0.5
037,63,0,1,13,39,639,1237.4994742153212,1238.1752645857632,"[62, 0, 192]",192,l,0.15256251953542233,colour,0.5
037,63,0,1,13,40,640,1238.6869606277905,1239.9832583973184,"[33, 0, 221]",221,l,0.7729399492964149,colour,0.5
037,63,0,1,13,41,641,1240.4993336126208,1242.5432683066465,"[98, 0, 156]",156,l,1.5205229171551764,colour,0.5
037,63,0,1,13,42,642,1243.0618932801299,1244.1760585787706,"[37, 0, 217]",217,l,0.5910524507053196,colour,0.5
037,63,0,1,13,43,643,1244.688022436574,1245.3592764893547,"[47, 0, 207]",207,l,0.14791631884872913,colour,0.5
037,63,0,1,13,44,644,1245.8756242454983,1247.80724629201,"[42, 0, 212]",212,l,1.408265014179051,colour,0.5
037,63,0,1,13,45,645,1248.3287443718873,1250.2712578335777,"[10, 0, 244]",244,l,1.419356503058225,colour,0.5
037,63,0,1,13,46,646,1250.7818916733377,1252.1992702819407,"[76, 0, 178]",178,l,0.8942637913860381,colour,0.5
037,63,0,1,13,47,647,1252.71941865189,1254.0072195893154,"[0, 0, 254]",254,l,0.7645951421000063,colour,0.5
037,63,0,1,13,48,648,1254.5175139340572,1256.2792462101206,"[69, 0, 185]",185,l,1.2386706280522048,colour,0.5
037,63,0,1,13,49,649,1256.798647847958,1257.4232457312755,"[48, 0, 206]",206,l,0.10126290610060096,colour,0.5
037,63,0,1,13,50,650,1257.9393099187873,1259.2872479776852,"[88, 0, 166]",166,l,0.8246168666519225,colour,0.5
037,63,0,1,14,1,651,1264.0947593282908,1265.0952142206952,"[1, 0, 253]",253,a,0.4765291465446353,colour,0.5
037,63,0,1,14,2,652,1265.6112476880662,1266.1752232317813,"[61, 0, 193]",193,l,0.040878843516111374,colour,0.5
037,63,0,1,14,3,653,1266.6892555681989,1267.3271993142553,"[16, 0, 238]",238,a,0.11457411060109735,colour,0.5
037,63,0,1,14,4,654,1267.8455840419047,1269.2392125600018,"[73, 0, 181]",181,l,0.8705593873746693,colour,0.5
037,63,0,1,14,5,655,1269.7531767608598,1270.967299760785,"[54, 0, 200]",200,l,0.6909290198236704,colour,0.5
037,63,0,1,14,6,656,1271.48753477633,1272.7032607290894,"[42, 0, 212]",212,l,0.6923606493510306,colour,0.5
037,63,0,1,14,7,657,1273.2226147116162,1274.4632774121128,"[78, 0, 176]",176,l,0.718022074084729,colour,0.5
037,63,0,1,14,8,658,1274.9718892471865,1276.2392476121895,"[77, 0, 177]",177,l,0.7440186617895961,colour,0.5
037,63,0,1,14,9,659,1276.7531472225673,1278.3672774690203,"[65, 0, 189]",189,l,1.0908984569832683,colour,0.5
037,63,0,1,14,10,660,1278.8781090197153,1279.943277128972,"[39, 0, 215]",215,l,0.542002092115581,colour,0.5
037,63,0,1,14,11,661,1280.456243718043,1281.975229060743,"[66, 0, 188]",188,l,0.995887067168951,colour,0.5
037,63,0,1,14,12,662,1282.4875824316405,1284.1112142112106,"[75, 0, 179]",179,l,1.1007611467503011,colour,0.5
037,63,0,1,14,13,663,1284.629353178665,1286.391185885761,"[32, 0, 222]",222,l,1.238925052806735,colour,0.5
037,63,0,1,14,14,664,1286.9015554548241,1287.543270275928,"[45, 0, 209]",209,l,0.11810848396271467,colour,0.5
037,63,0,1,14,15,665,1288.0578665994108,1288.6552123143338,"[28, 0, 226]",226,a,0.07400207314640284,colour,0.5
037,63,0,1,14,16,666,1289.1671954700723,1290.487229152117,"[99, 0, 155]",155,l,0.7967313942499459,colour,0.5
037,63,0,1,14,17,667,1290.9953510425985,1292.679211315699,"[87, 0, 167]",167,l,1.1606993759050965,colour,0.5
037,63,0,1,14,18,668,1293.1984896794893,1294.2872208026238,"[40, 0, 214]",214,l,0.5654733399860561,colour,0.5
037,63,0,1,14,19,669,1294.7933411682025,1296.287196777761,"[72, 0, 182]",182,l,0.970590737182647,colour,0.5
037,63,0,1,14,20,670,1296.7934175743721,1297.8952121725306,"[26, 0, 228]",228,l,0.5785120027139783,colour,0.5
037,63,0,1,14,21,671,1298.4026976078749,1298.9432546794415,"[41, 0, 213]",213,a,0.01711890660226345,colour,0.5
037,63,0,1,14,22,672,1299.4496290758252,1300.0392002719454,"[24, 0, 230]",230,a,0.066219677682966,colour,0.5
037,63,0,1,14,23,673,1300.5589154111221,1301.1751649426296,"[7, 0, 247]",247,a,0.09283814812079072,colour,0.5
037,63,0,1,14,24,674,1301.6840922478586,1302.2632178626955,"[55, 0, 199]",199,l,0.05588634219020605,colour,0.5
037,63,0,1,14,25,675,1302.7777669248171,1304.199246651493,"[5, 0, 249]",249,l,0.8985358383506536,colour,0.5
037,63,0,1,14,26,676,1304.7165609057993,1306.855188368354,"[89, 0, 165]",165,l,1.6152873653918505,colour,0.5
037,63,0,1,14,27,677,1307.372769256588,1308.5192248006351,"[46, 0, 208]",208,l,0.6231095395050943,colour,0.5
037,63,0,1,14,28,678,1309.0290402290411,1310.1752543454058,"[90, 0, 164]",164,l,0.6230638534761965,colour,0.5
037,63,0,1,14,29,679,1310.685272604227,1311.9992520865053,"[69, 0, 185]",185,l,0.7906275698915124,colour,0.5
037,63,0,1,14,30,680,1312.5134057272226,1313.7432045824826,"[20, 0, 234]",234,l,0.705947152338922,colour,0.5
037,63,0,1,14,31,681,1314.2646372835152,1315.3111930219457,"[0, 0, 254]",254,l,0.5232321829535067,colour,0.5
037,63,0,1,14,32,682,1315.8271225141361,1316.4233607342467,"[47, 0, 207]",207,l,0.07319035660475492,colour,0.5
037,63,0,1,14,33,683,1316.9365309420973,1318.2632391303778,"[63, 0, 191]",191,l,0.8034882145002484,colour,0.5
037,63,0,1,14,34,684,1318.780338739045,1319.3751874705777,"[51, 0, 203]",203,l,0.07175321318209171,colour,0.5
037,63,0,1,14,35,685,1319.889624286443,1321.1912141637877,"[3, 0, 251]",251,l,0.7783813248388469,colour,0.5
037,63,0,1,14,36,686,1321.702115031425,1322.2472080262378,"[50, 0, 204]",204,l,0.021730842534452677,colour,0.5
037,63,0,1,14,37,687,1322.7645998680964,1324.3512057983316,"[83, 0, 171]",171,l,1.0631614639423788,colour,0.5
037,63,0,1,14,38,688,1324.858310779091,1326.6232020934112,"[85, 0, 169]",169,l,1.241545703727752,colour,0.5
037,63,0,1,14,39,689,1327.1396156218834,1328.6471680114046,"[14, 0, 240]",240,l,0.9842721568420529,colour,0.5
037,63,0,1,14,40,690,1329.1568597718142,1330.9512013085186,"[57, 0, 197]",197,l,1.2710821782238781,colour,0.5
037,63,0,1,14,41,691,1331.4693379132077,1332.0792280146852,"[49, 0, 205]",205,l,0.0872896471992135,colour,0.5
037,63,0,1,14,42,692,1332.5943489409983,1334.295205634553,"[33, 0, 221]",221,a,1.1776705901138484,colour,0.5
037,63,0,1,14,43,693,1334.8076330488548,1335.3511931956746,"[23, 0, 231]",231,a,0.020264160353690386,colour,0.5
037,63,0,1,14,44,694,1335.8701092209667,1337.7672303649597,"[76, 0, 178]",178,l,1.3740106588229537,colour,0.5
037,63,0,1,14,45,695,1338.2763813748024,1339.4951927163638,"[35, 0, 219]",219,l,0.6954964506439865,colour,0.5
037,63,0,1,14,46,696,1340.001340651419,1341.7991791460663,"[96, 0, 158]",158,l,1.2747965389862657,colour,0.5
037,63,0,1,14,47,697,1342.3138412423432,1343.3991427547298,"[30, 0, 224]",224,l,0.5619724434800446,colour,0.5
037,63,0,1,14,48,698,1343.9075828730129,1345.6151534579694,"[88, 0, 166]",166,l,1.1842675097286701,colour,0.5
037,63,0,1,14,49,699,1346.1263843681663,1347.191185806878,"[6, 0, 248]",248,l,0.5418603075668216,colour,0.5
037,63,0,1,14,50,700,1347.704492285382,1349.2791914655827,"[91, 0, 163]",163,l,1.0514220986515284,colour,0.5
037,63,0,1,15,1,701,1354.5017435555346,1356.5431997776031,"[85, 0, 169]",169,l,1.5173867223784328,colour,0.5
037,63,0,1,15,2,702,1357.0494178170338,1357.7191626518033,"[51, 0, 203]",203,l,0.14645830122753978,colour,0.5
037,63,0,1,15,3,703,1358.2368514537811,1358.8873939369805,"[43, 0, 211]",211,l,0.1272275922819972,colour,0.5
037,63,0,1,15,4,704,1359.4087974936701,1359.975210155826,"[9, 0, 245]",245,a,0.04314030660316348,colour,0.5
037,63,0,1,15,5,705,1360.4868959584273,1361.0231545954011,"[26, 0, 228]",228,a,0.013252521399408579,colour,0.5
037,63,0,1,15,6,706,1361.5338557828218,1363.0311870831065,"[87, 0, 167]",167,l,0.9741077814251184,colour,0.5
037,63,0,1,15,7,707,1363.5495674782433,1365.6071914690547,"[83, 0, 171]",171,l,1.5350117213092744,colour,0.5
037,63,0,1,15,8,708,1366.1274737459607,1366.7191701349802,"[58, 0, 196]",196,l,0.06841694423928857,colour,0.5
037,63,0,1,15,9,709,1367.236928647384,1367.8711568512954,"[61, 0, 193]",193,l,0.1110263466835022,colour,0.5
037,63,0,1,15,10,710,1368.377534004394,1368.9512020964175,"[50, 0, 204]",204,l,0.05045087495818734,colour,0.5
037,63,0,1,15,11,711,1369.471188201569,1370.7031555720605,"[30, 0, 224]",224,l,0.7085607135668397,colour,0.5
037,63,0,1,15,12,712,1371.2213035984896,1372.4071831190959,"[27, 0, 227]",227,l,0.6626469437032938,colour,0.5
037,63,0,1,15,13,713,1372.9243272324093,1373.455281552393,"[5, 0, 249]",249,a,0.006994309835135937,colour,0.5
037,63,0,1,15,14,714,1373.9733374188654,1375.6311554177664,"[19, 0, 235]",235,l,1.1348441787995398,colour,0.5
037,63,0,1,15,15,715,1376.14526888635,1377.4231744450517,"[77, 0, 177]",177,l,0.754862027708441,colour,0.5
037,63,0,1,15,16,716,1377.9420959847048,1379.3431626772508,"[68, 0, 186]",186,l,0.8777714939787984,colour,0.5
037,63,0,1,15,17,717,1379.864009335637,1381.4471588740125,"[79, 0, 175]",175,l,1.0598539458587766,colour,0.5
037,63,0,1,15,18,718,1381.9577552988194,1383.9992056125775,"[88, 0, 166]",166,l,1.5231073340401053,colour,0.5
037,63,0,1,15,19,719,1384.5153017016128,1387.0311543936841,"[91, 0, 163]",163,l,1.9928453951142728,colour,0.5
037,63,0,1,15,20,720,1387.5465805507265,1389.479139950592,"[97, 0, 157]",157,l,1.4096801024861634,colour,0.5
037,63,0,1,15,21,721,1389.9852843410335,1392.087135259062,"[75, 0, 179]",179,l,1.5783981811255217,colour,0.5
037,63,0,1,15,22,722,1392.5945939132944,1393.8711592145264,"[36, 0, 218]",218,l,0.7535264967009425,colour,0.5
037,63,0,1,15,23,723,1394.3914978117682,1395.0792685807683,"[54, 0, 200]",200,l,0.164469663053751,colour,0.5
037,63,0,1,15,24,724,1395.5946427499875,1397.3831986906007,"[80, 0, 174]",174,l,1.2655344647355378,colour,0.5
037,63,0,1,15,25,725,1397.8915308946744,1399.6151900854893,"[86, 0, 168]",168,l,1.2003781707026064,colour,0.5
037,63,0,1,15,26,726,1400.1265163067728,1401.4391657710075,"[62, 0, 192]",192,l,0.7893034596927464,colour,0.5
037,63,0,1,15,27,727,1401.9553906475194,1403.151120649185,"[8, 0, 246]",246,l,0.6731082792393863,colour,0.5
037,63,0,1,15,28,728,1403.6577801895328,1404.8231730274856,"[23, 0, 231]",231,l,0.6419826364144683,colour,0.5
037,63,0,1,15,29,729,1405.3296116204,1406.69513726281,"[67, 0, 187]",187,l,0.8423056681640446,colour,0.5
037,63,0,1,15,30,730,1407.204630525317,1408.7271478781477,"[3, 0, 251]",251,l,0.9995108437724411,colour,0.5
037,63,0,1,15,31,731,1409.2358684143983,1409.8631897424348,"[48, 0, 206]",206,l,0.10398162482306361,colour,0.5
037,63,0,1,15,32,732,1410.3764847991988,1410.975169589743,"[41, 0, 213]",213,l,0.07571884756907821,colour,0.5
037,63,0,1,15,33,733,1411.4858589619398,1412.535170440562,"[20, 0, 234]",234,l,0.5259241200983524,colour,0.5
037,63,0,1,15,34,734,1413.0483693988062,1413.5751926694065,"[16, 0, 238]",238,a,0.0014343871735036373,colour,0.5
037,63,0,1,15,35,735,1414.0973496530205,1414.6551512680016,"[42, 0, 212]",212,l,0.034548557829111814,colour,0.5
037,63,0,1,15,36,736,1415.1754906531423,1416.4071429469623,"[37, 0, 217]",217,l,0.7084228675812483,colour,0.5
037,63,0,1,15,37,737,1416.9254158223048,1417.943177879788,"[33, 0, 221]",221,l,0.4943833635188639,colour,0.5
037,63,0,1,15,38,738,1418.4566450468265,1419.9111156710424,"[96, 0, 158]",158,l,0.9311557332985103,colour,0.5
037,63,0,1,15,39,739,1420.4254741114564,1421.087149437517,"[40, 0, 214]",214,l,0.13914300687611103,colour,0.5
037,63,0,1,15,40,740,1421.5973669821396,1422.7271746592596,"[0, 0, 254]",254,l,0.6065439861267805,colour,0.5
037,63,0,1,15,41,741,1423.2379684005864,1425.1431716568768,"[76, 0, 178]",178,l,1.3818907281383872,colour,0.5
037,63,0,1,15,42,742,1425.661149147898,1426.9191048354842,"[6, 0, 248]",248,l,0.7347514675930142,colour,0.5
037,63,0,1,15,43,743,1427.4266946399584,1429.0711663826369,"[57, 0, 197]",197,l,1.121916580479592,colour,0.5
037,63,0,1,15,44,744,1429.5830239015631,1430.855125353206,"[13, 0, 241]",241,l,0.7491071512922645,colour,0.5
037,63,0,1,15,45,745,1431.3658513529226,1432.7671594726853,"[22, 0, 232]",232,l,0.8779416349716485,colour,0.5
037,63,0,1,15,46,746,1433.2877643099055,1434.599106206093,"[2, 0, 252]",252,l,0.787396457977593,colour,0.5
037,63,0,1,15,47,747,1435.1159084606916,1436.6711890678853,"[82, 0, 172]",172,l,1.0319743808358908,colour,0.5
037,63,0,1,15,48,748,1437.1783944792114,1437.7111569456756,"[66, 0, 188]",188,l,0.009605507832020521,colour,0.5
037,63,0,1,15,49,749,1438.2252574176528,1439.3911142055877,"[7, 0, 247]",247,l,0.6425391403026879,colour,0.5
037,63,0,1,15,50,750,1439.9127012942918,1441.31913019903,"[71, 0, 183]",183,l,0.8831616691313684,colour,0.5
037,63,0,1,16,1,751,1448.631327922456,1449.5991152641363,"[18, 0, 236]",236,a,0.44367176247760653,colour,0.5
037,63,0,1,16,2,752,1450.1165173463523,1450.703124458436,"[45, 0, 209]",209,l,0.06315595051273704,colour,0.5
037,63,0,1,16,3,753,1451.2103074202314,1452.6951368693262,"[67, 0, 187]",187,l,0.9615381890907884,colour,0.5
037,63,0,1,16,4,754,1453.2102160481736,1455.343113840092,"[71, 0, 183]",183,l,1.609522643033415,colour,0.5
037,63,0,1,16,5,755,1455.852096284274,1457.4392295740545,"[63, 0, 191]",191,l,1.0640551005490124,colour,0.5
037,63,0,1,16,6,756,1457.9459592192434,1458.6471731313504,"[43, 0, 211]",211,l,0.17817904567345977,colour,0.5
037,63,0,1,16,7,757,1459.1646342901513,1460.5431214021519,"[97, 0, 157]",157,l,0.8550867564044893,colour,0.5
037,63,0,1,16,8,758,1461.0553373210132,1462.4391169343144,"[33, 0, 221]",221,l,0.8604686609469354,colour,0.5
037,63,0,1,16,9,759,1462.9459785181098,1464.1111452882178,"[11, 0, 243]",243,l,0.6420988207682967,colour,0.5
037,63,0,1,16,10,760,1464.619076163508,1465.7591435266659,"[2, 0, 252]",252,l,0.6165870572440326,colour,0.5
037,63,0,1,16,11,761,1466.2753723417409,1467.695099059958,"[84, 0, 170]",170,l,0.8963306951336563,colour,0.5
037,63,0,1,16,12,762,1468.2128347293474,1470.303244030103,"[77, 0, 177]",177,l,1.5671460037119687,colour,0.5
037,63,0,1,16,13,763,1470.822299871128,1472.0631382269785,"[93, 0, 161]",161,l,0.7178798955865204,colour,0.5
037,63,0,1,16,14,764,1472.572247883305,1474.0311319446191,"[78, 0, 176]",176,l,0.935556173324585,colour,0.5
037,63,0,1,16,15,765,1474.5423931810074,1475.6232005176134,"[30, 0, 224]",224,l,0.5575011102482677,colour,0.5
037,63,0,1,16,16,766,1476.1360895195976,1477.9431254980154,"[75, 0, 179]",179,l,1.283737235236913,colour,0.5
037,63,0,1,16,17,767,1478.4642387903295,1479.7110939305276,"[40, 0, 214]",214,l,0.7236485569737852,colour,0.5
037,63,0,1,16,18,768,1480.219363907352,1481.4631005753763,"[64, 0, 190]",190,l,0.7204832173883915,colour,0.5
037,63,0,1,16,19,769,1481.9692997103557,1482.5110473777167,"[21, 0, 233]",233,a,0.018753367010504007,colour,0.5
037,63,0,1,16,20,770,1483.0318365348503,1484.9110798309557,"[98, 0, 156]",156,l,1.356258842162788,colour,0.5
037,63,0,1,16,21,771,1485.422488365788,1486.8472346500494,"[65, 0, 189]",189,l,0.9014920457266271,colour,0.5
037,63,0,1,16,22,772,1487.3599964394234,1489.37509294739,"[87, 0, 167]",167,l,1.4918619617819786,colour,0.5
037,63,0,1,16,23,773,1489.892510783393,1490.9911034144461,"[6, 0, 248]",248,l,0.5755916354246438,colour,0.5
037,63,0,1,16,24,774,1491.501834928058,1492.7190653719008,"[38, 0, 216]",216,l,0.693819060921669,colour,0.5
037,63,0,1,16,25,775,1493.2362252385356,1494.5351125453599,"[74, 0, 180]",180,l,0.775560206733644,colour,0.5
037,63,0,1,16,26,776,1495.0487368572503,1496.6311491164379,"[39, 0, 215]",215,l,1.0590347470715642,colour,0.5
037,63,0,1,16,27,777,1497.1425127526745,1498.3591327355243,"[81, 0, 173]",173,l,0.6933980397880077,colour,0.5
037,63,0,1,16,28,778,1498.8768680109642,1499.5350633147173,"[48, 0, 206]",206,l,0.1336524011567235,colour,0.5
037,63,0,1,16,29,779,1500.0500960196368,1501.3431473169476,"[69, 0, 185]",185,l,0.7697064741514623,colour,0.5
037,63,0,1,16,30,780,1501.862555256579,1503.6470734882168,"[47, 0, 207]",207,l,1.26130810379982,colour,0.5
037,63,0,1,16,31,781,1504.1594753023237,1505.3751094890758,"[29, 0, 225]",225,l,0.6924090925604105,colour,0.5
037,63,0,1,16,32,782,1505.8937829057686,1507.6470667929389,"[72, 0, 182]",182,l,1.2302671377547085,colour,0.5
037,63,0,1,16,33,783,1508.1593799917027,1509.3511167895049,"[31, 0, 223]",223,l,0.6686975988559425,colour,0.5
037,63,0,1,16,34,784,1509.8638376188464,1511.071040745359,"[9, 0, 245]",245,l,0.6837216387502849,colour,0.5
037,63,0,1,16,35,785,1511.582615877036,1512.9511465639807,"[73, 0, 181]",181,l,0.8451165468432009,colour,0.5
037,63,0,1,16,36,786,1513.4577356064692,1514.7830897527747,"[60, 0, 194]",194,l,0.8020873046480119,colour,0.5
037,63,0,1,16,37,787,1515.3013705047779,1515.8311039027758,"[17, 0, 237]",237,a,0.006457103881984949,colour,0.5
037,63,0,1,16,38,788,1516.3482629819773,1517.287084925454,"[95, 0, 159]",159,l,0.41581937251612544,colour,0.5
037,63,0,1,16,39,789,1517.80132718198,1518.959093193058,"[25, 0, 229]",229,l,0.6344215818680823,colour,0.5
037,63,0,1,16,40,790,1519.474500445649,1520.6791179738939,"[4, 0, 250]",250,l,0.6815235847607255,colour,0.5
037,63,0,1,16,41,791,1521.1933397501707,1522.4550306727178,"[89, 0, 165]",165,l,0.7386891390196979,colour,0.5
037,63,0,1,16,42,792,1522.974493750371,1524.3911110549234,"[90, 0, 164]",164,l,0.8932004077360034,colour,0.5
037,63,0,1,16,43,793,1524.9120805934072,1526.111128746532,"[1, 0, 253]",253,l,0.6757828867994249,colour,0.5
037,63,0,1,16,44,794,1526.6307572396472,1527.2630697768182,"[32, 0, 222]",222,l,0.10897677252069116,colour,0.5
037,63,0,1,16,45,795,1527.7639074870385,1528.359109104611,"[61, 0, 193]",193,l,0.07238257862627506,colour,0.5
037,63,0,1,16,46,796,1528.8734545484185,1530.2550790370442,"[10, 0, 244]",244,l,0.8589480221271515,colour,0.5
037,63,0,1,16,47,797,1530.7637251364067,1531.9831871110946,"[19, 0, 235]",235,l,0.6961691393516958,colour,0.5
037,63,0,1,16,48,798,1532.4981308071874,1533.095113396179,"[51, 0, 203]",203,l,0.0736610027961433,colour,0.5
037,63,0,1,16,49,799,1533.607468736358,1535.3030545902438,"[99, 0, 155]",155,l,1.1722882920876145,colour,0.5
037,63,0,1,16,50,800,1535.8105735024437,1537.0151000525802,"[42, 0, 212]",212,l,0.6812526192516088,colour,0.5
