id,age,condition,counterbalance,block,trialinblock,trial,tstart,tend,trialstim,trialintensity,response,RT,trialtype,colourfreq
101,23,1,1,Practice,1,NA,5.119945853948593e-06,0.9977617752738297,"[83, 0, 171]",171,l,0.46335857338272035,colour,0.5
101,23,1,1,Practice,2,NA,1.5151823544874787,2.0458369336556643,"[45, 0, 209]",209,a,0.006953737931326032,colour,0.5
101,23,1,1,Practice,3,NA,2.562407987890765,22.645704759052023,"[53, 0, 201]",201,a,19.560254045994952,colour,0.5
101,23,1,1,Practice,4,NA,23.15681986999698,24.41363910981454,"[94, 0, 160]",160,l,0.7337769086007029,colour,0.5
101,23,1,1,Practice,5,NA,24.9330017415341,25.461653615813702,"[93, 0, 161]",161,l,0.006654415279626846,colour,0.5
101,23,1,1,Practice,6,NA,25.97917738254182,26.797677177237347,"[31, 0, 223]",223,a,0.30417169141583145,colour,0.5
101,23,1,1,Practice,7,NA,27.314804735360667,28.141637121560052,"[23, 0, 231]",231,a,0.3034403200726956,colour,0.5
101,23,1,1,Practice,8,NA,28.65256239892915,29.43764872592874,"[46, 0, 208]",208,a,0.2618120205588639,colour,0.5
101,23,1,1,Practice,9,NA,29.949952856637537,30.66967380908318,"[10, 0, 244]",244,a,0.19636196922510862,colour,0.5
101,23,1,1,Practice,10,NA,31.1844213581644,31.77362817665562,"[66, 0, 188]",188,l,0.057450259337201715,colour,0.5
101,23,1,1,1,1,1,4.452191475080326,5.447967087151483,"[80, 0, 174]",174,l,0.47801475040614605,colour,0.5
101,23,1,1,1,2,2,5.96366774244234,6.920005624182522,"[86, 0, 168]",168,l,0.43927097599953413,colour,0.5
101,23,1,1,1,3,3,7.439422606490552,8.215968785341829,"[81, 0, 173]",173,l,0.2573383282870054,colour,0.5
101,23,1,1,1,4,4,8.736341237323359,9.527963826199993,"[16, 0, 238]",238,a,0.27310751285403967,colour,0.5
101,23,1,1,1,5,5,10.036765093915164,10.79204203444533,"[31, 0, 223]",223,a,0.22137707332149148,colour,0.5
101,23,1,1,1,6,6,11.307058973703533,12.06398888421245,"[64, 0, 190]",190,l,0.23915487038902938,colour,0.5
101,23,1,1,1,7,7,12.577867609681562,13.359928808407858,"[17, 0, 237]",237,a,0.2635323381982744,colour,0.5
101,23,1,1,1,8,8,13.87993065174669,15.167947977781296,"[70, 0, 184]",184,l,0.7649679055903107,colour,0.5
101,23,1,1,1,9,9,15.68259155144915,16.399947067257017,"[61, 0, 193]",193,l,0.19415800948627293,colour,0.5
101,23,1,1,1,10,10,16.91717978194356,17.695928739150986,"[53, 0, 201]",201,a,0.25977190025150776,colour,0.5
101,23,1,1,1,11,11,18.211458859266713,19.04797748476267,"[23, 0, 231]",231,a,0.3181169768795371,colour,0.5
101,23,1,1,1,12,12,19.56415311782621,20.151922793593258,"[38, 0, 216]",216,a,0.06490654428489506,colour,0.5
101,23,1,1,1,13,13,20.657839930150658,21.415914356010035,"[92, 0, 162]",162,l,0.23462052596732974,colour,0.5
101,23,1,1,1,14,14,21.923512819223106,22.711947621777654,"[60, 0, 194]",194,a,0.26283917017281055,colour,0.5
101,23,1,1,1,15,15,23.22395636816509,24.26391673157923,"[69, 0, 185]",185,l,0.5180601843167096,colour,0.5
101,23,1,1,1,16,16,24.770707023795694,25.631959941238165,"[7, 0, 247]",247,a,0.3415775722824037,colour,0.5
101,23,1,1,1,17,17,26.147547168890014,26.9602003255859,"[13, 0, 241]",241,a,0.289860523538664,colour,0.5
101,23,1,1,1,18,18,27.469580940436572,28.263902947073802,"[98, 0, 156]",156,l,0.27080036513507366,colour,0.5
101,23,1,1,1,19,19,28.78361058747396,29.695922831539065,"[56, 0, 198]",198,a,0.3989849023055285,colour,0.5
101,23,1,1,1,20,20,30.203724913066253,31.087905158754438,"[59, 0, 195]",195,a,0.3613947017583996,colour,0.5
101,23,1,1,1,21,21,31.59576749871485,32.223935494432226,"[39, 0, 215]",215,a,0.10532495030201972,colour,0.5
101,23,1,1,1,22,22,32.73791386280209,33.680194213055074,"[58, 0, 196]",196,a,0.41955191385932267,colour,0.5
101,23,1,1,1,23,23,34.19115296727978,34.839965956052765,"[83, 0, 171]",171,l,0.12856499198824167,colour,0.5
101,23,1,1,1,24,24,35.36148371105082,36.1679302547127,"[34, 0, 220]",220,a,0.2835235476959497,colour,0.5
101,23,1,1,1,25,25,36.68210987816565,37.463926105061546,"[5, 0, 249]",249,a,0.2637568302452564,colour,0.5
101,23,1,1,1,26,26,37.98123207502067,38.744143712799996,"[3, 0, 251]",251,a,0.24008316453546286,colour,0.5
101,23,1,1,1,27,27,39.26378203649074,40.01595901791006,"[94, 0, 160]",160,l,0.23351697041653097,colour,0.5
101,23,1,1,1,28,28,40.53337329556234,41.25592481647618,"[71, 0, 183]",183,l,0.20253668073564768,colour,0.5
101,23,1,1,1,29,29,41.77240725536831,42.543919693212956,"[54, 0, 200]",200,a,0.2535558349918574,colour,0.5
101,23,1,1,1,30,30,43.058413605671376,43.847915729740635,"[2, 0, 252]",252,a,0.2588412433397025,colour,0.5
101,23,1,1,1,31,31,44.36524375504814,45.103914589155465,"[22, 0, 232]",232,a,0.2254332893062383,colour,0.5
101,23,1,1,1,32,32,45.61361933872104,46.25591457658447,"[90, 0, 164]",164,l,0.13210920873098075,colour,0.5
101,23,1,1,1,33,33,46.75991683546454,47.847902338951826,"[41, 0, 213]",213,l,0.5677560174372047,colour,0.5
101,23,1,1,1,34,34,48.36889785458334,49.2638974331785,"[45, 0, 209]",209,a,0.37781530688516796,colour,0.5
101,23,1,1,1,35,35,49.77334460779093,50.52791301999241,"[79, 0, 175]",175,l,0.2352861249819398,colour,0.5
101,23,1,1,1,36,36,51.03485376131721,51.7678874831181,"[67, 0, 187]",187,l,0.20778821827843785,colour,0.5
101,23,1,1,1,37,37,52.28682318609208,52.952107979916036,"[43, 0, 211]",211,a,0.15365532063879073,colour,0.5
101,23,1,1,1,38,38,53.45858083246276,54.20801231637597,"[51, 0, 203]",203,a,0.2232824983075261,colour,0.5
101,23,1,1,1,39,39,54.72684483183548,55.50396169302985,"[1, 0, 253]",253,a,0.25699095660820603,colour,0.5
101,23,1,1,1,40,40,56.01712165027857,56.647929592989385,"[8, 0, 246]",246,a,0.11224678670987487,colour,0.5
101,23,1,1,1,41,41,57.1705639003776,58.303903876570985,"[18, 0, 236]",236,a,0.6102598358411342,colour,0.5
101,23,1,1,1,42,42,58.81784049724229,59.47192589729093,"[99, 0, 155]",155,l,0.13110293331556022,colour,0.5
101,23,1,1,1,43,43,59.98302131565288,60.679850385989994,"[12, 0, 242]",242,a,0.18583565764129162,colour,0.5
101,23,1,1,1,44,44,61.18950117868371,62.175875696120784,"[87, 0, 167]",167,l,0.4633365182671696,colour,0.5
101,23,1,1,1,45,45,62.69501974340528,63.623862475389615,"[55, 0, 199]",199,l,0.40548532409593463,colour,0.5
101,23,1,1,1,46,46,64.13261884497479,64.83190196705982,"[28, 0, 226]",226,a,0.1812008824199438,colour,0.5
101,23,1,1,1,47,47,65.34579447726719,66.03993043117225,"[37, 0, 217]",217,a,0.17472369759343565,colour,0.5
101,23,1,1,1,48,48,66.54422019748017,67.23188369278796,"[49, 0, 205]",205,a,0.1646581853274256,colour,0.5
101,23,1,1,1,49,49,67.74753551115282,68.71988006611355,"[15, 0, 239]",239,a,0.4462660679128021,colour,0.5
101,23,1,1,1,50,50,69.22588109178469,69.8239191104658,"[44, 0, 210]",210,a,0.07454276503995061,colour,0.5
101,23,1,1,2,1,51,76.27548397728242,77.16787511622533,"[7, 0, 247]",247,a,0.3683366244658828,colour,0.5
101,23,1,1,2,2,52,77.68902501952834,78.24782223068178,"[9, 0, 245]",245,a,0.03377029183320701,colour,0.5
101,23,1,1,2,3,53,78.75791846285574,79.4478572041262,"[24, 0, 230]",230,a,0.1785865353886038,colour,0.5
101,23,1,1,2,4,54,79.95340727665462,80.87181467516348,"[77, 0, 177]",177,l,0.39196381671354175,colour,0.5
101,23,1,1,2,5,55,81.37845373060554,81.92788450559601,"[18, 0, 236]",236,a,0.025927644222974777,colour,0.5
101,23,1,1,2,6,56,82.4411066903267,83.18386918655597,"[76, 0, 178]",178,l,0.23210267070680857,colour,0.5
101,23,1,1,2,7,57,83.6834458024241,84.4078460347373,"[70, 0, 184]",184,l,0.2010168305132538,colour,0.5
101,23,1,1,2,8,58,84.91788712865673,85.63184493826702,"[46, 0, 208]",208,a,0.19892984279431403,colour,0.5
101,23,1,1,2,9,59,86.14968850743026,86.91987171652727,"[98, 0, 156]",156,l,0.2382899853400886,colour,0.5
101,23,1,1,2,10,60,87.4303302867338,88.40787045308389,"[16, 0, 238]",238,a,0.4449372326489538,colour,0.5
101,23,1,1,2,11,61,88.91695135133341,89.51983209582977,"[93, 0, 161]",161,l,0.08519431948661804,colour,0.5
101,23,1,1,2,12,62,90.02874442818575,90.65582934836857,"[2, 0, 252]",252,a,0.1092090557795018,colour,0.5
101,23,1,1,2,13,63,91.17343857930973,91.71243087016046,"[83, 0, 171]",171,l,0.0063070436008274555,colour,0.5
101,23,1,1,2,14,64,92.23982992162928,92.84784720046446,"[40, 0, 214]",214,a,0.08820684440433979,colour,0.5
101,23,1,1,2,15,65,93.35714825848117,93.90413088910282,"[28, 0, 226]",226,a,0.027819678653031588,colour,0.5
101,23,1,1,2,16,66,94.4221717750188,94.95986122451723,"[84, 0, 170]",170,l,0.017125982558354735,colour,0.5
101,23,1,1,2,17,67,95.47375649167225,96.06385615817271,"[89, 0, 165]",165,l,0.03278016415424645,colour,0.5
101,23,1,1,2,18,68,96.58017830178142,97.31983847613446,"[38, 0, 216]",216,a,0.21674781199544668,colour,0.5
101,23,1,1,2,19,69,97.8301658956334,98.62384278303944,"[53, 0, 201]",201,a,0.2704399963840842,colour,0.5
101,23,1,1,2,20,70,99.1428403200116,99.8878099268768,"[55, 0, 199]",199,a,0.22212577378377318,colour,0.5
101,23,1,1,2,21,71,100.39981040265411,101.3438319445122,"[91, 0, 163]",163,l,0.42120291478931904,colour,0.5
101,23,1,1,2,22,72,101.86273456458002,102.58399072731845,"[68, 0, 186]",186,l,0.198701806133613,colour,0.5
101,23,1,1,2,23,73,103.09704513382167,103.8720175055787,"[26, 0, 228]",228,a,0.26000505685806274,colour,0.5
101,23,1,1,2,24,74,104.38426807336509,104.99183085444383,"[10, 0, 244]",244,a,0.08477841853164136,colour,0.5
101,23,1,1,2,25,75,105.50174867454916,106.11241456517018,"[35, 0, 219]",219,a,0.09359898488037288,colour,0.5
101,23,1,1,2,26,76,106.63429544563405,107.34381619072519,"[65, 0, 189]",189,l,0.19106947211548686,colour,0.5
101,23,1,1,2,27,77,107.85723017831333,108.59984222543426,"[99, 0, 155]",155,l,0.21103547513484955,colour,0.5
101,23,1,1,2,28,78,109.12328509776853,109.95198194938712,"[23, 0, 231]",231,a,0.3098399175796658,colour,0.5
101,23,1,1,2,29,79,110.47010160423815,111.34380437526852,"[12, 0, 242]",242,a,0.33943859674036503,colour,0.5
101,23,1,1,2,30,80,111.86246084189042,112.69584169937298,"[47, 0, 207]",207,a,0.3158232201822102,colour,0.5
101,23,1,1,2,31,81,113.20809620548971,113.89578096824698,"[59, 0, 195]",195,a,0.16910076374188066,colour,0.5
101,23,1,1,2,32,82,114.40386504330672,114.98378655780107,"[20, 0, 234]",234,a,0.05854593776166439,colour,0.5
101,23,1,1,2,33,83,115.49457556451671,116.09577104332857,"[86, 0, 168]",168,l,0.08391865342855453,colour,0.5
101,23,1,1,2,34,84,116.61738292733207,117.39175941073336,"[64, 0, 190]",190,l,0.2435927225742489,colour,0.5
101,23,1,1,2,35,85,117.91426886897534,118.6478027747944,"[49, 0, 205]",205,a,0.21637090179137886,colour,0.5
101,23,1,1,2,36,86,119.1664505766239,119.79179076082073,"[62, 0, 192]",192,a,0.09847361198626459,colour,0.5
101,23,1,1,2,37,87,120.30381604889408,120.82381040905602,"[39, 0, 215]",215,a,0.0006155807059258223,colour,0.5
101,23,1,1,2,38,88,121.34933121083304,121.88781465310603,"[73, 0, 181]",181,l,0.019025499932467937,colour,0.5
101,23,1,1,2,39,89,122.40166699094698,123.19181896024384,"[58, 0, 196]",196,l,0.27164595178328454,colour,0.5
101,23,1,1,2,40,90,123.70150401769206,124.47982880310155,"[50, 0, 204]",204,a,0.2577920383773744,colour,0.5
101,23,1,1,2,41,91,124.99509465298615,125.76781107694842,"[11, 0, 243]",243,a,0.2560465147253126,colour,0.5
101,23,1,1,2,42,92,126.29055369179696,126.855808789609,"[5, 0, 249]",249,a,0.04319974360987544,colour,0.5
101,23,1,1,2,43,93,127.35614001378417,127.91981854755431,"[71, 0, 183]",183,l,0.0407295438926667,colour,0.5
101,23,1,1,2,44,94,128.43431167211384,129.08780630351976,"[54, 0, 200]",200,a,0.1306248044129461,colour,0.5
101,23,1,1,2,45,95,129.60642889956944,130.25579012115486,"[32, 0, 222]",222,a,0.12167229992337525,colour,0.5
101,23,1,1,2,46,96,130.76175648835488,131.45583454705775,"[57, 0, 197]",197,l,0.16966041852720082,colour,0.5
101,23,1,1,2,47,97,131.96641284623183,132.55174737493508,"[81, 0, 173]",173,l,0.062487544724717736,colour,0.5
101,23,1,1,2,48,98,133.0601217141375,133.68778086127713,"[6, 0, 248]",248,a,0.09987885318696499,colour,0.5
101,23,1,1,2,49,99,134.2058308054693,135.239833466243,"[22, 0, 232]",232,a,0.5111619783565402,colour,0.5
101,23,1,1,2,50,100,135.74880014942028,136.38045092183165,"[25, 0, 229]",229,a,0.11057806294411421,colour,0.5
101,23,1,1,3,1,101,141.9902794964146,142.82401993498206,"[10, 0, 244]",244,a,0.3285294671077281,colour,0.5
101,23,1,1,3,2,102,143.33207604684867,144.1037546878215,"[62, 0, 192]",192,l,0.24892972456291318,colour,0.5
101,23,1,1,3,3,103,144.61345037911087,145.29571070615202,"[81, 0, 173]",173,l,0.15923256799578667,colour,0.5
101,23,1,1,3,4,104,145.791074749548,146.67974916752428,"[56, 0, 198]",198,l,0.3706358950585127,colour,0.5
101,23,1,1,3,5,105,147.18503181869164,148.087762192823,"[4, 0, 250]",250,a,0.3796537781599909,colour,0.5
101,23,1,1,3,6,106,148.59906438039616,149.5437554595992,"[19, 0, 235]",235,a,0.4214553697966039,colour,0.5
101,23,1,1,3,7,107,150.05354528012685,150.58370243222453,"[72, 0, 182]",182,l,0.007325922138988972,colour,0.5
101,23,1,1,3,8,108,151.11159300315194,152.15174123086035,"[49, 0, 205]",205,l,0.5169625366106629,colour,0.5
101,23,1,1,3,9,109,152.6627807233017,153.52779565402307,"[61, 0, 193]",193,l,0.34171463060192764,colour,0.5
101,23,1,1,3,10,110,154.03787731402554,154.79983584512956,"[75, 0, 179]",179,l,0.23744006641209126,colour,0.5
101,23,1,1,3,11,111,155.31530610076152,156.05572639708407,"[71, 0, 183]",183,l,0.21438395068980753,colour,0.5
101,23,1,1,3,12,112,156.57627450418659,157.25581729668193,"[30, 0, 224]",224,a,0.15408106776885688,colour,0.5
101,23,1,1,3,13,113,157.7737380596809,158.4237373112701,"[7, 0, 247]",247,a,0.12678244663402438,colour,0.5
101,23,1,1,3,14,114,158.9328225417994,159.62376558943652,"[22, 0, 232]",232,a,0.16586295911110938,colour,0.5
101,23,1,1,3,15,115,160.13791921921074,161.11178323044442,"[88, 0, 166]",166,l,0.4466571565717459,colour,0.5
101,23,1,1,3,16,116,161.62113982066512,162.49573662132025,"[46, 0, 208]",208,l,0.3516096076928079,colour,0.5
101,23,1,1,3,17,117,163.01184490672313,163.71978672477417,"[83, 0, 171]",171,l,0.19761045998893678,colour,0.5
101,23,1,1,3,18,118,164.23468787339516,164.88776109018363,"[76, 0, 178]",178,l,0.12982569192536175,colour,0.5
101,23,1,1,3,19,119,165.40657036891207,165.98372196708806,"[0, 0, 254]",254,a,0.05229048803448677,colour,0.5
101,23,1,1,3,20,120,166.51525757904164,167.32778234197758,"[58, 0, 196]",196,l,0.2796870975289494,colour,0.5
101,23,1,1,3,21,121,167.83950082422234,168.97575368266553,"[33, 0, 221]",221,a,0.6173380289692432,colour,0.5
101,23,1,1,3,22,122,169.4971135056112,170.4877313154284,"[6, 0, 248]",248,l,0.4587631830945611,colour,0.5
101,23,1,1,3,23,123,171.00932626402937,171.75973448506556,"[50, 0, 204]",204,l,0.2328781527467072,colour,0.5
101,23,1,1,3,24,124,172.2810360188596,173.05571852019057,"[39, 0, 215]",215,a,0.2560996839310974,colour,0.5
101,23,1,1,3,25,125,173.5776265761815,174.27980170655064,"[90, 0, 164]",164,l,0.17678666091524065,colour,0.5
101,23,1,1,3,26,126,174.79218145576306,175.4797401879914,"[32, 0, 222]",222,a,0.16992114437744021,colour,0.5
101,23,1,1,3,27,127,175.98375504999422,176.5437231643591,"[84, 0, 170]",170,l,0.04302290687337518,colour,0.5
101,23,1,1,3,28,128,177.06281601195224,177.72779596899636,"[44, 0, 210]",210,a,0.14763735956512392,colour,0.5
101,23,1,1,3,29,129,178.23764486634172,178.77571910293773,"[97, 0, 157]",157,l,0.01835793163627386,colour,0.5
101,23,1,1,3,30,130,179.29497657809407,180.0797474347055,"[42, 0, 212]",212,a,0.2529115036595613,colour,0.5
101,23,1,1,3,31,131,180.5904982383363,181.47173054981977,"[47, 0, 207]",207,a,0.35747475642710924,colour,0.5
101,23,1,1,3,32,132,181.9826054146979,182.5596936037764,"[54, 0, 200]",200,a,0.06016149232164025,colour,0.5
101,23,1,1,3,33,133,183.0794406288769,184.54370662290603,"[93, 0, 161]",161,l,0.9465716921258718,colour,0.5
101,23,1,1,3,34,134,185.06186841940507,185.85579461115412,"[43, 0, 211]",211,a,0.27448636619374156,colour,0.5
101,23,1,1,3,35,135,186.36613660305738,187.21571593661793,"[40, 0, 214]",214,a,0.33144274330697954,colour,0.5
101,23,1,1,3,36,136,187.72710437630303,188.32772877905518,"[68, 0, 186]",186,l,0.08986060228198767,colour,0.5
101,23,1,1,3,37,137,188.8430698532611,189.39169600163586,"[64, 0, 190]",190,l,0.025405405089259148,colour,0.5
101,23,1,1,3,38,138,189.9056763392873,190.43168550962582,"[29, 0, 225]",225,a,0.012097755679860711,colour,0.5
101,23,1,1,3,39,139,190.94360721623525,192.2156812781468,"[89, 0, 165]",165,l,0.7537129796110094,colour,0.5
101,23,1,1,3,40,140,192.7357307765633,193.79975313763134,"[63, 0, 191]",191,l,0.5405003258492798,colour,0.5
101,23,1,1,3,41,141,194.31409226870164,195.15966264763847,"[41, 0, 213]",213,a,0.32038946612738073,colour,0.5
101,23,1,1,3,42,142,195.675108484691,196.33570021414198,"[65, 0, 189]",189,l,0.14982556574977934,colour,0.5
101,23,1,1,3,43,143,196.84459600504488,197.75172839150764,"[21, 0, 233]",233,a,0.38183843973092735,colour,0.5
101,23,1,1,3,44,144,198.2688646139577,199.04767343588173,"[38, 0, 216]",216,a,0.25545614026486874,colour,0.5
101,23,1,1,3,45,145,199.5536527999211,200.2317096129991,"[60, 0, 194]",194,l,0.15497312787920237,colour,0.5
101,23,1,1,3,46,146,200.74128793808632,201.5596345269587,"[34, 0, 220]",220,a,0.304172873031348,colour,0.5
101,23,1,1,3,47,147,202.0759098031558,202.66369326366112,"[67, 0, 187]",187,l,0.05828757514245808,colour,0.5
101,23,1,1,3,48,148,203.1770887405146,203.9037236527074,"[8, 0, 246]",246,a,0.20015430869534612,colour,0.5
101,23,1,1,3,49,149,204.41085659060627,204.93566689477302,"[15, 0, 239]",239,a,0.001809720415621996,colour,0.5
101,23,1,1,3,50,150,205.4520808046218,205.99967862199992,"[79, 0, 175]",175,l,0.023039180552586913,colour,0.5
101,23,1,1,4,1,151,211.74970126803964,212.55165009503253,"[28, 0, 226]",226,a,0.2838728886563331,colour,0.5
101,23,1,1,4,2,152,213.06307319318876,213.58371739834547,"[35, 0, 219]",219,a,0.0028534112498164177,colour,0.5
101,23,1,1,4,3,153,214.10327380220406,215.00769613706507,"[42, 0, 212]",212,a,0.381230735918507,colour,0.5
101,23,1,1,4,4,154,215.5270150520373,216.0798084808048,"[67, 0, 187]",187,l,0.029892488149926066,colour,0.5
101,23,1,1,4,5,155,216.58953095343895,217.20771141839214,"[91, 0, 163]",163,l,0.09889778378419578,colour,0.5
101,23,1,1,4,6,156,217.72805472556502,218.24762767087668,"[20, 0, 234]",234,a,0.008945809211581945,colour,0.5
101,23,1,1,4,7,157,218.75560934608802,219.9516479682643,"[14, 0, 240]",240,a,0.6803911360912025,colour,0.5
101,23,1,1,4,8,158,220.4612629211042,221.2156714319717,"[76, 0, 178]",178,l,0.24331545550376177,colour,0.5
101,23,1,1,4,9,159,221.72416038019583,222.49566454743035,"[1, 0, 253]",253,a,0.24805341800674796,colour,0.5
101,23,1,1,4,10,160,223.00556464469992,223.71985604148358,"[3, 0, 251]",251,a,0.19164212350733578,colour,0.5
101,23,1,1,4,11,161,224.23352917958982,224.91963974153623,"[0, 0, 254]",254,a,0.1633163532242179,colour,0.5
101,23,1,1,4,12,162,225.43673933646642,226.03166558104567,"[61, 0, 193]",193,l,0.07216196833178401,colour,0.5
101,23,1,1,4,13,163,226.54009427083656,227.25564400455914,"[99, 0, 155]",155,l,0.19717762363143265,colour,0.5
101,23,1,1,4,14,164,227.76206959574483,228.4396321324166,"[21, 0, 233]",233,a,0.15479314047843218,colour,0.5
101,23,1,1,4,15,165,228.93723400658928,229.67964046634734,"[24, 0, 230]",230,a,0.21992890303954482,colour,0.5
101,23,1,1,4,16,166,230.1873366034124,230.80773875117302,"[62, 0, 192]",192,l,0.09195940545760095,colour,0.5
101,23,1,1,4,17,167,231.31155787198804,232.15166679397225,"[47, 0, 207]",207,l,0.31549632805399597,colour,0.5
101,23,1,1,4,18,168,232.66856513381936,233.59972289018333,"[36, 0, 218]",218,a,0.40762036107480526,colour,0.5
101,23,1,1,4,19,169,234.10975610720925,234.83966190717183,"[2, 0, 252]",252,a,0.21639216947369277,colour,0.5
101,23,1,1,4,20,170,235.35057064285502,236.0957269326318,"[38, 0, 216]",216,a,0.222151767462492,colour,0.5
101,23,1,1,4,21,171,236.6136799911037,237.22362790093757,"[79, 0, 175]",175,l,0.09074045321904123,colour,0.5
101,23,1,1,4,22,172,237.7943184620235,238.45565967960283,"[37, 0, 217]",217,a,0.12893205601722002,colour,0.5
101,23,1,1,4,23,173,238.96918906411156,239.98360696411692,"[7, 0, 247]",247,a,0.4867356736212969,colour,0.5
101,23,1,1,4,24,174,240.49636795581318,241.10373342013918,"[49, 0, 205]",205,a,0.08928519394248724,colour,0.5
101,23,1,1,4,25,175,241.62550402386114,243.68767885514535,"[56, 0, 198]",198,a,1.5443710403051227,colour,0.5
101,23,1,1,4,26,176,244.20377374999225,245.3116527888924,"[33, 0, 221]",221,a,0.5841155764646828,colour,0.5
101,23,1,1,4,27,177,245.83032894763164,246.5116408946924,"[96, 0, 158]",158,l,0.15831805858761072,colour,0.5
101,23,1,1,4,28,178,247.025511743268,247.91162065113895,"[50, 0, 204]",204,l,0.34418995026499033,colour,0.5
101,23,1,1,4,29,179,248.4261484341696,249.0156364585273,"[27, 0, 227]",227,a,0.06740431324578822,colour,0.5
101,23,1,1,4,30,180,249.5280150261242,250.12769971322268,"[13, 0, 241]",241,a,0.08143427548930049,colour,0.5
101,23,1,1,4,31,181,250.64075766433962,251.15962247527204,"[18, 0, 236]",236,a,0.0007794203702360392,colour,0.5
101,23,1,1,4,32,182,251.6758693945594,252.2156013273634,"[82, 0, 172]",172,l,0.020478790160268545,colour,0.5
101,23,1,1,4,33,183,252.72988531994633,253.31165003194474,"[98, 0, 156]",156,l,0.063224823679775,colour,0.5
101,23,1,1,4,34,184,253.82931952155195,254.6796278632246,"[63, 0, 191]",191,l,0.331211949698627,colour,0.5
101,23,1,1,4,35,185,255.19462629174814,256.1197708132677,"[59, 0, 195]",195,l,0.4070087189320475,colour,0.5
101,23,1,1,4,36,186,256.62205354264006,257.51960169617087,"[44, 0, 210]",210,a,0.3791244497988373,colour,0.5
101,23,1,1,4,37,187,258.0313619261142,258.855584297562,"[58, 0, 196]",196,l,0.30076571460813284,colour,0.5
101,23,1,1,4,38,188,259.3650141430553,260.02358544431627,"[70, 0, 184]",184,l,0.1357727604918182,colour,0.5
101,23,1,1,4,39,189,260.5369824967347,261.15158093557693,"[75, 0, 179]",179,l,0.0912433941848576,colour,0.5
101,23,1,1,4,40,190,261.6759694314096,262.3276689145714,"[93, 0, 161]",161,l,0.12852166895754635,colour,0.5
101,23,1,1,4,41,191,262.847935421858,263.5916396030225,"[9, 0, 245]",245,a,0.21813729940913618,colour,0.5
101,23,1,1,4,42,192,264.09520981344394,265.5118370298296,"[94, 0, 160]",160,l,0.8932887131813914,colour,0.5
101,23,1,1,4,43,193,266.02071549138054,266.7916269211564,"[81, 0, 173]",173,l,0.24802939360961318,colour,0.5
101,23,1,1,4,44,194,267.3145581879653,268.25565857673064,"[54, 0, 200]",200,a,0.41156984493136406,colour,0.5
101,23,1,1,4,45,195,268.7660360147711,269.6956518657971,"[10, 0, 244]",244,a,0.4006193617824465,colour,0.5
101,23,1,1,4,46,196,270.2167214243673,271.30376327363774,"[90, 0, 164]",164,l,0.5680707001592964,colour,0.5
101,23,1,1,4,47,197,271.8143801698461,272.431616586633,"[77, 0, 177]",177,l,0.09812820935621858,colour,0.5
101,23,1,1,4,48,198,272.9470809344202,273.5837233061902,"[65, 0, 189]",189,l,0.11729549383744597,colour,0.5
101,23,1,1,4,49,199,274.09539334545843,274.8396284303162,"[11, 0, 243]",243,a,0.2194117836188525,colour,0.5
101,23,1,1,4,50,200,275.3579410696402,275.9995817360468,"[60, 0, 194]",194,l,0.12194208428263664,colour,0.5
101,23,1,1,5,1,201,281.09728853055276,281.99156737164594,"[76, 0, 178]",178,l,0.3701120805926621,colour,0.4
101,23,1,1,5,2,202,282.50895250448957,283.29561539553106,"[90, 0, 164]",164,l,0.2631054094526917,colour,0.4
101,23,1,1,5,3,203,283.7947032491211,284.7355830844026,"[91, 0, 163]",163,l,0.41011104080826044,colour,0.4
101,23,1,1,5,4,204,285.25562194921076,285.8955777438823,"[67, 0, 187]",187,l,0.11682642344385386,colour,0.4
101,23,1,1,5,5,205,286.41205348749645,287.3195832641795,"[84, 0, 170]",170,l,0.39323515025898814,colour,0.4
101,23,1,1,5,6,206,287.8424381248187,288.4235325115733,"[2, 0, 252]",252,a,0.06271912576630712,colour,0.4
101,23,1,1,5,7,207,288.94159663445316,289.55157250748016,"[72, 0, 182]",182,l,0.08672165288589895,colour,0.4
101,23,1,1,5,8,208,290.07506933645345,290.66387285711244,"[93, 0, 161]",161,l,0.07091072062030435,colour,0.4
101,23,1,1,5,9,209,291.1873629910406,291.8315431738738,"[29, 0, 225]",225,a,0.12488608015701175,colour,0.4
101,23,1,1,5,10,210,292.34495519218035,292.9995896129403,"[74, 0, 180]",180,l,0.1361870861146599,colour,0.4
101,23,1,1,5,11,211,293.5087610955816,294.16760257515125,"[23, 0, 231]",231,a,0.14027205272577703,colour,0.4
101,23,1,1,5,12,212,294.6843768535182,295.2635157967452,"[22, 0, 232]",232,a,0.04642652068287134,colour,0.4
101,23,1,1,5,13,213,295.781585827237,296.46378156379797,"[19, 0, 235]",235,a,0.14962549228221178,colour,0.4
101,23,1,1,5,14,214,296.9774826648645,298.0155305140652,"[89, 0, 165]",165,l,0.5196556530427188,colour,0.4
101,23,1,1,5,15,215,298.5228068116121,299.29559294646606,"[59, 0, 195]",195,a,0.2498501418158412,colour,0.4
101,23,1,1,5,16,216,299.80448558647186,300.7355436999351,"[6, 0, 248]",248,a,0.4086872888728976,colour,0.4
101,23,1,1,5,17,217,301.22928549326025,301.7995377040934,"[25, 0, 229]",229,a,0.045556515688076615,colour,0.4
101,23,1,1,5,18,218,302.3054631112609,302.86357700033113,"[15, 0, 239]",239,a,0.03481792123056948,colour,0.4
101,23,1,1,5,19,219,303.3836930587422,304.2075952338055,"[32, 0, 222]",222,a,0.3008736283518374,colour,0.4
101,23,1,1,5,20,220,304.7276092863176,305.7115868590772,"[21, 0, 233]",233,a,0.4732035321649164,colour,0.4
101,23,1,1,5,21,221,306.2203960039187,307.1835123624187,"[77, 0, 177]",177,l,0.4397435907740146,colour,0.4
101,23,1,1,5,22,222,307.700123982504,308.6715662374627,"[42, 0, 212]",212,l,0.4545691211242229,colour,0.4
101,23,1,1,5,23,223,309.17862907075323,310.51153495023027,"[79, 0, 175]",175,l,0.8099186865147203,colour,0.4
101,23,1,1,5,24,224,311.01148808258586,311.55954709323123,"[96, 0, 158]",158,l,0.028762151021510363,colour,0.4
101,23,1,1,5,25,225,312.0699702173006,312.89552339329384,"[64, 0, 190]",190,l,0.29960780846886337,colour,0.4
101,23,1,1,5,26,226,313.4136973989662,314.34350662794895,"[99, 0, 155]",155,l,0.4064081043470651,colour,0.4
101,23,1,1,5,27,227,314.85698914481327,315.44756733393297,"[82, 0, 172]",172,l,0.06704788305796683,colour,0.4
101,23,1,1,5,28,228,315.9664711353835,316.82356583094224,"[63, 0, 191]",191,l,0.3336868754122406,colour,0.4
101,23,1,1,5,29,229,317.3435172617901,318.5276554450393,"[58, 0, 196]",196,a,0.6656065655406564,colour,0.4
101,23,1,1,5,30,230,319.03944442560896,320.0556011542212,"[9, 0, 245]",245,a,0.48379758559167385,colour,0.4
101,23,1,1,5,31,231,320.57526625925675,321.1195002414752,"[92, 0, 162]",162,l,0.02611117623746395,colour,0.4
101,23,1,1,5,32,232,321.6417355830781,322.23153632087633,"[70, 0, 184]",184,l,0.06626373645849526,colour,0.4
101,23,1,1,5,33,233,322.75063783302903,323.2875502251554,"[41, 0, 213]",213,a,0.020051073981449008,colour,0.4
101,23,1,1,5,34,234,323.8004274012055,324.3515426539816,"[78, 0, 176]",176,l,0.026024136459454894,colour,0.4
101,23,1,1,5,35,235,324.87459522509016,325.53548312652856,"[66, 0, 188]",188,l,0.13717997097410262,colour,0.4
101,23,1,1,5,36,236,326.0555802802555,327.02350706909783,"[0, 0, 254]",254,a,0.43543452583253384,colour,0.4
101,23,1,1,5,37,237,327.54171218862757,328.1994981619064,"[24, 0, 230]",230,a,0.11127674509771168,colour,0.4
101,23,1,1,5,38,238,328.7195279682055,329.6155019206926,"[69, 0, 185]",185,l,0.38284904742613435,colour,0.4
101,23,1,1,5,39,239,330.12800730671734,330.74349544290453,"[27, 0, 227]",227,a,0.09250488178804517,colour,0.4
101,23,1,1,5,40,240,331.25298790982924,331.79947941494174,"[65, 0, 189]",189,l,0.023309752577915788,colour,0.4
101,23,1,1,5,41,241,332.3181134322658,332.8474750164896,"[35, 0, 219]",219,a,0.006281443638727069,colour,0.4
101,23,1,1,5,42,242,333.36495821690187,334.0955055914819,"[52, 0, 202]",202,l,0.20476309000514448,colour,0.4
101,23,1,1,5,43,243,334.6153345364146,335.1834946393501,"[33, 0, 221]",221,a,0.04943983326666057,colour,0.4
101,23,1,1,5,44,244,335.6942521384917,336.92758321366273,"[51, 0, 203]",203,l,0.7190522025339305,colour,0.4
101,23,1,1,5,45,245,337.43412065692246,338.0234657153487,"[68, 0, 186]",186,l,0.05713163805194199,colour,0.4
101,23,1,1,5,46,246,338.54274997184984,339.0796005302109,"[95, 0, 159]",159,l,0.008173871785402298,colour,0.4
101,23,1,1,5,47,247,339.6027232061606,341.0395003517624,"[54, 0, 200]",200,l,0.9192155699711293,colour,0.4
101,23,1,1,5,48,248,341.5490306278225,342.0874707470648,"[1, 0, 253]",253,a,0.007102611707523465,colour,0.4
101,23,1,1,5,49,249,342.6141841134522,343.15950235235505,"[14, 0, 240]",240,a,0.02799257659353316,colour,0.4
101,23,1,1,5,50,250,343.6835261469241,344.247522120364,"[56, 0, 198]",198,l,0.04669118486344814,colour,0.4
101,23,1,1,6,1,251,350.50561860157177,351.2399224755354,"[66, 0, 188]",188,l,0.21033167326822877,colour,0.28
101,23,1,1,6,2,252,351.75644981255755,352.3435188373551,"[35, 0, 219]",219,a,0.06411412707529962,colour,0.28
101,23,1,1,6,3,253,352.85947037208825,353.83144274307415,"[96, 0, 158]",158,l,0.44906355324201286,colour,0.28
101,23,1,1,6,4,254,354.3314155677799,354.85557248210534,"[63, 0, 191]",191,l,0.0007069527637213469,colour,0.28
101,23,1,1,6,5,255,355.3704196740873,355.96747780474834,"[43, 0, 211]",211,a,0.07348292623646557,colour,0.28
101,23,1,1,6,6,256,356.47048520995304,357.62350880214944,"[67, 0, 187]",187,l,0.6296291628386825,colour,0.28
101,23,1,1,6,7,257,358.138859328581,359.015504126437,"[87, 0, 167]",167,l,0.34527302579954267,colour,0.28
101,23,1,1,6,8,258,359.5326072657481,360.3114184506703,"[94, 0, 160]",160,l,0.25598861929029226,colour,0.28
101,23,1,1,6,9,259,360.8296661055647,361.5674626023974,"[6, 0, 248]",248,a,0.21534099546261132,colour,0.28
101,23,1,1,6,10,260,362.07975019165315,362.95950440037996,"[82, 0, 172]",172,l,0.36297953641042113,colour,0.28
101,23,1,1,6,11,261,363.47969844029285,364.29559294646606,"[97, 0, 157]",157,l,0.29336535558104515,colour,0.28
101,23,1,1,6,12,262,364.81572042638436,365.7674290467985,"[74, 0, 180]",180,l,0.4284441601485014,colour,0.28
101,23,1,1,6,13,263,366.28469878295437,367.1674651231151,"[93, 0, 161]",161,l,0.3598307410720736,colour,0.28
101,23,1,1,6,14,264,367.6709412042983,368.4418085233774,"[26, 0, 228]",228,a,0.23628058517351747,colour,0.28
101,23,1,1,6,15,265,368.9644987566862,369.78349440312013,"[77, 0, 177]",177,l,0.29530425765551627,colour,0.28
101,23,1,1,6,16,266,370.30030609690584,371.2874151361175,"[73, 0, 181]",181,l,0.4695640050340444,colour,0.28
101,23,1,1,6,17,267,371.8000867248047,372.6395465892274,"[23, 0, 231]",231,a,0.32179864565841854,colour,0.28
101,23,1,1,6,18,268,373.1612699315883,374.0793992751278,"[51, 0, 203]",203,a,0.3990364959463477,colour,0.28
101,23,1,1,6,19,269,374.59021151880734,375.2154363060836,"[44, 0, 210]",210,a,0.10686291730962694,colour,0.28
101,23,1,1,6,20,270,375.73544799536467,376.6154845915735,"[62, 0, 192]",192,l,0.3537241646554321,colour,0.28
101,23,1,1,6,21,271,377.12479195115156,378.0794323582668,"[86, 0, 168]",168,l,0.43021646537818015,colour,0.28
101,23,1,1,6,22,272,378.59605658147484,379.47941565909423,"[45, 0, 209]",209,a,0.3754360855091363,colour,0.28
101,23,1,1,6,23,273,379.98783686594106,380.8394358397927,"[84, 0, 170]",170,l,0.3289571835193783,colour,0.28
101,23,1,1,6,24,274,381.3471965675708,382.17545349360444,"[88, 0, 166]",166,l,0.3050936840008944,colour,0.28
101,23,1,1,6,25,275,382.6912057425361,383.58343776804395,"[78, 0, 176]",176,l,0.36921332497149706,colour,0.28
101,23,1,1,6,26,276,384.09660008829087,384.967480561696,"[76, 0, 178]",178,l,0.3478279020637274,colour,0.28
101,23,1,1,6,27,277,385.4887710676994,386.33539183298126,"[25, 0, 229]",229,a,0.33622875483706594,colour,0.28
101,23,1,1,6,28,278,386.83856268413365,387.6794801710639,"[98, 0, 156]",156,l,0.3176632667891681,colour,0.28
101,23,1,1,6,29,279,388.18856028164737,388.9674750480335,"[10, 0, 244]",244,a,0.2587695633992553,colour,0.28
101,23,1,1,6,30,280,389.48207096615806,390.20741012645885,"[72, 0, 182]",182,l,0.2082718606106937,colour,0.28
101,23,1,1,6,31,281,390.715436700033,391.6554504688829,"[64, 0, 190]",190,l,0.40878929500468075,colour,0.28
101,23,1,1,6,32,282,392.17922810977325,392.9034967976622,"[65, 0, 189]",189,l,0.19562350888736546,colour,0.28
101,23,1,1,6,33,283,393.4126659173053,394.3034375633579,"[58, 0, 196]",196,a,0.37348418682813644,colour,0.28
101,23,1,1,6,34,284,394.8270958692301,395.62350131897256,"[56, 0, 198]",198,a,0.2656342922709882,colour,0.28
101,23,1,1,6,35,285,396.13852140912786,396.88738654297777,"[53, 0, 201]",201,a,0.2311255398672074,colour,0.28
101,23,1,1,6,36,286,397.39583413745277,398.25545141403563,"[9, 0, 245]",245,a,0.34155236603692174,colour,0.28
101,23,1,1,6,37,287,398.7737049765419,399.5433990294114,"[81, 0, 173]",173,l,0.2505429161246866,colour,0.28
101,23,1,1,6,38,288,400.05128342472017,400.8314199000597,"[99, 0, 155]",155,l,0.26832307619042695,colour,0.28
101,23,1,1,6,39,289,401.32733453949913,402.08741442719474,"[85, 0, 169]",169,l,0.23697493481449783,colour,0.28
101,23,1,1,6,40,290,402.59601837839,403.3513780264184,"[89, 0, 165]",165,l,0.24357854411937296,colour,0.28
101,23,1,1,6,41,291,403.857128566131,404.6153892809525,"[1, 0, 253]",253,a,0.24424493103288114,colour,0.28
101,23,1,1,6,42,292,405.13028334034607,405.9114347558934,"[92, 0, 162]",162,l,0.25814492418430746,colour,0.28
101,23,1,1,6,43,293,406.4247187746223,407.16743007069454,"[16, 0, 238]",238,a,0.2166312336921692,colour,0.28
101,23,1,1,6,44,294,407.67357524391264,408.44741137092933,"[95, 0, 159]",159,l,0.2521939168218523,colour,0.28
101,23,1,1,6,45,295,408.9990571336821,409.72740054805763,"[27, 0, 227]",227,a,0.21622202801518142,colour,0.28
101,23,1,1,6,46,296,410.2382320901379,411.03139934130013,"[91, 0, 163]",163,l,0.27640321268700063,colour,0.28
101,23,1,1,6,47,297,411.5372290441301,412.3353650516365,"[90, 0, 164]",164,l,0.27717357501387596,colour,0.28
101,23,1,1,6,48,298,412.84783814218827,413.5914340154268,"[8, 0, 246]",246,a,0.22112107346765697,colour,0.28
101,23,1,1,6,49,299,414.0974240133073,415.22345618437976,"[50, 0, 204]",204,a,0.6033273653592914,colour,0.28
101,23,1,1,6,50,300,415.741306448821,416.4234281424433,"[75, 0, 179]",179,l,0.15934717725031078,colour,0.28
101,23,1,1,7,1,301,421.09519327175803,421.90341605921276,"[69, 0, 185]",185,l,0.2901637845207006,colour,0.14
101,23,1,1,7,2,302,422.41839164472185,423.2073624711484,"[91, 0, 163]",163,l,0.26592455664649606,colour,0.14
101,23,1,1,7,3,303,423.7174653986003,424.4553524800576,"[79, 0, 175]",175,l,0.21487074391916394,colour,0.14
101,23,1,1,7,4,304,424.9720629553776,426.03144384594634,"[45, 0, 209]",209,a,0.5362428547814488,colour,0.14
101,23,1,1,7,5,305,426.5504248412326,427.35934985545464,"[92, 0, 162]",162,l,0.28474053065292537,colour,0.14
101,23,1,1,7,6,306,427.8798743316438,428.6314633018337,"[52, 0, 202]",202,l,0.2297616524156183,colour,0.14
101,23,1,1,7,7,307,429.17002275632694,429.9913952611387,"[16, 0, 238]",238,a,0.2938312750775367,colour,0.14
101,23,1,1,7,8,308,430.49065286223777,431.2713584443554,"[67, 0, 187]",187,l,0.25718945474363863,colour,0.14
101,23,1,1,7,9,309,431.787601031363,432.59937394293956,"[83, 0, 171]",171,l,0.28851278382353485,colour,0.14
101,23,1,1,7,10,310,433.11583590181544,433.91932190814987,"[76, 0, 178]",178,l,0.28033969970420003,colour,0.14
101,23,1,1,7,11,311,434.42965090321377,435.19940994051285,"[93, 0, 161]",161,l,0.24527877569198608,colour,0.14
101,23,1,1,7,12,312,435.712071683025,436.47932665003464,"[53, 0, 201]",201,a,0.24440640769898891,colour,0.14
101,23,1,1,7,13,313,436.99345152894966,437.5997236778494,"[78, 0, 176]",176,l,0.09026429406367242,colour,0.14
101,23,1,1,7,14,314,438.1094674183987,438.8633741699159,"[17, 0, 237]",237,a,0.23855031724087894,colour,0.14
101,23,1,1,7,15,315,439.3833279639948,440.1274007842876,"[82, 0, 172]",172,l,0.21255414374172688,colour,0.14
101,23,1,1,7,16,316,440.6478594886139,441.45540486159734,"[60, 0, 194]",194,a,0.27601685049012303,colour,0.14
101,23,1,1,7,17,317,441.97602661768906,442.74336665542796,"[85, 0, 169]",169,l,0.24429652490653098,colour,0.14
101,23,1,1,7,18,318,443.26299316366203,444.0873659842182,"[75, 0, 179]",179,l,0.3061432826798409,colour,0.14
101,23,1,1,7,19,319,444.6061311522499,445.43135113455355,"[86, 0, 168]",168,l,0.3071408935356885,colour,0.14
101,23,1,1,7,20,320,445.9532032646239,446.95936852367595,"[63, 0, 191]",191,a,0.4868947872892022,colour,0.14
101,23,1,1,7,21,321,447.47101256926544,448.2793318487238,"[97, 0, 157]",157,l,0.2841745743062347,colour,0.14
101,23,1,1,7,22,322,448.8001836107578,449.6953801121563,"[70, 0, 184]",184,l,0.33772851899266243,colour,0.14
101,23,1,1,7,23,323,450.2161716159899,450.99132948881015,"[55, 0, 199]",199,a,0.2575978725217283,colour,0.14
101,23,1,1,7,24,324,451.5060226870701,452.32747908099554,"[99, 0, 155]",155,l,0.3024458601139486,colour,0.14
101,23,1,1,7,25,325,452.8387021054514,453.6713819175493,"[72, 0, 182]",182,l,0.30055737029761076,colour,0.14
101,23,1,1,7,26,326,454.1899221998174,454.94333034264855,"[54, 0, 200]",200,a,0.2340199111495167,colour,0.14
101,23,1,1,7,27,327,455.45221274276264,456.15164907090366,"[90, 0, 164]",164,l,0.17983817658387125,colour,0.14
101,23,1,1,7,28,328,456.66111042397097,457.43938479735516,"[5, 0, 249]",249,a,0.2598987186793238,colour,0.14
101,23,1,1,7,29,329,457.9483648710884,458.79952864558436,"[59, 0, 195]",195,a,0.3376694421749562,colour,0.14
101,23,1,1,7,30,330,459.32262650923803,460.10331279295497,"[84, 0, 170]",170,l,0.2644815060775727,colour,0.14
101,23,1,1,7,31,331,460.6157319266349,461.63934021419846,"[57, 0, 197]",197,a,0.5010279370471835,colour,0.14
101,23,1,1,7,32,332,462.1470572249964,462.9194034342654,"[94, 0, 160]",160,l,0.24961186526343226,colour,0.14
101,23,1,1,7,33,333,463.42833112645894,464.2633212369401,"[87, 0, 167]",167,l,0.3104421072639525,colour,0.14
101,23,1,1,7,34,334,464.7732087310869,465.6473632429261,"[71, 0, 183]",183,l,0.3513323401566595,colour,0.14
101,23,1,1,7,35,335,466.1639654110186,466.8313419185579,"[73, 0, 181]",181,l,0.14404076128266752,colour,0.14
101,23,1,1,7,36,336,467.3416941505857,468.07132032024674,"[95, 0, 159]",159,l,0.20637628179974854,colour,0.14
101,23,1,1,7,37,337,468.59224258060567,469.32996621588245,"[89, 0, 165]",165,l,0.2192692116368562,colour,0.14
101,23,1,1,7,38,338,469.8442844732199,470.55929227522574,"[61, 0, 193]",193,a,0.19151057908311486,colour,0.14
101,23,1,1,7,39,339,471.0787005929742,471.7752937497571,"[80, 0, 174]",174,l,0.1731187766417861,colour,0.14
101,23,1,1,7,40,340,472.2818441898562,472.95933307753876,"[77, 0, 177]",177,l,0.15472224820405245,colour,0.14
101,23,1,1,7,41,341,473.46955612814054,474.24735906836577,"[64, 0, 190]",190,a,0.2502514705993235,colour,0.14
101,23,1,1,7,42,342,474.76036975812167,475.4472786448896,"[19, 0, 235]",235,a,0.17200379981659353,colour,0.14
101,23,1,1,7,43,343,475.95510238804854,476.66341560240835,"[81, 0, 173]",173,l,0.18507041572593153,colour,0.14
101,23,1,1,7,44,344,477.1738418773748,477.9353782059625,"[56, 0, 198]",198,a,0.23819191777147353,colour,0.14
101,23,1,1,7,45,345,478.45539186452515,479.35130398347974,"[62, 0, 192]",192,l,0.384125501383096,colour,0.14
101,23,1,1,7,46,346,479.8700679698959,480.64729707688093,"[24, 0, 230]",230,a,0.2544916120823473,colour,0.14
101,23,1,1,7,47,347,481.16688813921064,481.96730726980604,"[20, 0, 234]",234,a,0.2852560745086521,colour,0.14
101,23,1,1,7,48,348,482.4868983319029,483.215274435468,"[66, 0, 188]",188,l,0.20541175361722708,colour,0.14
101,23,1,1,7,49,349,483.7186890770681,484.53528305282816,"[65, 0, 189]",189,l,0.2937863764818758,colour,0.14
101,23,1,1,7,50,350,485.04724650713615,485.89534419355914,"[50, 0, 204]",204,a,0.32125671417452395,colour,0.14
101,23,1,1,8,1,351,490.98900383058935,492.13528360426426,"[79, 0, 175]",175,l,0.622432028176263,colour,0.06
101,23,1,1,8,2,352,492.6335798280779,493.3672771798447,"[22, 0, 232]",232,a,0.2223703518975526,colour,0.06
101,23,1,1,8,3,353,493.88938570325263,494.53529486828484,"[86, 0, 168]",168,l,0.13010886684060097,colour,0.06
101,23,1,1,8,4,354,495.053874141071,495.81528640841134,"[60, 0, 194]",194,l,0.23824508697725832,colour,0.06
101,23,1,1,8,5,355,496.33518112567253,496.9672623712104,"[70, 0, 184]",184,l,0.10869154240936041,colour,0.06
101,23,1,1,8,6,356,497.4765118355863,498.207307332661,"[96, 0, 158]",158,a,0.22031526546925306,colour,0.06
101,23,1,1,8,7,357,498.70317392307334,499.78326203417964,"[58, 0, 196]",196,l,0.5533223634120077,colour,0.06
101,23,1,1,8,8,358,500.2900991940405,501.06324018351734,"[55, 0, 199]",199,a,0.24996278155595064,colour,0.06
101,23,1,1,8,9,359,501.5713734892197,502.7513534503523,"[8, 0, 246]",246,a,0.657017580466345,colour,0.06
101,23,1,1,8,10,360,503.27295076218434,504.0632661774289,"[97, 0, 157]",157,l,0.2670060566160828,colour,0.06
101,23,1,1,8,11,361,504.55946477968246,505.59127765870653,"[66, 0, 188]",188,l,0.5066016400232911,colour,0.06
101,23,1,1,8,12,362,506.11068715830334,506.9912967996206,"[62, 0, 192]",192,a,0.35204756376333535,colour,0.06
101,23,1,1,8,13,363,507.5067662675865,508.25524228205904,"[75, 0, 179]",179,l,0.2379241029266268,colour,0.06
101,23,1,1,8,14,364,508.7668091338128,509.4792581209913,"[63, 0, 191]",191,a,0.20431292452849448,colour,0.06
101,23,1,1,8,15,365,509.99779604002833,510.9992977732327,"[85, 0, 169]",169,l,0.48318554926663637,colour,0.06
101,23,1,1,8,16,366,511.51383894705214,512.2953148914967,"[95, 0, 159]",159,l,0.25703231035731733,colour,0.06
101,23,1,1,8,17,367,512.8172513041645,513.671218865551,"[88, 0, 166]",166,l,0.3359483368694782,colour,0.06
101,23,1,1,8,18,368,514.1819724261295,515.2712698292453,"[67, 0, 187]",187,l,0.5621137851849198,colour,0.06
101,23,1,1,8,19,369,515.7899255079683,516.5912489080802,"[57, 0, 197]",197,a,0.28279138868674636,colour,0.06
101,23,1,1,8,20,370,517.1057810233906,517.799250590615,"[81, 0, 173]",173,l,0.17475756839849055,colour,0.06
101,23,1,1,8,21,371,518.31382524129,519.1113440927584,"[56, 0, 198]",198,a,0.27402320387773216,colour,0.06
101,23,1,1,8,22,372,519.6317283599637,520.4472621034365,"[50, 0, 204]",204,a,0.29169545019976795,colour,0.06
101,23,1,1,8,23,373,520.9682493484579,521.6072126522195,"[74, 0, 180]",180,l,0.11605291068553925,colour,0.06
101,23,1,1,8,24,374,522.1310832409654,522.8632296286523,"[87, 0, 167]",167,l,0.21405627112835646,colour,0.06
101,23,1,1,8,25,375,523.3794143199921,524.3032823880203,"[65, 0, 189]",189,l,0.3916889124084264,colour,0.06
101,23,1,1,8,26,376,524.8208904375788,525.5192925273441,"[90, 0, 164]",164,l,0.18012292706407607,colour,0.06
101,23,1,1,8,27,377,526.0291756889783,526.8472505244426,"[61, 0, 193]",193,a,0.2854506343137473,colour,0.06
101,23,1,1,8,28,378,527.3599918237887,528.1914223576896,"[53, 0, 201]",201,a,0.313327026553452,colour,0.06
101,23,1,1,8,29,379,528.7064853769261,529.2874521575868,"[72, 0, 182]",182,l,0.0655331527814269,colour,0.06
101,23,1,1,8,30,380,529.8036904120818,530.4312302239705,"[59, 0, 195]",195,a,0.10862380103208125,colour,0.06
101,23,1,1,8,31,381,530.9401012025774,531.5592158690561,"[73, 0, 181]",181,l,0.09592936909757555,colour,0.06
101,23,1,1,8,32,382,532.0651475780178,532.7513085519895,"[64, 0, 190]",190,a,0.16321355965919793,colour,0.06
101,23,1,1,8,33,383,533.2683597039431,534.0232770633884,"[82, 0, 172]",172,l,0.22947808378376067,colour,0.06
101,23,1,1,8,34,384,534.54456993239,535.3112325556576,"[69, 0, 185]",185,a,0.24369669798761606,colour,0.06
101,23,1,1,8,35,385,535.8321745083667,536.719239279395,"[98, 0, 156]",156,l,0.36454349756240845,colour,0.06
101,23,1,1,8,36,386,537.2386294803582,538.1432262887247,"[51, 0, 203]",203,a,0.38133589271456003,colour,0.06
101,23,1,1,8,37,387,538.6607114584185,539.4792266131844,"[52, 0, 202]",202,a,0.29990358650684357,colour,0.06
101,23,1,1,8,38,388,539.9986435957253,540.9112657962833,"[3, 0, 251]",251,a,0.3892699128482491,colour,0.06
101,23,1,1,8,39,389,541.4252941829618,542.1752262446098,"[77, 0, 177]",177,l,0.23145321942865849,colour,0.06
101,23,1,1,8,40,390,542.6837021959946,543.5512869693339,"[99, 0, 155]",155,l,0.3503595415968448,colour,0.06
101,23,1,1,8,41,391,544.0625450462103,544.8792236987501,"[68, 0, 186]",186,l,0.2922606186475605,colour,0.06
101,23,1,1,8,42,392,545.4020234211348,546.1992067161482,"[80, 0, 174]",174,l,0.27869500033557415,colour,0.06
101,23,1,1,8,43,393,546.719871401554,547.5592036598828,"[54, 0, 200]",200,a,0.32053400739096105,colour,0.06
101,23,1,1,8,44,394,548.0704770965967,548.8472198045347,"[71, 0, 183]",183,l,0.2497233236208558,colour,0.06
101,23,1,1,8,45,395,549.3545595111791,550.1512225361075,"[76, 0, 178]",178,l,0.2775162204634398,colour,0.06
101,23,1,1,8,46,396,550.6710833825637,551.4391717270482,"[92, 0, 162]",162,l,0.2456442646216601,colour,0.06
101,23,1,1,8,47,397,551.945132580353,552.7672147946432,"[84, 0, 170]",170,l,0.29896032623946667,colour,0.06
101,23,1,1,8,48,398,553.2665810971521,554.0311685479246,"[78, 0, 176]",176,l,0.24202206637710333,colour,0.06
101,23,1,1,8,49,399,554.5490030585788,555.1911931396462,"[94, 0, 160]",160,l,0.11950654303655028,colour,0.06
101,23,1,1,8,50,400,555.7053136862814,557.1754168658517,"[93, 0, 161]",161,l,0.9473530817776918,colour,0.06
101,23,1,1,9,1,401,562.1573767676018,563.039260499645,"[93, 0, 161]",161,l,0.3566835206001997,colour,0.06
101,23,1,1,9,2,402,563.5446360984351,564.2872954071499,"[95, 0, 159]",159,l,0.21963351895101368,colour,0.06
101,23,1,1,9,3,403,564.7934319155756,565.5831786177587,"[99, 0, 155]",155,l,0.2758577368222177,colour,0.06
101,23,1,1,9,4,404,566.0967221804895,567.0552199115045,"[55, 0, 199]",199,l,0.43367954972200096,colour,0.06
101,23,1,1,9,5,405,567.5669994400814,568.351235848153,"[51, 0, 203]",203,a,0.26136067346669734,colour,0.06
101,23,1,1,9,6,406,568.8641035719775,569.6551834414713,"[89, 0, 165]",165,l,0.2568353875540197,colour,0.06
101,23,1,1,9,7,407,570.1672674124129,571.0072054055054,"[81, 0, 173]",173,l,0.27149904728867114,colour,0.06
101,23,1,1,9,8,408,571.5185237405822,572.4071950078942,"[88, 0, 166]",166,l,0.369545730529353,colour,0.06
101,23,1,1,9,9,409,572.9188425980974,573.8391774771735,"[64, 0, 190]",190,l,0.4019375629723072,colour,0.06
101,23,1,1,9,10,410,574.3480074957479,575.0711588435806,"[73, 0, 181]",181,l,0.2051986833103001,colour,0.06
101,23,1,1,9,11,411,575.5889653912745,576.5272103995085,"[91, 0, 163]",163,l,0.4212556900456548,colour,0.06
101,23,1,1,9,12,412,577.0451835438143,577.8152025192976,"[90, 0, 164]",164,l,0.24877809383906424,colour,0.06
101,23,1,1,9,13,413,578.3341831208672,579.5351924684364,"[69, 0, 185]",185,l,0.6732487457338721,colour,0.06
101,23,1,1,9,14,414,580.0532861296088,580.72721307748,"[72, 0, 182]",182,l,0.14387731533497572,colour,0.06
101,23,1,1,9,15,415,581.235376315657,581.911172454711,"[97, 0, 157]",157,l,0.16097533493302763,colour,0.06
101,23,1,1,9,16,416,582.4306008587591,583.2151673096232,"[67, 0, 187]",187,l,0.25926541490480304,colour,0.06
101,23,1,1,9,17,417,583.7245955795515,584.415183772333,"[74, 0, 180]",180,l,0.17677169479429722,colour,0.06
101,23,1,1,9,18,418,584.9247593407054,585.7111591428984,"[61, 0, 193]",193,a,0.26426134654320776,colour,0.06
101,23,1,1,9,19,419,586.2209103661589,587.0151973206084,"[71, 0, 183]",183,l,0.2717325978446752,colour,0.06
101,23,1,1,9,20,420,587.5336190552916,588.2631471573841,"[53, 0, 201]",201,a,0.21874382160604,colour,0.06
101,23,1,1,9,21,421,588.7588030402549,589.6551499646157,"[57, 0, 197]",197,a,0.3792827755678445,colour,0.06
101,23,1,1,9,22,422,590.1708470752928,590.8871624448802,"[84, 0, 170]",170,l,0.18496880354359746,colour,0.06
101,23,1,1,9,23,423,591.3983460848685,592.4712760518305,"[66, 0, 188]",188,l,0.5501286692451686,colour,0.06
101,23,1,1,9,24,424,592.9826065963134,593.7432032094803,"[80, 0, 174]",174,l,0.24809989193454385,colour,0.06
101,23,1,1,9,25,425,594.2486961740069,595.0311311325058,"[87, 0, 167]",167,l,0.261436685686931,colour,0.06
101,23,1,1,9,26,426,595.5313209660817,596.3591588402633,"[59, 0, 195]",195,a,0.3043835803400725,colour,0.06
101,23,1,1,9,27,427,596.8770055603236,597.6791052301414,"[54, 0, 200]",200,a,0.2788340279366821,colour,0.06
101,23,1,1,9,28,428,598.1896106679924,598.7911361893639,"[70, 0, 184]",184,l,0.07843671645969152,colour,0.06
101,23,1,1,9,29,429,599.2990713908803,600.3351893965155,"[83, 0, 171]",171,l,0.5152351297438145,colour,0.06
101,23,1,1,9,30,430,600.8466975651681,601.7431445263792,"[78, 0, 176]",176,l,0.37306080269627273,colour,0.06
101,23,1,1,9,31,431,602.2534097183961,603.1191438110545,"[98, 0, 156]",156,l,0.342293189605698,colour,0.06
101,23,1,1,9,32,432,603.6285582967103,604.5031365863979,"[65, 0, 189]",189,a,0.35055922134779394,colour,0.06
101,23,1,1,9,33,433,605.0234034878667,606.2871800102293,"[52, 0, 202]",202,l,0.7444867521990091,colour,0.06
101,23,1,1,9,34,434,606.8012233632617,607.4393253268208,"[56, 0, 198]",198,a,0.11446177470497787,colour,0.06
101,23,1,1,9,35,435,607.9576875907369,609.0231289772782,"[77, 0, 177]",177,l,0.5419366806745529,colour,0.06
101,23,1,1,9,36,436,609.5262336623855,610.2711607338861,"[82, 0, 172]",172,l,0.2210285197943449,colour,0.06
101,23,1,1,9,37,437,610.7950864608865,611.5191889458802,"[79, 0, 175]",175,l,0.19500202033668756,colour,0.06
101,23,1,1,9,38,438,612.0285632591695,612.6712015364319,"[62, 0, 192]",192,a,0.11292538279667497,colour,0.06
101,23,1,1,9,39,439,613.1831047323067,613.9671316144522,"[50, 0, 204]",204,a,0.2669603703543544,colour,0.06
101,23,1,1,9,40,440,614.4819114587735,615.1591167775914,"[2, 0, 252]",252,a,0.14508957229554653,colour,0.06
101,23,1,1,9,41,441,615.6734039210714,616.6071287631057,"[60, 0, 194]",194,l,0.4156934085767716,colour,0.06
101,23,1,1,9,42,442,617.1156291328371,617.6871270774864,"[58, 0, 196]",196,a,0.05243187863379717,colour,0.06
101,23,1,1,9,43,443,618.198748673778,619.1031737655867,"[85, 0, 169]",169,l,0.3858367605134845,colour,0.06
101,23,1,1,9,44,444,619.6116646830924,620.6151305243839,"[92, 0, 162]",162,l,0.47478088387288153,colour,0.06
101,23,1,1,9,45,445,621.1793324789032,621.9591495455243,"[96, 0, 158]",158,l,0.24854099890217185,colour,0.06
101,23,1,1,9,46,446,622.4706250252202,623.0951026873663,"[24, 0, 230]",230,a,0.09189048246480525,colour,0.06
101,23,1,1,9,47,447,623.6127434261143,624.3111427586991,"[75, 0, 179]",179,l,0.18088738131336868,colour,0.06
101,23,1,1,9,48,448,624.8225583739113,625.6551539031789,"[76, 0, 178]",178,l,0.3145534619688988,colour,0.06
101,23,1,1,9,49,449,626.169166142121,626.8550959290005,"[86, 0, 168]",168,l,0.16807637130841613,colour,0.06
101,23,1,1,9,50,450,627.3766239238903,627.8957778175827,"[23, 0, 231]",231,a,0.0016151608433574438,colour,0.06
101,23,1,1,10,1,451,632.6638775833417,633.5190802444704,"[92, 0, 162]",162,l,0.32314441609196365,colour,0.06
101,23,1,1,10,2,452,634.0380171290599,634.7910869587213,"[94, 0, 160]",160,l,0.2218512634281069,colour,0.06
101,23,1,1,10,3,453,635.3050495733041,636.1031249286607,"[64, 0, 190]",190,l,0.279195184353739,colour,0.06
101,23,1,1,10,4,454,636.6218400781509,637.3193914613221,"[73, 0, 181]",181,l,0.17987441061995924,colour,0.06
101,23,1,1,10,5,455,637.8430316501763,638.4870901347604,"[84, 0, 170]",170,l,0.12471003108657897,colour,0.06
101,23,1,1,10,6,456,639.0057540843263,639.703118784586,"[51, 0, 203]",203,a,0.17588317906484008,colour,0.06
101,23,1,1,10,7,457,640.2221167152748,640.9431495675817,"[65, 0, 189]",189,l,0.1984465941786766,colour,0.06
101,23,1,1,10,8,458,641.4560925159603,642.1351130690891,"[56, 0, 198]",198,a,0.15459543000906706,colour,0.06
101,23,1,1,10,9,459,642.6450383723713,643.2710504571442,"[78, 0, 176]",176,l,0.10364480479620397,colour,0.06
101,23,1,1,10,10,460,643.7781830010936,644.3511113929562,"[75, 0, 179]",179,l,0.05730650573968887,colour,0.06
101,23,1,1,10,11,461,644.8672062875703,645.5111115663312,"[88, 0, 166]",166,l,0.12196650262922049,colour,0.06
101,23,1,1,10,12,462,646.0229009408504,646.8550726920366,"[61, 0, 193]",193,a,0.311592924175784,colour,0.06
101,23,1,1,10,13,463,647.3580103865825,647.895854617469,"[19, 0, 235]",235,a,0.01482395501807332,colour,0.06
101,23,1,1,10,14,464,648.4050847832114,649.1670826990157,"[96, 0, 158]",158,l,0.2389685814268887,colour,0.06
101,23,1,1,10,15,465,649.6863122109789,650.3270667246543,"[54, 0, 200]",200,a,0.12122804229147732,colour,0.06
101,23,1,1,10,16,466,650.8489936850965,651.8150095350575,"[87, 0, 167]",167,l,0.44726367900148034,colour,0.06
101,23,1,1,10,17,467,652.3258934584446,652.9512698764447,"[8, 0, 246]",246,a,0.10700982180424035,colour,0.06
101,23,1,1,10,18,468,653.4688928921241,654.3750950151589,"[83, 0, 171]",171,l,0.37442508386448026,colour,0.06
101,23,1,1,10,19,469,654.8838691078126,655.5430646545719,"[68, 0, 186]",186,l,0.14167532487772405,colour,0.06
101,23,1,1,10,20,470,656.0601457385346,656.6071382153314,"[69, 0, 185]",185,l,0.019975455477833748,colour,0.06
101,23,1,1,10,21,471,657.1227285938803,657.751189610688,"[10, 0, 244]",244,a,0.11087541631422937,colour,0.06
101,23,1,1,10,22,472,658.2715912072454,658.855078993598,"[97, 0, 157]",157,l,0.06426339456811547,colour,0.06
101,23,1,1,10,23,473,659.3743471023627,660.1030650641769,"[57, 0, 197]",197,a,0.21098978933878243,colour,0.06
101,23,1,1,10,24,474,660.6113405481447,661.2150436420925,"[77, 0, 177]",177,l,0.08576263883151114,colour,0.06
101,23,1,1,10,25,475,661.7298601139337,662.2630924128462,"[90, 0, 164]",164,l,0.01895303255878389,colour,0.06
101,23,1,1,10,26,476,662.7682978701778,663.3195612088311,"[72, 0, 182]",182,l,0.027142658131197095,colour,0.06
101,23,1,1,10,27,477,663.8319102379028,664.5350424132776,"[60, 0, 194]",194,a,0.1922053226735443,colour,0.06
101,23,1,1,10,28,478,665.0541671621613,665.9510276613291,"[79, 0, 175]",175,l,0.377902346663177,colour,0.06
101,23,1,1,10,29,479,666.4562953463756,667.0950369152706,"[62, 0, 192]",192,a,0.11586504662409425,colour,0.06
101,23,1,1,10,30,480,667.6141191287898,668.2550741098821,"[50, 0, 204]",204,a,0.11818046472035348,colour,0.06
101,23,1,1,10,31,481,668.7667027954012,669.4470403683372,"[53, 0, 201]",201,a,0.1555642900057137,colour,0.06
101,23,1,1,10,32,482,669.9563780541066,670.5670502460562,"[80, 0, 174]",174,l,0.09208582993596792,colour,0.06
101,23,1,1,10,33,483,671.1098801684566,671.6871369236615,"[98, 0, 156]",156,l,0.05618207645602524,colour,0.06
101,23,1,1,10,34,484,672.192613346735,672.719048658153,"[93, 0, 161]",161,l,0.0034217308275401592,colour,0.06
101,23,1,1,10,35,485,673.2395101191942,673.8070400690194,"[82, 0, 172]",172,l,0.0550080225802958,colour,0.06
101,23,1,1,10,36,486,674.3173277103342,675.0790385126602,"[99, 0, 155]",155,l,0.23850581282749772,colour,0.06
101,23,1,1,10,37,487,675.6008276271168,676.3669967618771,"[66, 0, 188]",188,a,0.24332884629257023,colour,0.06
101,23,1,1,10,38,488,676.8821653316263,677.5112143598963,"[63, 0, 191]",191,a,0.10631547193042934,colour,0.06
101,23,1,1,10,39,489,678.0229867990129,678.5990155434702,"[91, 0, 163]",163,l,0.0533278773073107,colour,0.06
101,23,1,1,10,40,490,679.1168465097435,679.727024031803,"[81, 0, 173]",173,l,0.0868618618696928,colour,0.06
101,23,1,1,10,41,491,680.2306580450386,680.7830158807337,"[76, 0, 178]",178,l,0.033750205766409636,colour,0.06
101,23,1,1,10,42,492,681.2998437220231,682.0389828386251,"[67, 0, 187]",187,l,0.222640136256814,colour,0.06
101,23,1,1,10,43,493,682.5593903427944,683.1510579087771,"[95, 0, 159]",159,l,0.08115976513363421,colour,0.06
101,23,1,1,10,44,494,683.671995135257,684.3030445054173,"[74, 0, 180]",180,l,0.10848083510063589,colour,0.06
101,23,1,1,10,45,495,684.8128110887483,685.7670261426829,"[86, 0, 168]",168,l,0.4439092958346009,colour,0.06
101,23,1,1,10,46,496,686.2854092803318,686.8310307806823,"[89, 0, 165]",165,l,0.022258972516283393,colour,0.06
101,23,1,1,10,47,497,687.3357931617647,687.9190399146173,"[55, 0, 199]",199,a,0.06004530796781182,colour,0.06
101,23,1,1,10,48,498,688.4307292525191,689.0790168510284,"[71, 0, 183]",183,l,0.12495697219856083,colour,0.06
101,23,1,1,10,49,499,689.5985252056271,690.3510227776133,"[58, 0, 196]",196,a,0.22970493859611452,colour,0.06
101,23,1,1,10,50,500,690.8613887941465,691.7589889352676,"[70, 0, 184]",184,l,0.3770654248073697,colour,0.06
101,23,1,1,11,1,501,696.6121896791738,697.423031539889,"[96, 0, 158]",158,l,0.28701853356324136,colour,0.06
101,23,1,1,11,2,502,697.9412020011805,698.847000826383,"[54, 0, 200]",200,l,0.3830057983286679,colour,0.06
101,23,1,1,11,3,503,699.3607704564929,700.3989971114788,"[62, 0, 192]",192,a,0.5155880153179169,colour,0.06
101,23,1,1,11,4,504,700.9169671053533,701.5510018251371,"[55, 0, 199]",199,a,0.10403865040279925,colour,0.06
101,23,1,1,11,5,505,702.0542337221559,702.6951067834161,"[87, 0, 167]",167,l,0.12908644368872046,colour,0.06
101,23,1,1,11,6,506,703.2153662017081,704.1830113907345,"[79, 0, 175]",175,l,0.437798387138173,colour,0.06
101,23,1,1,11,7,507,704.6889986319002,705.2789864463266,"[63, 0, 191]",191,a,0.06723574735224247,colour,0.06
101,23,1,1,11,8,508,705.8011359295342,706.7276596985757,"[70, 0, 184]",184,a,0.4029517152812332,colour,0.06
101,23,1,1,11,9,509,707.2393116208259,707.823024293175,"[76, 0, 178]",178,l,0.06104843271896243,colour,0.06
101,23,1,1,11,10,510,708.333080746932,709.0630578331184,"[6, 0, 248]",248,a,0.2101859503891319,colour,0.06
101,23,1,1,11,11,511,709.568768594414,710.1191209680401,"[51, 0, 203]",203,a,0.027594792656600475,colour,0.06
101,23,1,1,11,12,512,710.6440218568314,711.3029787330888,"[52, 0, 202]",202,a,0.13548407168127596,colour,0.06
101,23,1,1,11,13,513,711.8125885659829,712.4390007979237,"[95, 0, 159]",159,l,0.10148850013501942,colour,0.06
101,23,1,1,11,14,514,712.9494680326898,713.5909854252823,"[77, 0, 177]",177,l,0.10929176304489374,colour,0.06
101,23,1,1,11,15,515,714.1073311998043,714.7111890751403,"[98, 0, 156]",156,l,0.08662437298335135,colour,0.06
101,23,1,1,11,16,516,715.2349245746154,716.1429809229448,"[90, 0, 164]",164,l,0.39022774528712034,colour,0.06
101,23,1,1,11,17,517,716.6602494774852,717.3750111260451,"[71, 0, 183]",183,l,0.19645570451393723,colour,0.06
101,23,1,1,11,18,518,717.884947457118,718.7509379433468,"[57, 0, 197]",197,a,0.33818931854330003,colour,0.06
101,23,1,1,11,19,519,719.2725892120507,720.175108484691,"[92, 0, 162]",162,l,0.3790275636129081,colour,0.06
101,23,1,1,11,20,520,720.6949543650262,721.3829786228016,"[65, 0, 189]",189,l,0.1709364780690521,colour,0.06
101,23,1,1,11,21,521,721.9058744437061,722.4550342527218,"[89, 0, 165]",165,l,0.029901940375566483,colour,0.06
101,23,1,1,11,22,522,722.9647055256646,723.5029782606289,"[84, 0, 170]",170,l,0.013640448916703463,colour,0.06
101,23,1,1,11,23,523,724.0136534457561,724.662985916948,"[60, 0, 194]",194,a,0.13856906443834305,colour,0.06
101,23,1,1,11,24,524,725.1732129058801,725.8389419573359,"[82, 0, 172]",172,l,0.14265403104946017,colour,0.06
101,23,1,1,11,25,525,726.3659900925122,726.9990398043301,"[68, 0, 186]",186,l,0.11945613054558635,colour,0.06
101,23,1,1,11,26,526,727.5147235244513,728.0551198748872,"[74, 0, 180]",180,l,0.03029972454532981,colour,0.06
101,23,1,1,11,27,527,728.564876612043,729.0954784161877,"[8, 0, 246]",246,a,0.007928899955004454,colour,0.06
101,23,1,1,11,28,528,729.6275035780855,730.2469108719379,"[97, 0, 157]",157,l,0.09670248813927174,colour,0.06
101,23,1,1,11,29,529,730.7527441193815,731.6869699331,"[73, 0, 181]",181,l,0.4114166391082108,colour,0.06
101,23,1,1,11,30,530,732.2041156077757,732.7589456122369,"[50, 0, 204]",204,a,0.031912128208205104,colour,0.06
101,23,1,1,11,31,531,733.2689717400353,734.1669405207504,"[78, 0, 176]",176,l,0.3753986703231931,colour,0.06
101,23,1,1,11,32,532,734.6752817768138,735.2389764583204,"[24, 0, 230]",230,a,0.04060036246664822,colour,0.06
101,23,1,1,11,33,533,735.7547168920282,736.4789662812836,"[80, 0, 174]",174,l,0.2043968136422336,colour,0.06
101,23,1,1,11,34,534,737.0215445365757,737.7829824038781,"[59, 0, 195]",195,a,0.24068771745078266,colour,0.06
101,23,1,1,11,35,535,738.2887041927315,738.9829445157666,"[88, 0, 166]",166,l,0.1710999240167439,colour,0.06
101,23,1,1,11,36,536,739.4892058733385,740.2071222253144,"[81, 0, 173]",173,l,0.19520209403708577,colour,0.06
101,23,1,1,11,37,537,740.7235688241199,741.3749146340415,"[69, 0, 185]",185,l,0.13975847815163434,colour,0.06
101,23,1,1,11,38,538,741.929566226434,742.718918689061,"[85, 0, 169]",169,l,0.2667512383777648,colour,0.06
101,23,1,1,11,39,539,743.2265699277632,743.894949166337,"[72, 0, 182]",182,l,0.1476409041788429,colour,0.06
101,23,1,1,11,40,540,744.4121432842221,745.4389921333641,"[66, 0, 188]",188,a,0.5039183699991554,colour,0.06
101,23,1,1,11,41,541,745.9503222838975,746.6708900043741,"[94, 0, 160]",160,l,0.19552150275558233,colour,0.06
101,23,1,1,11,42,542,747.1876406520605,747.8550065259915,"[56, 0, 198]",198,a,0.1443050317466259,colour,0.06
101,23,1,1,11,43,543,748.3665804669727,749.0069285319187,"[93, 0, 161]",161,l,0.13014470669440925,colour,0.06
101,23,1,1,11,44,544,749.5289874307346,750.1669046806637,"[86, 0, 168]",168,l,0.11485365079715848,colour,0.06
101,23,1,1,11,45,545,750.6729001924396,751.4069327067118,"[61, 0, 193]",193,a,0.22355779632925987,colour,0.06
101,23,1,1,11,46,546,751.9200454025995,752.5908920839429,"[91, 0, 163]",163,l,0.13980180118232965,colour,0.06
101,23,1,1,11,47,547,753.100125794299,753.8309303498827,"[75, 0, 179]",179,l,0.20661180117167532,colour,0.06
101,23,1,1,11,48,548,754.3326589383651,755.0549446134828,"[58, 0, 196]",196,a,0.20590721163898706,colour,0.06
101,23,1,1,11,49,549,755.5709906714037,756.2709153681062,"[64, 0, 190]",190,a,0.17849398171529174,colour,0.06
101,23,1,1,11,50,550,756.7883473685943,757.414872240508,"[99, 0, 155]",155,l,0.10375114320777357,colour,0.06
101,23,1,1,12,1,551,762.2992982459255,762.9349347357638,"[84, 0, 170]",170,l,0.11769445915706456,colour,0.06
101,23,1,1,12,2,552,763.4492707161698,763.9908950771205,"[71, 0, 183]",183,l,0.0114668149035424,colour,0.06
101,23,1,1,12,3,553,764.5137097656261,765.2710039834492,"[58, 0, 196]",196,a,0.2405345116276294,colour,0.06
101,23,1,1,12,4,554,765.7810245973524,766.6629323537927,"[87, 0, 167]",167,l,0.36430128244683146,colour,0.06
101,23,1,1,12,5,555,767.1741006339435,767.7189033289906,"[82, 0, 172]",172,l,0.02621515141800046,colour,0.06
101,23,1,1,12,6,556,768.2283532605506,769.1269470741972,"[94, 0, 160]",160,l,0.3802421835716814,colour,0.06
101,23,1,1,12,7,557,769.6364281196147,770.2708751957398,"[60, 0, 194]",194,a,0.11647629481740296,colour,0.06
101,23,1,1,12,8,558,770.7915457889903,771.4869199935347,"[68, 0, 186]",186,l,0.18033363460563123,colour,0.06
101,23,1,1,12,9,559,771.9966948477086,772.6148855523206,"[75, 0, 179]",179,l,0.10561324516311288,colour,0.06
101,23,1,1,12,10,560,773.1155302776024,773.951137150405,"[96, 0, 158]",158,l,0.3098706374876201,colour,0.06
101,23,1,1,12,11,561,774.4538168760482,775.1589312762953,"[64, 0, 190]",190,a,0.18161126971244812,colour,0.06
101,23,1,1,12,12,562,775.6727576202247,776.414879723452,"[21, 0, 233]",233,a,0.21942320512607694,colour,0.06
101,23,1,1,12,13,563,776.929726915434,777.6069267203566,"[81, 0, 173]",173,l,0.1545690423808992,colour,0.06
101,23,1,1,12,14,564,778.1171040846966,778.8629137643147,"[99, 0, 155]",155,l,0.22909881034865975,colour,0.06
101,23,1,1,12,15,565,779.3765167978127,780.0789569865447,"[61, 0, 193]",193,a,0.17971962923184037,colour,0.06
101,23,1,1,12,16,566,780.5954205207527,781.3749563815072,"[51, 0, 203]",203,a,0.256866107461974,colour,0.06
101,23,1,1,12,17,567,781.8864220150281,782.6228959783912,"[76, 0, 178]",178,l,0.21087084780447185,colour,0.06
101,23,1,1,12,18,568,783.1270384464879,783.830873636296,"[73, 0, 181]",181,l,0.18106658128090203,colour,0.06
101,23,1,1,12,19,569,784.3445585896261,785.2069091547746,"[56, 0, 198]",198,a,0.3378517928067595,colour,0.06
101,23,1,1,12,20,570,785.7207406188827,786.4068838700186,"[54, 0, 200]",200,a,0.162966224597767,colour,0.06
101,23,1,1,12,21,571,786.9133827162441,787.5828446366359,"[72, 0, 182]",182,l,0.14612893084995449,colour,0.06
101,23,1,1,12,22,572,788.1010745684616,788.9429136540275,"[52, 0, 202]",202,a,0.32365129538811743,colour,0.06
101,23,1,1,12,23,573,789.4563051925506,790.1908520692959,"[80, 0, 174]",174,l,0.21174518507905304,colour,0.06
101,23,1,1,12,24,574,790.698363492731,791.6550038477872,"[74, 0, 180]",180,l,0.4332104795612395,colour,0.06
101,23,1,1,12,25,575,792.1634577438235,792.8948396772612,"[77, 0, 177]",177,l,0.20339447655715048,colour,0.06
101,23,1,1,12,26,576,793.3948924525175,794.6228825876024,"[55, 0, 199]",199,a,0.7050789543427527,colour,0.06
101,23,1,1,12,27,577,795.1291199205443,795.7428617451806,"[78, 0, 176]",176,l,0.09097242844291031,colour,0.06
101,23,1,1,12,28,578,796.2541387265082,796.8789294960443,"[4, 0, 250]",250,a,0.10424108686856925,colour,0.06
101,23,1,1,12,29,579,797.3806651737541,798.2948548796121,"[97, 0, 157]",157,l,0.39155382313765585,colour,0.06
101,23,1,1,12,30,580,798.8100986741483,799.5348482474219,"[50, 0, 204]",204,a,0.20991537836380303,colour,0.06
101,23,1,1,12,31,581,800.0524866229389,800.7188332246151,"[10, 0, 244]",244,a,0.1436874819919467,colour,0.06
101,23,1,1,12,32,582,801.2246148781851,801.9109152734745,"[83, 0, 171]",171,l,0.1653470213059336,colour,0.06
101,23,1,1,12,33,583,802.4595658404287,803.0468243046198,"[66, 0, 188]",188,l,0.062033440452069044,colour,0.06
101,23,1,1,12,34,584,803.5538067936432,804.1669594252016,"[89, 0, 165]",165,l,0.08963926089927554,colour,0.06
101,23,1,1,12,35,585,804.6789079133887,805.5748527215328,"[92, 0, 162]",162,l,0.37285127700306475,colour,0.06
101,23,1,1,12,36,586,806.0860123368911,806.6468536069151,"[79, 0, 175]",175,l,0.033508384600281715,colour,0.06
101,23,1,1,12,37,587,807.153223665664,808.046883775387,"[65, 0, 189]",189,l,0.3709950824268162,colour,0.06
101,23,1,1,12,38,588,808.5555243543349,809.2708586542867,"[63, 0, 191]",191,a,0.19243335933424532,colour,0.06
101,23,1,1,12,39,589,809.7898538282607,810.470771929482,"[70, 0, 184]",184,l,0.15809474815614522,colour,0.06
101,23,1,1,12,40,590,810.9773857789114,811.6067947819829,"[85, 0, 169]",169,l,0.10512054432183504,colour,0.06
101,23,1,1,12,41,591,812.1195888568182,812.8948908771854,"[59, 0, 195]",195,a,0.24407833418808877,colour,0.06
101,23,1,1,12,42,592,813.4093359527178,814.1348259556107,"[53, 0, 201]",201,a,0.21285661729052663,colour,0.06
101,23,1,1,12,43,593,814.6506238908041,815.2948911134154,"[95, 0, 159]",159,l,0.1213245342951268,colour,0.06
101,23,1,1,12,44,594,815.8070400690194,816.5188549647573,"[57, 0, 197]",197,a,0.1888800843153149,colour,0.06
101,23,1,1,12,45,595,817.0391332875006,817.7028419112321,"[69, 0, 185]",185,l,0.13962929672561586,colour,0.06
101,23,1,1,12,46,596,818.2125135778915,818.9668437133078,"[88, 0, 166]",166,l,0.23361070547252893,colour,0.06
101,23,1,1,12,47,597,819.4670591470785,820.198866433464,"[67, 0, 187]",187,l,0.20924977911636233,colour,0.06
101,23,1,1,12,48,598,820.717132599093,821.3907810982782,"[98, 0, 156]",156,l,0.15116149000823498,colour,0.06
101,23,1,1,12,49,599,821.9005622540135,822.6068605543114,"[93, 0, 161]",161,l,0.15950747253373265,colour,0.06
101,23,1,1,12,50,600,823.1240794842597,823.8708564487752,"[86, 0, 168]",168,l,0.2236196300946176,colour,0.06
101,23,1,1,13,1,601,829.2050285420846,830.0548276414629,"[61, 0, 193]",193,l,0.32814349862746894,colour,0.06
101,23,1,1,13,2,602,830.5660530289169,831.4628233374096,"[88, 0, 166]",166,l,0.3739741307217628,colour,0.06
101,23,1,1,13,3,603,831.972229158273,832.8307468178682,"[99, 0, 155]",155,l,0.29907099693082273,colour,0.06
101,23,1,1,13,4,604,833.3443191314582,834.1111377174966,"[83, 0, 171]",171,l,0.234648882644251,colour,0.06
101,23,1,1,13,5,605,834.626238939818,835.2308809617534,"[92, 0, 162]",162,l,0.08778385445475578,colour,0.06
101,23,1,1,13,6,606,835.7460195992608,836.7669414659031,"[64, 0, 190]",190,l,0.4898714723531157,colour,0.06
101,23,1,1,13,7,607,837.2761141301598,837.9028367123101,"[81, 0, 173]",173,l,0.10799089097417891,colour,0.06
101,23,1,1,13,8,608,838.4232048320118,839.1027842522599,"[91, 0, 163]",163,l,0.1619567982852459,colour,0.06
101,23,1,1,13,9,609,839.6120368670672,840.2949765780941,"[77, 0, 177]",177,l,0.16498350189067423,colour,0.06
101,23,1,1,13,10,610,840.8184387488291,841.4387755182106,"[36, 0, 218]",218,a,0.09941411530598998,colour,0.06
101,23,1,1,13,11,611,841.9541481002234,842.5348265857901,"[54, 0, 200]",200,a,0.062235483434051275,colour,0.06
101,23,1,1,13,12,612,843.0502810876351,843.9028422262054,"[96, 0, 158]",158,l,0.32987838820554316,colour,0.06
101,23,1,1,13,13,613,844.411538731074,844.974790730048,"[82, 0, 172]",172,l,0.04072875599376857,colour,0.06
101,23,1,1,13,14,614,845.4893445069902,846.0708138346672,"[68, 0, 186]",186,l,0.05858098994940519,colour,0.06
101,23,1,1,13,15,615,846.5707835087087,847.2708149375394,"[56, 0, 198]",198,a,0.17741011851467192,colour,0.06
101,23,1,1,13,16,616,847.785462055821,848.6307701335754,"[79, 0, 175]",175,l,0.3209625114686787,colour,0.06
101,23,1,1,13,17,617,849.1342540918849,849.9348795975093,"[73, 0, 181]",181,l,0.2776654879562557,colour,0.06
101,23,1,1,13,18,618,850.4466457350645,851.2947666582186,"[57, 0, 197]",197,a,0.3374217131640762,colour,0.06
101,23,1,1,13,19,619,851.8028574287891,852.4227759342175,"[55, 0, 199]",199,a,0.09561547450721264,colour,0.06
101,23,1,1,13,20,620,852.9309805259109,853.5748401184101,"[76, 0, 178]",178,l,0.12109374068677425,colour,0.06
101,23,1,1,13,21,621,854.0872584644239,854.9667747905478,"[93, 0, 161]",161,l,0.3501827050931752,colour,0.06
101,23,1,1,13,22,622,855.4719806418288,856.1987467044964,"[35, 0, 219]",219,a,0.20358627941459417,colour,0.06
101,23,1,1,13,23,623,856.7068961579353,857.5667938524857,"[74, 0, 180]",180,l,0.33717752899974585,colour,0.06
101,23,1,1,13,24,624,858.0843700007536,858.9347771976609,"[67, 0, 187]",187,l,0.3277468958403915,colour,0.06
101,23,1,1,13,25,625,859.4438860588707,860.2468116229866,"[31, 0, 223]",223,a,0.28513989015482366,colour,0.06
101,23,1,1,13,26,626,860.7546968059614,861.4308422862086,"[65, 0, 189]",189,l,0.1531811305321753,colour,0.06
101,23,1,1,13,27,627,861.9419487323612,862.6068353480659,"[94, 0, 160]",160,l,0.14127990370616317,colour,0.06
101,23,1,1,13,28,628,863.1205143937841,863.766774081625,"[97, 0, 157]",157,l,0.11714937700890005,colour,0.06
101,23,1,1,13,29,629,864.2833278062753,864.9027910262812,"[70, 0, 184]",184,l,0.09619403351098299,colour,0.06
101,23,1,1,13,30,630,865.4139813617803,866.0307424068451,"[51, 0, 203]",203,a,0.09419723623432219,colour,0.06
101,23,1,1,13,31,631,866.5310787509661,867.1987376459874,"[52, 0, 202]",202,a,0.14580558356828988,colour,0.06
101,23,1,1,13,32,632,867.7176761061419,868.3267784295604,"[84, 0, 170]",170,l,0.08456298499368131,colour,0.06
101,23,1,1,13,33,633,868.8468598295003,869.502748648636,"[60, 0, 194]",194,a,0.13237702380865812,colour,0.06
101,23,1,1,13,34,634,870.0205658301711,870.6628004156519,"[86, 0, 168]",168,l,0.13191740587353706,colour,0.06
101,23,1,1,13,35,635,871.1802343854215,871.7747439413797,"[72, 0, 182]",182,l,0.07890027295798063,colour,0.06
101,23,1,1,13,36,636,872.2698334741872,872.9187610719819,"[69, 0, 185]",185,l,0.11822221241891384,colour,0.06
101,23,1,1,13,37,637,873.4158899374306,874.0547764415387,"[66, 0, 188]",188,l,0.12618301389738917,colour,0.06
101,23,1,1,13,38,638,874.5513925198466,875.2227779822424,"[53, 0, 201]",201,a,0.14853138918988407,colour,0.06
101,23,1,1,13,39,639,875.7390245073475,876.5507410992868,"[90, 0, 164]",164,l,0.30099729588255286,colour,0.06
101,23,1,1,13,40,640,877.0704971828964,877.8947699666023,"[50, 0, 204]",204,a,0.293746204348281,colour,0.06
101,23,1,1,13,41,641,878.3962047460955,879.0627451196779,"[98, 0, 156]",156,l,0.14251697272993624,colour,0.06
101,23,1,1,13,42,642,879.5697925931308,880.4227719956543,"[62, 0, 192]",192,l,0.32911669090390205,colour,0.06
101,23,1,1,13,43,643,880.9201962454244,881.5427224026062,"[89, 0, 165]",165,l,0.09501722292043269,colour,0.06
101,23,1,1,13,44,644,882.0483910224866,882.7107842017431,"[87, 0, 167]",167,l,0.14605173701420426,colour,0.06
101,23,1,1,13,45,645,883.2322310644668,883.9027201340068,"[58, 0, 196]",196,a,0.15771586867049336,colour,0.06
101,23,1,1,13,46,646,884.4098605550826,885.3747567019891,"[85, 0, 169]",169,l,0.44154267758131027,colour,0.06
101,23,1,1,13,47,647,885.8954367472325,886.8707642888185,"[75, 0, 179]",179,l,0.4508366461377591,colour,0.06
101,23,1,1,13,48,648,887.3801279682666,888.0947230202146,"[63, 0, 191]",191,a,0.19945129426196218,colour,0.06
101,23,1,1,13,49,649,888.6069302649703,889.2387106125243,"[80, 0, 174]",174,l,0.10898495744913816,colour,0.06
101,23,1,1,13,50,650,889.7539421976544,890.4307426430751,"[59, 0, 195]",195,a,0.15024107275530696,colour,0.06
101,23,1,1,14,1,651,895.3957183468156,896.6867103888653,"[51, 0, 203]",203,a,0.7764134528115392,colour,0.06
101,23,1,1,14,2,652,897.1915991944261,898.0147034381516,"[55, 0, 199]",199,a,0.30497434874996543,colour,0.06
101,23,1,1,14,3,653,898.5219112066552,899.2388421569485,"[98, 0, 156]",156,l,0.19387128972448409,colour,0.06
101,23,1,1,14,4,654,899.7479265998118,900.3666619930882,"[86, 0, 168]",168,l,0.09595575695857406,colour,0.06
101,23,1,1,14,5,655,900.8730225996114,901.5747389001772,"[33, 0, 221]",221,a,0.18472068081609905,colour,0.06
101,23,1,1,14,6,656,902.0856350327376,902.8866996762808,"[97, 0, 157]",157,l,0.2692415243946016,colour,0.06
101,23,1,1,14,7,657,903.3975461842492,904.1587438057177,"[50, 0, 204]",204,a,0.2438038238324225,colour,0.06
101,23,1,1,14,8,658,904.6736055698711,905.3907393505797,"[10, 0, 244]",244,a,0.20683393022045493,colour,0.06
101,23,1,1,14,9,659,905.9113748914097,906.5747325986158,"[95, 0, 159]",159,l,0.14060012623667717,colour,0.06
101,23,1,1,14,10,660,907.0717610334978,907.7187316124327,"[88, 0, 166]",166,l,0.139613936888054,colour,0.06
101,23,1,1,14,11,661,908.2251457818784,908.9427198821213,"[64, 0, 190]",190,l,0.2055913475342095,colour,0.06
101,23,1,1,14,12,662,909.4490670978557,910.022718196502,"[89, 0, 165]",165,l,0.05065484717488289,colour,0.06
101,23,1,1,14,13,663,910.5433553126641,911.3507234549616,"[62, 0, 192]",192,l,0.28476455505006015,colour,0.06
101,23,1,1,14,14,664,911.8664969718084,912.5587105653249,"[58, 0, 196]",196,a,0.1695887385867536,colour,0.06
101,23,1,1,14,15,665,913.0709185977466,913.7747427597642,"[56, 0, 198]",198,a,0.17266821744851768,colour,0.06
101,23,1,1,14,16,666,914.2822695432696,914.8146854001097,"[46, 0, 208]",208,a,0.019533166894689202,colour,0.06
101,23,1,1,14,17,667,915.3353630823549,915.9507102218922,"[69, 0, 185]",185,l,0.09943341370671988,colour,0.06
101,23,1,1,14,18,668,916.4565332292113,917.0467620771378,"[61, 0, 193]",193,a,0.06746260239742696,colour,0.06
101,23,1,1,14,19,669,917.5683680535294,918.1987045630813,"[66, 0, 188]",188,l,0.1201000683940947,colour,0.06
101,23,1,1,14,20,670,918.7135797180235,919.310724494746,"[83, 0, 171]",171,l,0.0743970419280231,colour,0.06
101,23,1,1,14,21,671,919.8294120752253,920.4866683261935,"[53, 0, 201]",201,a,0.14640619838610291,colour,0.06
101,23,1,1,14,22,672,920.9924318627454,921.7027013082989,"[85, 0, 169]",169,l,0.1925660853739828,colour,0.06
101,23,1,1,14,23,673,922.2217291712295,923.262687539449,"[87, 0, 167]",167,l,0.5292154673952609,colour,0.06
101,23,1,1,14,24,674,923.7780447613914,924.374738584971,"[71, 0, 183]",183,l,0.07419815007597208,colour,0.06
101,23,1,1,14,25,675,924.8925561604556,925.4866667506285,"[76, 0, 178]",178,l,0.08370361384004354,colour,0.06
101,23,1,1,14,26,676,926.0052306635771,926.7026536529884,"[96, 0, 158]",158,l,0.17432039976119995,colour,0.06
101,23,1,1,14,27,677,927.1960153852124,927.7906769653782,"[77, 0, 177]",177,l,0.07982856687158346,colour,0.06
101,23,1,1,14,28,678,928.299627500819,929.1106784935109,"[91, 0, 163]",163,l,0.2884308637585491,colour,0.06
101,23,1,1,14,29,679,929.6312100591604,930.5826713445131,"[94, 0, 160]",160,l,0.4289151995908469,colour,0.06
101,23,1,1,14,30,680,931.0888948929496,931.7747506366577,"[70, 0, 184]",184,l,0.1567840299103409,colour,0.06
101,23,1,1,14,31,681,932.2852430776693,932.9347063053865,"[93, 0, 161]",161,l,0.12741575040854514,colour,0.06
101,23,1,1,14,32,682,933.4501312687062,934.126704465365,"[74, 0, 180]",180,l,0.1506538230460137,colour,0.06
101,23,1,1,14,33,683,934.6406395107042,935.478636238724,"[81, 0, 173]",173,l,0.3151721933390945,colour,0.06
101,23,1,1,14,34,684,935.9759391839616,936.5746802170761,"[68, 0, 186]",186,l,0.07567231426946819,colour,0.06
101,23,1,1,14,35,685,937.0855322389398,937.7106739250012,"[79, 0, 175]",175,l,0.10876479768194258,colour,0.06
101,23,1,1,14,36,686,938.229080299614,938.9026740542613,"[59, 0, 195]",195,a,0.14457048382610083,colour,0.06
101,23,1,1,14,37,687,939.4231433921959,940.1108348502312,"[82, 0, 172]",172,l,0.16469638817943633,colour,0.06
101,23,1,1,14,38,688,940.6263756041881,941.3666726269294,"[63, 0, 191]",191,l,0.21742246951907873,colour,0.06
101,23,1,1,14,39,689,941.8765132531989,942.7986050776672,"[67, 0, 187]",187,a,0.3992806803435087,colour,0.06
101,23,1,1,14,40,690,943.313687001355,943.9586694478057,"[60, 0, 194]",194,a,0.1221354624722153,colour,0.06
101,23,1,1,14,41,691,944.4714587961789,945.1027039077599,"[92, 0, 162]",162,l,0.10811377107165754,colour,0.06
101,23,1,1,14,42,692,945.6121625038795,946.2386416895315,"[75, 0, 179]",179,l,0.10284372279420495,colour,0.06
101,23,1,1,14,43,693,946.7532773863059,947.4066637102515,"[54, 0, 200]",200,a,0.13008090388029814,colour,0.06
101,23,1,1,14,44,694,947.9271606174298,948.6386297165882,"[99, 0, 155]",155,l,0.19904405786655843,colour,0.06
101,23,1,1,14,45,695,949.1512910653837,949.7107566324994,"[72, 0, 182]",182,l,0.043911816319450736,colour,0.06
101,23,1,1,14,46,696,950.2223742904607,951.1666443487629,"[84, 0, 170]",170,l,0.4212348163127899,colour,0.06
101,23,1,1,14,47,697,951.6756283610594,952.3507360580843,"[57, 0, 197]",197,a,0.1517034217249602,colour,0.06
101,23,1,1,14,48,698,952.8515985799022,953.4949056070764,"[52, 0, 202]",202,a,0.12357063591480255,colour,0.06
101,23,1,1,14,49,699,954.0120489187539,954.6066384252626,"[65, 0, 189]",189,l,0.07200206676498055,colour,0.06
101,23,1,1,14,50,700,955.1140108213294,955.782618096564,"[80, 0, 174]",174,l,0.14515022444538772,colour,0.06
101,23,1,1,15,1,701,962.7707940635737,963.6821232689545,"[97, 0, 157]",157,l,0.3776152334176004,colour,0.06
101,23,1,1,15,2,702,964.1919611385092,965.0787218606565,"[86, 0, 168]",168,l,0.36168929818086326,colour,0.06
101,23,1,1,15,3,703,965.5849859751761,966.1986265815794,"[84, 0, 170]",170,l,0.09876230079680681,colour,0.06
101,23,1,1,15,4,704,966.7170061746147,967.3506513813045,"[13, 0, 241]",241,a,0.11073205666616559,colour,0.06
101,23,1,1,15,5,705,967.8643182178494,968.4626705253031,"[75, 0, 179]",179,l,0.072019002167508,colour,0.06
101,23,1,1,15,6,706,968.9766599214636,969.8786593179684,"[57, 0, 197]",197,l,0.37898463453166187,colour,0.06
101,23,1,1,15,7,707,970.3902108098846,971.7426337085199,"[81, 0, 173]",173,l,0.8293482719454914,colour,0.06
101,23,1,1,15,8,708,972.2391942548566,972.8786045734305,"[60, 0, 194]",194,a,0.11627543345093727,colour,0.06
101,23,1,1,15,9,709,973.3871167586185,974.0706149425823,"[71, 0, 183]",183,l,0.1515108309686184,colour,0.06
101,23,1,1,15,10,710,974.5916167597752,975.2708771650214,"[61, 0, 193]",193,a,0.14795007300563157,colour,0.06
101,23,1,1,15,11,711,975.7804094103631,976.4306008587591,"[99, 0, 155]",155,l,0.1310946624726057,colour,0.06
101,23,1,1,15,12,712,976.9419692123774,977.614638217492,"[53, 0, 201]",201,a,0.15549182263202965,colour,0.06
101,23,1,1,15,13,713,978.1305952661205,978.9186393737327,"[63, 0, 191]",191,l,0.27015918446704745,colour,0.06
101,23,1,1,15,14,714,979.4296812291723,979.9586469985079,"[59, 0, 195]",195,a,0.004843513248488307,colour,0.06
101,23,1,1,15,15,715,980.4724516810384,981.0066272402182,"[51, 0, 203]",203,a,0.001513548893854022,colour,0.06
101,23,1,1,15,16,716,981.5233940354083,982.0865708098281,"[56, 0, 198]",198,a,0.0448566519189626,colour,0.06
101,23,1,1,15,17,717,982.5942472547758,983.2785792099312,"[98, 0, 156]",156,l,0.1665730627719313,colour,0.06
101,23,1,1,15,18,718,983.7994171872269,984.4948536194861,"[76, 0, 178]",178,l,0.17657437827438116,colour,0.06
101,23,1,1,15,19,719,985.0138921162579,985.7026071792934,"[11, 0, 243]",243,a,0.16343608242459595,colour,0.06
101,23,1,1,15,20,720,986.2198367430829,986.8466310051735,"[70, 0, 184]",184,l,0.11360949254594743,colour,0.06
101,23,1,1,15,21,721,987.3538293214515,987.9985900328029,"[94, 0, 160]",160,l,0.12191215204074979,colour,0.06
101,23,1,1,15,22,722,988.5180755443871,990.7027229696978,"[62, 0, 192]",192,l,1.662047776626423,colour,0.06
101,23,1,1,15,23,723,991.2213215411175,992.1425961358473,"[85, 0, 169]",169,l,0.39795735920779407,colour,0.06
101,23,1,1,15,24,724,992.6603440004401,993.2785606991965,"[54, 0, 200]",200,a,0.0941235872451216,colour,0.06
101,23,1,1,15,25,725,993.7973361071199,994.5986425718293,"[64, 0, 190]",190,l,0.27551666647195816,colour,0.06
101,23,1,1,15,26,726,995.1127658754122,996.1266213639174,"[55, 0, 199]",199,a,0.49125268892385066,colour,0.06
101,23,1,1,15,27,727,996.644273130456,997.9585627156775,"[66, 0, 188]",188,l,0.7918695299886167,colour,0.06
101,23,1,1,15,28,728,998.4579565871973,999.062619876815,"[79, 0, 175]",175,l,0.08205143152736127,colour,0.06
101,23,1,1,15,29,729,999.5828989872243,1000.2145919010509,"[69, 0, 185]",185,l,0.10520876571536064,colour,0.06
101,23,1,1,15,30,730,1000.7234085290693,1001.3666237900034,"[65, 0, 189]",189,l,0.11780394846573472,colour,0.06
101,23,1,1,15,31,731,1001.881798661314,1002.7986243760679,"[82, 0, 172]",172,l,0.3942055858206004,colour,0.06
101,23,1,1,15,32,732,1003.3140355548821,1004.0394743578508,"[78, 0, 176]",176,l,0.20693987468257546,colour,0.06
101,23,1,1,15,33,733,1004.5576735697687,1005.4386250693351,"[50, 0, 204]",204,a,0.35805134661495686,colour,0.06
101,23,1,1,15,34,734,1005.948455455713,1007.1985765632708,"[91, 0, 163]",163,l,0.7353440201841295,colour,0.06
101,23,1,1,15,35,735,1007.7094337050803,1008.7025819730479,"[58, 0, 196]",196,a,0.47008348745293915,colour,0.06
101,23,1,1,15,36,736,1009.2120653814636,1010.0705172689632,"[83, 0, 171]",171,l,0.33314336836338043,colour,0.06
101,23,1,1,15,37,737,1010.5813826816157,1011.1985226063989,"[96, 0, 158]",158,l,0.09402709500864148,colour,0.06
101,23,1,1,15,38,738,1011.7065259430092,1012.3185876223724,"[88, 0, 166]",166,l,0.08920130459591746,colour,0.06
101,23,1,1,15,39,739,1012.8316459674388,1013.4865801045671,"[73, 0, 181]",181,l,0.13872542092576623,colour,0.06
101,23,1,1,15,40,740,1014.0048092487268,1014.5745782109443,"[92, 0, 162]",162,l,0.03770796023309231,colour,0.06
101,23,1,1,15,41,741,1015.0928439828567,1015.7025870929938,"[67, 0, 187]",187,l,0.08027006778866053,colour,0.06
101,23,1,1,15,42,742,1016.2103171008639,1017.1265477146953,"[87, 0, 167]",167,l,0.39364474965259433,colour,0.06
101,23,1,1,15,43,743,1017.6229278796818,1018.2545573844109,"[48, 0, 206]",206,a,0.1090846003498882,colour,0.06
101,23,1,1,15,44,744,1018.7688555554487,1019.3585873702541,"[68, 0, 186]",186,l,0.07814448303543031,colour,0.06
101,23,1,1,15,45,745,1019.85888157296,1020.51857021451,"[89, 0, 165]",165,l,0.1370456696022302,colour,0.06
101,23,1,1,15,46,746,1021.0308097545058,1022.1185258673504,"[74, 0, 180]",180,l,0.564016453223303,colour,0.06
101,23,1,1,15,47,747,1022.6289990099613,1023.4467851563822,"[77, 0, 177]",177,l,0.29411681299097836,colour,0.06
101,23,1,1,15,48,748,1023.9559432484675,1024.686578844441,"[72, 0, 182]",182,l,0.20740736951120198,colour,0.06
101,23,1,1,15,49,749,1025.1965754337143,1025.966744070407,"[52, 0, 202]",202,a,0.25487324851565063,colour,0.06
101,23,1,1,15,50,750,1026.4854056569748,1027.1426347326487,"[90, 0, 164]",164,l,0.13471489120274782,colour,0.06
101,23,1,1,16,1,751,1034.1222189576365,1034.902558263624,"[66, 0, 188]",188,l,0.25646596029400826,colour,0.06
101,23,1,1,16,2,752,1035.4137210296467,1036.0785261194687,"[55, 0, 199]",199,a,0.1463951705954969,colour,0.06
101,23,1,1,16,3,753,1036.595817910973,1037.1828172248788,"[24, 0, 230]",230,a,0.06995013123378158,colour,0.06
101,23,1,1,16,4,754,1037.7042865369003,1038.3025285676122,"[69, 0, 185]",185,l,0.06702622142620385,colour,0.06
101,23,1,1,16,5,755,1038.8171500859316,1039.3668061406352,"[90, 0, 164]",164,l,0.030282789142802358,colour,0.06
101,23,1,1,16,6,756,1039.887692954857,1040.438712109113,"[87, 0, 167]",167,l,0.029766851337626576,colour,0.06
101,23,1,1,16,7,757,1040.9606233157683,1041.614534636028,"[89, 0, 165]",165,l,0.13531314278952777,colour,0.06
101,23,1,1,16,8,758,1042.1381114157848,1042.9186055029277,"[84, 0, 170]",170,l,0.2561906622722745,colour,0.06
101,23,1,1,16,9,759,1043.4168973944616,1044.2385270805098,"[76, 0, 178]",178,l,0.29864564375020564,colour,0.06
101,23,1,1,16,10,760,1044.7494047023356,1045.326597260544,"[54, 0, 200]",200,a,0.05680395849049091,colour,0.06
101,23,1,1,16,11,761,1045.8356171126943,1047.0545168970712,"[56, 0, 198]",198,a,0.7009569660294801,colour,0.06
101,23,1,1,16,12,762,1047.5685567054898,1048.3266594882589,"[59, 0, 195]",195,a,0.23960070358589292,colour,0.06
101,23,1,1,16,13,763,1048.8388293175958,1049.4147044622805,"[53, 0, 201]",201,a,0.04375703516416252,colour,0.06
101,23,1,1,16,14,764,1049.9374510154594,1050.5585813838989,"[57, 0, 197]",197,a,0.10231478814966977,colour,0.06
101,23,1,1,16,15,765,1051.0700485927518,1051.638797888765,"[96, 0, 158]",158,l,0.035998276667669415,colour,0.06
101,23,1,1,16,16,766,1052.1548313435633,1052.7745021199808,"[85, 0, 169]",169,l,0.10160035220906138,colour,0.06
101,23,1,1,16,17,767,1053.2888440079987,1054.038643343607,"[68, 0, 186]",186,l,0.2262934478931129,colour,0.06
101,23,1,1,16,18,768,1054.5509585021064,1055.1184998736717,"[78, 0, 176]",176,l,0.04973206692375243,colour,0.06
101,23,1,1,16,19,769,1055.636874346761,1056.2785138315521,"[50, 0, 204]",204,a,0.11664249771274626,colour,0.06
101,23,1,1,16,20,770,1056.789660450071,1057.3904916218016,"[93, 0, 161]",161,l,0.08115306962281466,colour,0.06
101,23,1,1,16,21,771,1057.9070429834537,1058.5665295822546,"[79, 0, 175]",175,l,0.1364844397176057,colour,0.06
101,23,1,1,16,22,772,1059.0879240634385,1059.702519745566,"[61, 0, 193]",193,a,0.09695573104545474,colour,0.06
101,23,1,1,16,23,773,1060.2184212619904,1061.142502794275,"[75, 0, 179]",179,l,0.4000274115242064,colour,0.06
101,23,1,1,16,24,774,1061.6520283443388,1062.4225467159413,"[52, 0, 202]",202,a,0.2513392718974501,colour,0.06
101,23,1,1,16,25,775,1062.9387298321817,1063.6545056332834,"[83, 0, 171]",171,l,0.19077526940964162,colour,0.06
101,23,1,1,16,26,776,1064.1731849429198,1064.830520750489,"[63, 0, 191]",191,a,0.13836071989499032,colour,0.06
101,23,1,1,16,27,777,1065.3450355366804,1065.9185137369204,"[73, 0, 181]",181,l,0.05493791797198355,colour,0.06
101,23,1,1,16,28,778,1066.4387514935806,1067.054499567952,"[65, 0, 189]",189,a,0.09800611715763807,colour,0.06
101,23,1,1,16,29,779,1067.5629144732375,1068.1984859786462,"[97, 0, 157]",157,l,0.10492125828750432,colour,0.06
101,23,1,1,16,30,780,1068.718628818635,1069.3346324986778,"[51, 0, 203]",203,a,0.09778083744458854,colour,0.06
101,23,1,1,16,31,781,1069.850237449631,1070.5345024508424,"[98, 0, 156]",156,l,0.16588777117431164,colour,0.06
101,23,1,1,16,32,782,1071.056982370792,1071.7985164623242,"[58, 0, 196]",196,a,0.22253970545716584,colour,0.06
101,23,1,1,16,33,783,1072.3113022663165,1073.0146223059855,"[86, 0, 168]",168,l,0.18395425705239177,colour,0.06
101,23,1,1,16,34,784,1073.5227552179713,1074.2146525534336,"[70, 0, 184]",184,a,0.17895399336703122,colour,0.06
101,23,1,1,16,35,785,1074.7271232807543,1075.3507289688569,"[60, 0, 194]",194,a,0.10739382123574615,colour,0.06
101,23,1,1,16,36,786,1075.861108376179,1076.4307339785155,"[5, 0, 249]",249,a,0.05574963381513953,colour,0.06
101,23,1,1,16,37,787,1076.9453767645173,1077.526505021844,"[99, 0, 155]",155,l,0.05783268320374191,colour,0.06
101,23,1,1,16,38,788,1078.039510591654,1078.766562192468,"[64, 0, 190]",190,l,0.21096221986226737,colour,0.06
101,23,1,1,16,39,789,1079.2869484291878,1079.91857045074,"[72, 0, 182]",182,l,0.10893415147438645,colour,0.06
101,23,1,1,16,40,790,1080.427836456336,1081.0706984379794,"[42, 0, 212]",212,a,0.1197105550672859,colour,0.06
101,23,1,1,16,41,791,1081.5843140746001,1082.158607535297,"[81, 0, 173]",173,l,0.05166348582133651,colour,0.06
101,23,1,1,16,42,792,1082.677927631652,1083.4706242373213,"[74, 0, 180]",180,l,0.2694809823296964,colour,0.06
101,23,1,1,16,43,793,1083.9781116363592,1084.5824921447784,"[95, 0, 159]",159,l,0.08652354846708477,colour,0.06
101,23,1,1,16,44,794,1085.090366693912,1085.6945762734395,"[88, 0, 166]",166,l,0.08652118546888232,colour,0.06
101,23,1,1,16,45,795,1086.2101981595624,1086.8384500441607,"[71, 0, 183]",183,l,0.10494607058353722,colour,0.06
101,23,1,1,16,46,796,1087.3384819456842,1088.1184537936933,"[62, 0, 192]",192,l,0.2564569020178169,colour,0.06
101,23,1,1,16,47,797,1088.638082271209,1089.2704600826837,"[91, 0, 163]",163,l,0.10667072073556483,colour,0.06
101,23,1,1,16,48,798,1089.7694140286185,1090.6307366567198,"[92, 0, 162]",162,l,0.3382192507851869,colour,0.06
101,23,1,1,16,49,799,1091.1445633945987,1091.6945089257788,"[80, 0, 174]",174,l,0.0272348178550601,colour,0.06
101,23,1,1,16,50,800,1092.2071816958487,1092.7744895170908,"[94, 0, 160]",160,l,0.044409637339413166,colour,0.06
