id,age,condition,counterbalance,block,trialinblock,trial,tstart,tend,trialstim,trialintensity,response,RT,trialtype,colourfreq
137,20,0,1,Practice,1,NA,5.900044925510883e-06,0.8982764000538737,"[93, 0, 161]",161,l,0.3428643000079319,colour,0.5
137,20,0,1,Practice,2,NA,1.4101642000023276,1.9862712000031024,"[34, 0, 220]",220,a,0.05277319997549057,colour,0.5
137,20,0,1,Practice,3,NA,2.5038213001098484,3.4502671000082046,"[23, 0, 231]",231,a,0.42314209998585284,colour,0.5
137,20,0,1,Practice,4,NA,3.956824900000356,4.914232600014657,"[60, 0, 194]",194,a,0.4342077999608591,colour,0.5
137,20,0,1,Practice,5,NA,5.4258305000839755,6.3783100000582635,"[50, 0, 204]",204,a,0.42965429998002946,colour,0.5
137,20,0,1,Practice,6,NA,6.894195200060494,7.794287700089626,"[4, 0, 250]",250,a,0.3774651000276208,colour,0.5
137,20,0,1,Practice,7,NA,8.315913200029172,9.218236200045794,"[27, 0, 227]",227,a,0.3790794999804348,colour,0.5
137,20,0,1,Practice,8,NA,9.737666800036095,10.642281800042838,"[89, 0, 165]",165,l,0.3813990999478847,colour,0.5
137,20,0,1,Practice,9,NA,11.156222900026478,12.10626350005623,"[72, 0, 182]",182,l,0.4267835000064224,colour,0.5
137,20,0,1,Practice,10,NA,12.624875800102018,13.522251500049606,"[35, 0, 219]",219,a,0.3740554000250995,colour,0.5
137,20,0,1,1,1,1,4.330870499950834,5.407988399965689,"[60, 0, 194]",194,a,0.5529679999453947,colour,0.5
137,20,0,1,1,2,2,5.9140494000166655,6.840011299937032,"[28, 0, 226]",226,a,0.4025765999685973,colour,0.5
137,20,0,1,1,3,3,7.351414700038731,8.191941499942914,"[25, 0, 229]",229,a,0.3172564000124112,colour,0.5
137,20,0,1,1,4,4,8.710626299958676,9.599971399991773,"[78, 0, 176]",176,l,0.36661030002869666,colour,0.5
137,20,0,1,1,5,5,10.117476599989459,11.008000200032257,"[38, 0, 216]",216,a,0.36782460007816553,colour,0.5
137,20,0,1,1,6,6,11.523546900018118,12.416030999971554,"[70, 0, 184]",184,l,0.3690777999581769,colour,0.5
137,20,0,1,1,7,7,12.929796500015073,13.807942099985667,"[45, 0, 209]",209,a,0.36047990003135055,colour,0.5
137,20,0,1,1,8,8,14.317563000018708,15.183983099996112,"[44, 0, 210]",210,a,0.34304089995566756,colour,0.5
137,20,0,1,1,9,9,15.692420199979097,16.535975900013,"[43, 0, 211]",211,a,0.31943749997299165,colour,0.5
137,20,0,1,1,10,10,17.05241110001225,17.95200119994115,"[21, 0, 233]",233,a,0.37621609994675964,colour,0.5
137,20,0,1,1,11,11,18.45854290004354,19.312019099947065,"[29, 0, 225]",225,a,0.3304748999653384,colour,0.5
137,20,0,1,1,12,12,19.81784269993659,20.703946199966595,"[85, 0, 169]",169,l,0.3664806999731809,colour,0.5
137,20,0,1,1,13,13,21.22103709995281,22.10398150002584,"[14, 0, 240]",240,a,0.3595803000498563,colour,0.5
137,20,0,1,1,14,14,22.611657200031914,23.46395919995848,"[97, 0, 157]",157,l,0.32906179991550744,colour,0.5
137,20,0,1,1,15,15,23.970888399984688,24.967960400041193,"[56, 0, 198]",198,a,0.47147680004127324,colour,0.5
137,20,0,1,1,16,16,25.48869210004341,26.39999289996922,"[58, 0, 196]",196,l,0.38771099993027747,colour,0.5
137,20,0,1,1,17,17,26.900249999947846,27.783982099965215,"[41, 0, 213]",213,a,0.3609524000203237,colour,0.5
137,20,0,1,1,18,18,28.290874899947084,29.23999339994043,"[50, 0, 204]",204,a,0.4258043000008911,colour,0.5
137,20,0,1,1,19,19,29.75945759995375,30.592028200044297,"[46, 0, 208]",208,a,0.3093478000955656,colour,0.5
137,20,0,1,1,20,20,31.10310780000873,31.98394740000367,"[69, 0, 185]",185,l,0.3575189000694081,colour,0.5
137,20,0,1,1,21,21,32.49358939996455,33.407990999985486,"[83, 0, 171]",171,l,0.3910217999946326,colour,0.5
137,20,0,1,1,22,22,33.91539660003036,34.831931599997915,"[7, 0, 247]",247,a,0.3932508999714628,colour,0.5
137,20,0,1,1,23,23,35.352623200044036,36.27194599993527,"[98, 0, 156]",156,l,0.395876899943687,colour,0.5
137,20,0,1,1,24,24,36.790133900009096,37.69593399995938,"[8, 0, 246]",246,a,0.38234609994105995,colour,0.5
137,20,0,1,1,25,25,38.211914799991064,39.08800260000862,"[90, 0, 164]",164,l,0.35268979996908456,colour,0.5
137,20,0,1,1,26,26,39.602773700025864,40.54399050003849,"[67, 0, 187]",187,l,0.4173724000575021,colour,0.5
137,20,0,1,1,27,27,41.05697399994824,41.99198149994481,"[96, 0, 158]",158,l,0.4117296999320388,colour,0.5
137,20,0,1,1,28,28,42.51007119996939,43.41593629994895,"[87, 0, 167]",167,l,0.38360419997479767,colour,0.5
137,20,0,1,1,29,29,43.931656699976884,44.98400799999945,"[77, 0, 177]",177,l,0.5303302999818698,colour,0.5
137,20,0,1,1,30,30,45.49637499998789,46.36000129999593,"[55, 0, 199]",199,a,0.3384191000368446,colour,0.5
137,20,0,1,1,31,31,46.87383920000866,47.71199480001815,"[86, 0, 168]",168,l,0.314823399996385,colour,0.5
137,20,0,1,1,32,32,48.217436900013126,49.15194879996125,"[33, 0, 221]",221,a,0.4110281999455765,colour,0.5
137,20,0,1,1,33,33,49.65819600003306,50.599977700039744,"[61, 0, 193]",193,l,0.41855110006872565,colour,0.5
137,20,0,1,1,34,34,51.111245600041,51.983951000031084,"[3, 0, 251]",251,a,0.3494478000793606,colour,0.5
137,20,0,1,1,35,35,52.501759900012985,53.34398789994884,"[19, 0, 235]",235,a,0.31883699994068593,colour,0.5
137,20,0,1,1,36,36,53.86093820002861,54.67994349997025,"[9, 0, 245]",245,a,0.2959268999984488,colour,0.5
137,20,0,1,1,37,37,55.18632430001162,56.087980999960564,"[37, 0, 217]",217,a,0.3770055000204593,colour,0.5
137,20,0,1,1,38,38,56.59430070000235,57.53599849995226,"[64, 0, 190]",190,l,0.41842779994476587,colour,0.5
137,20,0,1,1,39,39,58.047538599930704,58.90395469998475,"[92, 0, 162]",162,l,0.33336719998624176,colour,0.5
137,20,0,1,1,40,40,59.42219459998887,60.36793750000652,"[62, 0, 192]",192,l,0.42692510003689677,colour,0.5
137,20,0,1,1,41,41,60.88121889997274,61.7199271999998,"[15, 0, 239]",239,a,0.31547889998182654,colour,0.5
137,20,0,1,1,42,42,62.24043420003727,63.07195410004351,"[32, 0, 222]",222,a,0.3081517000682652,colour,0.5
137,20,0,1,1,43,43,63.584092000033706,64.29594350000843,"[31, 0, 223]",223,a,0.1885924000525847,colour,0.5
137,20,0,1,1,44,44,64.80266339995433,65.64794199995231,"[82, 0, 172]",172,l,0.3219188000075519,colour,0.5
137,20,0,1,1,45,45,66.16196019994095,67.16794199997094,"[71, 0, 183]",183,l,0.4825882000150159,colour,0.5
137,20,0,1,1,46,46,67.6670561999781,68.51992650004104,"[89, 0, 165]",165,l,0.3296308000572026,colour,0.5
137,20,0,1,1,47,47,69.02629339997657,69.87997679994442,"[11, 0, 243]",243,a,0.3385887999320403,colour,0.5
137,20,0,1,1,48,48,70.3928691999754,71.31199650000781,"[1, 0, 253]",253,a,0.39582039997912943,colour,0.5
137,20,0,1,1,49,49,71.83035679999739,72.69594190001953,"[5, 0, 249]",249,a,0.3424830000149086,colour,0.5
137,20,0,1,1,50,50,73.20526550000068,74.07992990000639,"[30, 0, 224]",224,a,0.3514380999840796,colour,0.5
137,20,0,1,2,1,51,79.1883211999666,80.04794109996874,"[95, 0, 159]",159,l,0.3354956000111997,colour,0.5
137,20,0,1,2,2,52,80.56405179994181,81.4559397000121,"[73, 0, 181]",181,l,0.3687639000127092,colour,0.5
137,20,0,1,2,3,53,81.97027459996752,82.78392069996335,"[64, 0, 190]",190,l,0.2910058000124991,colour,0.5
137,20,0,1,2,4,54,83.29825520003214,84.23193220002577,"[99, 0, 155]",155,l,0.41049120004754514,colour,0.5
137,20,0,1,2,5,55,84.75127410003915,85.59995860001072,"[26, 0, 228]",228,a,0.32547130004968494,colour,0.5
137,20,0,1,2,6,56,86.11039479996543,87.00797619996592,"[48, 0, 206]",206,a,0.374329200014472,colour,0.5
137,20,0,1,2,7,57,87.51662200002465,88.37595469993539,"[80, 0, 174]",174,l,0.33605879999231547,colour,0.5
137,20,0,1,2,8,58,88.89145839994308,89.69596819998696,"[47, 0, 207]",207,a,0.2815548999933526,colour,0.5
137,20,0,1,2,9,59,90.20388629997615,91.11989630002063,"[3, 0, 251]",251,a,0.3935841000638902,colour,0.5
137,20,0,1,2,10,60,91.64121419994626,92.44789279997349,"[83, 0, 171]",171,l,0.28191989997867495,colour,0.5
137,20,0,1,2,11,61,92.95539619994815,93.75192349997815,"[71, 0, 183]",183,l,0.2735660000471398,colour,0.5
137,20,0,1,2,12,62,94.26761119998991,95.12794379994739,"[39, 0, 215]",215,a,0.33694670000113547,colour,0.5
137,20,0,1,2,13,63,95.64271179994103,96.47189659997821,"[87, 0, 167]",167,l,0.30613149993587285,colour,0.5
137,20,0,1,2,14,64,96.98625419999007,97.83991390001029,"[65, 0, 189]",189,l,0.3305932000512257,colour,0.5
137,20,0,1,2,15,65,98.3611359000206,99.04790679994039,"[23, 0, 231]",231,a,0.16350079991389066,colour,0.5
137,20,0,1,2,16,66,99.5641969999997,100.4479008000344,"[0, 0, 254]",254,a,0.35977300000377,colour,0.5
137,20,0,1,2,17,67,100.95666779996827,101.87190849997569,"[54, 0, 200]",200,a,0.3905479999957606,colour,0.5
137,20,0,1,2,18,68,102.38253870001063,103.21591080003418,"[81, 0, 173]",173,l,0.31000380008481443,colour,0.5
137,20,0,1,2,19,69,103.72623100003693,104.55992549995426,"[79, 0, 175]",175,l,0.31018179992679507,colour,0.5
137,20,0,1,2,20,70,105.07232249993831,105.95993310003541,"[8, 0, 246]",246,a,0.3646856000414118,colour,0.5
137,20,0,1,2,21,71,106.4667269999627,107.1519417000236,"[90, 0, 164]",164,l,0.16170430008787662,colour,0.5
137,20,0,1,2,22,72,107.67002620000858,108.5438968000235,"[66, 0, 188]",188,l,0.35117470007389784,colour,0.5
137,20,0,1,2,23,73,109.06054079998285,109.91188639996108,"[28, 0, 226]",226,a,0.3372199999867007,colour,0.5
137,20,0,1,2,24,74,110.4261374999769,111.34390420001,"[86, 0, 168]",168,l,0.3945277000311762,colour,0.5
137,20,0,1,2,25,75,111.86348389997147,112.72790479997639,"[19, 0, 235]",235,a,0.34140100004151464,colour,0.5
137,20,0,1,2,26,76,113.23841520003043,114.09594409994315,"[36, 0, 218]",218,a,0.3343761999858543,colour,0.5
137,20,0,1,2,27,77,114.6106495000422,115.46389240003191,"[17, 0, 237]",237,a,0.33009320008568466,colour,0.5
137,20,0,1,2,28,78,115.96979070000816,116.77588139998261,"[69, 0, 185]",185,l,0.28266509994864464,colour,0.5
137,20,0,1,2,29,79,117.28233169997111,118.11193080001976,"[75, 0, 179]",179,l,0.306387500022538,colour,0.5
137,20,0,1,2,30,80,118.62748309993185,119.4878955000313,"[96, 0, 158]",158,l,0.3374984000110999,colour,0.5
137,20,0,1,2,31,81,120.00235670001712,120.95988879993092,"[5, 0, 249]",249,a,0.4341894999379292,colour,0.5
137,20,0,1,2,32,82,121.47118340001907,122.39986320002936,"[84, 0, 170]",170,l,0.40559780003968626,colour,0.5
137,20,0,1,2,33,83,122.89764600002673,123.76791379996575,"[6, 0, 248]",248,a,0.34693909995257854,colour,0.5
137,20,0,1,2,34,84,124.28813709993847,125.13586269994266,"[16, 0, 238]",238,a,0.32454199995845556,colour,0.5
137,20,0,1,2,35,85,125.64745279995259,126.54389269999228,"[20, 0, 234]",234,a,0.37303729995619506,colour,0.5
137,20,0,1,2,36,86,127.05360879993532,127.9999097000109,"[34, 0, 220]",220,a,0.4237110000103712,colour,0.5
137,20,0,1,2,37,87,128.5064652999863,129.431949299993,"[44, 0, 210]",210,a,0.4020656000357121,colour,0.5
137,20,0,1,2,38,88,129.9337204999756,130.78388649993576,"[42, 0, 212]",212,a,0.3268480999395251,colour,0.5
137,20,0,1,2,39,89,131.29308279999532,132.1519664999796,"[13, 0, 241]",241,a,0.3469416999723762,colour,0.5
137,20,0,1,2,40,90,132.6722260999959,133.5838862999808,"[98, 0, 156]",156,l,0.38830019999295473,colour,0.5
137,20,0,1,2,41,91,134.09407180000562,134.97586889995728,"[67, 0, 187]",187,l,0.35875429993029684,colour,0.5
137,20,0,1,2,42,92,135.48098039999604,136.327922699973,"[30, 0, 224]",224,a,0.32358409999869764,colour,0.5
137,20,0,1,2,43,93,136.84225979994517,137.7519344999455,"[63, 0, 191]",191,l,0.3937078999588266,colour,0.5
137,20,0,1,2,44,94,138.2723818999948,139.17590789997485,"[94, 0, 160]",160,l,0.3843528999714181,colour,0.5
137,20,0,1,2,45,95,139.6899191000266,140.5039148000069,"[18, 0, 236]",236,a,0.2911104999948293,colour,0.5
137,20,0,1,2,46,96,141.0178759000264,141.8638859000057,"[89, 0, 165]",165,l,0.32338149996940047,colour,0.5
137,20,0,1,2,47,97,142.37716819997877,143.19983289996162,"[45, 0, 209]",209,a,0.29934819997288287,colour,0.5
137,20,0,1,2,48,98,143.72073689999525,144.63187449995894,"[11, 0, 243]",243,a,0.3877947999862954,colour,0.5
137,20,0,1,2,49,99,145.14254719996825,146.0318760999944,"[15, 0, 239]",239,a,0.36603989999275655,colour,0.5
137,20,0,1,2,50,100,146.55098529998213,147.4159000000218,"[62, 0, 192]",192,l,0.3416064999764785,colour,0.5
137,20,0,1,3,1,101,152.95590359997004,153.8398431999376,"[66, 0, 188]",188,l,0.3600096999434754,colour,0.5
137,20,0,1,3,2,102,154.34729830001015,155.16784779995214,"[45, 0, 209]",209,a,0.2975384999299422,colour,0.5
137,20,0,1,3,3,103,155.6752655999735,156.50387360004243,"[82, 0, 172]",172,l,0.305385300074704,colour,0.5
137,20,0,1,3,4,104,157.01889239996672,157.89587889995892,"[53, 0, 201]",201,a,0.35383019992150366,colour,0.5
137,20,0,1,3,5,105,158.40930019994266,159.27183919993695,"[58, 0, 196]",196,l,0.3391610999824479,colour,0.5
137,20,0,1,3,6,106,159.78418980003335,160.66390199994203,"[74, 0, 180]",180,l,0.3563579999608919,colour,0.5
137,20,0,1,3,7,107,161.17465329996776,162.1118628999684,"[92, 0, 162]",162,l,0.4139238999923691,colour,0.5
137,20,0,1,3,8,108,162.62769640004262,163.43186599994078,"[42, 0, 212]",212,a,0.2812284999527037,colour,0.5
137,20,0,1,3,9,109,163.9401257999707,164.66388669994194,"[70, 0, 184]",184,l,0.20036409993190318,colour,0.5
137,20,0,1,3,10,110,165.17435470002238,166.00784400000703,"[3, 0, 251]",251,a,0.32259270001668483,colour,0.5
137,20,0,1,3,11,111,166.5212126999395,167.51186540001072,"[28, 0, 226]",226,a,0.4673378000734374,colour,0.5
137,20,0,1,3,12,112,168.02114560001064,168.84787739999592,"[68, 0, 186]",186,l,0.31132600002456456,colour,0.5
137,20,0,1,3,13,113,169.34661060001235,170.13587490003556,"[5, 0, 249]",249,a,0.26615220005623996,colour,0.5
137,20,0,1,3,14,114,170.64352469996084,171.48785449995194,"[37, 0, 217]",217,a,0.3212335999123752,colour,0.5
137,20,0,1,3,15,115,172.00451260001864,172.78386059997138,"[72, 0, 182]",182,l,0.2563166000181809,colour,0.5
137,20,0,1,3,16,116,173.30122569995,174.08792119997088,"[50, 0, 204]",204,a,0.26333989994600415,colour,0.5
137,20,0,1,3,17,117,174.5980019000126,175.43185880000237,"[57, 0, 197]",197,a,0.31054740003310144,colour,0.5
137,20,0,1,3,18,118,175.94433199998457,176.58389599993825,"[90, 0, 164]",164,l,0.11680560000240803,colour,0.5
137,20,0,1,3,19,119,177.10043009999208,177.98386909998953,"[20, 0, 234]",234,a,0.360204300028272,colour,0.5
137,20,0,1,3,20,120,178.4909424999496,179.28785800002515,"[26, 0, 228]",228,a,0.2848558999830857,colour,0.5
137,20,0,1,3,21,121,179.80834520002827,180.73584340000525,"[61, 0, 193]",193,l,0.41288439999334514,colour,0.5
137,20,0,1,3,22,122,181.25304009998217,182.07989269995596,"[64, 0, 190]",190,l,0.30026940000243485,colour,0.5
137,20,0,1,3,23,123,182.59960049996153,183.22389619995374,"[10, 0, 244]",244,a,0.1008416999829933,colour,0.5
137,20,0,1,3,24,124,183.74022249993868,184.67185699997935,"[85, 0, 169]",169,l,0.40835519996471703,colour,0.5
137,20,0,1,3,25,125,185.1776286000386,186.06385269993916,"[35, 0, 219]",219,a,0.376019399962388,colour,0.5
137,20,0,1,3,26,126,186.5713931999635,187.471865599975,"[40, 0, 214]",214,a,0.3773094000061974,colour,0.5
137,20,0,1,3,27,127,187.98429209995084,188.8718566999305,"[79, 0, 175]",175,l,0.36415389995090663,colour,0.5
137,20,0,1,3,28,128,189.39196979999542,190.26386389997788,"[97, 0, 157]",157,l,0.3485556000377983,colour,0.5
137,20,0,1,3,29,129,190.78242449997924,191.62381260003895,"[46, 0, 208]",208,a,0.3167781000956893,colour,0.5
137,20,0,1,3,30,130,192.14308690000325,192.93586139997933,"[41, 0, 213]",213,a,0.2776702999835834,colour,0.5
137,20,0,1,3,31,131,193.4482088999357,194.16786619997583,"[96, 0, 158]",158,l,0.19617679994553328,colour,0.5
137,20,0,1,3,32,132,194.68248109996784,195.40783659997396,"[30, 0, 224]",224,a,0.20184260001406074,colour,0.5
137,20,0,1,3,33,133,195.9167271000333,196.69585859996732,"[91, 0, 163]",163,l,0.25569120002910495,colour,0.5
137,20,0,1,3,34,134,197.2136143000098,198.10385590000078,"[59, 0, 195]",195,l,0.36739170004148036,colour,0.5
137,20,0,1,3,35,135,198.61961339996196,199.45579559996258,"[62, 0, 192]",192,l,0.3126693000085652,colour,0.5
137,20,0,1,3,36,136,199.96331339993048,200.7998831999721,"[88, 0, 166]",166,l,0.3134606999810785,colour,0.5
137,20,0,1,3,37,137,201.30702840001322,202.1919101999374,"[2, 0, 252]",252,a,0.36175019992515445,colour,0.5
137,20,0,1,3,38,138,202.71309560001828,203.55987709993497,"[18, 0, 236]",236,a,0.32355809991713613,colour,0.5
137,20,0,1,3,39,139,204.07233270001598,204.94380400003865,"[80, 0, 174]",174,l,0.3483819999964908,colour,0.5
137,20,0,1,3,40,140,205.45999350002967,206.30377150001004,"[39, 0, 215]",215,a,0.32043960003647953,colour,0.5
137,20,0,1,3,41,141,206.82172679994255,207.7758179999655,"[13, 0, 241]",241,a,0.4433449999196455,colour,0.5
137,20,0,1,3,42,142,208.28360550000798,209.14387469994836,"[44, 0, 210]",210,a,0.33690909994766116,colour,0.5
137,20,0,1,3,43,143,209.65862589993048,210.42382819997147,"[33, 0, 221]",221,a,0.24690279993228614,colour,0.5
137,20,0,1,3,44,144,210.9223381000338,211.94379109994043,"[48, 0, 206]",206,a,0.49644459993578494,colour,0.5
137,20,0,1,3,45,145,212.4549959000433,213.34385810000822,"[23, 0, 231]",231,a,0.3654202000470832,colour,0.5
137,20,0,1,3,46,146,213.86125580000225,214.69575980002992,"[81, 0, 173]",173,l,0.3113562000216916,colour,0.5
137,20,0,1,3,47,147,215.19392350001726,216.0878600999713,"[38, 0, 216]",216,a,0.3687515000347048,colour,0.5
137,20,0,1,3,48,148,216.60205989994574,217.5998644999927,"[75, 0, 179]",179,l,0.4744732000399381,colour,0.5
137,20,0,1,3,49,149,218.11323230003472,218.9757726000389,"[49, 0, 205]",205,l,0.33936560002621263,colour,0.5
137,20,0,1,3,50,150,219.4901199999731,220.3758477999363,"[32, 0, 222]",222,a,0.3604169999016449,colour,0.5
137,20,0,1,4,1,151,224.82579689996783,225.71182890003547,"[88, 0, 166]",166,l,0.36194650002289563,colour,0.5
137,20,0,1,4,2,152,226.2328201000346,227.08783850003965,"[43, 0, 211]",211,a,0.33167100010905415,colour,0.5
137,20,0,1,4,3,153,227.60768040001858,228.44784249993972,"[26, 0, 228]",228,a,0.31688419997226447,colour,0.5
137,20,0,1,4,4,154,228.96688800002448,229.81581549998373,"[31, 0, 223]",223,a,0.3256836000364274,colour,0.5
137,20,0,1,4,5,155,230.32820640003774,231.14379350002855,"[97, 0, 157]",157,l,0.29235280002467334,colour,0.5
137,20,0,1,4,6,156,231.6561307000229,232.47178879997227,"[12, 0, 242]",242,a,0.29220609995536506,colour,0.5
137,20,0,1,4,7,157,232.98425440001301,233.85581189999357,"[37, 0, 217]",217,a,0.34805649996269494,colour,0.5
137,20,0,1,4,8,158,234.36423990002368,235.23183569998946,"[1, 0, 253]",253,a,0.34445610002148896,colour,0.5
137,20,0,1,4,9,159,235.74209559999872,236.56780369998887,"[75, 0, 179]",179,l,0.3027709999587387,colour,0.5
137,20,0,1,4,10,160,237.0858450999949,237.94380699994508,"[69, 0, 185]",185,l,0.33472019992768764,colour,0.5
137,20,0,1,4,11,161,238.46061680000275,239.34378320001997,"[74, 0, 180]",180,l,0.35999300004914403,colour,0.5
137,20,0,1,4,12,162,239.85120609996375,240.7198209000053,"[18, 0, 236]",236,a,0.34435749996919185,colour,0.5
137,20,0,1,4,13,163,241.22898669994902,242.07984389993362,"[81, 0, 173]",173,l,0.32765069999732077,colour,0.5
137,20,0,1,4,14,164,242.5883151999442,243.3678002000088,"[36, 0, 218]",218,a,0.2675435000564903,colour,0.5
137,20,0,1,4,15,165,243.87591519998387,244.68777860002592,"[11, 0, 243]",243,a,0.28854890004731715,colour,0.5
137,20,0,1,4,16,166,245.20424979995005,245.91180879995227,"[20, 0, 234]",234,a,0.18419429997447878,colour,0.5
137,20,0,1,4,17,167,246.42287849995773,247.20778719999362,"[23, 0, 231]",231,a,0.26148069999180734,colour,0.5
137,20,0,1,4,18,168,247.71969870000612,248.5678207000019,"[2, 0, 252]",252,a,0.3252997000236064,colour,0.5
137,20,0,1,4,19,169,249.07905990001746,249.76779630000237,"[73, 0, 181]",181,l,0.16560159996151924,colour,0.5
137,20,0,1,4,20,170,250.28197799995542,251.14379869995173,"[7, 0, 247]",247,a,0.34165820002090186,colour,0.5
137,20,0,1,4,21,171,251.6537071999628,252.5997760000173,"[65, 0, 189]",189,l,0.42287360003683716,colour,0.5
137,20,0,1,4,22,172,253.1080391999567,254.03182170004584,"[62, 0, 192]",192,l,0.4006991001078859,colour,0.5
137,20,0,1,4,23,173,254.5329696999397,255.51179130002856,"[40, 0, 214]",214,a,0.4555996999843046,colour,0.5
137,20,0,1,4,24,174,256.0328832999803,256.86385860003065,"[55, 0, 199]",199,l,0.30821440008003265,colour,0.5
137,20,0,1,4,25,175,257.37656799994875,258.127801500028,"[91, 0, 163]",163,l,0.22781970002688468,colour,0.5
137,20,0,1,4,26,176,258.6420625000028,259.4957746999571,"[16, 0, 238]",238,a,0.32855019997805357,colour,0.5
137,20,0,1,4,27,177,260.0033698999323,260.8078228000086,"[80, 0, 174]",174,l,0.28107240004464984,colour,0.5
137,20,0,1,4,28,178,261.3157126000151,262.1918438000139,"[14, 0, 240]",240,a,0.3521829000674188,colour,0.5
137,20,0,1,4,29,179,262.7099140000064,263.57577330002096,"[82, 0, 172]",172,l,0.34254530002363026,colour,0.5
137,20,0,1,4,30,180,264.0847405999666,264.9357895000139,"[51, 0, 203]",203,a,0.34034560003783554,colour,0.5
137,20,0,1,4,31,181,265.4353948000353,266.31177799997386,"[99, 0, 155]",155,l,0.3512965999543667,colour,0.5
137,20,0,1,4,32,182,266.8297412999673,267.67979580000974,"[19, 0, 235]",235,a,0.3268267000094056,colour,0.5
137,20,0,1,4,33,183,268.1891648999881,269.2237657000078,"[56, 0, 198]",198,a,0.5116323999827728,colour,0.5
137,20,0,1,4,34,184,269.73592719994485,270.63980030000675,"[30, 0, 224]",224,a,0.3806444000219926,colour,0.5
137,20,0,1,4,35,185,271.15755639993586,272.1438147999579,"[96, 0, 158]",158,l,0.46358530002180487,colour,0.5
137,20,0,1,4,36,186,272.65747490001377,273.55979980004486,"[77, 0, 177]",177,l,0.37907860008999705,colour,0.5
137,20,0,1,4,37,187,274.0791433999548,275.0478205999825,"[8, 0, 246]",246,a,0.44581019994802773,colour,0.5
137,20,0,1,4,38,188,275.563524600002,276.40777529997285,"[67, 0, 187]",187,l,0.32116349996067584,colour,0.5
137,20,0,1,4,39,189,276.9227642000187,277.8558131000027,"[84, 0, 170]",170,l,0.4103920999914408,colour,0.5
137,20,0,1,4,40,190,278.37557939998806,279.30375520000234,"[95, 0, 159]",159,l,0.4051098000491038,colour,0.5
137,20,0,1,4,41,191,279.8070002000313,280.6237651000265,"[22, 0, 232]",232,a,0.3040733999805525,colour,0.5
137,20,0,1,4,42,192,281.1401696000248,282.0079364000121,"[6, 0, 248]",248,a,0.34451990004163235,colour,0.5
137,20,0,1,4,43,193,282.5151463999646,283.33604730002116,"[10, 0, 244]",244,a,0.2953860000707209,colour,0.5
137,20,0,1,4,44,194,283.8356577999657,284.6880064000143,"[29, 0, 225]",225,a,0.32987570005934685,colour,0.5
137,20,0,1,4,45,195,285.19479149999097,286.0797696999507,"[32, 0, 222]",222,a,0.3713111999677494,colour,0.5
137,20,0,1,4,46,196,286.5914311000379,287.4717652000254,"[72, 0, 182]",182,l,0.3568529000040144,colour,0.5
137,20,0,1,4,47,197,287.9696322999662,288.7917735000374,"[78, 0, 176]",176,l,0.2988055000314489,colour,0.5
137,20,0,1,4,48,198,289.31348479993176,289.847726100008,"[47, 0, 207]",207,l,0.01125890004914254,colour,0.5
137,20,0,1,4,49,199,290.3601706000045,291.2797795999795,"[92, 0, 162]",162,l,0.3961762000108138,colour,0.5
137,20,0,1,4,50,200,291.7975839000428,292.49577509996016,"[98, 0, 156]",156,l,0.17490089999046177,colour,0.5
137,20,0,1,5,1,201,297.8119023999898,298.71179740002844,"[29, 0, 225]",225,a,0.375892800046131,colour,0.5
137,20,0,1,5,2,202,299.2188391999807,300.03973349998705,"[41, 0, 213]",213,a,0.2978008999489248,colour,0.5
137,20,0,1,5,3,203,300.5467728000367,301.359764099936,"[46, 0, 208]",208,a,0.28988729999400675,colour,0.5
137,20,0,1,5,4,204,301.8630326000275,302.63177949993405,"[37, 0, 217]",217,a,0.2486317999428138,colour,0.5
137,20,0,1,5,5,205,303.1417468000436,303.8718039999949,"[62, 0, 192]",192,l,0.2072102000238374,colour,0.5
137,20,0,1,5,6,206,304.392450000043,305.2478062999435,"[80, 0, 174]",174,l,0.3332361999200657,colour,0.5
137,20,0,1,5,7,207,305.76671739993617,306.5597853999352,"[13, 0, 241]",241,a,0.2678067999659106,colour,0.5
137,20,0,1,5,8,208,307.08127169997897,307.9357593000168,"[34, 0, 220]",220,a,0.3285971999866888,colour,0.5
137,20,0,1,5,9,209,308.4432785999961,309.2957530999556,"[61, 0, 193]",193,l,0.32945089996792376,colour,0.5
137,20,0,1,5,10,210,309.8025449999841,310.49577459995635,"[50, 0, 204]",204,a,0.18011249997653067,colour,0.5
137,20,0,1,5,11,211,311.0114288999466,311.75980560004245,"[42, 0, 212]",212,a,0.22546680003870279,colour,0.5
137,20,0,1,5,12,212,312.2652542999713,313.06371819996275,"[31, 0, 223]",223,a,0.2744457999942824,colour,0.5
137,20,0,1,5,13,213,313.57852620002814,314.3917737000156,"[32, 0, 222]",222,a,0.2878949000732973,colour,0.5
137,20,0,1,5,14,214,314.90886740002315,315.73576209996827,"[9, 0, 245]",245,a,0.3037357999710366,colour,0.5
137,20,0,1,5,15,215,316.25254569994286,317.015748100006,"[8, 0, 246]",246,a,0.24871850002091378,colour,0.5
137,20,0,1,5,16,216,317.5170808000257,318.14375099993777,"[1, 0, 253]",253,a,0.10344939993228763,colour,0.5
137,20,0,1,5,17,217,318.6576472000452,319.4397536999313,"[18, 0, 236]",236,a,0.2576144998893142,colour,0.5
137,20,0,1,5,18,218,319.9558783000102,320.7597603999311,"[67, 0, 187]",187,l,0.2809554999694228,colour,0.5
137,20,0,1,5,19,219,321.26819530001376,322.0797503000358,"[63, 0, 191]",191,l,0.2881882000947371,colour,0.5
137,20,0,1,5,20,220,322.59690040000714,323.35174630000256,"[88, 0, 166]",166,l,0.23185670003294945,colour,0.5
137,20,0,1,5,21,221,323.86263220000546,326.08779090002645,"[93, 0, 161]",161,l,1.7019154999870807,colour,0.5
137,20,0,1,5,22,222,326.5969103999669,327.23980630002916,"[27, 0, 227]",227,a,0.11785190005321056,colour,0.5
137,20,0,1,5,23,223,327.7550030000275,328.63975430000573,"[72, 0, 182]",182,l,0.3582897000014782,colour,0.5
137,20,0,1,5,24,224,329.1486072000116,329.9677915000357,"[47, 0, 207]",207,a,0.2956732000457123,colour,0.5
137,20,0,1,5,25,225,330.4766738000326,331.32775179995224,"[39, 0, 215]",215,a,0.32773010001983494,colour,0.5
137,20,0,1,5,26,226,331.8359101000242,332.67171749996487,"[40, 0, 214]",214,a,0.3125616000033915,colour,0.5
137,20,0,1,5,27,227,333.16720479994547,334.05576160002965,"[5, 0, 249]",249,a,0.3651759000495076,colour,0.5
137,20,0,1,5,28,228,334.57326109998394,335.3677134999307,"[85, 0, 169]",169,l,0.2717787999426946,colour,0.5
137,20,0,1,5,29,229,335.8857432999648,336.69577320001554,"[79, 0, 175]",175,l,0.28672149998601526,colour,0.5
137,20,0,1,5,30,230,337.21368809998967,338.11175949999597,"[33, 0, 221]",221,a,0.3748703000601381,colour,0.5
137,20,0,1,5,31,231,338.61980720004067,339.48773699998856,"[15, 0, 239]",239,a,0.34449799999129027,colour,0.5
137,20,0,1,5,32,232,339.98553239996545,340.85576900001615,"[71, 0, 183]",183,l,0.34384440002031624,colour,0.5
137,20,0,1,5,33,233,341.3635160999838,342.19972179993056,"[10, 0, 244]",244,a,0.3132148999720812,colour,0.5
137,20,0,1,5,34,234,342.7071363000432,343.5596905000275,"[45, 0, 209]",209,a,0.3292365000816062,colour,0.5
137,20,0,1,5,35,235,344.06638670002576,344.9196922000265,"[84, 0, 170]",170,l,0.3299508000491187,colour,0.5
137,20,0,1,5,36,236,345.4428096000338,346.2637343000388,"[59, 0, 195]",195,a,0.2992350000422448,colour,0.5
137,20,0,1,5,37,237,346.78488439996727,347.5357449000003,"[82, 0, 172]",172,l,0.22821690002456307,colour,0.5
137,20,0,1,5,38,238,348.05049569997936,348.9117206999799,"[86, 0, 168]",168,l,0.33799679996445775,colour,0.5
137,20,0,1,5,39,239,349.4259842999745,350.18372560001444,"[74, 0, 180]",180,l,0.23505700007081032,colour,0.5
137,20,0,1,5,40,240,350.69081860000733,351.5117439000169,"[17, 0, 237]",237,a,0.29754100006539375,colour,0.5
137,20,0,1,5,41,241,352.018865799997,352.9037571999943,"[69, 0, 185]",185,l,0.3615745999850333,colour,0.5
137,20,0,1,5,42,242,353.4254639999708,354.24769150000066,"[77, 0, 177]",177,l,0.29906760004814714,colour,0.5
137,20,0,1,5,43,243,354.7536829999881,355.59166140004527,"[58, 0, 196]",196,a,0.314833200071007,colour,0.5
137,20,0,1,5,44,244,356.09722460003104,356.8957517000381,"[78, 0, 176]",176,l,0.27561790007166564,colour,0.5
137,20,0,1,5,45,245,357.4095305999508,358.1117485000286,"[2, 0, 252]",252,a,0.19176010007504374,colour,0.5
137,20,0,1,5,46,246,358.6312517999904,359.6316745999502,"[81, 0, 173]",173,l,0.47732710000127554,colour,0.5
137,20,0,1,5,47,247,360.14681099995505,361.0317431000294,"[66, 0, 188]",188,l,0.36180710000917315,colour,0.5
137,20,0,1,5,48,248,361.55280069995206,362.3518437000457,"[97, 0, 157]",157,l,0.27548150008078665,colour,0.5
137,20,0,1,5,49,249,362.8653102000244,363.6717217999976,"[25, 0, 229]",229,a,0.2835454000160098,colour,0.5
137,20,0,1,5,50,250,364.1777073999401,364.9677523999708,"[96, 0, 158]",158,l,0.2671631999546662,colour,0.5
137,20,0,1,6,1,251,371.2415434999857,372.11170030001085,"[83, 0, 171]",171,l,0.3465401000576094,colour,0.5
137,20,0,1,6,2,252,372.62555019999854,373.41570300003514,"[84, 0, 170]",170,l,0.2640646999934688,colour,0.5
137,20,0,1,6,3,253,373.92537980002817,374.51968479994684,"[28, 0, 226]",226,a,0.07160729996394366,colour,0.5
137,20,0,1,6,4,254,375.034724200028,376.1357327000005,"[53, 0, 201]",201,a,0.5776317999698222,colour,0.5
137,20,0,1,6,5,255,376.6438963999972,377.4636932000285,"[11, 0, 243]",243,a,0.2964751999825239,colour,0.5
137,20,0,1,6,6,256,377.97201469994616,378.8156674000202,"[48, 0, 206]",206,a,0.320304200053215,colour,0.5
137,20,0,1,6,7,257,379.3312433999963,380.1357130999677,"[94, 0, 160]",160,l,0.2811280000023544,colour,0.5
137,20,0,1,6,8,258,380.64566020003986,381.4876586999744,"[31, 0, 223]",223,a,0.3189344999846071,colour,0.5
137,20,0,1,6,9,259,382.00482929998543,382.815734099946,"[78, 0, 176]",176,l,0.28804339992348105,colour,0.5
137,20,0,1,6,10,260,383.33288849995006,384.2316803999711,"[51, 0, 203]",203,a,0.37553550000302494,colour,0.5
137,20,0,1,6,11,261,384.7389333000174,385.5196890999796,"[50, 0, 204]",204,a,0.2574785000178963,colour,0.5
137,20,0,1,6,12,262,386.0357162000146,386.8476814000169,"[9, 0, 245]",245,a,0.288684600032866,colour,0.5
137,20,0,1,6,13,263,387.3638287000358,388.14363509998657,"[19, 0, 235]",235,a,0.25668480002786964,colour,0.5
137,20,0,1,6,14,264,388.6605064999312,389.4956725999946,"[76, 0, 178]",178,l,0.31206300004851073,colour,0.5
137,20,0,1,6,15,265,390.00416250003036,390.85568030003924,"[65, 0, 189]",189,l,0.32818000006955117,colour,0.5
137,20,0,1,6,16,266,391.3634635999333,392.2557078000391,"[96, 0, 158]",158,l,0.36918110004626215,colour,0.5
137,20,0,1,6,17,267,392.7664292999543,393.6077127000317,"[1, 0, 253]",253,a,0.3146837000967935,colour,0.5
137,20,0,1,6,18,268,394.1289129999932,394.9357322000433,"[37, 0, 217]",217,a,0.28366210008971393,colour,0.5
137,20,0,1,6,19,269,395.4569295999827,396.35168760002125,"[61, 0, 193]",193,l,0.3714042999781668,colour,0.5
137,20,0,1,6,20,270,396.8629813999869,397.74380359996576,"[77, 0, 177]",177,l,0.355033400002867,colour,0.5
137,20,0,1,6,21,271,398.25680520001333,398.8956644999562,"[85, 0, 169]",169,l,0.11571729998104274,colour,0.5
137,20,0,1,6,22,272,399.4128239999991,400.3437473999802,"[23, 0, 231]",231,a,0.4076928000431508,colour,0.5
137,20,0,1,6,23,273,400.85032800002955,401.64771990000736,"[24, 0, 230]",230,a,0.2725685000186786,colour,0.5
137,20,0,1,6,24,274,402.1666622000048,403.0476645999588,"[8, 0, 246]",246,a,0.35779709997586906,colour,0.5
137,20,0,1,6,25,275,403.5570871999953,404.2796780000208,"[16, 0, 238]",238,a,0.19935590005479753,colour,0.5
137,20,0,1,6,26,276,404.7914093999425,405.351775099989,"[7, 0, 247]",247,a,0.03714769997168332,colour,0.5
137,20,0,1,6,27,277,405.869384599966,406.43973450001795,"[70, 0, 184]",184,l,0.04715680005028844,colour,0.5
137,20,0,1,6,28,278,406.9473979999311,408.4316469000187,"[52, 0, 202]",202,a,0.9680798000190407,colour,0.5
137,20,0,1,6,29,279,408.93994399998337,409.82370660000015,"[26, 0, 228]",228,a,0.3598618999822065,colour,0.5
137,20,0,1,6,30,280,410.33381320000626,411.15173659997527,"[55, 0, 199]",199,a,0.2946487000444904,colour,0.5
137,20,0,1,6,31,281,411.6618407999631,412.47971600003075,"[64, 0, 190]",190,a,0.2945678000105545,colour,0.5
137,20,0,1,6,32,282,412.9902532999404,413.8156610999722,"[68, 0, 186]",186,a,0.30007110000588,colour,0.5
137,20,0,1,6,33,283,414.3309878000291,414.9517043000087,"[87, 0, 167]",167,l,0.0977165000513196,colour,0.5
137,20,0,1,6,34,284,415.47154589998536,416.56767539994325,"[54, 0, 200]",200,a,0.5700934999622405,colour,0.5
137,20,0,1,6,35,285,417.0841137999669,418.03970870003104,"[17, 0, 237]",237,a,0.43240580009296536,colour,0.5
137,20,0,1,6,36,286,418.55282350000925,419.38368400000036,"[35, 0, 219]",219,a,0.30745049996767193,colour,0.5
137,20,0,1,6,37,287,419.8965331999352,420.77590020000935,"[67, 0, 187]",187,l,0.35613810003269464,colour,0.5
137,20,0,1,6,38,288,421.2870360999368,422.1116928999545,"[2, 0, 252]",252,a,0.30136729998048395,colour,0.5
137,20,0,1,6,39,289,422.6310293000424,423.4316916000098,"[41, 0, 213]",213,a,0.2778945000609383,colour,0.5
137,20,0,1,6,40,290,423.94347880000714,424.7596794000128,"[45, 0, 209]",209,a,0.29306689999066293,colour,0.5
137,20,0,1,6,41,291,425.2713394999737,426.16769439994823,"[89, 0, 165]",165,l,0.3730970999458805,colour,0.5
137,20,0,1,6,42,292,426.6775280999718,427.42365749995224,"[72, 0, 182]",182,l,0.22280939994379878,colour,0.5
137,20,0,1,6,43,293,427.9430772999767,428.72766989993397,"[32, 0, 222]",222,a,0.2613112999824807,colour,0.5
137,20,0,1,6,44,294,429.24043170001823,430.1837993999943,"[30, 0, 224]",224,a,0.4200180000625551,colour,0.5
137,20,0,1,6,45,295,430.69349380000494,431.5036950999638,"[5, 0, 249]",249,a,0.2869265000335872,colour,0.5
137,20,0,1,6,46,296,432.02153549995273,432.80764310003724,"[36, 0, 218]",218,a,0.26273570000194013,colour,0.5
137,20,0,1,6,47,297,433.3182963000145,434.1116533000022,"[57, 0, 197]",197,l,0.2699486999772489,colour,0.5
137,20,0,1,6,48,298,434.63074439996853,435.55164660001174,"[47, 0, 207]",207,a,0.40680990007240325,colour,0.5
137,20,0,1,6,49,299,436.0588606999954,436.9756837999448,"[15, 0, 239]",239,a,0.3916683999123052,colour,0.5
137,20,0,1,6,50,300,437.48252550000325,438.2876324999379,"[58, 0, 196]",196,l,0.2817987999878824,colour,0.5
137,20,0,1,7,1,301,447.3595300000161,448.1756456999574,"[49, 0, 205]",205,a,0.292106100008823,colour,0.5
137,20,0,1,7,2,302,448.6883285000222,449.3116280999966,"[69, 0, 185]",185,l,0.10003680002409965,colour,0.5
137,20,0,1,7,3,303,449.8288661999395,450.6556822999846,"[27, 0, 227]",227,a,0.3043654999928549,colour,0.5
137,20,0,1,7,4,304,451.1734193000011,451.8636567000067,"[44, 0, 210]",210,a,0.17992250004317611,colour,0.5
137,20,0,1,7,5,305,452.3681424999377,453.03164810000453,"[7, 0, 247]",247,a,0.14002990000881255,colour,0.5
137,20,0,1,7,6,306,453.54194349993486,454.2316543000052,"[1, 0, 253]",253,a,0.16639330005273223,colour,0.5
137,20,0,1,7,7,307,454.74499929999,455.4716447000392,"[78, 0, 176]",176,l,0.20355520001612604,colour,0.5
137,20,0,1,7,8,308,455.9792437000433,456.79967590002343,"[5, 0, 249]",249,a,0.2972201000666246,colour,0.5
137,20,0,1,7,9,309,457.3072335999459,458.2556847999804,"[21, 0, 233]",233,a,0.42499840003438294,colour,0.5
137,20,0,1,7,10,310,458.77705070003867,459.67169059999287,"[93, 0, 161]",161,l,0.36849220003932714,colour,0.5
137,20,0,1,7,11,311,460.1882895999588,461.0476867000107,"[31, 0, 223]",223,a,0.33622830000240356,colour,0.5
137,20,0,1,7,12,312,461.56311149999965,462.3756716999924,"[46, 0, 208]",208,l,0.2892387000611052,colour,0.5
137,20,0,1,7,13,313,462.89118599996436,463.7516253000358,"[64, 0, 190]",190,l,0.3373830000637099,colour,0.5
137,20,0,1,7,14,314,464.2666446999647,465.1596509999363,"[39, 0, 215]",215,a,0.3680594000034034,colour,0.5
137,20,0,1,7,15,315,465.6750289000338,466.51162779994775,"[38, 0, 216]",216,a,0.3208755999803543,colour,0.5
137,20,0,1,7,16,316,467.0266122999601,467.75158769998234,"[18, 0, 236]",236,a,0.20166499994229525,colour,0.5
137,20,0,1,7,17,317,468.26092639996205,469.10360909998417,"[8, 0, 246]",246,a,0.32001300004776567,colour,0.5
137,20,0,1,7,18,318,469.6202214999357,470.4796070000157,"[53, 0, 201]",201,l,0.3359411000274122,colour,0.5
137,20,0,1,7,19,319,470.98265979997814,471.8236582999816,"[67, 0, 187]",187,l,0.3177823999430984,colour,0.5
137,20,0,1,7,20,320,472.3418729000259,473.25560050003696,"[60, 0, 194]",194,l,0.39046080003026873,colour,0.5
137,20,0,1,7,21,321,473.7527002999559,474.6556616999442,"[52, 0, 202]",202,a,0.380186399910599,colour,0.5
137,20,0,1,7,22,322,475.1743163999636,475.8235861000139,"[87, 0, 167]",167,l,0.12593660003039986,colour,0.5
137,20,0,1,7,23,323,476.3305762000382,477.23962340003345,"[70, 0, 184]",184,l,0.3861128001008183,colour,0.5
137,20,0,1,7,24,324,477.75234470004216,478.5676310999552,"[50, 0, 204]",204,a,0.2920813999371603,colour,0.5
137,20,0,1,7,25,325,479.08025470003486,479.8636819999665,"[10, 0, 244]",244,a,0.2603623999748379,colour,0.5
137,20,0,1,7,26,326,480.3770365000237,481.2077438000124,"[40, 0, 214]",214,a,0.30744310002774,colour,0.5
137,20,0,1,7,27,327,481.72077909996733,482.3596160999732,"[0, 0, 254]",254,a,0.1161127999657765,colour,0.5
137,20,0,1,7,28,328,482.87008180003613,483.7836583999451,"[71, 0, 183]",183,l,0.3907375999260694,colour,0.5
137,20,0,1,7,29,329,484.2792837000452,485.11163459997624,"[77, 0, 177]",177,l,0.30909300001803786,colour,0.5
137,20,0,1,7,30,330,485.6229388000211,486.46363979997113,"[35, 0, 219]",219,a,0.3178681000135839,colour,0.5
137,20,0,1,7,31,331,486.9821789000416,487.8157081999816,"[79, 0, 175]",175,l,0.31095660000573844,colour,0.5
137,20,0,1,7,32,332,488.3258711999515,489.1757118999958,"[68, 0, 186]",186,l,0.33850439998786896,colour,0.5
137,20,0,1,7,33,333,489.67977189994417,490.5196192000294,"[34, 0, 220]",220,a,0.316586000029929,colour,0.5
137,20,0,1,7,34,334,491.0390471999999,491.871619499987,"[55, 0, 199]",199,a,0.3136881999671459,colour,0.5
137,20,0,1,7,35,335,492.3782434000168,493.287598600029,"[33, 0, 221]",221,a,0.38620360009372234,colour,0.5
137,20,0,1,7,36,336,493.79993590002414,494.6236741000321,"[16, 0, 238]",238,a,0.3004301000619307,colour,0.5
137,20,0,1,7,37,337,495.1436652999837,496.01565539999865,"[73, 0, 181]",181,l,0.34865739999804646,colour,0.5
137,20,0,1,7,38,338,496.5341147000436,497.38368139998056,"[88, 0, 166]",166,l,0.3246987999882549,colour,0.5
137,20,0,1,7,39,339,497.8948806000408,498.81561549997423,"[94, 0, 160]",160,l,0.3974853999679908,colour,0.5
137,20,0,1,7,40,340,499.33231389999855,500.1195924000349,"[96, 0, 158]",158,l,0.27652760001365095,colour,0.5
137,20,0,1,7,41,341,500.63220929994714,501.4716347999638,"[36, 0, 218]",218,a,0.31625019991770387,colour,0.5
137,20,0,1,7,42,342,501.99308639997616,502.8956237999955,"[17, 0, 237]",237,a,0.3763897999888286,colour,0.5
137,20,0,1,7,43,343,503.40219669998623,504.30368380004074,"[48, 0, 206]",206,a,0.37807460001204163,colour,0.5
137,20,0,1,7,44,344,504.8240444000112,505.91170329996385,"[56, 0, 198]",198,l,0.5643740999512374,colour,0.5
137,20,0,1,7,45,345,506.43317480001133,507.6236441000365,"[61, 0, 193]",193,a,0.6671371000120416,colour,0.5
137,20,0,1,7,46,346,508.1361711999634,508.96761870000046,"[95, 0, 159]",159,l,0.318199299974367,colour,0.5
137,20,0,1,7,47,347,509.48560230003204,510.45557660004124,"[4, 0, 250]",250,a,0.44670540001243353,colour,0.5
137,20,0,1,7,48,348,510.96969499997795,511.7836191999959,"[76, 0, 178]",178,l,0.290675500058569,colour,0.5
137,20,0,1,7,49,349,512.2977217000443,513.151589200017,"[13, 0, 241]",241,a,0.33052720001433045,colour,0.5
137,20,0,1,7,50,350,513.6608260000357,514.6316090000328,"[62, 0, 192]",192,a,0.44796940009109676,colour,0.5
137,20,0,1,8,1,351,520.7339854999445,521.3355990999844,"[3, 0, 251]",251,a,0.07825509994290769,colour,0.5
137,20,0,1,8,2,352,521.8441090999404,522.6476332000457,"[33, 0, 221]",221,a,0.28031220007687807,colour,0.5
137,20,0,1,8,3,353,523.1563823999604,524.1835711000022,"[55, 0, 199]",199,a,0.5037806000327691,colour,0.5
137,20,0,1,8,4,354,524.7052886999445,525.4075964000076,"[29, 0, 225]",225,a,0.17999560001771897,colour,0.5
137,20,0,1,8,5,355,525.923826299957,526.6476218999596,"[18, 0, 236]",236,a,0.20047129993326962,colour,0.5
137,20,0,1,8,6,356,527.1580394000048,527.9516229999717,"[14, 0, 240]",240,a,0.28271409997250885,colour,0.5
137,20,0,1,8,7,357,528.4582044000272,529.2475261000218,"[31, 0, 223]",223,a,0.2661049000453204,colour,0.5
137,20,0,1,8,8,358,529.7549305999419,530.4155577999773,"[26, 0, 228]",228,a,0.13745179993566126,colour,0.5
137,20,0,1,8,9,359,530.9173542000353,531.7196209999966,"[65, 0, 189]",189,l,0.2789663999574259,colour,0.5
137,20,0,1,8,10,360,532.2297370999586,533.0635886000236,"[62, 0, 192]",192,l,0.31057510001119226,colour,0.5
137,20,0,1,8,11,361,533.5735478999559,534.5036056999816,"[12, 0, 242]",242,a,0.4070573999779299,colour,0.5
137,20,0,1,8,12,362,535.0107304999838,535.9275741999736,"[70, 0, 184]",184,l,0.39353789994493127,colour,0.5
137,20,0,1,8,13,363,536.4373708999483,537.3275891999947,"[27, 0, 227]",227,a,0.3756027000490576,colour,0.5
137,20,0,1,8,14,364,537.8352067000233,538.7995656999992,"[90, 0, 164]",164,l,0.4380993000231683,colour,0.5
137,20,0,1,8,15,365,539.307082299958,540.1356006000424,"[83, 0, 171]",171,l,0.30526180006563663,colour,0.5
137,20,0,1,8,16,366,540.6506848999998,541.551632000017,"[99, 0, 155]",155,l,0.37763110001105815,colour,0.5
137,20,0,1,8,17,367,542.0724582000403,542.9515501999995,"[89, 0, 165]",165,l,0.3557982000056654,colour,0.5
137,20,0,1,8,18,368,543.4629719000077,544.367580799968,"[36, 0, 218]",218,a,0.38159150001592934,colour,0.5
137,20,0,1,8,19,369,544.8847608999349,545.7515693999594,"[46, 0, 208]",208,a,0.3435635999776423,colour,0.5
137,20,0,1,8,20,370,546.2600480000256,547.1516183000058,"[76, 0, 178]",178,l,0.36849749996326864,colour,0.5
137,20,0,1,8,21,371,547.6661518999608,548.5995217999443,"[39, 0, 215]",215,a,0.4102085999911651,colour,0.5
137,20,0,1,8,22,372,549.1192874000408,550.0235728999833,"[17, 0, 237]",237,a,0.3810247000074014,colour,0.5
137,20,0,1,8,23,373,550.5409442000091,551.4236116999527,"[47, 0, 207]",207,a,0.35937979992013425,colour,0.5
137,20,0,1,8,24,374,551.9313959999708,552.8556265999796,"[50, 0, 204]",204,a,0.4008755999384448,colour,0.5
137,20,0,1,8,25,375,553.3687745999778,554.2715699999826,"[42, 0, 212]",212,l,0.37772049999330193,colour,0.5
137,20,0,1,8,26,376,554.7924267000053,555.7275669999653,"[35, 0, 219]",219,a,0.4117622999474406,colour,0.5
137,20,0,1,8,27,377,556.2454365999438,557.1595638999715,"[79, 0, 175]",175,l,0.3877297999570146,colour,0.5
137,20,0,1,8,28,378,557.6701930999989,558.5675841999473,"[1, 0, 253]",253,a,0.3737304999958724,colour,0.5
137,20,0,1,8,29,379,559.068281600019,560.2636191999773,"[60, 0, 194]",194,l,0.6718537999549881,colour,0.5
137,20,0,1,8,30,380,560.7713031000458,561.687558399979,"[56, 0, 198]",198,a,0.3931427999632433,colour,0.5
137,20,0,1,8,31,381,562.1948516999837,563.0395122999325,"[19, 0, 235]",235,a,0.3216225999640301,colour,0.5
137,20,0,1,8,32,382,563.5447118999436,565.3515474000014,"[63, 0, 191]",191,l,1.2835477000335231,colour,0.5
137,20,0,1,8,33,383,565.8727503999835,566.7515766000142,"[28, 0, 226]",226,a,0.3555945000844076,colour,0.5
137,20,0,1,8,34,384,567.2631876999512,568.0955416000215,"[37, 0, 217]",217,a,0.3091429000487551,colour,0.5
137,20,0,1,8,35,385,568.6066972999834,569.4475127999904,"[85, 0, 169]",169,l,0.31739700003527105,colour,0.5
137,20,0,1,8,36,386,569.9660629000282,570.7755171000026,"[80, 0, 174]",174,l,0.2864561000606045,colour,0.5
137,20,0,1,8,37,387,571.2921741999453,572.1515725000063,"[20, 0, 234]",234,a,0.33606040000449866,colour,0.5
137,20,0,1,8,38,388,572.6669872000348,573.5676096000243,"[15, 0, 239]",239,a,0.3772437000880018,colour,0.5
137,20,0,1,8,39,389,574.088806899963,574.9755341999698,"[73, 0, 181]",181,l,0.3604164000134915,colour,0.5
137,20,0,1,8,40,390,575.4823580000084,576.3595928000286,"[98, 0, 156]",156,l,0.36461510008666664,colour,0.5
137,20,0,1,8,41,391,576.8790481999749,578.0475736999651,"[11, 0, 243]",243,a,0.6453075000317767,colour,0.5
137,20,0,1,8,42,392,578.5664217999438,579.4236064000288,"[68, 0, 186]",186,l,0.33293500007130206,colour,0.5
137,20,0,1,8,43,393,579.9422995999921,580.7595860000001,"[57, 0, 197]",197,a,0.29405220004264265,colour,0.5
137,20,0,1,8,44,394,581.2718709999463,582.1595232000109,"[75, 0, 179]",179,a,0.36451149999629706,colour,0.5
137,20,0,1,8,45,395,582.6779750999995,583.3355972999707,"[77, 0, 177]",177,l,0.13147249992471188,colour,0.5
137,20,0,1,8,46,396,583.8528178000124,584.655563200009,"[86, 0, 168]",168,l,0.279514400055632,colour,0.5
137,20,0,1,8,47,397,585.1695181999821,585.8395646000281,"[84, 0, 170]",170,l,0.14667819999158382,colour,0.5
137,20,0,1,8,48,398,586.3570100000361,587.3035603000317,"[6, 0, 248]",248,a,0.4233811000594869,colour,0.5
137,20,0,1,8,49,399,587.8099026000127,588.6395436000312,"[88, 0, 166]",166,l,0.30585240002255887,colour,0.5
137,20,0,1,8,50,400,589.1539436000166,589.9356187999947,"[4, 0, 250]",250,a,0.2557892999611795,colour,0.5
137,20,0,1,9,1,401,594.5183923000004,595.5196498000296,"[56, 0, 198]",198,a,0.479865700006485,colour,0.5
137,20,0,1,9,2,402,596.0235916000092,596.8075332000153,"[2, 0, 252]",252,a,0.2580587000120431,colour,0.5
137,20,0,1,9,3,403,597.3228316999739,598.0235280999914,"[99, 0, 155]",155,l,0.1758776999777183,colour,0.5
137,20,0,1,9,4,404,598.5430383000057,599.3675257000141,"[84, 0, 170]",170,l,0.30173010006546974,colour,0.5
137,20,0,1,9,5,405,599.8865685999626,600.7356092999689,"[9, 0, 245]",245,a,0.32561279996298254,colour,0.5
137,20,0,1,9,6,406,601.2340509999776,602.2235609999625,"[21, 0, 233]",233,a,0.4662029999308288,colour,0.5
137,20,0,1,9,7,407,602.7214828999713,603.759582699975,"[83, 0, 171]",171,l,0.5118566999444738,colour,0.5
137,20,0,1,9,8,408,604.2710569000337,605.1195448000217,"[29, 0, 225]",225,a,0.3252149000763893,colour,0.5
137,20,0,1,9,9,409,605.6241789000342,606.44750749995,"[37, 0, 217]",217,a,0.3000910999253392,colour,0.5
137,20,0,1,9,10,410,606.9677976999665,607.7995580999414,"[7, 0, 247]",247,a,0.30780179996509105,colour,0.5
137,20,0,1,9,11,411,608.3120545999845,609.1597597999498,"[86, 0, 168]",168,l,0.32437489996664226,colour,0.5
137,20,0,1,9,12,412,609.6713517999742,610.4795367999468,"[49, 0, 205]",205,a,0.28813609993085265,colour,0.5
137,20,0,1,9,13,413,610.9959562999429,611.8395132999867,"[55, 0, 199]",199,a,0.33255649998318404,colour,0.5
137,20,0,1,9,14,414,612.3585779999848,613.2235703000333,"[53, 0, 201]",201,a,0.3417018000036478,colour,0.5
137,20,0,1,9,15,415,613.7345992999617,614.6875260999659,"[31, 0, 223]",223,a,0.42955320002511144,colour,0.5
137,20,0,1,9,16,416,615.2031774999341,615.9755512999836,"[34, 0, 220]",220,a,0.24610840005334467,colour,0.5
137,20,0,1,9,17,417,616.4747547999723,617.2875616999809,"[75, 0, 179]",179,l,0.28947359998710454,colour,0.5
137,20,0,1,9,18,418,617.8028606999433,618.5755166999297,"[18, 0, 236]",236,a,0.24945979996118695,colour,0.5
137,20,0,1,9,19,419,619.0846119000344,619.9515706000384,"[33, 0, 221]",221,a,0.3438602000242099,colour,0.5
137,20,0,1,9,20,420,620.4595143999904,621.3115038999822,"[82, 0, 172]",172,l,0.3289702000329271,colour,0.5
137,20,0,1,9,21,421,621.8188911000034,622.7755239999387,"[79, 0, 175]",175,l,0.43331649992614985,colour,0.5
137,20,0,1,9,22,422,623.2874871999957,624.1275832999963,"[71, 0, 183]",183,l,0.32017900003120303,colour,0.5
137,20,0,1,9,23,423,624.6438557000365,625.4315241000149,"[16, 0, 238]",238,a,0.26433000003453344,colour,0.5
137,20,0,1,9,24,424,625.9407006000401,626.7435236999299,"[95, 0, 159]",159,l,0.27693399996496737,colour,0.5
137,20,0,1,9,25,425,627.2561273999745,628.1115561999613,"[26, 0, 228]",228,a,0.3324437999399379,colour,0.5
137,20,0,1,9,26,426,628.6316201000009,629.4475162000163,"[35, 0, 219]",219,a,0.29274960001930594,colour,0.5
137,20,0,1,9,27,427,629.9597852999577,630.727553899982,"[5, 0, 249]",249,a,0.2570103999460116,colour,0.5
137,20,0,1,9,28,428,631.2440412000287,632.0634739999659,"[36, 0, 218]",218,a,0.2959655999438837,colour,0.5
137,20,0,1,9,29,429,632.5727495999308,633.4074856999796,"[91, 0, 163]",163,l,0.32386500004213303,colour,0.5
137,20,0,1,9,30,430,633.9194254999747,634.743495099945,"[13, 0, 241]",241,a,0.30044059990905225,colour,0.5
137,20,0,1,9,31,431,635.2495659999549,636.0874905999517,"[20, 0, 234]",234,a,0.3133831999730319,colour,0.5
137,20,0,1,9,32,432,636.5943995999405,637.4075390000362,"[54, 0, 200]",200,a,0.28984280000440776,colour,0.5
137,20,0,1,9,33,433,637.9114266999532,638.7915034999605,"[88, 0, 166]",166,l,0.3567905999952927,colour,0.5
137,20,0,1,9,34,434,639.3024823999731,640.1195534999715,"[27, 0, 227]",227,a,0.30628899997100234,colour,0.5
137,20,0,1,9,35,435,640.6336552000139,641.5194992999313,"[66, 0, 188]",188,l,0.363038899959065,colour,0.5
137,20,0,1,9,36,436,642.0398252999876,642.8794620999834,"[52, 0, 202]",202,a,0.3163906999398023,colour,0.5
137,20,0,1,9,37,437,643.3990404999349,644.2554994999664,"[1, 0, 253]",253,a,0.3333268000278622,colour,0.5
137,20,0,1,9,38,438,644.7739659999497,645.6315273999935,"[77, 0, 177]",177,l,0.33450490003451705,colour,0.5
137,20,0,1,9,39,439,646.148881400004,647.0475396999391,"[24, 0, 230]",230,a,0.37544039997737855,colour,0.5
137,20,0,1,9,40,440,647.5549769999925,648.583533899975,"[59, 0, 195]",195,a,0.505316499969922,colour,0.5
137,20,0,1,9,41,441,649.1020438999403,650.0475390999345,"[64, 0, 190]",190,a,0.42200239992234856,colour,0.5
137,20,0,1,9,42,442,650.5549549999414,651.4394800999435,"[61, 0, 193]",193,a,0.36116329999640584,colour,0.5
137,20,0,1,9,43,443,651.9455040999455,652.8155066999607,"[76, 0, 178]",178,l,0.34671830001752824,colour,0.5
137,20,0,1,9,44,444,653.326176899951,654.2394880999345,"[90, 0, 164]",164,l,0.3885365999303758,colour,0.5
137,20,0,1,9,45,445,654.749749999959,655.5755306000356,"[32, 0, 222]",222,a,0.302441900013946,colour,0.5
137,20,0,1,9,46,446,656.086395499995,656.927485799999,"[28, 0, 226]",226,a,0.31807070004288107,colour,0.5
137,20,0,1,9,47,447,657.44571,658.2235426999396,"[19, 0, 235]",235,a,0.25459149992093444,colour,0.5
137,20,0,1,9,48,448,658.7443600000115,659.5754739999538,"[85, 0, 169]",169,l,0.3082460999721661,colour,0.5
137,20,0,1,9,49,449,660.0879120000172,660.9434965000255,"[25, 0, 229]",229,a,0.330840100068599,colour,0.5
137,20,0,1,9,50,450,661.464964200044,662.3275178000331,"[51, 0, 203]",203,a,0.33600100001785904,colour,0.5
137,20,0,1,10,1,451,668.6951560999732,669.5194824000355,"[14, 0, 240]",240,a,0.30040619999635965,colour,0.5
137,20,0,1,10,2,452,670.0395449999487,670.8795369999716,"[29, 0, 225]",225,a,0.32638750004116446,colour,0.5
137,20,0,1,10,3,453,671.3787137999898,672.1754556000233,"[27, 0, 227]",227,a,0.2736946999793872,colour,0.5
137,20,0,1,10,4,454,672.6872150000418,673.5114667000016,"[1, 0, 253]",253,a,0.3008164999773726,colour,0.5
137,20,0,1,10,5,455,674.0243904000381,674.8555288999341,"[11, 0, 243]",243,a,0.3078695998992771,colour,0.5
137,20,0,1,10,6,456,675.3680290000048,676.4154604999349,"[33, 0, 221]",221,a,0.5240168999880552,colour,0.5
137,20,0,1,10,7,457,676.9304413000355,677.7675637999782,"[8, 0, 246]",246,a,0.3141296999529004,colour,0.5
137,20,0,1,10,8,458,678.2761249999749,679.151453700033,"[17, 0, 237]",237,a,0.35229619999881834,colour,0.5
137,20,0,1,10,9,459,679.666514200042,680.5034958999604,"[19, 0, 235]",235,a,0.31354459992144257,colour,0.5
137,20,0,1,10,10,460,681.0102962999372,681.8474674000172,"[63, 0, 191]",191,l,0.3139136000536382,colour,0.5
137,20,0,1,10,11,461,682.3539287999738,683.2234867999796,"[50, 0, 204]",204,l,0.34330529998987913,colour,0.5
137,20,0,1,10,12,462,683.7319782000268,684.5914905000245,"[56, 0, 198]",198,l,0.33674970001447946,colour,0.5
137,20,0,1,10,13,463,685.1093921000138,686.0154683999717,"[13, 0, 241]",241,a,0.38247049995698035,colour,0.5
137,20,0,1,10,14,464,686.5315198999597,687.3754677999532,"[72, 0, 182]",182,l,0.32064169994555414,colour,0.5
137,20,0,1,10,15,465,687.8907961000223,688.8154807999963,"[24, 0, 230]",230,a,0.4013556999852881,colour,0.5
137,20,0,1,10,16,466,689.3281911000377,690.1434590000426,"[51, 0, 203]",203,l,0.2920834000688046,colour,0.5
137,20,0,1,10,17,467,690.6500411999878,691.5115145000163,"[9, 0, 245]",245,a,0.3374508999986574,colour,0.5
137,20,0,1,10,18,468,692.0255956000183,692.9114696999313,"[90, 0, 164]",164,a,0.37185439991299063,colour,0.5
137,20,0,1,10,19,469,693.4224973999662,694.3434499000432,"[44, 0, 210]",210,a,0.3980531000997871,colour,0.5
137,20,0,1,10,20,470,694.8598735999549,695.7194461999461,"[69, 0, 185]",185,l,0.33638419990893453,colour,0.5
137,20,0,1,10,21,471,696.2348762999754,697.047468899982,"[93, 0, 161]",161,l,0.2862723999423906,colour,0.5
137,20,0,1,10,22,472,697.5658193000127,698.4394863999914,"[71, 0, 183]",183,l,0.3502309999894351,colour,0.5
137,20,0,1,10,23,473,698.9565173999872,699.8554629000137,"[98, 0, 156]",156,l,0.375777899986133,colour,0.5
137,20,0,1,10,24,474,700.3627285000402,701.2154313999927,"[39, 0, 215]",215,a,0.3295014000032097,colour,0.5
137,20,0,1,10,25,475,701.7120258000214,702.6794616000261,"[10, 0, 244]",244,a,0.44432020001113415,colour,0.5
137,20,0,1,10,26,476,703.2235123999417,704.1194605999626,"[99, 0, 155]",155,l,0.37698709999676794,colour,0.5
137,20,0,1,10,27,477,704.6409218999324,705.5674156999448,"[95, 0, 159]",159,l,0.40368499991018325,colour,0.5
137,20,0,1,10,28,478,706.0696158999344,706.9674589999486,"[20, 0, 234]",234,a,0.3714774999534711,colour,0.5
137,20,0,1,10,29,479,707.4787916999776,708.3594318999676,"[48, 0, 206]",206,a,0.3580817999318242,colour,0.5
137,20,0,1,10,30,480,708.8583699000301,709.719462399953,"[92, 0, 162]",162,l,0.3377197999507189,colour,0.5
137,20,0,1,10,31,481,710.233266599942,711.0954354000278,"[74, 0, 180]",180,l,0.33887209999375045,colour,0.5
137,20,0,1,10,32,482,711.6081433999352,712.4314697999507,"[76, 0, 178]",178,l,0.30001140001695603,colour,0.5
137,20,0,1,10,33,483,712.9528389000334,713.8074914999306,"[18, 0, 236]",236,a,0.32841989991720766,colour,0.5
137,20,0,1,10,34,484,714.3150922999484,715.1434690000024,"[16, 0, 238]",238,a,0.30494539998471737,colour,0.5
137,20,0,1,10,35,485,715.6587499999441,716.5114214000059,"[26, 0, 228]",228,a,0.3361791999777779,colour,0.5
137,20,0,1,10,36,486,717.0287147000199,717.9514482000377,"[6, 0, 248]",248,a,0.3979464001022279,colour,0.5
137,20,0,1,10,37,487,718.4678559999447,719.7114669999573,"[49, 0, 205]",205,a,0.7203524999786168,colour,0.5
137,20,0,1,10,38,488,720.2176345000044,721.2554590000072,"[68, 0, 186]",186,l,0.5144255000632256,colour,0.5
137,20,0,1,10,39,489,721.764375800034,722.6714094999479,"[75, 0, 179]",179,l,0.38379969995003194,colour,0.5
137,20,0,1,10,40,490,723.1862617000006,724.0074421999743,"[81, 0, 173]",173,l,0.29789799998980016,colour,0.5
137,20,0,1,10,41,491,724.5140589999501,725.3434664999368,"[2, 0, 252]",252,a,0.3063243000069633,colour,0.5
137,20,0,1,10,42,492,725.8578448999906,726.6954337999923,"[58, 0, 196]",196,l,0.31437919999007136,colour,0.5
137,20,0,1,10,43,493,727.2014884999953,728.1194513000082,"[45, 0, 209]",209,a,0.39455930003896356,colour,0.5
137,20,0,1,10,44,494,728.6296058000298,729.5114638999803,"[61, 0, 193]",193,l,0.3589831000426784,colour,0.5
137,20,0,1,10,45,495,730.0199757999508,731.1914636000292,"[82, 0, 172]",172,l,0.6481445000972599,colour,0.5
137,20,0,1,10,46,496,731.7073949000333,732.655406099977,"[54, 0, 200]",200,a,0.42466669995337725,colour,0.5
137,20,0,1,10,47,497,733.1760484999977,733.983433599933,"[86, 0, 168]",168,l,0.28417549992445856,colour,0.5
137,20,0,1,10,48,498,734.5039819999365,735.3114996999502,"[30, 0, 224]",224,l,0.2964253999525681,colour,0.5
137,20,0,1,10,49,499,735.8199123999802,736.655443900032,"[80, 0, 174]",174,l,0.30916800000704825,colour,0.5
137,20,0,1,10,50,500,737.1666637000162,738.0554163999623,"[52, 0, 202]",202,a,0.36572569992858917,colour,0.5
137,20,0,1,11,1,501,742.5560366000282,743.3994699999457,"[75, 0, 179]",179,l,0.31945419998373836,colour,0.5
137,20,0,1,11,2,502,743.9166583999759,744.703428799985,"[94, 0, 160]",160,l,0.26221049996092916,colour,0.5
137,20,0,1,11,3,503,745.2145267999731,746.0635072999867,"[78, 0, 176]",176,l,0.3260299999965355,colour,0.5
137,20,0,1,11,4,504,746.5738347000442,747.3674373000395,"[43, 0, 211]",211,a,0.2712076000170782,colour,0.5
137,20,0,1,11,5,505,747.886199099943,748.8474495999981,"[8, 0, 246]",246,a,0.43729659996461123,colour,0.5
137,20,0,1,11,6,506,749.3561846000375,750.2314096000046,"[37, 0, 217]",217,a,0.3518707000184804,colour,0.5
137,20,0,1,11,7,507,750.7467048999388,751.903395100031,"[62, 0, 192]",192,a,0.644891900010407,colour,0.5
137,20,0,1,11,8,508,752.4225692999316,753.4156113000354,"[12, 0, 242]",242,a,0.4703010000521317,colour,0.5
137,20,0,1,11,9,509,753.9242488000309,754.8794689000351,"[76, 0, 178]",178,l,0.4325207000365481,colour,0.5
137,20,0,1,11,10,510,755.3927115999395,756.279468499939,"[19, 0, 235]",235,a,0.36342399998102337,colour,0.5
137,20,0,1,11,11,511,756.798985100002,757.7594127999619,"[81, 0, 173]",173,l,0.43719909992069006,colour,0.5
137,20,0,1,11,12,512,758.2738143999595,759.2154018000001,"[52, 0, 202]",202,a,0.4152384999906644,colour,0.5
137,20,0,1,11,13,513,759.7323072999716,760.7034693999449,"[80, 0, 174]",174,l,0.44594199990388006,colour,0.5
137,20,0,1,11,14,514,761.2185674000066,762.1194651999976,"[36, 0, 218]",218,a,0.3891888000071049,colour,0.5
137,20,0,1,11,15,515,762.6287694999482,763.5113824999426,"[46, 0, 208]",208,a,0.35977559990715235,colour,0.5
137,20,0,1,11,16,516,764.0192813000176,764.9194518999429,"[15, 0, 239]",239,a,0.37701940000988543,colour,0.5
137,20,0,1,11,17,517,765.4409608000424,766.3434544999618,"[61, 0, 193]",193,l,0.3796122999629006,colour,0.5
137,20,0,1,11,18,518,766.8628851999529,767.7274501000065,"[26, 0, 228]",228,a,0.3418138000415638,colour,0.5
137,20,0,1,11,19,519,768.2379103000276,769.0394247999648,"[98, 0, 156]",156,l,0.2783705999609083,colour,0.5
137,20,0,1,11,20,520,769.5501936000073,770.4394115000032,"[34, 0, 220]",220,a,0.36658689996693283,colour,0.5
137,20,0,1,11,21,521,770.9562807999318,771.8154296999564,"[69, 0, 185]",185,l,0.33598069997970015,colour,0.5
137,20,0,1,11,22,522,772.3311689000111,773.1033609999577,"[88, 0, 166]",166,l,0.2491421999875456,colour,0.5
137,20,0,1,11,23,523,773.6123364999657,774.4633962999796,"[91, 0, 163]",163,l,0.3277371999574825,colour,0.5
137,20,0,1,11,24,524,774.9623534999555,775.8793981999625,"[40, 0, 214]",214,a,0.3938275999389589,colour,0.5
137,20,0,1,11,25,525,776.399676400004,777.1914557999698,"[47, 0, 207]",207,a,0.26841689995490015,colour,0.5
137,20,0,1,11,26,526,777.7120887000347,778.6074560999405,"[10, 0, 244]",244,a,0.37208269990514964,colour,0.5
137,20,0,1,11,27,527,779.1182281000074,779.9994021999883,"[70, 0, 184]",184,l,0.35781980003230274,colour,0.5
137,20,0,1,11,28,528,780.5087836999446,781.4074354999466,"[30, 0, 224]",224,a,0.37548569997306913,colour,0.5
137,20,0,1,11,29,529,781.9168569999747,782.9994062000187,"[20, 0, 234]",234,a,0.5592957000480965,colour,0.5
137,20,0,1,11,30,530,783.5135235999478,784.4314844999462,"[18, 0, 236]",236,a,0.3944478000048548,colour,0.5
137,20,0,1,11,31,531,784.9514136000071,785.8393924999982,"[51, 0, 203]",203,l,0.364614799967967,colour,0.5
137,20,0,1,11,32,532,786.3576622999972,787.2474474000046,"[77, 0, 177]",177,l,0.366452099988237,colour,0.5
137,20,0,1,11,33,533,787.7637281999923,788.8874365999363,"[97, 0, 157]",157,l,0.6006614998914301,colour,0.5
137,20,0,1,11,34,534,789.4048251999775,790.463459999999,"[96, 0, 158]",158,l,0.5359567999839783,colour,0.5
137,20,0,1,11,35,535,790.9821846999694,791.9514157000231,"[53, 0, 201]",201,a,0.4467636999906972,colour,0.5
137,20,0,1,11,36,536,792.466435499955,793.3354575999547,"[68, 0, 186]",186,l,0.3457737999269739,colour,0.5
137,20,0,1,11,37,537,793.8412390999729,794.8474431999493,"[2, 0, 252]",252,a,0.4828723999671638,colour,0.5
137,20,0,1,11,38,538,795.3567958000349,796.1834193000104,"[31, 0, 223]",223,a,0.30339330004062504,colour,0.5
137,20,0,1,11,39,539,796.6879068999551,797.5273800999857,"[9, 0, 245]",245,a,0.3165811999933794,colour,0.5
137,20,0,1,11,40,540,798.0518220999511,798.9273867999436,"[28, 0, 226]",226,a,0.35213849996216595,colour,0.5
137,20,0,1,11,41,541,799.442389999982,800.2794364000438,"[84, 0, 170]",170,l,0.3137589000398293,colour,0.5
137,20,0,1,11,42,542,800.7860612999648,801.6954245000379,"[63, 0, 191]",191,a,0.3861590001033619,colour,0.5
137,20,0,1,11,43,543,802.2078395000426,803.0554436999373,"[92, 0, 162]",162,l,0.32412869995459914,colour,0.5
137,20,0,1,11,44,544,803.567563700024,804.5033207000233,"[4, 0, 250]",250,a,0.4131687000626698,colour,0.5
137,20,0,1,11,45,545,805.0205748999724,805.847371699987,"[60, 0, 194]",194,a,0.3024046999635175,colour,0.5
137,20,0,1,11,46,546,806.365456999978,807.199351600022,"[45, 0, 209]",209,a,0.3107708999887109,colour,0.5
137,20,0,1,11,47,547,807.7090939999325,808.519372300012,"[42, 0, 212]",212,a,0.29920240002684295,colour,0.5
137,20,0,1,11,48,548,809.0405861999607,809.9674215000123,"[74, 0, 180]",180,l,0.4004832999780774,colour,0.5
137,20,0,1,11,49,549,810.4809853000334,811.3113976999884,"[11, 0, 243]",243,a,0.3073823000304401,colour,0.5
137,20,0,1,11,50,550,811.8247064999305,812.7274345000042,"[22, 0, 232]",232,a,0.37940670002717525,colour,0.5
137,20,0,1,12,1,551,817.245503299986,818.1433726999676,"[41, 0, 213]",213,a,0.3738405000185594,colour,0.5
137,20,0,1,12,2,552,818.6524893000023,819.6395597000374,"[33, 0, 221]",221,a,0.46381109999492764,colour,0.5
137,20,0,1,12,3,553,820.1523401000304,820.9833912999602,"[57, 0, 197]",197,l,0.30800179997459054,colour,0.5
137,20,0,1,12,4,554,821.496132100001,822.4474156999495,"[15, 0, 239]",239,l,0.4280881999293342,colour,0.5
137,20,0,1,12,5,555,822.9646880000364,823.7673893999308,"[81, 0, 173]",173,l,0.27541249990463257,colour,0.5
137,20,0,1,12,6,556,824.2820953000337,825.0793691000436,"[31, 0, 223]",223,a,0.2736475000856444,colour,0.5
137,20,0,1,12,7,557,825.5956557999598,826.9753735000268,"[50, 0, 204]",204,a,0.8565671000396833,colour,0.5
137,20,0,1,12,8,558,827.4860466000391,828.3194041999523,"[68, 0, 186]",186,l,0.31004659994505346,colour,0.5
137,20,0,1,12,9,559,828.8297440999886,829.8473331000423,"[58, 0, 196]",196,l,0.4944370000157505,colour,0.5
137,20,0,1,12,10,560,830.3607914999593,831.303319199942,"[96, 0, 158]",158,l,0.419093000004068,colour,0.5
137,20,0,1,12,11,561,831.8137840999989,832.695356399985,"[47, 0, 207]",207,a,0.35647170001175255,colour,0.5
137,20,0,1,12,12,562,833.2063644999871,834.0953886000207,"[21, 0, 233]",233,a,0.36598010000307113,colour,0.5
137,20,0,1,12,13,563,834.6124561999459,835.6153329999652,"[86, 0, 168]",168,l,0.4802936000050977,colour,0.5
137,20,0,1,12,14,564,836.1286171999527,836.9514111999888,"[11, 0, 243]",243,a,0.29971529997419566,colour,0.5
137,20,0,1,12,15,565,837.4722774999682,838.3273360000458,"[3, 0, 251]",251,a,0.3345865000737831,colour,0.5
137,20,0,1,12,16,566,838.8443103999598,839.8153998999624,"[29, 0, 225]",225,a,0.4478663000045344,colour,0.5
137,20,0,1,12,17,567,840.3285883000353,841.2153894000221,"[93, 0, 161]",161,l,0.3759995000436902,colour,0.5
137,20,0,1,12,18,568,841.7223494999344,842.631398199941,"[40, 0, 214]",214,a,0.38581399992108345,colour,0.5
137,20,0,1,12,19,569,843.144126500003,843.9754344000248,"[2, 0, 252]",252,a,0.3084251000545919,colour,0.5
137,20,0,1,12,20,570,844.4877195999725,845.3514024999458,"[13, 0, 241]",241,a,0.3404715999495238,colour,0.5
137,20,0,1,12,21,571,845.8626418999629,846.7033589000348,"[59, 0, 195]",195,l,0.31755410006735474,colour,0.5
137,20,0,1,12,22,572,847.2218612999422,848.1113505000249,"[36, 0, 218]",218,a,0.36625520000234246,colour,0.5
137,20,0,1,12,23,573,848.6280859999824,849.5033688000403,"[80, 0, 174]",174,l,0.3528860000660643,colour,0.5
137,20,0,1,12,24,574,850.018530500005,850.9114162999904,"[49, 0, 205]",205,a,0.37019160005729645,colour,0.5
137,20,0,1,12,25,575,851.424665999948,852.3353495999472,"[67, 0, 187]",187,l,0.38763329992070794,colour,0.5
137,20,0,1,12,26,576,852.8405970999738,853.6233470999869,"[91, 0, 163]",163,l,0.2593648999463767,colour,0.5
137,20,0,1,12,27,577,854.1372234999435,855.0553615000099,"[71, 0, 183]",183,l,0.3947006000671536,colour,0.5
137,20,0,1,12,28,578,855.5622660999652,856.4153471000027,"[99, 0, 155]",155,l,0.32973160000983626,colour,0.5
137,20,0,1,12,29,579,856.9124164000386,857.7753675000276,"[45, 0, 209]",209,a,0.3523060000734404,colour,0.5
137,20,0,1,12,30,580,858.2781001999974,859.1433797000209,"[78, 0, 176]",176,l,0.3419440999859944,colour,0.5
137,20,0,1,12,31,581,859.6530418000184,860.5433395999717,"[70, 0, 184]",184,l,0.36682719993405044,colour,0.5
137,20,0,1,12,32,582,861.060033399961,861.9193646999775,"[76, 0, 178]",178,l,0.3451010000426322,colour,0.5
137,20,0,1,12,33,583,862.4258625999792,863.3033526999643,"[22, 0, 232]",232,a,0.3542513999855146,colour,0.5
137,20,0,1,12,34,584,863.8161151999375,864.7033247000072,"[27, 0, 227]",227,a,0.36406509997323155,colour,0.5
137,20,0,1,12,35,585,865.2223454000195,866.1433752999874,"[60, 0, 194]",194,l,0.40458039997611195,colour,0.5
137,20,0,1,12,36,586,866.6529472999973,867.5273209000006,"[56, 0, 198]",198,a,0.3638151000486687,colour,0.5
137,20,0,1,12,37,587,868.039199699997,869.0073371999897,"[20, 0, 234]",234,a,0.44492919999174774,colour,0.5
137,20,0,1,12,38,588,869.5233879999723,870.3832961999578,"[34, 0, 220]",220,a,0.3369154999963939,colour,0.5
137,20,0,1,12,39,589,870.9001335999928,871.7913166999351,"[97, 0, 157]",157,l,0.3678519999375567,colour,0.5
137,20,0,1,12,40,590,872.3062516000355,873.1593876000261,"[12, 0, 242]",242,a,0.3301839000778273,colour,0.5
137,20,0,1,12,41,591,873.6712698999327,874.6232990999706,"[72, 0, 182]",182,l,0.4294821999501437,colour,0.5
137,20,0,1,12,42,592,875.1280540999724,876.0552893000422,"[39, 0, 215]",215,a,0.414854200091213,colour,0.5
137,20,0,1,12,43,593,876.5727795000421,877.4953970999923,"[48, 0, 206]",206,a,0.399301000055857,colour,0.5
137,20,0,1,12,44,594,878.0008532999782,878.8473340999335,"[88, 0, 166]",166,l,0.3231544999871403,colour,0.5
137,20,0,1,12,45,595,879.3644898999482,880.3273600999964,"[38, 0, 216]",216,a,0.43702850001864135,colour,0.5
137,20,0,1,12,46,596,880.8356940000085,881.679376999964,"[46, 0, 208]",208,a,0.31715719995554537,colour,0.5
137,20,0,1,12,47,597,882.1984381999355,883.2154933999991,"[14, 0, 240]",240,a,0.49393009999766946,colour,0.5
137,20,0,1,12,48,598,883.72956170002,884.6313073999481,"[85, 0, 169]",169,l,0.37931429990567267,colour,0.5
137,20,0,1,12,49,599,885.1513248999836,885.9434271999635,"[87, 0, 167]",167,l,0.26879290002398193,colour,0.5
137,20,0,1,12,50,600,886.440160099999,887.2713368999539,"[98, 0, 156]",156,l,0.30779469991102815,colour,0.5
137,20,0,1,13,1,601,891.7468413000461,892.5433202999411,"[83, 0, 171]",171,l,0.28466919995844364,colour,0.5
137,20,0,1,13,2,602,893.0638306000037,893.8793298000237,"[36, 0, 218]",218,a,0.30232020001858473,colour,0.5
137,20,0,1,13,3,603,894.3970985999331,895.2952878000215,"[1, 0, 253]",253,a,0.373695700080134,colour,0.5
137,20,0,1,13,4,604,895.8034067000262,896.6154252999695,"[7, 0, 247]",247,a,0.29118739999830723,colour,0.5
137,20,0,1,13,5,605,897.1289701999631,898.0633881000103,"[2, 0, 252]",252,a,0.4112404000479728,colour,0.5
137,20,0,1,13,6,606,898.5819557999494,899.8713198000332,"[43, 0, 211]",211,a,0.7661027000285685,colour,0.5
137,20,0,1,13,7,607,900.3790534000145,901.2713015000336,"[25, 0, 229]",229,a,0.3690436000470072,colour,0.5
137,20,0,1,13,8,608,901.7852101000026,902.6313085999573,"[35, 0, 219]",219,a,0.3229740000097081,colour,0.5
137,20,0,1,13,9,609,903.1445081999991,904.2233638999751,"[99, 0, 155]",155,l,0.5666747000068426,colour,0.5
137,20,0,1,13,10,610,904.7426743999822,905.719359699986,"[62, 0, 192]",192,l,0.4540798000525683,colour,0.5
137,20,0,1,13,11,611,906.2268970999867,907.0873003000161,"[9, 0, 245]",245,a,0.33712819998618215,colour,0.5
137,20,0,1,13,12,612,907.6017751999898,908.5272923000157,"[57, 0, 197]",197,a,0.4013264999957755,colour,0.5
137,20,0,1,13,13,613,909.040278099943,909.9512877999805,"[89, 0, 165]",165,a,0.3999642999842763,colour,0.5
137,20,0,1,13,14,614,910.466498099966,911.3513279999606,"[16, 0, 238]",238,a,0.36140479997266084,colour,0.5
137,20,0,1,13,15,615,911.8726300999988,912.743280799943,"[96, 0, 158]",158,l,0.3473140998976305,colour,0.5
137,20,0,1,13,16,616,913.2507441999624,914.4553538999753,"[66, 0, 188]",188,l,0.6812855999451131,colour,0.5
137,20,0,1,13,17,617,914.9693307999987,915.9673374999547,"[39, 0, 215]",215,a,0.48656400002073497,colour,0.5
137,20,0,1,13,18,618,916.4888473999454,917.5433429999975,"[69, 0, 185]",185,l,0.5348321000346914,colour,0.5
137,20,0,1,13,19,619,918.0633284000214,918.8952982999617,"[50, 0, 204]",204,a,0.308965599979274,colour,0.5
137,20,0,1,13,20,620,919.4070057999343,920.2233156999573,"[0, 0, 254]",254,a,0.29311730002518743,colour,0.5
137,20,0,1,13,21,621,920.7369082999649,921.7273423000006,"[11, 0, 243]",243,a,0.4670254000229761,colour,0.5
137,20,0,1,13,22,622,922.2342040999793,923.1033042999916,"[90, 0, 164]",164,l,0.34590059996116906,colour,0.5
137,20,0,1,13,23,623,923.6120257000439,924.3432741999859,"[49, 0, 205]",205,a,0.2079226999776438,colour,0.5
137,20,0,1,13,24,624,924.8592163999565,925.7672551999567,"[33, 0, 221]",221,a,0.3849757999414578,colour,0.5
137,20,0,1,13,25,625,926.2810958999908,927.1753107999684,"[58, 0, 196]",196,l,0.36908249999396503,colour,0.5
137,20,0,1,13,26,626,927.6889917999506,928.5913362000138,"[37, 0, 217]",217,a,0.3792757000774145,colour,0.5
137,20,0,1,13,27,627,929.1126970000332,930.0152509999461,"[5, 0, 249]",249,a,0.37967749999370426,colour,0.5
137,20,0,1,13,28,628,930.534421899938,931.3353293000255,"[67, 0, 187]",187,l,0.27756260009482503,colour,0.5
137,20,0,1,13,29,629,931.8467167000053,932.8073565999512,"[18, 0, 236]",236,a,0.4495432999683544,colour,0.5
137,20,0,1,13,30,630,933.3187684000004,933.9992786999792,"[51, 0, 203]",203,a,0.1609584999969229,colour,0.5
137,20,0,1,13,31,631,934.517957199947,935.4073226000182,"[27, 0, 227]",227,a,0.3643875999841839,colour,0.5
137,20,0,1,13,32,632,935.9258016999811,936.7912940999959,"[65, 0, 189]",189,l,0.3421992000658065,colour,0.5
137,20,0,1,13,33,633,937.3027312000049,938.1753068999387,"[24, 0, 230]",230,a,0.3501408000010997,colour,0.5
137,20,0,1,13,34,634,938.6931785999332,939.567259500036,"[45, 0, 209]",209,a,0.3482411000877619,colour,0.5
137,20,0,1,13,35,635,940.0862280000001,940.9673100999789,"[64, 0, 190]",190,l,0.3576767999911681,colour,0.5
137,20,0,1,13,36,636,941.4768576000351,942.2873066000175,"[77, 0, 177]",177,l,0.2870909000048414,colour,0.5
137,20,0,1,13,37,637,942.7926419000141,943.7673092000186,"[10, 0, 244]",244,a,0.4512367000570521,colour,0.5
137,20,0,1,13,38,638,944.2768810000271,945.1833161000395,"[63, 0, 191]",191,l,0.3837272000964731,colour,0.5
137,20,0,1,13,39,639,945.6987254000269,946.6073001000332,"[61, 0, 193]",193,l,0.38612030004151165,colour,0.5
137,20,0,1,13,40,640,947.1156491000438,947.975287099951,"[94, 0, 160]",160,l,0.3367189000127837,colour,0.5
137,20,0,1,13,41,641,948.4779809999745,949.2793943999568,"[87, 0, 167]",167,l,0.27832269994542,colour,0.5
137,20,0,1,13,42,642,949.7905268999748,950.6472922000103,"[47, 0, 207]",207,a,0.3342715000035241,colour,0.5
137,20,0,1,13,43,643,951.1653195000254,952.0312891999492,"[55, 0, 199]",199,a,0.34267699997872114,colour,0.5
137,20,0,1,13,44,644,952.5404355999781,953.4232572999317,"[12, 0, 242]",242,a,0.359527499997057,colour,0.5
137,20,0,1,13,45,645,953.9309189999476,954.8312458000146,"[46, 0, 208]",208,a,0.3773100000107661,colour,0.5
137,20,0,1,13,46,646,955.3369425999699,956.2632751000347,"[86, 0, 168]",168,l,0.4030233999947086,colour,0.5
137,20,0,1,13,47,647,956.7744028000161,957.7753142999718,"[60, 0, 194]",194,l,0.47769850003533065,colour,0.5
137,20,0,1,13,48,648,958.289845500025,959.2152646000031,"[70, 0, 184]",184,l,0.4137011000420898,colour,0.5
137,20,0,1,13,49,649,959.7316890000366,960.6073011000408,"[21, 0, 233]",233,a,0.3530445001088083,colour,0.5
137,20,0,1,13,50,650,961.121711499989,962.0393269000342,"[95, 0, 159]",159,l,0.39439040003344417,colour,0.5
137,20,0,1,14,1,651,967.9526522000087,968.8952748000156,"[28, 0, 226]",226,a,0.41905710007995367,colour,0.5
137,20,0,1,14,2,652,969.4065477999393,970.2712699000258,"[13, 0, 241]",241,a,0.3416200000792742,colour,0.5
137,20,0,1,14,3,653,970.7710827999981,971.6233198000118,"[74, 0, 180]",180,l,0.32894879998639226,colour,0.5
137,20,0,1,14,4,654,972.1302992999554,973.0312162999762,"[57, 0, 197]",197,l,0.3771439000265673,colour,0.5
137,20,0,1,14,5,655,973.5372039999347,974.5272849999601,"[60, 0, 194]",194,l,0.47917920001782477,colour,0.5
137,20,0,1,14,6,656,975.0403277999721,975.927286399994,"[61, 0, 193]",193,l,0.3743942000437528,colour,0.5
137,20,0,1,14,7,657,976.4275934000034,977.4792951999698,"[48, 0, 206]",206,a,0.5289666999597102,colour,0.5
137,20,0,1,14,8,658,977.9937184000155,978.887275999994,"[68, 0, 186]",186,l,0.3701419000281021,colour,0.5
137,20,0,1,14,9,659,979.399914199952,980.2712835000129,"[20, 0, 234]",234,a,0.34863070002757013,colour,0.5
137,20,0,1,14,10,660,980.790777200018,981.6632844000123,"[77, 0, 177]",177,l,0.34923040005378425,colour,0.5
137,20,0,1,14,11,661,982.1689606000436,983.0072548999451,"[19, 0, 235]",235,a,0.31502089998684824,colour,0.5
137,20,0,1,14,12,662,983.5280434000306,984.3992428999627,"[6, 0, 248]",248,a,0.348773599951528,colour,0.5
137,20,0,1,14,13,663,984.918578700046,985.9512379999505,"[50, 0, 204]",204,a,0.5086915999418125,colour,0.5
137,20,0,1,14,14,664,986.467924800003,987.3432544999523,"[22, 0, 232]",232,a,0.35212950001005083,colour,0.5
137,20,0,1,14,15,665,987.8600142999785,988.7752898000181,"[16, 0, 238]",238,a,0.3920642000157386,colour,0.5
137,20,0,1,14,16,666,989.2817452000454,990.3032519000117,"[54, 0, 200]",200,l,0.4982120000058785,colour,0.5
137,20,0,1,14,17,667,990.8129138000077,991.7432939000428,"[12, 0, 242]",242,a,0.4036342001054436,colour,0.5
137,20,0,1,14,18,668,992.2538775999565,993.1912250999594,"[95, 0, 159]",159,l,0.4137951999437064,colour,0.5
137,20,0,1,14,19,669,993.7090630000457,994.7752765000332,"[66, 0, 188]",188,l,0.5432162000797689,colour,0.5
137,20,0,1,14,20,670,995.2869908999419,996.2792911999859,"[8, 0, 246]",246,a,0.4689209000207484,colour,0.5
137,20,0,1,14,21,671,996.786821299931,997.7672449999955,"[32, 0, 222]",222,a,0.457613299950026,colour,0.5
137,20,0,1,14,22,672,998.2755691999337,999.1592705999501,"[58, 0, 196]",196,l,0.360251099918969,colour,0.5
137,20,0,1,14,23,673,999.6665627999464,1000.6792353999335,"[44, 0, 210]",210,l,0.4895005999132991,colour,0.5
137,20,0,1,14,24,674,1001.1976183999795,1002.1352226999588,"[90, 0, 164]",164,l,0.41504260001238436,colour,0.5
137,20,0,1,14,25,675,1002.6507102999603,1003.6312602999387,"[67, 0, 187]",187,l,0.46822119993157685,colour,0.5
137,20,0,1,14,26,676,1004.1314316999633,1005.0312952999957,"[80, 0, 174]",174,l,0.37732960004359484,colour,0.5
137,20,0,1,14,27,677,1005.5376205999637,1006.4153487000149,"[52, 0, 202]",202,a,0.3553651000838727,colour,0.5
137,20,0,1,14,28,678,1006.9155773000093,1007.7992333000293,"[89, 0, 165]",165,l,0.3603035000851378,colour,0.5
137,20,0,1,14,29,679,1008.3062931000022,1009.2072756999405,"[9, 0, 245]",245,a,0.3778451000107452,colour,0.5
137,20,0,1,14,30,680,1009.728703300003,1010.5112466999562,"[7, 0, 247]",247,a,0.2591283000074327,colour,0.5
137,20,0,1,14,31,681,1011.02562640002,1011.8872231999412,"[3, 0, 251]",251,a,0.35025659995153546,colour,0.5
137,20,0,1,14,32,682,1012.3932383999927,1013.2392306999536,"[62, 0, 192]",192,l,0.33206479996442795,colour,0.5
137,20,0,1,14,33,683,1013.7606343999505,1014.639206700027,"[85, 0, 169]",169,l,0.3561039000051096,colour,0.5
137,20,0,1,14,34,684,1015.1512147999601,1015.9994945999933,"[46, 0, 208]",208,a,0.32505340001080185,colour,0.5
137,20,0,1,14,35,685,1016.5103460999671,1017.3354286999675,"[75, 0, 179]",179,l,0.29892390000168234,colour,0.5
137,20,0,1,14,36,686,1017.8573968999553,1018.743241499993,"[43, 0, 211]",211,a,0.37360729998908937,colour,0.5
137,20,0,1,14,37,687,1019.2544258999405,1020.0952439999674,"[73, 0, 181]",181,l,0.31746879999991506,colour,0.5
137,20,0,1,14,38,688,1020.6137495000148,1021.4952314000111,"[70, 0, 184]",184,l,0.35838230000808835,colour,0.5
137,20,0,1,14,39,689,1022.0043052999536,1022.9034598999424,"[24, 0, 230]",230,a,0.3755957999965176,colour,0.5
137,20,0,1,14,40,690,1023.4107522999402,1024.3672651000088,"[65, 0, 189]",189,l,0.4332457999698818,colour,0.5
137,20,0,1,14,41,691,1024.8795130000217,1025.831168100005,"[23, 0, 231]",231,a,0.42860680003650486,colour,0.5
137,20,0,1,14,42,692,1026.3481094000163,1027.311270999955,"[99, 0, 155]",155,l,0.44006990001071244,colour,0.5
137,20,0,1,14,43,693,1027.8323387999553,1029.079176099971,"[34, 0, 220]",220,a,0.7235741999465972,colour,0.5
137,20,0,1,14,44,694,1029.5993653000332,1030.4631962999701,"[2, 0, 252]",252,a,0.3404091999400407,colour,0.5
137,20,0,1,14,45,695,1030.9635256000329,1031.8712052999763,"[38, 0, 216]",216,a,0.3846720999572426,colour,0.5
137,20,0,1,14,46,696,1032.385034200037,1033.2631875999505,"[45, 0, 209]",209,a,0.35497109999414533,colour,0.5
137,20,0,1,14,47,697,1033.7755697999382,1034.6232515999582,"[21, 0, 233]",233,a,0.32436249998863786,colour,0.5
137,20,0,1,14,48,698,1035.1348448999925,1035.959288700018,"[97, 0, 157]",157,l,0.30108740006107837,colour,0.5
137,20,0,1,14,49,699,1036.480496400036,1037.3432149,"[1, 0, 253]",253,a,0.33958030003122985,colour,0.5
137,20,0,1,14,50,700,1037.8554061999312,1038.8152861000272,"[59, 0, 195]",195,l,0.4364942000247538,colour,0.5
137,20,0,1,15,1,701,1043.5624378999928,1044.3992062000325,"[69, 0, 185]",185,l,0.31293470005039126,colour,0.5
137,20,0,1,15,2,702,1044.906828999985,1045.8232001999859,"[88, 0, 166]",166,l,0.39319289999548346,colour,0.5
137,20,0,1,15,3,703,1046.328565999982,1047.383204499958,"[28, 0, 226]",226,a,0.5282889999216422,colour,0.5
137,20,0,1,15,4,704,1047.8939443000127,1048.7431884999387,"[76, 0, 178]",178,l,0.32596569997258484,colour,0.5
137,20,0,1,15,5,705,1049.2533065000316,1050.1752011999488,"[49, 0, 205]",205,a,0.39849369996227324,colour,0.5
137,20,0,1,15,6,706,1050.6905928000342,1051.6631785000209,"[99, 0, 155]",155,l,0.4494786000577733,colour,0.5
137,20,0,1,15,7,707,1052.1749020999996,1053.0392467000056,"[42, 0, 212]",212,a,0.3411201999988407,colour,0.5
137,20,0,1,15,8,708,1053.5497713999357,1054.4712358999532,"[77, 0, 177]",177,l,0.39890959998592734,colour,0.5
137,20,0,1,15,9,709,1054.987185099977,1056.0151906999527,"[90, 0, 164]",164,l,0.5054977999534458,colour,0.5
137,20,0,1,15,10,710,1056.533836800023,1057.5031801000005,"[51, 0, 203]",203,a,0.44661640003323555,colour,0.5
137,20,0,1,15,11,711,1058.0056599000236,1058.9752736999653,"[5, 0, 249]",249,a,0.4465372000122443,colour,0.5
137,20,0,1,15,12,712,1059.4899612000445,1060.4072076999582,"[9, 0, 245]",245,a,0.3997813999885693,colour,0.5
137,20,0,1,15,13,713,1060.9217214999953,1061.6552241999889,"[22, 0, 232]",232,a,0.20593259995803237,colour,0.5
137,20,0,1,15,14,714,1062.1633675999474,1062.7192104000133,"[14, 0, 240]",240,a,0.03257749998010695,colour,0.5
137,20,0,1,15,15,715,1063.2257297999458,1064.4071728000417,"[54, 0, 200]",200,a,0.6580389000009745,colour,0.5
137,20,0,1,15,16,716,1064.9133419999853,1065.7991458999459,"[73, 0, 181]",181,l,0.37511069991160184,colour,0.5
137,20,0,1,15,17,717,1066.3069214000134,1067.1831871999893,"[40, 0, 214]",214,a,0.352810199954547,colour,0.5
137,20,0,1,15,18,718,1067.6973563999636,1068.6472132999916,"[63, 0, 191]",191,a,0.4268403999740258,colour,0.5
137,20,0,1,15,19,719,1069.1659631000366,1070.0311969999457,"[65, 0, 189]",189,l,0.3418385999975726,colour,0.5
137,20,0,1,15,20,720,1070.540872600046,1071.343274599989,"[8, 0, 246]",246,a,0.280004599946551,colour,0.5
137,20,0,1,15,21,721,1071.8532719999785,1072.7591794999316,"[1, 0, 253]",253,a,0.38265789998695254,colour,0.5
137,20,0,1,15,22,722,1073.275101199979,1074.1512551000342,"[83, 0, 171]",171,l,0.35357440006919205,colour,0.5
137,20,0,1,15,23,723,1074.6655508000404,1075.5992076999974,"[57, 0, 197]",197,l,0.41389690001960844,colour,0.5
137,20,0,1,15,24,724,1076.1157056000084,1077.0793751999736,"[36, 0, 218]",218,a,0.45106250001117587,colour,0.5
137,20,0,1,15,25,725,1077.5901392999804,1078.4952052000444,"[56, 0, 198]",198,l,0.38177000009454787,colour,0.5
137,20,0,1,15,26,726,1079.0118659000145,1079.9672636999749,"[61, 0, 193]",193,l,0.4299232999328524,colour,0.5
137,20,0,1,15,27,727,1080.4771677999524,1081.3911777000176,"[34, 0, 220]",220,l,0.3961220000637695,colour,0.5
137,20,0,1,15,28,728,1081.9096767000156,1082.751272100024,"[78, 0, 176]",176,l,0.3186108000809327,colour,0.5
137,20,0,1,15,29,729,1083.2657045000233,1084.1831748000113,"[30, 0, 224]",224,a,0.39396550005767494,colour,0.5
137,20,0,1,15,30,730,1084.7032237999374,1085.6151823999826,"[19, 0, 235]",235,a,0.38802740001119673,colour,0.5
137,20,0,1,15,31,731,1086.125763499993,1087.0632078000344,"[2, 0, 252]",252,l,0.41440550005063415,colour,0.5
137,20,0,1,15,32,732,1087.5785464999499,1088.4632280999795,"[98, 0, 156]",156,l,0.36139810003805906,colour,0.5
137,20,0,1,15,33,733,1088.9690656999592,1089.7911953999428,"[64, 0, 190]",190,l,0.2984908999642357,colour,0.5
137,20,0,1,15,34,734,1090.2973545000423,1091.1592174000107,"[47, 0, 207]",207,a,0.33879710000474006,colour,0.5
137,20,0,1,15,35,735,1091.6742012000177,1092.5271578000393,"[96, 0, 158]",158,l,0.3297115000896156,colour,0.5
137,20,0,1,15,36,736,1093.0334298999514,1093.919293700019,"[45, 0, 209]",209,a,0.3624913999810815,colour,0.5
137,20,0,1,15,37,737,1094.4395883999532,1095.3192059999565,"[48, 0, 206]",206,a,0.3523297000210732,colour,0.5
137,20,0,1,15,38,738,1095.8366092999931,1096.7831222999375,"[85, 0, 169]",169,l,0.4239914999343455,colour,0.5
137,20,0,1,15,39,739,1097.277938400046,1098.1271555999992,"[38, 0, 216]",216,a,0.32593559997621924,colour,0.5
137,20,0,1,15,40,740,1098.6391239999793,1099.5831658999668,"[53, 0, 201]",201,l,0.4216881999745965,colour,0.5
137,20,0,1,15,41,741,1100.092106499942,1100.9911587999668,"[70, 0, 184]",184,l,0.37569329992402345,colour,0.5
137,20,0,1,15,42,742,1101.4987276999746,1102.4151900999714,"[71, 0, 183]",183,a,0.3930925999302417,colour,0.5
137,20,0,1,15,43,743,1102.9243777999654,1103.8631425999338,"[74, 0, 180]",180,l,0.4157346999272704,colour,0.5
137,20,0,1,15,44,744,1104.3773194999667,1105.2312196999555,"[13, 0, 241]",241,a,0.3381338999606669,colour,0.5
137,20,0,1,15,45,745,1105.744679299998,1106.6151642999612,"[10, 0, 244]",244,a,0.34773779998067766,colour,0.5
137,20,0,1,15,46,746,1107.1351988000097,1107.9351519999327,"[17, 0, 237]",237,a,0.27730039996095,colour,0.5
137,20,0,1,15,47,747,1108.4475480000256,1109.463329399936,"[97, 0, 157]",157,l,0.49276189994998276,colour,0.5
137,20,0,1,15,48,748,1109.9786715999944,1110.9431827999651,"[15, 0, 239]",239,a,0.44192499993368983,colour,0.5
137,20,0,1,15,49,749,1111.4629752000328,1112.3991987999761,"[23, 0, 231]",231,a,0.4130900000454858,colour,0.5
137,20,0,1,15,50,750,1112.9159668999491,1113.7591952999355,"[41, 0, 213]",213,a,0.31990509992465377,colour,0.5
137,20,0,1,16,1,751,1119.0119746000273,1119.9511721000308,"[14, 0, 240]",240,a,0.41523490007966757,colour,0.5
137,20,0,1,16,2,752,1120.4656781000085,1121.4791567999637,"[24, 0, 230]",230,a,0.4896574999438599,colour,0.5
137,20,0,1,16,3,753,1121.997732799966,1122.9271596999606,"[93, 0, 161]",161,l,0.4066853999393061,colour,0.5
137,20,0,1,16,4,754,1123.4352703000186,1124.343153099995,"[0, 0, 254]",254,a,0.385175000061281,colour,0.5
137,20,0,1,16,5,755,1124.8592130999314,1125.7351807999657,"[10, 0, 244]",244,a,0.3529568000230938,colour,0.5
137,20,0,1,16,6,756,1126.2497677999781,1127.3270913000451,"[38, 0, 216]",216,l,0.5539985001087189,colour,0.5
137,20,0,1,16,7,757,1127.8433823999949,1128.727182899951,"[9, 0, 245]",245,a,0.36041239998303354,colour,0.5
137,20,0,1,16,8,758,1129.2215466999914,1130.0151796999853,"[84, 0, 170]",170,l,0.27072160004172474,colour,0.5
137,20,0,1,16,9,759,1130.5339268000098,1131.4711509000044,"[58, 0, 196]",196,l,0.41438009997364134,colour,0.5
137,20,0,1,16,10,760,1131.9868531000102,1132.7510695999954,"[80, 0, 174]",174,l,0.24089370004367083,colour,0.5
137,20,0,1,16,11,761,1133.2699691000162,1134.2311613999773,"[56, 0, 198]",198,l,0.4509562000166625,colour,0.5
137,20,0,1,16,12,762,1134.7293967000442,1135.6471367999911,"[30, 0, 224]",224,a,0.3939353000605479,colour,0.5
137,20,0,1,16,13,763,1136.1675977000268,1137.04710169998,"[36, 0, 218]",218,a,0.356451699975878,colour,0.5
137,20,0,1,16,14,764,1137.5600653999718,1138.3911765000084,"[68, 0, 186]",186,l,0.3077898999908939,colour,0.5
137,20,0,1,16,15,765,1138.90368019999,1139.7831514000427,"[25, 0, 229]",229,a,0.3568552000215277,colour,0.5
137,20,0,1,16,16,766,1140.2941683999961,1141.3511529000243,"[41, 0, 213]",213,l,0.5336538000265136,colour,0.5
137,20,0,1,16,17,767,1141.8723253000062,1142.7991319999564,"[89, 0, 165]",165,l,0.41637749993242323,colour,0.5
137,20,0,1,16,18,768,1143.3128627999686,1144.1351470999653,"[67, 0, 187]",187,l,0.2990845999447629,colour,0.5
137,20,0,1,16,19,769,1144.6382178999484,1145.615122999996,"[19, 0, 235]",235,a,0.4538845999632031,colour,0.5
137,20,0,1,16,20,770,1146.122396199964,1146.9671624000184,"[60, 0, 194]",194,l,0.32146270002704114,colour,0.5
137,20,0,1,16,21,771,1147.4816447999328,1148.375123900012,"[34, 0, 220]",220,a,0.36725200002547354,colour,0.5
137,20,0,1,16,22,772,1148.8905923999846,1149.8311270000413,"[78, 0, 176]",176,l,0.4179796000244096,colour,0.5
137,20,0,1,16,23,773,1150.3436208999483,1151.1671323999763,"[76, 0, 178]",178,l,0.3000874000135809,colour,0.5
137,20,0,1,16,24,774,1151.6873779000016,1152.6071700999746,"[85, 0, 169]",169,l,0.39644040004350245,colour,0.5
137,20,0,1,16,25,775,1153.1124413999496,1154.0311246999772,"[77, 0, 177]",177,l,0.395803099963814,colour,0.5
137,20,0,1,16,26,776,1154.539913799963,1155.4711282999488,"[7, 0, 247]",247,a,0.4147306999657303,colour,0.5
137,20,0,1,16,27,777,1155.9737461999757,1156.9191325999564,"[79, 0, 175]",175,l,0.42200319992844015,colour,0.5
137,20,0,1,16,28,778,1157.4268277999945,1158.3671290000202,"[23, 0, 231]",231,a,0.41694220004137605,colour,0.5
137,20,0,1,16,29,779,1158.879822399933,1159.7270991000114,"[88, 0, 166]",166,l,0.32037500001024455,colour,0.5
137,20,0,1,16,30,780,1160.2427219999954,1161.0711877000285,"[29, 0, 225]",225,a,0.30559320002794266,colour,0.5
137,20,0,1,16,31,781,1161.5864880000008,1162.3751605999423,"[40, 0, 214]",214,a,0.26539849990513176,colour,0.5
137,20,0,1,16,32,782,1162.8849148999434,1163.6951096999692,"[66, 0, 188]",188,l,0.2870051999343559,colour,0.5
137,20,0,1,16,33,783,1164.212835800019,1165.0151761999587,"[46, 0, 208]",208,a,0.27897099999245256,colour,0.5
137,20,0,1,16,34,784,1165.5253097999375,1166.3591314000078,"[70, 0, 184]",184,l,0.31047360005322844,colour,0.5
137,20,0,1,16,35,785,1166.8688981999876,1167.6951049999334,"[52, 0, 202]",202,a,0.303284699912183,colour,0.5
137,20,0,1,16,36,786,1168.2126253999304,1169.0711288000457,"[73, 0, 181]",181,l,0.33527270006015897,colour,0.5
137,20,0,1,16,37,787,1169.5874236000236,1170.423163700034,"[21, 0, 233]",233,a,0.31512660009320825,colour,0.5
137,20,0,1,16,38,788,1170.9290616000071,1171.7591413999908,"[12, 0, 242]",242,a,0.31675590004306287,colour,0.5
137,20,0,1,16,39,789,1172.2781367000425,1173.2631291999714,"[11, 0, 243]",243,a,0.46051400003489107,colour,0.5
137,20,0,1,16,40,790,1173.7790878999513,1174.591117199976,"[94, 0, 160]",160,l,0.28866640001069754,colour,0.5
137,20,0,1,16,41,791,1175.1071377999615,1175.9911195000168,"[97, 0, 157]",157,l,0.373208099976182,colour,0.5
137,20,0,1,16,42,792,1176.500731899985,1177.3431234000018,"[63, 0, 191]",191,l,0.31681540003046393,colour,0.5
137,20,0,1,16,43,793,1177.8620730999392,1178.759090699954,"[17, 0, 237]",237,a,0.37356269999872893,colour,0.5
137,20,0,1,16,44,794,1179.2684509999817,1180.1430967999622,"[64, 0, 190]",190,l,0.3517376999370754,colour,0.5
137,20,0,1,16,45,795,1180.6587671999587,1181.5671563999495,"[4, 0, 250]",250,a,0.3850423999829218,colour,0.5
137,20,0,1,16,46,796,1182.0806460999884,1182.9831149999518,"[65, 0, 189]",189,l,0.3765625999076292,colour,0.5
137,20,0,1,16,47,797,1183.4896046000067,1184.3511702000396,"[26, 0, 228]",228,a,0.33832450001500547,colour,0.5
137,20,0,1,16,48,798,1184.8644998000236,1185.8390732000116,"[55, 0, 199]",199,l,0.45168080006260425,colour,0.5
137,20,0,1,16,49,799,1186.3488918000367,1187.4393087000353,"[15, 0, 239]",239,a,0.5674981999909505,colour,0.5
137,20,0,1,16,50,800,1187.958063900005,1188.8951235000277,"[37, 0, 217]",217,a,0.41365890007000417,colour,0.5
