id,age,condition,counterbalance,block,trialinblock,trial,tstart,tend,trialstim,trialintensity,response,RT,trialtype,colourfreq
043,72,0,2,Practice,1,NA,5.90737909078598e-06,2.7689959765411913,"[95, 0, 159]",159,l,2.244565320201218,colour,0.5
043,72,0,2,Practice,2,NA,3.28219375340268,11.528990210499614,"[75, 0, 179]",179,l,7.723696212284267,colour,0.5
043,72,0,2,Practice,3,NA,12.048899909481406,13.29691925831139,"[18, 0, 236]",236,a,0.7247895286418498,colour,0.5
043,72,0,2,Practice,4,NA,13.814526140224189,20.096966047305614,"[60, 0, 194]",194,a,5.759316031355411,colour,0.5
043,72,0,2,Practice,5,NA,20.612619059626013,21.98490034136921,"[3, 0, 251]",251,a,0.8489356711506844,colour,0.5
043,72,0,2,Practice,6,NA,22.503615505527705,23.480902017559856,"[57, 0, 197]",197,a,0.46705675823614,colour,0.5
043,72,0,2,Practice,7,NA,23.99094705749303,25.424901065882295,"[73, 0, 181]",181,l,0.9110140586271882,colour,0.5
043,72,0,2,Practice,8,NA,25.944020316004753,26.904900388326496,"[37, 0, 217]",217,a,0.4377242950722575,colour,0.5
043,72,0,2,Practice,9,NA,27.41273516509682,28.6970147266984,"[16, 0, 238]",238,a,0.7610245351679623,colour,0.5
043,72,0,2,Practice,10,NA,29.20960952527821,30.032922368030995,"[49, 0, 205]",205,a,0.29843792831525207,colour,0.5
043,72,0,2,1,1,1,4.923720709979534,6.103887101635337,"[84, 0, 170]",170,l,0.6566179501824081,colour,0.5
043,72,0,2,1,2,2,6.612027109134942,7.887925235554576,"[4, 0, 250]",250,a,0.7526690936647356,colour,0.5
043,72,0,2,1,3,3,8.408842786215246,9.503894348628819,"[47, 0, 207]",207,a,0.5717988992109895,colour,0.5
043,72,0,2,1,4,4,10.01821419224143,10.647838337346911,"[10, 0, 244]",244,a,0.10625766031444073,colour,0.5
043,72,0,2,1,5,5,11.159532804507762,12.255863972008228,"[99, 0, 155]",155,l,0.582189342007041,colour,0.5
043,72,0,2,1,6,6,12.768879792187363,13.415871754288673,"[86, 0, 168]",168,l,0.12378183426335454,colour,0.5
043,72,0,2,1,7,7,13.92505427217111,14.663821786642075,"[94, 0, 160]",160,l,0.2157531282864511,colour,0.5
043,72,0,2,1,8,8,15.175092081073672,15.999872787855566,"[53, 0, 201]",201,a,0.3014780250377953,colour,0.5
043,72,0,2,1,9,9,16.518899484537542,17.623842487111688,"[92, 0, 162]",162,l,0.5817001857794821,colour,0.5
043,72,0,2,1,10,10,18.143863644450903,18.7358502978459,"[32, 0, 222]",222,a,0.06869263667613268,colour,0.5
043,72,0,2,1,11,11,19.253159038256854,19.831823853310198,"[74, 0, 180]",180,l,0.05527942581102252,colour,0.5
043,72,0,2,1,12,12,20.34698377037421,21.15985772712156,"[82, 0, 172]",172,l,0.2900647637434304,colour,0.5
043,72,0,2,1,13,13,21.675059392116964,25.43985382048413,"[93, 0, 161]",161,l,3.24024955695495,colour,0.5
043,72,0,2,1,14,14,25.95763123733923,26.74387569585815,"[40, 0, 214]",214,a,0.263089862652123,colour,0.5
043,72,0,2,1,15,15,27.254381142091006,27.911813172046095,"[26, 0, 228]",228,a,0.13415731117129326,colour,0.5
043,72,0,2,1,16,16,28.426279526669532,29.015805430710316,"[43, 0, 211]",211,a,0.06624094536527991,colour,0.5
043,72,0,2,1,17,17,29.535677320789546,30.671998815611005,"[87, 0, 167]",167,l,0.6130349612794816,colour,0.5
043,72,0,2,1,18,18,31.19189157895744,31.959813537541777,"[29, 0, 225]",225,a,0.24462872929871082,colour,0.5
043,72,0,2,1,19,19,32.47437087073922,33.72784971166402,"[46, 0, 208]",208,a,0.7301844302564859,colour,0.5
043,72,0,2,1,20,20,34.23999473825097,34.92783403676003,"[37, 0, 217]",217,a,0.1645712754689157,colour,0.5
043,72,0,2,1,21,21,35.44311722740531,36.36782018886879,"[90, 0, 164]",164,l,0.4013927965424955,colour,0.5
043,72,0,2,1,22,22,36.880562285892665,38.06384242372587,"[45, 0, 209]",209,a,0.6605717693455517,colour,0.5
043,72,0,2,1,23,23,38.58374424604699,39.3598790736869,"[18, 0, 236]",236,a,0.2529436042532325,colour,0.5
043,72,0,2,1,24,24,39.88060875982046,41.199866958893836,"[63, 0, 191]",191,a,0.7962446003220975,colour,0.5
043,72,0,2,1,25,25,41.70881238160655,43.727832382544875,"[68, 0, 186]",186,l,1.4945586249232292,colour,0.5
043,72,0,2,1,26,26,44.24125622678548,45.49587879655883,"[88, 0, 166]",166,l,0.7312718387693167,colour,0.5
043,72,0,2,1,27,27,46.00712703587487,46.69583240151405,"[16, 0, 238]",238,a,0.16565986536443233,colour,0.5
043,72,0,2,1,28,28,47.21003094082698,47.89584902161732,"[50, 0, 204]",204,a,0.1625110669992864,colour,0.5
043,72,0,2,1,29,29,48.413168002385646,49.175860474817455,"[12, 0, 242]",242,a,0.23962334170937538,colour,0.5
043,72,0,2,1,30,30,49.69436256820336,50.559884272515774,"[85, 0, 169]",169,l,0.34226470859721303,colour,0.5
043,72,0,2,1,31,31,51.069383835885674,51.73583966400474,"[72, 0, 182]",182,l,0.14321655547246337,colour,0.5
043,72,0,2,1,32,32,52.25687300506979,52.799875860102475,"[39, 0, 215]",215,a,0.019708049949258566,colour,0.5
043,72,0,2,1,33,33,53.31930034048855,54.02386233676225,"[48, 0, 206]",206,a,0.18122583767399192,colour,0.5
043,72,0,2,1,34,34,54.53801440214738,55.335872983094305,"[61, 0, 193]",193,a,0.2746693268418312,colour,0.5
043,72,0,2,1,35,35,55.85056540509686,56.655837348196656,"[11, 0, 243]",243,a,0.281966898124665,colour,0.5
043,72,0,2,1,36,36,57.16307229781523,58.14383134897798,"[51, 0, 203]",203,a,0.45751072047278285,colour,0.5
043,72,0,2,1,37,37,58.66320462990552,60.9838109635748,"[7, 0, 247]",247,a,1.797683713492006,colour,0.5
043,72,0,2,1,38,38,61.491206208243966,62.399912723805755,"[77, 0, 177]",177,l,0.38541446765884757,colour,0.5
043,72,0,2,1,39,39,62.91297462396324,64.27985391486436,"[78, 0, 176]",176,l,0.8436561664566398,colour,0.5
043,72,0,2,1,40,40,64.78801755327731,67.06385305756703,"[69, 0, 185]",185,l,1.7526371921412647,colour,0.5
043,72,0,2,1,41,41,67.57044918928295,68.50380652071908,"[54, 0, 200]",200,a,0.41003220062702894,colour,0.5
043,72,0,2,1,42,42,69.02360357996076,69.6878286646679,"[23, 0, 231]",231,a,0.1408743537031114,colour,0.5
043,72,0,2,1,43,43,70.19549251254648,71.49585713492706,"[49, 0, 205]",205,a,0.7770544579252601,colour,0.5
043,72,0,2,1,44,44,71.9987373300828,73.1757978531532,"[30, 0, 224]",224,a,0.653318309225142,colour,0.5
043,72,0,2,1,45,45,73.68661443749443,74.63985862536356,"[20, 0, 234]",234,a,0.4299210263416171,colour,0.5
043,72,0,2,1,46,46,75.15549076348543,75.83986224839464,"[28, 0, 226]",226,a,0.16115229856222868,colour,0.5
043,72,0,2,1,47,47,76.35852975770831,77.63179659936577,"[95, 0, 159]",159,l,0.7499775509350002,colour,0.5
043,72,0,2,1,48,48,78.1412362982519,79.68779361248016,"[89, 0, 165]",165,l,1.0233267066068947,colour,0.5
043,72,0,2,1,49,49,80.20365496911108,81.18381931306794,"[22, 0, 232]",232,a,0.4567706841044128,colour,0.5
043,72,0,2,1,50,50,81.70366520900279,82.3838162412867,"[8, 0, 246]",246,a,0.15682826470583677,colour,0.5
043,72,0,2,2,1,51,87.59575418336317,89.15985733317211,"[96, 0, 158]",158,l,1.0400895760394633,colour,0.5
043,72,0,2,2,2,52,89.67473053094,90.22382893878967,"[2, 0, 252]",252,a,0.025868194177746773,colour,0.5
043,72,0,2,2,3,53,90.73713069083169,94.40786132216454,"[70, 0, 184]",184,l,3.147379112895578,colour,0.5
043,72,0,2,2,4,54,94.92466515209526,95.97582770651206,"[41, 0, 213]",213,a,0.5282139400951564,colour,0.5
043,72,0,2,2,5,55,96.48713305406272,97.25581237813458,"[1, 0, 253]",253,a,0.24534198408946395,colour,0.5
043,72,0,2,2,6,56,97.76834652479738,98.64780840510502,"[66, 0, 188]",188,l,0.3561265096068382,colour,0.5
043,72,0,2,2,7,57,99.15907476143911,99.8398212888278,"[12, 0, 242]",242,a,0.157513162586838,colour,0.5
043,72,0,2,2,8,58,100.34645010950044,101.07978727621958,"[84, 0, 170]",170,l,0.2101774513721466,colour,0.5
043,72,0,2,2,9,59,101.59653005981818,103.0638447869569,"[59, 0, 195]",195,a,0.9418573142029345,colour,0.5
043,72,0,2,2,10,60,103.58302823407575,104.4717903919518,"[80, 0, 174]",174,l,0.3654145775362849,colour,0.5
043,72,0,2,2,11,61,104.98930472042412,106.00823334930465,"[34, 0, 220]",220,a,0.4956141319125891,colour,0.5
043,72,0,2,2,12,62,106.52116961218417,107.53583210194483,"[60, 0, 194]",194,a,0.49142597429454327,colour,0.5
043,72,0,2,2,13,63,108.05243900930509,109.14378448110074,"[17, 0, 237]",237,a,0.5680995043367147,colour,0.5
043,72,0,2,2,14,64,109.66182223055512,110.4478500741534,"[6, 0, 248]",248,a,0.26274485420435667,colour,0.5
043,72,0,2,2,15,65,110.95870486134663,111.48786127520725,"[25, 0, 229]",229,a,0.006253879517316818,colour,0.5
043,72,0,2,2,16,66,112.02115149516612,112.59183462895453,"[65, 0, 189]",189,l,0.047463159542530775,colour,0.5
043,72,0,2,2,17,67,113.09925586776808,113.73577940557152,"[31, 0, 223]",223,a,0.11322321929037571,colour,0.5
043,72,0,2,2,18,68,114.25551541848108,115.14379432750866,"[57, 0, 197]",197,a,0.3746427819132805,colour,0.5
043,72,0,2,2,19,69,115.65218679001555,116.24800556432456,"[90, 0, 164]",164,l,0.07167838234454393,colour,0.5
043,72,0,2,2,20,70,116.76230768533424,117.31978910369799,"[81, 0, 173]",173,l,0.03417007252573967,colour,0.5
043,72,0,2,2,21,71,117.84037936804816,120.23181928461418,"[87, 0, 167]",167,l,1.880860820878297,colour,0.5
043,72,0,2,2,22,72,120.74988972349092,121.98381608352065,"[62, 0, 192]",192,a,0.7106347065418959,colour,0.5
043,72,0,2,2,23,73,122.49989563087001,124.44780044956133,"[56, 0, 198]",198,a,1.4247427401132882,colour,0.5
043,72,0,2,2,24,74,124.96860969252884,126.20778523106128,"[10, 0, 244]",244,a,0.7158232321962714,colour,0.5
043,72,0,2,2,25,75,126.71858369885013,127.99982710182667,"[16, 0, 238]",238,a,0.7562889317050576,colour,0.5
043,72,0,2,2,26,76,128.5170176886022,129.25580962141976,"[44, 0, 210]",210,a,0.2155180019326508,colour,0.5
043,72,0,2,2,27,77,129.76753717148677,131.28783283941448,"[27, 0, 227]",227,a,0.997726327739656,colour,0.5
043,72,0,2,2,28,78,131.79880893137306,132.83981341170147,"[63, 0, 191]",191,a,0.5176726542413235,colour,0.5
043,72,0,2,2,29,79,133.3613248821348,135.0637589287944,"[20, 0, 234]",234,a,1.179138848092407,colour,0.5
043,72,0,2,2,30,80,135.5800633621402,137.95980093441904,"[24, 0, 230]",230,a,1.856619210448116,colour,0.5
043,72,0,2,2,31,81,138.46414544899017,139.52779882680625,"[98, 0, 156]",156,l,0.5384326665662229,colour,0.5
043,72,0,2,2,32,82,140.04425567854196,141.07980066677555,"[21, 0, 233]",233,a,0.5120906759984791,colour,0.5
043,72,0,2,2,33,83,141.59137737378478,142.2157854232937,"[35, 0, 219]",219,a,0.1011967402882874,colour,0.5
043,72,0,2,2,34,84,142.7319984845817,143.9678164869547,"[11, 0, 243]",243,a,0.7275157305411994,colour,0.5
043,72,0,2,2,35,85,144.48261209670454,145.1118085249327,"[38, 0, 216]",216,a,0.1058078883215785,colour,0.5
043,72,0,2,2,36,86,145.62329976726323,146.28779936255887,"[89, 0, 165]",165,l,0.14122330117970705,colour,0.5
043,72,0,2,2,37,87,146.79524462576956,148.80778664909303,"[78, 0, 176]",176,l,1.4895748984999955,colour,0.5
043,72,0,2,2,38,88,149.32641201652586,150.86377066513523,"[67, 0, 187]",187,l,1.0140985022298992,colour,0.5
043,72,0,2,2,39,89,151.37327259173617,152.4877931396477,"[77, 0, 177]",177,l,0.5912036877125502,colour,0.5
043,72,0,2,2,40,90,152.9982761363499,153.9918095804751,"[51, 0, 203]",203,a,0.4702185532078147,colour,0.5
043,72,0,2,2,41,91,154.4982469920069,155.6717774742283,"[40, 0, 214]",214,a,0.650266791228205,colour,0.5
043,72,0,2,2,42,92,156.18578421045095,157.04778217477724,"[69, 0, 185]",185,l,0.33874805830419064,colour,0.5
043,72,0,2,2,43,93,157.56216306472197,158.14374155225232,"[5, 0, 249]",249,a,0.05829667951911688,colour,0.5
043,72,0,2,2,44,94,158.65590981580317,159.26377633679658,"[83, 0, 171]",171,l,0.08466663304716349,colour,0.5
043,72,0,2,2,45,95,159.78097046818584,162.40784005448222,"[37, 0, 217]",217,a,2.1037681601010263,colour,0.5
043,72,0,2,2,46,96,162.92149941902608,163.95979975303635,"[33, 0, 221]",221,a,0.5150433387607336,colour,0.5
043,72,0,2,2,47,97,164.46836314490065,165.23177123535424,"[52, 0, 202]",202,a,0.23999355640262365,colour,0.5
043,72,0,2,2,48,98,165.749623877462,167.09575575916097,"[13, 0, 241]",241,a,0.8227819385938346,colour,0.5
043,72,0,2,2,49,99,167.6103182118386,168.7517482819967,"[48, 0, 206]",206,a,0.6180596468038857,colour,0.5
043,72,0,2,2,50,100,169.2664997810498,169.99974163714796,"[72, 0, 182]",182,l,0.20989427575841546,colour,0.5
043,72,0,2,3,1,101,175.23627643892542,178.27977790264413,"[59, 0, 195]",195,l,2.5195264872163534,colour,0.5
043,72,0,2,3,2,102,178.79967263527215,180.11181797692552,"[26, 0, 228]",228,a,0.799216955434531,colour,0.5
043,72,0,2,3,3,103,180.63278475869447,181.91974483523518,"[45, 0, 209]",209,a,0.7637397088110447,colour,0.5
043,72,0,2,3,4,104,182.44113697018474,183.15187565190718,"[37, 0, 217]",217,a,0.18750255974009633,colour,0.5
043,72,0,2,3,5,105,183.65983409667388,184.51972656091675,"[6, 0, 248]",248,a,0.3350104605779052,colour,0.5
043,72,0,2,3,6,106,185.03636300610378,185.94373083952814,"[12, 0, 242]",242,a,0.384796523489058,colour,0.5
043,72,0,2,3,7,107,186.45827753841877,187.27178479963914,"[53, 0, 201]",201,a,0.2912526032887399,colour,0.5
043,72,0,2,3,8,108,187.78636221867055,190.1917596408166,"[54, 0, 200]",200,a,1.8821325497701764,colour,0.5
043,72,0,2,3,9,109,190.70828896015882,191.86379075143486,"[27, 0, 227]",227,a,0.6322199837304652,colour,0.5
043,72,0,2,3,10,110,192.3813590365462,193.32775463722646,"[50, 0, 204]",204,a,0.42322761472314596,colour,0.5
043,72,0,2,3,11,111,193.8344626207836,194.7037656395696,"[94, 0, 160]",160,l,0.34671398578211665,colour,0.5
043,72,0,2,3,12,112,195.22504395339638,195.89573126193136,"[56, 0, 198]",198,a,0.14731767307966948,colour,0.5
043,72,0,2,3,13,113,196.41262646391988,197.127731715329,"[48, 0, 206]",206,a,0.19190418208017945,colour,0.5
043,72,0,2,3,14,114,197.64696596888825,198.3037509098649,"[16, 0, 238]",238,a,0.1336874533444643,colour,0.5
043,72,0,2,3,15,115,198.8189194914885,199.51175393769518,"[55, 0, 199]",199,a,0.16960462601855397,colour,0.5
043,72,0,2,3,16,116,200.02194076264277,201.1757474411279,"[68, 0, 186]",186,l,0.630430347751826,colour,0.5
043,72,0,2,3,17,117,201.6938671101816,202.6557589727454,"[71, 0, 183]",183,l,0.43864195607602596,colour,0.5
043,72,0,2,3,18,118,203.16254060575739,204.1677823010832,"[17, 0, 237]",237,a,0.482004392426461,colour,0.5
043,72,0,2,3,19,119,204.67812548251823,205.91977555537596,"[36, 0, 218]",218,a,0.7182445973157883,colour,0.5
043,72,0,2,3,20,120,206.428169593215,207.59977180557325,"[9, 0, 245]",245,a,0.6483078012242913,colour,0.5
043,72,0,2,3,21,121,208.11708842311054,209.04775224253535,"[83, 0, 171]",171,l,0.4073107251897454,colour,0.5
043,72,0,2,3,22,122,209.55463430611417,210.23177399253473,"[8, 0, 246]",246,a,0.15392128750681877,colour,0.5
043,72,0,2,3,23,123,210.74207306327298,211.4397592972964,"[25, 0, 229]",229,a,0.17435519536957145,colour,0.5
043,72,0,2,3,24,124,211.96082572173327,212.95973398070782,"[1, 0, 253]",253,a,0.47563314670696855,colour,0.5
043,72,0,2,3,25,125,213.4764480139129,214.03202755050734,"[39, 0, 215]",215,a,0.03224062081426382,colour,0.5
043,72,0,2,3,26,126,214.5389092201367,215.11972049577162,"[13, 0, 241]",241,a,0.057458181865513325,colour,0.5
043,72,0,2,3,27,127,215.6326831462793,216.28782141767442,"[70, 0, 184]",184,l,0.13188718352466822,colour,0.5
043,72,0,2,3,28,128,216.8048532847315,217.38380009355024,"[79, 0, 175]",175,l,0.06532446620985866,colour,0.5
043,72,0,2,3,29,129,217.904580979608,218.82376497797668,"[44, 0, 210]",210,a,0.3959140060469508,colour,0.5
043,72,0,2,3,30,130,219.34210874559358,220.27974166860804,"[77, 0, 177]",177,l,0.4143495396710932,colour,0.5
043,72,0,2,3,31,131,220.79525880422443,221.4957208642736,"[21, 0, 233]",233,a,0.177111329510808,colour,0.5
043,72,0,2,3,32,132,222.01393623789772,222.78376992465928,"[74, 0, 180]",180,l,0.24676455557346344,colour,0.5
043,72,0,2,3,33,133,223.29520878568292,224.2157165003009,"[41, 0, 213]",213,a,0.39758588187396526,colour,0.5
043,72,0,2,3,34,134,224.7327018934302,225.85576298972592,"[96, 0, 158]",158,l,0.5997532946057618,colour,0.5
043,72,0,2,3,35,135,226.3737763208337,227.2237375662662,"[33, 0, 221]",221,a,0.3266404466703534,colour,0.5
043,72,0,2,3,36,136,227.734382040333,228.6877365047112,"[92, 0, 162]",162,l,0.4300218508578837,colour,0.5
043,72,0,2,3,37,137,229.1907364288345,230.3838879209943,"[81, 0, 173]",173,a,0.6692387429066002,colour,0.5
043,72,0,2,3,38,138,230.89445244381204,231.77573271095753,"[75, 0, 179]",179,l,0.35800909297540784,colour,0.5
043,72,0,2,3,39,139,232.29739305516705,233.20772024663165,"[28, 0, 226]",226,a,0.38726790668442845,colour,0.5
043,72,0,2,3,40,140,233.71922921203077,234.75971617922187,"[72, 0, 182]",182,l,0.5172051591798663,colour,0.5
043,72,0,2,3,41,141,235.26614728895947,236.2957290560007,"[31, 0, 223]",223,a,0.5063062608242035,colour,0.5
043,72,0,2,3,42,142,236.81294051697478,238.1278096968308,"[66, 0, 188]",188,a,0.7916551139205694,colour,0.5
043,72,0,2,3,43,143,238.6450443943031,240.81577029963955,"[5, 0, 249]",249,a,1.6476087248884141,colour,0.5
043,72,0,2,3,44,144,241.3412367706187,242.2556891045533,"[23, 0, 231]",231,a,0.39976463792845607,colour,0.5
043,72,0,2,3,45,145,242.76684991037473,243.67972528468817,"[88, 0, 166]",166,l,0.3901654309593141,colour,0.5
043,72,0,2,3,46,146,244.18862462695688,245.8717137495987,"[60, 0, 194]",194,l,1.1596773453056812,colour,0.5
043,72,0,2,3,47,147,246.39182824874297,247.41574572352692,"[67, 0, 187]",187,l,0.5006143995560706,colour,0.5
043,72,0,2,3,48,148,247.92302517779171,248.99971485557035,"[76, 0, 178]",178,l,0.5533334328792989,colour,0.5
043,72,0,2,3,49,149,249.516846365761,250.91974483523518,"[91, 0, 163]",163,l,0.879682828206569,colour,0.5
043,72,0,2,3,50,150,251.43863723007962,252.6637445925735,"[30, 0, 224]",224,a,0.7023655171506107,colour,0.5
043,72,0,2,4,1,151,258.2831055065617,260.0956915621646,"[0, 0, 254]",254,a,1.2885401863604784,colour,0.5
043,72,0,2,4,2,152,260.6120243524201,261.9036786784418,"[76, 0, 178]",178,l,0.7684721611440182,colour,0.5
043,72,0,2,4,3,153,262.42447453085333,263.47973702149466,"[99, 0, 155]",155,l,0.531983045861125,colour,0.5
043,72,0,2,4,4,154,263.9868616941385,266.6796969277784,"[15, 0, 239]",239,a,2.1694336966611445,colour,0.5
043,72,0,2,4,5,155,267.1901547187008,268.04769986122847,"[77, 0, 177]",177,l,0.33424403658136725,colour,0.5
043,72,0,2,4,6,156,268.565108244773,269.76775890635327,"[88, 0, 166]",166,l,0.679335770662874,colour,0.5
043,72,0,2,4,7,157,270.28382939565927,270.9276863443665,"[91, 0, 163]",163,l,0.12060231622308493,colour,0.5
043,72,0,2,4,8,158,271.4400680726394,272.0796813312918,"[44, 0, 210]",210,a,0.11626686016097665,colour,0.5
043,72,0,2,4,9,159,272.5979010378942,273.6637414419092,"[82, 0, 172]",172,l,0.5428610700182617,colour,0.5
043,72,0,2,4,10,160,274.1760314037092,274.98370265588164,"[38, 0, 216]",216,a,0.2843441520817578,colour,0.5
043,72,0,2,4,11,161,275.50415822537616,276.175671428442,"[29, 0, 225]",225,a,0.14825738919898868,colour,0.5
043,72,0,2,4,12,162,276.6916698436253,277.31165579147637,"[92, 0, 162]",162,l,0.09672028757631779,colour,0.5
043,72,0,2,4,13,163,277.83233230840415,278.44770080642775,"[30, 0, 224]",224,a,0.0921067763119936,colour,0.5
043,72,0,2,4,14,164,278.9531197324395,279.5597113738768,"[31, 0, 223]",223,a,0.08325942140072584,colour,0.5
043,72,0,2,4,15,165,280.0812385980971,280.67171721579507,"[95, 0, 159]",159,l,0.06735868053510785,colour,0.5
043,72,0,2,4,16,166,281.19060567207634,281.7756945081055,"[26, 0, 228]",228,a,0.061799938790500164,colour,0.5
043,72,0,2,4,17,167,282.28426065668464,283.00767526961863,"[28, 0, 226]",226,a,0.20003079902380705,colour,0.5
043,72,0,2,4,18,168,283.51868838304654,284.47980712587014,"[14, 0, 240]",240,a,0.4377439874224365,colour,0.5
043,72,0,2,4,19,169,284.98741662316024,286.23173460783437,"[4, 0, 250]",250,a,0.7208774574100971,colour,0.5
043,72,0,2,4,20,170,286.7531157149933,287.33568905713037,"[98, 0, 156]",156,l,0.05920488806441426,colour,0.5
043,72,0,2,4,21,171,287.84679433051497,288.99965892964974,"[86, 0, 168]",168,l,0.629656046628952,colour,0.5
043,72,0,2,4,22,172,289.51866987207904,290.503702939488,"[80, 0, 174]",174,l,0.4616279858164489,colour,0.5
043,72,0,2,4,23,173,291.0186757799238,292.03972369339317,"[17, 0, 237]",237,a,0.4976365305483341,colour,0.5
043,72,0,2,4,24,174,292.5498742843047,294.63170128827915,"[39, 0, 215]",215,a,1.558472728356719,colour,0.5
043,72,0,2,4,25,175,295.1436356077902,296.103736652527,"[12, 0, 242]",242,a,0.43673101579770446,colour,0.5
043,72,0,2,4,26,176,296.61236817995086,297.6237180316821,"[90, 0, 164]",164,l,0.48798651807010174,colour,0.5
043,72,0,2,4,27,177,298.1442657611333,299.7197018270381,"[43, 0, 211]",211,a,1.052067218348384,colour,0.5
043,72,0,2,4,28,178,300.2266689618118,301.16769723035395,"[97, 0, 157]",157,l,0.4176692673936486,colour,0.5
043,72,0,2,4,29,179,301.6798587986268,303.6160057405941,"[36, 0, 218]",218,a,1.4168890579603612,colour,0.5
043,72,0,2,4,30,180,304.128854569979,304.8316824627109,"[8, 0, 246]",246,a,0.17953938944265246,colour,0.5
043,72,0,2,4,31,181,305.34755524108186,306.56771826185286,"[20, 0, 234]",234,a,0.6971368188969791,colour,0.5
043,72,0,2,4,32,182,307.08198217954487,308.25571509823203,"[65, 0, 189]",189,l,0.650487738661468,colour,0.5
043,72,0,2,4,33,183,308.7694536256604,310.8076606183313,"[81, 0, 173]",173,a,1.51498347427696,colour,0.5
043,72,0,2,4,34,184,311.31870878394693,312.4156850716099,"[55, 0, 199]",199,a,0.5736472182907164,colour,0.5
043,72,0,2,4,35,185,312.92805655952543,315.18370588542894,"[10, 0, 244]",244,a,1.7326806257478893,colour,0.5
043,72,0,2,4,36,186,315.69374186731875,316.6156634888612,"[23, 0, 231]",231,a,0.3986673830077052,colour,0.5
043,72,0,2,4,37,187,317.13333141664043,319.9117021076381,"[49, 0, 205]",205,a,2.2550093261525035,colour,0.5
043,72,0,2,4,38,188,320.43025776417926,321.4879680071026,"[9, 0, 245]",245,a,0.5345828225836158,colour,0.5
043,72,0,2,4,39,189,322.0095271328464,323.5597023158334,"[71, 0, 183]",183,a,1.0268744705244899,colour,0.5
043,72,0,2,4,40,190,324.0720344190486,325.0556579120457,"[33, 0, 221]",221,a,0.46032278053462505,colour,0.5
043,72,0,2,4,41,191,325.57198636978865,326.5757019123994,"[18, 0, 236]",236,a,0.4803581163287163,colour,0.5
043,72,0,2,4,42,192,327.0876137823798,328.1838169498369,"[57, 0, 197]",197,a,0.5727756367996335,colour,0.5
043,72,0,2,4,43,193,328.6970367822796,329.37589836260304,"[60, 0, 194]",194,a,0.15580899082124233,colour,0.5
043,72,0,2,4,44,194,329.88449956383556,330.6640376141295,"[51, 0, 203]",203,a,0.2561309994198382,colour,0.5
043,72,0,2,4,45,195,331.18138613319024,332.53572300681844,"[75, 0, 179]",179,l,0.8309333678334951,colour,0.5
043,72,0,2,4,46,196,333.04294220265,334.5837765415199,"[61, 0, 193]",193,a,1.0174855776131153,colour,0.5
043,72,0,2,4,47,197,335.10545933479443,336.0636711008847,"[21, 0, 233]",233,a,0.4382126643322408,colour,0.5
043,72,0,2,4,48,198,336.570934407413,338.38369493652135,"[74, 0, 180]",180,l,1.3015331635251641,colour,0.5
043,72,0,2,4,49,199,338.90260781161487,339.98364121606573,"[64, 0, 190]",190,l,0.5577039415948093,colour,0.5
043,72,0,2,4,50,200,340.49636795325205,341.5436660912819,"[67, 0, 187]",187,l,0.5240706810727715,colour,0.5
043,72,0,2,5,1,201,346.71434276597574,348.1837129746564,"[44, 0, 210]",210,a,0.9432531041093171,colour,0.5
043,72,0,2,5,2,202,348.70161563484,352.4076785775833,"[62, 0, 192]",192,a,3.182770107407123,colour,0.5
043,72,0,2,5,3,203,352.9202887364663,353.4717435245402,"[2, 0, 252]",252,a,0.028081214055418968,colour,0.5
043,72,0,2,5,4,204,353.98283146880567,354.5436857836321,"[7, 0, 247]",247,a,0.03758156578987837,colour,0.5
043,72,0,2,5,5,205,355.0609177239239,355.8236428857781,"[16, 0, 238]",238,a,0.23936931090429425,colour,0.5
043,72,0,2,5,6,206,356.34217136725783,357.40789361763746,"[46, 0, 208]",208,a,0.5423033842816949,colour,0.5
043,72,0,2,5,7,207,357.9202851918526,358.7276862654835,"[76, 0, 178]",178,l,0.2841113889589906,colour,0.5
043,72,0,2,5,8,208,359.248450610321,359.77563936961815,"[85, 0, 169]",169,l,0.0038498439826071262,colour,0.5
043,72,0,2,5,9,209,360.29529149318114,361.247690487653,"[55, 0, 199]",199,l,0.42911521717906,colour,0.5
043,72,0,2,5,10,210,361.7606818890199,362.51963440096006,"[28, 0, 226]",226,a,0.24643608834594488,colour,0.5
043,72,0,2,5,11,211,363.0310744433664,363.75163288554177,"[23, 0, 231]",231,a,0.19733649911358953,colour,0.5
043,72,0,2,5,12,212,364.26528004044667,365.0239997887984,"[4, 0, 250]",250,a,0.2352756760083139,colour,0.5
043,72,0,2,5,13,213,365.5310472678393,366.5436613652855,"[27, 0, 227]",227,a,0.48939176043495536,colour,0.5
043,72,0,2,5,14,214,367.0624442710541,367.96763098519295,"[95, 0, 159]",159,l,0.3820175463333726,colour,0.5
043,72,0,2,5,15,215,368.4842630987987,369.43160668667406,"[45, 0, 209]",209,a,0.4240921065211296,colour,0.5
043,72,0,2,5,16,216,369.95289681572467,370.8636249420233,"[13, 0, 241]",241,a,0.38816351210698485,colour,0.5
043,72,0,2,5,17,217,371.37490272009745,372.27163513796404,"[92, 0, 162]",162,l,0.3734632129780948,colour,0.5
043,72,0,2,5,18,218,372.7823339626193,374.32766247726977,"[48, 0, 206]",206,a,1.0220581283792853,colour,0.5
043,72,0,2,5,19,219,374.84485660865903,375.8076373813674,"[49, 0, 205]",205,a,0.43961357418447733,colour,0.5
043,72,0,2,5,20,220,376.32904605800286,377.21562552219257,"[99, 0, 155]",155,l,0.3631838350556791,colour,0.5
043,72,0,2,5,21,221,377.735398162622,378.55966765712947,"[79, 0, 175]",175,l,0.30090655433014035,colour,0.5
043,72,0,2,5,22,222,379.0791043471545,380.55164974182844,"[22, 0, 232]",232,a,0.9491592175327241,colour,0.5
043,72,0,2,5,23,223,381.0635769716464,381.67179480334744,"[37, 0, 217]",217,a,0.08503566682338715,colour,0.5
043,72,0,2,5,24,224,382.18848402425647,382.7596078715287,"[93, 0, 161]",161,l,0.0478247101418674,colour,0.5
043,72,0,2,5,25,225,383.2542425082065,385.01566561544314,"[66, 0, 188]",188,a,1.238089311402291,colour,0.5
043,72,0,2,5,26,226,385.53550717933103,387.36761302594095,"[91, 0, 163]",163,l,1.3086980083025992,colour,0.5
043,72,0,2,5,27,227,387.8768435930833,388.44764212332666,"[86, 0, 168]",168,l,0.04733594739809632,colour,0.5
043,72,0,2,5,28,228,388.95508817443624,389.70364512270316,"[67, 0, 187]",187,l,0.22536414954811335,colour,0.5
043,72,0,2,5,29,229,390.22056710673496,390.77564133889973,"[61, 0, 193]",193,a,0.03162149526178837,colour,0.5
043,72,0,2,5,30,230,391.28307675616816,392.3436120557599,"[83, 0, 171]",171,l,0.5371018615551293,colour,0.5
043,72,0,2,5,31,231,392.86134575586766,393.9036487461999,"[72, 0, 182]",182,l,0.5189731335267425,colour,0.5
043,72,0,2,5,32,232,394.42375694354996,395.35962307360023,"[82, 0, 172]",172,l,0.4124838914722204,colour,0.5
043,72,0,2,5,33,233,395.87693850975484,396.503621019423,"[39, 0, 215]",215,a,0.10337273869663477,colour,0.5
043,72,0,2,5,34,234,397.017506451346,398.03166284924373,"[81, 0, 173]",173,l,0.4909005840308964,colour,0.5
043,72,0,2,5,35,235,398.54875891283154,399.4636232093908,"[42, 0, 212]",212,a,0.39152616867795587,colour,0.5
043,72,0,2,5,36,236,399.9705442637205,400.84767103148624,"[74, 0, 180]",180,l,0.3543754704296589,colour,0.5
043,72,0,2,5,37,237,401.3612086973153,402.12760922918096,"[78, 0, 176]",176,l,0.2430064775981009,colour,0.5
043,72,0,2,5,38,238,402.6437305244617,403.5036607980728,"[21, 0, 233]",233,a,0.336640982888639,colour,0.5
043,72,0,2,5,39,239,404.01870768144727,404.799617103301,"[53, 0, 201]",201,a,0.25754608819261193,colour,0.5
043,72,0,2,5,40,240,405.31685810210183,406.1357449046336,"[0, 0, 254]",254,a,0.2957109394483268,colour,0.5
043,72,0,2,5,41,241,406.6449061543681,407.35964512918144,"[36, 0, 218]",218,a,0.19257175084203482,colour,0.5
043,72,0,2,5,42,242,407.8782421397045,408.7836387739517,"[31, 0, 223]",223,a,0.38208686327561736,colour,0.5
043,72,0,2,5,43,243,409.3001212258823,409.9436627039686,"[34, 0, 220]",220,a,0.1202238304540515,colour,0.5
043,72,0,2,5,44,244,410.45631618611515,411.1996645219624,"[71, 0, 183]",183,l,0.2199924853630364,colour,0.5
043,72,0,2,5,45,245,411.7062413552776,412.5436050449498,"[9, 0, 245]",245,a,0.3139794818125665,colour,0.5
043,72,0,2,5,46,246,413.05220664013177,414.0956281530671,"[29, 0, 225]",225,a,0.52038664650172,colour,0.5
043,72,0,2,5,47,247,414.61470762453973,415.7196250273846,"[17, 0, 237]",237,a,0.5817888011224568,colour,0.5
043,72,0,2,5,48,248,416.2397505538538,417.175619835034,"[87, 0, 167]",167,l,0.4125949563458562,colour,0.5
043,72,0,2,5,49,249,417.69280490791425,419.0396126289852,"[54, 0, 200]",200,a,0.8234199690632522,colour,0.5
043,72,0,2,5,50,250,419.55221727397293,420.64765283605084,"[63, 0, 191]",191,a,0.5720753790810704,colour,0.5
043,72,0,2,6,1,251,426.046998815611,427.27160796290264,"[28, 0, 226]",226,a,0.7009555492550135,colour,0.5
043,72,0,2,6,2,252,427.78222092892975,428.5195969855413,"[79, 0, 175]",175,l,0.21415017498657107,colour,0.5
043,72,0,2,6,3,253,429.0343213090673,430.78360844776034,"[86, 0, 168]",168,a,1.2260234476998448,colour,0.5
043,72,0,2,6,4,254,431.29990815510973,432.5996355349198,"[68, 0, 186]",186,l,0.7764345440082252,colour,0.5
043,72,0,2,6,5,255,433.11237605661154,434.19158437941223,"[56, 0, 198]",198,a,0.5558335673995316,colour,0.5
043,72,0,2,6,6,256,434.7061956692487,435.3835921427235,"[76, 0, 178]",178,l,0.15411821054294705,colour,0.5
043,72,0,2,6,7,257,435.8942590658553,436.70359392277896,"[54, 0, 200]",200,a,0.286094403360039,colour,0.5
043,72,0,2,6,8,258,437.2223531980999,437.9036069987342,"[77, 0, 177]",177,l,0.15789598086848855,colour,0.5
043,72,0,2,6,9,259,438.4098636349663,440.8556338082999,"[53, 0, 201]",201,a,1.9224816700443625,colour,0.5
043,72,0,2,6,10,260,441.3629857301712,441.95162311801687,"[82, 0, 172]",172,l,0.06547452136874199,colour,0.5
043,72,0,2,6,11,261,442.45840475102887,443.0555874132551,"[97, 0, 157]",157,l,0.07422892842441797,colour,0.5
043,72,0,2,6,12,262,443.5677812770009,444.2156141004525,"[18, 0, 236]",236,a,0.12454274483025074,colour,0.5
043,72,0,2,6,13,263,444.72398923384026,446.4556123833172,"[59, 0, 195]",195,a,1.2082917168736458,colour,0.5
043,72,0,2,6,14,264,446.9740396463312,447.7436051238328,"[5, 0, 249]",249,a,0.24618678353726864,colour,0.5
043,72,0,2,6,15,265,448.2553043169901,449.49556135665625,"[14, 0, 240]",240,a,0.7170173735357821,colour,0.5
043,72,0,2,6,16,266,450.00524405855685,451.3196169929579,"[2, 0, 252]",252,a,0.7910946710035205,colour,0.5
043,72,0,2,6,17,267,451.8353046635166,452.7996308878064,"[70, 0, 184]",184,l,0.44102669321000576,colour,0.5
043,72,0,2,6,18,268,453.3196559837088,453.88758140802383,"[33, 0, 221]",221,a,0.04473026283085346,colour,0.5
043,72,0,2,6,19,269,454.3978206142783,455.04761636583135,"[11, 0, 243]",243,a,0.12663997430354357,colour,0.5
043,72,0,2,6,20,270,455.5540344789624,456.45559150958434,"[73, 0, 181]",181,l,0.3781999982893467,colour,0.5
043,72,0,2,6,21,271,456.97589190350845,458.687616775278,"[75, 0, 179]",179,l,1.1871878770180047,colour,0.5
043,72,0,2,6,22,272,459.1958619398065,460.8715723589994,"[57, 0, 197]",197,a,1.1524561806581914,colour,0.5
043,72,0,2,6,23,273,461.3833652874455,462.687594326213,"[43, 0, 211]",211,a,0.7809897661209106,colour,0.5
043,72,0,2,6,24,274,463.1958040446043,463.99159257113934,"[30, 0, 224]",224,a,0.2724543372169137,colour,0.5
043,72,0,2,6,25,275,464.5083444137126,466.3515992509201,"[6, 0, 248]",248,a,1.3199757863767445,colour,0.5
043,72,0,2,6,26,276,466.86777962278575,468.3115841113031,"[62, 0, 192]",192,a,0.9205589145421982,colour,0.5
043,72,0,2,6,27,277,468.8208004999906,469.407593506854,"[40, 0, 214]",214,a,0.06341982679441571,colour,0.5
043,72,0,2,6,28,278,469.91455985372886,470.5196552746929,"[17, 0, 237]",237,a,0.08197784703224897,colour,0.5
043,72,0,2,6,29,279,471.04121361253783,471.575599512551,"[1, 0, 253]",253,a,0.011099366005510092,colour,0.5
043,72,0,2,6,30,280,472.08809427404776,473.72754881344736,"[21, 0, 233]",233,a,1.116258590016514,colour,0.5
043,72,0,2,6,31,281,474.24428411433473,474.8556290823035,"[80, 0, 174]",174,l,0.0879083788022399,colour,0.5
043,72,0,2,6,32,282,475.3693282250315,476.09564154362306,"[22, 0, 232]",232,a,0.20302245253697038,colour,0.5
043,72,0,2,6,33,283,476.60363267734647,477.59960875380784,"[72, 0, 182]",182,l,0.47051984537392855,colour,0.5
043,72,0,2,6,34,284,478.10590950073674,479.8556026946753,"[85, 0, 169]",169,l,1.2264637676998973,colour,0.5
043,72,0,2,6,35,285,480.3714597192593,482.9516203608364,"[50, 0, 204]",204,a,2.054136878810823,colour,0.5
043,72,0,2,6,36,286,483.46784484386444,485.1596147241071,"[29, 0, 225]",225,a,1.1683726757764816,colour,0.5
043,72,0,2,6,37,287,485.6706573762931,486.8796107545495,"[9, 0, 245]",245,a,0.685321441385895,colour,0.5
043,72,0,2,6,38,288,487.3894994375296,488.9038945059292,"[46, 0, 208]",208,a,0.9910549712367356,colour,0.5
043,72,0,2,6,39,289,489.40899520460516,491.4396096356213,"[94, 0, 160]",160,l,1.5073353801853955,colour,0.5
043,72,0,2,6,40,290,491.9558041864075,493.8876227620058,"[38, 0, 216]",216,a,1.4088861094787717,colour,0.5
043,72,0,2,6,41,291,494.4089231309481,495.65556520037353,"[39, 0, 215]",215,a,0.7233070926740766,colour,0.5
043,72,0,2,6,42,292,496.17457456793636,497.44758344022557,"[44, 0, 210]",210,a,0.7500417474657297,colour,0.5
043,72,0,2,6,43,293,497.9558553863317,500.23159242933616,"[24, 0, 230]",230,a,1.7525875675491989,colour,0.5
043,72,0,2,6,44,294,500.75270769093186,502.55959597742185,"[23, 0, 231]",231,a,1.2836490143090487,colour,0.5
043,72,0,2,6,45,295,503.06637682253495,504.2556245136075,"[42, 0, 212]",212,a,0.6658942033536732,colour,0.5
043,72,0,2,6,46,296,504.76946898549795,505.75971381599084,"[92, 0, 162]",162,l,0.4653777927160263,colour,0.5
043,72,0,2,6,47,297,506.2709620553069,507.49557907972485,"[81, 0, 173]",173,l,0.7013143426738679,colour,0.5
043,72,0,2,6,48,298,508.00538741843775,509.48756352765486,"[99, 0, 155]",155,l,0.9591762949712574,colour,0.5
043,72,0,2,6,49,299,510.0064634056762,511.98355575138703,"[60, 0, 194]",194,l,1.4537451597861946,colour,0.5
043,72,0,2,6,50,300,512.4927685949951,513.5675961691886,"[35, 0, 219]",219,a,0.5514634526334703,colour,0.5
043,72,0,2,7,1,301,518.8669907492585,521.1355794891715,"[12, 0, 242]",242,a,1.7444538618437946,colour,0.5
043,72,0,2,7,2,302,521.6490880106576,523.0075594787486,"[23, 0, 231]",231,a,0.8331648986786604,colour,0.5
043,72,0,2,7,3,303,523.5260816584341,524.687562818639,"[8, 0, 246]",246,a,0.6381544540636241,colour,0.5
043,72,0,2,7,4,304,525.1980147017166,527.1355696432292,"[19, 0, 235]",235,a,1.4145519766025245,colour,0.5
043,72,0,2,7,5,305,527.6510938676074,528.7915275078267,"[58, 0, 196]",196,a,0.6170525830239058,colour,0.5
043,72,0,2,7,6,306,529.3073372710496,530.6235778224654,"[98, 0, 156]",156,l,0.7929878882132471,colour,0.5
043,72,0,2,7,7,307,531.1354483384639,533.647559100762,"[61, 0, 193]",193,l,1.9887616066262126,colour,0.5
043,72,0,2,7,8,308,534.1667677541263,535.3035630453378,"[36, 0, 218]",218,a,0.6136950463987887,colour,0.5
043,72,0,2,7,9,309,535.8228528308682,537.0155443111435,"[80, 0, 174]",174,l,0.6693214508704841,colour,0.5
043,72,0,2,7,10,310,537.5272919470444,539.2635640534572,"[29, 0, 225]",225,a,1.2129261018708348,colour,0.5
043,72,0,2,7,11,311,539.7772049070336,540.7995848078281,"[53, 0, 201]",201,a,0.4990543760359287,colour,0.5
043,72,0,2,7,12,312,541.3085487410426,542.4955625380389,"[97, 0, 157]",157,l,0.6640435215085745,colour,0.5
043,72,0,2,7,13,313,543.0116086085327,544.3035634392872,"[62, 0, 192]",192,a,0.7686493922956288,colour,0.5
043,72,0,2,7,14,314,544.8242856422439,546.8875660481863,"[21, 0, 233]",233,a,1.5405086283572018,colour,0.5
043,72,0,2,7,15,315,547.4054080559872,549.1835235347971,"[55, 0, 199]",199,a,1.2548573017120361,colour,0.5
043,72,0,2,7,16,316,549.7023170744069,551.3595624216832,"[49, 0, 205]",205,a,1.1339119458571076,colour,0.5
043,72,0,2,7,17,317,551.8741181790829,553.1915469639935,"[40, 0, 214]",214,a,0.7942013279534876,colour,0.5
043,72,0,2,7,18,318,553.7022611484863,554.9115544152446,"[92, 0, 162]",162,l,0.6859169360250235,colour,0.5
043,72,0,2,7,19,319,555.4210019912571,556.7755188527517,"[15, 0, 239]",239,a,0.83121496764943,colour,0.5
043,72,0,2,7,20,320,557.2960543730296,558.4237825437449,"[91, 0, 163]",163,l,0.6044873232021928,colour,0.5
043,72,0,2,7,21,321,558.9366920250468,560.4795357659459,"[1, 0, 253]",253,a,1.0198876434005797,colour,0.5
043,72,0,2,7,22,322,560.9991626837291,563.0315498155542,"[31, 0, 223]",223,a,1.509080118034035,colour,0.5
043,72,0,2,7,23,323,563.547225670889,564.8234944059514,"[65, 0, 189]",189,l,0.7532330811955035,colour,0.5
043,72,0,2,7,24,324,565.3440527692437,566.9675482776947,"[7, 0, 247]",247,a,1.1001806175336242,colour,0.5
043,72,0,2,7,25,325,567.4847971536219,568.5595258725807,"[24, 0, 230]",230,a,0.5514469109475613,colour,0.5
043,72,0,2,7,26,326,569.0785356336273,570.4555221926421,"[46, 0, 208]",208,a,0.8537862771190703,colour,0.5
043,72,0,2,7,27,327,570.9692394519225,572.1355259260163,"[86, 0, 168]",168,l,0.6430184505879879,colour,0.5
043,72,0,2,7,28,328,572.6421689251438,574.5915845367126,"[69, 0, 185]",185,l,1.426054640673101,colour,0.5
043,72,0,2,7,29,329,575.1109617562033,576.6075412044302,"[70, 0, 184]",184,l,0.9732456528581679,colour,0.5
043,72,0,2,7,30,330,577.126579716336,578.8635268746875,"[96, 0, 158]",158,l,1.213724427856505,colour,0.5
043,72,0,2,7,31,331,579.3773327493109,580.6635244325735,"[6, 0, 248]",248,a,0.7633210504427552,colour,0.5
043,72,0,2,7,32,332,581.1741744200699,582.7915357784368,"[95, 0, 159]",159,l,1.0939913289621472,colour,0.5
043,72,0,2,7,33,333,583.3003866779618,585.0638443930075,"[57, 0, 197]",197,l,1.240151094738394,colour,0.5
043,72,0,2,7,34,334,585.5816820687614,587.0394901428372,"[47, 0, 207]",207,a,0.9346227585338056,colour,0.5
043,72,0,2,7,35,335,587.5503149982542,588.7756653632969,"[83, 0, 171]",171,l,0.7019890006631613,colour,0.5
043,72,0,2,7,36,336,589.2847474501468,590.927573310677,"[68, 0, 186]",186,l,1.1194428340531886,colour,0.5
043,72,0,2,7,37,337,591.4410203918815,592.6555317235179,"[17, 0, 237]",237,a,0.6913307420909405,colour,0.5
043,72,0,2,7,38,338,593.1753185428679,594.8795000836253,"[74, 0, 180]",180,l,1.1808284469880164,colour,0.5
043,72,0,2,7,39,339,595.3940995582379,596.6554817049764,"[32, 0, 222]",222,a,0.7380641051568091,colour,0.5
043,72,0,2,7,40,340,597.1752960933372,599.2719703009352,"[50, 0, 204]",204,a,1.57370038703084,colour,0.5
043,72,0,2,7,41,341,599.7847277582623,600.6155339134857,"[44, 0, 210]",210,a,0.3074912647716701,colour,0.5
043,72,0,2,7,42,342,601.1284303981811,602.2074989052489,"[14, 0, 240]",240,a,0.5561191053129733,colour,0.5
043,72,0,2,7,43,343,602.7221519425511,604.167529058177,"[60, 0, 194]",194,a,0.9220011783763766,colour,0.5
043,72,0,2,7,44,344,604.6752890041098,605.9435165873729,"[94, 0, 160]",160,l,0.7441383912228048,colour,0.5
043,72,0,2,7,45,345,606.456579668913,609.6075199367478,"[41, 0, 213]",213,a,2.627567087765783,colour,0.5
043,72,0,2,7,46,346,610.1243048622273,611.9995199018158,"[72, 0, 182]",182,a,1.3517504874616861,colour,0.5
043,72,0,2,7,47,347,612.5149283357896,614.0074984324165,"[45, 0, 209]",209,a,0.9693895070813596,colour,0.5
043,72,0,2,7,48,348,614.5148794990964,616.9115114863962,"[37, 0, 217]",217,a,1.8733828687109053,colour,0.5
043,72,0,2,7,49,349,617.4211575607769,618.3435356495902,"[87, 0, 167]",167,l,0.39912503212690353,colour,0.5
043,72,0,2,7,50,350,618.8586290068924,619.967547096312,"[16, 0, 238]",238,a,0.5855854758992791,colour,0.5
043,72,0,2,8,1,351,625.5453371796757,627.2634974936955,"[51, 0, 203]",203,a,1.1941002667881548,colour,0.5
043,72,0,2,8,2,352,627.7816813597456,629.1995321898721,"[63, 0, 191]",191,a,0.8944445666857064,colour,0.5
043,72,0,2,8,3,353,629.7193154646084,633.3595805382356,"[54, 0, 200]",200,a,3.1170707000419497,colour,0.5
043,72,0,2,8,4,354,633.8756502396427,634.8395188148133,"[86, 0, 168]",168,l,0.4407545458525419,colour,0.5
043,72,0,2,8,5,355,635.3598967967555,636.8635158468969,"[79, 0, 175]",175,l,0.9804798145778477,colour,0.5
043,72,0,2,8,6,356,637.3754328368232,638.3995212409645,"[27, 0, 227]",227,a,0.5011496362276375,colour,0.5
043,72,0,2,8,7,357,638.9066738765687,639.9914929280058,"[75, 0, 179]",179,l,0.5615754462778568,colour,0.5
043,72,0,2,8,8,358,640.501340651419,641.6238208254799,"[13, 0, 241]",241,a,0.5990439783781767,colour,0.5
043,72,0,2,8,9,359,642.1419534916058,643.1755623333156,"[81, 0, 173]",173,l,0.5102336923591793,colour,0.5
043,72,0,2,8,10,360,643.6888999254443,644.7115011676215,"[1, 0, 253]",253,a,0.4993009236641228,colour,0.5
043,72,0,2,8,11,361,645.2201480548829,646.6478284914047,"[50, 0, 204]",204,a,0.904684167355299,colour,0.5
043,72,0,2,8,12,362,647.1577183562331,648.0714487703517,"[90, 0, 164]",164,l,0.3886538506485522,colour,0.5
043,72,0,2,8,13,363,648.5812539584003,649.5835008490831,"[3, 0, 251]",251,a,0.47909347666427493,colour,0.5
043,72,0,2,8,14,364,650.0968923983164,651.0876913699321,"[94, 0, 160]",160,l,0.4676357116550207,colour,0.5
043,72,0,2,8,15,365,651.5968459243886,652.6394805330783,"[14, 0, 240]",240,a,0.5191334285773337,colour,0.5
043,72,0,2,8,16,366,653.1592256044969,654.3674850258976,"[0, 0, 254]",254,a,0.6847909307107329,colour,0.5
043,72,0,2,8,17,367,654.8781728227623,656.0555027364753,"[6, 0, 248]",248,a,0.654347428586334,colour,0.5
043,72,0,2,8,18,368,656.56565726595,657.7914822157472,"[44, 0, 210]",210,a,0.7028121389448643,colour,0.5
043,72,0,2,8,19,369,658.301213754341,659.4394950265996,"[38, 0, 216]",216,a,0.6155512426048517,colour,0.5
043,72,0,2,8,20,370,659.9574796068482,661.1674640732817,"[29, 0, 225]",225,a,0.686583717353642,colour,0.5
043,72,0,2,8,21,371,661.6761704315431,662.6714781513438,"[35, 0, 219]",219,a,0.4719699858687818,colour,0.5
043,72,0,2,8,22,372,663.1918112346902,664.2634715000167,"[77, 0, 177]",177,l,0.5483118975535035,colour,0.5
043,72,0,2,8,23,373,664.7701129238121,666.1276883925311,"[46, 0, 208]",208,a,0.8344464735127985,colour,0.5
043,72,0,2,8,24,374,666.6449380558915,667.9274709108286,"[7, 0, 247]",247,a,0.7592234779149294,colour,0.5
043,72,0,2,8,25,375,668.4460068750195,669.3917833501473,"[96, 0, 158]",158,l,0.4224493750371039,colour,0.5
043,72,0,2,8,26,376,669.8893218133599,671.1915087606758,"[95, 0, 159]",159,l,0.779330886900425,colour,0.5
043,72,0,2,8,27,377,671.7018661210313,672.8875164235942,"[47, 0, 207]",207,a,0.6623354121111333,colour,0.5
043,72,0,2,8,28,378,673.4049326837994,674.6555191203952,"[70, 0, 184]",184,l,0.7273365301080048,colour,0.5
043,72,0,2,8,29,379,675.1580397342332,676.6714675175026,"[52, 0, 202]",202,a,0.9900719323195517,colour,0.5
043,72,0,2,8,30,380,677.1893252790906,678.5115081779659,"[23, 0, 231]",231,a,0.7988747032359242,colour,0.5
043,72,0,2,8,31,381,679.0329901096411,680.5594608881511,"[68, 0, 186]",186,l,1.003087752033025,colour,0.5
043,72,0,2,8,32,382,681.0800003465265,682.4634774862789,"[12, 0, 242]",242,a,0.8608798361383379,colour,0.5
043,72,0,2,8,33,383,682.9718211120926,684.2794943335466,"[80, 0, 174]",174,l,0.7844918444752693,colour,0.5
043,72,0,2,8,34,384,684.7999357245862,687.1514944089577,"[43, 0, 211]",211,a,1.8283213814720511,colour,0.5
043,72,0,2,8,35,385,687.6593291861936,688.6154653844424,"[69, 0, 185]",185,l,0.43293394753709435,colour,0.5
043,72,0,2,8,36,386,689.1280566384085,690.3515027584508,"[60, 0, 194]",194,a,0.7006680411286652,colour,0.5
043,72,0,2,8,37,387,690.8624788504094,692.2954702991992,"[2, 0, 252]",252,a,0.909739573020488,colour,0.5
043,72,0,2,8,38,388,692.8167371912859,694.2234398187138,"[73, 0, 181]",181,l,0.8833593796007335,colour,0.5
043,72,0,2,8,39,389,694.7386399083771,695.8474902561866,"[32, 0, 222]",222,a,0.5856311614625156,colour,0.5
043,72,0,2,8,40,390,696.3635938283987,697.559440407902,"[19, 0, 235]",235,a,0.6726766237989068,colour,0.5
043,72,0,2,8,41,391,698.0667738192715,699.0714913057163,"[98, 0, 156]",156,l,0.4821221521124244,colour,0.5
043,72,0,2,8,42,392,699.582321674563,700.7834272789769,"[28, 0, 226]",226,a,0.6778194643557072,colour,0.5
043,72,0,2,8,43,393,701.301144043915,702.7194887567312,"[24, 0, 230]",230,a,0.8950424250215292,colour,0.5
043,72,0,2,8,44,394,703.239810812287,704.847468201071,"[66, 0, 188]",188,l,1.0843925164081156,colour,0.5
043,72,0,2,8,45,395,705.3648293232545,706.6314578917809,"[33, 0, 221]",221,a,0.7434420716017485,colour,0.5
043,72,0,2,8,46,396,707.1460266462527,708.6795011865906,"[41, 0, 213]",213,a,1.0101616187021136,colour,0.5
043,72,0,2,8,47,397,709.192937633954,710.8794740899466,"[59, 0, 195]",195,l,1.1632975777611136,colour,0.5
043,72,0,2,8,48,398,711.3959490587004,713.2394449296407,"[21, 0, 233]",233,a,1.3201876757666469,colour,0.5
043,72,0,2,8,49,399,713.755440981593,714.9194762324914,"[71, 0, 183]",183,l,0.6406990922987461,colour,0.5
043,72,0,2,8,50,400,715.4272369663231,716.703442292288,"[91, 0, 163]",163,l,0.752837659791112,colour,0.5
043,72,0,2,9,1,401,721.5682964273728,725.5594624634832,"[75, 0, 179]",179,a,3.4671528562903404,colour,0.5
043,72,0,2,9,2,402,726.0689092515968,729.3754485906102,"[83, 0, 171]",171,l,2.7838049768470228,colour,0.5
043,72,0,2,9,3,403,729.8827532511204,730.6074313214049,"[70, 0, 184]",184,l,0.20179050229489803,colour,0.5
043,72,0,2,9,4,404,731.1171191432513,733.6634224266745,"[52, 0, 202]",202,l,2.033725813962519,colour,0.5
043,72,0,2,9,5,405,734.1846144879237,735.0394397308119,"[42, 0, 212]",212,a,0.33155209943652153,colour,0.5
043,72,0,2,9,6,406,735.559569589328,736.1673829411156,"[28, 0, 226]",226,a,0.0844563189893961,colour,0.5
043,72,0,2,9,7,407,736.6845648633316,737.4314337885007,"[1, 0, 253]",253,a,0.22363240970298648,colour,0.5
043,72,0,2,9,8,408,737.9501808541827,738.8794532157481,"[99, 0, 155]",155,l,0.4060401786118746,colour,0.5
043,72,0,2,9,9,409,739.3876322139986,740.4314034623094,"[73, 0, 181]",181,a,0.5204563573934138,colour,0.5
043,72,0,2,9,10,410,740.9501304416917,742.1114146788605,"[30, 0, 224]",224,a,0.6379705276340246,colour,0.5
043,72,0,2,9,11,411,742.6231875210069,743.5914616570808,"[85, 0, 169]",169,l,0.4448686605319381,colour,0.5
043,72,0,2,9,12,412,744.1075809826143,747.0074700755067,"[54, 0, 200]",200,l,2.3765702634118497,colour,0.5
043,72,0,2,9,13,413,747.5169357685372,748.6154886209406,"[63, 0, 191]",191,l,0.5850084912963212,colour,0.5
043,72,0,2,9,14,414,749.1336980871856,750.023441709578,"[45, 0, 209]",209,a,0.36642164224758744,colour,0.5
043,72,0,2,9,15,415,750.5399024994113,751.4633947787806,"[96, 0, 158]",158,l,0.40011437283828855,colour,0.5
043,72,0,2,9,16,416,751.9774397178553,752.975715066772,"[29, 0, 225]",225,a,0.48098275577649474,colour,0.5
043,72,0,2,9,17,417,753.4869940262288,754.7035466614179,"[17, 0, 237]",237,a,0.6931463722139597,colour,0.5
043,72,0,2,9,18,418,755.221370158717,756.8874443494715,"[40, 0, 214]",214,a,1.142731730826199,colour,0.5
043,72,0,2,9,19,419,757.4088510568254,758.359411184676,"[7, 0, 247]",247,a,0.42722160601988435,colour,0.5
043,72,0,2,9,20,420,758.8776096231304,760.0074255713262,"[33, 0, 221]",221,a,0.6065699802711606,colour,0.5
043,72,0,2,9,21,421,760.5182539708912,761.4554209741764,"[91, 0, 163]",163,l,0.41383714647963643,colour,0.5
043,72,0,2,9,22,422,761.9714036355726,763.0635486147366,"[41, 0, 213]",213,a,0.5667966618202627,colour,0.5
043,72,0,2,9,23,423,763.583517390769,764.7914412557147,"[49, 0, 205]",205,a,0.6853596442379057,colour,0.5
043,72,0,2,9,24,424,765.3015319821425,766.367438158486,"[23, 0, 231]",231,a,0.5406448990106583,colour,0.5
043,72,0,2,9,25,425,766.8815693501383,767.4315094067715,"[35, 0, 219]",219,a,0.024491702672094107,colour,0.5
043,72,0,2,9,26,426,767.9462636625394,768.5034319735132,"[51, 0, 203]",203,a,0.033940854016691446,colour,0.5
043,72,0,2,9,27,427,769.0250998008996,770.2394378404133,"[53, 0, 201]",201,a,0.6914327484555542,colour,0.5
043,72,0,2,9,28,428,770.7595054712147,771.4153987453319,"[11, 0, 243]",243,a,0.13259453093633056,colour,0.5
043,72,0,2,9,29,429,771.9314018869773,772.5034091304988,"[95, 0, 159]",159,l,0.04932093108072877,colour,0.5
043,72,0,2,9,30,430,773.025158483535,775.8074089507572,"[71, 0, 183]",183,a,2.259299096185714,colour,0.5
043,72,0,2,9,31,431,776.3219922776334,777.9995065112598,"[44, 0, 210]",210,a,1.154143416788429,colour,0.5
043,72,0,2,9,32,432,778.5106972493231,779.4953742795624,"[76, 0, 178]",178,l,0.46133811492472887,colour,0.5
043,72,0,2,9,33,433,780.0107858646661,781.0313950339332,"[31, 0, 223]",223,a,0.4977160873822868,colour,0.5
043,72,0,2,9,34,434,781.5419591628015,782.5195083701983,"[86, 0, 168]",168,l,0.4542488884180784,colour,0.5
043,72,0,2,9,35,435,783.026315996889,783.943416156806,"[36, 0, 218]",218,a,0.39378566294908524,colour,0.5
043,72,0,2,9,36,436,784.4638201324269,786.2875977135263,"[59, 0, 195]",195,a,1.300559970550239,colour,0.5
043,72,0,2,9,37,437,786.8075554613024,787.7274397178553,"[88, 0, 166]",166,l,0.39659220864996314,colour,0.5
043,72,0,2,9,38,438,788.2469851095229,789.2954427301884,"[10, 0, 244]",244,a,0.5255901385098696,colour,0.5
043,72,0,2,9,39,439,789.8094766419381,791.223389800638,"[38, 0, 216]",216,a,0.8905435232445598,colour,0.5
043,72,0,2,9,40,440,791.7320733154193,793.0874137086794,"[55, 0, 199]",199,a,0.8320747334510088,colour,0.5
043,72,0,2,9,41,441,793.6047189044766,795.1114024696872,"[16, 0, 238]",238,a,0.9834167235530913,colour,0.5
043,72,0,2,9,42,442,795.6180883981287,797.9194203061052,"[50, 0, 204]",204,a,1.7779634543694556,colour,0.5
043,72,0,2,9,43,443,798.4358346224762,799.9194108541124,"[57, 0, 197]",197,a,0.9603015128523111,colour,0.5
043,72,0,2,9,44,444,800.4358098101802,802.1674046027474,"[39, 0, 215]",215,a,1.2083074706606567,colour,0.5
043,72,0,2,9,45,445,802.6867499207146,806.1433772444725,"[67, 0, 187]",187,a,2.9334309808909893,colour,0.5
043,72,0,2,9,46,446,806.6554470467381,807.5513555388898,"[82, 0, 172]",172,l,0.3727125427685678,colour,0.5
043,72,0,2,9,47,447,808.0617058100179,809.1194042372517,"[2, 0, 252]",252,a,0.5345343793742359,colour,0.5
043,72,0,2,9,48,448,809.6397900958546,810.7433546381071,"[93, 0, 161]",161,l,0.5802350789308548,colour,0.5
043,72,0,2,9,49,449,811.2648117574863,812.6474263747223,"[3, 0, 251]",251,a,0.8594966493546963,colour,0.5
043,72,0,2,9,50,450,813.1566124367528,814.151418002788,"[37, 0, 217]",217,a,0.4715438443236053,colour,0.5
043,72,0,2,10,1,451,819.3902000896633,823.0234031123109,"[62, 0, 192]",192,a,3.1091815722174942,colour,0.5
043,72,0,2,10,2,452,823.5328447809443,825.5033957394771,"[97, 0, 157]",157,l,1.4472979018464684,colour,0.5
043,72,0,2,10,3,453,826.0171846793965,829.1754091274925,"[58, 0, 196]",196,a,2.6349138896912336,colour,0.5
043,72,0,2,10,4,454,829.6890137470327,830.7914266833104,"[19, 0, 235]",235,a,0.579138217959553,colour,0.5
043,72,0,2,10,5,455,831.298441472929,832.4073954024352,"[45, 0, 209]",209,a,0.5857599494047463,colour,0.5
043,72,0,2,10,6,456,832.925295305904,834.1433855155483,"[2, 0, 252]",252,a,0.6951258420012891,colour,0.5
043,72,0,2,10,7,457,834.659656078089,836.1753870719112,"[33, 0, 221]",221,a,0.9924184661358595,colour,0.5
043,72,0,2,10,8,458,836.6928604398854,838.015371018555,"[79, 0, 175]",175,l,0.7992307399399579,colour,0.5
043,72,0,2,10,9,459,838.536548901815,840.7353776828386,"[63, 0, 191]",191,l,1.6762405359186232,colour,0.5
043,72,0,2,10,10,460,841.2553279479034,842.0793910669163,"[3, 0, 251]",251,a,0.3008856805972755,colour,0.5
043,72,0,2,10,11,461,842.600281836465,843.671569917351,"[42, 0, 212]",212,a,0.5479235658422112,colour,0.5
043,72,0,2,10,12,462,844.1784425284714,844.959368492011,"[70, 0, 184]",184,l,0.25771977426484227,colour,0.5
043,72,0,2,10,13,463,845.4752416638657,846.407508042641,"[21, 0, 233]",233,a,0.4089948106557131,colour,0.5
043,72,0,2,10,14,464,846.9283995991573,847.4713780353777,"[74, 0, 180]",180,l,0.020032578613609076,colour,0.5
043,72,0,2,10,15,465,847.9908584426157,849.5595069681294,"[60, 0, 194]",194,l,1.0453151240944862,colour,0.5
043,72,0,2,10,16,466,850.06898093177,851.2713444796391,"[65, 0, 189]",189,l,0.6789722507819533,colour,0.5
043,72,0,2,10,17,467,851.7877497379668,853.1194243235514,"[64, 0, 190]",190,l,0.8060749946162105,colour,0.5
043,72,0,2,10,18,468,853.63360829046,854.6393749825656,"[81, 0, 173]",173,l,0.4823671244084835,colour,0.5
043,72,0,2,10,19,469,855.1497016223148,855.9113909695297,"[93, 0, 161]",161,l,0.23901169886812568,colour,0.5
043,72,0,2,10,20,470,856.4309115484357,857.3353865835816,"[10, 0, 244]",244,a,0.38133501168340445,colour,0.5
043,72,0,2,10,21,471,857.8528934284113,858.8633646098897,"[32, 0, 222]",222,a,0.48724136129021645,colour,0.5
043,72,0,2,10,22,472,859.3841179269366,861.1033774651587,"[67, 0, 187]",187,l,1.1960375946946442,colour,0.5
043,72,0,2,10,23,473,861.6184259238653,863.0953595498577,"[56, 0, 198]",198,l,0.9535454795695841,colour,0.5
043,72,0,2,10,24,474,863.60281820409,864.9354636198841,"[34, 0, 220]",220,a,0.8093297374434769,colour,0.5
043,72,0,2,10,25,475,865.4465267518535,866.9033797495067,"[4, 0, 250]",250,a,0.9339370727539062,colour,0.5
043,72,0,2,10,26,476,867.4153077672236,868.6553623699583,"[1, 0, 253]",253,a,0.7166841798461974,colour,0.5
043,72,0,2,10,27,477,869.1652979208156,870.135449913796,"[73, 0, 181]",181,l,0.4468363141641021,colour,0.5
043,72,0,2,10,28,478,870.6496114316396,872.3033527317457,"[6, 0, 248]",248,a,1.1305095106363297,colour,0.5
043,72,0,2,10,29,479,872.8227787879296,873.9273393661715,"[16, 0, 238]",238,a,0.5813819579780102,colour,0.5
043,72,0,2,10,30,480,874.447683871258,875.4233701867051,"[80, 0, 174]",174,l,0.4528743661940098,colour,0.5
043,72,0,2,10,31,481,875.932139954064,876.9513726318255,"[41, 0, 213]",213,a,0.49645341746509075,colour,0.5
043,72,0,2,10,32,482,877.4634022619575,878.4073859504424,"[69, 0, 185]",185,l,0.4208586313761771,colour,0.5
043,72,0,2,10,33,483,878.9164688247256,880.255383873824,"[59, 0, 195]",195,l,0.8157049212604761,colour,0.5
043,72,0,2,10,34,484,880.7758394433185,882.0473887231201,"[83, 0, 171]",171,l,0.7482985858805478,colour,0.5
043,72,0,2,10,35,485,882.558617270086,883.5673441081308,"[98, 0, 156]",156,l,0.4854312455281615,colour,0.5
043,72,0,2,10,36,486,884.0742423194461,885.0233991742134,"[38, 0, 216]",216,a,0.4260042286477983,colour,0.5
043,72,0,2,10,37,487,885.5429611071013,886.8153752721846,"[53, 0, 201]",201,a,0.7491079387255013,colour,0.5
043,72,0,2,10,38,488,887.3241371624172,888.3035157839768,"[91, 0, 163]",163,l,0.45604088762775064,colour,0.5
043,72,0,2,10,39,489,888.811802695971,890.0073751588352,"[90, 0, 164]",164,l,0.6723580029793084,colour,0.5
043,72,0,2,10,40,490,890.5150000159629,891.2633438939229,"[39, 0, 215]",215,a,0.22510736249387264,colour,0.5
043,72,0,2,10,41,491,891.7808983940631,892.7513268669136,"[13, 0, 241]",241,a,0.44740424025803804,colour,0.5
043,72,0,2,10,42,492,893.265194575768,894.2073559393175,"[96, 0, 158]",158,l,0.418812601827085,colour,0.5
043,72,0,2,10,43,493,894.7183324247599,895.8713364452124,"[61, 0, 193]",193,a,0.6296525015495718,colour,0.5
043,72,0,2,10,44,494,896.3902477449737,897.5036797025241,"[9, 0, 245]",245,a,0.5901611773297191,colour,0.5
043,72,0,2,10,45,495,898.0165746118873,899.4154156809673,"[24, 0, 230]",230,a,0.8755687135271728,colour,0.5
043,72,0,2,10,46,496,899.9227349134162,901.7193513042293,"[23, 0, 231]",231,a,1.2719521839171648,colour,0.5
043,72,0,2,10,47,497,902.237367392052,903.4633443662897,"[46, 0, 208]",208,a,0.7026632647030056,colour,0.5
043,72,0,2,10,48,498,903.9592822394334,905.0873243054375,"[27, 0, 227]",227,a,0.6046263505704701,colour,0.5
043,72,0,2,10,49,499,905.599948248826,906.6715132035315,"[35, 0, 219]",219,a,0.5481602670624852,colour,0.5
043,72,0,2,10,50,500,907.1937190243043,908.4153187945485,"[17, 0, 237]",237,a,0.7015675851143897,colour,0.5
043,72,0,2,11,1,501,913.2563732150011,916.3272977760062,"[99, 0, 155]",155,l,2.5589331346563995,colour,0.5
043,72,0,2,11,2,502,916.8266475363635,917.7433475488797,"[4, 0, 250]",250,a,0.39959292113780975,colour,0.5
043,72,0,2,11,3,503,918.2580194906332,918.9673340255395,"[54, 0, 200]",200,a,0.186082745436579,colour,0.5
043,72,0,2,11,4,504,919.476758364588,920.0153339970857,"[61, 0, 193]",193,a,0.01537535060197115,colour,0.5
043,72,0,2,11,5,505,920.5235897954553,921.151315996889,"[55, 0, 199]",199,a,0.10448338463902473,colour,0.5
043,72,0,2,11,6,506,921.6642723460682,922.343280043453,"[14, 0, 240]",240,a,0.15604923712089658,colour,0.5
043,72,0,2,11,7,507,922.8517280383967,924.9753050729632,"[11, 0, 243]",243,a,1.6001786482520401,colour,0.5
043,72,0,2,11,8,508,925.4923274875619,926.9673229977489,"[67, 0, 187]",187,a,0.9517196100205183,colour,0.5
043,72,0,2,11,9,509,927.4766520261765,928.0073353801854,"[19, 0, 235]",235,a,0.007342469412833452,colour,0.5
043,72,0,2,11,10,510,928.5235736477189,929.0633316058666,"[9, 0, 245]",245,a,0.016502538230270147,colour,0.5
043,72,0,2,11,11,511,929.570367269218,930.3433221848682,"[49, 0, 205]",205,a,0.2496120617724955,colour,0.5
043,72,0,2,11,12,512,930.8516914108768,931.8313268199563,"[89, 0, 165]",165,l,0.45633351523429155,colour,0.5
043,72,0,2,11,13,513,932.3516303645447,933.5033201212063,"[21, 0, 233]",233,a,0.628326422534883,colour,0.5
043,72,0,2,11,14,514,934.0192440995015,934.6633172696456,"[84, 0, 170]",170,l,0.12071259319782257,colour,0.5
043,72,0,2,11,15,515,935.1755245239474,937.2312903497368,"[98, 0, 156]",156,l,1.5325600299984217,colour,0.5
043,72,0,2,11,16,516,937.7441628095694,939.4073158456013,"[15, 0, 239]",239,a,1.1397971850819886,colour,0.5
043,72,0,2,11,17,517,939.9159528869204,941.1516397381201,"[39, 0, 215]",215,a,0.7122782254591584,colour,0.5
043,72,0,2,11,18,518,941.6661033360288,942.3192869499326,"[48, 0, 206]",206,a,0.12992583075538278,colour,0.5
043,72,0,2,11,19,519,942.837872932665,944.7433231300674,"[30, 0, 224]",224,a,1.3819974604994059,colour,0.5
043,72,0,2,11,20,520,945.2597673791461,946.3273017145693,"[31, 0, 223]",223,a,0.5443127863109112,colour,0.5
043,72,0,2,11,21,521,946.8378193699755,947.8472937270999,"[56, 0, 198]",198,a,0.4859853866510093,colour,0.5
043,72,0,2,11,22,522,948.353603139054,951.4793144245632,"[96, 0, 158]",158,l,2.6027181670069695,colour,0.5
043,72,0,2,11,23,523,951.9939257143997,952.6552788745612,"[97, 0, 157]",157,l,0.13591228891164064,colour,0.5
043,72,0,2,11,24,524,953.1679859193973,954.5913249924779,"[35, 0, 219]",219,a,0.9000631729140878,colour,0.5
043,72,0,2,11,25,525,955.1054916302674,956.8873573099263,"[63, 0, 191]",191,l,1.2586208935827017,colour,0.5
043,72,0,2,11,26,526,957.4023143961094,958.1272567370906,"[24, 0, 230]",230,a,0.20153804682195187,colour,0.5
043,72,0,2,11,27,527,958.6366964364424,961.2392968432978,"[82, 0, 172]",172,l,2.079330808483064,colour,0.5
043,72,0,2,11,28,528,961.7461560638621,963.6553068375215,"[17, 0, 237]",237,a,1.3859666395001113,colour,0.5
043,72,0,2,11,29,529,964.1697637396865,964.7913297973573,"[75, 0, 179]",179,l,0.09836104977875948,colour,0.5
043,72,0,2,11,30,530,965.3103809119202,965.9192757648416,"[47, 0, 207]",207,a,0.08558429405093193,colour,0.5
043,72,0,2,11,31,531,966.4352659089491,967.6393304779194,"[25, 0, 229]",229,a,0.6797465523704886,colour,0.5
043,72,0,2,11,32,532,968.1540292012505,968.743291228544,"[32, 0, 222]",222,a,0.06596722221001983,colour,0.5
043,72,0,2,11,33,533,969.2634616536088,969.8312610476278,"[5, 0, 249]",249,a,0.04487834917381406,colour,0.5
043,72,0,2,11,34,534,970.3415683889762,972.4392996788956,"[92, 0, 162]",162,l,1.5744471191428602,colour,0.5
043,72,0,2,11,35,535,972.9521654439159,975.4072717349045,"[8, 0, 246]",246,a,1.9317854926921427,colour,0.5
043,72,0,2,11,36,536,975.9208314563148,977.5033630505204,"[62, 0, 192]",192,a,1.0592060699127614,colour,0.5
043,72,0,2,11,37,537,978.0146014438942,980.2873007534072,"[36, 0, 218]",218,a,1.7496207263320684,colour,0.5
043,72,0,2,11,38,538,980.7982528209686,981.9512414811179,"[70, 0, 184]",184,l,0.629880144726485,colour,0.5
043,72,0,2,11,39,539,982.470860128291,983.2393055078574,"[43, 0, 211]",211,a,0.24589494382962584,colour,0.5
043,72,0,2,11,40,540,983.7514265100472,984.4395044790581,"[59, 0, 195]",195,a,0.16483081970363855,colour,0.5
043,72,0,2,11,41,541,984.9545233994722,986.1032841238193,"[10, 0, 244]",244,a,0.6255809227004647,colour,0.5
043,72,0,2,11,42,542,986.6107230857015,987.2153025683947,"[78, 0, 176]",176,l,0.08128467807546258,colour,0.5
043,72,0,2,11,43,543,987.7213091123849,989.0153150926344,"[69, 0, 185]",185,l,0.7706717909313738,colour,0.5
043,72,0,2,11,44,544,989.5337651986629,990.2152773621492,"[86, 0, 168]",168,l,0.15829100785776973,colour,0.5
043,72,0,2,11,45,545,990.736927466467,991.6072985953651,"[7, 0, 247]",247,a,0.34699322283267975,colour,0.5
043,72,0,2,11,46,546,992.127613955643,992.9432920953259,"[73, 0, 181]",181,l,0.2924038153141737,colour,0.5
043,72,0,2,11,47,547,993.4557076939382,994.2792804753408,"[81, 0, 173]",173,l,0.30031499825417995,colour,0.5
043,72,0,2,11,48,548,994.7994528692216,996.1353742955253,"[53, 0, 201]",201,a,0.8126557660289109,colour,0.5
043,72,0,2,11,49,549,996.6432023770176,997.5992921013385,"[65, 0, 189]",189,a,0.4328161873854697,colour,0.5
043,72,0,2,11,50,550,998.1130121177994,999.3673125216737,"[29, 0, 225]",225,a,0.7309327377006412,colour,0.5
043,72,0,2,12,1,551,1004.4873264320195,1005.75936171785,"[4, 0, 250]",250,a,0.7479334906674922,colour,0.5
043,72,0,2,12,2,552,1006.2693275948986,1007.1272882451303,"[48, 0, 206]",206,a,0.33461740240454674,colour,0.5
043,72,0,2,12,3,553,1007.6456977846101,1008.2152545191348,"[77, 0, 177]",177,l,0.04659472964704037,colour,0.5
043,72,0,2,12,4,554,1008.7237958554178,1009.4473428004421,"[55, 0, 199]",199,a,0.20022338954731822,colour,0.5
043,72,0,2,12,5,555,1009.9581459942274,1010.8792239977047,"[75, 0, 179]",179,l,0.39770442992448807,colour,0.5
043,72,0,2,12,6,556,1011.3955792370252,1012.2952737701125,"[6, 0, 248]",248,a,0.3763119005598128,colour,0.5
043,72,0,2,12,7,557,1012.8026075749658,1013.4792549540289,"[1, 0, 253]",253,a,0.15329152811318636,colour,0.5
043,72,0,2,12,8,558,1013.9901089537889,1016.1272768233903,"[32, 0, 222]",222,a,1.613955378998071,colour,0.5
043,72,0,2,12,9,559,1016.646411433816,1017.6072698445059,"[3, 0, 251]",251,a,0.43769672606140375,colour,0.5
043,72,0,2,12,10,560,1018.1151274642907,1019.0632331441157,"[54, 0, 200]",200,a,0.424962111748755,colour,0.5
043,72,0,2,12,11,561,1019.5838115937077,1020.8712620083243,"[98, 0, 156]",156,l,0.7641347362659872,colour,0.5
043,72,0,2,12,12,562,1021.3806351474486,1022.3832345306873,"[47, 0, 207]",207,a,0.4794376981444657,colour,0.5
043,72,0,2,12,13,563,1022.8975492543541,1024.119303806685,"[82, 0, 172]",172,l,0.6986673041246831,colour,0.5
043,72,0,2,12,14,564,1024.6319505930878,1025.4792195078917,"[73, 0, 181]",181,l,0.3241107747890055,colour,0.5
043,72,0,2,12,15,565,1025.9912841897458,1026.8232198953629,"[27, 0, 227]",227,a,0.30857394682243466,colour,0.5
043,72,0,2,12,16,566,1027.33517587604,1028.7595432805829,"[63, 0, 191]",191,a,0.901831541210413,colour,0.5
043,72,0,2,12,17,567,1029.272535863798,1030.3192499284633,"[81, 0, 173]",173,l,0.5234432844445109,colour,0.5
043,72,0,2,12,18,568,1030.8381383847445,1033.6392426500097,"[66, 0, 188]",188,a,2.2777283280156553,colour,0.5
043,72,0,2,12,19,569,1034.1507527972572,1035.2072799270973,"[19, 0, 235]",235,a,0.5333260605111718,colour,0.5
043,72,0,2,12,20,570,1035.7288422035053,1036.6312322178856,"[76, 0, 178]",178,l,0.37911214539781213,colour,0.5
043,72,0,2,12,21,571,1037.150741375517,1038.311262733303,"[96, 0, 158]",158,l,0.6360363503918052,colour,0.5
043,72,0,2,12,22,572,1038.8257216047496,1039.911239338573,"[83, 0, 171]",171,l,0.5620878399349749,colour,0.5
043,72,0,2,12,23,573,1040.4195896601304,1041.3432615324855,"[24, 0, 230]",230,a,0.40150504279881716,colour,0.5
043,72,0,2,12,24,574,1041.8559744851664,1042.9432566491887,"[65, 0, 189]",189,a,0.5639885407872498,colour,0.5
043,72,0,2,12,25,575,1043.4497369900346,1044.335247949697,"[71, 0, 183]",183,a,0.36230122577399015,colour,0.5
043,72,0,2,12,26,576,1044.8559768483974,1045.751261882484,"[89, 0, 165]",165,l,0.37199850007891655,colour,0.5
043,72,0,2,12,27,577,1046.2498334031552,1047.2152407346293,"[10, 0, 244]",244,a,0.44247998483479023,colour,0.5
043,72,0,2,12,28,578,1047.7342284400947,1049.6072824476287,"[91, 0, 163]",163,l,1.349724544212222,colour,0.5
043,72,0,2,12,29,579,1050.1247959877364,1051.5912391338497,"[5, 0, 249]",249,a,0.9431684273295105,colour,0.5
043,72,0,2,12,30,580,1052.1092225327156,1053.7192685967311,"[12, 0, 242]",242,a,1.0854377835057676,colour,0.5
043,72,0,2,12,31,581,1054.2371484139003,1056.4715529032983,"[45, 0, 209]",209,a,1.7109363926574588,colour,0.5
043,72,0,2,12,32,582,1056.989551661536,1058.623241872061,"[11, 0, 243]",243,a,1.1103898920118809,colour,0.5
043,72,0,2,12,33,583,1059.13023657538,1060.247293884866,"[80, 0, 174]",174,l,0.5938463937491179,colour,0.5
043,72,0,2,12,34,584,1060.7552137323655,1061.919232441578,"[26, 0, 228]",228,a,0.6407632888294756,colour,0.5
043,72,0,2,12,35,585,1062.4271381110884,1064.839234852232,"[31, 0, 223]",223,a,1.8891556104645133,colour,0.5
043,72,0,2,12,36,586,1065.348944729194,1067.8312256014906,"[50, 0, 204]",204,a,1.9589947322383523,colour,0.5
043,72,0,2,12,37,587,1068.3502676580101,1069.8792401454411,"[61, 0, 193]",193,a,1.005710372235626,colour,0.5
043,72,0,2,12,38,588,1070.3970916057006,1071.3272138866596,"[33, 0, 221]",221,a,0.4069164856337011,colour,0.5
043,72,0,2,12,39,589,1071.8366181398742,1072.807308126241,"[9, 0, 245]",245,a,0.44739596964791417,colour,0.5
043,72,0,2,12,40,590,1073.3208658783697,1074.4392795930617,"[20, 0, 234]",234,a,0.5951933469623327,colour,0.5
043,72,0,2,12,41,591,1074.945768991951,1078.7752171666361,"[36, 0, 218]",218,a,3.3058642870746553,colour,0.5
043,72,0,2,12,42,592,1079.2909170468338,1080.1992230210453,"[53, 0, 201]",201,a,0.3848930159583688,colour,0.5
043,72,0,2,12,43,593,1080.7127323299646,1081.287240494974,"[23, 0, 231]",231,a,0.051216117572039366,colour,0.5
043,72,0,2,12,44,594,1081.806524766609,1082.4392035808414,"[74, 0, 180]",180,l,0.10934462491422892,colour,0.5
043,72,0,2,12,45,595,1082.9471297296695,1083.7352827657014,"[35, 0, 219]",219,a,0.2649799296632409,colour,0.5
043,72,0,2,12,46,596,1084.2440245696343,1085.4712342815474,"[52, 0, 202]",202,a,0.7040117932483554,colour,0.5
043,72,0,2,12,47,597,1085.978408579249,1087.9832666683942,"[40, 0, 214]",214,a,1.4815943986177444,colour,0.5
043,72,0,2,12,48,598,1088.495169873815,1089.247211964801,"[18, 0, 236]",236,a,0.2287114462815225,colour,0.5
043,72,0,2,12,49,599,1089.7608866891824,1090.367281801533,"[92, 0, 162]",162,l,0.08316608006134629,colour,0.5
043,72,0,2,12,50,600,1090.8865349595435,1091.623210364487,"[78, 0, 176]",176,l,0.22582298051565886,colour,0.5
043,72,0,2,13,1,601,1096.4114138125442,1099.2872499474324,"[75, 0, 179]",179,a,2.351844616699964,colour,0.5
043,72,0,2,13,2,602,1099.7964080465026,1101.5912155029364,"[92, 0, 162]",162,l,1.2715217103250325,colour,0.5
043,72,0,2,13,3,603,1102.1089551113546,1102.6792132849805,"[31, 0, 223]",223,a,0.06297123664990067,colour,0.5
043,72,0,2,13,4,604,1103.1873718034476,1105.2951985457912,"[70, 0, 184]",184,l,1.584771002177149,colour,0.5
043,72,0,2,13,5,605,1105.8123505357653,1106.87921808986,"[90, 0, 164]",164,l,0.5438913707621396,colour,0.5
043,72,0,2,13,6,606,1107.390151646454,1108.3672152417712,"[86, 0, 168]",168,l,0.4536758428439498,colour,0.5
043,72,0,2,13,7,607,1108.8746065478772,1109.9191843923181,"[57, 0, 197]",197,a,0.5213681100867689,colour,0.5
043,72,0,2,13,8,608,1110.4370748433284,1111.631196377799,"[23, 0, 231]",231,a,0.6711272341199219,colour,0.5
043,72,0,2,13,9,609,1112.1401236834936,1113.3351963558234,"[49, 0, 205]",205,a,0.6704659666866064,colour,0.5
043,72,0,2,13,10,610,1113.8445675256662,1114.807229357306,"[84, 0, 170]",170,l,0.4393957774154842,colour,0.5
043,72,0,2,13,11,611,1115.3289420828223,1116.4152234839275,"[55, 0, 199]",199,a,0.5630011688917875,colour,0.5
043,72,0,2,13,12,612,1116.9226785935462,1118.0072069866583,"[10, 0, 244]",244,a,0.5612190160900354,colour,0.5
043,72,0,2,13,13,613,1118.5166931594722,1119.6232032752596,"[24, 0, 230]",230,a,0.5834937603212893,colour,0.5
043,72,0,2,13,14,614,1120.1413532705046,1121.2951934258454,"[2, 0, 252]",252,a,0.630448070820421,colour,0.5
043,72,0,2,13,15,615,1121.8161669024266,1122.8471716349013,"[43, 0, 211]",211,a,0.5077193798497319,colour,0.5
043,72,0,2,13,16,616,1123.36109054368,1124.4392366637476,"[98, 0, 156]",156,l,0.5549355982802808,colour,0.5
043,72,0,2,13,17,617,1124.9547589193098,1126.0232152477838,"[14, 0, 240]",240,a,0.5450181639753282,colour,0.5
043,72,0,2,13,18,618,1126.5205359142274,1127.6312432456762,"[79, 0, 175]",175,l,0.5873290314339101,colour,0.5
043,72,0,2,13,19,619,1128.1431956817396,1129.1191880158149,"[83, 0, 171]",171,l,0.4526829570531845,colour,0.5
043,72,0,2,13,20,620,1129.6275036786683,1130.7032315847464,"[8, 0, 246]",246,a,0.5523523627780378,colour,0.5
043,72,0,2,13,21,621,1131.2212598817423,1132.487210641615,"[17, 0, 237]",237,a,0.7425574935041368,colour,0.5
043,72,0,2,13,22,622,1133.0033035795204,1134.415237268433,"[13, 0, 241]",241,a,0.8893450498580933,colour,0.5
043,72,0,2,13,23,623,1134.924420967698,1136.0152122988366,"[19, 0, 235]",235,a,0.5677832462824881,colour,0.5
043,72,0,2,13,24,624,1136.5337451123632,1138.1672257967293,"[66, 0, 188]",188,l,1.1101484643295407,colour,0.5
043,72,0,2,13,25,625,1138.6651057242416,1140.8234999198467,"[64, 0, 190]",190,l,1.635091120377183,colour,0.5
043,72,0,2,13,26,626,1141.3369580288418,1142.439177586697,"[21, 0, 233]",233,a,0.5789751657284796,colour,0.5
043,72,0,2,13,27,627,1142.9564922349527,1144.7434920901433,"[69, 0, 185]",185,a,1.2636231305077672,colour,0.5
043,72,0,2,13,28,628,1145.253501684405,1146.4391894023865,"[36, 0, 218]",218,a,0.6624618363566697,colour,0.5
043,72,0,2,13,29,629,1146.9565568258986,1148.1111543467268,"[73, 0, 181]",181,l,0.6313007469289005,colour,0.5
043,72,0,2,13,30,630,1148.6283929827623,1149.9674840806983,"[51, 0, 203]",203,a,0.8157155546359718,colour,0.5
043,72,0,2,13,31,631,1150.4890550221317,1152.0311516369693,"[65, 0, 189]",189,l,1.0187722719274461,colour,0.5
043,72,0,2,13,32,632,1152.5515516744927,1154.463181708008,"[61, 0, 193]",193,l,1.3883281396701932,colour,0.5
043,72,0,2,13,33,633,1154.9734331234358,1156.2631875369698,"[95, 0, 159]",159,l,0.7664170735515654,colour,0.5
043,72,0,2,13,34,634,1156.7703795572743,1158.2711940305308,"[15, 0, 239]",239,a,0.9776287637650967,colour,0.5
043,72,0,2,13,35,635,1158.7871814179234,1160.4551783651114,"[46, 0, 208]",208,a,1.1449167882092297,colour,0.5
043,72,0,2,13,36,636,1160.974567399826,1163.0071778418496,"[27, 0, 227]",227,a,1.5092219021171331,colour,0.5
043,72,0,2,13,37,637,1163.5215209228918,1164.6711599235423,"[16, 0, 238]",238,a,0.626271334476769,colour,0.5
043,72,0,2,13,38,638,1165.1880610338412,1166.1751921181567,"[56, 0, 198]",198,a,0.4636826799251139,colour,0.5
043,72,0,2,13,39,639,1166.6881370460615,1167.5191775397398,"[29, 0, 225]",225,a,0.30760705517604947,colour,0.5
043,72,0,2,13,40,640,1168.031877101399,1169.4711763863452,"[11, 0, 243]",243,a,0.9160915203392506,colour,0.5
043,72,0,2,13,41,641,1169.9850496090949,1171.3831581245176,"[35, 0, 219]",219,a,0.8748735752888024,colour,0.5
043,72,0,2,13,42,642,1171.879213757813,1172.9352072263137,"[76, 0, 178]",178,l,0.532764830160886,colour,0.5
043,72,0,2,13,43,643,1173.4416729947552,1174.671170163434,"[45, 0, 209]",209,a,0.7062039393931627,colour,0.5
043,72,0,2,13,44,644,1175.1916473945603,1176.3034118087962,"[67, 0, 187]",187,l,0.5887965015135705,colour,0.5
043,72,0,2,13,45,645,1176.8166631483473,1177.951172558125,"[26, 0, 228]",228,a,0.6112539893947542,colour,0.5
043,72,0,2,13,46,646,1178.4585425970145,1180.0151748834178,"[52, 0, 202]",202,a,1.0333004603162408,colour,0.5
043,72,0,2,13,47,647,1180.5366225508042,1182.0791772087105,"[48, 0, 206]",206,a,1.0192181053571403,colour,0.5
043,72,0,2,13,48,648,1182.599174735602,1183.711480293423,"[89, 0, 165]",165,l,0.5890418672934175,colour,0.5
043,72,0,2,13,49,649,1184.2241676463746,1185.2472580447793,"[28, 0, 226]",226,a,0.49977117544040084,colour,0.5
043,72,0,2,13,50,650,1185.7554468894377,1187.46317501273,"[63, 0, 191]",191,l,1.184584949631244,colour,0.5
043,72,0,2,14,1,651,1192.8495221072808,1194.9591613290831,"[13, 0, 241]",241,a,1.585638645105064,colour,0.5
043,72,0,2,14,2,652,1195.4783782530576,1197.1591921276413,"[3, 0, 251]",251,a,1.1576584912836552,colour,0.5
043,72,0,2,14,3,653,1197.6658528498374,1198.7831303188577,"[24, 0, 230]",230,a,0.5941083012148738,colour,0.5
043,72,0,2,14,4,654,1199.2907918035053,1200.8151444783434,"[19, 0, 235]",235,a,1.0010846513323486,colour,0.5
043,72,0,2,14,5,655,1201.3220749851316,1204.1831663167104,"[92, 0, 162]",162,l,2.337844575755298,colour,0.5
043,72,0,2,14,6,656,1204.6982364370488,1205.3671329277568,"[16, 0, 238]",238,a,0.14582460280507803,colour,0.5
043,72,0,2,14,7,657,1205.8857689290307,1206.8631334225647,"[82, 0, 172]",172,l,0.45410159043967724,colour,0.5
043,72,0,2,14,8,658,1207.3701627845876,1207.9991575637832,"[29, 0, 225]",225,a,0.10657194955274463,colour,0.5
043,72,0,2,14,9,659,1208.5105452248827,1209.6151558212005,"[4, 0, 250]",250,a,0.5811070534400642,colour,0.5
043,72,0,2,14,10,660,1210.13574136002,1211.4871492013335,"[11, 0, 243]",243,a,0.828058292157948,colour,0.5
043,72,0,2,14,11,661,1211.9951300951652,1212.5831424496137,"[90, 0, 164]",164,l,0.06483058352023363,colour,0.5
043,72,0,2,14,12,662,1213.104384135455,1214.1191450865008,"[71, 0, 183]",183,l,0.4913464174605906,colour,0.5
043,72,0,2,14,13,663,1214.6357433293015,1215.5431777224876,"[80, 0, 174]",174,l,0.3840998103842139,colour,0.5
043,72,0,2,14,14,664,1216.0576165076345,1217.0871742502786,"[20, 0, 234]",234,a,0.5063621872104704,colour,0.5
043,72,0,2,14,15,665,1217.6044589662924,1218.7911080620252,"[85, 0, 169]",169,l,0.6632440141402185,colour,0.5
043,72,0,2,14,16,666,1219.3075322248042,1220.2951367120259,"[75, 0, 179]",179,l,0.46426714723929763,colour,0.5
043,72,0,2,14,17,667,1220.8075657016598,1221.8631251519546,"[42, 0, 212]",212,a,0.5322504672221839,colour,0.5
043,72,0,2,14,18,668,1222.3700615661219,1223.9751372947358,"[74, 0, 180]",180,l,1.0811098106205463,colour,0.5
043,72,0,2,14,19,669,1224.4964258484542,1225.5991416522302,"[10, 0, 244]",244,a,0.5794127285480499,colour,0.5
043,72,0,2,14,20,670,1226.1042770091444,1228.3351447619498,"[52, 0, 202]",202,a,1.7076166649349034,colour,0.5
043,72,0,2,14,21,671,1228.8565420173109,1229.8231411259621,"[86, 0, 168]",168,l,0.4433362055569887,colour,0.5
043,72,0,2,14,22,672,1230.340875220485,1231.519115312025,"[7, 0, 247]",247,a,0.6549547393806279,colour,0.5
043,72,0,2,14,23,673,1232.02839195868,1234.1351628000848,"[41, 0, 213]",213,a,1.583470128942281,colour,0.5
043,72,0,2,14,24,674,1234.6533600571565,1235.7751482436433,"[95, 0, 159]",159,l,0.5984492711722851,colour,0.5
043,72,0,2,14,25,675,1236.293965020217,1237.9751483225264,"[73, 0, 181]",181,l,1.1578443869948387,colour,0.5
043,72,0,2,14,26,676,1238.4827849948779,1239.5671101636253,"[36, 0, 218]",218,a,0.5614387821406126,colour,0.5
043,72,0,2,14,27,677,1240.0764431301504,1241.7751529701054,"[96, 0, 158]",158,l,1.175295305904001,colour,0.5
043,72,0,2,14,28,678,1242.2964423112571,1244.8631720193662,"[67, 0, 187]",187,a,2.0434301774948835,colour,0.5
043,72,0,2,14,29,679,1245.3764875563793,1245.9432129319757,"[50, 0, 204]",204,a,0.04347231891006231,colour,0.5
043,72,0,2,14,30,680,1246.4545430918224,1247.9751510792412,"[68, 0, 186]",186,a,0.9972076322883368,colour,0.5
043,72,0,2,14,31,681,1248.4877328812145,1249.471118491143,"[2, 0, 252]",252,a,0.46077727852389216,colour,0.5
043,72,0,2,14,32,682,1249.9876261488535,1251.0074200574309,"[59, 0, 195]",195,a,0.49650067929178476,colour,0.5
043,72,0,2,14,33,683,1251.518914844375,1252.5111812856048,"[25, 0, 229]",229,a,0.46887790132313967,colour,0.5
043,72,0,2,14,34,684,1253.0201625484042,1254.0076429741457,"[37, 0, 217]",217,a,0.464171442668885,colour,0.5
043,72,0,2,14,35,685,1254.520199175924,1255.735132316593,"[1, 0, 253]",253,a,0.6916095851920545,colour,0.5
043,72,0,2,14,36,686,1256.2545611299574,1257.7111120475456,"[66, 0, 188]",188,a,0.9332683221437037,colour,0.5
043,72,0,2,14,37,687,1258.2232460468076,1258.9911400424317,"[53, 0, 201]",201,a,0.24445189256221056,colour,0.5
043,72,0,2,14,38,688,1259.5044244653545,1260.4871365986764,"[26, 0, 228]",228,a,0.4593507689423859,colour,0.5
043,72,0,2,14,39,689,1261.000787298195,1262.0311256432906,"[89, 0, 165]",165,l,0.5069844634272158,colour,0.5
043,72,0,2,14,40,690,1262.5491913557053,1264.215119429864,"[38, 0, 216]",216,a,1.1426895894110203,colour,0.5
043,72,0,2,14,41,691,1264.7367459032685,1266.7751167360693,"[72, 0, 182]",182,l,1.5152359292842448,colour,0.5
043,72,0,2,14,42,692,1267.2840712168254,1268.2712885537185,"[69, 0, 185]",185,l,0.46391977509483695,colour,0.5
043,72,0,2,14,43,693,1268.7839010753669,1269.7991437003948,"[15, 0, 239]",239,a,0.4916926082223654,colour,0.5
043,72,0,2,14,44,694,1270.31534415856,1271.2951130811125,"[84, 0, 170]",170,l,0.45668088691309094,colour,0.5
043,72,0,2,14,45,695,1271.8153433706611,1272.9911810024641,"[6, 0, 248]",248,a,0.6526724020950496,colour,0.5
043,72,0,2,14,46,696,1273.5028380537406,1275.7111494629644,"[46, 0, 208]",208,a,1.6849449244327843,colour,0.5
043,72,0,2,14,47,697,1276.2223823424429,1277.1510938676074,"[99, 0, 155]",155,l,0.4061929904855788,colour,0.5
043,72,0,2,14,48,698,1277.6590625522658,1280.1590712168254,"[22, 0, 232]",232,a,1.977342831902206,colour,0.5
043,72,0,2,14,49,699,1280.6746490048245,1281.8871391192079,"[39, 0, 215]",215,a,0.6891598636284471,colour,0.5
043,72,0,2,14,50,700,1282.3934162352234,1284.1351718585938,"[56, 0, 198]",198,a,1.2172091761603951,colour,0.5
043,72,0,2,15,1,701,1289.409268533811,1293.7591104437597,"[77, 0, 177]",177,a,3.8238721038214862,colour,0.5
043,72,0,2,15,2,702,1294.2689924319275,1295.551111748442,"[95, 0, 159]",159,l,0.7586772134527564,colour,0.5
043,72,0,2,15,3,703,1296.0657907798886,1297.175109016709,"[6, 0, 248]",248,a,0.5859257583506405,colour,0.5
043,72,0,2,15,4,704,1297.6788009284064,1300.1750763272867,"[59, 0, 195]",195,a,1.9737867969088256,colour,0.5
043,72,0,2,15,5,705,1300.6944425189868,1301.4710865896195,"[78, 0, 176]",176,l,0.2533614751882851,colour,0.5
043,72,0,2,15,6,706,1301.9912707991898,1302.871077294927,"[79, 0, 175]",175,l,0.3564648232422769,colour,0.5
043,72,0,2,15,7,707,1303.3725057737902,1304.4555147094652,"[20, 0, 234]",234,a,0.5596519033424556,colour,0.5
043,72,0,2,15,8,708,1304.9663797370158,1305.79123803135,"[56, 0, 198]",198,a,0.30163792660459876,colour,0.5
043,72,0,2,15,9,709,1306.3101099459454,1308.591065053828,"[17, 0, 237]",237,a,1.757716623134911,colour,0.5
043,72,0,2,15,10,710,1309.1069169584662,1309.7270679273643,"[14, 0, 240]",240,a,0.09679629979655147,colour,0.5
043,72,0,2,15,11,711,1310.2475672140718,1311.4231114303693,"[18, 0, 236]",236,a,0.6522927349433303,colour,0.5
043,72,0,2,15,12,712,1311.9350997060537,1312.9031477742828,"[72, 0, 182]",182,l,0.4450084757991135,colour,0.5
043,72,0,2,15,13,713,1313.4195077400655,1314.7670712517574,"[62, 0, 192]",192,l,0.824234442319721,colour,0.5
043,72,0,2,15,14,714,1315.2788181002252,1316.5031188661233,"[44, 0, 210]",210,a,0.7009583059698343,colour,0.5
043,72,0,2,15,15,715,1317.0131922629662,1318.1270448481664,"[3, 0, 251]",251,a,0.5906239463947713,colour,0.5
043,72,0,2,15,16,716,1318.6381926569156,1319.3191916393116,"[39, 0, 215]",215,a,0.15763604221865535,colour,0.5
043,72,0,2,15,17,717,1319.8256136910059,1320.4070665412582,"[33, 0, 221]",221,a,0.05807100562378764,colour,0.5
043,72,0,2,15,18,718,1320.9193761954084,1321.6151503073052,"[73, 0, 181]",181,l,0.1723012886941433,colour,0.5
043,72,0,2,15,19,719,1322.1225727275014,1324.5511066284962,"[37, 0, 217]",217,a,1.9033021619543433,colour,0.5
043,72,0,2,15,20,720,1325.05181555124,1327.7910990035161,"[43, 0, 211]",211,a,2.2158456817269325,colour,0.5
043,72,0,2,15,21,721,1328.2974785198458,1330.2390900743194,"[25, 0, 229]",229,a,1.4170135138556361,colour,0.5
043,72,0,2,15,22,722,1330.7505809227005,1333.4230881934054,"[41, 0, 213]",213,a,2.1490899799391627,colour,0.5
043,72,0,2,15,23,723,1333.9380720611662,1334.4790733908303,"[55, 0, 199]",199,a,0.017813650891184807,colour,0.5
043,72,0,2,15,24,724,1334.9879987272434,1336.2550719478168,"[65, 0, 189]",189,a,0.7437465144321322,colour,0.5
043,72,0,2,15,25,725,1336.769602893386,1337.2950733029284,"[32, 0, 222]",222,a,0.002220503520220518,colour,0.5
043,72,0,2,15,26,726,1337.814071642235,1339.687085871119,"[84, 0, 170]",170,l,1.3495225012302399,colour,0.5
043,72,0,2,15,27,727,1340.2051161373965,1340.7830732115544,"[92, 0, 162]",162,l,0.05455238651484251,colour,0.5
043,72,0,2,15,28,728,1341.2988219279796,1342.3670510076918,"[31, 0, 223]",223,a,0.5448133642785251,colour,0.5
043,72,0,2,15,29,729,1342.8769975868054,1343.495106070768,"[87, 0, 167]",167,a,0.09386648004874587,colour,0.5
043,72,0,2,15,30,730,1344.0029140659608,1345.495097800158,"[38, 0, 216]",216,a,0.9688920802436769,colour,0.5
043,72,0,2,15,31,731,1346.0027360478416,1348.0870509762317,"[54, 0, 200]",200,a,1.56080232700333,colour,0.5
043,72,0,2,15,32,732,1348.596657665912,1349.1670907074586,"[85, 0, 169]",169,l,0.04718707362189889,colour,0.5
043,72,0,2,15,33,733,1349.66232162714,1350.263082379941,"[60, 0, 194]",194,a,0.07220495399087667,colour,0.5
043,72,0,2,15,34,734,1350.7769315778278,1351.383104167413,"[36, 0, 218]",218,a,0.07988849421963096,colour,0.5
043,72,0,2,15,35,735,1351.8893501702696,1352.4470832562074,"[23, 0, 231]",231,a,0.03442016430199146,colour,0.5
043,72,0,2,15,36,736,1352.943899799604,1353.5271202302538,"[82, 0, 172]",172,l,0.05998312775045633,colour,0.5
043,72,0,2,15,37,737,1354.0375614794903,1354.7510551135056,"[42, 0, 212]",212,a,0.20285861240699887,colour,0.5
043,72,0,2,15,38,738,1355.2595326467417,1357.1751239825971,"[19, 0, 235]",235,a,1.392238242086023,colour,0.5
043,72,0,2,15,39,739,1357.675397311803,1358.9670476997271,"[69, 0, 185]",185,l,0.7685206043533981,colour,0.5
043,72,0,2,15,40,740,1359.488225188572,1361.7031232770532,"[7, 0, 247]",247,a,1.6915623238310218,colour,0.5
043,72,0,2,15,41,741,1362.2225666623563,1363.9350552014075,"[94, 0, 160]",160,l,1.189186645206064,colour,0.5
043,72,0,2,15,42,742,1364.44130632421,1365.1110889683478,"[22, 0, 232]",232,a,0.1464468794874847,colour,0.5
043,72,0,2,15,43,743,1365.6287789517082,1367.263057174161,"[8, 0, 246]",246,a,1.110891651827842,colour,0.5
043,72,0,2,15,44,744,1367.7694378718734,1369.7590887825936,"[10, 0, 244]",244,a,1.4669768074527383,colour,0.5
043,72,0,2,15,45,745,1370.2694106963463,1372.3591035911813,"[57, 0, 197]",197,l,1.5663291672244668,colour,0.5
043,72,0,2,15,46,746,1372.8802468152717,1374.0390714849345,"[47, 0, 207]",207,a,0.63562320638448,colour,0.5
043,72,0,2,15,47,747,1374.552096363157,1378.3593402924016,"[96, 0, 158]",158,l,3.2837974936701357,colour,0.5
043,72,0,2,15,48,748,1378.8802483910695,1379.4473813972436,"[97, 0, 157]",157,l,0.04388625081628561,colour,0.5
043,72,0,2,15,49,749,1379.9540326674469,1381.7590675149113,"[63, 0, 191]",191,a,1.2818290521390736,colour,0.5
043,72,0,2,15,50,750,1382.2698246282525,1383.255068403203,"[86, 0, 168]",168,l,0.462104145437479,colour,0.5
043,72,0,2,16,1,751,1388.488750972785,1396.0470452890731,"[65, 0, 189]",189,l,7.03469073632732,colour,0.5
043,72,0,2,16,2,752,1396.5676745446399,1397.1191588714719,"[74, 0, 180]",180,l,0.02834666660055518,colour,0.5
043,72,0,2,16,3,753,1397.6320025804453,1398.9270451632328,"[54, 0, 200]",200,a,0.7723038885742426,colour,0.5
043,72,0,2,16,4,754,1399.4444830850698,1400.7510287258774,"[62, 0, 192]",192,a,0.7831500112079084,colour,0.5
043,72,0,2,16,5,755,1401.2725394084118,1402.1190434745513,"[91, 0, 163]",163,l,0.3231958709657192,colour,0.5
043,72,0,2,16,6,756,1402.634086813312,1404.703040569555,"[75, 0, 179]",179,l,1.545623111538589,colour,0.5
043,72,0,2,16,7,757,1405.212190398015,1406.0550088537857,"[2, 0, 252]",252,a,0.3198670847341418,colour,0.5
043,72,0,2,16,8,758,1406.5742982453667,1407.5910323648714,"[81, 0, 173]",173,l,0.49338811496272683,colour,0.5
043,72,0,2,16,9,759,1408.1055952114984,1409.3110370594077,"[33, 0, 221]",221,a,0.6821907600387931,colour,0.5
043,72,0,2,16,10,760,1409.8243644116446,1410.679082134273,"[85, 0, 169]",169,l,0.3313874718733132,colour,0.5
043,72,0,2,16,11,761,1411.1992923379876,1411.7431766195223,"[87, 0, 167]",167,l,0.020473686512559652,colour,0.5
043,72,0,2,16,12,762,1412.252935333643,1412.8790136841126,"[37, 0, 217]",217,a,0.1027445551007986,colour,0.5
043,72,0,2,16,13,763,1413.3934950046241,1415.439019260928,"[99, 0, 155]",155,l,1.5223842333070934,colour,0.5
043,72,0,2,16,14,764,1415.9561444693245,1416.5192141672596,"[17, 0, 237]",237,a,0.04060393897816539,colour,0.5
043,72,0,2,16,15,765,1417.0342322997749,1417.726999398321,"[90, 0, 164]",164,l,0.16956327203661203,colour,0.5
043,72,0,2,16,16,766,1418.237290198449,1419.4470111820847,"[96, 0, 158]",158,l,0.6864175144582987,colour,0.5
043,72,0,2,16,17,767,1419.956107841339,1420.6710149883293,"[27, 0, 227]",227,a,0.19240160938352346,colour,0.5
043,72,0,2,16,18,768,1421.190407961607,1422.2149977316149,"[6, 0, 248]",248,a,0.5012945714406669,colour,0.5
043,72,0,2,16,19,769,1422.7237564711832,1423.3430520067923,"[78, 0, 176]",176,l,0.09586485428735614,colour,0.5
043,72,0,2,16,20,770,1423.8644272065721,1424.5670286375098,"[95, 0, 159]",159,l,0.17950709396973252,colour,0.5
043,72,0,2,16,21,771,1425.083156234119,1426.0630106213503,"[94, 0, 160]",160,l,0.45651232125237584,colour,0.5
043,72,0,2,16,22,772,1426.583210190758,1427.559109183494,"[88, 0, 166]",166,l,0.4526782310567796,colour,0.5
043,72,0,2,16,23,773,1428.0675855353475,1429.0230281711556,"[97, 0, 157]",157,l,0.4323396338149905,colour,0.5
043,72,0,2,16,24,774,1429.5363157447428,1430.3830490293913,"[22, 0, 232]",232,a,0.32343178428709507,colour,0.5
043,72,0,2,16,25,775,1430.8956406773068,1431.695060857106,"[60, 0, 194]",194,a,0.2760950489901006,colour,0.5
043,72,0,2,16,26,776,1432.2081956188194,1433.959003396798,"[67, 0, 187]",187,a,1.2275322717614472,colour,0.5
043,72,0,2,16,27,777,1434.4737781323493,1437.3110216995701,"[30, 0, 224]",224,a,2.313999568577856,colour,0.5
043,72,0,2,16,28,778,1437.8196425926872,1439.8710513007827,"[84, 0, 170]",170,l,1.5279614850878716,colour,0.5
043,72,0,2,16,29,779,1440.3821695712395,1441.3910413444974,"[28, 0, 226]",226,a,0.48572741774842143,colour,0.5
043,72,0,2,16,30,780,1441.897772171069,1442.9910581223667,"[14, 0, 240]",240,a,0.5700179277919233,colour,0.5
043,72,0,2,16,31,781,1443.5080651771277,1444.5110276858322,"[92, 0, 162]",162,l,0.4797712857834995,colour,0.5
043,72,0,2,16,32,782,1445.0236780168489,1446.0950759807602,"[48, 0, 206]",206,a,0.5481685376726091,colour,0.5
043,72,0,2,16,33,783,1446.6017138599418,1447.2549876649864,"[26, 0, 228]",228,a,0.1298667541705072,colour,0.5
043,72,0,2,16,34,784,1447.7736488725059,1448.8630196009763,"[34, 0, 220]",220,a,0.5660101515240967,colour,0.5
043,72,0,2,16,35,785,1449.3831053492613,1450.4630718249828,"[93, 0, 161]",161,l,0.5567870680242777,colour,0.5
043,72,0,2,16,36,786,1450.9767205552198,1452.0070033683442,"[31, 0, 223]",223,a,0.504901806358248,colour,0.5
043,72,0,2,16,37,787,1452.525683480315,1453.7909611575305,"[77, 0, 177]",177,l,0.7420955123379827,colour,0.5
043,72,0,2,16,38,788,1454.306928852573,1455.2870057630353,"[36, 0, 218]",218,a,0.45688883773982525,colour,0.5
043,72,0,2,16,39,789,1455.806887498591,1456.9990106592886,"[25, 0, 229]",229,a,0.6687818821519613,colour,0.5
043,72,0,2,16,40,790,1457.5100245601498,1458.6390374563634,"[23, 0, 231]",231,a,0.6043195445090532,colour,0.5
043,72,0,2,16,41,791,1459.1521214116365,1460.2789988755248,"[41, 0, 213]",213,a,0.6035637543536723,colour,0.5
043,72,0,2,16,42,792,1460.7926440611482,1461.7831555251032,"[35, 0, 219]",219,a,0.46711071487516165,colour,0.5
043,72,0,2,16,43,793,1462.2926440611482,1463.1829851474613,"[19, 0, 235]",235,a,0.36698129726573825,colour,0.5
043,72,0,2,16,44,794,1463.6989394519478,1464.2470079525374,"[38, 0, 216]",216,a,0.02484380081295967,colour,0.5
043,72,0,2,16,45,795,1464.7614451628178,1465.991006528493,"[73, 0, 181]",181,l,0.7062708935700357,colour,0.5
043,72,0,2,16,46,796,1466.5113679687493,1467.5910205496475,"[10, 0, 244]",244,a,0.5562868840061128,colour,0.5
043,72,0,2,16,47,797,1468.1063746325672,1468.8789916285314,"[44, 0, 210]",210,a,0.2493690587580204,colour,0.5
043,72,0,2,16,48,798,1469.387628275901,1469.9590045781806,"[39, 0, 215]",215,a,0.04812009446322918,colour,0.5
043,72,0,2,16,49,799,1470.4657562789507,1471.0469842432067,"[46, 0, 208]",208,a,0.057870931923389435,colour,0.5
043,72,0,2,16,50,800,1471.559490820393,1472.2870502676815,"[66, 0, 188]",188,l,0.20453797187656164,colour,0.5
