id,age,condition,counterbalance,block,trialinblock,trial,tstart,tend,trialstim,trialintensity,response,RT,trialtype,colourfreq
013,66,0,1,Practice,1,NA,6.301532266661525e-06,2.8143119612927876,"[60, 0, 194]",194,a,2.196487289612378,colour,0.5
013,66,0,1,Practice,2,NA,3.328926593056849,5.726243321852735,"[6, 0, 248]",248,a,1.8744833235855367,colour,0.5
013,66,0,1,Practice,3,NA,6.2351735776753685,6.774223188457199,"[79, 0, 175]",175,a,0.015999196554730588,colour,0.5
013,66,0,1,Practice,4,NA,7.2819486700814196,9.806242849237833,"[17, 0, 237]",237,l,2.0013103248636526,colour,0.5
013,66,0,1,Practice,5,NA,10.31316606703649,10.966305707022002,"[24, 0, 230]",230,a,0.13019320104035614,colour,0.5
013,66,0,1,Practice,6,NA,11.485458229702772,12.062279224832764,"[13, 0, 241]",241,a,0.05421641431007629,colour,0.5
013,66,0,1,Practice,7,NA,12.580221853320154,16.01423752444316,"[54, 0, 200]",200,a,2.911085773700279,colour,0.5
013,66,0,1,Practice,8,NA,16.533577123862642,25.67829299368077,"[81, 0, 173]",173,a,8.621579597213895,colour,0.5
013,66,0,1,Practice,9,NA,26.189849019225676,27.278274482929874,"[92, 0, 162]",162,l,0.5657050922288818,colour,0.5
013,66,0,1,Practice,10,NA,27.799254056119025,28.45421641430994,"[35, 0, 219]",219,a,0.1319044608940203,colour,0.5
013,66,0,1,1,1,1,5.409902857941688,6.615915701252106,"[54, 0, 200]",200,a,0.6825965463663124,colour,0.5
013,66,0,1,1,2,2,7.129439774090088,7.735901995419454,"[62, 0, 192]",192,a,0.08198884234934667,colour,0.5
013,66,0,1,1,3,3,8.255974935655331,13.399954707736924,"[67, 0, 187]",187,a,4.620936447078066,colour,0.5
013,66,0,1,1,4,4,13.912120406527492,14.671988704503292,"[88, 0, 166]",166,l,0.23677456071413872,colour,0.5
013,66,0,1,1,5,5,15.177744957297136,15.71988743888005,"[4, 0, 250]",250,a,0.01905977200271991,colour,0.5
013,66,0,1,1,6,6,16.240256944977773,19.77598249749417,"[56, 0, 198]",198,a,3.012691285965502,colour,0.5
013,66,0,1,1,7,7,20.287184849541063,20.959901774865784,"[83, 0, 171]",171,l,0.14968305261959358,colour,0.5
013,66,0,1,1,8,8,21.474634560359846,22.21591963970991,"[98, 0, 156]",156,l,0.21827089893326956,colour,0.5
013,66,0,1,1,9,9,22.724635249589937,43.75196460114239,"[47, 0, 207]",207,a,20.50438842644826,colour,0.5
013,66,0,1,1,10,10,44.27143968350538,45.25593240031276,"[75, 0, 179]",179,l,0.4612575889157142,colour,0.5
013,66,0,1,1,11,11,45.7716789448084,46.40792023835547,"[14, 0, 240]",240,a,0.12593612215528083,colour,0.5
013,66,0,1,1,12,12,46.91532394798878,47.85583590810006,"[7, 0, 247]",247,a,0.4174162536210133,colour,0.5
013,66,0,1,1,13,13,48.368530147908814,48.95984742415021,"[12, 0, 242]",242,a,0.06824638203443101,colour,0.5
013,66,0,1,1,14,14,49.47791568943671,50.671883941529586,"[11, 0, 243]",243,a,0.6710198439188844,colour,0.5
013,66,0,1,1,15,15,51.17192903686987,51.78386295742712,"[0, 0, 254]",254,a,0.0893612412442053,colour,0.5
013,66,0,1,1,16,16,52.296992396807354,52.9679102346729,"[20, 0, 234]",234,a,0.14791192820985088,colour,0.5
013,66,0,1,1,17,17,53.48702022201087,56.10389336232038,"[33, 0, 221]",221,a,2.0939085844593137,colour,0.5
013,66,0,1,1,18,18,56.611941403626815,57.17589624527136,"[60, 0, 194]",194,a,0.04088473512888413,colour,0.5
013,66,0,1,1,19,19,57.67943199563615,58.647835325208234,"[55, 0, 199]",199,a,0.4452891123307836,colour,0.5
013,66,0,1,1,20,20,59.16386937711309,60.119835057393175,"[5, 0, 249]",249,a,0.43291999220195976,colour,0.5
013,66,0,1,1,21,21,60.6326273647976,61.175854497620094,"[80, 0, 174]",174,l,0.0202279185448333,colour,0.5
013,66,0,1,1,22,22,61.6951338386375,62.23233828200523,"[21, 0, 233]",233,a,0.014211530622333157,colour,0.5
013,66,0,1,1,23,23,62.732596054059286,63.27986798289908,"[93, 0, 161]",161,l,0.02419394540902431,colour,0.5
013,66,0,1,1,24,24,63.79515569707746,68.59183951572709,"[82, 0, 172]",172,l,4.270906022492454,colour,0.5
013,66,0,1,1,25,25,69.11066435873045,69.83988279150003,"[77, 0, 177]",177,l,0.20607585863308486,colour,0.5
013,66,0,1,1,26,26,70.36066977410974,76.30390320846436,"[70, 0, 184]",184,a,5.420205469335997,colour,0.5
013,66,0,1,1,27,27,76.81376333414073,77.375886792973,"[29, 0, 225]",225,a,0.03904705078457482,colour,0.5
013,66,0,1,1,28,28,77.89192675256436,81.41585662438729,"[99, 0, 155]",155,l,3.0010681097176075,colour,0.5
013,66,0,1,1,29,29,81.92312130646519,84.49591286556256,"[37, 0, 217]",217,a,2.049776984834807,colour,0.5
013,66,0,1,1,30,30,85.01692630948787,88.95992776868638,"[36, 0, 218]",218,a,3.4199979126174185,colour,0.5
013,66,0,1,1,31,31,89.46999190646943,90.02384302883138,"[89, 0, 165]",165,l,0.03987452073897657,colour,0.5
013,66,0,1,1,32,32,90.53899722929486,94.43990484686287,"[91, 0, 163]",163,l,3.3777796157246485,colour,0.5
013,66,0,1,1,33,33,94.96090844464402,98.53579565706264,"[15, 0, 239]",239,a,3.051815924365883,colour,0.5
013,66,0,1,1,34,34,99.054643736966,99.94383838145131,"[18, 0, 236]",236,a,0.3662352086298597,colour,0.5
013,66,0,1,1,35,35,100.4608944631193,102.75181139513938,"[45, 0, 209]",209,a,1.7678696685588875,colour,0.5
013,66,0,1,1,36,36,103.2577496046772,104.01584205209383,"[26, 0, 228]",228,a,0.23506172547763526,colour,0.5
013,66,0,1,1,37,37,104.52336115853655,107.77584268224723,"[78, 0, 176]",176,l,2.73301471210857,colour,0.5
013,66,0,1,1,38,38,108.2854066359073,108.84783020521331,"[97, 0, 157]",157,l,0.03936212739722578,colour,0.5
013,66,0,1,1,39,39,109.36569563993044,109.91978897743843,"[81, 0, 173]",173,l,0.03126387075553794,colour,0.5
013,66,0,1,1,40,40,110.42822141221268,124.39979716943049,"[24, 0, 230]",230,a,13.448522979915879,colour,0.5
013,66,0,1,1,41,41,124.91330233767144,126.50379056857537,"[13, 0, 241]",241,a,1.0682148743730977,colour,0.5
013,66,0,1,1,42,42,127.02183599080763,128.68780633815982,"[69, 0, 185]",185,a,1.1428998469909857,colour,0.5
013,66,0,1,1,43,43,129.1945338146129,129.78384917282528,"[10, 0, 244]",244,a,0.06703609399505694,colour,0.5
013,66,0,1,1,44,44,130.30317813840907,134.55186889662127,"[17, 0, 237]",237,a,3.7256293163034115,colour,0.5
013,66,0,1,1,45,45,135.06871151388395,135.81578848906975,"[35, 0, 219]",219,a,0.22395369949185806,colour,0.5
013,66,0,1,1,46,46,136.33435536309617,136.95986239028935,"[71, 0, 183]",183,l,0.10236563459397985,colour,0.5
013,66,0,1,1,47,47,137.47548566106025,139.2717709077947,"[40, 0, 214]",214,a,1.2723155964893067,colour,0.5
013,66,0,1,1,48,48,139.78901327850986,140.9677664809683,"[86, 0, 168]",168,l,0.6556748251816771,colour,0.5
013,66,0,1,1,49,49,141.47649942006205,142.53585591546494,"[49, 0, 205]",205,a,0.5457024534623542,colour,0.5
013,66,0,1,1,50,50,143.047233135032,144.62375992737475,"[57, 0, 197]",197,a,1.0536386425710589,colour,0.5
013,66,0,1,2,1,51,152.95257033593066,161.6157471352642,"[47, 0, 207]",207,a,8.139318607440146,colour,0.5
013,66,0,1,2,2,52,162.12523271361692,162.73575587864048,"[41, 0, 213]",213,a,0.0988682841912123,colour,0.5
013,66,0,1,2,3,53,163.25450904171407,164.62379025349878,"[75, 0, 179]",179,l,0.8462083483486822,colour,0.5
013,66,0,1,2,4,54,165.12955083859583,166.23975636700902,"[63, 0, 191]",191,a,0.5871677172503951,colour,0.5
013,66,0,1,2,5,55,166.75456634627312,167.63974494548188,"[3, 0, 251]",251,a,0.3621868680006628,colour,0.5
013,66,0,1,2,6,56,168.16080053090423,169.319835451239,"[39, 0, 215]",215,a,0.6359502415261886,colour,0.5
013,66,0,1,2,7,57,169.83538979900072,170.9677586040532,"[15, 0, 239]",239,a,0.609264827800871,colour,0.5
013,66,0,1,2,8,58,171.47600317439696,172.0797718845322,"[90, 0, 164]",164,l,0.08093018493036652,colour,0.5
013,66,0,1,2,9,59,172.60117247884568,173.60775167236739,"[84, 0, 170]",170,l,0.48368434837220775,colour,0.5
013,66,0,1,2,10,60,174.11659094981792,175.1517436536676,"[97, 0, 157]",157,l,0.5121444311193954,colour,0.5
013,66,0,1,2,11,61,175.66346942673795,176.76776333020211,"[67, 0, 187]",187,a,0.581120609358095,colour,0.5
013,66,0,1,2,12,62,177.28844791291272,178.3917115158531,"[83, 0, 171]",171,a,0.5801474164700267,colour,0.5
013,66,0,1,2,13,63,178.8987209858749,179.53579093091344,"[82, 0, 172]",172,a,0.11395297087710787,colour,0.5
013,66,0,1,2,14,64,180.0549596012704,181.18376213291117,"[6, 0, 248]",248,a,0.6057340005081642,colour,0.5
013,66,0,1,2,15,65,181.6956222073875,182.35972336273403,"[9, 0, 245]",245,a,0.1409995411700038,colour,0.5
013,66,0,1,2,16,66,182.86747680740723,183.75970327659957,"[35, 0, 219]",219,a,0.3727352391529166,colour,0.5
013,66,0,1,2,17,67,184.27008170330396,185.36775860405282,"[60, 0, 194]",194,a,0.5870554712068952,colour,0.5
013,66,0,1,2,18,68,185.8827284846982,187.16772749023744,"[20, 0, 234]",234,a,0.7619990035700539,colour,0.5
013,66,0,1,2,19,69,187.6804713546128,188.24771953455297,"[43, 0, 211]",211,a,0.04317455441287166,colour,0.5
013,66,0,1,2,20,70,188.75964656280962,189.62381191501595,"[52, 0, 202]",202,a,0.34125120861426694,colour,0.5
013,66,0,1,2,21,71,190.13458851978953,191.07973486303013,"[22, 0, 232]",232,a,0.4221038059286002,colour,0.5
013,66,0,1,2,22,72,191.57532516891047,192.1277757757282,"[85, 0, 169]",169,l,0.029560093971213064,colour,0.5
013,66,0,1,2,23,73,192.6377831997213,193.31973935287192,"[61, 0, 193]",193,a,0.15891597891322817,colour,0.5
013,66,0,1,2,24,74,193.84094184276478,195.33576533093878,"[23, 0, 231]",231,a,0.9718230923590454,colour,0.5
013,66,0,1,2,25,75,195.85653380279723,197.11178996993,"[24, 0, 230]",230,a,0.7321860606170958,colour,0.5
013,66,0,1,2,26,76,197.62256539316627,200.6157518614134,"[74, 0, 180]",180,a,2.470175832442237,colour,0.5
013,66,0,1,2,27,77,201.12264160232212,202.2797655830002,"[0, 0, 254]",254,a,0.6341082248782186,colour,0.5
013,66,0,1,2,28,78,202.79514348785847,203.98369675451409,"[14, 0, 240]",240,a,0.6654091171358232,colour,0.5
013,66,0,1,2,29,79,204.50189971505256,205.56771803793913,"[45, 0, 209]",209,a,0.5436824185280784,colour,0.5
013,66,0,1,2,30,80,206.0792378296735,207.50374724554126,"[79, 0, 175]",175,l,0.901419617063766,colour,0.5
013,66,0,1,2,31,81,208.016623048248,209.21575579987098,"[95, 0, 159]",159,l,0.6761654388524221,colour,0.5
013,66,0,1,2,32,82,209.7353450975063,210.81575698140864,"[29, 0, 225]",225,a,0.5572925466658489,colour,0.5
013,66,0,1,2,33,83,211.3291215467109,212.94371550157234,"[78, 0, 176]",176,l,1.091502580674387,colour,0.5
013,66,0,1,2,34,84,213.4540801436749,214.5439695320913,"[46, 0, 208]",208,a,0.5667609927272679,colour,0.5
013,66,0,1,2,35,85,215.06342767908632,216.4717358555215,"[42, 0, 212]",212,a,0.8856732694907805,colour,0.5
013,66,0,1,2,36,86,216.98532018676156,218.62372448125575,"[53, 0, 201]",201,a,1.1156551722779113,colour,0.5
013,66,0,1,2,37,87,219.14152926372503,221.79175720196213,"[69, 0, 185]",185,l,2.1272121824372334,colour,0.5
013,66,0,1,2,38,88,222.29785925133842,223.5357298848196,"[50, 0, 204]",204,a,0.7148639361339519,colour,0.5
013,66,0,1,2,39,89,224.0478896759239,225.62373905354912,"[2, 0, 252]",252,a,1.0529131786702237,colour,0.5
013,66,0,1,2,40,90,226.14158479597813,227.33580944166465,"[62, 0, 192]",192,l,0.6712963236468568,colour,0.5
013,66,0,1,2,41,91,227.84461721145385,229.28771457209655,"[48, 0, 206]",206,a,0.9200099249133018,colour,0.5
013,66,0,1,2,42,92,229.78539895591462,230.84772465454785,"[40, 0, 214]",214,a,0.5392477152022366,colour,0.5
013,66,0,1,2,43,93,231.36352318668492,232.12770252041605,"[18, 0, 236]",236,a,0.24104660573902947,colour,0.5
013,66,0,1,2,44,94,232.64470740213415,233.95974463040534,"[92, 0, 162]",162,l,0.7919332510196,colour,0.5
013,66,0,1,2,45,95,234.47287013132768,236.30375236553596,"[31, 0, 223]",223,a,1.3077392662257807,colour,0.5
013,66,0,1,2,46,96,236.81664195284498,238.1116789054238,"[70, 0, 184]",184,l,0.7719849629688724,colour,0.5
013,66,0,1,2,47,97,238.62915600821566,239.99968768030726,"[73, 0, 181]",181,l,0.8475785377686407,colour,0.5
013,66,0,1,2,48,98,240.51980433742324,241.6556685236494,"[38, 0, 216]",216,a,0.6128681227146444,colour,0.5
013,66,0,1,2,49,99,242.17594705137503,243.26367895268527,"[81, 0, 173]",173,l,0.5649335483731193,colour,0.5
013,66,0,1,2,50,100,243.76970538367482,245.02368076437574,"[72, 0, 182]",182,l,0.7309222095532277,colour,0.5
013,66,0,1,3,1,101,249.92524177206974,253.15966428586876,"[87, 0, 167]",167,a,2.7087463298494185,colour,0.5
013,66,0,1,3,2,102,253.678009424729,254.7436473662549,"[8, 0, 246]",246,a,0.5426391210939983,colour,0.5
013,66,0,1,3,3,103,255.24376256614164,256.567655810308,"[88, 0, 166]",166,l,0.8008928483513955,colour,0.5
013,66,0,1,3,4,104,257.08751331690996,258.15169363525524,"[3, 0, 251]",251,a,0.5411141502872852,colour,0.5
013,66,0,1,3,5,105,258.6655178185672,259.7276887358141,"[28, 0, 226]",226,a,0.5390039246731249,colour,0.5
013,66,0,1,3,6,106,260.2436948246698,261.39171309123617,"[11, 0, 243]",243,a,0.6249706092594352,colour,0.5
013,66,0,1,3,7,107,261.8999147323914,263.207692201657,"[41, 0, 213]",213,a,0.7847727411467531,colour,0.5
013,66,0,1,3,8,108,263.72810936309247,265.2076421832446,"[65, 0, 189]",189,l,0.9564879197660048,colour,0.5
013,66,0,1,3,9,109,265.72807076620734,267.2716551171395,"[61, 0, 193]",193,l,1.0205114874966057,colour,0.5
013,66,0,1,3,10,110,267.7905670000571,269.27964821696173,"[45, 0, 209]",209,l,0.966045768816457,colour,0.5
013,66,0,1,3,11,111,269.7905335231669,270.8477167776325,"[69, 0, 185]",185,l,0.5341186617906715,colour,0.5
013,66,0,1,3,12,112,271.3686900492896,272.44771992839856,"[16, 0, 238]",238,a,0.5559790710358357,colour,0.5
013,66,0,1,3,13,113,272.96244798774364,273.9517160844641,"[30, 0, 224]",224,a,0.4662342240153521,colour,0.5
013,66,0,1,3,14,114,274.4623938339507,275.99166228513263,"[59, 0, 195]",195,a,1.0060404125142668,colour,0.5
013,66,0,1,3,15,115,276.5101082485087,277.5596237197549,"[10, 0, 244]",244,a,0.5266210199420129,colour,0.5
013,66,0,1,3,16,116,278.07260428543555,279.0637010080484,"[18, 0, 236]",236,a,0.4680407945447769,colour,0.5
013,66,0,1,3,17,117,279.5725698239314,280.4396972901443,"[36, 0, 218]",218,a,0.3441554272931171,colour,0.5
013,66,0,1,3,18,118,280.9475795223832,282.20763824478695,"[82, 0, 172]",172,l,0.7369945235745945,colour,0.5
013,66,0,1,3,19,119,282.72955871551153,283.84766085153365,"[91, 0, 163]",163,l,0.5950828356103557,colour,0.5
013,66,0,1,3,20,120,284.34214720773184,285.43963073020973,"[47, 0, 207]",207,a,0.5744973051105262,colour,0.5
013,66,0,1,3,21,121,285.9515388538696,287.6556188990828,"[42, 0, 212]",212,a,1.1918781126123577,colour,0.5
013,66,0,1,3,22,122,288.17522355670303,289.35970445813723,"[7, 0, 247]",247,a,0.661592751662738,colour,0.5
013,66,0,1,3,23,123,289.8782886613774,290.8396275794437,"[14, 0, 240]",240,a,0.43820855314879736,colour,0.5
013,66,0,1,3,24,124,291.3471006059315,292.6716574802142,"[80, 0, 174]",174,l,0.801463924712607,colour,0.5
013,66,0,1,3,25,125,293.190785978303,294.1836140469029,"[48, 0, 206]",206,a,0.4703699984047489,colour,0.5
013,66,0,1,3,26,126,294.6906983476199,296.12761863126775,"[75, 0, 179]",179,l,0.9137836171976232,colour,0.5
013,66,0,1,3,27,127,296.64390001831384,297.99159730058113,"[34, 0, 220]",220,a,0.8246393849703963,colour,0.5
013,66,0,1,3,28,128,298.5032769936963,300.12765762199865,"[71, 0, 183]",183,l,1.1013550263583056,colour,0.5
013,66,0,1,3,29,129,300.6438381845285,301.7516463737636,"[55, 0, 199]",199,a,0.584738476565235,colour,0.5
013,66,0,1,3,30,130,302.26888874447855,303.8956529273571,"[29, 0, 225]",225,l,1.1036393318013324,colour,0.5
013,66,0,1,3,31,131,304.40948971373314,305.71969051599694,"[1, 0, 253]",253,a,0.7873807878095249,colour,0.5
013,66,0,1,3,32,132,306.2377134890205,307.32764265585934,"[9, 0, 245]",245,a,0.5672978045067794,colour,0.5
013,66,0,1,3,33,133,307.8469838306621,308.9596296274415,"[74, 0, 180]",180,l,0.5895288226179218,colour,0.5
013,66,0,1,3,34,134,309.471941836857,310.7676199703435,"[86, 0, 168]",168,l,0.7725481624142958,colour,0.5
013,66,0,1,3,35,135,311.2844972460332,312.64766754691186,"[44, 0, 210]",210,a,0.8401403666312035,colour,0.5
013,66,0,1,3,36,136,313.16180089914974,314.399656172646,"[63, 0, 191]",191,l,0.714837942313352,colour,0.5
013,66,0,1,3,37,137,314.9117903637755,316.0316175442533,"[24, 0, 230]",230,a,0.5966865755699473,colour,0.5
013,66,0,1,3,38,138,316.5524313083754,317.8556129913966,"[92, 0, 162]",162,l,0.7801261487988995,colour,0.5
013,66,0,1,3,39,139,318.3649890806262,320.6156400092161,"[73, 0, 181]",181,l,1.7277001573415873,colour,0.5
013,66,0,1,3,40,140,321.1305642037521,322.23961497637924,"[96, 0, 158]",158,l,0.5866151516406717,colour,0.5
013,66,0,1,3,41,141,322.7555395391612,323.90357001494635,"[52, 0, 202]",202,a,0.6249174400813899,colour,0.5
013,66,0,1,3,42,142,324.41179056069836,325.50361058106023,"[49, 0, 205]",205,a,0.5686392431857712,colour,0.5
013,66,0,1,3,43,143,326.02118968990567,327.03165377806386,"[77, 0, 177]",177,l,0.48744754466679296,colour,0.5
013,66,0,1,3,44,144,327.5524663606486,328.2076815678213,"[58, 0, 196]",196,a,0.1322258390391653,colour,0.5
013,66,0,1,3,45,145,328.72429024069856,329.279666333867,"[64, 0, 190]",190,a,0.032350097378639475,colour,0.5
013,66,0,1,3,46,146,329.77434764371924,330.99156973137747,"[79, 0, 175]",175,l,0.6941425288441678,colour,0.5
013,66,0,1,3,47,147,331.51056865420946,332.57558589480755,"[4, 0, 250]",250,a,0.5419967586490202,colour,0.5
013,66,0,1,3,48,148,333.0886822511436,334.06357143279115,"[89, 0, 165]",165,l,0.4517859920874798,colour,0.5
013,66,0,1,3,49,149,334.5730711895915,335.655765409708,"[17, 0, 237]",237,a,0.5597020950626757,colour,0.5
013,66,0,1,3,50,150,336.16679131885144,337.22360475214305,"[98, 0, 156]",156,l,0.5338642374258598,colour,0.5
013,66,0,1,4,1,151,343.30672117492054,348.00757207869833,"[86, 0, 168]",168,a,4.176993499575929,colour,0.5
013,66,0,1,4,2,152,348.52630476179206,349.81560338155964,"[78, 0, 176]",176,l,0.7664274053636291,colour,0.5
013,66,0,1,4,3,153,350.31503171443023,351.399597883473,"[32, 0, 222]",222,a,0.5616847146488908,colour,0.5
013,66,0,1,4,4,154,351.9086884345222,353.00758231868826,"[90, 0, 164]",164,l,0.575955715982218,colour,0.5
013,66,0,1,4,5,155,353.51803439455057,354.6395980410109,"[9, 0, 245]",245,a,0.5984880261039507,colour,0.5
013,66,0,1,4,6,156,355.1586465884095,356.38361798536084,"[47, 0, 207]",207,a,0.7018288228150595,colour,0.5
013,66,0,1,4,7,157,356.89301652379913,357.9995612558166,"[34, 0, 220]",220,a,0.5838365697609333,colour,0.5
013,66,0,1,4,8,158,358.51802730532677,359.6636513834817,"[76, 0, 178]",178,l,0.6225535777934965,colour,0.5
013,66,0,1,4,9,159,360.17435315756006,361.38359199154024,"[11, 0, 243]",243,a,0.6862455273890191,colour,0.5
013,66,0,1,4,10,160,361.8951488047767,363.24760768235524,"[22, 0, 232]",232,a,0.8293655341631165,colour,0.5
013,66,0,1,4,11,161,363.75443952793626,364.98357190540605,"[83, 0, 171]",171,l,0.7059752310397016,colour,0.5
013,66,0,1,4,12,162,365.49051639087634,366.75959418132265,"[89, 0, 165]",165,l,0.7459285209320115,colour,0.5
013,66,0,1,4,13,163,367.2718331354256,368.3515829645951,"[50, 0, 204]",204,a,0.5567238333796922,colour,0.5
013,66,0,1,4,14,164,368.8654957632041,369.93557982958305,"[37, 0, 217]",217,a,0.5469686676001402,colour,0.5
013,66,0,1,4,15,165,370.445258392361,371.80754962948936,"[93, 0, 161]",161,l,0.8391561460616686,colour,0.5
013,66,0,1,4,16,166,372.3203159430734,373.6875471876458,"[71, 0, 183]",183,l,0.8442284856828337,colour,0.5
013,66,0,1,4,17,167,374.197137528972,375.27155074801135,"[54, 0, 200]",200,a,0.5502801228008138,colour,0.5
013,66,0,1,4,18,168,375.7919285248702,377.8956084227855,"[69, 0, 185]",185,a,1.5807334589699167,colour,0.5
013,66,0,1,4,19,169,378.4169826294326,379.70357119648384,"[13, 0, 241]",241,a,0.7634952236358004,colour,0.5
013,66,0,1,4,20,170,380.21546356631256,381.31955542689934,"[55, 0, 199]",199,a,0.5807945050642047,colour,0.5
013,66,0,1,4,21,171,381.83106300941495,382.92755679748257,"[57, 0, 197]",197,a,0.5734288015469247,colour,0.5
013,66,0,1,4,22,172,383.4404585940099,385.06352771591105,"[16, 0, 238]",238,a,1.1000214645941924,colour,0.5
013,66,0,1,4,23,173,385.58110249245306,386.8715294803403,"[46, 0, 208]",208,a,0.7657429014225272,colour,0.5
013,66,0,1,4,24,174,387.3795471955225,388.5436044370665,"[5, 0, 249]",249,a,0.6409894981029538,colour,0.5
013,66,0,1,4,25,175,389.0513661525008,390.0476076823554,"[1, 0, 253]",253,a,0.4731635464236206,colour,0.5
013,66,0,1,4,26,176,390.5670319586145,391.5915362544872,"[64, 0, 190]",190,a,0.5014527001080751,colour,0.5
013,66,0,1,4,27,177,392.10004785226033,393.4075626264,"[80, 0, 174]",174,l,0.7840886310514179,colour,0.5
013,66,0,1,4,28,178,393.9285429872805,395.8075358448875,"[10, 0, 244]",244,a,1.3532587783297458,colour,0.5
013,66,0,1,4,29,179,396.32191810764994,397.4715086065146,"[97, 0, 157]",157,l,0.6265148785082602,colour,0.5
013,66,0,1,4,30,180,397.97808799695963,399.19155949138735,"[27, 0, 227]",227,a,0.6904254125038278,colour,0.5
013,66,0,1,4,31,181,399.71268321212733,400.8155175231825,"[99, 0, 155]",155,l,0.5799485243583149,colour,0.5
013,66,0,1,4,32,182,401.31498327140093,402.76756522578194,"[95, 0, 159]",159,l,0.9295811647202754,colour,0.5
013,66,0,1,4,33,183,403.28390096354383,404.69550562904055,"[65, 0, 189]",189,a,0.8887381772424305,colour,0.5
013,66,0,1,4,34,184,405.20549808689407,406.9195916607098,"[33, 0, 221]",221,a,1.190975024270756,colour,0.5
013,66,0,1,4,35,185,407.42955930628,408.74349888640086,"[36, 0, 218]",218,a,0.7908285136454651,colour,0.5
013,66,0,1,4,36,186,409.25767122936963,410.77552524255975,"[96, 0, 158]",158,l,0.994767758998023,colour,0.5
013,66,0,1,4,37,187,411.27958677702213,412.4475879900672,"[45, 0, 209]",209,a,0.6448956604103842,colour,0.5
013,66,0,1,4,38,188,412.9671926476874,414.1675219027477,"[74, 0, 180]",180,a,0.6870489727516542,colour,0.5
013,66,0,1,4,39,189,414.6762134880357,415.7276253266457,"[21, 0, 233]",233,a,0.5287009194330494,colour,0.5
013,66,0,1,4,40,190,416.2387114941919,417.77554414715655,"[38, 0, 216]",216,a,1.013851949438049,colour,0.5
013,66,0,1,4,41,191,418.288743691083,419.55957291365144,"[23, 0, 231]",231,a,0.7477453314509148,colour,0.5
013,66,0,1,4,42,192,420.07000017723044,421.1755138210326,"[35, 0, 219]",219,a,0.5824781957139749,colour,0.5
013,66,0,1,4,43,193,421.69665368944857,423.007576017156,"[20, 0, 234]",234,a,0.7877923566352365,colour,0.5
013,66,0,1,4,44,194,423.5248707693579,424.8235062907013,"[41, 0, 213]",213,a,0.7757103500698577,colour,0.5
013,66,0,1,4,45,195,425.3372320125716,426.35153846002345,"[88, 0, 166]",166,l,0.4912406732396448,colour,0.5
013,66,0,1,4,46,196,426.86854373558776,427.999564012737,"[43, 0, 211]",211,a,0.608056115144791,colour,0.5
013,66,0,1,4,47,197,428.5091303294714,429.38351046546654,"[51, 0, 203]",203,a,0.35141754937330916,colour,0.5
013,66,0,1,4,48,198,429.90094700214445,431.01553327701345,"[7, 0, 247]",247,a,0.5914377930457704,colour,0.5
013,66,0,1,4,49,199,431.52597590057735,432.6476364330963,"[59, 0, 195]",195,a,0.5987790781250624,colour,0.5
013,66,0,1,4,50,200,433.1666648943608,434.83951454570865,"[82, 0, 172]",172,l,1.1498689478212327,colour,0.5
013,66,0,1,5,1,201,438.94706476596707,441.4714991542162,"[1, 0, 253]",253,a,2.0005631994454234,colour,0.5
013,66,0,1,5,2,202,441.9791175097919,443.0314887566881,"[84, 0, 170]",170,l,0.5293365864995394,colour,0.5
013,66,0,1,5,3,203,443.54163835900204,444.4875200122881,"[16, 0, 238]",238,a,0.4229702666139019,colour,0.5
013,66,0,1,5,4,204,444.99472601134653,446.07946232176005,"[94, 0, 160]",160,l,0.5620565050521691,colour,0.5
013,66,0,1,5,5,205,446.5875083938379,447.65544560694593,"[56, 0, 198]",198,a,0.5448155127969585,colour,0.5
013,66,0,1,5,6,206,448.1656578307368,449.2715409018672,"[50, 0, 204]",204,a,0.5828228107588984,colour,0.5
013,66,0,1,5,7,207,449.7906697938022,450.94349416025193,"[28, 0, 226]",226,a,0.6297830106750553,colour,0.5
013,66,0,1,5,8,208,451.4624907200089,452.62357127525297,"[49, 0, 205]",205,a,0.6379576733957038,colour,0.5
013,66,0,1,5,9,209,453.13441640918995,454.2395460533701,"[14, 0, 240]",240,a,0.5821012853157299,colour,0.5
013,66,0,1,5,10,210,454.75933503080864,456.007446048053,"[59, 0, 195]",195,a,0.7252551628257606,colour,0.5
013,66,0,1,5,11,211,456.52499443692864,457.6954658506181,"[30, 0, 224]",224,a,0.6474985870781893,colour,0.5
013,66,0,1,5,12,212,458.21246994464514,459.1274496714343,"[72, 0, 182]",182,l,0.39184109111056387,colour,0.5
013,66,0,1,5,13,213,459.63436540616317,460.6154497817108,"[3, 0, 251]",251,a,0.45797173368919175,colour,0.5
013,66,0,1,5,14,214,461.13434669848925,462.06350408516505,"[32, 0, 222]",222,a,0.40603647405623633,colour,0.5
013,66,0,1,5,15,215,462.5719932337295,463.4634560359816,"[96, 0, 158]",158,l,0.3684659510486199,colour,0.5
013,66,0,1,5,16,216,463.97816755380404,465.03943853347596,"[44, 0, 210]",210,a,0.5382197777530564,colour,0.5
013,66,0,1,5,17,217,465.5562972984151,467.09543237372804,"[6, 0, 248]",248,a,1.0160704826384972,colour,0.5
013,66,0,1,5,18,218,467.60314840305386,468.21548956013316,"[0, 0, 254]",254,a,0.08929546900117202,colour,0.5
013,66,0,1,5,19,219,468.72830037828885,469.447495436312,"[38, 0, 216]",216,a,0.19629942518213284,colour,0.5
013,66,0,1,5,20,220,469.96256417224436,470.60745038035634,"[69, 0, 185]",185,l,0.12188029845628989,colour,0.5
013,66,0,1,5,21,221,471.11523612038286,472.20746455880385,"[17, 0, 237]",237,a,0.5690697166082828,colour,0.5
013,66,0,1,5,22,222,472.72469747722084,473.6875022892284,"[46, 0, 208]",208,a,0.43978748082463426,colour,0.5
013,66,0,1,5,23,223,474.1934089911049,475.23147891054373,"[58, 0, 196]",196,a,0.5134476667590206,colour,0.5
013,66,0,1,5,24,224,475.7418171649799,477.2554227638914,"[64, 0, 190]",190,a,0.9906693999564595,colour,0.5
013,66,0,1,5,25,225,477.77303022963156,478.68746881233824,"[99, 0, 155]",155,l,0.391334211609319,colour,0.5
013,66,0,1,5,26,226,479.1953092969263,480.26344934060376,"[7, 0, 247]",247,a,0.5451191678826035,colour,0.5
013,66,0,1,5,27,227,480.77332994625954,481.8955064167319,"[62, 0, 192]",192,a,0.5991485054537407,colour,0.5
013,66,0,1,5,28,228,482.4140067308242,483.57544844263543,"[87, 0, 167]",167,l,0.6384598267472938,colour,0.5
013,66,0,1,5,29,229,484.07342781693274,485.88749441231334,"[67, 0, 187]",187,a,1.291034691904315,colour,0.5
013,66,0,1,5,30,230,486.40160610303406,487.4154816832181,"[45, 0, 209]",209,a,0.49088463666748794,colour,0.5
013,66,0,1,5,31,231,487.9328544168818,488.91142408721294,"[83, 0, 171]",171,l,0.4556736436443316,colour,0.5
013,66,0,1,5,32,232,489.4170980262418,490.5674285613011,"[24, 0, 230]",230,a,0.6272773639116167,colour,0.5
013,66,0,1,5,33,233,491.0734211215547,492.5434276003173,"[12, 0, 242]",242,a,0.9469056522775645,colour,0.5
013,66,0,1,5,34,234,493.057857518417,494.3754748303015,"[88, 0, 166]",166,l,0.7946956852224503,colour,0.5
013,66,0,1,5,35,235,494.8859501430645,496.0794300264072,"[42, 0, 212]",212,a,0.6686740985360302,colour,0.5
013,66,0,1,5,36,236,496.59095690736535,497.74340633264615,"[52, 0, 202]",202,a,0.6294966848035983,colour,0.5
013,66,0,1,5,37,237,498.26275223359767,500.0874940184674,"[80, 0, 174]",174,l,1.3017236659952687,colour,0.5
013,66,0,1,5,38,238,500.6065079074385,501.54346816643124,"[93, 0, 161]",161,l,0.4138736109553065,colour,0.5
013,66,0,1,5,39,239,502.0596459720407,503.0475111901426,"[36, 0, 218]",218,a,0.46513893894007197,colour,0.5
013,66,0,1,5,40,240,503.5596249012922,504.6393885150635,"[71, 0, 183]",183,a,0.5570385161468039,colour,0.5
013,66,0,1,5,41,241,505.15334345516953,506.5274540037374,"[73, 0, 181]",181,a,0.8510790389373142,colour,0.5
013,66,0,1,5,42,242,507.0439894213025,508.1274213145391,"[92, 0, 162]",162,l,0.5603826605465656,colour,0.5
013,66,0,1,5,43,243,508.63771033825446,509.6954792413742,"[8, 0, 246]",246,a,0.5346605935646949,colour,0.5
013,66,0,1,5,44,244,510.2158274798005,511.19939505290336,"[4, 0, 250]",250,a,0.4604899835176184,colour,0.5
013,66,0,1,5,45,245,511.7158390982506,512.6474158794674,"[29, 0, 225]",225,a,0.4084842254924297,colour,0.5
013,66,0,1,5,46,246,513.1533529074679,514.1594669691401,"[95, 0, 159]",159,l,0.48321055191581763,colour,0.5
013,66,0,1,5,47,247,514.6596703904781,517.4314076244602,"[74, 0, 180]",180,a,2.2489869302285115,colour,0.5
013,66,0,1,5,48,248,517.9285425934347,519.0553719577877,"[89, 0, 165]",165,l,0.6039270361334275,colour,0.5
013,66,0,1,5,49,249,519.5691362765426,520.5114500810339,"[19, 0, 235]",235,a,0.41931655944244994,colour,0.5
013,66,0,1,5,50,250,521.0221798181612,522.1434272064714,"[5, 0, 249]",249,a,0.5982083956100723,colour,0.5
013,66,0,1,6,1,251,527.4745750896493,528.8394810688185,"[96, 0, 158]",158,a,0.8413175716254955,colour,0.5
013,66,0,1,6,2,252,529.3504183626649,530.2474139102385,"[63, 0, 191]",191,a,0.37418892387540836,colour,0.5
013,66,0,1,6,3,253,530.7566214334804,531.8474013071739,"[53, 0, 201]",201,a,0.5677972009380028,colour,0.5
013,66,0,1,6,4,254,532.3663978669313,533.3513789524884,"[62, 0, 192]",192,a,0.46195627130464345,colour,0.5
013,66,0,1,6,5,255,533.8664189376798,534.7833548963888,"[36, 0, 218]",218,a,0.39398518746065747,colour,0.5
013,66,0,1,6,6,256,535.2971857750788,536.2154202432787,"[15, 0, 239]",239,a,0.39515766630665894,colour,0.5
013,66,0,1,6,7,257,536.734714156589,537.7834427239948,"[72, 0, 182]",182,l,0.5256663378054327,colour,0.5
013,66,0,1,6,8,258,538.297171990477,539.2393766996904,"[91, 0, 163]",163,l,0.41904716893805016,colour,0.5
013,66,0,1,6,9,259,539.7503293535217,540.687356960141,"[40, 0, 214]",214,a,0.4140398138688397,colour,0.5
013,66,0,1,6,10,260,541.203418975095,542.1833781332891,"[59, 0, 195]",195,a,0.456860694783245,colour,0.5
013,66,0,1,6,11,261,542.7034565873657,543.7434272064718,"[23, 0, 231]",231,a,0.5169020879734489,colour,0.5
013,66,0,1,6,12,262,544.2518352228083,545.46340129142,"[66, 0, 188]",188,l,0.6884912359469126,colour,0.5
013,66,0,1,6,13,263,545.9705474259224,546.8233597800765,"[0, 0, 254]",254,a,0.3296981369126115,colour,0.5
013,66,0,1,6,14,264,547.3299450782081,548.6794028510496,"[6, 0, 248]",248,a,0.8270564164367897,colour,0.5
013,66,0,1,6,15,265,549.1892326506015,550.9034246858589,"[11, 0, 243]",243,a,1.1911845502186225,colour,0.5
013,66,0,1,6,16,266,551.4237016382015,552.4074440788243,"[42, 0, 212]",212,a,0.4607034479226968,colour,0.5
013,66,0,1,6,17,267,552.9237168012635,553.8714491358039,"[71, 0, 183]",183,l,0.42464686803987206,colour,0.5
013,66,0,1,6,18,268,554.3924231951526,555.5753448611988,"[39, 0, 215]",215,a,0.660059116249613,colour,0.5
013,66,0,1,6,19,269,556.0980368757789,557.1753992119145,"[47, 0, 207]",207,a,0.5544147156533654,colour,0.5
013,66,0,1,6,20,270,557.6916943835624,558.5913558731265,"[83, 0, 171]",171,l,0.37674852750933496,colour,0.5
013,66,0,1,6,21,271,559.0979392020292,559.9513509894389,"[82, 0, 172]",172,l,0.3303188378399682,colour,0.5
013,66,0,1,6,22,272,560.4578551553425,561.3112937242647,"[95, 0, 159]",159,l,0.3307851512272464,colour,0.5
013,66,0,1,6,23,273,561.8172516260909,562.7353943282271,"[4, 0, 250]",250,a,0.39507220177529234,colour,0.5
013,66,0,1,6,24,274,563.2546720938615,564.1434071203378,"[37, 0, 217]",217,a,0.3656597999661244,colour,0.5
013,66,0,1,6,25,275,564.6609629922825,565.8153458064287,"[70, 0, 184]",184,l,0.6313623321971136,colour,0.5
013,66,0,1,6,26,276,566.3328327553647,567.1594102553497,"[92, 0, 162]",162,l,0.3040800452131407,colour,0.5
013,66,0,1,6,27,277,567.676620724558,568.7913558731263,"[19, 0, 235]",235,a,0.5918887464476938,colour,0.5
013,66,0,1,6,28,278,569.3016263860907,570.2954067737535,"[88, 0, 166]",166,l,0.4711238192012388,colour,0.5
013,66,0,1,6,29,279,570.8015600230794,572.0713522497456,"[55, 0, 199]",199,a,0.7466654063605347,colour,0.5
013,66,0,1,6,30,280,572.5828098138488,573.5753389535123,"[13, 0, 241]",241,a,0.4694625777597139,colour,0.5
013,66,0,1,6,31,281,574.0832081888409,575.0153706187118,"[99, 0, 155]",155,l,0.4090974433502197,colour,0.5
013,66,0,1,6,32,282,575.5363438903689,576.447552937794,"[34, 0, 220]",220,a,0.3881436670585572,colour,0.5
013,66,0,1,6,33,283,576.9472975288147,577.8153611664136,"[79, 0, 175]",175,l,0.3449809280186855,colour,0.5
013,66,0,1,6,34,284,578.3222292458051,579.4713301943827,"[73, 0, 181]",181,l,0.6385401712836938,colour,0.5
013,66,0,1,6,35,285,579.9817602148821,581.0233542662356,"[26, 0, 228]",228,a,0.5184447818387525,colour,0.5
013,66,0,1,6,36,286,581.5443295071216,582.455349508579,"[64, 0, 190]",190,a,0.3879227195839121,colour,0.5
013,66,0,1,6,37,287,582.9662466301572,583.8873955570259,"[12, 0, 242]",242,a,0.3982895278381875,colour,0.5
013,66,0,1,6,38,288,584.4051873425849,585.3993737852318,"[45, 0, 209]",209,a,0.47117659453351735,colour,0.5
013,66,0,1,6,39,289,585.9051599703041,587.0553589608774,"[43, 0, 211]",211,a,0.6271296717491168,colour,0.5
013,66,0,1,6,40,290,587.5613968133937,588.3113228688514,"[30, 0, 224]",224,a,0.2268626443201356,colour,0.5
013,66,0,1,6,41,291,588.8270560225908,589.9753157166122,"[31, 0, 223]",223,a,0.6251765905954016,colour,0.5
013,66,0,1,6,42,292,590.483260570328,591.2394361704012,"[74, 0, 180]",180,l,0.23372264987301605,colour,0.5
013,66,0,1,6,43,293,591.7509933774834,592.7433921541985,"[14, 0, 240]",240,a,0.46935623940316873,colour,0.5
013,66,0,1,6,44,294,593.2526851419714,594.5594157691905,"[76, 0, 178]",178,a,0.7837727667470062,colour,0.5
013,66,0,1,6,45,295,595.0651121574281,596.0313666645004,"[50, 0, 204]",204,a,0.4431194160056293,colour,0.5
013,66,0,1,6,46,296,596.5496141296105,597.5993639390879,"[75, 0, 179]",179,l,0.5267887982390675,colour,0.5
013,66,0,1,6,47,297,598.1120266712353,599.0152946064793,"[7, 0, 247]",247,a,0.38021397640477517,colour,0.5
013,66,0,1,6,48,298,599.5338394251428,600.5513273586928,"[1, 0, 253]",253,a,0.49431621482699484,colour,0.5
013,66,0,1,6,49,299,601.0651279112587,601.6794552325362,"[2, 0, 252]",252,a,0.09124933784642053,colour,0.5
013,66,0,1,6,50,300,602.1901593696891,603.42328967553,"[90, 0, 164]",164,l,0.7101645684533651,colour,0.5
013,66,0,1,7,1,301,612.5018205520535,613.9593401508034,"[37, 0, 217]",217,a,0.9337598682977841,colour,0.5
013,66,0,1,7,2,302,614.4713136528605,615.9272941023567,"[93, 0, 161]",161,l,0.9313329906876788,colour,0.5
013,66,0,1,7,3,303,616.4417523773516,617.7272925269733,"[15, 0, 239]",239,a,0.7620249973906539,colour,0.5
013,66,0,1,7,4,304,618.2395941025536,619.5672844137505,"[7, 0, 247]",247,a,0.8170302847697712,colour,0.5
013,66,0,1,7,5,305,620.0865960501208,621.0472776396034,"[95, 0, 159]",159,l,0.43765204908095257,colour,0.5
013,66,0,1,7,6,306,621.5552595148213,622.6073558573728,"[97, 0, 157]",157,l,0.5290136329713278,colour,0.5
013,66,0,1,7,7,307,623.1195345530734,623.9593074616048,"[32, 0, 222]",222,a,0.31698440173840936,colour,0.5
013,66,0,1,7,8,308,624.4789715899358,627.0952835000287,"[91, 0, 163]",163,l,2.0933130896610237,colour,0.5
013,66,0,1,7,9,309,627.6038459039057,628.2713211359298,"[41, 0, 213]",213,a,0.1444610516073226,colour,0.5
013,66,0,1,7,10,310,628.7913802915639,629.4793658295473,"[8, 0, 246]",246,a,0.16494024375106164,colour,0.5
013,66,0,1,7,11,311,629.9945125469415,631.6393128966763,"[9, 0, 245]",245,a,1.1221091228462683,colour,0.5
013,66,0,1,7,12,312,632.1507279254372,633.9034388643065,"[45, 0, 209]",209,a,1.229612869304674,colour,0.5
013,66,0,1,7,13,313,634.416345386983,637.3353061067753,"[33, 0, 221]",221,a,2.3959512655246726,colour,0.5
013,66,0,1,7,14,314,637.8538221746983,639.7753751873227,"[79, 0, 175]",175,l,1.3984502169105326,colour,0.5
013,66,0,1,7,15,315,640.2913344085321,640.991294433187,"[23, 0, 231]",231,a,0.17695765961116194,colour,0.5
013,66,0,1,7,16,316,641.510045233186,643.0233314231812,"[4, 0, 250]",250,a,0.9903692894822598,colour,0.5
013,66,0,1,7,17,317,643.5412299409429,645.3833493825484,"[18, 0, 236]",236,a,1.3190839935173244,colour,0.5
013,66,0,1,7,18,318,645.900707150073,647.2473453810751,"[35, 0, 219]",219,a,0.8236075090630948,colour,0.5
013,66,0,1,7,19,319,647.7608288877993,648.7672855952881,"[70, 0, 184]",184,l,0.48432907389133106,colour,0.5
013,66,0,1,7,20,320,649.2756798270227,649.9352434852988,"[67, 0, 187]",187,l,0.13697010513715213,colour,0.5
013,66,0,1,7,21,321,650.4476872392004,651.8312540246113,"[88, 0, 166]",166,l,0.8634950267123713,colour,0.5
013,66,0,1,7,22,322,652.3509646267423,653.2392553951947,"[56, 0, 198]",198,a,0.36515567738524624,colour,0.5
013,66,0,1,7,23,323,653.758377985597,655.1912692270578,"[2, 0, 252]",252,a,0.9099392886751048,colour,0.5
013,66,0,1,7,24,324,655.7114685917848,656.5593125815997,"[64, 0, 190]",190,a,0.3248762831985914,colour,0.5
013,66,0,1,7,25,325,657.0707579364846,657.7672383337961,"[24, 0, 230]",230,a,0.17338469082142183,colour,0.5
013,66,0,1,7,26,326,658.2739059456924,659.1593050985305,"[36, 0, 218]",218,a,0.36229399404919604,colour,0.5
013,66,0,1,7,27,327,659.6801519456965,662.0233534785441,"[30, 0, 224]",224,a,1.8201160663470546,colour,0.5
013,66,0,1,7,28,328,662.5396285640579,663.4712652098312,"[38, 0, 216]",216,a,0.4084877701043297,colour,0.5
013,66,0,1,7,29,329,663.9771632471009,665.5352785375719,"[65, 0, 189]",189,l,1.035014070140278,colour,0.5
013,66,0,1,7,30,330,666.0552947640174,666.999252480736,"[26, 0, 228]",228,a,0.4208494071635869,colour,0.5
013,66,0,1,7,31,331,667.5083824163619,668.4153076033892,"[13, 0, 241]",241,a,0.3839755973162937,colour,0.5
013,66,0,1,7,32,332,668.9302444009902,670.5512627679875,"[94, 0, 160]",160,l,1.0979533804766106,colour,0.5
013,66,0,1,7,33,333,671.0708890871244,672.9352797191093,"[44, 0, 210]",210,a,1.3413536085136002,colour,0.5
013,66,0,1,7,34,334,673.4459606193616,675.6312347261689,"[96, 0, 158]",158,l,1.6622902525141399,colour,0.5
013,66,0,1,7,35,335,676.1489406533508,677.4872648002317,"[63, 0, 191]",191,l,0.8151811788989107,colour,0.5
013,66,0,1,7,36,336,677.9927402409942,678.7352773560344,"[69, 0, 185]",185,l,0.22006565408901224,colour,0.5
013,66,0,1,7,37,337,679.2427996132435,681.3192541348883,"[11, 0, 243]",243,a,1.5540480452450538,colour,0.5
013,66,0,1,7,38,338,681.8328108969247,682.5112094412705,"[14, 0, 240]",240,a,0.1543513064848412,colour,0.5
013,66,0,1,7,39,339,683.0213039051775,684.0472481011709,"[51, 0, 203]",203,a,0.5028477018113335,colour,0.5
013,66,0,1,7,40,340,684.5681559944308,685.5432783327722,"[73, 0, 181]",181,l,0.4504957533581546,colour,0.5
013,66,0,1,7,41,341,686.0541447343805,687.0392439736672,"[3, 0, 251]",251,a,0.46205748966622195,colour,0.5
013,66,0,1,7,42,342,687.5541161805625,688.7112795458172,"[53, 0, 201]",201,a,0.6339676219399735,colour,0.5
013,66,0,1,7,43,343,689.2260828297028,690.0792870603943,"[80, 0, 174]",174,l,0.3302861486413349,colour,0.5
013,66,0,1,7,44,344,690.585439128183,692.383262342634,"[54, 0, 200]",200,a,1.2747397171792727,colour,0.5
013,66,0,1,7,45,345,692.9009895374872,693.7512355926294,"[90, 0, 164]",164,l,0.33008174268843504,colour,0.5
013,66,0,1,7,46,346,694.2575349587348,695.2392357029064,"[84, 0, 170]",170,l,0.45856919771676985,colour,0.5
013,66,0,1,7,47,347,695.7582515611059,696.6312280307909,"[72, 0, 182]",182,l,0.3499433846714055,colour,0.5
013,66,0,1,7,48,348,697.1488859087892,698.1032462737269,"[71, 0, 183]",183,l,0.43133318761056216,colour,0.5
013,66,0,1,7,49,349,698.6176340503296,699.5592160893873,"[22, 0, 232]",232,a,0.4184500987571482,colour,0.5
013,66,0,1,7,50,350,700.0708040164388,701.0312485107709,"[81, 0, 173]",173,l,0.43737714473672895,colour,0.5
013,66,0,1,8,1,351,711.3668247957419,712.3992339699851,"[43, 0, 211]",211,a,0.5086230561250886,colour,0.5
013,66,0,1,8,2,352,712.9144397642438,713.8792248327634,"[66, 0, 188]",188,a,0.44169645125293755,colour,0.5
013,66,0,1,8,3,353,714.3987971950303,715.215222138858,"[7, 0, 247]",247,a,0.29331151427777513,colour,0.5
013,66,0,1,8,4,354,715.7268659920089,717.8392309767571,"[72, 0, 182]",182,l,1.5897730069928002,colour,0.5
013,66,0,1,8,5,355,718.3519783857444,720.407231008265,"[87, 0, 167]",167,l,1.532182516004923,colour,0.5
013,66,0,1,8,6,356,720.9144346442488,722.1432357974293,"[3, 0, 251]",251,a,0.7057294712817566,colour,0.5
013,66,0,1,8,7,357,722.6644863365057,723.8471965073757,"[1, 0, 253]",253,a,0.6596294305186348,colour,0.5
013,66,0,1,8,8,358,724.3675073304541,725.2552116625609,"[16, 0, 238]",238,a,0.36461729022312284,colour,0.5
013,66,0,1,8,9,359,725.7737474227717,726.7112165304945,"[64, 0, 190]",190,l,0.41432732127759664,colour,0.5
013,66,0,1,8,10,360,727.2269481088508,728.2951921278107,"[11, 0, 243]",243,a,0.5450703310075369,colour,0.5
013,66,0,1,8,11,361,728.8049912073932,729.6952673523522,"[6, 0, 248]",248,a,0.36716547232936136,colour,0.5
013,66,0,1,8,12,362,730.211358511893,731.7192588610376,"[28, 0, 226]",226,a,0.9849019225584925,colour,0.5
013,66,0,1,8,13,363,732.2268685520064,733.2552006348794,"[18, 0, 236]",236,a,0.5054041546791268,colour,0.5
013,66,0,1,8,14,364,733.7737564812244,734.7672410907164,"[88, 0, 166]",166,l,0.4703526691910156,colour,0.5
013,66,0,1,8,15,365,735.2738126042461,736.3272011547558,"[76, 0, 178]",178,l,0.5303460131976863,colour,0.5
013,66,0,1,8,16,366,736.8362578350691,738.0232172079093,"[67, 0, 187]",187,l,0.6638935986279648,colour,0.5
013,66,0,1,8,17,367,738.5394792965128,739.6471677566349,"[56, 0, 198]",198,a,0.5846908212274684,colour,0.5
013,66,0,1,8,18,368,740.1644172165736,741.1271739793981,"[20, 0, 234]",234,a,0.43964530250332245,colour,0.5
013,66,0,1,8,19,369,741.633101161254,742.6712285821748,"[44, 0, 210]",210,a,0.5150766128476789,colour,0.5
013,66,0,1,8,20,370,743.1798583336779,744.4471764212415,"[51, 0, 203]",203,a,0.7441140734877081,colour,0.5
013,66,0,1,8,21,371,744.9644656596031,746.1031749876431,"[78, 0, 176]",176,l,0.615688058399428,colour,0.5
013,66,0,1,8,22,372,746.6207848164579,747.6711116099825,"[36, 0, 218]",218,a,0.5274335237577361,colour,0.5
013,66,0,1,8,23,373,748.1852028207234,749.2312099138856,"[89, 0, 165]",165,l,0.522953134322961,colour,0.5
013,66,0,1,8,24,374,749.7478059836988,750.7272180901239,"[15, 0, 239]",239,a,0.4564952059126881,colour,0.5
013,66,0,1,8,25,375,751.247702599185,752.511165330545,"[34, 0, 220]",220,a,0.7403831725459895,colour,0.5
013,66,0,1,8,26,376,753.0289484514967,754.1031994060806,"[41, 0, 213]",213,a,0.5512257464856702,colour,0.5
013,66,0,1,8,27,377,754.6226989068812,756.1191505534518,"[53, 0, 201]",201,a,0.9734386476911823,colour,0.5
013,66,0,1,8,28,378,756.6383389160972,757.7431845974795,"[8, 0, 246]",246,a,0.5818661593930301,colour,0.5
013,66,0,1,8,29,379,758.2632815623072,759.423136863373,"[58, 0, 196]",196,a,0.6367540807345904,colour,0.5
013,66,0,1,8,30,380,759.9352651468159,763.2471547597245,"[2, 0, 252]",252,a,2.7889341155109832,colour,0.5
013,66,0,1,8,31,381,763.7632849099962,764.9432436743448,"[65, 0, 189]",189,l,0.6568839316837511,colour,0.5
013,66,0,1,8,32,382,765.4508159499658,766.7911601317808,"[38, 0, 216]",216,a,0.8180976067960728,colour,0.5
013,66,0,1,8,33,383,767.3101306977176,768.4631815254827,"[29, 0, 225]",225,a,0.6301335334069336,colour,0.5
013,66,0,1,8,34,384,768.9819500485416,771.151251740306,"[61, 0, 193]",193,l,1.6461862929859308,colour,0.5
013,66,0,1,8,35,385,771.6694905408092,773.0392002567876,"[92, 0, 162]",162,l,0.8466069202640938,colour,0.5
013,66,0,1,8,36,386,773.5601762853646,774.5991260562453,"[25, 0, 229]",229,a,0.5160947041531472,colour,0.5
013,66,0,1,8,37,387,775.1070366453794,776.2871687018644,"[90, 0, 164]",164,l,0.6571352052819748,colour,0.5
013,66,0,1,8,38,388,776.7953762507066,777.9911534364026,"[13, 0, 241]",241,a,0.6726787222855819,colour,0.5
013,66,0,1,8,39,389,778.4984768014999,779.567186346155,"[31, 0, 223]",223,a,0.545639438139915,colour,0.5
013,66,0,1,8,40,390,780.0765734630661,781.6871734280137,"[60, 0, 194]",194,a,1.0878181535326803,colour,0.5
013,66,0,1,8,41,391,782.2016336722374,783.223197121775,"[10, 0, 244]",244,a,0.49857526294135823,colour,0.5
013,66,0,1,8,42,392,783.729746186096,784.5831737273368,"[50, 0, 204]",204,a,0.3303385301283015,colour,0.5
013,66,0,1,8,43,393,785.0890890938201,785.9912176332625,"[97, 0, 157]",157,l,0.3790304698777618,colour,0.5
013,66,0,1,8,44,394,786.510981404572,788.2391557522158,"[35, 0, 219]",219,a,1.2050589488649166,colour,0.5
013,66,0,1,8,45,395,788.7475334424287,789.6551919702727,"[82, 0, 172]",172,l,0.3845135906331052,colour,0.5
013,66,0,1,8,46,396,790.1693560424803,791.3672040692143,"[99, 0, 155]",155,l,0.6747901294374969,colour,0.5
013,66,0,1,8,47,397,791.8881162947775,792.7991839515728,"[96, 0, 158]",158,l,0.3880436302342787,colour,0.5
013,66,0,1,8,48,398,793.3100227839775,794.4071557837235,"[69, 0, 185]",185,a,0.5743389791123263,colour,0.5
013,66,0,1,8,49,399,794.9193025779175,796.1671174231458,"[52, 0, 202]",202,a,0.7246907818430373,colour,0.5
013,66,0,1,8,50,400,796.6866366162346,797.8391829275736,"[39, 0, 215]",215,a,0.629438395629677,colour,0.5
013,66,0,1,9,1,401,805.5002195690147,811.8791330666998,"[27, 0, 227]",227,a,5.8550627888612325,colour,0.5
013,66,0,1,9,2,402,812.379130900548,813.8471244336004,"[96, 0, 158]",158,l,0.9448745896615947,colour,0.5
013,66,0,1,9,3,403,814.3635637527989,815.3752341905385,"[58, 0, 196]",196,a,0.4885853650853278,colour,0.5
013,66,0,1,9,4,404,815.8947982820448,816.9671130908425,"[40, 0, 214]",214,a,0.5491938961786218,colour,0.5
013,66,0,1,9,5,405,817.4728571344174,818.7111405182616,"[2, 0, 252]",252,a,0.7156189384672871,colour,0.5
013,66,0,1,9,6,406,819.2228702297891,820.3191182580988,"[64, 0, 190]",190,l,0.573076309586213,colour,0.5
013,66,0,1,9,7,407,820.8321732606294,821.7431074037097,"[74, 0, 180]",180,l,0.38774273206900034,colour,0.5
013,66,0,1,9,8,408,822.2541348882362,823.1591322002389,"[50, 0, 204]",204,a,0.3818917593680453,colour,0.5
013,66,0,1,9,9,409,823.6760216851478,824.9831390689089,"[90, 0, 164]",164,l,0.7842698001031749,colour,0.5
013,66,0,1,9,10,410,825.5041198236356,826.4071609037185,"[6, 0, 248]",248,a,0.37995049358733013,colour,0.5
013,66,0,1,9,11,411,826.9259924420996,827.7751093414306,"[78, 0, 176]",176,l,0.32622717417598324,colour,0.5
013,66,0,1,9,12,412,828.2853511036544,829.1990969116584,"[73, 0, 181]",181,l,0.39061583693228386,colour,0.5
013,66,0,1,9,13,413,829.7073686573601,830.5590774556774,"[13, 0, 241]",241,a,0.32863081488630996,colour,0.5
013,66,0,1,9,14,414,831.0667678850284,831.9350816146887,"[4, 0, 250]",250,a,0.34531018307916383,colour,0.5
013,66,0,1,9,15,415,832.441704328168,833.4071097037688,"[62, 0, 192]",192,a,0.44006435439814595,colour,0.5
013,66,0,1,9,16,416,833.9282838367665,834.9351072146635,"[72, 0, 182]",182,a,0.48374263754567437,colour,0.5
013,66,0,1,9,17,417,835.4490739701425,836.4151579419984,"[54, 0, 200]",200,a,0.4429142223616509,colour,0.5
013,66,0,1,9,18,418,836.9335913023099,837.6551132011193,"[14, 0, 240]",240,a,0.19859475830662632,colour,0.5
013,66,0,1,9,19,419,838.1678397362809,840.1190883258207,"[34, 0, 220]",220,a,1.4281792707156455,colour,0.5
013,66,0,1,9,20,420,840.6366575885215,841.2710793146296,"[12, 0, 242]",242,a,0.11132720115483608,colour,0.5
013,66,0,1,9,21,421,841.7787461132345,843.4070880422516,"[75, 0, 179]",179,l,1.1056302221486476,colour,0.5
013,66,0,1,9,22,422,843.9193687440063,844.8470909567102,"[81, 0, 173]",173,l,0.40469385383948975,colour,0.5
013,66,0,1,9,23,423,845.3568475009499,846.3110589921882,"[31, 0, 223]",223,a,0.43114177856841707,colour,0.5
013,66,0,1,9,24,424,846.8256070640175,847.7190946273529,"[82, 0, 172]",172,l,0.3705568782206683,colour,0.5
013,66,0,1,9,25,425,848.2318944178271,850.3111054659882,"[84, 0, 170]",170,l,1.5562827261214807,colour,0.5
013,66,0,1,9,26,426,850.8255680732866,851.7590609141555,"[8, 0, 246]",246,a,0.4105444326946781,colour,0.5
013,66,0,1,9,27,427,852.2787171655707,853.2471327043615,"[45, 0, 209]",209,a,0.44533007229028954,colour,0.5
013,66,0,1,9,28,428,853.7631064978643,855.1510914450789,"[1, 0, 253]",253,a,0.8649451668229631,colour,0.5
013,66,0,1,9,29,429,855.6693369409606,856.95905303724,"[18, 0, 236]",236,a,0.7667373619815407,colour,0.5
013,66,0,1,9,30,430,857.4662401317021,858.7110448137403,"[46, 0, 208]",208,a,0.7217062186277872,colour,0.5
013,66,0,1,9,31,431,859.2318392794198,860.1511249219691,"[21, 0, 233]",233,a,0.3962517698441843,colour,0.5
013,66,0,1,9,32,432,860.6570119315572,861.8552242656253,"[20, 0, 234]",234,a,0.6752123320989085,colour,0.5
013,66,0,1,9,33,433,862.3758895498934,863.6390427184808,"[87, 0, 167]",167,l,0.7405135354943013,colour,0.5
013,66,0,1,9,34,434,864.1569195747254,865.2470562982828,"[32, 0, 222]",222,a,0.566994543266901,colour,0.5
013,66,0,1,9,35,435,865.7663061008677,868.4950531002553,"[33, 0, 221]",221,a,2.2057087943790066,colour,0.5
013,66,0,1,9,36,436,869.0023603176758,870.1431235513858,"[77, 0, 177]",177,l,0.6181610159642332,colour,0.5
013,66,0,1,9,37,437,870.6585562008061,871.7191135319497,"[53, 0, 201]",201,a,0.5376108921986997,colour,0.5
013,66,0,1,9,38,438,872.2243077668352,873.2390639861521,"[37, 0, 217]",217,a,0.4917144696964897,colour,0.5
013,66,0,1,9,39,439,873.7555387514697,875.4150736590043,"[83, 0, 171]",171,l,1.1364616502532954,colour,0.5
013,66,0,1,9,40,440,875.9274236776134,877.1351040638976,"[93, 0, 161]",161,l,0.6846138243804489,colour,0.5
013,66,0,1,9,41,441,877.6461622683939,879.471023388531,"[66, 0, 188]",188,a,1.3016149645641235,colour,0.5
013,66,0,1,9,42,442,879.9898553207579,881.2790491775515,"[56, 0, 198]",198,a,0.7660642795676722,colour,0.5
013,66,0,1,9,43,443,881.7867183392311,883.0150775974619,"[10, 0, 244]",244,a,0.7052253487008784,colour,0.5
013,66,0,1,9,44,444,883.5211430191823,884.8311665908511,"[94, 0, 160]",160,l,0.7875024861514248,colour,0.5
013,66,0,1,9,45,445,885.3492112253919,886.9430814098889,"[29, 0, 225]",225,a,1.0707567549470696,colour,0.5
013,66,0,1,9,46,446,887.458634182268,890.047086624407,"[49, 0, 205]",205,a,2.065548932382626,colour,0.5
013,66,0,1,9,47,447,890.5679125977474,891.8311197232053,"[98, 0, 156]",156,l,0.7401019666690445,colour,0.5
013,66,0,1,9,48,448,892.3510300051396,893.5990445301716,"[19, 0, 235]",235,a,0.7250007384609489,colour,0.5
013,66,0,1,9,49,449,894.116546051401,895.7910553688068,"[0, 0, 254]",254,a,1.1513533525135244,colour,0.5
013,66,0,1,9,50,450,896.3041540882175,897.207045506909,"[99, 0, 155]",155,l,0.3797669614600636,colour,0.5
013,66,0,1,10,1,451,905.1471474735779,907.0710615915702,"[69, 0, 185]",185,a,1.4001307567946242,colour,0.5
013,66,0,1,10,2,452,907.585503325043,908.7750675937793,"[26, 0, 228]",228,a,0.6664016084660034,colour,0.5
013,66,0,1,10,3,453,909.2761260542759,910.439049413859,"[54, 0, 200]",200,a,0.6400568713288521,colour,0.5
013,66,0,1,10,4,454,910.951029217448,913.3830358813186,"[40, 0, 214]",214,a,1.908936951200758,colour,0.5
013,66,0,1,10,5,455,913.9041253374764,914.783093776646,"[94, 0, 160]",160,l,0.3559050280318843,colour,0.5
013,66,0,1,10,6,456,915.2947226636577,916.2150772036164,"[85, 0, 169]",169,l,0.39728285805995256,colour,0.5
013,66,0,1,10,7,457,916.7321675498658,917.8550427027269,"[47, 0, 207]",207,a,0.5997743263756092,colour,0.5
013,66,0,1,10,8,458,918.3728234606044,919.1909947165589,"[96, 0, 158]",158,l,0.2951937031939451,colour,0.5
013,66,0,1,10,9,459,919.7011714942312,920.5749868553974,"[17, 0, 237]",237,a,0.35077991307798584,colour,0.5
013,66,0,1,10,10,460,921.0918676756994,921.9430617176006,"[0, 0, 254]",254,a,0.328304710591965,colour,0.5
013,66,0,1,10,11,461,922.4511916788267,923.4949975680022,"[9, 0, 245]",245,a,0.520761382634646,colour,0.5
013,66,0,1,10,12,462,924.0136644788533,924.9670134478636,"[71, 0, 183]",183,l,0.4302556255943273,colour,0.5
013,66,0,1,10,13,463,925.4824921772386,927.1510300051398,"[13, 0, 241]",241,a,1.1455311305539908,colour,0.5
013,66,0,1,10,14,464,927.6699131373164,928.8869997420309,"[78, 0, 176]",176,l,0.6939999566770894,colour,0.5
013,66,0,1,10,15,465,929.404747416864,930.5830295797862,"[61, 0, 193]",193,a,0.6551974841131596,colour,0.5
013,66,0,1,10,16,466,931.0922481307095,932.2949924480074,"[50, 0, 204]",204,a,0.6798608936755954,colour,0.5
013,66,0,1,10,17,467,932.810974906117,934.1430302099395,"[51, 0, 203]",203,a,0.8089111543031322,colour,0.5
013,66,0,1,10,18,468,934.6565066274395,935.9670063586398,"[52, 0, 202]",202,a,0.7874725538731582,colour,0.5
013,66,0,1,10,19,469,936.484599252087,937.4950404971908,"[4, 0, 250]",250,l,0.487712209021538,colour,0.5
013,66,0,1,10,20,470,938.0158203905769,939.4470338490744,"[15, 0, 239]",239,l,0.9084859977983797,colour,0.5
013,66,0,1,10,21,471,939.9532729567775,941.1430061853478,"[29, 0, 225]",225,a,0.6666056205731365,colour,0.5
013,66,0,1,10,22,472,941.6564199813708,942.6550104073742,"[19, 0, 235]",235,a,0.47547069492111405,colour,0.5
013,66,0,1,10,23,473,943.1720846059472,944.286982806663,"[80, 0, 174]",174,l,0.5918946541346486,colour,0.5
013,66,0,1,10,24,474,944.7970307967696,945.9669980878787,"[74, 0, 180]",180,l,0.6469393260904326,colour,0.5
013,66,0,1,10,25,475,946.4845819228733,948.0710119670036,"[76, 0, 178]",178,l,1.0634422513799109,colour,0.5
013,66,0,1,10,26,476,948.5783672336077,950.1349981193864,"[81, 0, 173]",173,l,1.033622219202698,colour,0.5
013,66,0,1,10,27,477,950.6407752460057,951.8069883992728,"[55, 0, 199]",199,a,0.6431513175125474,colour,0.5
013,66,0,1,10,28,478,952.3126780921323,953.7590112895889,"[20, 0, 234]",234,a,0.9232709678562969,colour,0.5
013,66,0,1,10,29,479,954.2657167106788,955.6949483372816,"[68, 0, 186]",186,l,0.9060547878843863,colour,0.5
013,66,0,1,10,30,480,956.2032760090822,957.3750053661486,"[25, 0, 229]",229,a,0.6486643705457027,colour,0.5
013,66,0,1,10,31,481,957.8907066183813,959.5669705186749,"[43, 0, 211]",211,a,1.1532146676036064,colour,0.5
013,66,0,1,10,32,482,960.0788002670272,961.4070715007294,"[93, 0, 161]",161,l,0.8053070716973707,colour,0.5
013,66,0,1,10,33,483,961.9225305378161,963.0790271221888,"[95, 0, 159]",159,l,0.633389456354962,colour,0.5
013,66,0,1,10,34,484,963.5944349593253,964.5510607251092,"[44, 0, 210]",210,a,0.43357101925312236,colour,0.5
013,66,0,1,10,35,485,965.0631236301554,966.5429967330494,"[48, 0, 206]",206,a,0.9568163871349498,colour,0.5
013,66,0,1,10,36,486,967.0631445039805,968.1270014749523,"[36, 0, 218]",218,a,0.5406045138661284,colour,0.5
013,66,0,1,10,37,487,968.6413585315852,970.095029863355,"[56, 0, 198]",198,a,0.929908056705699,colour,0.5
013,66,0,1,10,38,488,970.6108839277451,971.7749734646416,"[12, 0, 242]",242,a,0.6409288458548872,colour,0.5
013,66,0,1,10,39,489,972.2827930754036,973.8469968275724,"[2, 0, 252]",252,a,1.0410564518829233,colour,0.5
013,66,0,1,10,40,490,974.3608670908386,976.4310283509874,"[23, 0, 231]",231,a,1.5470769751855187,colour,0.5
013,66,0,1,10,41,491,976.9297316138025,978.7189882889959,"[77, 0, 177]",177,l,1.2661578179368007,colour,0.5
013,66,0,1,10,42,492,979.2265802569057,980.1589711173208,"[11, 0, 243]",243,a,0.4095007414148313,colour,0.5
013,66,0,1,10,43,493,980.6797242291943,981.9030190247197,"[64, 0, 190]",190,l,0.7002735258847679,colour,0.5
013,66,0,1,10,44,494,982.4140882568975,983.5189532367228,"[38, 0, 216]",216,a,0.5816822334204517,colour,0.5
013,66,0,1,10,45,495,984.0390379923317,985.1110085799298,"[70, 0, 184]",184,l,0.5487716935167555,colour,0.5
013,66,0,1,10,46,496,985.6171626169473,986.8949766941766,"[34, 0, 220]",220,a,0.7546738661671952,colour,0.5
013,66,0,1,10,47,497,987.4140220908091,989.1269329457889,"[30, 0, 224]",224,a,1.1897702500723426,colour,0.5
013,66,0,1,10,48,498,989.6327656046617,990.6309810894957,"[31, 0, 223]",223,a,0.4737543150727106,colour,0.5
013,66,0,1,10,49,499,991.1510071620853,992.3509543867524,"[73, 0, 181]",181,l,0.6768716043106906,colour,0.5
013,66,0,1,10,50,500,992.8697685959203,994.6469865875822,"[57, 0, 197]",197,a,1.2541982974044004,colour,0.5
013,66,0,1,11,1,501,1007.2439212859852,1009.6469991906467,"[30, 0, 224]",224,a,1.8791901743356902,colour,0.5
013,66,0,1,11,2,502,1010.1665912452024,1010.8869461790066,"[20, 0, 234]",234,a,0.19725174424411307,colour,0.5
013,66,0,1,11,3,503,1011.4010704727923,1013.0549808689418,"[68, 0, 186]",186,l,1.1308312311816735,colour,0.5
013,66,0,1,11,4,504,1013.5729648512345,1015.0549403028278,"[71, 0, 183]",183,l,0.9588517820534435,colour,0.5
013,66,0,1,11,5,505,1015.5729380697223,1016.8709505270642,"[21, 0, 233]",233,a,0.7749785846367558,colour,0.5
013,66,0,1,11,6,506,1017.3861519890195,1018.5749750400244,"[78, 0, 176]",176,l,0.66581595981188,colour,0.5
013,66,0,1,11,7,507,1019.0791149497943,1020.3589935665293,"[91, 0, 163]",163,l,0.7552961424776186,colour,0.5
013,66,0,1,11,8,508,1020.8775340528894,1021.8789294484388,"[48, 0, 206]",206,a,0.47835364592901897,colour,0.5
013,66,0,1,11,9,509,1022.3954636844667,1023.4869402713205,"[6, 0, 248]",248,l,0.5684332618507142,colour,0.5
013,66,0,1,11,10,510,1024.0047245738094,1025.2069277470248,"[99, 0, 155]",155,l,0.6792642173395507,colour,0.5
013,66,0,1,11,11,511,1025.7235588691112,1026.8549391212907,"[19, 0, 235]",235,a,0.6083215671910693,colour,0.5
013,66,0,1,11,12,512,1027.3641686998956,1028.5989756071624,"[57, 0, 197]",197,a,0.7116249485538901,colour,0.5
013,66,0,1,11,13,513,1029.1141837644961,1030.254925336689,"[0, 0, 254]",254,a,0.6175659150121646,colour,0.5
013,66,0,1,11,14,514,1030.7703883122329,1031.9909175227888,"[37, 0, 217]",217,a,0.6966438433046278,colour,0.5
013,66,0,1,11,15,515,1032.5056341606062,1033.5109412323038,"[87, 0, 167]",167,l,0.482264928231416,colour,0.5
013,66,0,1,11,16,516,1034.0211510930205,1034.886902462127,"[66, 0, 188]",188,a,0.34261233958204684,colour,0.5
013,66,0,1,11,17,517,1035.3962056898897,1036.582950416787,"[31, 0, 223]",223,a,0.6636706819240317,colour,0.5
013,66,0,1,11,18,518,1037.0992814283998,1037.9909506058332,"[75, 0, 179]",179,l,0.36867114469305307,colour,0.5
013,66,0,1,11,19,519,1038.5056018652533,1041.3109388692294,"[36, 0, 218]",218,a,2.282644201703988,colour,0.5
013,66,0,1,11,20,520,1041.8179877238274,1042.9349524332777,"[13, 0, 241]",241,a,0.5938879075565637,colour,0.5
013,66,0,1,11,21,521,1043.443113508319,1044.558871474342,"[65, 0, 189]",189,l,0.5929533115536287,colour,0.5
013,66,0,1,11,22,522,1045.0612205674136,1046.0469235722596,"[60, 0, 194]",194,l,0.462618719882812,colour,0.5
013,66,0,1,11,23,523,1046.5612562104554,1047.6149070622453,"[17, 0, 237]",237,a,0.5306508498206313,colour,0.5
013,66,0,1,11,24,524,1048.1237750904368,1048.7828996106834,"[2, 0, 252]",252,a,0.13606662294978378,colour,0.5
013,66,0,1,11,25,525,1049.2956387489096,1050.9508890083555,"[61, 0, 193]",193,l,1.1322931866652652,colour,0.5
013,66,0,1,11,26,526,1051.46749886277,1052.5269018319734,"[8, 0, 246]",246,a,0.5364506225714649,colour,0.5
013,66,0,1,11,27,527,1053.0455986751028,1053.9668771772288,"[69, 0, 185]",185,l,0.3981938233168876,colour,0.5
013,66,0,1,11,28,528,1054.48307900743,1055.5509591129019,"[7, 0, 247]",247,a,0.5449395742134584,colour,0.5
013,66,0,1,11,29,529,1056.061177638225,1057.582856681495,"[10, 0, 244]",244,a,0.9986810105297081,colour,0.5
013,66,0,1,11,30,530,1058.0923879459563,1059.095830157952,"[53, 0, 201]",201,l,0.4804914407468459,colour,0.5
013,66,0,1,11,31,531,1059.6081033766366,1061.61484522846,"[27, 0, 227]",227,a,1.4837753267443077,colour,0.5
013,66,0,1,11,32,532,1062.1236821428358,1063.3028894494626,"[90, 0, 164]",164,l,0.6561600431655279,colour,0.5
013,66,0,1,11,33,533,1063.8111820689899,1065.1829618383142,"[70, 0, 184]",184,l,0.8487084812713874,colour,0.5
013,66,0,1,11,34,534,1065.7017921951585,1067.1909332766193,"[81, 0, 173]",173,l,0.9660512826571903,colour,0.5
013,66,0,1,11,35,535,1067.701818582825,1069.1429041792942,"[89, 0, 165]",165,l,0.9180670837490652,colour,0.5
013,66,0,1,11,36,536,1069.6548835890378,1070.750929968315,"[18, 0, 236]",236,a,0.5730002973532464,colour,0.5
013,66,0,1,11,37,537,1071.265891972045,1072.4789058176927,"[34, 0, 220]",220,a,0.6899205022323258,colour,0.5
013,66,0,1,11,38,538,1073.0004032980644,1074.2309610033615,"[63, 0, 191]",191,l,0.7080819120424167,colour,0.5
013,66,0,1,11,39,539,1074.7503080858503,1075.9669023833578,"[93, 0, 161]",161,l,0.6935939016925659,colour,0.5
013,66,0,1,11,40,540,1076.4846985012198,1078.2788680084993,"[25, 0, 229]",229,a,1.2710966438435207,colour,0.5
013,66,0,1,11,41,541,1078.7972261442694,1079.9828519553455,"[67, 0, 187]",187,l,0.6626494398524301,colour,0.5
013,66,0,1,11,42,542,1080.5019658811414,1082.0388650940406,"[32, 0, 222]",222,a,1.0138070510211037,colour,0.5
013,66,0,1,11,43,543,1082.5488244688497,1083.6309444618394,"[92, 0, 162]",162,l,0.559060126463919,colour,0.5
013,66,0,1,11,44,544,1084.1425351458113,1085.2308684496063,"[54, 0, 200]",200,a,0.5653526002679428,colour,0.5
013,66,0,1,11,45,545,1085.7519634196053,1086.8709107486418,"[23, 0, 231]",231,a,0.5958551671583336,colour,0.5
013,66,0,1,11,46,546,1087.3771262255989,1088.638847370981,"[50, 0, 204]",204,a,0.7388302386902978,colour,0.5
013,66,0,1,11,47,547,1089.1583559302342,1090.2948593281383,"[49, 0, 205]",205,a,0.6134970944026463,colour,0.5
013,66,0,1,11,48,548,1090.8160267657584,1092.086859926784,"[59, 0, 195]",195,a,0.7476901930435815,colour,0.5
013,66,0,1,11,49,549,1092.598582155242,1093.9588718681878,"[16, 0, 238]",238,a,0.8378808734714767,colour,0.5
013,66,0,1,11,50,550,1094.47282247599,1095.5108679769917,"[5, 0, 249]",249,a,0.5150281698188337,colour,0.5
013,66,0,1,12,1,551,1104.2074011496359,1105.5749183262344,"[49, 0, 205]",205,a,0.8440926088937886,colour,0.5
013,66,0,1,12,2,552,1106.0832152780647,1107.1748600370609,"[10, 0, 244]",244,a,0.5686392431862259,colour,0.5
013,66,0,1,12,3,553,1107.692476167408,1109.0788467408277,"[38, 0, 216]",216,a,0.8634792728817047,colour,0.5
013,66,0,1,12,4,554,1109.6000968860583,1110.5108439524,"[73, 0, 181]",181,l,0.38773918745710034,colour,0.5
013,66,0,1,12,5,555,1111.0220364583026,1112.190858445924,"[95, 0, 159]",159,l,0.6458452225524525,colour,0.5
013,66,0,1,12,6,556,1112.7093851476823,1113.6388572171252,"[69, 0, 185]",185,a,0.4070636238143379,colour,0.5
013,66,0,1,12,7,557,1114.1474613686535,1115.4228615651825,"[14, 0, 240]",240,a,0.75220799782619,colour,0.5
013,66,0,1,12,8,558,1115.9308107512018,1116.638877697105,"[50, 0, 204]",204,a,0.1849858117061558,colour,0.5
013,66,0,1,12,9,559,1117.1495270896964,1118.0308200065772,"[40, 0, 214]",214,a,0.3581259243069326,colour,0.5
013,66,0,1,12,10,560,1118.5401543481555,1119.4390269646503,"[86, 0, 168]",168,l,0.3757993592130333,colour,0.5
013,66,0,1,12,11,561,1119.9463459974438,1120.7828220230674,"[56, 0, 198]",198,a,0.313301943825536,colour,0.5
013,66,0,1,12,12,562,1121.2901386927863,1122.1428458901207,"[47, 0, 207]",207,a,0.3296701738631782,colour,0.5
013,66,0,1,12,13,563,1122.649527680465,1123.542818714763,"[79, 0, 175]",175,l,0.3701693339871781,colour,0.5
013,66,0,1,12,14,564,1124.0557894342994,1125.1588151543972,"[91, 0, 163]",163,l,0.5799859397061482,colour,0.5
013,66,0,1,12,15,565,1125.6651535112335,1126.598828702692,"[46, 0, 208]",208,a,0.4106535279720447,colour,0.5
013,66,0,1,12,16,566,1127.118271489702,1128.254876499814,"[92, 0, 162]",162,l,0.6135601097253129,colour,0.5
013,66,0,1,12,17,567,1128.7744949420355,1129.8948286081688,"[28, 0, 226]",226,a,0.5972927042043921,colour,0.5
013,66,0,1,12,18,568,1130.4151378558643,1131.4868402344957,"[11, 0, 243]",243,a,0.5486594474737103,colour,0.5
013,66,0,1,12,19,569,1131.993225065132,1133.334899657945,"[67, 0, 187]",187,l,0.8190050274411078,colour,0.5
013,66,0,1,12,20,570,1133.8535716887907,1134.9588253943873,"[54, 0, 200]",200,a,0.5822481897862417,colour,0.5
013,66,0,1,12,21,571,1135.4785100026977,1136.4068615809363,"[83, 0, 171]",171,l,0.40520585333570125,colour,0.5
013,66,0,1,12,22,572,1136.9160773749393,1137.8148188407938,"[74, 0, 180]",180,l,0.3755961347978882,colour,0.5
013,66,0,1,12,23,573,1138.322331645704,1139.3348567287564,"[34, 0, 220]",220,a,0.4894463119298962,colour,0.5
013,66,0,1,12,24,574,1139.855241594839,1141.566802346533,"[48, 0, 206]",206,a,1.1885158513073293,colour,0.5
013,66,0,1,12,25,575,1142.074038671716,1143.486821329899,"[19, 0, 235]",235,a,0.889829523860044,colour,0.5
013,66,0,1,12,26,576,1143.995945751684,1145.1507909407594,"[58, 0, 196]",196,a,0.6322059498279486,colour,0.5
013,66,0,1,12,27,577,1145.6677623455878,1146.5507807007696,"[35, 0, 219]",219,a,0.3599529748153145,colour,0.5
013,66,0,1,12,28,578,1147.0584053578775,1148.0068733963092,"[93, 0, 161]",161,l,0.4254896979791738,colour,0.5
013,66,0,1,12,29,579,1148.527134594821,1149.3828184784554,"[80, 0, 174]",174,l,0.3327803738775401,colour,0.5
013,66,0,1,12,30,580,1149.902109241,1150.7588391789889,"[23, 0, 231]",231,a,0.3337303298653751,colour,0.5
013,66,0,1,12,31,581,1151.2771047610047,1152.2867898222378,"[64, 0, 190]",190,l,0.48674374228312445,colour,0.5
013,66,0,1,12,32,582,1152.7926539887715,1153.6228076083123,"[41, 0, 213]",213,a,0.3073647189021358,colour,0.5
013,66,0,1,12,33,583,1154.1364927640686,1155.3348445195377,"[26, 0, 228]",228,a,0.6757089716097653,colour,0.5
013,66,0,1,12,34,584,1155.85516243184,1156.7668377926518,"[32, 0, 222]",222,a,0.3893129951379706,colour,0.5
013,66,0,1,12,35,585,1157.2770027549511,1158.2067993533053,"[18, 0, 236]",236,a,0.4067682394897929,colour,0.5
013,66,0,1,12,36,586,1158.7145803671822,1159.5267895859304,"[39, 0, 215]",215,a,0.2899260160729682,colour,0.5
013,66,0,1,12,37,587,1160.0427039087224,1160.9587730129003,"[45, 0, 209]",209,a,0.3932144312966557,colour,0.5
013,66,0,1,12,38,588,1161.4645261149283,1162.1667637496478,"[70, 0, 184]",184,l,0.17910057442395555,colour,0.5
013,66,0,1,12,39,589,1162.6834756101164,1163.5268061274526,"[99, 0, 155]",155,l,0.3205132598027376,colour,0.5
013,66,0,1,12,40,590,1164.0425826042263,1164.9268852904513,"[88, 0, 166]",166,l,0.36129126272862777,colour,0.5
013,66,0,1,12,41,591,1165.4332976902913,1166.254770161457,"[0, 0, 254]",254,a,0.2984575030573069,colour,0.5
013,66,0,1,12,42,592,1166.7748820924237,1167.6067942333104,"[75, 0, 179]",179,l,0.30884676052028226,colour,0.5
013,66,0,1,12,43,593,1168.1188898275548,1168.9587891605768,"[27, 0, 227]",227,a,0.31706435242904263,colour,0.5
013,66,0,1,12,44,594,1169.47799445859,1170.3508338699482,"[25, 0, 229]",229,a,0.349763397156039,colour,0.5
013,66,0,1,12,45,595,1170.8686150216715,1171.7107903893755,"[85, 0, 169]",169,l,0.3190245228065578,colour,0.5
013,66,0,1,12,46,596,1172.2280063724245,1173.28681660375,"[57, 0, 197]",197,a,0.535785023227163,colour,0.5
013,66,0,1,12,47,597,1173.807843044585,1174.6547965491234,"[61, 0, 193]",193,a,0.3268813519939613,colour,0.5
013,66,0,1,12,48,598,1175.1642273829145,1175.9587698621342,"[81, 0, 173]",173,l,0.27155626185231085,colour,0.5
013,66,0,1,12,49,599,1176.476654201448,1177.342771453271,"[22, 0, 232]",232,a,0.3431928682407488,colour,0.5
013,66,0,1,12,50,600,1177.8516686260493,1178.84673846475,"[8, 0, 246]",246,a,0.47193002148424057,colour,0.5
013,66,0,1,13,1,601,1184.9094603722235,1185.9587950682633,"[79, 0, 175]",175,a,0.5256072609404328,colour,0.5
013,66,0,1,13,2,602,1186.4725743531574,1187.3667743834837,"[69, 0, 185]",185,l,0.37102004084181317,colour,0.5
013,66,0,1,13,3,603,1187.8809128557166,1188.9907485629553,"[64, 0, 190]",190,l,0.5867336992159835,colour,0.5
013,66,0,1,13,4,604,1189.5076557709233,1190.3827601892824,"[35, 0, 219]",219,a,0.35208275487275387,colour,0.5
013,66,0,1,13,5,605,1190.8982649124775,1191.7428179270717,"[43, 0, 211]",211,a,0.32208076595134116,colour,0.5
013,66,0,1,13,6,606,1192.2576243617239,1193.062762079742,"[32, 0, 222]",222,a,0.28204949459768613,colour,0.5
013,66,0,1,13,7,607,1193.5701433401666,1194.3987684442893,"[53, 0, 201]",201,a,0.30553530531915385,colour,0.5
013,66,0,1,13,8,608,1194.9138525402066,1195.7907513198754,"[76, 0, 178]",178,l,0.35379834702916924,colour,0.5
013,66,0,1,13,9,609,1196.3045766847242,1197.1187496184618,"[74, 0, 180]",180,l,0.29115560255468154,colour,0.5
013,66,0,1,13,10,610,1197.6299232197678,1198.406742245669,"[20, 0, 234]",234,a,0.2661204025889674,colour,0.5
013,66,0,1,13,11,611,1198.9142975859224,1199.7187783692027,"[23, 0, 231]",231,a,0.28135041836276287,colour,0.5
013,66,0,1,13,12,612,1200.227458532964,1201.0469747722093,"[83, 0, 171]",171,l,0.2972763596048935,colour,0.5
013,66,0,1,13,13,613,1201.5549223828455,1202.5267592598063,"[6, 0, 248]",248,a,0.4588854558669482,colour,0.5
013,66,0,1,13,14,614,1203.044819254332,1204.3107419463465,"[21, 0, 233]",233,l,0.7428817300860828,colour,0.5
013,66,0,1,13,15,615,1204.8260859804693,1205.7587044837371,"[14, 0, 240]",240,a,0.40977328268490965,colour,0.5
013,66,0,1,13,16,616,1206.2791657558985,1207.1668082542194,"[87, 0, 167]",167,l,0.3645207980102896,colour,0.5
013,66,0,1,13,17,617,1207.685373159017,1208.6387229157187,"[98, 0, 156]",156,l,0.4302552317485606,colour,0.5
013,66,0,1,13,18,618,1209.1564926459148,1210.1187078708106,"[48, 0, 206]",206,a,0.4391254260917776,colour,0.5
013,66,0,1,13,19,619,1210.6252608735892,1211.422746168373,"[55, 0, 199]",199,a,0.27457233272889425,colour,0.5
013,66,0,1,13,20,620,1211.929899392099,1212.854759921467,"[16, 0, 238]",238,a,0.41501930828826517,colour,0.5
013,66,0,1,13,21,621,1213.3706931488557,1214.5187165354175,"[17, 0, 237]",237,a,0.6249457969765899,colour,0.5
013,66,0,1,13,22,622,1215.026941413473,1216.1107730601618,"[33, 0, 221]",221,a,0.5608970231169224,colour,0.5
013,66,0,1,13,23,623,1216.6205843489631,1217.7027263973157,"[37, 0, 217]",217,a,0.5593866246040307,colour,0.5
013,66,0,1,13,24,624,1218.2143769458442,1219.222702451493,"[94, 0, 160]",160,l,0.48518765766129945,colour,0.5
013,66,0,1,13,25,625,1219.73091787725,1220.8387083434257,"[2, 0, 252]",252,a,0.584771559609635,colour,0.5
013,66,0,1,13,26,626,1221.3565422704812,1222.486748468432,"[51, 0, 203]",203,a,0.6071912298425559,colour,0.5
013,66,0,1,13,27,627,1222.9971237443704,1223.9587426867763,"[10, 0, 244]",244,a,0.4388489463640326,colour,0.5
013,66,0,1,13,28,628,1224.465886458204,1225.3907698306264,"[88, 0, 166]",166,l,0.4017211059976944,colour,0.5
013,66,0,1,13,29,629,1225.903978433006,1226.8627258459312,"[34, 0, 220]",220,a,0.436281071969006,colour,0.5
013,66,0,1,13,30,630,1227.3720578244354,1228.4067583933454,"[62, 0, 192]",192,a,0.5116080131856506,colour,0.5
013,66,0,1,13,31,631,1228.9190367320255,1229.8227910667904,"[11, 0, 243]",243,a,0.3807622097110652,colour,0.5
013,66,0,1,13,32,632,1230.3408498797787,1230.9666987650965,"[66, 0, 188]",188,l,0.1027709018871974,colour,0.5
013,66,0,1,13,33,633,1231.4814528182617,1232.9747328248784,"[36, 0, 218]",218,a,0.9701516109275872,colour,0.5
013,66,0,1,13,34,634,1233.4818407563414,1234.3187255938703,"[93, 0, 161]",161,l,0.3138025217945142,colour,0.5
013,66,0,1,13,35,635,1234.8256188793905,1235.8387319741717,"[68, 0, 186]",186,l,0.490201708108998,colour,0.5
013,66,0,1,13,36,636,1236.3568821593774,1237.2627286028517,"[57, 0, 197]",197,a,0.3827857892570137,colour,0.5
013,66,0,1,13,37,637,1237.7808271942624,1238.5826573955371,"[59, 0, 195]",195,a,0.27910155903828127,colour,0.5
013,66,0,1,13,38,638,1239.0956127550887,1239.958805702099,"[13, 0, 241]",241,a,0.3400838497636869,colour,0.5
013,66,0,1,13,39,639,1240.470534625935,1242.7427257671623,"[95, 0, 159]",159,l,1.74906747168734,colour,0.5
013,66,0,1,13,40,640,1243.2518332535794,1244.7027772034191,"[63, 0, 191]",191,a,0.9278462741203839,colour,0.5
013,66,0,1,13,41,641,1245.2104065866768,1246.03068019133,"[39, 0, 215]",215,a,0.2973393749271054,colour,0.5
013,66,0,1,13,42,642,1246.532052940748,1247.8786781748397,"[31, 0, 223]",223,a,0.8237221181811947,colour,0.5
013,66,0,1,13,43,643,1248.3799272566869,1249.0467317693717,"[56, 0, 198]",198,a,0.1437158954181541,colour,0.5
013,66,0,1,13,44,644,1249.5673726352022,1250.390728870667,"[52, 0, 202]",202,a,0.30032354429704355,colour,0.5
013,66,0,1,13,45,645,1250.897991583516,1251.4706787734856,"[25, 0, 229]",229,a,0.0496883695377619,colour,0.5
013,66,0,1,13,46,646,1251.9917611404196,1252.7827148970193,"[27, 0, 227]",227,a,0.2679435146405922,colour,0.5
013,66,0,1,13,47,647,1253.2761693773102,1254.1026531420032,"[41, 0, 213]",213,a,0.3034014489585388,colour,0.5
013,66,0,1,13,48,648,1254.6199569526577,1255.9509279990864,"[73, 0, 181]",181,l,0.8079099983656306,colour,0.5
013,66,0,1,13,49,649,1256.4636828911428,1257.3827113524073,"[77, 0, 177]",177,l,0.3959032163415941,colour,0.5
013,66,0,1,13,50,650,1257.9011774019175,1258.958684003757,"[9, 0, 245]",245,a,0.5343908092149832,colour,0.5
013,66,0,1,14,1,651,1267.1254591749323,1268.3906406492154,"[65, 0, 189]",189,l,0.741495786835003,colour,0.5
013,66,0,1,14,2,652,1268.907468300339,1269.8867272007608,"[24, 0, 230]",230,a,0.4561360185734884,colour,0.5
013,66,0,1,14,3,653,1270.407432657297,1271.2306415944452,"[90, 0, 164]",164,l,0.30003879380819853,colour,0.5
013,66,0,1,14,4,654,1271.7511761219187,1272.6946525591113,"[78, 0, 176]",176,l,0.4204055429854634,colour,0.5
013,66,0,1,14,5,655,1273.2043200942078,1273.8947340851848,"[76, 0, 178]",178,l,0.1673458536902217,colour,0.5
013,66,0,1,14,6,656,1274.4074188726952,1275.198679828992,"[16, 0, 238]",238,a,0.26818021594544916,colour,0.5
013,66,0,1,14,7,657,1275.7059886217955,1276.6307065789968,"[59, 0, 195]",195,a,0.4016277645514492,colour,0.5
013,66,0,1,14,8,658,1277.1450868725299,1277.9186610031645,"[8, 0, 246]",246,a,0.25051347641738175,colour,0.5
013,66,0,1,14,9,659,1278.4263368602221,1279.3186850277564,"[1, 0, 253]",253,a,0.3694513531559096,colour,0.5
013,66,0,1,14,10,660,1279.833179142716,1280.638693771132,"[70, 0, 184]",184,l,0.28256937100832147,colour,0.5
013,66,0,1,14,11,661,1281.145630379687,1282.2706689273411,"[98, 0, 156]",156,l,0.6019188165719243,colour,0.5
013,66,0,1,14,12,662,1282.7862614781427,1283.6547036015224,"[14, 0, 240]",240,a,0.34541061374966375,colour,0.5
013,66,0,1,14,13,663,1284.1612707827487,1285.4786533625568,"[58, 0, 196]",196,a,0.7943538270978934,colour,0.5
013,66,0,1,14,14,664,1285.989344502799,1286.8466459109948,"[3, 0, 251]",251,a,0.3342250001478533,colour,0.5
013,66,0,1,14,15,665,1287.364361290475,1288.2387103126546,"[75, 0, 179]",179,l,0.351307666404864,colour,0.5
013,66,0,1,14,16,666,1288.754995244312,1290.0866590654434,"[36, 0, 218]",218,a,0.8086665760820324,colour,0.5
013,66,0,1,14,17,667,1290.598854696512,1291.6066662334363,"[83, 0, 171]",171,l,0.4848450118447545,colour,0.5
013,66,0,1,14,18,668,1292.1143062505291,1292.9426796872078,"[47, 0, 207]",207,a,0.30524189022344217,colour,0.5
013,66,0,1,14,19,669,1293.4581194258515,1294.3506381286022,"[43, 0, 211]",211,a,0.36964276219759995,colour,0.5
013,66,0,1,14,20,670,1294.8644083550441,1295.6946872175388,"[87, 0, 167]",167,l,0.30721938981469066,colour,0.5
013,66,0,1,14,21,671,1296.2098477195343,1297.1027019788778,"[66, 0, 188]",188,l,0.37054545669343497,colour,0.5
013,66,0,1,14,22,672,1297.6154096094426,1298.494699820603,"[73, 0, 181]",181,l,0.35640875676654105,colour,0.5
013,66,0,1,14,23,673,1299.0075122141418,1300.1028540033437,"[62, 0, 192]",192,l,0.5726064515874896,colour,0.5
013,66,0,1,14,24,674,1300.6194311685601,1301.6466849017254,"[84, 0, 170]",170,l,0.5042064697040587,colour,0.5
013,66,0,1,14,25,675,1302.1664624576367,1303.1266745829664,"[23, 0, 231]",231,a,0.43715383418702913,colour,0.5
013,66,0,1,14,26,676,1303.6352452576045,1304.7986833736038,"[19, 0, 235]",235,a,0.6403471356579757,colour,0.5
013,66,0,1,14,27,677,1305.3071662206364,1306.2386524173269,"[11, 0, 243]",243,a,0.4083526810068179,colour,0.5
013,66,0,1,14,28,678,1306.7446008668546,1307.638686288063,"[86, 0, 168]",168,l,0.371226809869313,colour,0.5
013,66,0,1,14,29,679,1308.1509161837132,1308.9986038167592,"[40, 0, 214]",214,a,0.3246360372813797,colour,0.5
013,66,0,1,14,30,680,1309.5102551529797,1310.4546583092595,"[49, 0, 205]",205,a,0.42139370201221027,colour,0.5
013,66,0,1,14,31,681,1310.9634499313722,1311.7826566078459,"[99, 0, 155]",155,l,0.2960605577250135,colour,0.5
013,66,0,1,14,32,682,1312.2914557130282,1313.3186361908813,"[44, 0, 210]",210,a,0.5039973376028684,colour,0.5
013,66,0,1,14,33,683,1313.8384070514146,1315.406619759636,"[37, 0, 217]",217,a,1.0451331494073202,colour,0.5
013,66,0,1,14,34,684,1315.916543688326,1316.7906567968919,"[55, 0, 199]",199,a,0.3510579681892523,colour,0.5
013,66,0,1,14,35,685,1317.3071272299055,1318.2067107380078,"[9, 0, 245]",245,a,0.3764850446914352,colour,0.5
013,66,0,1,14,36,686,1318.713447666759,1319.5506278886126,"[67, 0, 187]",187,l,0.31409711842752586,colour,0.5
013,66,0,1,14,37,687,1320.0571789221624,1321.0226717315234,"[34, 0, 220]",220,a,0.4424420012878727,colour,0.5
013,66,0,1,14,38,688,1321.5415627406153,1322.3826786632087,"[80, 0, 174]",174,l,0.31808716988325614,colour,0.5
013,66,0,1,14,39,689,1322.9009119498712,1324.1906843660952,"[35, 0, 219]",219,a,0.7672741737605975,colour,0.5
013,66,0,1,14,40,690,1324.6978395590502,1326.03865674963,"[32, 0, 222]",222,a,0.8177529917506945,colour,0.5
013,66,0,1,14,41,691,1326.5571294945187,1328.270653961202,"[72, 0, 182]",182,l,1.1904000094523326,colour,0.5
013,66,0,1,14,42,692,1328.7915043529804,1330.254595293937,"[13, 0, 241]",241,a,0.9400862128381959,colour,0.5
013,66,0,1,14,43,693,1330.7602428452994,1332.8386378450334,"[6, 0, 248]",248,a,1.5554930653606789,colour,0.5
013,66,0,1,14,44,694,1333.3539732145493,1334.510627731074,"[81, 0, 173]",173,l,0.6335367546712405,colour,0.5
013,66,0,1,14,45,695,1335.0133206514995,1336.0626242337237,"[21, 0, 233]",233,a,0.5262464726188227,colour,0.5
013,66,0,1,14,46,696,1336.5633207499611,1337.4385779804768,"[46, 0, 208]",208,a,0.35228676697897754,colour,0.5
013,66,0,1,14,47,697,1337.9540118114344,1339.1426127334273,"[0, 0, 254]",254,l,0.6655233324077017,colour,0.5
013,66,0,1,14,48,698,1339.6570635253527,1340.382657789383,"[63, 0, 191]",191,l,0.20253557904197805,colour,0.5
013,66,0,1,14,49,699,1340.891508094515,1341.8385787681684,"[61, 0, 193]",193,l,0.42409233320131534,colour,0.5
013,66,0,1,14,50,700,1342.3476681376803,1343.1826310078711,"[92, 0, 162]",162,l,0.31193451132639893,colour,0.5
013,66,0,1,15,1,701,1348.6156313446093,1349.6466077079556,"[99, 0, 155]",155,l,0.5071382575870302,colour,0.5
013,66,0,1,15,2,702,1350.163283728459,1351.0386134265962,"[60, 0, 194]",194,a,0.35223674856706566,colour,0.5
013,66,0,1,15,3,703,1351.5538822361775,1352.3666211774805,"[53, 0, 201]",201,a,0.2896452040413351,colour,0.5
013,66,0,1,15,4,704,1352.8820317715379,1353.7185940493844,"[25, 0, 229]",229,a,0.3134972913258025,colour,0.5
013,66,0,1,15,5,705,1354.2258563683874,1355.046616372562,"[23, 0, 231]",231,a,0.2971912889192936,colour,0.5
013,66,0,1,15,6,706,1355.5551303334103,1356.5026330558687,"[65, 0, 189]",189,l,0.424403471356527,colour,0.5
013,66,0,1,15,7,707,1357.008309751818,1357.8706047304815,"[22, 0, 232]",232,a,0.33922565983948516,colour,0.5
013,66,0,1,15,8,708,1358.3833159056583,1359.414681782467,"[37, 0, 217]",217,a,0.5083709948344222,colour,0.5
013,66,0,1,15,9,709,1359.9301408195536,1360.5110940444613,"[42, 0, 212]",212,a,0.05753062643134399,colour,0.5
013,66,0,1,15,10,710,1361.0240419209433,1361.8866019578074,"[90, 0, 164]",164,l,0.33969079168946337,colour,0.5
013,66,0,1,15,11,711,1362.400521451794,1363.462642350629,"[17, 0, 237]",237,a,0.5390949030452248,colour,0.5
013,66,0,1,15,12,712,1363.9786827040664,1364.9745835573328,"[7, 0, 247]",247,a,0.4728870666954208,colour,0.5
013,66,0,1,15,13,713,1365.494267771798,1366.3745693788853,"[79, 0, 175]",175,l,0.3572232298106428,colour,0.5
013,66,0,1,15,14,714,1366.8849233871522,1367.8387197649529,"[46, 0, 208]",208,a,0.4308200065775054,colour,0.5
013,66,0,1,15,15,715,1368.353648685638,1369.2306002406397,"[16, 0, 238]",238,a,0.3538617561976025,colour,0.5
013,66,0,1,15,16,716,1369.7442302579886,1371.1425701980845,"[91, 0, 163]",163,l,0.8752143013271052,colour,0.5
013,66,0,1,15,17,717,1371.6506580178136,1372.7346637443309,"[40, 0, 214]",214,a,0.5607981678294891,colour,0.5
013,66,0,1,15,18,718,1373.2445640422754,1374.0786368210345,"[4, 0, 250]",250,a,0.3110861675459091,colour,0.5
013,66,0,1,15,19,719,1374.5800261119741,1375.446604951035,"[84, 0, 170]",170,l,0.3435185786893271,colour,0.5
013,66,0,1,15,20,720,1375.9550287212026,1376.9109920384078,"[11, 0, 243]",243,a,0.43292274912209905,colour,0.5
013,66,0,1,15,21,721,1377.4237559889173,1378.8145675671951,"[78, 0, 176]",176,l,0.8677745548066014,colour,0.5
013,66,0,1,15,22,722,1379.3309694710454,1380.3905563662213,"[83, 0, 171]",171,l,0.5364269918254649,colour,0.5
013,66,0,1,15,23,723,1380.9107053186901,1381.7825979248266,"[59, 0, 195]",195,a,0.34874924430869214,colour,0.5
013,66,0,1,15,24,724,1382.3013577832783,1383.1586150807482,"[8, 0, 246]",246,a,0.33414977560642,colour,0.5
013,66,0,1,15,25,725,1383.6639711862438,1384.5426288811038,"[56, 0, 198]",198,a,0.3550897672962492,colour,0.5
013,66,0,1,15,26,726,1385.0570643130443,1385.9025432590345,"[54, 0, 200]",200,a,0.3224320763747528,colour,0.5
013,66,0,1,15,27,727,1386.4164036761565,1387.3025865820684,"[9, 0, 245]",245,a,0.36306908251663117,colour,0.5
013,66,0,1,15,28,728,1387.8227126914828,1388.7026090312772,"[66, 0, 188]",188,l,0.35689161167601924,colour,0.5
013,66,0,1,15,29,729,1389.213271420779,1390.030638837525,"[38, 0, 216]",216,a,0.29420081801799824,colour,0.5
013,66,0,1,15,30,730,1390.5414004761594,1391.3585867238528,"[58, 0, 196]",196,a,0.2941003873470436,colour,0.5
013,66,0,1,15,31,731,1391.8695689161166,1392.7345589813574,"[80, 0, 174]",174,l,0.34196052483912354,colour,0.5
013,66,0,1,15,32,732,1393.2462138621893,1394.4065847073628,"[57, 0, 197]",197,a,0.6372270894994472,colour,0.5
013,66,0,1,15,33,733,1394.91807259759,1395.8065512304727,"[3, 0, 251]",251,a,0.36533054490519135,colour,0.5
013,66,0,1,15,34,734,1396.3243091452957,1397.1665747036802,"[44, 0, 210]",210,a,0.3177106533312326,colour,0.5
013,66,0,1,15,35,735,1397.6852932083268,1398.582644004781,"[45, 0, 209]",209,a,0.3744843081999534,colour,0.5
013,66,0,1,15,36,736,1399.0914643776348,1399.8065598950795,"[73, 0, 181]",181,l,0.19205022321239085,colour,0.5
013,66,0,1,15,37,737,1400.325826633032,1401.2065327197217,"[89, 0, 165]",165,l,0.35761707557730915,colour,0.5
013,66,0,1,15,38,738,1401.716512180665,1402.6946131745347,"[34, 0, 220]",220,a,0.45515691799937485,colour,0.5
013,66,0,1,15,39,739,1403.2024197883868,1404.6147026562928,"[93, 0, 161]",161,l,0.8891981890974421,colour,0.5
013,66,0,1,15,40,740,1405.1243248991261,1405.9985797921674,"[88, 0, 166]",166,l,0.3512245649480974,colour,0.5
013,66,0,1,15,41,741,1406.514980120635,1407.5745650465822,"[55, 0, 199]",199,a,0.5365951639678315,colour,0.5
013,66,0,1,15,42,742,1408.093065360674,1409.1745520496718,"[63, 0, 191]",191,a,0.5586316222702408,colour,0.5
013,66,0,1,15,43,743,1409.6867787945564,1410.598605785988,"[26, 0, 228]",228,a,0.38872931571268055,colour,0.5
013,66,0,1,15,44,744,1411.1086490499454,1412.118525520221,"[74, 0, 180]",180,l,0.4869103390424243,colour,0.5
013,66,0,1,15,45,745,1412.6243136745218,1413.494567488426,"[24, 0, 230]",230,a,0.3472979226608004,colour,0.5
013,66,0,1,15,46,746,1414.0148877638028,1414.910552112687,"[6, 0, 248]",248,a,0.3725950300599834,colour,0.5
013,66,0,1,15,47,747,1415.4211629083932,1416.7505050087336,"[41, 0, 213]",213,a,0.8063035014861271,colour,0.5
013,66,0,1,15,48,748,1417.2649010560974,1419.0545236140076,"[85, 0, 169]",169,a,1.2665193683501457,colour,0.5
013,66,0,1,15,49,749,1419.5617977483837,1420.526570607684,"[32, 0, 222]",222,a,0.441878014150916,colour,0.5
013,66,0,1,15,50,750,1421.0460023670132,1422.0865192501963,"[1, 0, 253]",253,a,0.5172908137442391,colour,0.5
013,66,0,1,16,1,751,1427.342216130741,1433.6945470084459,"[63, 0, 191]",191,a,5.828681424067327,colour,0.5
013,66,0,1,16,2,752,1434.2023406253877,1435.2226677930655,"[84, 0, 170]",170,l,0.49722909811271165,colour,0.5
013,66,0,1,16,3,753,1435.7335755484794,1436.7585823915495,"[8, 0, 246]",246,a,0.5020903364033984,colour,0.5
013,66,0,1,16,4,754,1437.2674795643277,1438.3504998887386,"[24, 0, 230]",230,a,0.5599033502489874,colour,0.5
013,66,0,1,16,5,755,1438.8629534887843,1439.7904846862918,"[13, 0, 241]",241,a,0.40483563831548963,colour,0.5
013,66,0,1,16,6,756,1440.3005307071696,1441.4305214714866,"[81, 0, 173]",173,l,0.6070352669194108,colour,0.5
013,66,0,1,16,7,757,1441.9411039102977,1442.9185164617681,"[60, 0, 194]",194,l,0.454370014158485,colour,0.5
013,66,0,1,16,8,758,1443.425456614935,1444.7025235667459,"[98, 0, 156]",156,l,0.7541571405222385,colour,0.5
013,66,0,1,16,9,759,1445.222323571866,1446.4225457008781,"[37, 0, 217]",217,a,0.677168564018757,colour,0.5
013,66,0,1,16,10,760,1446.9413382485284,1447.51056117114,"[65, 0, 189]",189,a,0.046085074623988476,colour,0.5
013,66,0,1,16,11,761,1448.0194733100568,1448.9105158788768,"[16, 0, 238]",238,a,0.3680090899606512,colour,0.5
013,66,0,1,16,12,762,1449.4132603930973,1450.2784847965688,"[56, 0, 198]",198,a,0.342118456991102,colour,0.5
013,66,0,1,16,13,763,1450.7882578823308,1451.9185152802308,"[61, 0, 193]",193,a,0.6071187622214893,colour,0.5
013,66,0,1,16,14,764,1452.4288799223334,1453.5744811574339,"[7, 0, 247]",247,a,0.6225074978387966,colour,0.5
013,66,0,1,16,15,765,1454.085164814607,1455.1105044573494,"[14, 0, 240]",240,a,0.5023014377338768,colour,0.5
013,66,0,1,16,16,766,1455.6163883161714,1456.5744902158865,"[96, 0, 158]",158,l,0.4349250609966475,colour,0.5
013,66,0,1,16,17,767,1457.085175054597,1458.3184995264003,"[72, 0, 182]",182,l,0.7102965067847435,colour,0.5
013,66,0,1,16,18,768,1458.835244863759,1459.7824935556985,"[33, 0, 221]",221,a,0.42415771159858195,colour,0.5
013,66,0,1,16,19,769,1460.288454214445,1461.7824762264847,"[71, 0, 183]",183,l,0.9709456039918223,colour,0.5
013,66,0,1,16,20,770,1462.2884841467232,1463.1504857102912,"[0, 0, 254]",254,a,0.33887868171950686,colour,0.5
013,66,0,1,16,21,771,1463.663430436007,1465.2705109951892,"[59, 0, 195]",195,l,1.0840234495767618,colour,0.5
013,66,0,1,16,22,772,1465.789543001065,1466.7265008969837,"[44, 0, 210]",210,a,0.4139275678253398,colour,0.5
013,66,0,1,16,23,773,1467.2427476256023,1468.3984801491886,"[99, 0, 155]",155,l,0.632816410765372,colour,0.5
013,66,0,1,16,24,774,1468.9166476636085,1469.7745524435175,"[5, 0, 249]",249,a,0.33488469180565517,colour,0.5
013,66,0,1,16,25,775,1470.2915766236786,1471.134458550687,"[39, 0, 215]",215,a,0.3197972481998477,colour,0.5
013,66,0,1,16,26,776,1471.6539206361397,1472.7264465462679,"[64, 0, 190]",190,l,0.5495912865562786,colour,0.5
013,66,0,1,16,27,777,1473.2475927162166,1474.278471011967,"[80, 0, 174]",174,l,0.5078042507775535,colour,0.5
013,66,0,1,16,28,778,1474.7944373224002,1475.6944796608198,"[27, 0, 227]",227,a,0.37700492110252526,colour,0.5
013,66,0,1,16,29,779,1476.2007199500601,1477.0464942803749,"[26, 0, 228]",228,a,0.32269674072949783,colour,0.5
013,66,0,1,16,30,780,1477.560088457759,1478.5106178849298,"[94, 0, 160]",160,l,0.42776061266613397,colour,0.5
013,66,0,1,16,31,781,1479.0287830362752,1479.9024605514235,"[90, 0, 164]",164,l,0.3505892917273741,colour,0.5
013,66,0,1,16,32,782,1480.4193720916953,1481.3424386535987,"[82, 0, 172]",172,l,0.4006565408917595,colour,0.5
013,66,0,1,16,33,783,1481.856865814778,1483.054430272561,"[42, 0, 212]",212,a,0.6744754466703853,colour,0.5
013,66,0,1,16,34,784,1483.5756615131947,1484.4864605671771,"[51, 0, 203]",203,a,0.3878892426937455,colour,0.5
013,66,0,1,16,35,785,1484.9975530362556,1486.326488293919,"[28, 0, 226]",226,a,0.8060652247972939,colour,0.5
013,66,0,1,16,36,786,1486.8301087211237,1487.7744740682099,"[75, 0, 179]",179,l,0.42005265717853035,colour,0.5
013,66,0,1,16,37,787,1488.2849533194305,1489.254503921719,"[41, 0, 213]",213,a,0.44654351109556956,colour,0.5
013,66,0,1,16,38,788,1489.7693213840528,1491.11045601432,"[62, 0, 192]",192,l,0.8180621606770728,colour,0.5
013,66,0,1,16,39,789,1491.6287117501913,1492.7184688064306,"[17, 0, 237]",237,a,0.5667030974000227,colour,0.5
013,66,0,1,16,40,790,1493.2380384117776,1494.1104591650862,"[22, 0, 232]",232,a,0.3493896375239274,colour,0.5
013,66,0,1,16,41,791,1494.6286794548384,1495.4944387008602,"[25, 0, 229]",229,a,0.34271119486902535,colour,0.5
013,66,0,1,16,42,792,1496.0036285010426,1496.9664502484181,"[95, 0, 159]",159,l,0.43990090840543417,colour,0.5
013,66,0,1,16,43,793,1497.472412088702,1498.3745020312597,"[19, 0, 235]",235,a,0.37908836520546174,colour,0.5
013,66,0,1,16,44,794,1498.8942571379623,1500.0144970688027,"[32, 0, 222]",222,a,0.5971072028482922,colour,0.5
013,66,0,1,16,45,795,1500.5363328626875,1501.6464277204402,"[20, 0, 234]",234,a,0.5871169111464951,colour,0.5
013,66,0,1,16,46,796,1502.161277084281,1503.1424709489518,"[2, 0, 252]",252,a,0.45812178892629163,colour,0.5
013,66,0,1,16,47,797,1503.661250105846,1504.5664683653233,"[43, 0, 211]",211,a,0.3821394883548237,colour,0.5
013,66,0,1,16,48,798,1505.0830849151164,1506.1664589130248,"[89, 0, 165]",165,l,0.5602908944824776,colour,0.5
013,66,0,1,16,49,799,1506.6769078381215,1507.5744307451757,"[66, 0, 188]",188,l,0.37467926185399847,colour,0.5
013,66,0,1,16,50,800,1508.0831183920066,1509.5344778491296,"[54, 0, 200]",200,a,0.9282172768325836,colour,0.5
