id,age,condition,counterbalance,block,trialinblock,trial,tstart,tend,trialstim,trialintensity,response,RT,trialtype,colourfreq
035,70,1,1,Practice,1,NA,6.695277988910675e-06,0.9840693264268339,"[25, 0, 229]",229,a,0.34871866181492805,colour,0.5
035,70,1,1,Practice,2,NA,1.5025060414336622,20.384060819167644,"[71, 0, 183]",183,a,18.35847855731845,colour,0.5
035,70,1,1,Practice,3,NA,20.90331594645977,22.512044202070683,"[87, 0, 167]",167,a,1.0857481337152421,colour,0.5
035,70,1,1,Practice,4,NA,23.030113853048533,23.752151974011213,"[76, 0, 178]",178,a,0.19924980215728283,colour,0.5
035,70,1,1,Practice,5,NA,24.264801123645157,24.984081141650677,"[59, 0, 195]",195,a,0.1963396747596562,colour,0.5
035,70,1,1,Practice,6,NA,25.49887005612254,26.368092336226255,"[46, 0, 208]",208,a,0.3459786754101515,colour,0.5
035,70,1,1,Practice,7,NA,26.889515191316605,27.77608244633302,"[20, 0, 234]",234,a,0.3632661486044526,colour,0.5
035,70,1,1,Practice,8,NA,28.295714483596385,29.20014265086502,"[28, 0, 226]",226,a,0.38109319005161524,colour,0.5
035,70,1,1,Practice,9,NA,29.71764516364783,30.528063884936273,"[14, 0, 240]",240,a,0.2871436085551977,colour,0.5
035,70,1,1,Practice,10,NA,31.04575859475881,31.952097702305764,"[55, 0, 199]",199,a,0.38312740437686443,colour,0.5
035,70,1,1,1,1,1,6.28575924038887,7.383857594802976,"[32, 0, 222]",222,a,0.5727130156010389,colour,0.5
035,70,1,1,1,2,2,7.897096331696957,8.927929741330445,"[77, 0, 177]",177,a,0.5075350604020059,colour,0.5
035,70,1,1,1,3,3,9.443999836221337,15.639948816038668,"[93, 0, 161]",161,l,5.679470072500408,colour,0.5
035,70,1,1,1,4,4,16.14342726301402,17.407904251478612,"[59, 0, 195]",195,a,0.7411270453594625,colour,0.5
035,70,1,1,1,5,5,17.92459425982088,18.911925418302417,"[20, 0, 234]",234,a,0.46398554742336273,colour,0.5
035,70,1,1,1,6,6,19.424647035542876,20.375885759480298,"[6, 0, 248]",248,a,0.4279391933232546,colour,0.5
035,70,1,1,1,7,7,20.893328801728785,21.831846696324646,"[10, 0, 244]",244,a,0.4151447145268321,colour,0.5
035,70,1,1,1,8,8,22.34771081013605,23.29587989905849,"[22, 0, 232]",232,a,0.42481323797255754,colour,0.5
035,70,1,1,1,9,9,23.816485130228102,24.791882757097483,"[56, 0, 198]",198,a,0.4522576038725674,colour,0.5
035,70,1,1,1,10,10,25.30086795752868,26.27192776557058,"[73, 0, 181]",181,l,0.44797964906319976,colour,0.5
035,70,1,1,1,11,11,26.785246453247964,27.67183261225,"[76, 0, 178]",178,l,0.36332680052146316,colour,0.5
035,70,1,1,1,12,12,28.191468588542193,29.095922355540097,"[40, 0, 214]",214,a,0.38094392232596874,colour,0.5
035,70,1,1,1,13,13,29.613576892763376,30.535886452533305,"[60, 0, 194]",194,a,0.3990982500836253,colour,0.5
035,70,1,1,1,14,14,31.051065274514258,31.991882442031056,"[98, 0, 156]",156,l,0.4176901411265135,colour,0.5
035,70,1,1,1,15,15,32.50417988700792,33.43184417579323,"[38, 0, 216]",216,a,0.40424936125054955,colour,0.5
035,70,1,1,1,16,16,33.94167811470106,34.87985257571563,"[64, 0, 190]",190,a,0.4148765057325363,colour,0.5
035,70,1,1,1,17,17,35.394895520526916,36.375867642462254,"[8, 0, 246]",246,a,0.45770646166056395,colour,0.5
035,70,1,1,1,18,18,36.896086116787046,37.815882545895875,"[90, 0, 164]",164,l,0.3965776367112994,colour,0.5
035,70,1,1,1,19,19,38.33355874475092,39.2958901389502,"[88, 0, 166]",166,l,0.4390862141735852,colour,0.5
035,70,1,1,1,20,20,39.80226886784658,40.71182490885258,"[19, 0, 235]",235,a,0.38650935934856534,colour,0.5
035,70,1,1,1,21,21,41.22417158447206,42.15186186740175,"[78, 0, 176]",176,l,0.40435451827943325,colour,0.5
035,70,1,1,1,22,22,42.66167414467782,43.583816319704056,"[52, 0, 202]",202,a,0.3993822131305933,colour,0.5
035,70,1,1,1,23,23,44.099212150555104,45.04787315335125,"[14, 0, 240]",240,a,0.42592703457921743,colour,0.5
035,70,1,1,1,24,24,45.567922273650765,46.53590181283653,"[49, 0, 205]",205,a,0.44478319585323334,colour,0.5
035,70,1,1,1,25,25,47.0537221590057,47.975924592930824,"[30, 0, 224]",224,a,0.3989761583507061,colour,0.5
035,70,1,1,1,26,26,48.493700040504336,49.42382114054635,"[35, 0, 219]",219,a,0.40680739050731063,colour,0.5
035,70,1,1,1,27,27,49.931202206760645,50.81584473652765,"[75, 0, 179]",179,l,0.36125635262578726,colour,0.5
035,70,1,1,1,28,28,51.321855219081044,52.295865720603615,"[0, 0, 254]",254,a,0.4506837953813374,colour,0.5
035,70,1,1,1,29,29,52.806267191655934,53.663869441952556,"[57, 0, 197]",197,a,0.3343677041120827,colour,0.5
035,70,1,1,1,30,30,54.181224656291306,54.79983135545626,"[13, 0, 241]",241,l,0.09538199938833714,colour,0.5
035,70,1,1,1,31,31,55.3062423793599,56.151853596325964,"[99, 0, 155]",155,l,0.3226047079078853,colour,0.5
035,70,1,1,1,32,32,56.667924479115754,57.39989539468661,"[50, 0, 204]",204,a,0.20890690432861447,colour,0.5
035,70,1,1,1,33,33,57.91794495936483,58.70395271666348,"[24, 0, 230]",230,a,0.2627578512765467,colour,0.5
035,70,1,1,1,34,34,59.21490045171231,60.0078721921891,"[55, 0, 199]",199,a,0.2697832742705941,colour,0.5
035,70,1,1,1,35,35,60.52736559603363,68.86386203765869,"[17, 0, 237]",237,a,7.813223298173398,colour,0.5
035,70,1,1,1,36,36,69.37228955235332,76.8478360529989,"[23, 0, 231]",231,a,6.952233579009771,colour,0.5
035,70,1,1,1,37,37,77.35788306267932,78.27184702735394,"[45, 0, 209]",209,a,0.390725479926914,colour,0.5
035,70,1,1,1,38,38,78.77975821029395,79.60783107485622,"[46, 0, 208]",208,a,0.3171928711235523,colour,0.5
035,70,1,1,1,39,39,80.12685304507613,80.68785623367876,"[53, 0, 201]",201,a,0.03760874085128307,colour,0.5
035,70,1,1,1,40,40,81.20503776194528,81.81586994277313,"[83, 0, 171]",171,l,0.08738259458914399,colour,0.5
035,70,1,1,1,41,41,82.33081915229559,82.89594039367512,"[58, 0, 196]",196,a,0.041694498155266047,colour,0.5
035,70,1,1,1,42,42,83.40895069995895,83.98382159741595,"[39, 0, 215]",215,a,0.051592240575701,colour,0.5
035,70,1,1,1,43,43,84.50327561656013,86.79185597551987,"[29, 0, 225]",225,a,1.7651473144069314,colour,0.5
035,70,1,1,1,44,44,87.30882561439648,88.2721136608161,"[5, 0, 249]",249,a,0.4399089585058391,colour,0.5
035,70,1,1,1,45,45,88.79324270691723,89.95182791771367,"[71, 0, 183]",183,l,0.6351923383772373,colour,0.5
035,70,1,1,1,46,46,90.46510052541271,91.51181655935943,"[36, 0, 218]",218,a,0.5234255618415773,colour,0.5
035,70,1,1,1,47,47,92.02756370091811,93.05591706233099,"[69, 0, 185]",185,l,0.5050498922355473,colour,0.5
035,70,1,1,1,48,48,93.5744589343667,94.63985823141411,"[91, 0, 163]",163,l,0.5421367874369025,colour,0.5
035,70,1,1,1,49,49,95.15253455610946,96.20785691123456,"[44, 0, 210]",210,a,0.531964928843081,colour,0.5
035,70,1,1,1,50,50,96.70259158499539,97.7118154563941,"[97, 0, 157]",157,l,0.48591173766180873,colour,0.5
035,70,1,1,2,1,51,104.78134462144226,106.21588742965832,"[33, 0, 221]",221,a,0.9104457390494645,colour,0.5
035,70,1,1,2,2,52,106.73528552241623,107.75983039429411,"[40, 0, 214]",214,a,0.5012540053576231,colour,0.5
035,70,1,1,2,3,53,108.2665273505263,109.7278071762994,"[61, 0, 193]",193,a,0.9381335009820759,colour,0.5
035,70,1,1,2,4,54,110.23535208264366,111.15180751634762,"[26, 0, 228]",228,a,0.39324412448331714,colour,0.5
035,70,1,1,2,5,55,111.67277547949925,112.59179169964045,"[82, 0, 172]",172,l,0.39576552622020245,colour,0.5
035,70,1,1,2,6,56,113.11025755945593,114.02380877360702,"[2, 0, 252]",252,a,0.3903170614503324,colour,0.5
035,70,1,1,2,7,57,114.53207599325106,115.55181791400537,"[0, 0, 254]",254,a,0.49638803908601403,colour,0.5
035,70,1,1,2,8,58,116.06341470731422,117.527849632781,"[55, 0, 199]",199,a,0.9411940779536963,colour,0.5
035,70,1,1,2,9,59,118.0477928086184,118.95985764823854,"[72, 0, 182]",182,l,0.38869756693020463,colour,0.5
035,70,1,1,2,10,60,119.47035915590823,120.33579224487767,"[8, 0, 246]",246,a,0.34213552717119455,colour,0.5
035,70,1,1,2,11,61,120.84526778385043,121.887803143356,"[62, 0, 192]",192,l,0.5254668649286032,colour,0.5
035,70,1,1,2,12,62,122.4086663434282,123.31179639417678,"[32, 0, 222]",222,a,0.3783795917406678,colour,0.5
035,70,1,1,2,13,63,123.81823853217065,124.78381482325494,"[80, 0, 174]",174,l,0.4422302865423262,colour,0.5
035,70,1,1,2,14,64,125.30426684813574,126.3198095834814,"[16, 0, 238]",238,a,0.4922089399769902,colour,0.5
035,70,1,1,2,15,65,126.83130043186247,127.7917831139639,"[59, 0, 195]",195,l,0.43718196963891387,colour,0.5
035,70,1,1,2,16,66,128.300024733413,129.24785472126678,"[96, 0, 158]",158,l,0.42465727496892214,colour,0.5
035,70,1,1,2,17,67,129.76882544113323,130.7037908458151,"[92, 0, 162]",162,l,0.4117206181399524,colour,0.5
035,70,1,1,2,18,68,131.22259108070284,132.08778943726793,"[57, 0, 197]",197,a,0.34194333013147116,colour,0.5
035,70,1,1,2,19,69,132.59752373304218,133.43979356158525,"[53, 0, 201]",201,a,0.3188871960155666,colour,0.5
035,70,1,1,2,20,70,133.95685536088422,134.79981166310608,"[56, 0, 198]",198,a,0.31935429759323597,colour,0.5
035,70,1,1,2,21,71,135.31644850224257,136.0558973699808,"[44, 0, 210]",210,a,0.21619147807359695,colour,0.5
035,70,1,1,2,22,72,136.56632837932557,137.50377895170823,"[99, 0, 155]",155,l,0.4141541924327612,colour,0.5
035,70,1,1,2,23,73,138.02143112570047,138.91976373968646,"[10, 0, 244]",244,a,0.37497124914079905,colour,0.5
035,70,1,1,2,24,74,139.4276615320705,140.3838201793842,"[95, 0, 159]",159,l,0.43283784901723266,colour,0.5
035,70,1,1,2,25,75,140.8963822890073,141.91984132723883,"[41, 0, 213]",213,a,0.5000760122202337,colour,0.5
035,70,1,1,2,26,76,142.43005769047886,143.41578471427783,"[63, 0, 191]",191,a,0.4624014990404248,colour,0.5
035,70,1,1,2,27,77,143.93009668122977,144.8717677067034,"[30, 0, 224]",224,a,0.4183695251122117,colour,0.5
035,70,1,1,2,28,78,145.38318490609527,146.30379620194435,"[24, 0, 230]",230,a,0.39743110025301576,colour,0.5
035,70,1,1,2,29,79,146.82069691829383,147.81581953028217,"[98, 0, 156]",156,l,0.47187231201678514,colour,0.5
035,70,1,1,2,30,80,148.3363184230402,149.4798445412889,"[83, 0, 171]",171,l,0.6201777504757047,colour,0.5
035,70,1,1,2,31,81,149.99407025566325,151.01578258769587,"[28, 0, 226]",226,a,0.4982848009094596,colour,0.5
035,70,1,1,2,32,82,151.52535540657118,152.53580098832026,"[15, 0, 239]",239,a,0.4870645245537162,colour,0.5
035,70,1,1,2,33,83,153.05662283441052,154.03180423984304,"[14, 0, 240]",240,a,0.45186927169561386,colour,0.5
035,70,1,1,2,34,84,154.54091389570385,155.59979425510392,"[81, 0, 173]",173,l,0.5354532222263515,colour,0.5
035,70,1,1,2,35,85,156.1191915604286,157.07181780366227,"[43, 0, 211]",211,a,0.4294393523596227,colour,0.5
035,70,1,1,2,36,86,157.58785875421017,158.59176097949967,"[7, 0, 247]",247,a,0.481170620303601,colour,0.5
035,70,1,1,2,37,87,159.10341488057747,159.96782987751067,"[52, 0, 202]",202,l,0.34178854897618294,colour,0.5
035,70,1,1,2,38,88,160.46969119319692,161.11186523875222,"[88, 0, 166]",166,l,0.11899384995922446,colour,0.5
035,70,1,1,2,39,89,161.6258621290326,162.55977950943634,"[5, 0, 249]",249,a,0.410571769811213,colour,0.5
035,70,1,1,2,40,90,163.07346407976002,164.19179823761806,"[34, 0, 220]",220,a,0.5950279315002263,colour,0.5
035,70,1,1,2,41,91,164.69844517530873,165.87177085736766,"[39, 0, 215]",215,a,0.6624933439306915,colour,0.5
035,70,1,1,2,42,92,166.38919972069561,167.3918030424975,"[73, 0, 181]",181,l,0.47611718345433474,colour,0.5
035,70,1,1,2,43,93,167.90795978391543,168.91982911806554,"[25, 0, 229]",229,a,0.48862297274172306,colour,0.5
035,70,1,1,2,44,94,169.4392634453252,170.51176260225475,"[17, 0, 237]",237,a,0.5617522834800184,colour,0.5
035,70,1,1,2,45,95,171.02060680650175,172.20785336662084,"[46, 0, 208]",208,a,0.6640187092125416,colour,0.5
035,70,1,1,2,46,96,172.72096804203466,173.70379596576095,"[93, 0, 161]",161,l,0.4599423250183463,colour,0.5
035,70,1,1,2,47,97,174.2209353526123,175.1918183239177,"[21, 0, 233]",233,a,0.4475129419006407,colour,0.5
035,70,1,1,2,48,98,175.70532330032438,176.71179182594642,"[97, 0, 157]",157,l,0.483055567368865,colour,0.5
035,70,1,1,2,49,99,177.22220550570637,178.44809740921482,"[66, 0, 188]",188,l,0.7025561388581991,colour,0.5
035,70,1,1,2,50,100,178.95673602586612,179.90378856146708,"[89, 0, 165]",165,l,0.4241586662828922,colour,0.5
035,70,1,1,3,1,101,186.04857774358243,186.79975928133354,"[95, 0, 159]",159,l,0.22714945347979665,colour,0.5
035,70,1,1,3,2,102,187.31507358606905,188.40776364831254,"[84, 0, 170]",170,l,0.5694744205102324,colour,0.5
035,70,1,1,3,3,103,188.92431462928653,189.91985038574785,"[55, 0, 199]",199,a,0.4722098377533257,colour,0.5
035,70,1,1,3,4,104,190.4399239248596,191.40775931626558,"[36, 0, 218]",218,a,0.44446772523224354,colour,0.5
035,70,1,1,3,5,105,191.92553240107372,192.9517893209122,"[83, 0, 171]",171,l,0.502852626144886,colour,0.5
035,70,1,1,3,6,106,193.472550121136,194.65580741595477,"[60, 0, 194]",194,a,0.6600105394609272,colour,0.5
035,70,1,1,3,7,107,195.17559423483908,196.19176594214514,"[51, 0, 203]",203,a,0.4928946257568896,colour,0.5
035,70,1,1,3,8,108,196.70680455490947,197.76776993414387,"[19, 0, 235]",235,a,0.5377028700895607,colour,0.5
035,70,1,1,3,9,109,198.2849447671324,199.27979641314596,"[37, 0, 217]",217,a,0.47172422567382455,colour,0.5
035,70,1,1,3,10,110,199.80056666536257,200.84779194230214,"[44, 0, 210]",210,a,0.5241742627695203,colour,0.5
035,70,1,1,3,11,111,201.3630648930557,202.63175997138023,"[64, 0, 190]",190,l,0.741769801825285,colour,0.5
035,70,1,1,3,12,112,203.14824557397515,204.24775310931727,"[16, 0, 238]",238,a,0.5761174196377397,colour,0.5
035,70,1,1,3,13,113,204.75764454947785,205.87176613137126,"[56, 0, 198]",198,a,0.5906869620084763,colour,0.5
035,70,1,1,3,14,114,206.38274576794356,207.38374219788238,"[1, 0, 253]",253,a,0.4777299822308123,colour,0.5
035,70,1,1,3,15,115,207.89835782023147,208.76781089417636,"[97, 0, 157]",157,l,0.35849076649174094,colour,0.5
035,70,1,1,3,16,116,209.27665391657501,210.45586562622339,"[76, 0, 178]",178,l,0.6558905174024403,colour,0.5
035,70,1,1,3,17,117,210.96419625496492,212.0477246735245,"[80, 0, 174]",174,l,0.5602899338118732,colour,0.5
035,70,1,1,3,18,118,212.55796269793063,213.83177619799972,"[63, 0, 191]",191,l,0.7506136121228337,colour,0.5
035,70,1,1,3,19,119,214.3392958980985,215.3437802279368,"[18, 0, 236]",236,a,0.48121315566822886,colour,0.5
035,70,1,1,3,20,120,215.85493158129975,217.01573926443234,"[75, 0, 179]",179,l,0.635787439532578,colour,0.5
035,70,1,1,3,21,121,217.52858848776668,218.5117555130273,"[2, 0, 252]",252,a,0.45987418992444873,colour,0.5
035,70,1,1,3,22,122,219.0285770664923,220.1757403514348,"[12, 0, 242]",242,a,0.6238854159601033,colour,0.5
035,70,1,1,3,23,123,220.68479211255908,221.83976733172312,"[33, 0, 221]",221,a,0.6316670239903033,colour,0.5
035,70,1,1,3,24,124,222.35803075460717,223.39176365779713,"[7, 0, 247]",247,a,0.5105625535361469,colour,0.5
035,70,1,1,3,25,125,223.90479956381023,224.9039909983985,"[92, 0, 162]",162,l,0.47590923262760043,colour,0.5
035,70,1,1,3,26,126,225.42045375797898,226.4397136112675,"[26, 0, 228]",228,a,0.49604421155527234,colour,0.5
035,70,1,1,3,27,127,226.94007516186684,228.11207988485694,"[22, 0, 232]",232,a,0.6488788784481585,colour,0.5
035,70,1,1,3,28,128,228.62739812768996,229.63973692664877,"[79, 0, 175]",175,l,0.4890022464096546,colour,0.5
035,70,1,1,3,29,129,230.15863326005638,231.2317428784445,"[46, 0, 208]",208,a,0.5589677928946912,colour,0.5
035,70,1,1,3,30,130,231.73328360402957,232.77574925264344,"[69, 0, 185]",185,l,0.5192417362704873,colour,0.5
035,70,1,1,3,31,131,233.2956628901884,234.4157087020576,"[28, 0, 226]",226,a,0.5966619979590178,colour,0.5
035,70,1,1,3,32,132,234.9363336255774,235.7198262824677,"[89, 0, 165]",165,l,0.26050859689712524,colour,0.5
035,70,1,1,3,33,133,236.23320129001513,236.8797608097084,"[42, 0, 212]",212,a,0.12334190867841244,colour,0.5
035,70,1,1,3,34,134,237.3894813209772,238.19171119760722,"[48, 0, 206]",206,a,0.27920328127220273,colour,0.5
035,70,1,1,3,35,135,238.7019551298581,239.54378424491733,"[27, 0, 227]",227,a,0.31848941184580326,colour,0.5
035,70,1,1,3,36,136,240.0602182536386,240.8719102786854,"[35, 0, 219]",219,a,0.28839840181171894,colour,0.5
035,70,1,1,3,37,137,241.38833601679653,242.14371319534257,"[94, 0, 160]",160,l,0.2297539566643536,colour,0.5
035,70,1,1,3,38,138,242.65632099099457,244.65578417899087,"[59, 0, 195]",195,a,1.4762715711258352,colour,0.5
035,70,1,1,3,39,139,245.1718771168962,246.31976783601567,"[61, 0, 193]",193,l,0.6245175390504301,colour,0.5
035,70,1,1,3,40,140,246.83063089381903,247.51991245616227,"[29, 0, 225]",225,a,0.1659666714258492,colour,0.5
035,70,1,1,3,41,141,248.03378882957622,248.56776394788176,"[5, 0, 249]",249,a,0.010807132348418236,colour,0.5
035,70,1,1,3,42,142,249.08062695572153,249.63175878999755,"[70, 0, 184]",184,l,0.02777677122503519,colour,0.5
035,70,1,1,3,43,143,250.14312360761687,250.8638714896515,"[47, 0, 207]",207,a,0.19741802476346493,colour,0.5
035,70,1,1,3,44,144,251.37747768498957,251.9437312334776,"[93, 0, 161]",161,l,0.04125654185190797,colour,0.5
035,70,1,1,3,45,145,252.45720036979765,253.34370303386822,"[49, 0, 205]",205,a,0.3630558345466852,colour,0.5
035,70,1,1,3,46,146,253.86354341590777,254.53572576353326,"[43, 0, 211]",211,a,0.14891905058175325,colour,0.5
035,70,1,1,3,47,147,255.05103022232652,256.94373556552455,"[77, 0, 177]",177,l,1.3696358185261488,colour,0.5
035,70,1,1,3,48,148,257.45723660383373,258.63972865603864,"[57, 0, 197]",197,a,0.6591247799806297,colour,0.5
035,70,1,1,3,49,149,259.1604555854574,259.9677278716117,"[17, 0, 237]",237,a,0.2840034756809473,colour,0.5
035,70,1,1,3,50,150,260.48851466551423,261.92777338437736,"[72, 0, 182]",182,l,0.9158879020251334,colour,0.5
035,70,1,1,4,1,151,267.42893365444615,268.43177800951526,"[91, 0, 163]",163,l,0.4788394463248551,colour,0.5
035,70,1,1,4,2,152,268.9453408815898,269.9117131354287,"[40, 0, 214]",214,a,0.44305854430422187,colour,0.5
035,70,1,1,4,3,153,270.42958783265203,271.351720161736,"[17, 0, 237]",237,a,0.398738669231534,colour,0.5
035,70,1,1,4,4,154,271.8671510447748,272.82374016568065,"[87, 0, 167]",167,l,0.43348808865994215,colour,0.5
035,70,1,1,4,5,155,273.33595805382356,274.3277195850387,"[80, 0, 174]",174,l,0.4684962648898363,colour,0.5
035,70,1,1,4,6,156,274.8358595925383,275.8877192540094,"[47, 0, 207]",207,a,0.5284730908460915,colour,0.5
035,70,1,1,4,7,157,276.39835151843727,277.4237825437449,"[36, 0, 218]",218,a,0.5005687135271728,colour,0.5
035,70,1,1,4,8,158,277.9312805822119,278.9117115600966,"[85, 0, 169]",169,l,0.45547532476484776,colour,0.5
035,70,1,1,4,9,159,279.43297372572124,280.46375199686736,"[38, 0, 216]",216,a,0.5075137922540307,colour,0.5
035,70,1,1,4,10,160,280.98176099546254,282.07169413613155,"[24, 0, 230]",230,a,0.5666726003400981,colour,0.5
035,70,1,1,4,11,161,282.5911375214346,283.53574663726613,"[73, 0, 181]",181,l,0.4212702000513673,colour,0.5
035,70,1,1,4,12,162,284.0319030950777,284.98370265588164,"[33, 0, 221]",221,a,0.4284897898323834,colour,0.5
035,70,1,1,4,13,163,285.5006207013503,286.0717280069366,"[57, 0, 197]",197,a,0.059305318631231785,colour,0.5
035,70,1,1,4,14,164,286.5827478156425,287.55171000026166,"[5, 0, 249]",249,a,0.4520224775187671,colour,0.5
035,70,1,1,4,15,165,288.06108865328133,288.79970059823245,"[27, 0, 227]",227,a,0.22773589007556438,colour,0.5
035,70,1,1,4,16,166,289.30185454152524,290.40805273130536,"[65, 0, 189]",189,l,0.5828061047941446,colour,0.5
035,70,1,1,4,17,167,290.9144003461115,292.9997097356245,"[34, 0, 220]",220,a,1.5620492431335151,colour,0.5
035,70,1,1,4,18,168,293.5143226007931,294.6557235266082,"[84, 0, 170]",170,l,0.6181411733850837,colour,0.5
035,70,1,1,4,19,169,295.1705707302317,296.5277350237593,"[77, 0, 177]",177,l,0.8338860305957496,colour,0.5
035,70,1,1,4,20,170,297.04559908714145,298.3196989125572,"[95, 0, 159]",159,l,0.750719950068742,colour,0.5
035,70,1,1,4,21,171,298.81536660762504,300.071685471572,"[2, 0, 252]",252,a,0.7331898682750762,colour,0.5
035,70,1,1,4,22,172,300.56842088280246,301.7756752097048,"[39, 0, 215]",215,a,0.6870390037074685,colour,0.5
035,70,1,1,4,23,173,302.29669043421745,303.6317060147412,"[82, 0, 172]",172,l,0.8119673235341907,colour,0.5
035,70,1,1,4,24,174,304.1403859849088,305.24768457980826,"[56, 0, 198]",198,a,0.5839092670939863,colour,0.5
035,70,1,1,4,25,175,305.7654895661399,306.79973053047433,"[55, 0, 199]",199,a,0.5109847565181553,colour,0.5
035,70,1,1,4,26,176,307.30182067118585,308.5517190587707,"[32, 0, 222]",222,a,0.7265098476782441,colour,0.5
035,70,1,1,4,27,177,309.07074614893645,310.15177758410573,"[53, 0, 201]",201,a,0.5578851103782654,colour,0.5
035,70,1,1,4,28,178,310.6644259458408,311.74372288398445,"[78, 0, 176]",176,l,0.5563231175765395,colour,0.5
035,70,1,1,4,29,179,312.2528561707586,313.53567023109645,"[70, 0, 184]",184,l,0.7595480065792799,colour,0.5
035,70,1,1,4,30,180,314.0496560940519,315.1517208702862,"[96, 0, 158]",158,l,0.5787833626382053,colour,0.5
035,70,1,1,4,31,181,315.6591346259229,316.70385937485844,"[6, 0, 248]",248,a,0.5214256118051708,colour,0.5
035,70,1,1,4,32,182,317.2194466148503,318.2800366594456,"[48, 0, 206]",206,a,0.5372968148440123,colour,0.5
035,70,1,1,4,33,183,318.7975305072032,319.88769956165925,"[93, 0, 161]",161,l,0.5667919358238578,colour,0.5
035,70,1,1,4,34,184,320.40694681182504,321.56806760281324,"[18, 0, 236]",236,a,0.6377806938253343,colour,0.5
035,70,1,1,4,35,185,322.0788211720064,323.0877386312932,"[98, 0, 156]",156,l,0.485551368445158,colour,0.5
035,70,1,1,4,36,186,323.59442022722214,324.5196572439745,"[22, 0, 232]",232,a,0.4019059780985117,colour,0.5
035,70,1,1,4,37,187,325.03190191369504,325.91167375072837,"[66, 0, 188]",188,l,0.3564285892061889,colour,0.5
035,70,1,1,4,38,188,326.422658901196,327.4957464640029,"[43, 0, 211]",211,a,0.5498498659580946,colour,0.5
035,70,1,1,4,39,189,328.01626662444323,329.07171619171277,"[21, 0, 233]",233,a,0.529186740051955,colour,0.5
035,70,1,1,4,40,190,329.5817714720033,330.6316355159506,"[13, 0, 241]",241,a,0.5265483655966818,colour,0.5
035,70,1,1,4,41,191,331.1442370102741,332.20773048652336,"[30, 0, 224]",224,a,0.5400876072235405,colour,0.5
035,70,1,1,4,42,192,332.7223327178508,333.7997045367956,"[58, 0, 196]",196,l,0.5540061220526695,colour,0.5
035,70,1,1,4,43,193,334.3161149150692,335.23167710611597,"[31, 0, 223]",223,a,0.3922201250679791,colour,0.5
035,70,1,1,4,44,194,335.73798730550334,336.5756786754355,"[60, 0, 194]",194,l,0.3142937715165317,colour,0.5
035,70,1,1,4,45,195,337.08386358153075,338.0556346750818,"[7, 0, 247]",247,a,0.4490950210019946,colour,0.5
035,70,1,1,4,46,196,338.56963904807344,339.6957221245393,"[11, 0, 243]",243,a,0.6026689363643527,colour,0.5
035,70,1,1,4,47,197,340.21269136993214,341.19969484815374,"[75, 0, 179]",179,l,0.46361611969769,colour,0.5
035,70,1,1,4,48,198,341.71272839140147,342.82402846077457,"[71, 0, 183]",183,l,0.5880225938744843,colour,0.5
035,70,1,1,4,49,199,343.3382695354521,344.49567872285843,"[45, 0, 209]",209,a,0.6340218288823962,colour,0.5
035,70,1,1,4,50,200,345.0101281418465,346.00768354022875,"[62, 0, 192]",192,l,0.4742452339269221,colour,0.5
035,70,1,1,5,1,201,352.5261568832211,353.3278397079557,"[82, 0, 172]",172,l,0.277567639015615,colour,0.4
035,70,1,1,5,2,202,353.8395881317556,354.9359204811044,"[66, 0, 188]",188,l,0.5738606825470924,colour,0.4
035,70,1,1,5,3,203,355.4522453942336,356.43975063273683,"[59, 0, 195]",195,l,0.46427344903349876,colour,0.4
035,70,1,1,5,4,204,356.95230565266684,357.8637033174746,"[78, 0, 176]",176,l,0.38849040446802974,colour,0.4
035,70,1,1,5,5,205,358.36962479073554,359.31176212988794,"[75, 0, 179]",179,l,0.4187507680617273,colour,0.4
035,70,1,1,5,6,206,359.8228126587346,360.9436347410083,"[20, 0, 234]",234,a,0.596393789164722,colour,0.4
035,70,1,1,5,7,207,361.4648929685354,362.463703553658,"[87, 0, 167]",167,l,0.4866809183731675,colour,0.4
035,70,1,1,5,8,208,362.9848325997591,364.26369520416483,"[94, 0, 160]",160,l,0.755633965600282,colour,0.4
035,70,1,1,5,9,209,364.78173728613183,366.1677748179063,"[71, 0, 183]",183,l,0.8632984440773726,colour,0.4
035,70,1,1,5,10,210,366.68797950726,368.0556685458869,"[92, 0, 162]",162,l,0.8567625707946718,colour,0.4
035,70,1,1,5,11,211,368.5661798994988,369.6876809722744,"[83, 0, 171]",171,l,0.5989683601073921,colour,0.4
035,70,1,1,5,12,212,370.20681597618386,371.25567965209484,"[47, 0, 207]",207,a,0.5254645016975701,colour,0.4
035,70,1,1,5,13,213,371.7676391773857,372.8557062759064,"[43, 0, 211]",211,a,0.5653354935348034,colour,0.4
035,70,1,1,5,14,214,373.37701452197507,374.50368600385264,"[36, 0, 218]",218,a,0.6033664373680949,colour,0.4
035,70,1,1,5,15,215,375.01760609447956,376.1516566737555,"[33, 0, 221]",221,a,0.6114981742575765,colour,0.4
035,70,1,1,5,16,216,376.6600172347389,377.6320006111637,"[99, 0, 155]",155,l,0.4497669218108058,colour,0.4
035,70,1,1,5,17,217,378.1478710267693,379.19967791298404,"[50, 0, 204]",204,a,0.5410170834511518,colour,0.4
035,70,1,1,5,18,218,379.7156452140771,380.77566536329687,"[16, 0, 238]",238,a,0.536602858453989,colour,0.4
035,70,1,1,5,19,219,381.2771694608964,382.5277102114633,"[29, 0, 225]",225,a,0.7280107946135104,colour,0.4
035,70,1,1,5,20,220,383.04282759316266,384.14369665365666,"[7, 0, 247]",247,a,0.5774525571614504,colour,0.4
035,70,1,1,5,21,221,384.6523053376004,385.6796228848398,"[85, 0, 169]",169,l,0.5040644900873303,colour,0.4
035,70,1,1,5,22,222,386.19905799953267,387.6476559867151,"[57, 0, 197]",197,l,0.9252291396260262,colour,0.4
035,70,1,1,5,23,223,388.1542265182361,389.03962208144367,"[73, 0, 181]",181,l,0.36212714621797204,colour,0.4
035,70,1,1,5,24,224,389.5604714965448,390.5036198380403,"[35, 0, 219]",219,a,0.41982084745541215,colour,0.4
035,70,1,1,5,25,225,391.0135979242623,392.10362795135006,"[42, 0, 212]",212,a,0.5670617204159498,colour,0.4
035,70,1,1,5,26,226,392.62293033953756,393.8555908794515,"[58, 0, 196]",196,a,0.7091640857979655,colour,0.4
035,70,1,1,5,27,227,394.36523340875283,395.3036217284389,"[54, 0, 200]",200,a,0.41503561940044165,colour,0.4
035,70,1,1,5,28,228,395.81835786718875,396.86365960072726,"[61, 0, 193]",193,a,0.5221211439929903,colour,0.4
035,70,1,1,5,29,229,397.3734896010719,398.2076556556858,"[52, 0, 202]",202,a,0.3107432499527931,colour,0.4
035,70,1,1,5,30,230,398.7172910962254,399.82365470100194,"[21, 0, 233]",233,a,0.5831129108555615,colour,0.4
035,70,1,1,5,31,231,400.34224580414593,401.3196874912828,"[84, 0, 170]",170,l,0.45412403950467706,colour,0.4
035,70,1,1,5,32,232,401.8267337884754,403.0477731162682,"[4, 0, 250]",250,a,0.6978563750162721,colour,0.4
035,70,1,1,5,33,233,403.560929145664,404.63967115432024,"[80, 0, 174]",174,l,0.567744255065918,colour,0.4
035,70,1,1,5,34,234,405.1482050078921,406.2956097209826,"[97, 0, 157]",157,l,0.6239976622164249,colour,0.4
035,70,1,1,5,35,235,406.79646751703694,407.9436457687989,"[65, 0, 189]",189,l,0.623972849920392,colour,0.4
035,70,1,1,5,36,236,408.4526825635694,409.67166286474094,"[90, 0, 164]",164,l,0.6956902225501835,colour,0.4
035,70,1,1,5,37,237,410.19013029988855,411.23971865233034,"[88, 0, 166]",166,l,0.5264176088385284,colour,0.4
035,70,1,1,5,38,238,411.7525792969391,412.9036117247306,"[26, 0, 228]",228,a,0.6277663735672832,colour,0.4
035,70,1,1,5,39,239,413.42440363857895,414.65566090494394,"[91, 0, 163]",163,l,0.7079132311046124,colour,0.4
035,70,1,1,5,40,240,415.174412697088,416.30375484842807,"[56, 0, 198]",198,a,0.6060087499208748,colour,0.4
035,70,1,1,5,41,241,416.8173626186326,417.759664978832,"[14, 0, 240]",240,a,0.4192355922423303,colour,0.4
035,70,1,1,5,42,242,418.2723991991952,419.375655753538,"[46, 0, 208]",208,a,0.5798223284073174,colour,0.4
035,70,1,1,5,43,243,419.88177651306614,421.65563845587894,"[64, 0, 190]",190,a,1.2501205168664455,colour,0.4
035,70,1,1,5,44,244,422.1507145939395,423.1997610144317,"[77, 0, 177]",177,l,0.5259142741560936,colour,0.4
035,70,1,1,5,45,245,423.71306906826794,424.7516829036176,"[49, 0, 205]",205,a,0.5152595601975918,colour,0.4
035,70,1,1,5,46,246,425.26002416666597,426.3836275888607,"[55, 0, 199]",199,a,0.6002932577393949,colour,0.4
035,70,1,1,5,47,247,426.9006763910875,428.0075949248858,"[31, 0, 223]",223,a,0.5839817351661623,colour,0.4
035,70,1,1,5,48,248,428.5255988035351,429.69561933074147,"[48, 0, 206]",206,a,0.6467024856247008,colour,0.4
035,70,1,1,5,49,249,430.21311199711636,431.31964574335143,"[17, 0, 237]",237,a,0.583195224404335,colour,0.4
035,70,1,1,5,50,250,431.8380686743185,432.8156600226648,"[40, 0, 214]",214,a,0.45426227897405624,colour,0.4
035,70,1,1,6,1,251,437.6666874093935,438.9035853371024,"[44, 0, 210]",210,a,0.725253873039037,colour,0.28
035,70,1,1,6,2,252,439.4207073948346,440.1755875395611,"[78, 0, 176]",176,l,0.2315959739498794,colour,0.28
035,70,1,1,6,3,253,440.6863218098879,441.65572943445295,"[99, 0, 155]",155,l,0.44611518271267414,colour,0.28
035,70,1,1,6,4,254,442.17248324584216,443.1036429172382,"[10, 0, 244]",244,a,0.4077431680634618,colour,0.28
035,70,1,1,6,5,255,443.60998304886743,444.5597641495988,"[4, 0, 250]",250,a,0.42649535462260246,colour,0.28
035,70,1,1,6,6,256,445.0788310179487,446.0237213401124,"[15, 0, 239]",239,a,0.4217089447192848,colour,0.28
035,70,1,1,6,7,257,446.53187198145315,447.52767909737304,"[75, 0, 179]",179,l,0.4724701698869467,colour,0.28
035,70,1,1,6,8,258,448.047472612001,449.0076087093912,"[6, 0, 248]",248,a,0.43677985249087214,colour,0.28
035,70,1,1,6,9,259,449.51625835336745,450.4636129694991,"[69, 0, 185]",185,l,0.4241748144850135,colour,0.28
035,70,1,1,6,10,260,450.984969264362,451.95960401184857,"[88, 0, 166]",166,l,0.4514797581359744,colour,0.28
035,70,1,1,6,11,261,452.4706376050599,453.3996378192678,"[83, 0, 171]",171,l,0.4057061970233917,colour,0.28
035,70,1,1,6,12,262,453.90484367497265,454.8636213974096,"[11, 0, 243]",243,a,0.43557192711159587,colour,0.28
035,70,1,1,6,13,263,455.37543047359213,456.3036914393306,"[42, 0, 212]",212,a,0.404951982665807,colour,0.28
035,70,1,1,6,14,264,456.815468613524,457.7036167657934,"[1, 0, 253]",253,a,0.3648809166625142,colour,0.28
035,70,1,1,6,15,265,458.2217045337893,459.18358379323035,"[57, 0, 197]",197,a,0.43849071953445673,colour,0.28
035,70,1,1,6,16,266,459.69045128440484,460.43961633136496,"[68, 0, 186]",186,l,0.22586394054815173,colour,0.28
035,70,1,1,6,17,267,460.9561763703823,461.5276393191889,"[52, 0, 202]",202,a,0.048159873113036156,colour,0.28
035,70,1,1,6,18,268,462.0342003982514,463.08757479162887,"[63, 0, 191]",191,a,0.5302394898608327,colour,0.28
035,70,1,1,6,19,269,463.5967419492081,464.57559596793726,"[95, 0, 159]",159,l,0.45555330626666546,colour,0.28
035,70,1,1,6,20,270,465.09671989362687,466.0156207168475,"[74, 0, 180]",180,l,0.39592030737549067,colour,0.28
035,70,1,1,6,21,271,466.53419055230916,467.6396518559195,"[46, 0, 208]",208,a,0.5823204927146435,colour,0.28
035,70,1,1,6,22,272,468.1592445089482,469.191726163961,"[43, 0, 211]",211,a,0.5091974842362106,colour,0.28
035,70,1,1,6,23,273,469.70611729379743,470.70360022457317,"[59, 0, 195]",195,a,0.47417670441791415,colour,0.28
035,70,1,1,6,24,274,471.21607726300135,472.1599022317678,"[37, 0, 217]",217,a,0.4205474932678044,colour,0.28
035,70,1,1,6,25,275,472.6779592796229,473.5996382921003,"[81, 0, 173]",173,l,0.3983566388487816,colour,0.28
035,70,1,1,6,26,276,474.11547877499834,475.0796466730535,"[93, 0, 161]",161,l,0.44094516709446907,colour,0.28
035,70,1,1,6,27,277,475.59982458129525,476.607559714932,"[58, 0, 196]",196,a,0.4844320584088564,colour,0.28
035,70,1,1,6,28,278,477.11548980278894,478.13566574128345,"[92, 0, 162]",162,l,0.4968882231041789,colour,0.28
035,70,1,1,6,29,279,478.6467580180615,479.6396447666921,"[55, 0, 199]",199,a,0.4696364486590028,colour,0.28
035,70,1,1,6,30,280,480.146685550455,481.10359565587714,"[73, 0, 181]",181,l,0.4321340462192893,colour,0.28
035,70,1,1,6,31,281,481.61548153171316,482.63161464221776,"[76, 0, 178]",178,l,0.49171111872419715,colour,0.28
035,70,1,1,6,32,282,483.14791513746604,484.0555937150493,"[51, 0, 203]",203,a,0.38434596359729767,colour,0.28
035,70,1,1,6,33,283,484.57244126172736,485.67157503729686,"[62, 0, 192]",192,l,0.5757397213019431,colour,0.28
035,70,1,1,6,34,284,486.18180676037446,487.1836298732087,"[56, 0, 198]",198,a,0.4788650465197861,colour,0.28
035,70,1,1,6,35,285,487.69743377901614,488.76760176196694,"[36, 0, 218]",218,a,0.5467640832066536,colour,0.28
035,70,1,1,6,36,286,489.2756539420225,490.31967331282794,"[96, 0, 158]",158,l,0.5211660675704479,colour,0.28
035,70,1,1,6,37,287,490.8389004766941,491.89560483722016,"[86, 0, 168]",168,l,0.533269346691668,colour,0.28
035,70,1,1,6,38,288,492.4169887015596,493.3677611122839,"[94, 0, 160]",160,l,0.4275666153989732,colour,0.28
035,70,1,1,6,39,289,493.8858705414459,494.85556882387027,"[54, 0, 200]",200,a,0.44647909607738256,colour,0.28
035,70,1,1,6,40,290,495.37011591671035,496.3276620833203,"[84, 0, 170]",170,l,0.4341718051582575,colour,0.28
035,70,1,1,6,41,291,496.8388583352789,497.8235936551355,"[64, 0, 190]",190,l,0.4616134134121239,colour,0.28
035,70,1,1,6,42,292,498.3388882675208,499.30362290982157,"[12, 0, 242]",242,a,0.4413212900981307,colour,0.28
035,70,1,1,6,43,293,499.8232584921643,501.35959117207676,"[50, 0, 204]",204,a,1.0134175424464047,colour,0.28
035,70,1,1,6,44,294,501.8720095278695,502.8076117816381,"[91, 0, 163]",163,l,0.4122487660497427,colour,0.28
035,70,1,1,6,45,295,503.32534863241017,504.3036020360887,"[79, 0, 175]",175,l,0.45521105406805873,colour,0.28
035,70,1,1,6,46,296,504.809597552754,505.7436047298834,"[53, 0, 201]",201,a,0.4108128035441041,colour,0.28
035,70,1,1,6,47,297,506.2627377649769,507.27157842414454,"[90, 0, 164]",164,l,0.48555412515997887,colour,0.28
035,70,1,1,6,48,298,507.7783053126186,508.7916074586101,"[98, 0, 156]",156,l,0.48999591963365674,colour,0.28
035,70,1,1,6,49,299,509.3095778604038,510.287558328826,"[19, 0, 235]",235,a,0.452316680457443,colour,0.28
035,70,1,1,6,50,300,510.79632612643763,511.7678581555374,"[80, 0, 174]",174,l,0.44818799337372184,colour,0.28
035,70,1,1,7,1,301,519.5310657788068,520.0875724283978,"[80, 0, 174]",174,l,0.032412337604910135,colour,0.14
035,70,1,1,7,2,302,520.59431428276,521.4955834117718,"[74, 0, 180]",180,l,0.3779613273218274,colour,0.14
035,70,1,1,7,3,303,522.0038474807516,522.8635453851894,"[37, 0, 217]",217,a,0.3363503240980208,colour,0.14
035,70,1,1,7,4,304,523.3789171916433,524.2235693940893,"[78, 0, 176]",176,l,0.32130737928673625,colour,0.14
035,70,1,1,7,5,305,524.7382555147633,525.8555404669605,"[82, 0, 172]",172,l,0.593842061702162,colour,0.14
035,70,1,1,7,6,306,526.3633594899438,527.351611066144,"[65, 0, 189]",189,l,0.4664116380736232,colour,0.14
035,70,1,1,7,7,307,527.8619168326259,528.7757689449936,"[64, 0, 190]",190,l,0.39085584320127964,colour,0.14
035,70,1,1,7,8,308,529.2838475122117,530.1595954257064,"[51, 0, 203]",203,a,0.3529757419601083,colour,0.14
035,70,1,1,7,9,309,530.6742973001674,531.6715486496687,"[62, 0, 192]",192,a,0.4767792383208871,colour,0.14
035,70,1,1,7,10,310,532.1903658197261,533.0555665395223,"[53, 0, 201]",201,a,0.3418196626007557,colour,0.14
035,70,1,1,7,11,311,533.5653941766359,534.5515749109909,"[96, 0, 158]",158,l,0.4628370925784111,colour,0.14
035,70,1,1,7,12,312,535.0654205647297,536.047592734918,"[89, 0, 165]",165,l,0.4589301412925124,colour,0.14
035,70,1,1,7,13,313,536.5653902385384,537.6955645862035,"[83, 0, 171]",171,l,0.6068531554192305,colour,0.14
035,70,1,1,7,14,314,538.2059861430898,539.1435694415122,"[14, 0, 240]",240,a,0.4142345366999507,colour,0.14
035,70,1,1,7,15,315,539.6591531368904,540.4955578120425,"[0, 0, 254]",254,a,0.3131248368881643,colour,0.14
035,70,1,1,7,16,316,541.0029459674843,541.9756433865987,"[75, 0, 179]",179,l,0.44947350677102804,colour,0.14
035,70,1,1,7,17,317,542.4884709483013,543.359542729333,"[58, 0, 196]",196,l,0.3477115975692868,colour,0.14
035,70,1,1,7,18,318,543.8791420776397,544.5756826139987,"[61, 0, 193]",193,a,0.1731334854848683,colour,0.14
035,70,1,1,7,19,319,545.082321674563,545.7835607924499,"[95, 0, 159]",159,l,0.17797463946044445,colour,0.14
035,70,1,1,7,20,320,546.3009904436767,547.2715323441662,"[76, 0, 178]",178,l,0.44747788924723864,colour,0.14
035,70,1,1,7,21,321,547.7854158068076,548.703564778436,"[20, 0, 234]",234,a,0.3949798038229346,colour,0.14
035,70,1,1,7,22,322,549.2118926504627,550.119716163259,"[97, 0, 157]",157,l,0.3844641176983714,colour,0.14
035,70,1,1,7,23,323,550.633853262756,551.6635161619633,"[49, 0, 205]",205,a,0.5064968825317919,colour,0.14
035,70,1,1,7,24,324,552.1813065758906,553.0955493836664,"[55, 0, 199]",199,a,0.3909164951182902,colour,0.14
035,70,1,1,7,25,325,553.6060449834913,554.6315831346437,"[86, 0, 168]",168,l,0.5022803680039942,colour,0.14
035,70,1,1,7,26,326,555.1528082792647,556.1995699992403,"[94, 0, 160]",160,l,0.5234428909607232,colour,0.14
035,70,1,1,7,27,327,556.7152683036402,557.7036329135299,"[59, 0, 195]",195,a,0.4651178545318544,colour,0.14
035,70,1,1,7,28,328,558.2157011404634,559.1995573961176,"[70, 0, 184]",184,l,0.46062604198232293,colour,0.14
035,70,1,1,7,29,329,559.7175683639944,560.6315437499434,"[52, 0, 202]",202,a,0.3907928275875747,colour,0.14
035,70,1,1,7,30,330,561.1395014068112,562.0795852332376,"[98, 0, 156]",156,l,0.416812258772552,colour,0.14
035,70,1,1,7,31,331,562.5925321299583,563.7355860271491,"[87, 0, 167]",167,l,0.6197201018221676,colour,0.14
035,70,1,1,7,32,332,564.2487708069384,565.2315424107946,"[60, 0, 194]",194,a,0.45944647304713726,colour,0.14
035,70,1,1,7,33,333,565.7488078284077,566.6715797632933,"[54, 0, 200]",200,a,0.39945310540497303,colour,0.14
035,70,1,1,7,34,334,567.1862587947398,568.1595769152045,"[92, 0, 162]",162,l,0.4499918082728982,colour,0.14
035,70,1,1,7,35,335,568.6726718982682,569.6475665834732,"[72, 0, 182]",182,l,0.45155183132737875,colour,0.14
035,70,1,1,7,36,336,570.1569909225218,571.0875641577877,"[68, 0, 186]",186,l,0.407270947471261,colour,0.14
035,70,1,1,7,37,337,571.5972047182731,572.3435321049765,"[73, 0, 181]",181,l,0.22739718295633793,colour,0.14
035,70,1,1,7,38,338,572.8584344466217,573.9598942762241,"[88, 0, 166]",166,l,0.5781807787716389,colour,0.14
035,70,1,1,7,39,339,574.4705517468974,575.6395778129809,"[93, 0, 161]",161,l,0.6456997538916767,colour,0.14
035,70,1,1,7,40,340,576.1580409160815,577.18354440853,"[69, 0, 185]",185,l,0.5021594571880996,colour,0.14
035,70,1,1,7,41,341,577.705034611281,578.6555218775757,"[66, 0, 188]",188,a,0.42730313213542104,colour,0.14
035,70,1,1,7,42,342,579.1736714788713,580.0476352702826,"[40, 0, 214]",214,a,0.3506548083387315,colour,0.14
035,70,1,1,7,43,343,580.5643213405274,581.6635275837034,"[71, 0, 183]",183,l,0.5759815429337323,colour,0.14
035,70,1,1,7,44,344,582.1736643896438,583.1437714844942,"[90, 0, 164]",164,l,0.44671894842758775,colour,0.14
035,70,1,1,7,45,345,583.6611968032084,584.6155488793738,"[50, 0, 204]",204,a,0.43109547439962626,colour,0.14
035,70,1,1,7,46,346,585.1299014124088,586.1035149171948,"[84, 0, 170]",170,l,0.4503234261646867,colour,0.14
035,70,1,1,7,47,347,586.6050536734983,587.607979554683,"[81, 0, 173]",173,l,0.5004107812419534,colour,0.14
035,70,1,1,7,48,348,588.1203821566887,589.0955253588036,"[91, 0, 163]",163,l,0.4517987729050219,colour,0.14
035,70,1,1,7,49,349,589.6047137845308,590.5435321833938,"[9, 0, 245]",245,a,0.41546766832470894,colour,0.14
035,70,1,1,7,50,350,591.0454183118418,592.0955092115328,"[67, 0, 187]",187,l,0.5266491905786097,colour,0.14
035,70,1,1,8,1,351,603.1440790779889,604.487540290691,"[95, 0, 159]",159,l,0.8195677623152733,colour,0.06
035,70,1,1,8,2,352,605.0040979669429,606.0395582783967,"[71, 0, 183]",183,l,0.5125833773054183,colour,0.06
035,70,1,1,8,3,353,606.5508459024131,611.087542496156,"[81, 0, 173]",173,l,4.01344196125865,colour,0.06
035,70,1,1,8,4,354,611.5977238067426,612.4075044980273,"[53, 0, 201]",201,a,0.2944246386177838,colour,0.06
035,70,1,1,8,5,355,612.9182241959497,613.9275429844856,"[85, 0, 169]",169,l,0.48493696888908744,colour,0.06
035,70,1,1,8,6,356,614.4352596076205,615.2235079542734,"[76, 0, 178]",178,l,0.26505279121920466,colour,0.06
035,70,1,1,8,7,357,615.7321800473146,616.7757374369539,"[69, 0, 185]",185,l,0.5202956679277122,colour,0.06
035,70,1,1,8,8,358,617.2946168351918,618.2955534006469,"[80, 0, 174]",174,l,0.4775606282055378,colour,0.06
035,70,1,1,8,9,359,618.8101942292415,619.7595665175468,"[97, 0, 157]",157,l,0.42601722525432706,colour,0.06
035,70,1,1,8,10,360,620.2789961183444,621.3435517973267,"[63, 0, 191]",191,a,0.5414211694151163,colour,0.06
035,70,1,1,8,11,361,621.8571816231124,622.8395325993188,"[78, 0, 176]",176,l,0.4590502642095089,colour,0.06
035,70,1,1,8,12,362,623.3570981277153,624.279508118052,"[59, 0, 195]",195,a,0.39909313060343266,colour,0.06
035,70,1,1,8,13,363,624.7946593705565,625.6957666291855,"[79, 0, 175]",175,l,0.3777848845347762,colour,0.06
035,70,1,1,8,14,364,626.2086603567004,627.1675058212131,"[61, 0, 193]",193,a,0.4358755825087428,colour,0.06
035,70,1,1,8,15,365,627.6866530342959,628.6635134052485,"[55, 0, 199]",199,a,0.45353602757677436,colour,0.06
035,70,1,1,8,16,366,629.1725919474848,630.1354833906516,"[77, 0, 177]",177,l,0.43951747566461563,colour,0.06
035,70,1,1,8,17,367,630.6569889537059,631.6315094856545,"[96, 0, 158]",158,l,0.4513667244464159,colour,0.06
035,70,1,1,8,18,368,632.1439640750177,633.0234846384265,"[89, 0, 165]",165,l,0.35696618910878897,colour,0.06
035,70,1,1,8,19,369,633.5337959188037,634.3755001844838,"[56, 0, 198]",198,a,0.31856621196493506,colour,0.06
035,70,1,1,8,20,370,634.8930999771692,635.7514761346392,"[84, 0, 170]",170,l,0.33505063271149993,colour,0.06
035,70,1,1,8,21,371,636.2681295154616,637.287539423909,"[60, 0, 194]",194,a,0.49633605126291513,colour,0.06
035,70,1,1,8,22,372,637.799403638579,638.5755554013886,"[52, 0, 202]",202,a,0.2528880718164146,colour,0.06
035,70,1,1,8,23,373,639.0962559431791,640.1514652646147,"[28, 0, 226]",226,a,0.5321527933701873,colour,0.06
035,70,1,1,8,24,374,640.6587640172802,641.6955287461169,"[51, 0, 203]",203,a,0.5135128535330296,colour,0.06
035,70,1,1,8,25,375,642.206842363812,643.2235185881145,"[70, 0, 184]",184,l,0.49616591027006507,colour,0.06
035,70,1,1,8,26,376,643.7352327471599,644.6395183424465,"[99, 0, 155]",155,l,0.38107152888551354,colour,0.06
035,70,1,1,8,27,377,645.1571165597998,646.0874834191054,"[68, 0, 186]",186,a,0.40703109465539455,colour,0.06
035,70,1,1,8,28,378,646.5946573223919,647.4154881485738,"[72, 0, 182]",182,l,0.2974934857338667,colour,0.06
035,70,1,1,8,29,379,647.9228266794235,648.8635453851894,"[67, 0, 187]",187,l,0.41750148870050907,colour,0.06
035,70,1,1,8,30,380,649.3758349535055,650.247479386162,"[73, 0, 181]",181,l,0.3483193018473685,colour,0.06
035,70,1,1,8,31,381,650.7665702793747,651.8235196121968,"[93, 0, 161]",161,l,0.5337336910888553,colour,0.06
035,70,1,1,8,32,382,652.3303071525879,653.3275084835477,"[74, 0, 180]",180,l,0.4739849013276398,colour,0.06
035,70,1,1,8,33,383,653.8459058143198,654.8315005055629,"[18, 0, 236]",236,a,0.46229594806209207,colour,0.06
035,70,1,1,8,34,384,655.3458707621321,656.2240502801724,"[88, 0, 166]",166,l,0.3548492672853172,colour,0.06
035,70,1,1,8,35,385,656.7365245618857,657.6954676997848,"[64, 0, 190]",190,a,0.43568299151957035,colour,0.06
035,70,1,1,8,36,386,658.1927627660334,659.2314691557549,"[66, 0, 188]",188,a,0.5152237205766141,colour,0.06
035,70,1,1,8,37,387,659.7397501599044,660.6475969096646,"[90, 0, 164]",164,l,0.38470121240243316,colour,0.06
035,70,1,1,8,38,388,661.1616241261363,662.4635424707085,"[65, 0, 189]",189,l,0.7770902975462377,colour,0.06
035,70,1,1,8,39,389,662.9727537394501,663.8795209573582,"[92, 0, 162]",162,l,0.38373195799067616,colour,0.06
035,70,1,1,8,40,390,664.3946989914402,665.2474490599707,"[94, 0, 160]",160,l,0.32485908176749945,colour,0.06
035,70,1,1,8,41,391,665.7586539764889,666.5915321554057,"[86, 0, 168]",168,l,0.31895415019243956,colour,0.06
035,70,1,1,8,42,392,667.0976111670025,668.1834695776924,"[16, 0, 238]",238,a,0.56284244870767,colour,0.06
035,70,1,1,8,43,393,668.6913279853761,669.6155512426049,"[57, 0, 197]",197,a,0.4007594925351441,colour,0.06
035,70,1,1,8,44,394,670.1287970687263,670.9595126393251,"[87, 0, 167]",167,l,0.30736405216157436,colour,0.06
035,70,1,1,8,45,395,671.4728935547173,672.4314440283924,"[50, 0, 204]",204,a,0.43546480126678944,colour,0.06
035,70,1,1,8,46,396,672.9412992349826,673.8315068073571,"[54, 0, 200]",200,a,0.36757285380735993,colour,0.06
035,70,1,1,8,47,397,674.3476379485801,675.2154683773406,"[58, 0, 196]",196,a,0.34459391329437494,colour,0.06
035,70,1,1,8,48,398,675.722590687219,677.0794958299957,"[91, 0, 163]",163,l,0.8336426336318254,colour,0.06
035,70,1,1,8,49,399,677.5976005331613,678.5915380627848,"[98, 0, 156]",156,l,0.4706313032656908,colour,0.06
035,70,1,1,8,50,400,679.1133394041099,680.1676928978413,"[82, 0, 172]",172,l,0.5312619139440358,colour,0.06
035,70,1,1,9,1,401,685.6302030985244,686.2795577426441,"[85, 0, 169]",169,l,0.1228854414075613,colour,0.06
035,70,1,1,9,2,402,686.7897138474509,687.9434819286689,"[54, 0, 200]",200,a,0.6304653994739056,colour,0.06
035,70,1,1,9,3,403,688.461582693737,689.527505017817,"[41, 0, 213]",213,a,0.5426212181337178,colour,0.06
035,70,1,1,9,4,404,690.0397177860141,691.1274434202351,"[58, 0, 196]",196,a,0.564405623357743,colour,0.06
035,70,1,1,9,5,405,691.6509197880514,692.6794555000961,"[90, 0, 164]",164,l,0.5054653999395669,colour,0.06
035,70,1,1,9,6,406,693.1996924853884,694.1274473587982,"[56, 0, 198]",198,a,0.4044104442000389,colour,0.06
035,70,1,1,9,7,407,694.6371221835725,695.5834910031408,"[57, 0, 197]",197,a,0.42307952838018537,colour,0.06
035,70,1,1,9,8,408,696.0903230481781,697.0794666856527,"[64, 0, 190]",190,a,0.4665924138389528,colour,0.06
035,70,1,1,9,9,409,697.5903218667954,698.5994866611436,"[97, 0, 157]",157,l,0.48598381131887436,colour,0.06
035,70,1,1,9,10,410,699.105890202336,700.1274536601268,"[55, 0, 199]",199,a,0.49826471460983157,colour,0.06
035,70,1,1,9,11,411,700.6370233283378,701.5994693320245,"[92, 0, 162]",162,l,0.4389534881338477,colour,0.06
035,70,1,1,9,12,412,702.1058594821952,703.2394780125469,"[63, 0, 191]",191,a,0.6101575228385627,colour,0.06
035,70,1,1,9,13,413,703.754107025452,704.6954610045068,"[3, 0, 251]",251,a,0.41805720515549183,colour,0.06
035,70,1,1,9,14,414,705.207248813007,706.2715102890506,"[60, 0, 194]",194,a,0.5408619083464146,colour,0.06
035,70,1,1,9,15,415,706.785420532804,707.7034631660208,"[79, 0, 175]",175,l,0.4010962308384478,colour,0.06
035,70,1,1,9,16,416,708.2165258536115,709.095446983818,"[86, 0, 168]",168,l,0.35589217161759734,colour,0.06
035,70,1,1,9,17,417,709.6071855612099,710.6634728386998,"[59, 0, 195]",195,a,0.5329117341898382,colour,0.06
035,70,1,1,9,18,418,711.1696444046684,712.1274556294084,"[74, 0, 180]",180,l,0.43442426016554236,colour,0.06
035,70,1,1,9,19,419,712.6383974566124,713.5994984768331,"[62, 0, 192]",192,a,0.4378034584224224,colour,0.06
035,70,1,1,9,20,420,714.1071363305673,714.9914622083306,"[81, 0, 173]",173,l,0.36096136225387454,colour,0.06
035,70,1,1,9,21,421,715.4978113984689,716.3514606170356,"[50, 0, 204]",204,a,0.3303040019236505,colour,0.06
035,70,1,1,9,22,422,716.8728818967938,717.8874731003307,"[69, 0, 185]",185,l,0.4913160912692547,colour,0.06
035,70,1,1,9,23,423,718.4040217185393,719.4234851896763,"[72, 0, 182]",182,l,0.49610053142532706,colour,0.06
035,70,1,1,9,24,424,719.9353060815483,720.7674524942413,"[77, 0, 177]",177,l,0.30893037747591734,colour,0.06
035,70,1,1,9,25,425,721.2789673674852,722.2074421914294,"[53, 0, 201]",201,a,0.40510400710627437,colour,0.06
035,70,1,1,9,26,426,722.7177676497959,723.6074514072388,"[96, 0, 158]",158,l,0.3665705155581236,colour,0.06
035,70,1,1,9,27,427,724.1240134160034,725.0234421030618,"[61, 0, 193]",193,a,0.3763729468919337,colour,0.06
035,70,1,1,9,28,428,725.530218616128,726.1915280590765,"[83, 0, 171]",171,l,0.13808001670986414,colour,0.06
035,70,1,1,9,29,429,726.7020890377462,727.4794558151625,"[76, 0, 178]",178,l,0.25398178212344646,colour,0.06
035,70,1,1,9,30,430,727.9990142039023,729.0474521322176,"[80, 0, 174]",174,l,0.5251651792787015,colour,0.06
035,70,1,1,9,31,431,729.5615360620432,731.0394921121188,"[94, 0, 160]",160,l,0.9545872020535171,colour,0.06
035,70,1,1,9,32,432,731.5458582374267,733.0955206328072,"[70, 0, 184]",184,l,1.0262770061381161,colour,0.06
035,70,1,1,9,33,433,733.6083722189069,734.5434735007584,"[65, 0, 189]",189,a,0.4117682739160955,colour,0.06
035,70,1,1,9,34,434,735.0615400006063,736.2314589158632,"[73, 0, 181]",181,l,0.646678461227566,colour,0.06
035,70,1,1,9,35,435,736.7506049475633,737.6714683049358,"[51, 0, 203]",203,a,0.39773751283064485,colour,0.06
035,70,1,1,9,36,436,738.1881390148774,739.167460528668,"[78, 0, 176]",176,l,0.45607239520177245,colour,0.06
035,70,1,1,9,37,437,739.6886884300038,740.9034207095392,"[87, 0, 167]",167,l,0.6914000594988465,colour,0.06
035,70,1,1,9,38,438,741.4231220637448,742.5514461235143,"[88, 0, 166]",166,l,0.6050426457077265,colour,0.06
035,70,1,1,9,39,439,743.0703389123082,744.3274391666055,"[99, 0, 155]",155,l,0.733735344838351,colour,0.06
035,70,1,1,9,40,440,744.8361211060546,745.7834780849516,"[40, 0, 214]",214,a,0.42424885695800185,colour,0.06
035,70,1,1,9,41,441,746.3047217400745,747.5753931370564,"[67, 0, 187]",187,l,0.7473825002089143,colour,0.06
035,70,1,1,9,42,442,748.0965686570853,749.1035113725811,"[82, 0, 172]",172,l,0.4840913815423846,colour,0.06
035,70,1,1,9,43,443,749.6121751954779,750.5914640198462,"[95, 0, 159]",159,l,0.4560286784544587,colour,0.06
035,70,1,1,9,44,444,751.1121169063263,752.6474196789786,"[84, 0, 170]",170,l,1.0120201772078872,colour,0.06
035,70,1,1,9,45,445,753.1589971738867,754.0154186738655,"[75, 0, 179]",179,l,0.3331782892346382,colour,0.06
035,70,1,1,9,46,446,754.5340054444969,755.5194599269889,"[68, 0, 186]",186,l,0.4623168222606182,colour,0.06
035,70,1,1,9,47,447,756.0339613338001,757.0714365611784,"[71, 0, 183]",183,l,0.5143316593021154,colour,0.06
035,70,1,1,9,48,448,757.5821054531261,758.4474306278862,"[66, 0, 188]",188,l,0.3420217055827379,colour,0.06
035,70,1,1,9,49,449,758.9571271147579,760.095512362197,"[89, 0, 165]",165,l,0.6151211629621685,colour,0.06
035,70,1,1,9,50,450,760.613345311489,761.5514524248429,"[98, 0, 156]",156,l,0.41506397631019354,colour,0.06
035,70,1,1,10,1,451,766.737512327265,767.9753936883062,"[96, 0, 158]",158,l,0.7124885390512645,colour,0.06
035,70,1,1,10,2,452,768.4896485479549,769.2954529700801,"[78, 0, 176]",176,l,0.2824525102041662,colour,0.06
035,70,1,1,10,3,453,769.8020502831787,770.687423790805,"[51, 0, 203]",203,a,0.36194952158257365,colour,0.06
035,70,1,1,10,4,454,771.2083114092238,772.111764414236,"[58, 0, 196]",196,a,0.3802783233113587,colour,0.06
035,70,1,1,10,5,455,772.6302160955966,773.391428494826,"[56, 0, 198]",198,a,0.23801014851778746,colour,0.06
035,70,1,1,10,6,456,773.9114114493132,775.1193999047391,"[68, 0, 186]",186,l,0.6846893182955682,colour,0.06
035,70,1,1,10,7,457,775.6302720215172,776.495451473631,"[66, 0, 188]",188,a,0.34176491806283593,colour,0.06
035,70,1,1,10,8,458,777.0054331044666,777.9194191247225,"[89, 0, 165]",165,l,0.3908337876200676,colour,0.06
035,70,1,1,10,9,459,778.4272361784242,779.4634963907301,"[83, 0, 171]",171,l,0.5129346875473857,colour,0.06
035,70,1,1,10,10,460,779.9740916336887,780.9515222935006,"[87, 0, 167]",167,l,0.4540523597970605,colour,0.06
035,70,1,1,10,11,461,781.4581180308014,782.4076175317168,"[60, 0, 194]",194,a,0.4247195031493902,colour,0.06
035,70,1,1,10,12,462,782.928364940919,783.895423667971,"[75, 0, 179]",179,l,0.4437229624018073,colour,0.06
035,70,1,1,10,13,463,784.4127268944867,785.3274100222625,"[98, 0, 156]",156,l,0.3914304645732045,colour,0.06
035,70,1,1,10,14,464,785.8417428629473,786.9514155611396,"[67, 0, 187]",187,l,0.586366078350693,colour,0.06
035,70,1,1,10,15,465,787.4543284457177,788.4954176028259,"[86, 0, 168]",168,l,0.517749847844243,colour,0.06
035,70,1,1,10,16,466,789.0168306115083,789.9274291628972,"[52, 0, 202]",202,a,0.387614490929991,colour,0.06
035,70,1,1,10,17,467,790.4387896484695,791.4714378998615,"[88, 0, 166]",166,l,0.5092431697994471,colour,0.06
035,70,1,1,10,18,468,791.98550922703,793.1768541480415,"[99, 0, 155]",155,l,0.6679516546428204,colour,0.06
035,70,1,1,10,19,469,793.6886770087294,795.599430735223,"[57, 0, 197]",197,a,1.3873494327999651,colour,0.06
035,70,1,1,10,20,470,796.110556488391,796.9274638216011,"[82, 0, 172]",172,l,0.29359716828912497,colour,0.06
035,70,1,1,10,21,471,797.440339432098,798.623432493303,"[62, 0, 192]",192,a,0.6598380347713828,colour,0.06
035,70,1,1,10,22,472,799.143429626245,800.5193898226134,"[81, 0, 173]",173,l,0.8526094658300281,colour,0.06
035,70,1,1,10,23,473,801.0341015430167,801.9913834389299,"[54, 0, 200]",200,a,0.43413950968533754,colour,0.06
035,70,1,1,10,24,474,802.5032972781919,803.4555446417071,"[80, 0, 174]",174,l,0.4290573219768703,colour,0.06
035,70,1,1,10,25,475,803.9748300947249,805.3434222219512,"[61, 0, 193]",193,a,0.8460964355617762,colour,0.06
035,70,1,1,10,26,476,805.8497139103711,807.2953982255422,"[65, 0, 189]",189,a,0.9223914798349142,colour,0.06
035,70,1,1,10,27,477,807.8161149150692,809.327404901851,"[29, 0, 225]",225,a,0.9880912806838751,colour,0.06
035,70,1,1,10,28,478,809.8473776164465,810.9674387886189,"[95, 0, 159]",159,l,0.6094529321417212,colour,0.06
035,70,1,1,10,29,479,811.4754775776528,814.3513846048154,"[70, 0, 184]",184,l,2.364986073691398,colour,0.06
035,70,1,1,10,30,480,814.8694873386994,815.8313732934184,"[85, 0, 169]",169,l,0.4386978824622929,colour,0.06
035,70,1,1,10,31,481,816.3381549264304,817.4473632802255,"[22, 0, 232]",232,a,0.5859352108091116,colour,0.06
035,70,1,1,10,32,482,817.9656168571673,818.8714246666059,"[63, 0, 191]",191,a,0.38142520235851407,colour,0.06
035,70,1,1,10,33,483,819.3886826010421,820.511382935103,"[53, 0, 201]",201,a,0.6035483945161104,colour,0.06
035,70,1,1,10,34,484,821.0252683665603,822.1594016538002,"[94, 0, 160]",160,l,0.6107140271924436,colour,0.06
035,70,1,1,10,35,485,822.6673431629315,823.7514253286645,"[93, 0, 161]",161,l,0.56084761954844,colour,0.06
035,70,1,1,10,36,486,824.261067464482,825.4873614846729,"[76, 0, 178]",178,l,0.7030169386416674,colour,0.06
035,70,1,1,10,37,487,825.9953864887357,826.8953433232382,"[64, 0, 190]",190,a,0.3769326019100845,colour,0.06
035,70,1,1,10,38,488,827.4016976333223,828.4074324239045,"[24, 0, 230]",230,a,0.48266841610893607,colour,0.06
035,70,1,1,10,39,489,828.9173368611373,829.9594015749171,"[59, 0, 195]",195,a,0.5189498965628445,colour,0.06
035,70,1,1,10,40,490,830.4798658089712,831.6555955265649,"[69, 0, 185]",185,a,0.6523754424415529,colour,0.06
035,70,1,1,10,41,491,832.1686885403469,833.1753768320195,"[72, 0, 182]",182,a,0.4834529575891793,colour,0.06
035,70,1,1,10,42,492,833.6843242235482,834.7194284982979,"[55, 0, 199]",199,a,0.5118331010453403,colour,0.06
035,70,1,1,10,43,493,835.2311824359931,836.1113599343225,"[77, 0, 177]",177,l,0.3568051061592996,colour,0.06
035,70,1,1,10,44,494,836.6217925189994,837.5674461140297,"[90, 0, 164]",164,l,0.4201705823652446,colour,0.06
035,70,1,1,10,45,495,838.0771559914574,839.5594549803063,"[71, 0, 183]",183,l,0.9590085162781179,colour,0.06
035,70,1,1,10,46,496,840.0779239907861,840.991412977688,"[84, 0, 170]",170,l,0.3901043850928545,colour,0.06
035,70,1,1,10,47,497,841.4999413168989,842.5196489728987,"[97, 0, 157]",157,l,0.4964880757033825,colour,0.06
035,70,1,1,10,48,498,843.0333406329155,844.0393964075483,"[79, 0, 175]",175,l,0.485536796040833,colour,0.06
035,70,1,1,10,49,499,844.546136292629,845.6713619665243,"[91, 0, 163]",163,l,0.60181704768911,colour,0.06
035,70,1,1,10,50,500,846.1890779435635,847.3917246670462,"[50, 0, 204]",204,a,0.6793444356881082,colour,0.06
035,70,1,1,11,1,501,852.9864564263262,853.6473676916212,"[81, 0, 173]",173,l,0.136860276106745,colour,0.06
035,70,1,1,11,2,502,854.1591066629626,855.0793997314759,"[72, 0, 182]",182,l,0.3970553711988032,colour,0.06
035,70,1,1,11,3,503,855.5966005586088,856.6476934021339,"[59, 0, 195]",195,l,0.5277937068603933,colour,0.06
035,70,1,1,11,4,504,857.1590877585113,858.1033660434186,"[34, 0, 220]",220,a,0.4209740278311074,colour,0.06
035,70,1,1,11,5,505,858.6029950408265,859.5673846742138,"[97, 0, 157]",157,l,0.4410881334915757,colour,0.06
035,70,1,1,11,6,506,860.087256169878,861.1115249558352,"[98, 0, 156]",156,l,0.5012071379460394,colour,0.06
035,70,1,1,11,7,507,861.6185814929195,862.5273837130517,"[20, 0, 234]",234,a,0.39056282164528966,colour,0.06
035,70,1,1,11,8,508,863.0354595235549,864.0153812589124,"[85, 0, 169]",169,l,0.4565729736350477,colour,0.06
035,70,1,1,11,9,509,864.5362058617175,865.495367190335,"[53, 0, 201]",201,a,0.43584131775423884,colour,0.06
035,70,1,1,11,10,510,866.0049561569467,866.9993808744475,"[82, 0, 172]",172,l,0.4710294818505645,colour,0.06
035,70,1,1,11,11,511,867.52250632504,868.5433443188667,"[88, 0, 166]",166,l,0.49781376123428345,colour,0.06
035,70,1,1,11,12,512,869.056046243757,870.0313458032906,"[76, 0, 178]",178,l,0.4519366193562746,colour,0.06
035,70,1,1,11,13,513,870.5423738826066,871.4953951537609,"[92, 0, 162]",162,l,0.4297981462441385,colour,0.06
035,70,1,1,11,14,514,872.0111950705759,873.0954024791718,"[60, 0, 194]",194,l,0.5609744377434254,colour,0.06
035,70,1,1,11,15,515,873.6048701410182,874.4953494672664,"[91, 0, 163]",163,l,0.37667975248768926,colour,0.06
035,70,1,1,11,16,516,875.0018841591664,875.5593852694146,"[61, 0, 193]",193,a,0.034346908796578646,colour,0.06
035,70,1,1,11,17,517,876.0810015029274,877.1514325751923,"[96, 0, 158]",158,l,0.5470854612067342,colour,0.06
035,70,1,1,11,18,518,877.6591165093705,878.5913860383444,"[55, 0, 199]",199,a,0.4089459739625454,colour,0.06
035,70,1,1,11,19,519,879.1122425431386,880.1833912027068,"[51, 0, 203]",203,a,0.5486261867918074,colour,0.06
035,70,1,1,11,20,520,880.6903996905312,881.6793515249155,"[79, 0, 175]",175,l,0.46572792157530785,colour,0.06
035,70,1,1,11,21,521,882.1904615242966,883.1833435469307,"[50, 0, 204]",204,a,0.4696553531102836,colour,0.06
035,70,1,1,11,22,522,883.690328404773,884.6794759803452,"[58, 0, 196]",196,a,0.46582756470888853,colour,0.06
035,70,1,1,11,23,523,885.1902984720655,886.0953792422079,"[56, 0, 198]",198,a,0.3817099528387189,colour,0.06
035,70,1,1,11,24,524,886.6121413246728,887.6713867788203,"[74, 0, 180]",180,l,0.533769924659282,colour,0.06
035,70,1,1,11,25,525,888.1924157878384,889.1034018835053,"[73, 0, 181]",181,l,0.3875904665328562,colour,0.06
035,70,1,1,11,26,526,889.6150160059333,890.5513582960702,"[95, 0, 159]",159,l,0.4130392144434154,colour,0.06
035,70,1,1,11,27,527,891.0571545264684,892.5833602463827,"[67, 0, 187]",187,l,1.0029814136214554,colour,0.06
035,70,1,1,11,28,528,893.1039816248231,894.1273402324878,"[78, 0, 176]",176,l,0.5006990763358772,colour,0.06
035,70,1,1,11,29,529,894.6352588986047,895.5514441542327,"[63, 0, 191]",191,a,0.3929609493352473,colour,0.06
035,70,1,1,11,30,530,896.0726216435432,897.0713747269474,"[77, 0, 177]",177,l,0.47523024212569,colour,0.06
035,70,1,1,11,31,531,897.5791283720173,898.5433411682025,"[93, 0, 161]",161,l,0.440950287040323,colour,0.06
035,70,1,1,11,32,532,899.0635694884695,900.2713602334261,"[89, 0, 165]",165,l,0.6845455644652247,colour,0.06
035,70,1,1,11,33,533,900.7822595257312,901.8793547544628,"[71, 0, 183]",183,l,0.5738252364099026,colour,0.06
035,70,1,1,11,34,534,902.3915978488512,903.2553259786218,"[90, 0, 164]",164,l,0.33992959605529904,colour,0.06
035,70,1,1,11,35,535,903.7665391657501,904.7594109484926,"[80, 0, 174]",174,l,0.46973648574203253,colour,0.06
035,70,1,1,11,36,536,905.2551357508637,906.2634395984933,"[26, 0, 228]",228,a,0.4848999474197626,colour,0.06
035,70,1,1,11,37,537,906.7707600123249,907.7673567896709,"[94, 0, 160]",160,l,0.4768083826638758,colour,0.06
035,70,1,1,11,38,538,908.2830346142873,909.4553638664074,"[64, 0, 190]",190,l,0.6489312597550452,colour,0.06
035,70,1,1,11,39,539,909.9705765591934,910.863419748377,"[69, 0, 185]",185,a,0.36961021833121777,colour,0.06
035,70,1,1,11,40,540,911.3767238636501,912.2873570732772,"[52, 0, 202]",202,a,0.3875546264462173,colour,0.06
035,70,1,1,11,41,541,912.7986580883153,913.8313543889672,"[83, 0, 171]",171,l,0.5094629358500242,colour,0.06
035,70,1,1,11,42,542,914.3454635250382,915.255356698297,"[87, 0, 167]",167,l,0.3865337776951492,colour,0.06
035,70,1,1,11,43,543,915.7549723046832,916.7113018813543,"[99, 0, 155]",155,l,0.43306746101006866,colour,0.06
035,70,1,1,11,44,544,917.2212457032874,918.2393716741353,"[84, 0, 170]",170,l,0.4952691229991615,colour,0.06
035,70,1,1,11,45,545,918.7528853151016,919.7113353582099,"[66, 0, 188]",188,a,0.43505874602124095,colour,0.06
035,70,1,1,11,46,546,920.2216797214933,921.0713747269474,"[62, 0, 192]",192,a,0.32642501313239336,colour,0.06
035,70,1,1,11,47,547,921.5810408876278,922.6392981824465,"[75, 0, 179]",179,l,0.5349479177966714,colour,0.06
035,70,1,1,11,48,548,923.1592043368146,924.1753382347524,"[68, 0, 186]",186,a,0.49285878567025065,colour,0.06
035,70,1,1,11,49,549,924.6905635306612,925.5433427435346,"[86, 0, 168]",168,l,0.3295056759379804,colour,0.06
035,70,1,1,11,50,550,926.0497773983516,926.8073475109413,"[57, 0, 197]",197,a,0.2342170188203454,colour,0.06
035,70,1,1,12,1,551,932.2689794348553,932.9433803167194,"[92, 0, 162]",162,l,0.15029593603685498,colour,0.06
035,70,1,1,12,2,552,933.4554119156674,934.4873705427162,"[64, 0, 190]",190,a,0.5086854840628803,colour,0.06
035,70,1,1,12,3,553,935.0030818441883,935.8633244377561,"[82, 0, 172]",172,l,0.3377441451884806,colour,0.06
035,70,1,1,12,4,554,936.3750551384874,937.2553043169901,"[54, 0, 200]",200,a,0.35688505694270134,colour,0.06
035,70,1,1,12,5,555,937.7656959416345,938.6553119574673,"[78, 0, 176]",176,l,0.37885890202596784,colour,0.06
035,70,1,1,12,6,556,939.1750574228354,940.103323508054,"[99, 0, 155]",155,l,0.4049385911785066,colour,0.06
035,70,1,1,12,7,557,940.612700979691,941.5913372016512,"[50, 0, 204]",204,a,0.4553414173424244,colour,0.06
035,70,1,1,12,8,558,942.1097530429251,943.0152879171073,"[97, 0, 157]",157,l,0.38225897401571274,colour,0.06
035,70,1,1,12,9,559,943.5316128307022,944.759324695915,"[72, 0, 182]",182,l,0.7047971216961741,colour,0.06
035,70,1,1,12,10,560,945.2659070431255,946.1433173799887,"[52, 0, 202]",202,a,0.35442430758848786,colour,0.06
035,70,1,1,12,11,561,946.6566494582221,947.5433541652746,"[84, 0, 170]",170,l,0.3634870960377157,colour,0.06
035,70,1,1,12,12,562,948.062812122982,949.0713412500918,"[74, 0, 180]",180,l,0.48522959649562836,colour,0.06
035,70,1,1,12,13,563,949.5784174799919,950.4313404466957,"[96, 0, 158]",158,l,0.32964667305350304,colour,0.06
035,70,1,1,12,14,564,950.9377735261805,951.6473267315887,"[90, 0, 164]",164,l,0.18618947779759765,colour,0.06
035,70,1,1,12,15,565,952.1587273892947,953.1193518559448,"[93, 0, 161]",161,l,0.43732336023822427,colour,0.06
035,70,1,1,12,16,566,953.6274883188307,954.7113215737045,"[87, 0, 167]",167,l,0.5605829549022019,colour,0.06
035,70,1,1,12,17,567,955.2211752049625,956.1993427500129,"[80, 0, 174]",174,l,0.4548305990174413,colour,0.06
035,70,1,1,12,18,568,956.7056029308587,957.7273562224582,"[60, 0, 194]",194,a,0.49838838214054704,colour,0.06
035,70,1,1,12,19,569,958.2368494849652,959.1833281870931,"[55, 0, 199]",199,a,0.423175232950598,colour,0.06
035,70,1,1,12,20,570,959.6900338078849,960.7673008637503,"[48, 0, 206]",206,a,0.5541179743595421,colour,0.06
035,70,1,1,12,21,571,961.2837053341791,962.3353011189029,"[66, 0, 188]",188,a,0.5283360322937369,colour,0.06
035,70,1,1,12,22,572,962.8474465394393,963.7833004603162,"[98, 0, 156]",156,l,0.41248113475739956,colour,0.06
035,70,1,1,12,23,573,964.3005280685611,965.2473001861945,"[56, 0, 198]",198,a,0.4236096451058984,colour,0.06
035,70,1,1,12,24,574,965.7536734011956,966.791328615509,"[71, 0, 183]",183,a,0.5143387480638921,colour,0.06
035,70,1,1,12,25,575,967.3005414595827,968.3913583904505,"[76, 0, 178]",178,a,0.5676639107987285,colour,0.06
035,70,1,1,12,26,576,968.9099191669375,970.0873483298346,"[61, 0, 193]",193,a,0.6541512934491038,colour,0.06
035,70,1,1,12,27,577,970.599308249075,971.5753714754246,"[29, 0, 225]",225,a,0.4526884709484875,colour,0.06
035,70,1,1,12,28,578,972.0836075814441,973.0394023153931,"[51, 0, 203]",203,a,0.43250111071392894,colour,0.06
035,70,1,1,12,29,579,973.5524295568466,974.671301708091,"[53, 0, 201]",201,a,0.5955178756266832,colour,0.06
035,70,1,1,12,30,580,975.16547318222,976.2713318765163,"[57, 0, 197]",197,a,0.5840557776391506,colour,0.06
035,70,1,1,12,31,581,976.7892522597685,977.7912975018844,"[77, 0, 177]",177,l,0.4786484311334789,colour,0.06
035,70,1,1,12,32,582,978.3062081146054,979.3273686682805,"[75, 0, 179]",179,l,0.4960627225227654,colour,0.06
035,70,1,1,12,33,583,979.839197830297,980.9913160912693,"[73, 0, 181]",181,l,0.6286572529934347,colour,0.06
035,70,1,1,12,34,584,981.5110883382149,982.5273344824091,"[67, 0, 187]",187,l,0.4929127427749336,colour,0.06
035,70,1,1,12,35,585,983.0423128367402,984.0392845552415,"[94, 0, 160]",160,l,0.4740034122951329,colour,0.06
035,70,1,1,12,36,586,984.5579118919559,985.7273148689419,"[69, 0, 185]",185,l,0.6460703630000353,colour,0.06
035,70,1,1,12,37,587,986.2454030304216,987.383308573626,"[85, 0, 169]",169,l,0.6145154275000095,colour,0.06
035,70,1,1,12,38,588,987.9028712944128,988.8792763790116,"[1, 0, 253]",253,a,0.4531027968041599,colour,0.06
035,70,1,1,12,39,589,989.3873096541502,990.3353054514155,"[88, 0, 166]",166,l,0.42482308438047767,colour,0.06
035,70,1,1,12,40,590,990.8560288357548,991.9752995590679,"[58, 0, 196]",196,a,0.5960078197531402,colour,0.06
035,70,1,1,12,41,591,992.4851839104667,993.6312877503224,"[91, 0, 163]",163,l,0.6228184876963496,colour,0.06
035,70,1,1,12,42,592,994.1414426732808,995.3273151051253,"[83, 0, 171]",171,l,0.6623972454108298,colour,0.06
035,70,1,1,12,43,593,995.8446332979947,996.8953094528988,"[68, 0, 186]",186,l,0.5273368456400931,colour,0.06
035,70,1,1,12,44,594,997.4070716612041,998.4952864521183,"[89, 0, 165]",165,l,0.5648597278632224,colour,0.06
035,70,1,1,12,45,595,999.0165364085697,1000.1033239020035,"[95, 0, 159]",159,l,0.5635769716463983,colour,0.06
035,70,1,1,12,46,596,1000.6108778668568,1001.7674375283532,"[65, 0, 189]",189,l,0.6338536562398076,colour,0.06
035,70,1,1,12,47,597,1002.282110651955,1003.4553016386926,"[79, 0, 175]",175,l,0.6498823976144195,colour,0.06
035,70,1,1,12,48,598,1003.9696222702041,1005.0073314420879,"[86, 0, 168]",168,l,0.5267854612320662,colour,0.06
035,70,1,1,12,49,599,1005.5197096252814,1006.9352603950538,"[63, 0, 191]",191,a,0.9048743946477771,colour,0.06
035,70,1,1,12,50,600,1007.4551212573424,1008.3433154895902,"[81, 0, 173]",173,l,0.36492699664086103,colour,0.06
035,70,1,1,13,1,601,1013.4093988966197,1014.0312930275686,"[82, 0, 172]",172,l,0.09786519734188914,colour,0.06
035,70,1,1,13,2,602,1014.5389273371547,1015.5914908014238,"[48, 0, 206]",206,a,0.5291445981711149,colour,0.06
035,70,1,1,13,3,603,1016.1012412449345,1017.0553066013381,"[65, 0, 189]",189,a,0.42901596799492836,colour,0.06
035,70,1,1,13,4,604,1017.5702172140591,1018.4712972971611,"[95, 0, 159]",159,l,0.3778242692351341,colour,0.06
035,70,1,1,13,5,605,1018.9921608907171,1019.9513190686703,"[74, 0, 180]",180,l,0.43598704086616635,colour,0.06
035,70,1,1,13,6,606,1020.4609545092098,1021.2392700617202,"[83, 0, 171]",171,l,0.25497584929689765,colour,0.06
035,70,1,1,13,7,607,1021.7453337134793,1022.5992629569955,"[51, 0, 203]",203,a,0.33039734326303005,colour,0.06
035,70,1,1,13,8,608,1023.1204463536851,1024.0316258277744,"[54, 0, 200]",200,a,0.3875735313631594,colour,0.06
035,70,1,1,13,9,609,1024.5423211073503,1025.4712579124607,"[59, 0, 195]",195,a,0.40571052953600883,colour,0.06
035,70,1,1,13,10,610,1025.979812245816,1026.9432676765136,"[77, 0, 177]",177,l,0.4401366012170911,colour,0.06
035,70,1,1,13,11,611,1027.449779918883,1028.4154290715232,"[47, 0, 207]",207,a,0.4422929077409208,colour,0.06
035,70,1,1,13,12,612,1028.9360728994943,1029.9032931034453,"[96, 0, 158]",158,l,0.44391003949567676,colour,0.06
035,70,1,1,13,13,613,1030.4230137565173,1031.4473428004421,"[71, 0, 183]",183,l,0.5016506081447005,colour,0.06
035,70,1,1,13,14,614,1031.9562972811982,1032.7512855133973,"[93, 0, 161]",161,l,0.2770020766183734,colour,0.06
035,70,1,1,13,15,615,1033.2552263354883,1034.1673010210507,"[63, 0, 191]",191,a,0.3886794503778219,colour,0.06
035,70,1,1,13,16,616,1034.6771069969982,1035.4074257286265,"[69, 0, 185]",185,a,0.20700738532468677,colour,0.06
035,70,1,1,13,17,617,1035.9271215694025,1036.7672378481366,"[94, 0, 160]",160,l,0.3168009943328798,colour,0.06
035,70,1,1,13,18,618,1037.279397053644,1037.9832532778382,"[66, 0, 188]",188,a,0.1805362133309245,colour,0.06
035,70,1,1,13,19,619,1038.4981654658914,1039.271238535177,"[91, 0, 163]",163,l,0.24978929245844483,colour,0.06
035,70,1,1,13,20,620,1039.7794265919365,1040.5112809287384,"[92, 0, 162]",162,l,0.20850242441520095,colour,0.06
035,70,1,1,13,21,621,1041.0293982350267,1041.751270153094,"[73, 0, 181]",181,l,0.19887092243880033,colour,0.06
035,70,1,1,13,22,622,1042.2513390760869,1042.8952499818988,"[97, 0, 157]",157,l,0.12081223633140326,colour,0.06
035,70,1,1,13,23,623,1043.4075434887782,1044.031228043139,"[84, 0, 170]",170,l,0.1002956205047667,colour,0.06
035,70,1,1,13,24,624,1044.5482386425138,1045.0872605023906,"[80, 0, 174]",174,l,0.01583969546481967,colour,0.06
035,70,1,1,13,25,625,1045.5951090636663,1046.2393035385758,"[67, 0, 187]",187,a,0.12090085167437792,colour,0.06
035,70,1,1,13,26,626,1046.751295753289,1047.343304855749,"[53, 0, 201]",201,a,0.06897896248847246,colour,0.06
035,70,1,1,13,27,627,1047.8607376576401,1048.4792750398628,"[85, 0, 169]",169,l,0.09606926003471017,colour,0.06
035,70,1,1,13,28,628,1048.985776648391,1049.5432600360364,"[89, 0, 165]",165,l,0.0341019369661808,colour,0.06
035,70,1,1,13,29,629,1050.0639397036284,1050.735250864178,"[72, 0, 182]",182,l,0.14800414629280567,colour,0.06
035,70,1,1,13,30,630,1051.251365463715,1051.776043455582,"[86, 0, 168]",168,l,0.001532848458737135,colour,0.06
035,70,1,1,13,31,631,1052.3000471829437,1052.8552505965345,"[81, 0, 173]",173,l,0.0319027011282742,colour,0.06
035,70,1,1,13,32,632,1053.3604414854199,1053.9352859952487,"[88, 0, 166]",166,l,0.051543403416872025,colour,0.06
035,70,1,1,13,33,633,1054.454249676317,1055.1032636435702,"[55, 0, 199]",199,a,0.12573294714093208,colour,0.06
035,70,1,1,13,34,634,1055.6104422733188,1056.2792753549293,"[62, 0, 192]",192,a,0.1455398523248732,colour,0.06
035,70,1,1,13,35,635,1056.7979432577267,1057.7112644659355,"[70, 0, 184]",184,l,0.3899429081939161,colour,0.06
035,70,1,1,13,36,636,1058.2073512128554,1059.007299146615,"[52, 0, 202]",202,a,0.2767598610371351,colour,0.06
035,70,1,1,13,37,637,1059.5197974531911,1060.1352242403664,"[56, 0, 198]",198,a,0.09214419173076749,colour,0.06
035,70,1,1,13,38,638,1060.6447238037363,1061.191267726943,"[99, 0, 155]",155,l,0.0231734998524189,colour,0.06
035,70,1,1,13,39,639,1061.707387840841,1062.3672739248723,"[27, 0, 227]",227,a,0.13996102521196008,colour,0.06
035,70,1,1,13,40,640,1062.8759082085453,1063.6313405255787,"[68, 0, 186]",186,a,0.2321174261160195,colour,0.06
035,70,1,1,13,41,641,1064.1414619716816,1064.8553459071554,"[98, 0, 156]",156,l,0.1904595554806292,colour,0.06
035,70,1,1,13,42,642,1065.3758633104153,1066.0152804339305,"[58, 0, 196]",196,a,0.11605851585045457,colour,0.06
035,70,1,1,13,43,643,1066.5321346763521,1067.1272614635527,"[57, 0, 197]",197,a,0.0717035885900259,colour,0.06
035,70,1,1,13,44,644,1067.6438734903932,1068.3112367391586,"[75, 0, 179]",179,l,0.14409325644373894,colour,0.06
035,70,1,1,13,45,645,1068.831293342635,1069.5512547143735,"[61, 0, 193]",193,a,0.19655629014596343,colour,0.06
035,70,1,1,13,46,646,1070.065736822784,1070.6632644943893,"[90, 0, 164]",164,l,0.07417378993704915,colour,0.06
035,70,1,1,13,47,647,1071.1750664813444,1071.8632728438824,"[87, 0, 167]",167,l,0.16485326876863837,colour,0.06
035,70,1,1,13,48,648,1072.3782295365818,1073.0072609432973,"[50, 0, 204]",204,a,0.1060737338848412,colour,0.06
035,70,1,1,13,49,649,1073.5188037799671,1074.1752141732723,"[76, 0, 178]",178,l,0.13334795786067843,colour,0.06
035,70,1,1,13,50,650,1074.6907738442533,1075.3992486996576,"[60, 0, 194]",194,a,0.18521628435701132,colour,0.06
035,70,1,1,14,1,651,1094.8765147314407,1095.6392725822516,"[76, 0, 178]",178,l,0.23861076356843114,colour,0.06
035,70,1,1,14,2,652,1096.1585753648542,1097.2952847979032,"[54, 0, 200]",200,a,0.6138159572146833,colour,0.06
035,70,1,1,14,3,653,1097.8159467428923,1098.7032276461832,"[80, 0, 174]",174,l,0.36398019129410386,colour,0.06
035,70,1,1,14,4,654,1099.2226745761,1100.119452680461,"[42, 0, 212]",212,a,0.37381767481565475,colour,0.06
035,70,1,1,14,5,655,1100.6283839242533,1101.6072395183146,"[72, 0, 182]",182,l,0.4557667709887028,colour,0.06
035,70,1,1,14,6,656,1102.128451271914,1103.0392621061765,"[93, 0, 161]",161,l,0.38788860803470016,colour,0.06
035,70,1,1,14,7,657,1103.5504457550123,1104.7192433904856,"[83, 0, 171]",171,l,0.6455953847616911,colour,0.06
035,70,1,1,14,8,658,1105.2269915211946,1106.2473060940392,"[98, 0, 156]",156,l,0.4946763846091926,colour,0.06
035,70,1,1,14,9,659,1106.761260448955,1107.7992449188605,"[94, 0, 160]",160,l,0.5147302313707769,colour,0.06
035,70,1,1,14,10,660,1108.308085578028,1109.3592359232716,"[87, 0, 167]",167,l,0.5277551095932722,colour,0.06
035,70,1,1,14,11,661,1109.8728862288408,1110.9992568129674,"[59, 0, 195]",195,a,0.6029863762669265,colour,0.06
035,70,1,1,14,12,662,1111.513567598071,1112.5752367801033,"[52, 0, 202]",202,a,0.5384117923676968,colour,0.06
035,70,1,1,14,13,663,1113.0923509607092,1114.1032451330684,"[71, 0, 183]",183,l,0.4885524744167924,colour,0.06
035,70,1,1,14,14,664,1114.6228618104942,1115.5672373757698,"[57, 0, 197]",197,a,0.4209756036289036,colour,0.06
035,70,1,1,14,15,665,1116.0760315614752,1116.9432235658169,"[95, 0, 159]",159,l,0.34397399984300137,colour,0.06
035,70,1,1,14,16,666,1117.4510473152623,1118.6472318144515,"[69, 0, 185]",185,l,0.6851800503209233,colour,0.06
035,70,1,1,14,17,667,1119.1574450270273,1120.0872482932173,"[74, 0, 180]",180,l,0.40688615990802646,colour,0.06
035,70,1,1,14,18,668,1120.5948719684966,1121.5111891627312,"[60, 0, 194]",194,a,0.3929830049164593,colour,0.06
035,70,1,1,14,19,669,1122.032398947049,1122.9751955838874,"[65, 0, 189]",189,a,0.4194868658669293,colour,0.06
035,70,1,1,14,20,670,1123.4854883532971,1124.3992388532497,"[68, 0, 186]",186,a,0.39057187968865037,colour,0.06
035,70,1,1,14,21,671,1124.8951869667508,1125.7512291930616,"[55, 0, 199]",199,a,0.33271433878690004,colour,0.06
035,70,1,1,14,22,672,1126.2702247756533,1127.0552463429049,"[97, 0, 157]",157,l,0.26179883629083633,colour,0.06
035,70,1,1,14,23,673,1127.5647486634552,1128.9753322484903,"[66, 0, 188]",188,a,0.8873088667169213,colour,0.06
035,70,1,1,14,24,674,1129.4865501620807,1130.7112302016467,"[88, 0, 166]",166,l,0.7013982320204377,colour,0.06
035,70,1,1,14,25,675,1131.2165829613805,1132.319203060586,"[92, 0, 162]",162,l,0.5793737377971411,colour,0.06
035,70,1,1,14,26,676,1132.831148407422,1133.8712269561365,"[91, 0, 163]",163,l,0.5167798055335879,colour,0.06
035,70,1,1,14,27,677,1134.3780160723254,1135.5592080387287,"[78, 0, 176]",176,l,0.6578790447674692,colour,0.06
035,70,1,1,14,28,678,1136.0655938568525,1137.0711833178066,"[58, 0, 196]",196,a,0.4823647611774504,colour,0.06
035,70,1,1,14,29,679,1137.5836635073647,1138.7191870706156,"[89, 0, 165]",165,l,0.6125891273841262,colour,0.06
035,70,1,1,14,30,680,1139.2399525968358,1140.52726910403,"[67, 0, 187]",187,l,0.7640016162768006,colour,0.06
035,70,1,1,14,31,681,1141.036752520129,1142.2392287082039,"[70, 0, 184]",184,l,0.6791833527386189,colour,0.06
035,70,1,1,14,32,682,1142.7555055720732,1143.8632149486803,"[75, 0, 179]",179,l,0.5843795193359256,colour,0.06
035,70,1,1,14,33,683,1144.3811538424343,1145.3432595636696,"[14, 0, 240]",240,a,0.4385813041590154,colour,0.06
035,70,1,1,14,34,684,1145.8501227223314,1147.055202232208,"[62, 0, 192]",192,a,0.6818292094394565,colour,0.06
035,70,1,1,14,35,685,1147.5688407225534,1148.4873504568823,"[51, 0, 203]",203,a,0.39536419743672013,colour,0.06
035,70,1,1,14,36,686,1149.0063779409975,1150.2072271513753,"[96, 0, 158]",158,l,0.6776182088069618,colour,0.06
035,70,1,1,14,37,687,1150.7251305994578,1152.6552414591424,"[63, 0, 191]",191,a,1.4068491379730403,colour,0.06
035,70,1,1,14,38,688,1153.1625496642664,1154.3192274793983,"[53, 0, 201]",201,a,0.6333900997415185,colour,0.06
035,70,1,1,14,39,689,1154.834435839206,1155.7912518158555,"[86, 0, 168]",168,l,0.4337283344939351,colour,0.06
035,70,1,1,14,40,690,1156.3031428116374,1157.367225481663,"[56, 0, 198]",198,a,0.5407079146243632,colour,0.06
035,70,1,1,14,41,691,1157.8826335216872,1159.1352037601173,"[64, 0, 190]",190,a,0.7292742519639432,colour,0.06
035,70,1,1,14,42,692,1159.648180195596,1160.9911955744028,"[61, 0, 193]",193,a,0.8321074219420552,colour,0.06
035,70,1,1,14,43,693,1161.510811070446,1162.5832558772527,"[84, 0, 170]",170,l,0.5492417681962252,colour,0.06
035,70,1,1,14,44,694,1163.0888910247013,1164.1832214547321,"[77, 0, 177]",177,l,0.5713625177741051,colour,0.06
035,70,1,1,14,45,695,1164.698343956843,1165.7992567340843,"[21, 0, 233]",233,a,0.5776837449520826,colour,0.06
035,70,1,1,14,46,696,1166.307625172194,1167.5111879813485,"[99, 0, 155]",155,l,0.680158908944577,colour,0.06
035,70,1,1,14,47,697,1168.0286566233262,1169.2071684682742,"[73, 0, 181]",181,l,0.6552434279583395,colour,0.06
035,70,1,1,14,48,698,1169.7161706048064,1171.0631732796319,"[90, 0, 164]",164,l,0.836036822758615,colour,0.06
035,70,1,1,14,49,699,1171.5787455537356,1172.9031781004742,"[81, 0, 173]",173,l,0.8010865421965718,colour,0.06
035,70,1,1,14,50,700,1173.4225462614559,1174.7271856875159,"[85, 0, 169]",169,l,0.7812536433339119,colour,0.06
035,70,1,1,15,1,701,1181.937354080379,1183.383346776478,"[74, 0, 180]",180,l,0.9218211905099452,colour,0.06
035,70,1,1,15,2,702,1183.891283559613,1184.6392064164393,"[54, 0, 200]",200,a,0.22465247055515647,colour,0.06
035,70,1,1,15,3,703,1185.1569204241969,1186.0712270350195,"[51, 0, 203]",203,a,0.3910291353240609,colour,0.06
035,70,1,1,15,4,704,1186.5787514611147,1187.6392012964934,"[35, 0, 219]",219,a,0.537186932284385,colour,0.06
035,70,1,1,15,5,705,1188.1580814821646,1189.1032061423175,"[95, 0, 159]",159,l,0.42181685846298933,colour,0.06
035,70,1,1,15,6,706,1189.6111622238532,1190.8312066965736,"[56, 0, 198]",198,a,0.6967736929655075,colour,0.06
035,70,1,1,15,7,707,1191.3455678941682,1192.03117093537,"[93, 0, 161]",161,l,0.16225743014365435,colour,0.06
035,70,1,1,15,8,708,1192.5487053496763,1193.7512193471193,"[91, 0, 163]",163,l,0.6791865034028888,colour,0.06
035,70,1,1,15,9,709,1194.2674556453712,1195.5031897583976,"[67, 0, 187]",187,a,0.7125598252750933,colour,0.06
035,70,1,1,15,10,710,1196.02101404313,1196.967163884081,"[99, 0, 155]",155,l,0.4241047096438706,colour,0.06
035,70,1,1,15,11,711,1197.472468201071,1198.3511719279923,"[82, 0, 172]",172,l,0.35533369798213243,colour,0.06
035,70,1,1,15,12,712,1198.8630672562867,1199.831278376747,"[58, 0, 196]",196,a,0.44482848793268204,colour,0.06
035,70,1,1,15,13,713,1200.3474166071974,1201.303353519179,"[94, 0, 160]",160,l,0.4325763350352645,colour,0.06
035,70,1,1,15,14,714,1201.8162531550042,1202.8231860245578,"[85, 0, 169]",169,l,0.4958130242303014,colour,0.06
035,70,1,1,15,15,715,1203.3353121466935,1204.3434946895577,"[52, 0, 202]",202,a,0.48501928290352225,colour,0.06
035,70,1,1,15,16,716,1204.8509730356745,1205.8711804822087,"[13, 0, 241]",241,a,0.49705285066738725,colour,0.06
035,70,1,1,15,17,717,1206.382509460207,1207.4871661369689,"[87, 0, 167]",167,l,0.5813977117650211,colour,0.06
035,70,1,1,15,18,718,1208.007455503568,1209.1831879778765,"[81, 0, 173]",173,l,0.6524754790589213,colour,0.06
035,70,1,1,15,19,719,1209.698615710251,1212.1433224999346,"[65, 0, 189]",189,l,1.9213221878744662,colour,0.06
035,70,1,1,15,20,720,1212.6517578917556,1213.599187338259,"[84, 0, 170]",170,l,0.42447728756815195,colour,0.06
035,70,1,1,15,21,721,1214.1204766798764,1215.1991576422006,"[86, 0, 168]",168,l,0.555399548728019,colour,0.06
035,70,1,1,15,22,722,1215.7142230365425,1217.0071809929796,"[75, 0, 179]",179,l,0.7696863887831569,colour,0.06
035,70,1,1,15,23,723,1217.5267559229396,1218.8551804916933,"[80, 0, 174]",174,l,0.8052085335366428,colour,0.06
035,70,1,1,15,24,724,1219.3704691966996,1220.5831255139783,"[96, 0, 158]",158,l,0.689399715512991,colour,0.06
035,70,1,1,15,25,725,1221.089232489001,1222.3431595265865,"[64, 0, 190]",190,a,0.7312836539931595,colour,0.06
035,70,1,1,15,26,726,1222.856423469726,1223.8791278991848,"[63, 0, 191]",191,a,0.49935054825618863,colour,0.06
035,70,1,1,15,27,727,1224.387671598699,1225.527148981113,"[70, 0, 184]",184,a,0.6161703686229885,colour,0.06
035,70,1,1,15,28,728,1226.0440177954733,1227.039132530801,"[97, 0, 157]",157,l,0.471916816662997,colour,0.06
035,70,1,1,15,29,729,1227.5595298111439,1228.4871807093732,"[50, 0, 204]",204,a,0.40431040758267045,colour,0.06
035,70,1,1,15,30,730,1228.9970674235374,1230.0951571129262,"[76, 0, 178]",178,l,0.5748177277855575,colour,0.06
035,70,1,1,15,31,731,1230.6064537954517,1231.583136541769,"[68, 0, 186]",186,l,0.4540681131184101,colour,0.06
035,70,1,1,15,32,732,1232.0908283526078,1233.1031624251045,"[73, 0, 181]",181,l,0.4884075387381017,colour,0.06
035,70,1,1,15,33,733,1233.6232812562957,1234.5831444184296,"[92, 0, 162]",162,l,0.436538424808532,colour,0.06
035,70,1,1,15,34,734,1235.0920087089762,1236.191203923896,"[69, 0, 185]",185,a,0.5883565754629672,colour,0.06
035,70,1,1,15,35,735,1236.7045415160246,1237.6391422194429,"[71, 0, 183]",183,a,0.4112676954828203,colour,0.06
035,70,1,1,15,36,736,1238.1576561285183,1239.2151438482106,"[57, 0, 197]",197,a,0.5341826751828194,colour,0.06
035,70,1,1,15,37,737,1239.7358782608062,1240.9191225585528,"[66, 0, 188]",188,a,0.6599018378183246,colour,0.06
035,70,1,1,15,38,738,1241.4402677523904,1242.4634522800334,"[78, 0, 176]",176,l,0.49979677563533187,colour,0.06
035,70,1,1,15,39,739,1242.9730223421939,1243.9111641142517,"[60, 0, 194]",194,a,0.41476662270724773,colour,0.06
035,70,1,1,15,40,740,1244.4261853974313,1245.3114651697688,"[98, 0, 156]",156,l,0.36204680148512125,colour,0.06
035,70,1,1,15,41,741,1245.8324138345197,1246.9591191872023,"[88, 0, 166]",166,l,0.6034101541154087,colour,0.06
035,70,1,1,15,42,742,1247.4720522998832,1248.4311494315043,"[41, 0, 213]",213,a,0.43581965612247586,colour,0.06
035,70,1,1,15,43,743,1248.9520914005116,1249.959136910271,"[89, 0, 165]",165,l,0.4838475910946727,colour,0.06
035,70,1,1,15,44,744,1250.4676687945612,1251.5191216133535,"[77, 0, 177]",177,l,0.5283013740554452,colour,0.06
035,70,1,1,15,45,745,1252.0308574340306,1253.0951389963739,"[62, 0, 192]",192,a,0.5410418957471848,colour,0.06
035,70,1,1,15,46,746,1253.60895747412,1254.607176109217,"[90, 0, 164]",164,l,0.47501677786931396,colour,0.06
035,70,1,1,15,47,747,1255.1244604312815,1256.17527206894,"[55, 0, 199]",199,a,0.5273029748350382,colour,0.06
035,70,1,1,15,48,748,1256.6870086775161,1257.71113489056,"[53, 0, 201]",201,a,0.5008318023756146,colour,0.06
035,70,1,1,15,49,749,1258.2195990332402,1259.2391152805649,"[61, 0, 193]",193,a,0.4964754730463028,colour,0.06
035,70,1,1,15,50,750,1259.7509353840724,1260.8791523175314,"[59, 0, 195]",195,a,0.6050871503539383,colour,0.06
035,70,1,1,16,1,751,1274.1598254316486,1275.4791147448123,"[52, 0, 202]",202,a,0.8016903079114854,colour,0.06
035,70,1,1,16,2,752,1275.9985171700828,1277.0232195802964,"[73, 0, 181]",181,l,0.5013032364659011,colour,0.06
035,70,1,1,16,3,753,1277.529753090348,1278.2950882688165,"[78, 0, 176]",176,l,0.24201319832354784,colour,0.06
035,70,1,1,16,4,754,1278.8110555703752,1279.9271306279115,"[94, 0, 160]",160,l,0.592781828250736,colour,0.06
035,70,1,1,16,5,755,1280.4359964933246,1281.4311269824393,"[97, 0, 157]",157,l,0.4717293460853398,colour,0.06
035,70,1,1,16,6,756,1281.9516258747317,1282.895197600592,"[51, 0, 203]",203,a,0.4176708427257836,colour,0.06
035,70,1,1,16,7,757,1283.4072512546554,1284.4551259833388,"[58, 0, 196]",196,a,0.5245610191486776,colour,0.06
035,70,1,1,16,8,758,1284.9697774457745,1285.9351087645628,"[79, 0, 175]",175,l,0.4420101265423,colour,0.06
035,70,1,1,16,9,759,1286.4541468825191,1287.4471072806045,"[67, 0, 187]",187,l,0.46959273191168904,colour,0.06
035,70,1,1,16,10,760,1287.9637626307085,1288.751164208632,"[91, 0, 163]",163,l,0.2639760165475309,colour,0.06
035,70,1,1,16,11,761,1289.2488960498013,1290.1591326566413,"[84, 0, 170]",170,l,0.38680553110316396,colour,0.06
035,70,1,1,16,12,762,1290.6707542622462,1291.7031220956706,"[83, 0, 171]",171,l,0.5090360073372722,colour,0.06
035,70,1,1,16,13,763,1292.2176376809366,1293.0071549988352,"[10, 0, 244]",244,a,0.26292129699140787,colour,0.06
035,70,1,1,16,14,764,1293.5054756398313,1294.4550834479742,"[71, 0, 183]",183,l,0.4263165481388569,colour,0.06
035,70,1,1,16,15,765,1294.9742125445046,1295.8711367654614,"[24, 0, 230]",230,a,0.3735947576351464,colour,0.06
035,70,1,1,16,16,766,1296.3804224706255,1297.2950941766612,"[87, 0, 167]",167,l,0.39129222417250276,colour,0.06
035,70,1,1,16,17,767,1297.8157380041666,1298.6951238727197,"[70, 0, 184]",184,l,0.35613084211945534,colour,0.06
035,70,1,1,16,18,768,1299.2063587214798,1300.751132701058,"[62, 0, 192]",192,a,1.0220671868883073,colour,0.06
035,70,1,1,16,19,769,1301.2688002353534,1302.2310902760364,"[85, 0, 169]",169,l,0.4390586456283927,colour,0.06
035,70,1,1,16,20,770,1302.7375914906152,1303.6551079452038,"[16, 0, 238]",238,a,0.39422755781561136,colour,0.06
035,70,1,1,16,21,771,1304.1751850289293,1305.0631098705344,"[95, 0, 159]",159,l,0.36462019057944417,colour,0.06
035,70,1,1,16,22,772,1305.5814304011874,1307.175118075218,"[65, 0, 189]",189,l,1.0704818787053227,colour,0.06
035,70,1,1,16,23,773,1307.6907935366035,1308.6231158412993,"[88, 0, 166]",166,l,0.40907515538856387,colour,0.06
035,70,1,1,16,24,774,1309.1439262656495,1310.087258533109,"[59, 0, 195]",195,a,0.4207893144339323,colour,0.06
035,70,1,1,16,25,775,1310.5970038566738,1311.5831022770144,"[54, 0, 200]",200,a,0.46277683414518833,colour,0.06
035,70,1,1,16,26,776,1312.087700821925,1313.047132329084,"[89, 0, 165]",165,l,0.43626627745106816,colour,0.06
035,70,1,1,16,27,777,1313.5564495422877,1314.903077275958,"[64, 0, 190]",190,l,0.823243526276201,colour,0.06
035,70,1,1,16,28,778,1315.4158477298915,1316.3110595084727,"[57, 0, 197]",197,a,0.37186616798862815,colour,0.06
035,70,1,1,16,29,779,1316.8220958588645,1317.7750879852101,"[72, 0, 182]",182,l,0.4296937766484916,colour,0.06
035,70,1,1,16,30,780,1318.2922679381445,1319.7430931241252,"[66, 0, 188]",188,l,0.9275370766408741,colour,0.06
035,70,1,1,16,31,781,1320.2609725473449,1321.1351088434458,"[55, 0, 199]",199,a,0.3511073375120759,colour,0.06
035,70,1,1,16,32,782,1321.6516590365209,1322.5111068487167,"[93, 0, 161]",161,l,0.3364338194951415,colour,0.06
035,70,1,1,16,33,783,1323.026541276835,1324.2630961644463,"[81, 0, 173]",173,l,0.7131265690550208,colour,0.06
035,70,1,1,16,34,784,1324.7766279228963,1325.7751234313473,"[76, 0, 178]",178,l,0.4756280267611146,colour,0.06
035,70,1,1,16,35,785,1326.2922191014513,1327.3191542238928,"[53, 0, 201]",201,a,0.49896576069295406,colour,0.06
035,70,1,1,16,36,786,1327.8157852659933,1328.7190984552726,"[98, 0, 156]",156,l,0.38011172600090504,colour,0.06
035,70,1,1,16,37,787,1329.2387478221208,1330.2310705836862,"[92, 0, 162]",162,l,0.46725919470191,colour,0.06
035,70,1,1,16,38,788,1330.740918701049,1331.8153063491918,"[86, 0, 168]",168,l,0.5511326221749187,colour,0.06
035,70,1,1,16,39,789,1332.3346008607186,1333.2950689704157,"[90, 0, 164]",164,l,0.4423795542679727,colour,0.06
035,70,1,1,16,40,790,1333.813853845466,1335.0551037704572,"[63, 0, 191]",191,l,0.71668929932639,colour,0.06
035,70,1,1,16,41,791,1335.5650412910618,1336.367275106255,"[80, 0, 174]",174,l,0.27889529382809997,colour,0.06
035,70,1,1,16,42,792,1336.8711328268982,1337.7671208763495,"[68, 0, 186]",186,a,0.38520297268405557,colour,0.06
035,70,1,1,16,43,793,1338.2835718202405,1339.3990687117912,"[74, 0, 180]",180,l,0.5922615574672818,colour,0.06
035,70,1,1,16,44,794,1339.908596238587,1340.9511008784175,"[77, 0, 177]",177,l,0.5193236563354731,colour,0.06
035,70,1,1,16,45,795,1341.4710346017964,1342.4870586171746,"[96, 0, 158]",158,l,0.4927236968651414,colour,0.06
035,70,1,1,16,46,796,1343.002422939986,1343.9591140672565,"[50, 0, 204]",204,a,0.4334660330787301,colour,0.06
035,70,1,1,16,47,797,1344.4711527554318,1345.3591622742824,"[99, 0, 155]",155,l,0.36469384003430605,colour,0.06
035,70,1,1,16,48,798,1345.8774442076683,1347.0950791314244,"[60, 0, 194]",194,a,0.6942601683549583,colour,0.06
035,70,1,1,16,49,799,1347.6117474786006,1348.5190975889564,"[82, 0, 172]",172,l,0.3840076504275203,colour,0.06
035,70,1,1,16,50,800,1349.0336651615798,1349.9831288224086,"[56, 0, 198]",198,a,0.4261920927092433,colour,0.06
