id,age,condition,counterbalance,block,trialinblock,trial,tstart,tend,trialstim,trialintensity,response,RT,trialtype,colourfreq
123,21,1,1,Practice,1,NA,5.515292286872864e-06,1.4040179401636124,"[42, 0, 212]",212,a,0.8027161993086338,colour,0.5
123,21,1,1,Practice,2,NA,1.922921173274517,2.5000533666461706,"[14, 0, 240]",240,a,0.0549702774733305,colour,0.5
123,21,1,1,Practice,3,NA,3.0166541766375303,5.764004675671458,"[59, 0, 195]",195,a,2.225099181756377,colour,0.5
123,21,1,1,Practice,4,NA,6.282458923757076,6.8920530918985605,"[10, 0, 244]",244,a,0.08725856617093086,colour,0.5
123,21,1,1,Practice,5,NA,7.407881176099181,8.340001409873366,"[71, 0, 183]",183,l,0.41012727841734886,colour,0.5
123,21,1,1,Practice,6,NA,8.845181865617633,9.38001262769103,"[13, 0, 241]",241,a,0.012560145929455757,colour,0.5
123,21,1,1,Practice,7,NA,9.892179124057293,10.436019508168101,"[73, 0, 181]",181,l,0.02149926871061325,colour,0.5
123,21,1,1,Practice,8,NA,10.954733302816749,12.628017107024789,"[62, 0, 192]",192,a,1.1509734094142914,colour,0.5
123,21,1,1,Practice,9,NA,13.142423013225198,13.90801409818232,"[49, 0, 205]",205,a,0.24325351417064667,colour,0.5
123,21,1,1,Practice,10,NA,14.42377207800746,15.004049131646752,"[52, 0, 202]",202,a,0.05799816735088825,colour,0.5
123,21,1,1,1,1,1,4.410567205399275,4.95201064273715,"[23, 0, 231]",231,a,0.018439872190356255,colour,0.5
123,21,1,1,1,2,2,5.458264721557498,6.4799758810549974,"[80, 0, 174]",174,l,0.49944369308650494,colour,0.5
123,21,1,1,1,3,3,6.98963987827301,7.56000697799027,"[33, 0, 221]",221,a,0.04808860458433628,colour,0.5
123,21,1,1,1,4,4,8.067843925207853,9.128000367432833,"[83, 0, 171]",171,l,0.5378558933734894,colour,0.5
123,21,1,1,1,5,5,9.646136390045285,10.431964468210936,"[79, 0, 175]",175,l,0.26423960365355015,colour,0.5
123,21,1,1,1,6,6,10.943080183118582,11.472004435956478,"[96, 0, 158]",158,l,0.00658549927175045,colour,0.5
123,21,1,1,1,7,7,11.990058930590749,12.647996524348855,"[68, 0, 186]",186,a,0.1356205027550459,colour,0.5
123,21,1,1,1,8,8,13.162062540650368,13.719971895217896,"[42, 0, 212]",212,a,0.035695845261216164,colour,0.5
123,21,1,1,1,9,9,14.240243349224329,15.36795306019485,"[28, 0, 226]",226,a,0.6054008901119232,colour,0.5
123,21,1,1,1,10,10,15.880948996171355,16.40848572924733,"[89, 0, 165]",165,l,0.005223581567406654,colour,0.5
123,21,1,1,1,11,11,16.92825384810567,17.975984446704388,"[12, 0, 242]",242,a,0.525721101090312,colour,0.5
123,21,1,1,1,12,12,18.490670377388597,19.31997551769018,"[50, 0, 204]",204,a,0.30709320679306984,colour,0.5
123,21,1,1,1,13,13,19.834395602345467,20.49599871970713,"[74, 0, 180]",180,l,0.13938606344163418,colour,0.5
123,21,1,1,1,14,14,21.006357856094837,21.895989583805203,"[88, 0, 166]",166,l,0.36731345392763615,colour,0.5
123,21,1,1,1,15,15,22.412753839045763,23.39196703583002,"[92, 0, 162]",162,l,0.456913435831666,colour,0.5
123,21,1,1,1,16,16,23.897259736433625,24.53598315641284,"[44, 0, 210]",210,a,0.1167383398860693,colour,0.5
123,21,1,1,1,17,17,25.053559916093946,25.64796265400946,"[54, 0, 200]",200,a,0.07238339446485043,colour,0.5
123,21,1,1,1,18,18,26.163020374253392,27.175999965518713,"[66, 0, 188]",188,a,0.49064871668815613,colour,0.5
123,21,1,1,1,19,19,27.694341966882348,28.23199109174311,"[35, 0, 219]",219,a,0.015401743352413177,colour,0.5
123,21,1,1,1,20,20,28.741415238007903,29.73599197715521,"[78, 0, 176]",176,l,0.47235456481575966,colour,0.5
123,21,1,1,1,21,21,30.241517834365368,31.135952908545732,"[56, 0, 198]",198,a,0.37217824161052704,colour,0.5
123,21,1,1,1,22,22,31.647922087460756,32.54393648356199,"[47, 0, 207]",207,a,0.3741281721740961,colour,0.5
123,21,1,1,1,23,23,33.05421133711934,33.82401933334768,"[52, 0, 202]",202,a,0.24765277653932571,colour,0.5
123,21,1,1,1,24,24,34.335533225908875,35.19195427559316,"[29, 0, 225]",225,a,0.3341953307390213,colour,0.5
123,21,1,1,1,25,25,35.710630260407925,36.336026322096586,"[30, 0, 224]",224,a,0.10306400433182716,colour,0.5
123,21,1,1,1,26,26,36.851330982521176,37.43999105133116,"[85, 0, 169]",169,l,0.06633667647838593,colour,0.5
123,21,1,1,1,27,27,37.94523767195642,38.59197782725096,"[38, 0, 216]",216,a,0.12451994977891445,colour,0.5
123,21,1,1,1,28,28,39.10155557282269,39.991950968280435,"[65, 0, 189]",189,a,0.36814446933567524,colour,0.5
123,21,1,1,1,29,29,40.50796888396144,41.21595131792128,"[15, 0, 239]",239,a,0.1857322957366705,colour,0.5
123,21,1,1,1,30,30,41.72680079191923,42.60791638493538,"[48, 0, 206]",206,a,0.3589009027928114,colour,0.5
123,21,1,1,1,31,31,43.117501612752676,43.887979147955775,"[58, 0, 196]",196,a,0.24816359393298626,colour,0.5
123,21,1,1,1,32,32,44.398973951116204,44.94397263787687,"[62, 0, 192]",192,a,0.02280171774327755,colour,0.5
123,21,1,1,1,33,33,45.46143439412117,46.36794478818774,"[72, 0, 182]",182,a,0.38419881649315357,colour,0.5
123,21,1,1,1,34,34,46.88348378799856,48.66394610889256,"[9, 0, 245]",245,l,1.2582165151834488,colour,0.5
123,21,1,1,1,35,35,49.180502807721496,50.07198403403163,"[31, 0, 223]",223,a,0.36934569850564003,colour,0.5
123,21,1,1,1,36,36,50.58753760717809,51.17595861107111,"[51, 0, 203]",203,a,0.06705111265182495,colour,0.5
123,21,1,1,1,37,37,51.69632813334465,52.39198712259531,"[95, 0, 159]",159,l,0.1733824647963047,colour,0.5
123,21,1,1,1,38,38,52.89961808733642,53.71193861588836,"[84, 0, 170]",170,l,0.2901672776788473,colour,0.5
123,21,1,1,1,39,39,54.227821838110685,55.09598974138498,"[90, 0, 164]",164,l,0.3459985051304102,colour,0.5
123,21,1,1,1,40,40,55.602844435721636,56.367944395169616,"[34, 0, 220]",220,a,0.2429600991308689,colour,0.5
123,21,1,1,1,41,41,56.88421791791916,57.6559699382633,"[39, 0, 215]",215,a,0.24953024089336395,colour,0.5
123,21,1,1,1,42,42,58.165606366470456,58.96795628964901,"[8, 0, 246]",246,a,0.28012892976403236,colour,0.5
123,21,1,1,1,43,43,59.47826146893203,60.19994856417179,"[22, 0, 232]",232,a,0.19953266344964504,colour,0.5
123,21,1,1,1,44,44,60.71261721290648,61.6240022405982,"[76, 0, 178]",178,l,0.38908841647207737,colour,0.5
123,21,1,1,1,45,45,62.134586656466126,63.031984239816666,"[49, 0, 205]",205,a,0.3750824611634016,colour,0.5
123,21,1,1,1,46,46,63.54107007198036,64.12794601731002,"[46, 0, 208]",208,a,0.06460532918572426,colour,0.5
123,21,1,1,1,47,47,64.63482237234712,65.59997054003179,"[20, 0, 234]",234,a,0.4428803063929081,colour,0.5
123,21,1,1,1,48,48,66.11935032717884,66.89595768228173,"[21, 0, 233]",233,a,0.25452854111790657,colour,0.5
123,21,1,1,1,49,49,67.41630869358778,68.07195489108562,"[5, 0, 249]",249,a,0.133620947599411,colour,0.5
123,21,1,1,1,50,50,68.5882449541241,69.25596686638892,"[41, 0, 213]",213,a,0.14544105529785156,colour,0.5
123,21,1,1,2,1,51,73.91613008454442,74.85597757808864,"[77, 0, 177]",177,l,0.41683605313301086,colour,0.5
123,21,1,1,2,2,52,75.36996876448393,76.10397693887353,"[31, 0, 223]",223,a,0.21189312636852264,colour,0.5
123,21,1,1,2,3,53,76.62016657367349,77.47195165976882,"[99, 0, 155]",155,l,0.3297736197710037,colour,0.5
123,21,1,1,2,4,54,77.9796574562788,78.79998960159719,"[83, 0, 171]",171,l,0.29813675209879875,colour,0.5
123,21,1,1,2,5,55,79.30785569362342,80.34398319385946,"[58, 0, 196]",196,l,0.5137962307780981,colour,0.5
123,21,1,1,2,6,56,80.85487795993686,81.68799238093197,"[49, 0, 205]",205,a,0.31093123741447926,colour,0.5
123,21,1,1,2,7,57,82.19872055202723,83.02398995123804,"[21, 0, 233]",233,a,0.30320633947849274,colour,0.5
123,21,1,1,2,8,58,83.54259819351137,84.52792270109057,"[36, 0, 218]",218,a,0.46308815479278564,colour,0.5
123,21,1,1,2,9,59,85.0427011847496,85.97594939544797,"[97, 0, 157]",157,l,0.41103036887943745,colour,0.5
123,21,1,1,2,10,60,86.4959416128695,87.14396688900888,"[25, 0, 229]",229,a,0.12647539749741554,colour,0.5
123,21,1,1,2,11,61,87.65228235721588,88.98396416381001,"[67, 0, 187]",187,l,0.8094879891723394,colour,0.5
123,21,1,1,2,12,62,89.49615192599595,90.367963694036,"[70, 0, 184]",184,l,0.3500578757375479,colour,0.5
123,21,1,1,2,13,63,90.88693900033832,91.43195383436978,"[56, 0, 198]",198,a,0.02303408831357956,colour,0.5
123,21,1,1,2,14,64,91.94952311180532,92.74395672790706,"[30, 0, 224]",224,a,0.2724572028964758,colour,0.5
123,21,1,1,2,15,65,93.26217900030315,93.79998487606645,"[29, 0, 225]",225,a,0.015777867287397385,colour,0.5
123,21,1,1,2,16,66,94.3090391997248,95.30397788435221,"[48, 0, 206]",206,a,0.4725325834006071,colour,0.5
123,21,1,1,2,17,67,95.80921938456595,96.42411078326404,"[81, 0, 173]",173,l,0.0925309844315052,colour,0.5
123,21,1,1,2,18,68,96.93425094150007,97.65593882463872,"[24, 0, 230]",230,a,0.19941568933427334,colour,0.5
123,21,1,1,2,19,69,98.16874807700515,98.72794964164495,"[80, 0, 174]",174,l,0.036979783326387405,colour,0.5
123,21,1,1,2,20,70,99.24690407328308,99.90394015423954,"[1, 0, 253]",253,a,0.13473001681268215,colour,0.5
123,21,1,1,2,21,71,100.41896991059184,101.22397790104151,"[69, 0, 185]",185,l,0.28284922428429127,colour,0.5
123,21,1,1,2,22,72,101.73157972097397,102.59194120019674,"[92, 0, 162]",162,l,0.3381361551582813,colour,0.5
123,21,1,1,2,23,73,103.10663736984134,103.87193543463945,"[35, 0, 219]",219,a,0.24298097379505634,colour,0.5
123,21,1,1,2,24,74,104.38804629817605,104.9759734198451,"[78, 0, 176]",176,l,0.0657285787165165,colour,0.5
123,21,1,1,2,25,75,105.48177575692534,106.63993016257882,"[68, 0, 186]",186,l,0.6358692161738873,colour,0.5
123,21,1,1,2,26,76,107.15377798862755,108.00795135833323,"[2, 0, 252]",252,a,0.3320721071213484,colour,0.5
123,21,1,1,2,27,77,108.51334567181766,109.29592806473374,"[16, 0, 238]",238,a,0.26040590554475784,colour,0.5
123,21,1,1,2,28,78,109.81030167452991,110.5519433747977,"[13, 0, 241]",241,a,0.21930058486759663,colour,0.5
123,21,1,1,2,29,79,111.0604636427015,112.32025869376957,"[53, 0, 201]",201,l,0.7375996578484774,colour,0.5
123,21,1,1,2,30,80,112.82621463015676,113.3919481318444,"[4, 0, 250]",250,a,0.0435731615871191,colour,0.5
123,21,1,1,2,31,81,113.90443718805909,114.56793825142086,"[85, 0, 169]",169,l,0.14135253801941872,colour,0.5
123,21,1,1,2,32,82,115.07634706236422,115.61594690568745,"[14, 0, 240]",240,a,0.01743556559085846,colour,0.5
123,21,1,1,2,33,83,116.12330808676779,116.93595787137747,"[43, 0, 211]",211,a,0.2903323005884886,colour,0.5
123,21,1,1,2,34,84,117.45153664983809,118.24791350215673,"[17, 0, 237]",237,a,0.27421848103404045,colour,0.5
123,21,1,1,2,35,85,118.76413661241531,119.51993904821575,"[55, 0, 199]",199,a,0.23374961502850056,colour,0.5
123,21,1,1,2,36,86,120.02991339750588,120.81597108766437,"[65, 0, 189]",189,a,0.2639186177402735,colour,0.5
123,21,1,1,2,37,87,121.32673194818199,122.07195410318673,"[37, 0, 217]",217,a,0.22290821559727192,colour,0.5
123,21,1,1,2,38,88,122.57692936249077,123.2559381145984,"[11, 0, 243]",243,a,0.15678027644753456,colour,0.5
123,21,1,1,2,39,89,123.76450407132506,124.50394377671182,"[84, 0, 170]",170,l,0.21709386445581913,colour,0.5
123,21,1,1,2,40,90,125.01460893265903,125.83995198272169,"[88, 0, 166]",166,l,0.30302044562995434,colour,0.5
123,21,1,1,2,41,91,126.35843970812857,127.0159259531647,"[7, 0, 247]",247,a,0.1352487113326788,colour,0.5
123,21,1,1,2,42,92,127.53048112615943,128.27994421496987,"[0, 0, 254]",254,a,0.22722004167735577,colour,0.5
123,21,1,1,2,43,93,128.79611021839082,129.39195088855922,"[71, 0, 183]",183,l,0.07353303208947182,colour,0.5
123,21,1,1,2,44,94,129.90559982135892,130.5519571583718,"[34, 0, 220]",220,a,0.1240264605730772,colour,0.5
123,21,1,1,2,45,95,131.0619803443551,131.63994630984962,"[27, 0, 227]",227,a,0.05580601841211319,colour,0.5
123,21,1,1,2,46,96,132.1557503696531,132.80791024118662,"[63, 0, 191]",191,l,0.12979355081915855,colour,0.5
123,21,1,1,2,47,97,133.32781659998,134.39994478225708,"[38, 0, 216]",216,a,0.5499166417866945,colour,0.5
123,21,1,1,2,48,98,134.9059491623193,135.79996912181377,"[72, 0, 182]",182,l,0.37164379097521305,colour,0.5
123,21,1,1,2,49,99,136.31237428821623,137.55993490479887,"[60, 0, 194]",194,a,0.7253175675868988,colour,0.5
123,21,1,1,2,50,100,138.0781489070505,138.99995746463537,"[64, 0, 190]",190,a,0.3995934724807739,colour,0.5
123,21,1,1,3,1,101,143.68722359277308,144.37594813480973,"[97, 0, 157]",157,l,0.16575445421040058,colour,0.5
123,21,1,1,3,2,102,144.89127918332815,145.74394333548844,"[94, 0, 160]",160,l,0.33045261166989803,colour,0.5
123,21,1,1,3,3,103,146.25073934718966,146.7919563241303,"[93, 0, 161]",161,l,0.018643885850906372,colour,0.5
123,21,1,1,3,4,104,147.29760624282062,148.24796942807734,"[62, 0, 192]",192,a,0.4280795715749264,colour,0.5
123,21,1,1,3,5,105,148.76650914177299,149.59993312507868,"[44, 0, 210]",210,a,0.31115061044692993,colour,0.5
123,21,1,1,3,6,106,150.1103694550693,150.7279350683093,"[96, 0, 158]",158,l,0.09527648612856865,colour,0.5
123,21,1,1,3,7,107,151.23543921485543,152.30395149625838,"[53, 0, 201]",201,a,0.5462463907897472,colour,0.5
123,21,1,1,3,8,108,152.81355996243656,154.51996464841068,"[65, 0, 189]",189,a,1.1839820444583893,colour,0.5
123,21,1,1,3,9,109,155.0326088797301,155.84793760441244,"[98, 0, 156]",156,l,0.2930809501558542,colour,0.5
123,21,1,1,3,10,110,156.36088115908206,157.1599499490112,"[83, 0, 171]",171,l,0.27680289931595325,colour,0.5
123,21,1,1,3,11,111,157.6734500080347,158.3919489197433,"[78, 0, 176]",176,l,0.19618615321815014,colour,0.5
123,21,1,1,3,12,112,158.90799991972744,159.46397745981812,"[41, 0, 213]",213,a,0.033702196553349495,colour,0.5
123,21,1,1,3,13,113,159.97048517502844,160.74392718821764,"[56, 0, 198]",198,a,0.2513238154351711,colour,0.5
123,21,1,1,3,14,114,161.25186102092266,161.9519291166216,"[25, 0, 229]",229,a,0.17782426066696644,colour,0.5
123,21,1,1,3,15,115,162.4707350693643,163.06395312026143,"[46, 0, 208]",208,a,0.0711349043995142,colour,0.5
123,21,1,1,3,16,116,163.58017071709037,164.20796214975417,"[12, 0, 242]",242,a,0.1054786741733551,colour,0.5
123,21,1,1,3,17,117,164.72091397456825,165.63190988078713,"[35, 0, 219]",219,a,0.3889832589775324,colour,0.5
123,21,1,1,3,18,118,166.14291177503765,166.94393679872155,"[0, 0, 254]",254,a,0.2788871321827173,colour,0.5
123,21,1,1,3,19,119,167.455521190539,168.1279263254255,"[71, 0, 183]",183,l,0.1501778420060873,colour,0.5
123,21,1,1,3,20,120,168.64305611886084,169.67995280213654,"[85, 0, 169]",169,l,0.5147654879838228,colour,0.5
123,21,1,1,3,21,121,170.19005160592496,170.93595353886485,"[30, 0, 224]",224,a,0.2236005961894989,colour,0.5
123,21,1,1,3,22,122,171.4557937309146,172.19993595965207,"[49, 0, 205]",205,a,0.22183458879590034,colour,0.5
123,21,1,1,3,23,123,172.70592064782977,173.4239571839571,"[76, 0, 178]",178,l,0.19579585082828999,colour,0.5
123,21,1,1,3,24,124,173.9403748549521,174.57596207782626,"[69, 0, 185]",185,l,0.11333275400102139,colour,0.5
123,21,1,1,3,25,125,175.0811267774552,175.61596029624343,"[24, 0, 230]",230,a,0.012583380565047264,colour,0.5
123,21,1,1,3,26,126,176.12808465212584,177.09592042304575,"[61, 0, 193]",193,l,0.4456447120755911,colour,0.5
123,21,1,1,3,27,127,177.61249563284218,178.13601159118116,"[3, 0, 251]",251,a,0.0011673588305711746,colour,0.5
123,21,1,1,3,28,128,178.6594680789858,179.41597668081522,"[26, 0, 228]",228,a,0.2343167532235384,colour,0.5
123,21,1,1,3,29,129,179.92512710392475,180.83195651322603,"[66, 0, 188]",188,l,0.384518226608634,colour,0.5
123,21,1,1,3,30,130,181.34725487232208,182.23192768357694,"[70, 0, 184]",184,l,0.3625069558620453,colour,0.5
123,21,1,1,3,31,131,182.73795215040445,183.5679024104029,"[39, 0, 215]",215,a,0.3076571933925152,colour,0.5
123,21,1,1,3,32,132,184.08178843930364,184.79193505644798,"[79, 0, 175]",175,l,0.1877810824662447,colour,0.5
123,21,1,1,3,33,133,185.3006707597524,186.1439267154783,"[67, 0, 187]",187,l,0.32095107436180115,colour,0.5
123,21,1,1,3,34,134,186.6601439192891,187.40792174078524,"[19, 0, 235]",235,a,0.22555367834866047,colour,0.5
123,21,1,1,3,35,135,187.92581633478403,188.64794217422605,"[16, 0, 238]",238,a,0.1997311618179083,colour,0.5
123,21,1,1,3,36,136,189.1603304054588,189.93593581579626,"[45, 0, 209]",209,a,0.2533430643379688,colour,0.5
123,21,1,1,3,37,137,190.44160582125187,191.24792964942753,"[38, 0, 216]",216,a,0.28399098478257656,colour,0.5
123,21,1,1,3,38,138,191.7542786449194,192.54393136315048,"[11, 0, 243]",243,a,0.2676790617406368,colour,0.5
123,21,1,1,3,39,139,193.0513027831912,193.73597110435367,"[2, 0, 252]",252,a,0.16244378313422203,colour,0.5
123,21,1,1,3,40,140,194.2544848229736,195.27994894236326,"[52, 0, 202]",202,a,0.5033285915851593,colour,0.5
123,21,1,1,3,41,141,195.78583044186234,196.55990930460393,"[22, 0, 232]",232,a,0.2518850453197956,colour,0.5
123,21,1,1,3,42,142,197.0672909654677,197.6159583274275,"[75, 0, 179]",179,l,0.02649599500000477,colour,0.5
123,21,1,1,3,43,143,198.1297951247543,198.80792481265962,"[8, 0, 246]",246,a,0.15598943270742893,colour,0.5
123,21,1,1,3,44,144,199.31743717938662,200.10394740104675,"[37, 0, 217]",217,a,0.2643983233720064,colour,0.5
123,21,1,1,3,45,145,200.61431401968002,201.41594123467803,"[6, 0, 248]",248,a,0.2793404497206211,colour,0.5
123,21,1,1,3,46,146,201.92699157074094,202.71194058656693,"[72, 0, 182]",182,l,0.2627591360360384,colour,0.5
123,21,1,1,3,47,147,203.22394599951804,203.75993860699236,"[18, 0, 236]",236,a,0.01373065635561943,colour,0.5
123,21,1,1,3,48,148,204.27091686986387,204.90390825271606,"[87, 0, 167]",167,l,0.11096731387078762,colour,0.5
123,21,1,1,3,49,149,205.41153685376048,206.51194318570197,"[99, 0, 155]",155,l,0.5780943613499403,colour,0.5
123,21,1,1,3,50,150,207.02113299258053,208.01594328321517,"[48, 0, 206]",206,a,0.4725751206278801,colour,0.5
123,21,1,1,4,1,151,213.02067101188004,215.9039307013154,"[83, 0, 171]",171,l,2.360046599060297,colour,0.5
123,21,1,1,4,2,152,216.41252737678587,217.3199247121811,"[90, 0, 164]",164,l,0.38516373932361603,colour,0.5
123,21,1,1,4,3,153,217.8344519212842,218.99194820970297,"[76, 0, 178]",178,l,0.6351965256035328,colour,0.5
123,21,1,1,4,4,154,219.50651559233665,220.25593456998467,"[16, 0, 238]",238,a,0.22704399190843105,colour,0.5
123,21,1,1,4,5,155,220.77217816188931,221.47991050221026,"[38, 0, 216]",216,a,0.18595442548394203,colour,0.5
123,21,1,1,4,6,156,221.99110537953675,223.08794464729726,"[15, 0, 239]",239,a,0.5745678618550301,colour,0.5
123,21,1,1,4,7,157,223.6005770638585,224.3039589803666,"[92, 0, 162]",162,l,0.1810671892017126,colour,0.5
123,21,1,1,4,8,158,224.8194389026612,225.63991834782064,"[99, 0, 155]",155,l,0.29837699979543686,colour,0.5
123,21,1,1,4,9,159,226.1475768815726,226.70393763296306,"[55, 0, 199]",199,a,0.03407438099384308,colour,0.5
123,21,1,1,4,10,160,227.21018619835377,227.9039653595537,"[87, 0, 167]",167,l,0.17150657437741756,colour,0.5
123,21,1,1,4,11,161,228.4135060850531,229.1839410830289,"[10, 0, 244]",244,a,0.24826284311711788,colour,0.5
123,21,1,1,4,12,162,229.69472754374146,231.24792728573084,"[4, 0, 250]",250,l,1.0309279449284077,colour,0.5
123,21,1,1,4,13,163,231.7574778571725,232.40790716931224,"[33, 0, 221]",221,a,0.12824652343988419,colour,0.5
123,21,1,1,4,14,164,232.91382253915071,233.64791539125144,"[12, 0, 242]",242,a,0.2118880059570074,colour,0.5
123,21,1,1,4,15,165,234.16389156132936,234.85592165216804,"[68, 0, 186]",186,l,0.16981067322194576,colour,0.5
123,21,1,1,4,16,166,235.36717560701072,235.89596043899655,"[47, 0, 207]",207,a,0.006551628932356834,colour,0.5
123,21,1,1,4,17,167,236.41407676786184,237.08794819191098,"[46, 0, 208]",208,a,0.1517181731760502,colour,0.5
123,21,1,1,4,18,168,237.60162311792374,238.2559227552265,"[3, 0, 251]",251,a,0.1320455614477396,colour,0.5
123,21,1,1,4,19,169,238.77362121269107,239.39990500360727,"[23, 0, 231]",231,a,0.10448775812983513,colour,0.5
123,21,1,1,4,20,170,239.91434202343225,240.4479888845235,"[9, 0, 245]",245,a,0.01140538975596428,colour,0.5
123,21,1,1,4,21,171,240.96137275733054,241.92794152721763,"[53, 0, 201]",201,a,0.4443351738154888,colour,0.5
123,21,1,1,4,22,172,242.44576562196016,243.45593551546335,"[61, 0, 193]",193,a,0.48789494298398495,colour,0.5
123,21,1,1,4,23,173,243.9615322649479,245.07192259468138,"[69, 0, 185]",185,l,0.5881587024778128,colour,0.5
123,21,1,1,4,24,174,245.58665578626096,246.23994402587414,"[88, 0, 166]",166,l,0.131283862516284,colour,0.5
123,21,1,1,4,25,175,246.75853100046515,247.36791446246207,"[82, 0, 172]",172,l,0.08700808137655258,colour,0.5
123,21,1,1,4,26,176,247.88372679241002,248.59195892326534,"[0, 0, 254]",254,a,0.18664956279098988,colour,0.5
123,21,1,1,4,27,177,249.1025933586061,249.75194589421153,"[62, 0, 192]",192,a,0.12717565521597862,colour,0.5
123,21,1,1,4,28,178,250.25885966606438,250.79992737434804,"[8, 0, 246]",246,a,0.018730925396084785,colour,0.5
123,21,1,1,4,29,179,251.3058458957821,251.90392321906984,"[95, 0, 159]",159,l,0.07578819431364536,colour,0.5
123,21,1,1,4,30,180,252.41532644070685,253.95994427800179,"[7, 0, 247]",247,a,1.0223168935626745,colour,0.5
123,21,1,1,4,31,181,254.47798656485975,255.32790048979223,"[73, 0, 181]",181,l,0.3275842312723398,colour,0.5
123,21,1,1,4,32,182,255.83747587166727,256.47991050221026,"[67, 0, 187]",187,l,0.12039913982152939,colour,0.5
123,21,1,1,4,33,183,256.9938071630895,258.2719069980085,"[63, 0, 191]",191,a,0.7558548171073198,colour,0.5
123,21,1,1,4,34,184,258.7908464651555,259.7519254144281,"[72, 0, 182]",182,l,0.43877367302775383,colour,0.5
123,21,1,1,4,35,185,260.2596914693713,260.9839322604239,"[86, 0, 168]",168,l,0.20205682143568993,colour,0.5
123,21,1,1,4,36,186,261.4941905736923,262.0879442524165,"[18, 0, 236]",236,a,0.0714251659810543,colour,0.5
123,21,1,1,4,37,187,262.60360455699265,264.1759397070855,"[6, 0, 248]",248,l,1.050278389826417,colour,0.5
123,21,1,1,4,38,188,264.68189682625234,266.02391630224884,"[5, 0, 249]",249,a,0.8197472840547562,colour,0.5
123,21,1,1,4,39,189,266.5415064524859,267.2798941973597,"[19, 0, 235]",235,a,0.2161246109753847,colour,0.5
123,21,1,1,4,40,190,267.79153569601476,269.551902808249,"[78, 0, 176]",176,l,1.238119337707758,colour,0.5
123,21,1,1,4,41,191,270.0579020678997,271.111913330853,"[35, 0, 219]",219,a,0.5333534441888332,colour,0.5
123,21,1,1,4,42,192,271.6197908446193,272.4639494959265,"[17, 0, 237]",237,a,0.32199516147375107,colour,0.5
123,21,1,1,4,43,193,272.9795467853546,273.8479356355965,"[44, 0, 210]",210,a,0.3474797587841749,colour,0.5
123,21,1,1,4,44,194,274.3542925082147,275.0559462290257,"[37, 0, 217]",217,a,0.17964067868888378,colour,0.5
123,21,1,1,4,45,195,275.5734524894506,276.3439193908125,"[31, 0, 223]",223,a,0.24875633232295513,colour,0.5
123,21,1,1,4,46,196,276.8546329885721,277.45591858029366,"[64, 0, 190]",190,l,0.07962031662464142,colour,0.5
123,21,1,1,4,47,197,277.963910702616,278.8799411430955,"[89, 0, 165]",165,l,0.39469796419143677,colour,0.5
123,21,1,1,4,48,198,279.3860199600458,280.0479712393135,"[94, 0, 160]",160,l,0.13963300548493862,colour,0.5
123,21,1,1,4,49,199,280.5581901669502,282.01590114086866,"[27, 0, 227]",227,a,0.9361457359045744,colour,0.5
123,21,1,1,4,50,200,282.52696801908314,283.1039359793067,"[93, 0, 161]",161,l,0.055399177595973015,colour,0.5
123,21,1,1,5,1,201,288.3237024843693,288.8879184965044,"[27, 0, 227]",227,a,0.04196075536310673,colour,0.4
123,21,1,1,5,2,202,289.4024141971022,290.9359618090093,"[60, 0, 194]",194,l,1.0113293752074242,colour,0.4
123,21,1,1,5,3,203,291.44966273009777,291.9839397445321,"[74, 0, 180]",180,l,0.012001670897006989,colour,0.4
123,21,1,1,5,4,204,292.4966363571584,293.13592179492116,"[29, 0, 225]",225,a,0.11732320114970207,colour,0.4
123,21,1,1,5,5,205,293.65281050466,294.42393985390663,"[53, 0, 201]",201,a,0.24867638014256954,colour,0.4
123,21,1,1,5,6,206,294.93430883809924,295.5679827556014,"[59, 0, 195]",195,a,0.11148758418858051,colour,0.4
123,21,1,1,5,7,207,296.07509620673954,296.6319500543177,"[57, 0, 197]",197,a,0.03452887944877148,colour,0.4
123,21,1,1,5,8,208,297.13750938884914,297.86393208801746,"[10, 0, 244]",244,l,0.20475387945771217,colour,0.4
123,21,1,1,5,9,209,298.3724271506071,299.44006470032036,"[30, 0, 224]",224,a,0.546416137367487,colour,0.4
123,21,1,1,5,10,210,299.95019698143005,300.5759266316891,"[46, 0, 208]",208,a,0.10391038097441196,colour,0.4
123,21,1,1,5,11,211,301.0909792315215,302.2398995216936,"[67, 0, 187]",187,l,0.6272396557033062,colour,0.4
123,21,1,1,5,12,212,302.74743123725057,303.3519581835717,"[35, 0, 219]",219,a,0.08233785629272461,colour,0.4
123,21,1,1,5,13,213,303.8568692468107,304.51999221742153,"[69, 0, 185]",185,l,0.14121941849589348,colour,0.4
123,21,1,1,5,14,214,305.0287708491087,305.6479977052659,"[89, 0, 165]",165,l,0.09749265760183334,colour,0.4
123,21,1,1,5,15,215,306.15385006181896,306.72005342133343,"[54, 0, 200]",200,a,0.044588496908545494,colour,0.4
123,21,1,1,5,16,216,307.23200290836394,307.7600221019238,"[45, 0, 209]",209,a,0.006247973069548607,colour,0.4
123,21,1,1,5,17,217,308.2792541962117,309.27210549637675,"[51, 0, 203]",203,a,0.47110055945813656,colour,0.4
123,21,1,1,5,18,218,309.77900784648955,310.37595561891794,"[80, 0, 174]",174,l,0.0749296098947525,colour,0.4
123,21,1,1,5,19,219,310.88847618177533,311.71988721750677,"[95, 0, 159]",159,l,0.3089840617030859,colour,0.4
123,21,1,1,5,20,220,312.2325574439019,313.55189059861004,"[68, 0, 186]",186,l,0.7970633264631033,colour,0.4
123,21,1,1,5,21,221,314.06085236929357,314.7039876524359,"[83, 0, 171]",171,l,0.12092059291899204,colour,0.4
123,21,1,1,5,22,222,315.21709583327174,316.5359043870121,"[62, 0, 192]",192,a,0.796500913798809,colour,0.4
123,21,1,1,5,23,223,317.0454250238836,317.7199179381132,"[81, 0, 173]",173,l,0.15218842588365078,colour,0.4
123,21,1,1,5,24,224,318.2330710180104,318.84790452197194,"[98, 0, 156]",156,l,0.09260266460478306,colour,0.4
123,21,1,1,5,25,225,319.35813093185425,320.33589832112193,"[90, 0, 164]",164,l,0.45558105409145355,colour,0.4
123,21,1,1,5,26,226,320.8425474278629,321.37595089152455,"[6, 0, 248]",248,a,0.011136392131447792,colour,0.4
123,21,1,1,5,27,227,321.8896258175373,322.8159187063575,"[48, 0, 206]",206,a,0.4040624424815178,colour,0.4
123,21,1,1,5,28,228,323.32718526385725,324.22388849779963,"[58, 0, 196]",196,a,0.37456376664340496,colour,0.4
123,21,1,1,5,29,229,324.73354225605726,325.28792905062437,"[91, 0, 163]",163,l,0.032161470502614975,colour,0.4
123,21,1,1,5,30,230,325.7961523607373,327.1839383263141,"[7, 0, 247]",247,a,0.8655397668480873,colour,0.4
123,21,1,1,5,31,231,327.7025312092155,328.62386321276426,"[14, 0, 240]",240,a,0.3991125859320164,colour,0.4
123,21,1,1,5,32,232,329.14009223133326,330.11190624162555,"[43, 0, 211]",211,a,0.44954378716647625,colour,0.4
123,21,1,1,5,33,233,330.6247115563601,331.64791972376406,"[40, 0, 214]",214,a,0.5010958760976791,colour,0.4
123,21,1,1,5,34,234,332.15592405572534,332.87189014256,"[61, 0, 193]",193,l,0.19356668181717396,colour,0.4
123,21,1,1,5,35,235,333.390602754429,334.2078971657902,"[78, 0, 176]",176,l,0.29514864459633827,colour,0.4
123,21,1,1,5,36,236,334.7187198586762,335.71990218386054,"[17, 0, 237]",237,a,0.47913147509098053,colour,0.4
123,21,1,1,5,37,237,336.2345022559166,336.8559185024351,"[66, 0, 188]",188,l,0.09938430041074753,colour,0.4
123,21,1,1,5,38,238,337.37524945288897,338.13597772084177,"[70, 0, 184]",184,l,0.23902872763574123,colour,0.4
123,21,1,1,5,39,239,338.640808833763,339.2559302393347,"[21, 0, 233]",233,a,0.0931197851896286,colour,0.4
123,21,1,1,5,40,240,339.7659884765744,340.8718995936215,"[25, 0, 229]",229,a,0.5836999714374542,colour,0.4
123,21,1,1,5,41,241,341.39118997752666,341.935916909948,"[88, 0, 166]",166,l,0.022494124248623848,colour,0.4
123,21,1,1,5,42,242,342.4536480586976,343.2718743085861,"[84, 0, 170]",170,l,0.29612104780972004,colour,0.4
123,21,1,1,5,43,243,343.7819703556597,344.36791249364614,"[34, 0, 220]",220,a,0.06416619010269642,colour,0.4
123,21,1,1,5,44,244,344.8756651561707,345.6479157861322,"[75, 0, 179]",179,l,0.24994180910289288,colour,0.4
123,21,1,1,5,45,245,346.1577156614512,347.0559257492423,"[76, 0, 178]",178,l,0.3764900676906109,colour,0.4
123,21,1,1,5,46,246,347.5634909402579,348.23188632912934,"[73, 0, 181]",181,l,0.14614131301641464,colour,0.4
123,21,1,1,5,47,247,348.7511834092438,349.2799426391721,"[19, 0, 235]",235,a,0.00665048323571682,colour,0.4
123,21,1,1,5,48,248,349.798035338521,350.7758921291679,"[22, 0, 232]",232,a,0.45560941100120544,colour,0.4
123,21,1,1,5,49,249,351.28254241868854,352.0078485645354,"[32, 0, 222]",222,a,0.20303946733474731,colour,0.4
123,21,1,1,5,50,250,352.5170529447496,353.3438957594335,"[50, 0, 204]",204,a,0.30459858663380146,colour,0.4
123,21,1,1,6,1,251,357.95418309792876,358.5999240670353,"[68, 0, 186]",186,l,0.12273740395903587,colour,0.28
123,21,1,1,6,2,252,359.11129184253514,359.9039165228605,"[86, 0, 168]",168,l,0.270357608795166,colour,0.28
123,21,1,1,6,3,253,360.42388904839754,360.99192930571735,"[26, 0, 228]",228,a,0.0457408893853426,colour,0.28
123,21,1,1,6,4,254,361.5020978208631,362.4318979084492,"[41, 0, 213]",213,a,0.40750741586089134,colour,0.28
123,21,1,1,6,5,255,362.93969271332026,363.671919522807,"[23, 0, 231]",231,a,0.20991011336445808,colour,0.28
123,21,1,1,6,6,256,364.18982120603323,364.7199325095862,"[73, 0, 181]",181,l,0.0077111124992370605,colour,0.28
123,21,1,1,6,7,257,365.2367680519819,366.35987330786884,"[63, 0, 191]",191,l,0.6010295934975147,colour,0.28
123,21,1,1,6,8,258,366.8774701524526,367.87187635712326,"[46, 0, 208]",208,a,0.47210762463510036,colour,0.28
123,21,1,1,6,9,259,368.3776302523911,369.41586600989103,"[58, 0, 196]",196,l,0.515999011695385,colour,0.28
123,21,1,1,6,10,260,369.92476831004024,370.5199087224901,"[69, 0, 185]",185,a,0.0730166994035244,colour,0.28
123,21,1,1,6,11,261,371.0341645721346,371.6478901859373,"[54, 0, 200]",200,a,0.09151880070567131,colour,0.28
123,21,1,1,6,12,262,372.1591055430472,372.78392225690186,"[87, 0, 167]",167,l,0.10246614553034306,colour,0.28
123,21,1,1,6,13,263,373.29991496913135,374.35988394171,"[93, 0, 161]",161,l,0.5377022940665483,colour,0.28
123,21,1,1,6,14,264,374.8781255129725,375.79186455719173,"[9, 0, 245]",245,a,0.3915066309273243,colour,0.28
123,21,1,1,6,15,265,376.30011661723256,377.98389169573784,"[19, 0, 235]",235,a,1.1615576297044754,colour,0.28
123,21,1,1,6,16,266,378.50348022021353,379.3039026595652,"[99, 0, 155]",155,l,0.2784357853233814,colour,0.28
123,21,1,1,6,17,267,379.8161337468773,380.4718945529312,"[95, 0, 159]",159,l,0.13360361754894257,colour,0.28
123,21,1,1,6,18,268,380.98798808827996,382.03189207986,"[59, 0, 195]",195,a,0.5216570049524307,colour,0.28
123,21,1,1,6,19,269,382.550630684942,383.3599111158401,"[48, 0, 206]",206,a,0.28700114972889423,colour,0.28
123,21,1,1,6,20,270,383.8789033591747,384.8399208690971,"[1, 0, 253]",253,a,0.4387910030782223,colour,0.28
123,21,1,1,6,21,271,385.3477515131235,385.9999204427004,"[91, 0, 163]",163,l,0.12998220138251781,colour,0.28
123,21,1,1,6,22,272,386.5196696575731,387.23191232420504,"[52, 0, 202]",202,a,0.19004018418490887,colour,0.28
123,21,1,1,6,23,273,387.73854922130704,388.4718870706856,"[98, 0, 156]",156,l,0.2110447846353054,colour,0.28
123,21,1,1,6,24,274,388.9886690489948,389.87989663891494,"[90, 0, 164]",164,l,0.3690562229603529,colour,0.28
123,21,1,1,6,25,275,390.39502170681953,391.19992138817906,"[80, 0, 174]",174,l,0.2826865669339895,colour,0.28
123,21,1,1,6,26,276,391.7076260019094,392.51988745480776,"[71, 0, 183]",183,l,0.2900349460542202,colour,0.28
123,21,1,1,6,27,277,393.0358380228281,393.7200262453407,"[74, 0, 180]",180,l,0.16201882250607014,colour,0.28
123,21,1,1,6,28,278,394.2390401493758,394.7759862598032,"[55, 0, 199]",199,a,0.014687702059745789,colour,0.28
123,21,1,1,6,29,279,395.2860149592161,395.9120289646089,"[76, 0, 178]",178,l,0.1031301710754633,colour,0.28
123,21,1,1,6,30,280,396.4268062673509,398.6479512322694,"[62, 0, 192]",192,l,1.699113018810749,colour,0.28
123,21,1,1,6,31,281,399.1613221094012,399.71990888006985,"[60, 0, 194]",194,a,0.03634962998330593,colour,0.28
123,21,1,1,6,32,282,400.23952536843717,401.15188477002084,"[64, 0, 190]",190,a,0.3901577088981867,colour,0.28
123,21,1,1,6,33,283,401.6614853590727,402.6558888051659,"[94, 0, 160]",160,l,0.4720308240503073,colour,0.28
123,21,1,1,6,34,284,403.1617065034807,403.95186610147357,"[96, 0, 158]",158,l,0.2679697200655937,colour,0.28
123,21,1,1,6,35,285,404.4585845246911,405.0559623762965,"[5, 0, 249]",249,a,0.07504106871783733,colour,0.28
123,21,1,1,6,36,286,405.5680682193488,406.40789377875626,"[65, 0, 189]",189,l,0.3175762090831995,colour,0.28
123,21,1,1,6,37,287,406.92753862403333,407.6159059461206,"[67, 0, 187]",187,l,0.16615420766174793,colour,0.28
123,21,1,1,6,38,288,408.1308474820107,408.66390357352793,"[15, 0, 239]",239,a,0.010876452550292015,colour,0.28
123,21,1,1,6,39,289,409.17776085063815,409.7759078834206,"[6, 0, 248]",248,a,0.07592997886240482,colour,0.28
123,21,1,1,6,40,290,410.2872945647687,410.9919127635658,"[3, 0, 251]",251,a,0.18265793286263943,colour,0.28
123,21,1,1,6,41,291,411.5060457345098,412.14388811960816,"[51, 0, 203]",203,a,0.11558003909885883,colour,0.28
123,21,1,1,6,42,292,412.662364423275,413.2239026762545,"[14, 0, 240]",240,a,0.03925621509552002,colour,0.28
123,21,1,1,6,43,293,413.7406436931342,414.2719156630337,"[82, 0, 172]",172,l,0.008998595178127289,colour,0.28
123,21,1,1,6,44,294,414.78748341463506,415.51191640272737,"[75, 0, 179]",179,l,0.2022734358906746,colour,0.28
123,21,1,1,6,45,295,416.0220191460103,416.671881319955,"[4, 0, 250]",250,a,0.1275226343423128,colour,0.28
123,21,1,1,6,46,296,417.1783145982772,417.7678864207119,"[81, 0, 173]",173,l,0.06719447299838066,colour,0.28
123,21,1,1,6,47,297,418.2878648545593,419.319888478145,"[85, 0, 169]",169,l,0.5099975857883692,colour,0.28
123,21,1,1,6,48,298,419.8348264694214,420.3919095341116,"[79, 0, 175]",175,l,0.03488924726843834,colour,0.28
123,21,1,1,6,49,299,420.8975098282099,422.27192432805896,"[72, 0, 182]",182,l,0.8526661209762096,colour,0.28
123,21,1,1,6,50,300,422.7881824914366,423.5759093016386,"[50, 0, 204]",204,a,0.2655199971050024,colour,0.28
123,21,1,1,7,1,301,428.7097775824368,429.6798732448369,"[71, 0, 183]",183,l,0.44718937762081623,colour,0.14
123,21,1,1,7,2,302,430.1951400972903,431.0958747379482,"[98, 0, 156]",156,l,0.3785183746367693,colour,0.14
123,21,1,1,7,3,303,431.6013722382486,432.4719024300575,"[59, 0, 195]",195,l,0.34897519275546074,colour,0.14
123,21,1,1,7,4,304,432.99204430915415,433.623867938295,"[77, 0, 177]",177,l,0.1094797570258379,colour,0.14
123,21,1,1,7,5,305,434.13281277380884,435.19190425798297,"[12, 0, 242]",242,a,0.5368409529328346,colour,0.14
123,21,1,1,7,6,306,435.711070580408,436.4719114881009,"[95, 0, 159]",159,l,0.23862739838659763,colour,0.14
123,21,1,1,7,7,307,436.9922908563167,437.79987262934446,"[60, 0, 194]",194,a,0.2851260472089052,colour,0.14
123,21,1,1,7,8,308,438.3050294537097,439.11193144880235,"[52, 0, 202]",202,a,0.2846494950354099,colour,0.14
123,21,1,1,7,9,309,439.61751677654684,440.77587204426527,"[73, 0, 181]",181,l,0.6360480226576328,colour,0.14
123,21,1,1,7,10,310,441.28971789963543,442.07187809050083,"[93, 0, 161]",161,l,0.25999236665666103,colour,0.14
123,21,1,1,7,11,311,442.5866156127304,443.5278955269605,"[19, 0, 235]",235,a,0.41907940059900284,colour,0.14
123,21,1,1,7,12,312,444.03987061418593,444.8719003815204,"[87, 0, 167]",167,l,0.3097485173493624,colour,0.14
123,21,1,1,7,13,313,445.38367184996605,445.93589367344975,"[53, 0, 201]",201,a,0.02988346479833126,colour,0.14
123,21,1,1,7,14,314,446.44629495218396,447.33589162677526,"[72, 0, 182]",182,l,0.36754582449793816,colour,0.14
123,21,1,1,7,15,315,447.8526854198426,448.3838892541826,"[56, 0, 198]",198,a,0.009015925228595734,colour,0.14
123,21,1,1,7,16,316,448.89967676997185,449.5198720935732,"[50, 0, 204]",204,a,0.09796921163797379,colour,0.14
123,21,1,1,7,17,317,450.0246992688626,450.703873436898,"[78, 0, 176]",176,l,0.15682950802147388,colour,0.14
123,21,1,1,7,18,318,451.2123074531555,451.95186098106205,"[92, 0, 162]",162,l,0.21728330478072166,colour,0.14
123,21,1,1,7,19,319,452.4624749366194,453.2479024734348,"[76, 0, 178]",178,l,0.2632250562310219,colour,0.14
123,21,1,1,7,20,320,453.75937107391655,454.5279195513576,"[61, 0, 193]",193,a,0.24645902775228024,colour,0.14
123,21,1,1,7,21,321,455.04073274321854,455.7918956708163,"[84, 0, 170]",170,l,0.228894280269742,colour,0.14
123,21,1,1,7,22,322,456.3064654171467,457.1439121440053,"[79, 0, 175]",175,l,0.31518595665693283,colour,0.14
123,21,1,1,7,23,323,457.65037456713617,458.34389182180166,"[55, 0, 199]",199,a,0.17134509980678558,colour,0.14
123,21,1,1,7,24,324,458.85352943092585,459.59191087447107,"[58, 0, 196]",196,a,0.21626757644116879,colour,0.14
123,21,1,1,7,25,325,460.1036874614656,460.95187791623175,"[75, 0, 179]",179,l,0.326223885640502,colour,0.14
123,21,1,1,7,26,326,461.46312163211405,462.47186934761703,"[54, 0, 200]",200,a,0.4864940345287323,colour,0.14
123,21,1,1,7,27,327,462.97889851406217,464.03186884336174,"[96, 0, 158]",158,l,0.5306717492640018,colour,0.14
123,21,1,1,7,28,328,464.5421200655401,465.4238768387586,"[82, 0, 172]",172,l,0.3601044937968254,colour,0.14
123,21,1,1,7,29,329,465.9322222415358,466.64790594018996,"[91, 0, 163]",163,l,0.1934374999254942,colour,0.14
123,21,1,1,7,30,330,467.1666240654886,467.98389602825046,"[66, 0, 188]",188,a,0.29495211504399776,colour,0.14
123,21,1,1,7,31,331,468.4949467573315,469.03992456942797,"[94, 0, 160]",160,l,0.022728461772203445,colour,0.14
123,21,1,1,7,32,332,469.5575056616217,470.3119253050536,"[89, 0, 165]",165,l,0.2321253940463066,colour,0.14
123,21,1,1,7,33,333,470.8232296705246,471.46388884447515,"[47, 0, 207]",207,a,0.11836650036275387,colour,0.14
123,21,1,1,7,34,334,471.979580655694,472.5278911944479,"[28, 0, 226]",226,a,0.026013927534222603,colour,0.14
123,21,1,1,7,35,335,473.0421387720853,474.47190518677235,"[69, 0, 185]",185,l,0.9075674768537283,colour,0.14
123,21,1,1,7,36,336,474.9798791911453,476.1279101781547,"[67, 0, 187]",187,l,0.6257843933999538,colour,0.14
123,21,1,1,7,37,337,476.6361764166504,477.26386269181967,"[68, 0, 186]",186,l,0.10553735680878162,colour,0.14
123,21,1,1,7,38,338,477.7768873795867,478.47195520438254,"[57, 0, 197]",197,a,0.17340136878192425,colour,0.14
123,21,1,1,7,39,339,478.9800430312753,479.77584644407034,"[51, 0, 203]",203,a,0.273476080968976,colour,0.14
123,21,1,1,7,40,340,480.29269734583795,481.2958815898746,"[64, 0, 190]",190,l,0.48067810758948326,colour,0.14
123,21,1,1,7,41,341,481.8086427934468,482.3358884751797,"[81, 0, 173]",173,a,0.005134571343660355,colour,0.14
123,21,1,1,7,42,342,482.8554364349693,483.99991098977625,"[1, 0, 253]",253,a,0.62222402356565,colour,0.14
123,21,1,1,7,43,343,484.5117974616587,485.08788438886404,"[85, 0, 169]",169,l,0.05378677137196064,colour,0.14
123,21,1,1,7,44,344,485.60565492138267,486.40790598653257,"[88, 0, 166]",166,l,0.28058382123708725,colour,0.14
123,21,1,1,7,45,345,486.91833247058094,487.6558821108192,"[70, 0, 184]",184,l,0.21530422940850258,colour,0.14
123,21,1,1,7,46,346,488.16837352886796,488.7678927220404,"[16, 0, 238]",238,a,0.07733561471104622,colour,0.14
123,21,1,1,7,47,347,489.27783004939556,490.7198923379183,"[20, 0, 234]",234,a,0.919876741245389,colour,0.14
123,21,1,1,7,48,348,491.23116322793067,492.2398668322712,"[62, 0, 192]",192,a,0.48653932474553585,colour,0.14
123,21,1,1,7,49,349,492.7468318026513,493.4398551750928,"[74, 0, 180]",180,l,0.17079095728695393,colour,0.14
123,21,1,1,7,50,350,493.95011151768267,494.98393068648875,"[80, 0, 174]",174,l,0.5116115678101778,colour,0.14
123,21,1,1,8,1,351,502.8093922827393,503.9438544847071,"[11, 0, 243]",243,a,0.6114684827625751,colour,0.06
123,21,1,1,8,2,352,504.4509691167623,505.31987548060715,"[68, 0, 186]",186,l,0.3467373587191105,colour,0.06
123,21,1,1,8,3,353,505.8259535115212,507.0958782825619,"[56, 0, 198]",198,l,0.7476651817560196,colour,0.06
123,21,1,1,8,4,354,507.6074760649353,509.191867236048,"[96, 0, 158]",158,l,1.0629031267017126,colour,0.06
123,21,1,1,8,5,355,509.7012559361756,510.4719154275954,"[54, 0, 200]",200,a,0.24837902933359146,colour,0.06
123,21,1,1,8,6,356,510.9827077947557,511.7838974446058,"[55, 0, 199]",199,a,0.278910368680954,colour,0.06
123,21,1,1,8,7,357,512.2952506486326,512.9118639435619,"[76, 0, 178]",178,l,0.09434582851827145,colour,0.06
123,21,1,1,8,8,358,513.4203637316823,514.1760700698942,"[95, 0, 159]",159,l,0.23362712934613228,colour,0.06
123,21,1,1,8,9,359,514.6860436312854,515.3438886702061,"[0, 0, 254]",254,a,0.13615219481289387,colour,0.06
123,21,1,1,8,10,360,515.8581063169986,516.6079211104661,"[77, 0, 177]",177,l,0.22756426222622395,colour,0.06
123,21,1,1,8,11,361,517.1237885784358,517.8799143619835,"[65, 0, 189]",189,l,0.2338531967252493,colour,0.06
123,21,1,1,8,12,362,518.3895393684506,519.2238644734025,"[59, 0, 195]",195,l,0.31211474537849426,colour,0.06
123,21,1,1,8,13,363,519.7333031911403,520.7918803114444,"[57, 0, 197]",197,a,0.536206467077136,colour,0.06
123,21,1,1,8,14,364,521.3116291314363,521.8718873858452,"[89, 0, 165]",165,l,0.03805143944919109,colour,0.06
123,21,1,1,8,15,365,522.3898107297719,524.4079674277455,"[62, 0, 192]",192,a,1.4957726541906595,colour,0.06
123,21,1,1,8,16,366,524.9213146734983,525.543884890154,"[58, 0, 196]",196,a,0.10063988156616688,colour,0.06
123,21,1,1,8,17,367,526.0619972795248,527.0398580096662,"[90, 0, 164]",164,l,0.4556854236871004,colour,0.06
123,21,1,1,8,18,368,527.546448038891,528.1519162766635,"[50, 0, 204]",204,a,0.08317438326776028,colour,0.06
123,21,1,1,8,19,369,528.6715583652258,529.2079062238336,"[85, 0, 169]",169,l,0.014121351763606071,colour,0.06
123,21,1,1,8,20,370,529.7185367196798,530.2719073928893,"[72, 0, 182]",182,l,0.031064216047525406,colour,0.06
123,21,1,1,8,21,371,530.7811086215079,531.319912109524,"[99, 0, 155]",155,a,0.016988156363368034,colour,0.06
123,21,1,1,8,22,372,531.8280672822148,532.51988587901,"[97, 0, 157]",157,l,0.1696810983121395,colour,0.06
123,21,1,1,8,23,373,533.0312922522426,534.1759003214538,"[88, 0, 166]",166,l,0.6222815252840519,colour,0.06
123,21,1,1,8,24,374,534.6876284666359,535.2478709667921,"[51, 0, 203]",203,a,0.03853823244571686,colour,0.06
123,21,1,1,8,25,375,535.7658876515925,536.7118334602565,"[52, 0, 202]",202,a,0.42369173280894756,colour,0.06
123,21,1,1,8,26,376,537.2191883381456,538.0718788783997,"[64, 0, 190]",190,a,0.33051562681794167,colour,0.06
123,21,1,1,8,27,377,538.5786055717617,539.2638721447438,"[80, 0, 174]",174,l,0.16299083642661572,colour,0.06
123,21,1,1,8,28,378,539.7818175442517,540.9518739785999,"[60, 0, 194]",194,a,0.6483368072658777,colour,0.06
123,21,1,1,8,29,379,541.4694720059633,542.9038661103696,"[61, 0, 193]",193,a,0.912223918363452,colour,0.06
123,21,1,1,8,30,380,543.4227882493287,544.455887073651,"[91, 0, 163]",163,l,0.510880982503295,colour,0.06
123,21,1,1,8,31,381,544.9697226881981,547.0238532871008,"[67, 0, 187]",187,a,1.531934417784214,colour,0.06
123,21,1,1,8,32,382,547.5324731990695,548.0559517424554,"[93, 0, 161]",161,l,0.0011563319712877274,colour,0.06
123,21,1,1,8,33,383,548.5640482325107,549.5038831252605,"[98, 0, 156]",156,l,0.4178698994219303,colour,0.06
123,21,1,1,8,34,384,550.0170263592154,550.9598804749548,"[81, 0, 173]",173,l,0.4206020087003708,colour,0.06
123,21,1,1,8,35,385,551.4702636357397,552.4158691614866,"[83, 0, 171]",171,l,0.4234629087150097,colour,0.06
123,21,1,1,8,36,386,552.9234772827476,553.7438649609685,"[82, 0, 172]",172,l,0.2981402985751629,colour,0.06
123,21,1,1,8,37,387,554.2517479863018,555.3438477106392,"[63, 0, 191]",191,a,0.5698783379048109,colour,0.06
123,21,1,1,8,38,388,555.8612653557211,556.7438866216689,"[73, 0, 181]",181,l,0.36044950410723686,colour,0.06
123,21,1,1,8,39,389,557.2519098576158,558.0558788813651,"[71, 0, 183]",183,l,0.28164720721542835,colour,0.06
123,21,1,1,8,40,390,558.5645917411894,559.6798886042088,"[79, 0, 175]",175,l,0.593095563352108,colour,0.06
123,21,1,1,8,41,391,560.1896821781993,562.0478625372052,"[69, 0, 185]",185,a,1.3358565736562014,colour,0.06
123,21,1,1,8,42,392,562.5648516789079,564.8878830503672,"[86, 0, 168]",168,l,1.8007772956043482,colour,0.06
123,21,1,1,8,43,393,565.3932076506317,566.1118735522032,"[66, 0, 188]",188,l,0.19634802266955376,colour,0.06
123,21,1,1,8,44,394,566.6277209352702,567.4398563560098,"[87, 0, 167]",167,l,0.28993845358490944,colour,0.06
123,21,1,1,8,45,395,567.9560605622828,568.4798656031489,"[75, 0, 179]",179,a,0.0016915686428546906,colour,0.06
123,21,1,1,8,46,396,569.0031692795455,569.8079122100025,"[74, 0, 180]",180,l,0.2828181106597185,colour,0.06
123,21,1,1,8,47,397,570.3155144229531,571.3198817837983,"[35, 0, 219]",219,a,0.4821558203548193,colour,0.06
123,21,1,1,8,48,398,571.8312223833054,572.6318358387798,"[53, 0, 201]",201,a,0.27845350839197636,colour,0.06
123,21,1,1,8,49,399,573.1439239587635,574.2158607318997,"[70, 0, 184]",184,a,0.5500363707542419,colour,0.06
123,21,1,1,8,50,400,574.721974208951,575.3518479056656,"[84, 0, 170]",170,l,0.10745972022414207,colour,0.06
123,21,1,1,9,1,401,581.0811610426754,582.6878828927875,"[99, 0, 155]",155,l,1.083674568682909,colour,0.06
123,21,1,1,9,2,402,583.2071260139346,584.5838882289827,"[98, 0, 156]",156,l,0.854475449770689,colour,0.06
123,21,1,1,9,3,403,585.0978628732264,586.3438547998667,"[78, 0, 176]",176,l,0.723709100857377,colour,0.06
123,21,1,1,9,4,404,586.8637198042125,587.5838543586433,"[80, 0, 174]",174,l,0.19786551222205162,colour,0.06
123,21,1,1,9,5,405,588.0981011502445,588.807879127562,"[97, 0, 157]",157,l,0.18748491071164608,colour,0.06
123,21,1,1,9,6,406,589.3169885892421,589.8718747813255,"[52, 0, 202]",202,a,0.03258642926812172,colour,0.06
123,21,1,1,9,7,407,590.3795986939222,591.4079154394567,"[55, 0, 199]",199,a,0.5061119012534618,colour,0.06
123,21,1,1,9,8,408,591.9266213551164,592.6718017626554,"[50, 0, 204]",204,a,0.22323156148195267,colour,0.06
123,21,1,1,9,9,409,593.1922744717449,594.1278790645301,"[65, 0, 189]",189,a,0.4133461844176054,colour,0.06
123,21,1,1,9,10,410,594.6454703956842,595.5678575132042,"[73, 0, 181]",181,l,0.4000093750655651,colour,0.06
123,21,1,1,9,11,411,596.0831700507551,596.9198535047472,"[71, 0, 183]",183,l,0.31434312649071217,colour,0.06
123,21,1,1,9,12,412,597.4269708935171,598.2078928332776,"[92, 0, 162]",162,l,0.2587237898260355,colour,0.06
123,21,1,1,9,13,413,598.7239513155073,599.4558823462576,"[59, 0, 195]",195,a,0.2095769178122282,colour,0.06
123,21,1,1,9,14,414,599.9740802012384,600.8558397330344,"[63, 0, 191]",191,a,0.35941644571721554,colour,0.06
123,21,1,1,9,15,415,601.3648609742522,602.1359332166612,"[58, 0, 196]",196,a,0.24885046295821667,colour,0.06
123,21,1,1,9,16,416,602.646192708984,603.4078583326191,"[84, 0, 170]",170,l,0.23948716558516026,colour,0.06
123,21,1,1,9,17,417,603.927505934611,604.6478913668543,"[74, 0, 180]",180,l,0.1980454996228218,colour,0.06
123,21,1,1,9,18,418,605.1620377283543,605.7278905641288,"[72, 0, 182]",182,l,0.0436231791973114,colour,0.06
123,21,1,1,9,19,419,606.240271313116,606.799889171496,"[79, 0, 175]",175,l,0.037346454337239265,colour,0.06
123,21,1,1,9,20,420,607.3183946199715,607.8559031412005,"[61, 0, 193]",193,a,0.015210729092359543,colour,0.06
123,21,1,1,9,21,421,608.3653276823461,609.4638797845691,"[88, 0, 166]",166,l,0.5763055104762316,colour,0.06
123,21,1,1,9,22,422,609.9749332722276,610.7680029999465,"[95, 0, 159]",159,l,0.27081407606601715,colour,0.06
123,21,1,1,9,23,423,611.2875088173896,612.0078584104776,"[67, 0, 187]",187,a,0.19828101992607117,colour,0.06
123,21,1,1,9,24,424,612.5219547525048,613.2638780530542,"[62, 0, 192]",192,a,0.2198759950697422,colour,0.06
123,21,1,1,9,25,425,613.772058038041,614.5758683420718,"[28, 0, 226]",226,a,0.2818953301757574,colour,0.06
123,21,1,1,9,26,426,615.0846520941705,615.8158765658736,"[83, 0, 171]",171,l,0.20895542949438095,colour,0.06
123,21,1,1,9,27,427,616.3347648326308,617.0238513182849,"[91, 0, 163]",163,l,0.16697734594345093,colour,0.06
123,21,1,1,9,28,428,617.5379669591784,618.255866041407,"[51, 0, 203]",203,a,0.1960467305034399,colour,0.06
123,21,1,1,9,29,429,618.7724377065897,619.2959347590804,"[96, 0, 158]",158,l,0.0017218943685293198,colour,0.06
123,21,1,1,9,30,430,619.8194085769355,620.3678471148014,"[66, 0, 188]",188,a,0.026271896436810493,colour,0.06
123,21,1,1,9,31,431,620.8819273095578,621.9198538977653,"[44, 0, 210]",210,a,0.5155886244028807,colour,0.06
123,21,1,1,9,32,432,622.4290110170841,623.2318512778729,"[81, 0, 173]",173,l,0.2806393541395664,colour,0.06
123,21,1,1,9,33,433,623.7416487894952,624.5358291622251,"[82, 0, 172]",172,l,0.2719180267304182,colour,0.06
123,21,1,1,9,34,434,625.0543665122241,625.9278663024306,"[86, 0, 168]",168,l,0.351574182510376,colour,0.06
123,21,1,1,9,35,435,626.4449767488986,627.3758421894163,"[85, 0, 169]",169,l,0.40862239338457584,colour,0.06
123,21,1,1,9,36,436,627.8825716413558,628.5678720846772,"[60, 0, 194]",194,a,0.1629912294447422,colour,0.06
123,21,1,1,9,37,437,629.0857643149793,629.8558712396771,"[2, 0, 252]",252,a,0.2478386703878641,colour,0.06
123,21,1,1,9,38,438,630.3670913241804,631.1438314057887,"[56, 0, 198]",198,a,0.2544399257749319,colour,0.06
123,21,1,1,9,39,439,631.6641642991453,632.8558558803052,"[68, 0, 186]",186,a,0.6695560533553362,colour,0.06
123,21,1,1,9,40,440,633.367485171184,634.2158729415387,"[93, 0, 161]",161,l,0.32622191682457924,colour,0.06
123,21,1,1,9,41,441,634.7267929147929,635.4878591038287,"[94, 0, 160]",160,l,0.23874791711568832,colour,0.06
123,21,1,1,9,42,442,636.008295185864,636.7518647629768,"[54, 0, 200]",200,a,0.22139939107000828,colour,0.06
123,21,1,1,9,43,443,637.2582456599921,637.9518558606505,"[90, 0, 164]",164,l,0.17130847088992596,colour,0.06
123,21,1,1,9,44,444,638.4615084379911,639.2958745006472,"[77, 0, 177]",177,l,0.3122982755303383,colour,0.06
123,21,1,1,9,45,445,639.8053522109985,640.6958350371569,"[53, 0, 201]",201,a,0.3682094532996416,colour,0.06
123,21,1,1,9,46,446,641.2116906903684,642.0238540749997,"[70, 0, 184]",184,l,0.28984353691339493,colour,0.06
123,21,1,1,9,47,447,642.539955092594,643.2318441886455,"[64, 0, 190]",190,a,0.16957594268023968,colour,0.06
123,21,1,1,9,48,448,643.7431926652789,644.495874658227,"[76, 0, 178]",178,l,0.23041058704257011,colour,0.06
123,21,1,1,9,49,449,645.0089513324201,646.1358654741198,"[87, 0, 167]",167,l,0.6046584900468588,colour,0.06
123,21,1,1,9,50,450,646.6495396140963,648.3678317554295,"[69, 0, 185]",185,l,1.196823788806796,colour,0.06
123,21,1,1,10,1,451,653.0087303854525,654.1678516827524,"[66, 0, 188]",188,l,0.635992094874382,colour,0.06
123,21,1,1,10,2,452,654.6814817115664,655.5281570404768,"[94, 0, 160]",160,l,0.3243795055896044,colour,0.06
123,21,1,1,10,3,453,656.0410572718829,657.6958437021822,"[72, 0, 182]",182,l,1.132423259317875,colour,0.06
123,21,1,1,10,4,454,658.2130754534155,658.7359155714512,"[70, 0, 184]",184,a,0.0005541406571865082,colour,0.06
123,21,1,1,10,5,455,659.2600163910538,660.0238635279238,"[78, 0, 176]",176,l,0.24159778654575348,colour,0.06
123,21,1,1,10,6,456,660.541387906298,661.3278658296913,"[43, 0, 211]",211,a,0.264151381328702,colour,0.06
123,21,1,1,10,7,457,661.8383797481656,662.9358251448721,"[97, 0, 157]",157,l,0.5752472467720509,colour,0.06
123,21,1,1,10,8,458,663.4479093272239,664.2238636855036,"[88, 0, 166]",166,l,0.2536939810961485,colour,0.06
123,21,1,1,10,9,459,664.7291898615658,665.4798719044775,"[61, 0, 193]",193,a,0.22839527763426304,colour,0.06
123,21,1,1,10,10,460,665.994997760281,666.7598464470357,"[68, 0, 186]",186,a,0.2426355704665184,colour,0.06
123,21,1,1,10,11,461,667.2762475758791,668.1598475500941,"[54, 0, 200]",200,a,0.36113991774618626,colour,0.06
123,21,1,1,10,12,462,668.6670539490879,669.2238569892943,"[64, 0, 190]",190,a,0.03452848456799984,colour,0.06
123,21,1,1,10,13,463,669.7296486925334,670.7438649609685,"[51, 0, 203]",203,a,0.49192950315773487,colour,0.06
123,21,1,1,10,14,464,671.260982889682,672.0238682534546,"[48, 0, 206]",206,a,0.24063365161418915,colour,0.06
123,21,1,1,10,15,465,672.5422693323344,673.2319060210139,"[90, 0, 164]",164,l,0.16727391071617603,colour,0.06
123,21,1,1,10,16,466,673.7456108797342,675.1918514817953,"[60, 0, 194]",194,a,0.9240125194191933,colour,0.06
123,21,1,1,10,17,467,675.6988849826157,677.0478329993784,"[89, 0, 165]",165,l,0.8266888223588467,colour,0.06
123,21,1,1,10,18,468,677.5584457721561,678.6878281477839,"[69, 0, 185]",185,l,0.607183437794447,colour,0.06
123,21,1,1,10,19,469,679.199165597558,679.9918536879122,"[77, 0, 177]",177,a,0.27046237140893936,colour,0.06
123,21,1,1,10,20,470,680.5116647351533,681.2318658493459,"[63, 0, 191]",191,l,0.19810260646045208,colour,0.06
123,21,1,1,10,21,471,681.7461981046945,682.7678308878094,"[21, 0, 233]",233,a,0.4994023386389017,colour,0.06
123,21,1,1,10,22,472,683.2775015812367,684.1358186062425,"[71, 0, 183]",183,l,0.3359412495046854,colour,0.06
123,21,1,1,10,23,473,684.6525726225227,685.2158233169466,"[80, 0, 174]",174,l,0.0415665153414011,colour,0.06
123,21,1,1,10,24,474,685.7308136895299,686.3998699523509,"[99, 0, 155]",155,l,0.14661589823663235,colour,0.06
123,21,1,1,10,25,475,686.9184904042631,687.8478316608816,"[84, 0, 170]",170,l,0.40711868926882744,colour,0.06
123,21,1,1,10,26,476,688.3561628833413,689.3599394727498,"[52, 0, 202]",202,a,0.48166547901928425,colour,0.06
123,21,1,1,10,27,477,689.8718251567334,690.7998174913228,"[53, 0, 201]",201,a,0.40571068972349167,colour,0.06
123,21,1,1,10,28,478,691.3093810584396,692.1918723564595,"[83, 0, 171]",171,l,0.36016908660531044,colour,0.06
123,21,1,1,10,29,479,692.7002059426159,693.3038459457457,"[76, 0, 178]",178,l,0.08143279515206814,colour,0.06
123,21,1,1,10,30,480,693.8095860555768,694.6638460718095,"[75, 0, 179]",179,l,0.33179995976388454,colour,0.06
123,21,1,1,10,31,481,695.1693136394024,695.7358545251191,"[92, 0, 162]",162,l,0.04442032240331173,colour,0.06
123,21,1,1,10,32,482,696.2473743259907,697.2238522637635,"[74, 0, 180]",180,l,0.454279787838459,colour,0.06
123,21,1,1,10,33,483,697.7318116948009,698.5278183333576,"[81, 0, 173]",173,a,0.2737112082540989,colour,0.06
123,21,1,1,10,34,484,699.0444419849664,700.7998698726296,"[73, 0, 181]",181,a,1.233169874176383,colour,0.06
123,21,1,1,10,35,485,701.3102762717754,701.8958722166717,"[95, 0, 159]",159,l,0.06339425221085548,colour,0.06
123,21,1,1,10,36,486,702.4041404239833,702.9758355729282,"[65, 0, 189]",189,a,0.049768753349781036,colour,0.06
123,21,1,1,10,37,487,703.4822794869542,704.1278310138732,"[85, 0, 169]",169,l,0.12327775917947292,colour,0.06
123,21,1,1,10,38,488,704.6385587900877,705.2238506879658,"[59, 0, 195]",195,a,0.06295944564044476,colour,0.06
123,21,1,1,10,39,489,705.73247375153,706.3198148291558,"[93, 0, 161]",161,l,0.06510511972010136,colour,0.06
123,21,1,1,10,40,490,706.8262351099402,707.3760107569396,"[50, 0, 204]",204,a,0.027432560920715332,colour,0.06
123,21,1,1,10,41,491,707.8888794798404,708.415828987956,"[57, 0, 197]",197,a,0.0046796780079603195,colour,0.06
123,21,1,1,10,42,492,708.9359047021717,709.8398204371333,"[56, 0, 198]",198,a,0.38179005309939384,colour,0.06
123,21,1,1,10,43,493,710.3578772954643,711.0798373259604,"[86, 0, 168]",168,l,0.19974061287939548,colour,0.06
123,21,1,1,10,44,494,711.5922917239368,712.4078504554927,"[79, 0, 175]",175,l,0.29319792427122593,colour,0.06
123,21,1,1,10,45,495,712.9204919300973,713.9598462115973,"[67, 0, 187]",187,l,0.5172498691827059,colour,0.06
123,21,1,1,10,46,496,714.4675295576453,715.0478298496455,"[96, 0, 158]",158,l,0.05803046375513077,colour,0.06
123,21,1,1,10,47,497,715.561369292438,717.0878205858171,"[82, 0, 172]",172,l,1.0042239986360073,colour,0.06
123,21,1,1,10,48,498,717.5926702097058,718.1438703965396,"[62, 0, 192]",192,a,0.02876218594610691,colour,0.06
123,21,1,1,10,49,499,718.6553508117795,719.5837980378419,"[55, 0, 199]",199,a,0.4068036116659641,colour,0.06
123,21,1,1,10,50,500,720.0929126217961,720.8238613996655,"[91, 0, 163]",163,a,0.20863601937890053,colour,0.06
123,21,1,1,11,1,501,725.5458253696561,727.0238154772669,"[86, 0, 168]",168,l,0.9549640938639641,colour,0.06
123,21,1,1,11,2,502,727.5310132112354,728.8238090183586,"[59, 0, 195]",195,a,0.7705310974270105,colour,0.06
123,21,1,1,11,3,503,729.3437405843288,729.935825932771,"[90, 0, 164]",164,l,0.06991752423346043,colour,0.06
123,21,1,1,11,4,504,730.4531801696867,732.8878511488438,"[65, 0, 189]",189,a,1.9126543942838907,colour,0.06
123,21,1,1,11,5,505,733.4065424911678,734.6958492156118,"[55, 0, 199]",199,a,0.7669880576431751,colour,0.06
123,21,1,1,11,6,506,735.2035494986922,735.7678336445242,"[82, 0, 172]",172,l,0.04221281595528126,colour,0.06
123,21,1,1,11,7,507,736.2817393653095,736.8478568661958,"[60, 0, 194]",194,a,0.043873270973563194,colour,0.06
123,21,1,1,11,8,508,737.3599410485476,738.3838262371719,"[76, 0, 178]",178,l,0.5015448611229658,colour,0.06
123,21,1,1,11,9,509,738.8913398366421,740.3198156170547,"[96, 0, 158]",158,l,0.9061968922615051,colour,0.06
123,21,1,1,11,10,510,740.8289636764675,741.8398393411189,"[56, 0, 198]",198,a,0.48854636400938034,colour,0.06
123,21,1,1,11,11,511,742.3603990916163,743.2558518629521,"[79, 0, 175]",175,l,0.37329873256385326,colour,0.06
123,21,1,1,11,12,512,743.766711184755,745.1438400689512,"[97, 0, 157]",157,l,0.8547948580235243,colour,0.06
123,21,1,1,11,13,513,745.6574827004224,746.4558169692755,"[98, 0, 156]",156,l,0.2767836023122072,colour,0.06
123,21,1,1,11,14,514,746.9700712431222,747.5118136089295,"[62, 0, 192]",192,a,0.019567454233765602,colour,0.06
123,21,1,1,11,15,515,748.0170310847461,748.7278035245836,"[39, 0, 215]",215,a,0.18850733526051044,colour,0.06
123,21,1,1,11,16,516,749.2358799278736,749.87181609869,"[54, 0, 200]",200,a,0.1136119905859232,colour,0.06
123,21,1,1,11,17,517,750.3922683279961,750.967830652371,"[88, 0, 166]",166,l,0.05333699844777584,colour,0.06
123,21,1,1,11,18,518,751.4861313011497,752.1998678240925,"[50, 0, 204]",204,a,0.19158445298671722,colour,0.06
123,21,1,1,11,19,519,752.7050175592303,753.423831153661,"[78, 0, 176]",176,l,0.19685569033026695,colour,0.06
123,21,1,1,11,20,520,753.9394532553852,754.7038273569196,"[64, 0, 190]",190,a,0.24216965027153492,colour,0.06
123,21,1,1,11,21,521,755.2207893226296,756.1598341595381,"[58, 0, 196]",196,a,0.41724053397774696,colour,0.06
123,21,1,1,11,22,522,756.6739119905978,757.2478181906044,"[7, 0, 247]",247,a,0.05145520158112049,colour,0.06
123,21,1,1,11,23,523,757.767810408026,758.5118541754782,"[52, 0, 202]",202,a,0.22224025055766106,colour,0.06
123,21,1,1,11,24,524,759.0179054234177,759.5998456906527,"[99, 0, 155]",155,l,0.05970430746674538,colour,0.06
123,21,1,1,11,25,525,760.1117345262319,760.8558539114892,"[81, 0, 173]",173,l,0.22181489877402782,colour,0.06
123,21,1,1,11,26,526,761.362571939826,762.3278221134096,"[70, 0, 184]",184,a,0.443731801584363,colour,0.06
123,21,1,1,11,27,527,762.8464102707803,763.4158348962665,"[32, 0, 222]",222,a,0.047180790454149246,colour,0.06
123,21,1,1,11,28,528,763.9246025010943,764.4958470892161,"[89, 0, 165]",165,l,0.048969244584441185,colour,0.06
123,21,1,1,11,29,529,765.0028333291411,765.7518178950995,"[77, 0, 177]",177,l,0.22685927897691727,colour,0.06
123,21,1,1,11,30,530,766.2685002293438,767.1198079753667,"[84, 0, 170]",170,l,0.3290182240307331,colour,0.06
123,21,1,1,11,31,531,767.6279962323606,768.6718108206987,"[67, 0, 187]",187,a,0.521564057096839,colour,0.06
123,21,1,1,11,32,532,769.1905970815569,769.8078133538365,"[87, 0, 167]",167,l,0.0948172602802515,colour,0.06
123,21,1,1,11,33,533,770.3157062269747,771.7758547142148,"[85, 0, 169]",169,l,0.9379243440926075,colour,0.06
123,21,1,1,11,34,534,772.2846309840679,772.8718290962279,"[61, 0, 193]",193,a,0.06498775444924831,colour,0.06
123,21,1,1,11,35,535,773.3784691430628,774.2478130701929,"[72, 0, 182]",182,l,0.34704652801156044,colour,0.06
123,21,1,1,11,36,536,774.753819026053,776.1038410626352,"[92, 0, 162]",162,l,0.8282153699547052,colour,0.06
123,21,1,1,11,37,537,776.6131521742791,777.415828987956,"[53, 0, 201]",201,a,0.280484177172184,colour,0.06
123,21,1,1,11,38,538,777.9257332328707,778.6078301314265,"[80, 0, 174]",174,l,0.16052063181996346,colour,0.06
123,21,1,1,11,39,539,779.1131543405354,779.8479383923113,"[83, 0, 171]",171,l,0.21317903511226177,colour,0.06
123,21,1,1,11,40,540,780.3633411228657,781.8718456365168,"[71, 0, 183]",183,a,0.9862799774855375,colour,0.06
123,21,1,1,11,41,541,782.3792044539005,783.1998390741646,"[69, 0, 185]",185,a,0.2984329257160425,colour,0.06
123,21,1,1,11,42,542,783.707441681996,784.4157844837755,"[93, 0, 161]",161,l,0.1861225962638855,colour,0.06
123,21,1,1,11,43,543,784.9261408634484,785.9118154998869,"[68, 0, 186]",186,a,0.4632921665906906,colour,0.06
123,21,1,1,11,44,544,786.4262556694448,787.1758042238653,"[73, 0, 181]",181,a,0.2271566316485405,colour,0.06
123,21,1,1,11,45,545,787.6921478509903,789.4958396069705,"[91, 0, 163]",163,l,1.2815262954682112,colour,0.06
123,21,1,1,11,46,546,790.0047808978707,791.0318365469575,"[51, 0, 203]",203,a,0.5050441827625036,colour,0.06
123,21,1,1,11,47,547,791.5518110413104,792.1918412428349,"[95, 0, 159]",159,l,0.11781629733741283,colour,0.06
123,21,1,1,11,48,548,792.7080757748336,793.5198315288872,"[63, 0, 191]",191,a,0.28939415886998177,colour,0.06
123,21,1,1,11,49,549,794.0363425407559,794.6398143731058,"[74, 0, 180]",180,l,0.08129455707967281,colour,0.06
123,21,1,1,11,50,550,795.1458203271031,796.3918055593967,"[57, 0, 197]",197,a,0.7236917708069086,colour,0.06
123,21,1,1,12,1,551,801.1298601087183,801.7038131784648,"[99, 0, 155]",155,l,0.050920359790325165,colour,0.06
123,21,1,1,12,2,552,802.2089388873428,802.8318324517459,"[59, 0, 195]",195,a,0.10069068893790245,colour,0.06
123,21,1,1,12,3,553,803.3496403992176,803.9198133330792,"[64, 0, 190]",190,a,0.04800865612924099,colour,0.06
123,21,1,1,12,4,554,804.427790094167,805.3758087139577,"[21, 0, 233]",233,a,0.42576336301863194,colour,0.06
123,21,1,1,12,5,555,805.8810135871172,806.599803943187,"[54, 0, 200]",200,a,0.19667727872729301,colour,0.06
123,21,1,1,12,6,556,807.1155000869185,807.7998088262975,"[98, 0, 156]",156,l,0.1620586011558771,colour,0.06
123,21,1,1,12,7,557,808.3187400233,809.1518182102591,"[68, 0, 186]",186,l,0.31083750165998936,colour,0.06
123,21,1,1,12,8,558,809.6625404730439,810.3518179729581,"[74, 0, 180]",180,l,0.1676779966801405,colour,0.06
123,21,1,1,12,9,559,810.8657977376133,811.5998220592737,"[60, 0, 194]",194,a,0.21175843104720116,colour,0.06
123,21,1,1,12,10,560,812.1158667579293,812.8958454355597,"[61, 0, 193]",193,a,0.2576611917465925,colour,0.06
123,21,1,1,12,11,561,813.4129078313708,814.19183139503,"[77, 0, 177]",177,l,0.2567049339413643,colour,0.06
123,21,1,1,12,12,562,814.7097992449999,815.3038199525326,"[83, 0, 171]",171,l,0.07226366549730301,colour,0.06
123,21,1,1,12,13,563,815.8195361830294,816.4958080984652,"[96, 0, 158]",158,l,0.15425178408622742,colour,0.06
123,21,1,1,12,14,564,817.0068670995533,817.9438288845122,"[56, 0, 198]",198,a,0.4146549329161644,colour,0.06
123,21,1,1,12,15,565,818.4600992575288,819.2558404412121,"[72, 0, 182]",182,a,0.27351428382098675,colour,0.06
123,21,1,1,12,16,566,819.7727882284671,820.367812063545,"[92, 0, 162]",162,l,0.07334201782941818,colour,0.06
123,21,1,1,12,17,567,820.8822384476662,822.6398277636617,"[73, 0, 181]",181,l,1.235343512147665,colour,0.06
123,21,1,1,12,18,568,823.148011688143,826.7117972262204,"[82, 0, 172]",172,l,3.0415866021066904,colour,0.06
123,21,1,1,12,19,569,827.2263587005436,830.5038413777947,"[57, 0, 197]",197,l,2.755120689049363,colour,0.06
123,21,1,1,12,20,570,831.0236213114113,832.9358184486628,"[76, 0, 178]",178,l,1.3899430613964796,colour,0.06
123,21,1,1,12,21,571,833.4457116667181,834.0557914469391,"[85, 0, 169]",169,l,0.08785524405539036,colour,0.06
123,21,1,1,12,22,572,834.5707719735801,835.719793876633,"[66, 0, 188]",188,l,0.626961600035429,colour,0.06
123,21,1,1,12,23,573,836.2271814439446,836.7757987882942,"[90, 0, 164]",164,a,0.026404622942209244,colour,0.06
123,21,1,1,12,24,574,837.2897033281624,838.0078442320228,"[88, 0, 166]",166,a,0.19576670601963997,colour,0.06
123,21,1,1,12,25,575,838.5242394525558,841.1998205631971,"[69, 0, 185]",185,a,2.153328215703368,colour,0.06
123,21,1,1,12,26,576,841.7119906041771,842.735841922462,"[55, 0, 199]",199,a,0.50238729827106,colour,0.06
123,21,1,1,12,27,577,843.2433153484017,843.9998408854008,"[53, 0, 201]",201,a,0.23416354693472385,colour,0.06
123,21,1,1,12,28,578,844.5090976469219,845.3518171850592,"[71, 0, 183]",183,l,0.32046821899712086,colour,0.06
123,21,1,1,12,29,579,845.8685515094548,846.9198436588049,"[67, 0, 187]",187,a,0.5290045980364084,colour,0.06
123,21,1,1,12,30,580,847.4312307331711,848.4078197348863,"[89, 0, 165]",165,l,0.45439636521041393,colour,0.06
123,21,1,1,12,31,581,848.9156421087682,849.6318267807364,"[75, 0, 179]",179,l,0.19391248002648354,colour,0.06
123,21,1,1,12,32,582,850.1501703578979,850.8878432717174,"[87, 0, 167]",167,l,0.21548776142299175,colour,0.06
123,21,1,1,12,33,583,851.4002630095929,851.9678381346166,"[52, 0, 202]",202,a,0.045323412865400314,colour,0.06
123,21,1,1,12,34,584,852.4785198308527,854.7598019428551,"[51, 0, 203]",203,a,1.759069388732314,colour,0.06
123,21,1,1,12,35,585,855.2755697667599,856.6478216573596,"[63, 0, 191]",191,l,0.8499958459287882,colour,0.06
123,21,1,1,12,36,586,857.1663070190698,858.1918680239469,"[93, 0, 161]",161,l,0.5032746344804764,colour,0.06
123,21,1,1,12,37,587,858.6977211665362,859.3758370708674,"[23, 0, 231]",231,a,0.15589885041117668,colour,0.06
123,21,1,1,12,38,588,859.885343529284,860.9918371457607,"[80, 0, 174]",174,l,0.5843080691993237,colour,0.06
123,21,1,1,12,39,589,861.5104162432253,862.4478128347546,"[78, 0, 176]",176,l,0.41523073613643646,colour,0.06
123,21,1,1,12,40,590,862.9636550955474,863.7838206458837,"[65, 0, 189]",189,l,0.29799260571599007,colour,0.06
123,21,1,1,12,41,591,864.2919986620545,864.9677967820317,"[95, 0, 159]",159,l,0.15354404412209988,colour,0.06
123,21,1,1,12,42,592,865.4794764835387,866.1918254885823,"[84, 0, 170]",170,l,0.19011344015598297,colour,0.06
123,21,1,1,12,43,593,866.6983465943485,867.4637966845185,"[26, 0, 228]",228,a,0.24321098066866398,colour,0.06
123,21,1,1,12,44,594,867.9796562753618,868.5998003985733,"[86, 0, 168]",168,l,0.09784908778965473,colour,0.06
123,21,1,1,12,45,595,869.1048170123249,870.1038174312562,"[94, 0, 160]",160,l,0.47701967135071754,colour,0.06
123,21,1,1,12,46,596,870.6205537244678,871.8078216258436,"[81, 0, 173]",173,l,0.6649846825748682,colour,0.06
123,21,1,1,12,47,597,872.3237907048315,872.8718613907695,"[91, 0, 163]",163,l,0.025823304429650307,colour,0.06
123,21,1,1,12,48,598,873.3863259796053,873.9678137172014,"[50, 0, 204]",204,a,0.0592242106795311,colour,0.06
123,21,1,1,12,49,599,874.4801728036255,875.3918693624437,"[62, 0, 192]",192,l,0.389442877843976,colour,0.06
123,21,1,1,12,50,600,875.9022162891924,876.6958054993302,"[97, 0, 157]",157,l,0.2714013010263443,colour,0.06
123,21,1,1,13,1,601,885.3553011473268,887.3838274199516,"[91, 0, 163]",163,l,1.5055167991667986,colour,0.06
123,21,1,1,13,2,602,887.9031898770481,888.8558007422835,"[52, 0, 202]",202,a,0.43047100491821766,colour,0.06
123,21,1,1,13,3,603,889.3720116429031,890.0398028716445,"[68, 0, 186]",186,l,0.14555960148572922,colour,0.06
123,21,1,1,13,4,604,890.5595883205533,891.4638116490096,"[98, 0, 156]",156,l,0.3819330185651779,colour,0.06
123,21,1,1,13,5,605,891.9816345628351,892.6237820796669,"[54, 0, 200]",200,a,0.11990801244974136,colour,0.06
123,21,1,1,13,6,606,893.1378855109215,893.7357942666858,"[85, 0, 169]",169,a,0.07585357315838337,colour,0.06
123,21,1,1,13,7,607,894.2474046517164,895.0078213885427,"[50, 0, 204]",204,l,0.23819692432880402,colour,0.06
123,21,1,1,13,8,608,895.5131392963231,896.4078150093555,"[99, 0, 155]",155,l,0.3724716566503048,colour,0.06
123,21,1,1,13,9,609,896.9195065256208,897.9198243599385,"[82, 0, 172]",172,l,0.4780995976179838,colour,0.06
123,21,1,1,13,10,610,898.4352432377636,899.3598039895296,"[88, 0, 166]",166,l,0.4022889528423548,colour,0.06
123,21,1,1,13,11,611,899.8728267084807,900.6238096486777,"[87, 0, 167]",167,l,0.22866191156208515,colour,0.06
123,21,1,1,13,12,612,901.1385861635208,901.775788154453,"[51, 0, 203]",203,a,0.11502038314938545,colour,0.06
123,21,1,1,13,13,613,902.2949375417084,902.9918489605188,"[53, 0, 201]",201,a,0.1746975164860487,colour,0.06
123,21,1,1,13,14,614,903.4981696009636,904.0637786462903,"[70, 0, 184]",184,a,0.04342743754386902,colour,0.06
123,21,1,1,13,15,615,904.5762838497758,905.103804435581,"[45, 0, 209]",209,l,0.005208222195506096,colour,0.06
123,21,1,1,13,16,616,905.6233055256307,906.5038169585168,"[90, 0, 164]",164,l,0.3582486920058727,colour,0.06
123,21,1,1,13,17,617,907.0140228886157,908.2638319730759,"[97, 0, 157]",157,l,0.7275806088000536,colour,0.06
123,21,1,1,13,18,618,908.7797821480781,909.415763610974,"[92, 0, 162]",162,l,0.11415589228272438,colour,0.06
123,21,1,1,13,19,619,909.9360992610455,910.607818711549,"[74, 0, 180]",180,l,0.1494157500565052,colour,0.06
123,21,1,1,13,20,620,911.1239020060748,911.7919874377549,"[83, 0, 171]",171,l,0.14601016230881214,colour,0.06
123,21,1,1,13,21,621,912.3113101162016,912.9837948083878,"[84, 0, 170]",170,l,0.15026921220123768,colour,0.06
123,21,1,1,13,22,622,913.498973833397,914.0718071982265,"[8, 0, 246]",246,a,0.050659239292144775,colour,0.06
123,21,1,1,13,23,623,914.5771341621876,915.1517756748945,"[95, 0, 159]",159,l,0.052408309653401375,colour,0.06
123,21,1,1,13,24,624,915.6709585376084,916.9277816265821,"[81, 0, 173]",173,l,0.7348277699202299,colour,0.06
123,21,1,1,13,25,625,917.4367516674101,918.3117736745626,"[57, 0, 197]",197,a,0.35286521166563034,colour,0.06
123,21,1,1,13,26,626,918.8274390976876,919.4717767927796,"[62, 0, 192]",192,a,0.12219901569187641,colour,0.06
123,21,1,1,13,27,627,919.9838255289942,920.7277964353561,"[72, 0, 182]",182,l,0.22170383296906948,colour,0.06
123,21,1,1,13,28,628,921.2339173927903,921.8157879505306,"[76, 0, 178]",178,l,0.059603091329336166,colour,0.06
123,21,1,1,13,29,629,922.3276968710124,923.3277992699295,"[66, 0, 188]",188,l,0.47776876762509346,colour,0.06
123,21,1,1,13,30,630,923.8435351941735,924.4558138176799,"[79, 0, 175]",175,l,0.09003478847444057,colour,0.06
123,21,1,1,13,31,631,924.9685576912016,925.8478052727878,"[38, 0, 216]",216,a,0.3569690864533186,colour,0.06
123,21,1,1,13,32,632,926.359241578728,927.3277913928032,"[56, 0, 198]",198,a,0.4462075177580118,colour,0.06
123,21,1,1,13,33,633,927.8437726832926,928.5677866209298,"[96, 0, 158]",158,l,0.20175316743552685,colour,0.06
123,21,1,1,13,34,634,929.078282026574,930.0717804171145,"[78, 0, 176]",176,l,0.47126755118370056,colour,0.06
123,21,1,1,13,35,635,930.5783984083682,931.1278885155916,"[75, 0, 179]",179,l,0.02722145803272724,colour,0.06
123,21,1,1,13,36,636,931.6409521941096,932.1762220934033,"[73, 0, 181]",181,l,0.012984316796064377,colour,0.06
123,21,1,1,13,37,637,932.6879010088742,933.2877868730575,"[69, 0, 185]",185,l,0.07784919068217278,colour,0.06
123,21,1,1,13,38,638,933.7973803710192,934.727786982432,"[65, 0, 189]",189,a,0.40811905823647976,colour,0.06
123,21,1,1,13,39,639,935.235013468191,936.2401350419968,"[55, 0, 199]",199,a,0.4828659240156412,colour,0.06
123,21,1,1,13,40,640,936.7507474217564,937.2878042012453,"[89, 0, 165]",165,l,0.014992931857705116,colour,0.06
123,21,1,1,13,41,641,937.7976844217628,938.7118003759533,"[80, 0, 174]",174,l,0.39186109229922295,colour,0.06
123,21,1,1,13,42,642,939.2197066396475,939.7998186722398,"[77, 0, 177]",177,l,0.05790797621011734,colour,0.06
123,21,1,1,13,43,643,940.3135447986424,941.439788615331,"[61, 0, 193]",193,a,0.6040003746747971,colour,0.06
123,21,1,1,13,44,644,941.9543339405209,942.8317820392549,"[86, 0, 168]",168,l,0.35548034869134426,colour,0.06
123,21,1,1,13,45,645,943.3450150694698,944.0397871173918,"[67, 0, 187]",187,l,0.17237894423305988,colour,0.06
123,21,1,1,13,46,646,944.548208925873,945.2797953411937,"[59, 0, 195]",195,a,0.20928113907575607,colour,0.06
123,21,1,1,13,47,647,945.7983677443117,946.5597761850804,"[64, 0, 190]",190,a,0.23915672861039639,colour,0.06
123,21,1,1,13,48,648,947.0797668267041,947.8718094043434,"[93, 0, 161]",161,l,0.2698432467877865,colour,0.06
123,21,1,1,13,49,649,948.3922907784581,949.0798117257655,"[60, 0, 194]",194,l,0.1652838084846735,colour,0.06
123,21,1,1,13,50,650,949.5955488309264,950.4637884125113,"[63, 0, 191]",191,l,0.34606703370809555,colour,0.06
123,21,1,1,14,1,651,954.9546068757772,955.8718058597296,"[52, 0, 202]",202,a,0.3942840341478586,colour,0.06
123,21,1,1,14,2,652,956.3772998154163,956.935787729919,"[65, 0, 189]",189,l,0.03627992048859596,colour,0.06
123,21,1,1,14,3,653,957.4554983470589,958.1037839539349,"[74, 0, 180]",180,l,0.12602129206061363,colour,0.06
123,21,1,1,14,4,654,958.6118465755135,959.2638099174947,"[75, 0, 179]",179,l,0.12975180335342884,colour,0.06
123,21,1,1,14,5,655,959.7837651129812,960.8158076424152,"[93, 0, 161]",161,l,0.509752219542861,colour,0.06
123,21,1,1,14,6,656,961.3307917136699,962.1278195921332,"[51, 0, 203]",203,a,0.2747730165719986,colour,0.06
123,21,1,1,14,7,657,962.6434373613447,963.623753329739,"[90, 0, 164]",164,l,0.4580028150230646,colour,0.06
123,21,1,1,14,8,658,964.1435584705323,964.7357714232057,"[72, 0, 182]",182,l,0.07000771537423134,colour,0.06
123,21,1,1,14,9,659,965.2529949042946,966.1597939860076,"[91, 0, 163]",163,l,0.38459187373518944,colour,0.06
123,21,1,1,14,10,660,966.6750108208507,967.3998478967696,"[63, 0, 191]",191,l,0.20259127207100391,colour,0.06
123,21,1,1,14,11,661,967.9093618392944,968.479824250564,"[94, 0, 160]",160,l,0.048139018937945366,colour,0.06
123,21,1,1,14,12,662,968.987687189132,969.7597810681909,"[54, 0, 200]",200,l,0.2500536609441042,colour,0.06
123,21,1,1,14,13,663,970.2690165620297,970.9437820166349,"[62, 0, 192]",192,a,0.15256179124116898,colour,0.06
123,21,1,1,14,14,664,971.4565247092396,972.4077980741858,"[88, 0, 166]",166,l,0.4289806913584471,colour,0.06
123,21,1,1,14,15,665,972.9255130719393,973.4958049487323,"[60, 0, 194]",194,a,0.048001959919929504,colour,0.06
123,21,1,1,14,16,666,974.0036895498633,974.911789111793,"[0, 0, 254]",254,a,0.38593961484730244,colour,0.06
123,21,1,1,14,17,667,975.4256999529898,976.1357906442136,"[55, 0, 199]",199,a,0.18780195713043213,colour,0.06
123,21,1,1,14,18,668,976.6446098424494,977.2078164257109,"[84, 0, 170]",170,l,0.04099779948592186,colour,0.06
123,21,1,1,14,19,669,977.7227492965758,978.3997864555568,"[66, 0, 188]",188,l,0.1553903929889202,colour,0.06
123,21,1,1,14,20,670,978.9104019869119,979.5277813114226,"[96, 0, 158]",158,l,0.09530405513942242,colour,0.06
123,21,1,1,14,21,671,980.0354642625898,980.607821861282,"[95, 0, 159]",159,l,0.05010352283716202,colour,0.06
123,21,1,1,14,22,672,981.1136832758784,981.8237743601203,"[73, 0, 181]",181,l,0.18792089819908142,colour,0.06
123,21,1,1,14,23,673,982.3324529565871,983.0717701762915,"[61, 0, 193]",193,a,0.21706550754606724,colour,0.06
123,21,1,1,14,24,674,983.5825948379934,984.2557864841074,"[67, 0, 187]",187,a,0.1509619876742363,colour,0.06
123,21,1,1,14,25,675,984.7704724147916,985.5358023811132,"[70, 0, 184]",184,l,0.243833651766181,colour,0.06
123,21,1,1,14,26,676,986.05154145509,986.6397887729108,"[79, 0, 175]",175,l,0.06595503911376,colour,0.06
123,21,1,1,14,27,677,987.145391035825,987.791846441105,"[85, 0, 169]",169,l,0.12442976050078869,colour,0.06
123,21,1,1,14,28,678,988.3016860950738,988.847777703777,"[89, 0, 165]",165,l,0.023814691230654716,colour,0.06
123,21,1,1,14,29,679,989.3643139209598,990.767793867737,"[78, 0, 176]",176,l,0.8810387942939997,colour,0.06
123,21,1,1,14,30,680,991.2863824162632,992.1037961635739,"[99, 0, 155]",155,l,0.2952325325459242,colour,0.06
123,21,1,1,14,31,681,992.614539694041,993.4157683365047,"[83, 0, 171]",171,l,0.2789253368973732,colour,0.06
123,21,1,1,14,32,682,993.9271743148565,994.6797980200499,"[77, 0, 177]",177,l,0.23043461330235004,colour,0.06
123,21,1,1,14,33,683,995.1927793826908,995.815798189491,"[71, 0, 183]",183,a,0.10062924772500992,colour,0.06
123,21,1,1,14,34,684,996.333601411432,997.3118429910392,"[76, 0, 178]",178,l,0.45622696354985237,colour,0.06
123,21,1,1,14,35,685,997.8180687129498,998.6077726315707,"[64, 0, 190]",190,a,0.2674073074012995,colour,0.06
123,21,1,1,14,36,686,999.1150601617992,999.7358238063753,"[98, 0, 156]",156,l,0.09852768667042255,colour,0.06
123,21,1,1,14,37,687,1000.2557923924178,1001.2077541984618,"[57, 0, 197]",197,a,0.4297801982611418,colour,0.06
123,21,1,1,14,38,688,1001.7246803250164,1002.503799630329,"[50, 0, 204]",204,a,0.2575942389667034,colour,0.06
123,21,1,1,14,39,689,1003.0216382965446,1003.791784606874,"[56, 0, 198]",198,a,0.24812066555023193,colour,0.06
123,21,1,1,14,40,690,1004.3030023276806,1005.1357815861702,"[82, 0, 172]",172,l,0.3105472382158041,colour,0.06
123,21,1,1,14,41,691,1005.6467905677855,1006.895803688094,"[35, 0, 219]",219,a,0.7269386388361454,colour,0.06
123,21,1,1,14,42,692,1007.4126104786992,1008.0238091759384,"[34, 0, 220]",220,a,0.08887333609163761,colour,0.06
123,21,1,1,14,43,693,1008.537760976702,1009.263794163242,"[53, 0, 201]",201,a,0.203980365768075,colour,0.06
123,21,1,1,14,44,694,1009.7721911575645,1010.4957639891654,"[59, 0, 195]",195,a,0.2017019670456648,colour,0.06
123,21,1,1,14,45,695,1011.0066552106291,1011.655795071274,"[81, 0, 173]",173,l,0.12690587155520916,colour,0.06
123,21,1,1,14,46,696,1012.1629459373653,1012.9677983559668,"[80, 0, 174]",174,l,0.28243923000991344,colour,0.06
123,21,1,1,14,47,697,1013.4756034016609,1014.2557782139629,"[92, 0, 162]",162,l,0.2579203434288502,colour,0.06
123,21,1,1,14,48,698,1014.7725168690085,1015.527800610289,"[58, 0, 196]",196,a,0.23346210829913616,colour,0.06
123,21,1,1,14,49,699,1016.0382881406695,1016.8317836150527,"[86, 0, 168]",168,l,0.27141547948122025,colour,0.06
123,21,1,1,14,50,700,1017.3509022817016,1017.9837751165032,"[97, 0, 157]",157,l,0.11065184324979782,colour,0.06
123,21,1,1,15,1,701,1022.4910594969988,1023.4717897903174,"[84, 0, 170]",170,l,0.4575621020048857,colour,0.06
123,21,1,1,15,2,702,1023.9921096879989,1024.7997631412,"[80, 0, 174]",174,l,0.2854545172303915,colour,0.06
123,21,1,1,15,3,703,1025.3046470284462,1026.0237567946315,"[53, 0, 201]",201,a,0.19708018191158772,colour,0.06
123,21,1,1,15,4,704,1026.5391122624278,1027.815771408379,"[79, 0, 175]",175,l,0.7543692290782928,colour,0.06
123,21,1,1,15,5,705,1028.3361094221473,1029.0877752937376,"[77, 0, 177]",177,l,0.22930860705673695,colour,0.06
123,21,1,1,15,6,706,1029.6018818747252,1030.3358124624938,"[81, 0, 173]",173,l,0.2117225918918848,colour,0.06
123,21,1,1,15,7,707,1030.8519213572145,1031.7918212339282,"[86, 0, 168]",168,l,0.41763871163129807,colour,0.06
123,21,1,1,15,8,708,1032.305191718042,1033.0237922407687,"[98, 0, 156]",156,l,0.1966280471533537,colour,0.06
123,21,1,1,15,9,709,1033.5396451372653,1034.8558098003268,"[69, 0, 185]",185,l,0.7939342185854912,colour,0.06
123,21,1,1,15,10,710,1035.3678549919277,1036.3357896190137,"[75, 0, 179]",179,l,0.44557539373636246,colour,0.06
123,21,1,1,15,11,711,1036.8523797951639,1037.935801120475,"[64, 0, 190]",190,a,0.5611002966761589,colour,0.06
123,21,1,1,15,12,712,1038.4462339058518,1039.1917983125895,"[88, 0, 166]",166,l,0.2231913898140192,colour,0.06
123,21,1,1,15,13,713,1039.7119752448052,1040.4317903891206,"[58, 0, 196]",196,a,0.19742794893682003,colour,0.06
123,21,1,1,15,14,714,1040.946453081444,1041.9357967879623,"[72, 0, 182]",182,l,0.4670132249593735,colour,0.06
123,21,1,1,15,15,715,1042.4465690683573,1043.25576364249,"[96, 0, 158]",158,l,0.2868530638515949,colour,0.06
123,21,1,1,15,16,716,1043.774905545637,1044.8157828301191,"[67, 0, 187]",187,a,0.5190674681216478,colour,0.06
123,21,1,1,15,17,717,1045.3218305334449,1046.17579555884,"[95, 0, 159]",159,l,0.33199373073875904,colour,0.06
123,21,1,1,15,18,718,1046.6813151147217,1048.255740011111,"[60, 0, 194]",194,a,1.052153492346406,colour,0.06
123,21,1,1,15,19,719,1048.7752820625901,1049.5437750071287,"[92, 0, 162]",162,l,0.24672842025756836,colour,0.06
123,21,1,1,15,20,720,1050.0566063150764,1050.8397873546928,"[55, 0, 199]",199,a,0.26094508171081543,colour,0.06
123,21,1,1,15,21,721,1051.3535737395287,1052.2077951580286,"[66, 0, 188]",188,a,0.33205241337418556,colour,0.06
123,21,1,1,15,22,722,1052.7130988873541,1053.3598035965115,"[6, 0, 248]",248,a,0.124380923807621,colour,0.06
123,21,1,1,15,23,723,1053.8693911880255,1054.5357925333083,"[78, 0, 176]",176,l,0.14419374242424965,colour,0.06
123,21,1,1,15,24,724,1055.0413664411753,1056.2557860910892,"[54, 0, 200]",200,a,0.6920927129685879,colour,0.06
123,21,1,1,15,25,725,1056.7769819013774,1057.5438049379736,"[68, 0, 186]",186,l,0.24615379609167576,colour,0.06
123,21,1,1,15,26,726,1058.057230167091,1058.6717615909874,"[27, 0, 227]",227,a,0.0922312680631876,colour,0.06
123,21,1,1,15,27,727,1059.1823050472885,1059.8637816384435,"[85, 0, 169]",169,l,0.15922015346586704,colour,0.06
123,21,1,1,15,28,728,1060.3699632491916,1061.663801960647,"[62, 0, 192]",192,a,0.7716374099254608,colour,0.06
123,21,1,1,15,29,729,1062.1825322955847,1062.9357810337096,"[51, 0, 203]",203,a,0.23092652671039104,colour,0.06
123,21,1,1,15,30,730,1063.4482826925814,1064.167741799727,"[70, 0, 184]",184,l,0.19720739498734474,colour,0.06
123,21,1,1,15,31,731,1064.6826534029096,1065.303806167096,"[94, 0, 160]",160,l,0.0987604483962059,colour,0.06
123,21,1,1,15,32,732,1065.823424231261,1066.5918324980885,"[82, 0, 172]",172,l,0.24605494178831577,colour,0.06
123,21,1,1,15,33,733,1067.1047583296895,1067.791833050549,"[13, 0, 241]",241,a,0.1649368293583393,colour,0.06
123,21,1,1,15,34,734,1068.308053797111,1069.055769391358,"[50, 0, 204]",204,a,0.2253992911428213,colour,0.06
123,21,1,1,15,35,735,1069.5737285763025,1070.3757626339793,"[56, 0, 198]",198,a,0.2796299271285534,colour,0.06
123,21,1,1,15,36,736,1070.8864167612046,1072.039784360677,"[83, 0, 171]",171,l,0.6311765406280756,colour,0.06
123,21,1,1,15,37,737,1072.558370154351,1073.2237888537347,"[61, 0, 193]",193,l,0.14311027340590954,colour,0.06
123,21,1,1,15,38,738,1073.7303906995803,1074.2799639068544,"[63, 0, 191]",191,a,0.027325434610247612,colour,0.06
123,21,1,1,15,39,739,1074.7928361762315,1075.479765566066,"[90, 0, 164]",164,l,0.16454573906958103,colour,0.06
123,21,1,1,15,40,740,1075.9961017109454,1076.5437730364501,"[73, 0, 181]",181,l,0.025386136025190353,colour,0.06
123,21,1,1,15,41,741,1077.0587527751923,1077.6317728236318,"[59, 0, 195]",195,a,0.05072304233908653,colour,0.06
123,21,1,1,15,42,742,1078.1369024720043,1079.0797609202564,"[93, 0, 161]",161,l,0.4206386376172304,colour,0.06
123,21,1,1,15,43,743,1079.5901196617633,1080.5997940972447,"[57, 0, 197]",197,l,0.48742626793682575,colour,0.06
123,21,1,1,15,44,744,1081.105897333473,1082.0477491095662,"[97, 0, 157]",157,l,0.419532323256135,colour,0.06
123,21,1,1,15,45,745,1082.5592484306544,1083.2077880688012,"[76, 0, 178]",178,l,0.1263859923928976,colour,0.06
123,21,1,1,15,46,746,1083.715522615239,1084.7437641359866,"[52, 0, 202]",202,a,0.506008317694068,colour,0.06
123,21,1,1,15,47,747,1085.2625244036317,1086.0237386785448,"[71, 0, 183]",183,l,0.23892317712306976,colour,0.06
123,21,1,1,15,48,748,1086.543923880905,1087.071788687259,"[74, 0, 180]",180,l,0.005702104419469833,colour,0.06
123,21,1,1,15,49,749,1087.5908340979367,1089.063758166507,"[89, 0, 165]",165,l,0.9506282452493906,colour,0.06
123,21,1,1,15,50,750,1089.5754516534507,1090.5357543304563,"[91, 0, 163]",163,l,0.43814470060169697,colour,0.06
123,21,1,1,16,1,751,1094.965701913461,1095.5917919315398,"[71, 0, 183]",183,l,0.10314355976879597,colour,0.06
123,21,1,1,16,2,752,1096.1071911174804,1096.7277491725981,"[61, 0, 193]",193,l,0.09837487153708935,colour,0.06
123,21,1,1,16,3,753,1097.2478071637452,1097.7761099264026,"[63, 0, 191]",191,a,0.005905328318476677,colour,0.06
123,21,1,1,16,4,754,1098.2948138732463,1099.2637689579278,"[64, 0, 190]",190,a,0.4467340912669897,colour,0.06
123,21,1,1,16,5,755,1099.7792343068868,1100.695779506117,"[84, 0, 170]",170,l,0.3948090299963951,colour,0.06
123,21,1,1,16,6,756,1101.2012525871396,1101.815746203065,"[75, 0, 179]",179,l,0.09219542890787125,colour,0.06
123,21,1,1,16,7,757,1102.3263510987163,1102.9117883238941,"[60, 0, 194]",194,a,0.06314967200160027,colour,0.06
123,21,1,1,16,8,758,1103.4201825633645,1103.9439115915447,"[98, 0, 156]",156,l,0.0015348177403211594,colour,0.06
123,21,1,1,16,9,759,1104.4670852981508,1105.1437829621136,"[94, 0, 160]",160,l,0.15446524880826473,colour,0.06
123,21,1,1,16,10,760,1105.654711600393,1106.3357533868402,"[90, 0, 164]",164,l,0.15899920649826527,colour,0.06
123,21,1,1,16,11,761,1106.8423737417907,1107.3763392232358,"[89, 0, 165]",165,l,0.011713769286870956,colour,0.06
123,21,1,1,16,12,762,1107.8892961684614,1108.6557812858373,"[80, 0, 174]",174,l,0.24415817856788635,colour,0.06
123,21,1,1,16,13,763,1109.1706704404205,1110.0317613221705,"[67, 0, 187]",187,l,0.33901876397430897,colour,0.06
123,21,1,1,16,14,764,1110.5457599908113,1111.3597921747714,"[97, 0, 157]",157,l,0.2917556595057249,colour,0.06
123,21,1,1,16,15,765,1111.873999580741,1112.519772451371,"[53, 0, 201]",201,a,0.12352745980024338,colour,0.06
123,21,1,1,16,16,766,1113.0303119700402,1113.7597814630717,"[78, 0, 176]",176,l,0.2071331050246954,colour,0.06
123,21,1,1,16,17,767,1114.2651249691844,1115.4637754168361,"[93, 0, 161]",161,l,0.6767528019845486,colour,0.06
123,21,1,1,16,18,768,1115.983690045774,1117.0481874607503,"[68, 0, 186]",186,l,0.5422445200383663,colour,0.06
123,21,1,1,16,19,769,1117.561800159514,1118.3117681592703,"[57, 0, 197]",197,a,0.22751148603856564,colour,0.06
123,21,1,1,16,20,770,1118.827687220648,1119.9277954101562,"[81, 0, 173]",173,l,0.5779852643609047,colour,0.06
123,21,1,1,16,21,771,1120.4371262155473,1121.1037477198988,"[55, 0, 199]",199,a,0.14444934949278831,colour,0.06
123,21,1,1,16,22,772,1121.6091621201485,1122.3117780052125,"[9, 0, 245]",245,a,0.1804051324725151,colour,0.06
123,21,1,1,16,23,773,1122.8279601559043,1123.6477704569697,"[83, 0, 171]",171,l,0.29750778153538704,colour,0.06
123,21,1,1,16,24,774,1124.1562178637832,1125.3837525881827,"[58, 0, 196]",196,a,0.7052928581833839,colour,0.06
123,21,1,1,16,25,775,1125.8906947169453,1126.4397874325514,"[88, 0, 166]",166,l,0.026821311563253403,colour,0.06
123,21,1,1,16,26,776,1126.9532764647156,1127.9997766893357,"[49, 0, 205]",205,a,0.5242796260863543,colour,0.06
123,21,1,1,16,27,777,1128.5159308761358,1129.4237366300076,"[76, 0, 178]",178,l,0.38552095741033554,colour,0.06
123,21,1,1,16,28,778,1129.9378987438977,1130.911734368652,"[99, 0, 155]",155,l,0.45179304480552673,colour,0.06
123,21,1,1,16,29,779,1131.4224101565778,1132.3037726897746,"[86, 0, 168]",168,l,0.35913484543561935,colour,0.06
123,21,1,1,16,30,780,1132.813136972487,1133.5997755862772,"[52, 0, 202]",202,a,0.26434594206511974,colour,0.06
123,21,1,1,16,31,781,1134.1100075095892,1135.0077453758568,"[74, 0, 180]",180,l,0.3753085285425186,colour,0.06
123,21,1,1,16,32,782,1135.516471233219,1136.5037693027407,"[70, 0, 184]",184,l,0.4650211501866579,colour,0.06
123,21,1,1,16,33,783,1137.016613215208,1137.7517769355327,"[50, 0, 204]",204,a,0.2129513919353485,colour,0.06
123,21,1,1,16,34,784,1138.2667145319283,1138.7917542811483,"[95, 0, 159]",159,l,0.002728566527366638,colour,0.06
123,21,1,1,16,35,785,1139.2980607412755,1139.9197889138013,"[79, 0, 175]",175,l,0.09951545111835003,colour,0.06
123,21,1,1,16,36,786,1140.4387539811432,1141.6477365866303,"[87, 0, 167]",167,l,0.6869624741375446,colour,0.06
123,21,1,1,16,37,787,1142.1576132606715,1142.8957832083106,"[72, 0, 182]",182,l,0.21577960066497326,colour,0.06
123,21,1,1,16,38,788,1143.4076897650957,1144.7597869765013,"[54, 0, 200]",200,a,0.8297639731317759,colour,0.06
123,21,1,1,16,39,789,1145.2672285009176,1146.071749696508,"[65, 0, 189]",189,l,0.28215172328054905,colour,0.06
123,21,1,1,16,40,790,1146.5798131041229,1147.1277486998588,"[69, 0, 185]",185,l,0.025654738768935204,colour,0.06
123,21,1,1,16,41,791,1147.6424578670412,1148.3117587082088,"[51, 0, 203]",203,a,0.14703376777470112,colour,0.06
123,21,1,1,16,42,792,1148.8300585690886,1149.6077631786466,"[59, 0, 195]",195,a,0.25545053370296955,colour,0.06
123,21,1,1,16,43,793,1150.1269629783928,1151.079728230834,"[92, 0, 162]",162,l,0.43040995858609676,colour,0.06
123,21,1,1,16,44,794,1151.5958997476846,1152.9037408679724,"[62, 0, 192]",192,a,0.7856106758117676,colour,0.06
123,21,1,1,16,45,795,1153.4086027015,1154.2077679838985,"[45, 0, 209]",209,a,0.27696595154702663,colour,0.06
123,21,1,1,16,46,796,1154.7211105041206,1155.4717417415231,"[66, 0, 188]",188,a,0.2285855058580637,colour,0.06
123,21,1,1,16,47,797,1155.9868526291102,1156.5197689067572,"[56, 0, 198]",198,a,0.01064329594373703,colour,0.06
123,21,1,1,16,48,798,1157.0337892360985,1157.5757777579129,"[77, 0, 177]",177,l,0.01973523385822773,colour,0.06
123,21,1,1,16,49,799,1158.0963583812118,1158.6637448538095,"[96, 0, 158]",158,l,0.04507647082209587,colour,0.06
123,21,1,1,16,50,800,1159.1746360752732,1160.2559593822807,"[91, 0, 163]",163,l,0.5590924676507711,colour,0.06
