id,age,condition,counterbalance,block,trialinblock,trial,tstart,tend,trialstim,trialintensity,response,RT,trialtype,colourfreq
69,66,1,1,Practice,1,NA,5.513778887689114e-06,2.3786088522756472,"[25, 0, 229]",229,a,1.8233509998535737,colour,0.5
69,66,1,1,Practice,2,NA,2.891486603883095,4.778529453091323,"[67, 0, 187]",187,a,1.364026341936551,colour,0.5
69,66,1,1,Practice,3,NA,5.297626019571908,6.370517697650939,"[57, 0, 197]",197,a,0.5501477116486058,colour,0.5
69,66,1,1,Practice,4,NA,6.891973790363409,11.306556064402685,"[91, 0, 163]",163,l,3.89170991408173,colour,0.5
69,66,1,1,Practice,5,NA,11.813773079775274,12.56247112620622,"[30, 0, 224]",224,a,0.23820620868355036,colour,0.5
69,66,1,1,Practice,6,NA,13.082788612693548,13.850673219189048,"[22, 0, 232]",232,a,0.24510637565981597,colour,0.5
69,66,1,1,Practice,7,NA,14.363682515104301,15.722445116727613,"[97, 0, 157]",157,l,0.8356507838470861,colour,0.5
69,66,1,1,Practice,8,NA,16.238700484274887,17.282499215216376,"[29, 0, 225]",225,a,0.5207550483755767,colour,0.5
69,66,1,1,Practice,9,NA,17.801188545883633,20.77846289332956,"[45, 0, 209]",209,a,2.4545961532276124,colour,0.5
69,66,1,1,Practice,10,NA,21.285568844294176,22.91441666218452,"[81, 0, 173]",173,l,1.105947888805531,colour,0.5
69,66,1,1,1,1,1,6.005230657407083,7.159959812066518,"[7, 0, 247]",247,a,0.6309663108550012,colour,0.5
69,66,1,1,1,2,2,7.6778011941351,8.320015722303651,"[50, 0, 204]",204,a,0.11911649501416832,colour,0.5
69,66,1,1,1,3,3,8.8369985219324,10.303943295730278,"[71, 0, 183]",183,l,0.9438947897870094,colour,0.5
69,66,1,1,1,4,4,10.821377835702151,12.015973177622072,"[90, 0, 164]",164,l,0.6714914010372013,colour,0.5
69,66,1,1,1,5,5,12.524550534086302,13.056484483066015,"[28, 0, 226]",226,a,0.008954857010394335,colour,0.5
69,66,1,1,1,6,6,13.57139329414349,14.175958589534275,"[38, 0, 216]",216,a,0.08142433303873986,colour,0.5
69,66,1,1,1,7,7,14.697768749087118,15.224047869560309,"[47, 0, 207]",207,a,0.003079081419855356,colour,0.5
69,66,1,1,1,8,8,15.735140321194194,16.31198797666002,"[31, 0, 223]",223,a,0.052870953804813325,colour,0.5
69,66,1,1,1,9,9,16.829766343464144,18.175911328173243,"[84, 0, 170]",170,l,0.8230118992505595,colour,0.5
69,66,1,1,1,10,10,18.689284930820577,19.799972745939158,"[5, 0, 249]",249,a,0.5877752830274403,colour,0.5
69,66,1,1,1,11,11,20.31419626646675,20.903916750568897,"[54, 0, 200]",200,a,0.06671657995320857,colour,0.5
69,66,1,1,1,12,12,21.423505623592064,22.69591885851696,"[82, 0, 172]",172,l,0.7480352050624788,colour,0.5
69,66,1,1,1,13,13,23.20615193992853,23.911910625523888,"[23, 0, 231]",231,a,0.1829237409401685,colour,0.5
69,66,1,1,1,14,14,24.424869903130457,25.303900760482065,"[83, 0, 171]",171,l,0.3559450333705172,colour,0.5
69,66,1,1,1,15,15,25.815529235289432,26.423912071739323,"[36, 0, 218]",218,a,0.08544824901036918,colour,0.5
69,66,1,1,1,16,16,26.940569161437452,32.79991485073697,"[43, 0, 211]",211,a,5.336407557246275,colour,0.5
69,66,1,1,1,17,17,33.31548138312064,34.1279366571689,"[20, 0, 234]",234,a,0.28942261915653944,colour,0.5
69,66,1,1,1,18,18,34.644891493720934,35.76789720961824,"[96, 0, 158]",158,l,0.601760724093765,colour,0.5
69,66,1,1,1,19,19,36.28671217674855,36.991906482260674,"[39, 0, 215]",215,a,0.18215022911317647,colour,0.5
69,66,1,1,1,20,20,37.505514422780834,38.23193028627429,"[17, 0, 237]",237,a,0.20339069166220725,colour,0.5
69,66,1,1,1,21,21,38.73974555241875,40.095868997625075,"[98, 0, 156]",156,l,0.8329281322658062,colour,0.5
69,66,1,1,1,22,22,40.614756826194935,41.59192207851447,"[75, 0, 179]",179,l,0.45309599698521197,colour,0.5
69,66,1,1,1,23,23,42.1002296510851,42.703897767234594,"[56, 0, 198]",198,a,0.08086270990315825,colour,0.5
69,66,1,1,1,24,24,43.225182931288145,44.232070888974704,"[86, 0, 168]",168,l,0.4838115860475227,colour,0.5
69,66,1,1,1,25,25,44.74081011582166,45.927885378478095,"[53, 0, 201]",201,a,0.6640942014055327,colour,0.5
69,66,1,1,1,26,26,46.44375044561457,49.79187095747329,"[61, 0, 193]",193,a,2.8248456423170865,colour,0.5
69,66,1,1,1,27,27,50.30325997446198,51.42382227501366,"[41, 0, 213]",213,a,0.597447725944221,colour,0.5
69,66,1,1,1,28,28,51.94389518362004,52.79984789702576,"[70, 0, 184]",184,l,0.33294605230912566,colour,0.5
69,66,1,1,1,29,29,53.31893579894677,54.311849737074226,"[77, 0, 177]",177,l,0.469967141514644,colour,0.5
69,66,1,1,1,30,30,54.818959232768975,56.05588229384739,"[55, 0, 199]",199,a,0.7139778399141505,colour,0.5
69,66,1,1,1,31,31,56.568882531370036,57.663824811344966,"[19, 0, 235]",235,a,0.5719340434297919,colour,0.5
69,66,1,1,1,32,32,58.17822753149085,61.47187295812182,"[59, 0, 195]",195,l,2.7705340028041974,colour,0.5
69,66,1,1,1,33,33,61.990739912958816,63.43183978064917,"[67, 0, 187]",187,l,0.918047520564869,colour,0.5
69,66,1,1,1,34,34,63.943849497591145,65.0237815513974,"[27, 0, 227]",227,a,0.5568887650733814,colour,0.5
69,66,1,1,1,35,35,65.53757341764867,66.7438222435303,"[65, 0, 189]",189,l,0.6832102632615715,colour,0.5
69,66,1,1,1,36,36,67.2562380147865,68.41588747687638,"[33, 0, 221]",221,a,0.6364911706186831,colour,0.5
69,66,1,1,1,37,37,68.92819769773632,70.24784281174652,"[25, 0, 229]",229,a,0.7965919792186469,colour,0.5
69,66,1,1,1,38,38,70.75624096870888,71.88778918574098,"[64, 0, 190]",190,l,0.609174465178512,colour,0.5
69,66,1,1,1,39,39,72.39694746385794,73.5838313177228,"[22, 0, 232]",232,a,0.6637712484225631,colour,0.5
69,66,1,1,1,40,40,74.10009219916537,75.15178516227752,"[32, 0, 222]",222,a,0.5288312369957566,colour,0.5
69,66,1,1,1,41,41,75.66254402697086,76.72782464756165,"[68, 0, 186]",186,l,0.542242057970725,colour,0.5
69,66,1,1,1,42,42,77.24062166095246,78.36777456616983,"[11, 0, 243]",243,a,0.604109616484493,colour,0.5
69,66,1,1,1,43,43,78.88197721296456,79.96775550406892,"[60, 0, 194]",194,l,0.5627192485844716,colour,0.5
69,66,1,1,1,44,44,80.4757503636647,81.54383476777002,"[10, 0, 244]",244,a,0.5450560814933851,colour,0.5
69,66,1,1,1,45,45,82.0538035791833,85.84778594051022,"[42, 0, 212]",212,l,3.2708469128701836,colour,0.5
69,66,1,1,1,46,46,86.36630867456552,87.39983080409002,"[15, 0, 239]",239,a,0.5109664211049676,colour,0.5
69,66,1,1,1,47,47,87.91319298534654,88.95176657277625,"[3, 0, 251]",251,a,0.515467677381821,colour,0.5
69,66,1,1,1,48,48,89.45385729963891,90.02381739136763,"[29, 0, 225]",225,a,0.04690735065378249,colour,0.5
69,66,1,1,1,49,49,90.53198593656998,91.27174448594451,"[74, 0, 180]",180,l,0.21715873025823385,colour,0.5
69,66,1,1,1,50,50,91.78200986271258,92.90377811715007,"[95, 0, 159]",159,l,0.5987281164852902,colour,0.5
69,66,1,1,2,1,51,98.34366888017394,104.59172082366422,"[9, 0, 245]",245,a,5.736707037081942,colour,0.5
69,66,1,1,2,2,52,105.09756056254264,105.80767990159802,"[5, 0, 249]",249,a,0.1878046637866646,colour,0.5
69,66,1,1,2,3,53,106.3163068825379,106.87972599407658,"[98, 0, 156]",156,l,0.04092326760292053,colour,0.5
69,66,1,1,2,4,54,107.3944012549473,108.03176085406449,"[73, 0, 181]",181,l,0.11428401514422148,colour,0.5
69,66,1,1,2,5,55,108.5506581349764,109.75973083043937,"[24, 0, 230]",230,a,0.6861684340983629,colour,0.5
69,66,1,1,2,6,56,110.26943261490669,110.9757080252748,"[12, 0, 242]",242,a,0.1832285770215094,colour,0.5
69,66,1,1,2,7,57,111.4881549103884,112.25567914859857,"[3, 0, 251]",251,a,0.24438760825432837,colour,0.5
69,66,1,1,2,8,58,112.76940445497166,113.48768544697668,"[34, 0, 220]",220,a,0.19584619405213743,colour,0.5
69,66,1,1,2,9,59,114.00380375643726,114.70371974923182,"[92, 0, 162]",162,l,0.17685734410770237,colour,0.5
69,66,1,1,2,10,60,115.22253392881248,115.79972856189124,"[81, 0, 173]",173,l,0.05412928911391646,colour,0.5
69,66,1,1,2,11,61,116.30590858310461,117.54371661425103,"[22, 0, 232]",232,a,0.7134083397686481,colour,0.5
69,66,1,1,2,12,62,118.05736078857444,118.71167030127253,"[1, 0, 253]",253,l,0.13135326374322176,colour,0.5
69,66,1,1,2,13,63,119.22923599160276,121.9117747489363,"[70, 0, 184]",184,l,2.159537216182798,colour,0.5
69,66,1,1,2,14,64,122.4323415394174,123.16770162608009,"[2, 0, 252]",252,a,0.212416440830566,colour,0.5
69,66,1,1,2,15,65,123.68229142262135,124.39166284969542,"[8, 0, 246]",246,a,0.1864238427951932,colour,0.5
69,66,1,1,2,16,66,124.90114171768073,128.5356486964738,"[47, 0, 207]",207,l,3.1116298927227035,colour,0.5
69,66,1,1,2,17,67,129.0416585764615,130.04765801958274,"[27, 0, 227]",227,a,0.4829608806176111,colour,0.5
69,66,1,1,2,18,68,130.55725740420166,131.60763216752093,"[59, 0, 195]",195,l,0.5273885821225122,colour,0.5
69,66,1,1,2,19,69,132.12145711679477,133.27961075503845,"[15, 0, 239]",239,a,0.633863435825333,colour,0.5
69,66,1,1,2,20,70,133.79446245846339,135.1437018844299,"[43, 0, 211]",211,l,0.8261551773175597,colour,0.5
69,66,1,1,2,21,71,135.65396568586584,136.91963117197156,"[29, 0, 225]",225,a,0.7427135694306344,colour,0.5
69,66,1,1,2,22,72,137.43508782156277,138.4316172581166,"[13, 0, 241]",241,a,0.4733896558173001,colour,0.5
69,66,1,1,2,23,73,138.95069019391667,140.0716108935885,"[44, 0, 210]",210,l,0.5969191857147962,colour,0.5
69,66,1,1,2,24,74,140.59240453888196,141.28767040208913,"[77, 0, 177]",177,l,0.17221509153023362,colour,0.5
69,66,1,1,2,25,75,141.79549157584552,142.84766463621054,"[87, 0, 167]",167,l,0.5291120485635474,colour,0.5
69,66,1,1,2,26,76,143.35799736052286,144.42363126017153,"[60, 0, 194]",194,l,0.5426004570908844,colour,0.5
69,66,1,1,2,27,77,144.93613288970664,145.89560464886017,"[96, 0, 158]",158,l,0.4364540703827515,colour,0.5
69,66,1,1,2,28,78,146.40484208974522,147.35167220747098,"[97, 0, 157]",157,l,0.4236576477997005,colour,0.5
69,66,1,1,2,29,79,147.85796801897231,149.43965445598587,"[25, 0, 229]",229,a,1.0586652036290616,colour,0.5
69,66,1,1,2,30,80,149.9517047390109,151.30363097658847,"[86, 0, 168]",168,l,0.8288723150035366,colour,0.5
69,66,1,1,2,31,81,151.8110713021597,152.79156415211037,"[71, 0, 183]",183,l,0.45741608447860926,colour,0.5
69,66,1,1,2,32,82,153.3111538126832,154.4076238180278,"[36, 0, 218]",218,a,0.5734972149366513,colour,0.5
69,66,1,1,2,33,83,154.92044406826608,155.94358798442408,"[28, 0, 226]",226,a,0.5000990520929918,colour,0.5
69,66,1,1,2,34,84,156.45171084359754,157.76758882880677,"[51, 0, 203]",203,l,0.792866991716437,colour,0.5
69,66,1,1,2,35,85,158.27979507448617,159.47963210137095,"[72, 0, 182]",182,l,0.6767429321771488,colour,0.5
69,66,1,1,2,36,86,159.99852111155633,161.1356087605236,"[23, 0, 231]",231,a,0.6140506617957726,colour,0.5
69,66,1,1,2,37,87,161.6547332900809,162.83955812151544,"[4, 0, 250]",250,a,0.6616870199795812,colour,0.5
69,66,1,1,2,38,88,163.3578729054425,164.3835291597061,"[58, 0, 196]",196,l,0.5024483383167535,colour,0.5
69,66,1,1,2,39,89,164.90504432923626,166.1195280632237,"[50, 0, 204]",204,l,0.6916448508854955,colour,0.5
69,66,1,1,2,40,90,166.63052677968517,167.9275411578128,"[52, 0, 202]",202,l,0.7749470376875252,colour,0.5
69,66,1,1,2,41,91,168.4423633229453,169.4955714083044,"[64, 0, 190]",190,l,0.5301013875287026,colour,0.5
69,66,1,1,2,42,92,169.99241336097475,170.99970500997733,"[65, 0, 189]",189,l,0.48433933849446476,colour,0.5
69,66,1,1,2,43,93,171.5080196717754,172.75150931312237,"[39, 0, 215]",215,a,0.7203829435165972,colour,0.5
69,66,1,1,2,44,94,173.24555693450384,174.41557082533836,"[42, 0, 212]",212,a,0.6469674514373764,colour,0.5
69,66,1,1,2,45,95,174.9330605036812,176.16752636502497,"[41, 0, 213]",213,a,0.7115273354575038,colour,0.5
69,66,1,1,2,46,96,176.68312519276515,177.83960026293062,"[80, 0, 174]",174,l,0.6336921131005511,colour,0.5
69,66,1,1,2,47,97,178.35497026669327,179.36753707763273,"[78, 0, 176]",176,l,0.4894313624827191,colour,0.5
69,66,1,1,2,48,98,179.88619056832977,180.88751034333836,"[83, 0, 171]",171,l,0.4782437972025946,colour,0.5
69,66,1,1,2,49,99,181.40185831894632,183.6635432121111,"[55, 0, 199]",199,l,1.7386723243398592,colour,0.5
69,66,1,1,2,50,100,184.18303598684724,185.65547529433388,"[85, 0, 169]",169,l,0.9495984552195296,colour,0.5
69,66,1,1,3,1,101,191.33839332452044,192.5515064774081,"[98, 0, 156]",156,l,0.6891762295272201,colour,0.5
69,66,1,1,3,2,102,193.05798818392213,193.8075136989355,"[39, 0, 215]",215,a,0.2264534756541252,colour,0.5
69,66,1,1,3,3,103,194.3235941992607,195.2394917192869,"[63, 0, 191]",191,l,0.39282429905142635,colour,0.5
69,66,1,1,3,4,104,195.74543110094965,197.0634917758871,"[35, 0, 219]",219,a,0.7950205369852483,colour,0.5
69,66,1,1,3,5,105,197.5735535348067,198.84750197816174,"[93, 0, 161]",161,l,0.7509039731230587,colour,0.5
69,66,1,1,3,6,106,199.3548603839008,200.40744580002502,"[13, 0, 241]",241,a,0.5295208598254248,colour,0.5
69,66,1,1,3,7,107,200.9173389931675,201.95148103497922,"[59, 0, 195]",195,l,0.51129016187042,colour,0.5
69,66,1,1,3,8,108,202.46408860886004,203.71945465053432,"[34, 0, 220]",220,a,0.7322077502030879,colour,0.5
69,66,1,1,3,9,109,204.22039810661227,205.30352936452255,"[61, 0, 193]",193,l,0.5600186524679884,colour,0.5
69,66,1,1,3,10,110,205.81415392807685,206.83944942022208,"[95, 0, 159]",159,l,0.5022943448275328,colour,0.5
69,66,1,1,3,11,111,207.3471126621589,208.73541089275386,"[48, 0, 206]",206,a,0.8653077171184123,colour,0.5
69,66,1,1,3,12,112,209.2533310437575,210.319444646826,"[28, 0, 226]",226,a,0.543084098957479,colour,0.5
69,66,1,1,3,13,113,210.83137717016507,211.9034862779081,"[56, 0, 198]",198,l,0.5490945697529241,colour,0.5
69,66,1,1,3,14,114,212.4095477515366,213.7434410013957,"[64, 0, 190]",190,l,0.8108420842327178,colour,0.5
69,66,1,1,3,15,115,214.25322982564103,215.10339537844993,"[78, 0, 176]",176,l,0.3271435317583382,colour,0.5
69,66,1,1,3,16,116,215.61263951472938,217.27146958198864,"[41, 0, 213]",213,a,1.1357729940209538,colour,0.5
69,66,1,1,3,17,117,217.78706998517737,218.74341343226843,"[7, 0, 247]",247,a,0.4332950384123251,colour,0.5
69,66,1,1,3,18,118,219.25582132663112,221.16747122665402,"[87, 0, 167]",167,l,1.3886444204254076,colour,0.5
69,66,1,1,3,19,119,221.677673194441,224.23946375621017,"[31, 0, 223]",223,l,2.038771691499278,colour,0.5
69,66,1,1,3,20,120,224.7557821390219,226.15940645965748,"[33, 0, 221]",221,l,0.8806345948250964,colour,0.5
69,66,1,1,3,21,121,226.677617268404,227.6554130667355,"[11, 0, 243]",243,a,0.4554385879309848,colour,0.5
69,66,1,1,3,22,122,228.1619971729815,229.2473879205063,"[32, 0, 222]",222,a,0.562307286541909,colour,0.5
69,66,1,1,3,23,123,229.7557864714181,230.97539767529815,"[45, 0, 209]",209,l,0.6966620442690328,colour,0.5
69,66,1,1,3,24,124,231.49005245626904,232.5914352859836,"[19, 0, 235]",235,a,0.578217055182904,colour,0.5
69,66,1,1,3,25,125,233.0994659854332,234.2954000069294,"[69, 0, 185]",185,l,0.6730529970955104,colour,0.5
69,66,1,1,3,26,126,234.80259102850687,235.7754637625767,"[77, 0, 177]",177,l,0.44986528530716896,colour,0.5
69,66,1,1,3,27,127,236.28692249010783,237.3913962164661,"[46, 0, 208]",208,l,0.5813768747029826,colour,0.5
69,66,1,1,3,28,128,237.91191338247154,239.02342394005973,"[5, 0, 249]",249,a,0.58847081346903,colour,0.5
69,66,1,1,3,29,129,239.53689009638038,240.48735855543055,"[24, 0, 230]",230,a,0.4274342288263142,colour,0.5
69,66,1,1,3,30,130,241.00574620068073,242.5433239506092,"[99, 0, 155]",155,l,1.0146691562840715,colour,0.5
69,66,1,1,3,31,131,243.05251885636244,244.13537166581955,"[14, 0, 240]",240,a,0.5598579637007788,colour,0.5
69,66,1,1,3,32,132,244.64625380409416,245.67938248231076,"[67, 0, 187]",187,l,0.5099861405324191,colour,0.5
69,66,1,1,3,33,133,246.19312117947266,247.4634025306441,"[55, 0, 199]",199,l,0.7471435396000743,colour,0.5
69,66,1,1,3,34,134,247.97446465620305,249.07133283896837,"[18, 0, 236]",236,a,0.5742309484630823,colour,0.5
69,66,1,1,3,35,135,249.57138384191785,251.0873737578513,"[90, 0, 164]",164,l,0.9929107873467728,colour,0.5
69,66,1,1,3,36,136,251.6026626295643,253.0313630704768,"[25, 0, 229]",229,a,0.9057201674440876,colour,0.5
69,66,1,1,3,37,137,253.54008221125696,254.47134796262253,"[22, 0, 232]",232,a,0.4081263644620776,colour,0.5
69,66,1,1,3,38,138,254.97765558958054,258.6393272494897,"[50, 0, 204]",204,l,3.1391226468840614,colour,0.5
69,66,1,1,3,39,139,259.14942602976225,260.0633492040215,"[80, 0, 174]",174,l,0.39096692530438304,colour,0.5
69,66,1,1,3,40,140,260.5712062177481,261.4713853779249,"[72, 0, 182]",182,l,0.37694682576693594,colour,0.5
69,66,1,1,3,41,141,261.9775992697105,262.9113052855246,"[81, 0, 173]",173,l,0.41099552623927593,colour,0.5
69,66,1,1,3,42,142,263.43067793746013,265.4472997779958,"[68, 0, 186]",186,l,1.4935159304877743,colour,0.5
69,66,1,1,3,43,143,265.9619183251634,267.2472449548077,"[54, 0, 200]",200,l,0.7622266272082925,colour,0.5
69,66,1,1,3,44,144,267.7480411126744,268.7592708193697,"[57, 0, 197]",197,l,0.4881746026221663,colour,0.5
69,66,1,1,3,45,145,269.2792724419851,270.2713128316682,"[89, 0, 165]",165,l,0.4688970643328503,colour,0.5
69,66,1,1,3,46,146,270.76687281834893,271.8872665532399,"[37, 0, 217]",217,a,0.5975442179478705,colour,0.5
69,66,1,1,3,47,147,272.40750054456294,273.57526282267645,"[65, 0, 189]",189,l,0.6418978766305372,colour,0.5
69,66,1,1,3,48,148,274.0821060790913,275.5433448244585,"[49, 0, 205]",205,a,0.9382702872389928,colour,0.5
69,66,1,1,3,49,149,276.05083713761996,277.03924745647237,"[40, 0, 214]",214,a,0.46551275288220495,colour,0.5
69,66,1,1,3,50,150,277.5508578144945,278.5912647510413,"[15, 0, 239]",239,a,0.517529456759803,colour,0.5
69,66,1,1,4,1,151,284.06562405359,285.19121930131223,"[19, 0, 235]",235,a,0.601910779136233,colour,0.5
69,66,1,1,4,2,152,285.7070957898395,286.5912714463193,"[8, 0, 246]",246,a,0.36123673676047474,colour,0.5
69,66,1,1,4,3,153,287.0976590238279,287.9032287031878,"[11, 0, 243]",243,a,0.2830313000595197,colour,0.5
69,66,1,1,4,4,154,288.412492531701,289.207280700095,"[75, 0, 179]",179,l,0.27170746435876936,colour,0.5
69,66,1,1,4,5,155,289.72500904859044,290.5032927424181,"[90, 0, 164]",164,l,0.25520810985472053,colour,0.5
69,66,1,1,4,6,156,291.0217571874382,292.54324557550717,"[39, 0, 215]",215,l,0.9983564842259511,colour,0.5
69,66,1,1,4,7,157,293.0531249840278,294.0392868409399,"[43, 0, 211]",211,l,0.4630689437035471,colour,0.5
69,66,1,1,4,8,158,294.5530554703437,295.32720260857604,"[15, 0, 239]",239,a,0.2510424096835777,colour,0.5
69,66,1,1,4,9,159,295.83430934732314,296.9113458516076,"[81, 0, 173]",173,l,0.5539947910001501,colour,0.5
69,66,1,1,4,10,160,297.42808131640777,298.07923100946937,"[84, 0, 170]",170,l,0.12813515507150441,colour,0.5
69,66,1,1,4,11,161,298.5999561257195,300.3672412998276,"[50, 0, 204]",204,l,1.2541675708489493,colour,0.5
69,66,1,1,4,12,162,300.8886489496799,301.8792336876504,"[66, 0, 188]",188,l,0.4675572030246258,colour,0.5
69,66,1,1,4,13,163,302.38860227901023,303.43122223147657,"[2, 0, 252]",252,a,0.519590842188336,colour,0.5
69,66,1,1,4,14,164,303.9510639529908,305.01520951185375,"[99, 0, 155]",155,l,0.5410451625939459,colour,0.5
69,66,1,1,4,15,165,305.5292282329174,306.99115620728116,"[0, 0, 254]",254,a,0.9390398607356474,colour,0.5
69,66,1,1,4,16,166,307.497729285853,309.27919761138037,"[33, 0, 221]",221,a,1.2594261912163347,colour,0.5
69,66,1,1,4,17,167,309.7947030978976,310.7352553239325,"[30, 0, 224]",224,a,0.4183690951904282,colour,0.5
69,66,1,1,4,18,168,311.24780657794327,312.42325238115154,"[92, 0, 162]",162,l,0.6535588438855484,colour,0.5
69,66,1,1,4,19,169,312.9352384672966,314.2872151170159,"[47, 0, 207]",207,l,0.8288538042688742,colour,0.5
69,66,1,1,4,20,170,314.79457903665025,315.79120850993786,"[36, 0, 218]",218,a,0.4745345637202263,colour,0.5
69,66,1,1,4,21,171,316.3102062213002,317.39123946614563,"[61, 0, 193]",193,l,0.5588193940930068,colour,0.5
69,66,1,1,4,22,172,317.903998276568,319.07916956965346,"[9, 0, 245]",245,a,0.6530310913221911,colour,0.5
69,66,1,1,4,23,173,319.59150696580764,320.1991816685768,"[13, 0, 241]",241,a,0.08545927656814456,colour,0.5
69,66,1,1,4,24,174,320.7165575256804,322.00718294782564,"[51, 0, 203]",203,l,0.7685415402520448,colour,0.5
69,66,1,1,4,25,175,322.5132916829316,323.69519457721617,"[3, 0, 251]",251,a,0.6597240957198665,colour,0.5
69,66,1,1,4,26,176,324.2008704765467,325.15913194953464,"[58, 0, 196]",196,l,0.43540604843292385,colour,0.5
69,66,1,1,4,27,177,325.66964190418366,326.70315615681466,"[6, 0, 248]",248,a,0.5104059794684872,colour,0.5
69,66,1,1,4,28,178,327.216610103962,328.4071870438056,"[42, 0, 212]",212,l,0.6676781922578812,colour,0.5
69,66,1,1,4,29,179,328.9196989132324,330.1031555266818,"[72, 0, 182]",182,l,0.6610690768575296,colour,0.5
69,66,1,1,4,30,180,330.6242327404907,331.4071059116395,"[83, 0, 171]",171,l,0.25982436863705516,colour,0.5
69,66,1,1,4,31,181,331.92108327895403,332.91119146428537,"[18, 0, 236]",236,a,0.46633628313429654,colour,0.5
69,66,1,1,4,32,182,333.41315182845574,334.4071803484112,"[95, 0, 159]",159,l,0.4709434836404398,colour,0.5
69,66,1,1,4,33,183,334.9131358778104,336.42313974141143,"[49, 0, 205]",205,l,0.9869211904006079,colour,0.5
69,66,1,1,4,34,184,336.9443685854785,337.8311255030567,"[67, 0, 187]",187,l,0.3643650487065315,colour,0.5
69,66,1,1,4,35,185,338.35060291783884,339.19110036001075,"[55, 0, 199]",199,l,0.3176534391241148,colour,0.5
69,66,1,1,4,36,186,339.7100145762088,341.31914059841074,"[86, 0, 168]",168,l,1.0861126657109708,colour,0.5
69,66,1,1,4,37,187,341.83325069153216,342.8630785535788,"[62, 0, 192]",192,l,0.5069708621595055,colour,0.5
69,66,1,1,4,38,188,343.38010231312364,344.48711673449725,"[80, 0, 174]",174,l,0.5824296227656305,colour,0.5
69,66,1,1,4,39,189,345.00663825997617,345.84708174539264,"[59, 0, 195]",195,l,0.3174289474263787,colour,0.5
69,66,1,1,4,40,190,346.3660195922712,347.4470934031997,"[82, 0, 172]",172,l,0.5582290202146396,colour,0.5
69,66,1,1,4,41,191,347.9595627373783,348.98314618470613,"[7, 0, 247]",247,a,0.5011332894209772,colour,0.5
69,66,1,1,4,42,192,349.4909929584246,350.21509892016184,"[93, 0, 161]",161,l,0.20105558377690613,colour,0.5
69,66,1,1,4,43,193,350.7253142786212,352.1670742307324,"[1, 0, 253]",253,a,0.9186662512365729,colour,0.5
69,66,1,1,4,44,194,352.6661425901111,353.39914315054193,"[4, 0, 250]",250,a,0.2100962990662083,colour,0.5
69,66,1,1,4,45,195,353.91608577792067,354.9590503448853,"[71, 0, 183]",183,l,0.5200729086063802,colour,0.5
69,66,1,1,4,46,196,355.47854863340035,356.19908005651087,"[68, 0, 186]",186,l,0.19745741446968168,colour,0.5
69,66,1,1,4,47,197,356.7129030365031,357.7990602067439,"[22, 0, 232]",232,a,0.5630571678048,colour,0.5
69,66,1,1,4,48,198,358.3066742180381,359.64708402962424,"[44, 0, 210]",210,a,0.817277513910085,colour,0.5
69,66,1,1,4,49,199,360.1660588979721,361.14303943689447,"[38, 0, 216]",216,a,0.45405776682309806,colour,0.5
69,66,1,1,4,50,200,361.65044904255774,362.60704888287,"[77, 0, 177]",177,l,0.43416622385848314,colour,0.5
69,66,1,1,5,1,201,367.11833707557525,368.2150406310102,"[57, 0, 197]",197,a,0.5729379547992721,colour,0.4
69,66,1,1,5,2,202,368.7202344639227,369.72706649568863,"[61, 0, 193]",193,l,0.48381473682820797,colour,0.4
69,66,1,1,5,3,203,370.2357844548533,370.95106434682384,"[60, 0, 194]",194,l,0.1922748062061146,colour,0.4
69,66,1,1,5,4,204,371.47018572560046,372.7030584833119,"[47, 0, 207]",207,l,0.7097826014505699,colour,0.4
69,66,1,1,5,5,205,373.22019606397953,374.21507568331435,"[19, 0, 235]",235,a,0.4718020660802722,colour,0.4
69,66,1,1,5,6,206,374.735815765569,375.7750462866388,"[75, 0, 179]",179,l,0.5162234661402181,colour,0.4
69,66,1,1,5,7,207,376.27134040079545,377.15905318048317,"[88, 0, 166]",166,l,0.36459544813260436,colour,0.4
69,66,1,1,5,8,208,377.67756331164856,378.55105237395037,"[71, 0, 183]",183,l,0.350404026103206,colour,0.4
69,66,1,1,5,9,209,379.0682537575485,379.78303937392775,"[62, 0, 192]",192,l,0.19177934911567718,colour,0.4
69,66,1,1,5,10,210,380.30259752692655,381.2630405081436,"[64, 0, 190]",190,l,0.43740796332713217,colour,0.4
69,66,1,1,5,11,211,381.7714591451222,382.7990235791076,"[28, 0, 226]",226,a,0.5049110520631075,colour,0.4
69,66,1,1,5,12,212,383.3182182130404,384.17505983496085,"[79, 0, 175]",175,l,0.3338089670287445,colour,0.4
69,66,1,1,5,13,213,384.69320250849705,385.51907136046793,"[89, 0, 165]",165,l,0.30282910785172135,colour,0.4
69,66,1,1,5,14,214,386.036926920875,386.99098094622605,"[97, 0, 157]",157,l,0.4309662322048098,colour,0.4
69,66,1,1,5,15,215,387.5055951611139,390.04700187349226,"[36, 0, 218]",218,l,2.018322463845834,colour,0.4
69,66,1,1,5,16,216,390.5681720346911,391.43097095831763,"[8, 0, 246]",246,a,0.339750908780843,colour,0.4
69,66,1,1,5,17,217,391.94484947039746,392.74297232565004,"[15, 0, 239]",239,a,0.27506578189786524,colour,0.4
69,66,1,1,5,18,218,393.2573033659719,394.24698265385814,"[51, 0, 203]",203,l,0.46670295286457986,colour,0.4
69,66,1,1,5,19,219,394.75728623371106,395.9110421970254,"[94, 0, 160]",160,l,0.630773720680736,colour,0.4
69,66,1,1,5,20,220,396.4291348522529,397.3749626339413,"[53, 0, 201]",201,l,0.42277267773170024,colour,0.4
69,66,1,1,5,21,221,397.87132606480736,399.2310075070709,"[50, 0, 204]",204,l,0.8365971936145797,colour,0.4
69,66,1,1,5,22,222,399.7464038984617,400.7109802844934,"[17, 0, 237]",237,a,0.4415638172067702,colour,0.4
69,66,1,1,5,23,223,401.2306719510816,402.0229989811778,"[20, 0, 234]",234,a,0.26916873862501234,colour,0.4
69,66,1,1,5,24,224,402.54424436669797,403.17498539818916,"[80, 0, 174]",174,l,0.10759022296406329,colour,0.4
69,66,1,1,5,25,225,403.6869742413983,405.734970967751,"[31, 0, 223]",223,a,1.5249459546757862,colour,0.4
69,66,1,1,5,26,226,406.2510817941511,407.2069561717799,"[12, 0, 242]",242,a,0.4328255751170218,colour,0.4
69,66,1,1,5,27,227,407.71984731417615,409.7989530808991,"[34, 0, 220]",220,l,1.556468138587661,colour,0.4
69,66,1,1,5,28,228,410.31360786175355,411.24695390323177,"[54, 0, 200]",200,l,0.41027400200255215,colour,0.4
69,66,1,1,5,29,229,411.7666514774319,412.91888444148935,"[24, 0, 230]",230,a,0.6293212196324021,colour,0.4
69,66,1,1,5,30,230,413.43853948044125,415.2309374026954,"[55, 0, 199]",199,l,1.2693101291079074,colour,0.4
69,66,1,1,5,31,231,415.751083960291,416.63892080134246,"[10, 0, 244]",244,a,0.36484199529513717,colour,0.4
69,66,1,1,5,32,232,417.1573423172813,418.270938284928,"[99, 0, 155]",155,l,0.5906503526493907,colour,0.4
69,66,1,1,5,33,233,418.76990581979044,419.7829283095198,"[67, 0, 187]",187,l,0.48989097971934825,colour,0.4
69,66,1,1,5,34,234,420.30110170308035,421.4069097767351,"[90, 0, 164]",164,l,0.5826923174317926,colour,0.4
69,66,1,1,5,35,235,421.92608826304786,423.9029805806931,"[18, 0, 236]",236,l,1.4538273673970252,colour,0.4
69,66,1,1,5,36,236,424.41049022297375,425.59893606672995,"[83, 0, 171]",171,l,0.6654135826975107,colour,0.4
69,66,1,1,5,37,237,426.1135427985573,427.2069352979306,"[38, 0, 216]",216,l,0.5709490368608385,colour,0.4
69,66,1,1,5,38,238,427.72291773092,428.6948672919534,"[29, 0, 225]",225,a,0.44886846328154206,colour,0.4
69,66,1,1,5,39,239,429.2072747924831,431.03893750032876,"[49, 0, 205]",205,l,1.308636354515329,colour,0.4
69,66,1,1,5,40,240,431.55099959869403,432.6469107377343,"[16, 0, 238]",238,a,0.572770964470692,colour,0.4
69,66,1,1,5,41,241,433.16044384776615,434.3028881846694,"[73, 0, 181]",181,l,0.6194364943075925,colour,0.4
69,66,1,1,5,42,242,434.80551887326874,436.158837353345,"[56, 0, 198]",198,l,0.8303610496222973,colour,0.4
69,66,1,1,5,43,243,436.66480194125324,437.878935153014,"[82, 0, 172]",172,l,0.6914550175424665,colour,0.4
69,66,1,1,5,44,244,438.3991872611223,439.31087221344933,"[59, 0, 195]",195,l,0.3887795093469322,colour,0.4
69,66,1,1,5,45,245,439.8210537012201,441.6469607561594,"[46, 0, 208]",208,l,1.3032158637652174,colour,0.4
69,66,1,1,5,46,246,442.16474621207453,443.07081414491404,"[93, 0, 161]",161,l,0.39209292852319777,colour,0.4
69,66,1,1,5,47,247,443.57924184028525,444.1988248449052,"[77, 0, 177]",177,l,0.09657713130582124,colour,0.4
69,66,1,1,5,48,248,444.7199067847105,445.5349362306297,"[52, 0, 202]",202,l,0.29199521557893604,colour,0.4
69,66,1,1,5,49,249,446.047962067998,446.7348150050966,"[70, 0, 184]",184,l,0.16394513112027198,colour,0.4
69,66,1,1,5,50,250,447.2511495355284,448.3668076763861,"[45, 0, 209]",209,l,0.5927113442448899,colour,0.4
69,66,1,1,6,1,251,453.1252841100795,454.0388185591437,"[12, 0, 242]",242,a,0.3897582145873457,colour,0.28
69,66,1,1,6,2,252,454.5478539575124,455.26287588092964,"[59, 0, 195]",195,l,0.19200108386576176,colour,0.28
69,66,1,1,6,3,253,455.78218472993467,456.67080965510104,"[94, 0, 160]",160,l,0.3655969963874668,colour,0.28
69,66,1,1,6,4,254,457.18849901284557,457.82284569658805,"[82, 0, 172]",172,l,0.11198829172644764,colour,0.28
69,66,1,1,6,5,255,458.3291537173791,459.0307825427735,"[75, 0, 179]",179,l,0.1784957399358973,colour,0.28
69,66,1,1,6,6,256,459.54790003737435,460.42284593288787,"[65, 0, 189]",189,l,0.35191087750718,colour,0.28
69,66,1,1,6,7,257,460.938459726749,461.95080047054216,"[2, 0, 252]",252,a,0.48923562141135335,colour,0.28
69,66,1,1,6,8,258,462.4697135052411,463.4068077709526,"[91, 0, 163]",163,l,0.41228221845813096,colour,0.28
69,66,1,1,6,9,259,463.92446759028826,464.654877043562,"[57, 0, 197]",197,l,0.2065977726597339,colour,0.28
69,66,1,1,6,10,260,465.1753993295133,465.92678930738475,"[69, 0, 185]",185,l,0.22831636318005621,colour,0.28
69,66,1,1,6,11,261,466.441031338647,467.7188268613536,"[84, 0, 170]",170,l,0.7547845293302089,colour,0.28
69,66,1,1,6,12,262,468.23800574149936,468.94279753719456,"[93, 0, 161]",161,l,0.1818627220345661,colour,0.28
69,66,1,1,6,13,263,469.45659649267327,470.27878289250657,"[67, 0, 187]",187,l,0.2992246370995417,colour,0.28
69,66,1,1,6,14,264,470.7869825514499,471.43081184488256,"[89, 0, 165]",165,l,0.12075370934326202,colour,0.28
69,66,1,1,6,15,265,471.94320083467755,472.56679397053085,"[98, 0, 156]",156,l,0.10046674578916281,colour,0.28
69,66,1,1,6,16,266,473.0838059147354,474.0308471333701,"[78, 0, 176]",176,l,0.42410899430979043,colour,0.28
69,66,1,1,6,17,267,474.536930662347,475.35083016648423,"[81, 0, 173]",173,l,0.2908195877680555,colour,0.28
69,66,1,1,6,18,268,475.86512654833496,476.71075421746355,"[29, 0, 225]",225,a,0.3226627556141466,colour,0.28
69,66,1,1,6,19,269,477.2199380954262,479.84673516161274,"[38, 0, 216]",216,l,2.1037269959924743,colour,0.28
69,66,1,1,6,20,270,480.3605916184606,481.1987441065721,"[73, 0, 181]",181,l,0.31516433774959296,colour,0.28
69,66,1,1,6,21,271,481.70629904116504,484.47077767481096,"[52, 0, 202]",202,l,2.2416897689690813,colour,0.28
69,66,1,1,6,22,272,484.98720003280323,485.9987873508362,"[97, 0, 157]",157,l,0.4885404846863821,colour,0.28
69,66,1,1,6,23,273,486.51846523280255,487.2067509784829,"[70, 0, 184]",184,l,0.16522749094292521,colour,0.28
69,66,1,1,6,24,274,487.72157196199987,489.0067721672822,"[50, 0, 204]",204,l,0.7621273781405762,colour,0.28
69,66,1,1,6,25,275,489.51841206359677,490.5107415355742,"[51, 0, 203]",203,l,0.4693279308266938,colour,0.28
69,66,1,1,6,26,276,491.0184248635778,492.02271186804865,"[11, 0, 243]",243,a,0.4812638018047437,colour,0.28
69,66,1,1,6,27,277,492.5369609884219,493.5107502002502,"[32, 0, 222]",222,a,0.4507254430791363,colour,0.28
69,66,1,1,6,28,278,494.0214428990148,494.8866659393534,"[63, 0, 191]",191,l,0.3422333146445453,colour,0.28
69,66,1,1,6,29,279,495.39631573623046,496.3427240457386,"[55, 0, 199]",199,l,0.4232464734232053,colour,0.28
69,66,1,1,6,30,280,496.84946805308573,497.6466980613768,"[80, 0, 174]",174,l,0.27439506363589317,colour,0.28
69,66,1,1,6,31,281,498.1620003237622,498.8947047126712,"[79, 0, 175]",175,l,0.20968591247219592,colour,0.28
69,66,1,1,6,32,282,499.41368470096495,500.58270964678377,"[48, 0, 206]",206,l,0.6460541245760396,colour,0.28
69,66,1,1,6,33,283,501.1018515054602,502.1347100059502,"[99, 0, 155]",155,l,0.5105410683900118,colour,0.28
69,66,1,1,6,34,284,502.64803043950815,503.57465866429266,"[56, 0, 198]",198,l,0.40363259136211127,colour,0.28
69,66,1,1,6,35,285,504.08548842114396,504.8467524908483,"[77, 0, 177]",177,l,0.23822275025304407,colour,0.28
69,66,1,1,6,36,286,505.3667021258734,506.0947197575588,"[83, 0, 171]",171,l,0.20516535791102797,colour,0.28
69,66,1,1,6,37,287,506.60107700899243,507.3107103430666,"[74, 0, 180]",180,l,0.18657350388821214,colour,0.28
69,66,1,1,6,38,288,507.8209891106235,509.2787423264235,"[44, 0, 210]",210,l,0.9331530572380871,colour,0.28
69,66,1,1,6,39,289,509.79130303277634,510.4547241528053,"[62, 0, 192]",192,l,0.140327419154346,colour,0.28
69,66,1,1,6,40,290,510.9631774481386,511.80667480872944,"[86, 0, 168]",168,l,0.32040208438411355,colour,0.28
69,66,1,1,6,41,291,512.3224796175491,513.030693927547,"[64, 0, 190]",190,l,0.18513478757813573,colour,0.28
69,66,1,1,6,42,292,513.5320769147947,514.334665580187,"[60, 0, 194]",194,l,0.2796481702243909,colour,0.28
69,66,1,1,6,43,293,514.844535930315,515.5346558128949,"[71, 0, 183]",183,l,0.16699191718362272,colour,0.28
69,66,1,1,6,44,294,516.0477592376992,516.9586978534935,"[7, 0, 247]",247,a,0.38799063756596297,colour,0.28
69,66,1,1,6,45,295,517.4710025604581,518.2786277175182,"[18, 0, 236]",236,a,0.2844908902188763,colour,0.28
69,66,1,1,6,46,296,518.7998987030005,519.7746583492262,"[54, 0, 200]",200,l,0.4519625107059255,colour,0.28
69,66,1,1,6,47,297,520.272050503525,521.318654987379,"[24, 0, 230]",230,a,0.5220937280682847,colour,0.28
69,66,1,1,6,48,298,521.8360213921405,522.9507027970394,"[41, 0, 213]",213,l,0.591607790091075,colour,0.28
69,66,1,1,6,49,299,523.4610347335692,524.3985964934109,"[31, 0, 223]",223,a,0.41454210178926587,colour,0.28
69,66,1,1,6,50,300,524.9141279737232,527.2146393028088,"[30, 0, 224]",224,l,1.7774432281730697,colour,0.28
69,66,1,1,7,1,301,534.0545314049814,535.7426229850389,"[42, 0, 212]",212,l,1.1643043177900836,colour,0.14
69,66,1,1,7,2,302,536.2583588709822,537.0386507810326,"[18, 0, 236]",236,a,0.2572336553130299,colour,0.14
69,66,1,1,7,3,303,537.5553141722921,538.3666816459736,"[61, 0, 193]",193,l,0.28835057257674634,colour,0.14
69,66,1,1,7,4,304,538.8834974551573,539.4386044648709,"[74, 0, 180]",180,l,0.032239769701845944,colour,0.14
69,66,1,1,7,5,305,539.9459041877417,540.5826127608307,"[73, 0, 181]",181,l,0.11398193589411676,colour,0.14
69,66,1,1,7,6,306,541.1026187157258,541.7346058732364,"[12, 0, 242]",242,a,0.10955590405501425,colour,0.14
69,66,1,1,7,7,307,542.2432324604597,542.9985518314643,"[59, 0, 195]",195,l,0.23226151010021567,colour,0.14
69,66,1,1,7,8,308,543.5088522604201,544.070584533154,"[93, 0, 161]",161,l,0.03864290413912386,colour,0.14
69,66,1,1,7,9,309,544.5869572666707,545.1986381622264,"[71, 0, 183]",183,l,0.08863248687703162,colour,0.14
69,66,1,1,7,10,310,545.7119574142853,546.2705700396327,"[87, 0, 167]",167,l,0.03558430273551494,colour,0.14
69,66,1,1,7,11,311,546.7870542312739,547.5586346806958,"[63, 0, 191]",191,l,0.2472465301398188,colour,0.14
69,66,1,1,7,12,312,548.0697673044633,549.1425774565432,"[36, 0, 218]",218,l,0.5497979770880193,colour,0.14
69,66,1,1,7,13,313,549.6495144480141,550.19874253124,"[51, 0, 203]",203,l,0.02640652935951948,colour,0.14
69,66,1,1,7,14,314,550.7119534758385,551.2706574732438,"[66, 0, 188]",188,l,0.03643776511307806,colour,0.14
69,66,1,1,7,15,315,551.7900320944609,552.4225726043805,"[70, 0, 184]",184,l,0.10986349720042199,colour,0.14
69,66,1,1,7,16,316,552.9307836849475,553.6225396001246,"[53, 0, 201]",201,l,0.16877800482325256,colour,0.14
69,66,1,1,7,17,317,554.1338199159363,554.8066220334731,"[90, 0, 164]",164,l,0.15019363386090845,colour,0.14
69,66,1,1,7,18,318,555.3213390420424,555.9665507317986,"[65, 0, 189]",189,l,0.12212507810909301,colour,0.14
69,66,1,1,7,19,319,556.4775971035706,557.1345843693707,"[68, 0, 186]",186,l,0.13397233397699893,colour,0.14
69,66,1,1,7,20,320,557.6494537958642,558.3025514470646,"[79, 0, 175]",175,l,0.13027058343868703,colour,0.14
69,66,1,1,7,21,321,558.8213282112265,559.3746050226036,"[89, 0, 165]",165,l,0.030537571059539914,colour,0.14
69,66,1,1,7,22,322,559.8837810236728,560.7825620336225,"[85, 0, 169]",169,l,0.3757452042773366,colour,0.14
69,66,1,1,7,23,323,561.2899854237912,563.3105303557822,"[43, 0, 211]",211,l,1.497459895676002,colour,0.14
69,66,1,1,7,24,324,563.8213270297274,564.750555026345,"[86, 0, 168]",168,l,0.4061977048404515,colour,0.14
69,66,1,1,7,25,325,565.2587850113632,565.9185189532582,"[99, 0, 155]",155,l,0.13663354562595487,colour,0.14
69,66,1,1,7,26,326,566.4306476113852,567.0065642170375,"[78, 0, 176]",176,l,0.05284456617664546,colour,0.14
69,66,1,1,7,27,327,567.5243713345844,568.1106208614074,"[81, 0, 173]",173,l,0.06322435499168932,colour,0.14
69,66,1,1,7,28,328,568.6181155376835,569.3425231847214,"[80, 0, 174]",174,l,0.20129031548276544,colour,0.14
69,66,1,1,7,29,329,569.8525431959424,571.0784976698924,"[67, 0, 187]",187,l,0.7029178806114942,colour,0.14
69,66,1,1,7,30,330,571.5868580177194,572.4625758497277,"[62, 0, 192]",192,l,0.3527052632998675,colour,0.14
69,66,1,1,7,31,331,572.9775193191599,573.742521766806,"[88, 0, 166]",166,l,0.24225139210466295,colour,0.14
69,66,1,1,7,32,332,574.2588070667116,575.5665734172799,"[52, 0, 202]",202,l,0.7847108526621014,colour,0.14
69,66,1,1,7,33,333,576.0868538822979,576.7185535328463,"[82, 0, 172]",172,l,0.10863745724782348,colour,0.14
69,66,1,1,7,34,334,577.2274632946355,577.7905716623645,"[84, 0, 170]",170,l,0.03883076831698418,colour,0.14
69,66,1,1,7,35,335,578.3072189058876,579.0384877291508,"[64, 0, 190]",190,l,0.2083503835601732,colour,0.14
69,66,1,1,7,36,336,579.5571605182486,580.1425002629403,"[96, 0, 158]",158,l,0.062391372630372643,colour,0.14
69,66,1,1,7,37,337,580.6509173244704,581.4945174786262,"[56, 0, 198]",198,l,0.3205426870845258,colour,0.14
69,66,1,1,7,38,338,582.0102809336968,582.6865252578864,"[57, 0, 197]",197,l,0.15323451231233776,colour,0.14
69,66,1,1,7,39,339,583.1977405891521,584.1185166689102,"[17, 0, 237]",237,a,0.39769143727608025,colour,0.14
69,66,1,1,7,40,340,584.6352296846453,585.6785459552193,"[92, 0, 162]",162,l,0.5202509266091511,colour,0.14
69,66,1,1,7,41,341,586.1976354325889,586.7424792315578,"[83, 0, 171]",171,l,0.022417271859012544,colour,0.14
69,66,1,1,7,42,342,587.2600445281714,587.9346807826078,"[76, 0, 178]",178,l,0.1517367191845551,colour,0.14
69,66,1,1,7,43,343,588.4477582137333,588.9825940137962,"[98, 0, 156]",156,l,0.012189113418571651,colour,0.14
69,66,1,1,7,44,344,589.4945450478699,590.2145144538954,"[97, 0, 157]",157,l,0.19684419757686555,colour,0.14
69,66,1,1,7,45,345,590.7289423800539,592.0785055467859,"[54, 0, 200]",200,l,0.8269263261463493,colour,0.14
69,66,1,1,7,46,346,592.5883436015574,594.7585370858433,"[40, 0, 214]",214,l,1.6471813094103709,colour,0.14
69,66,1,1,7,47,347,595.2758215708891,596.3344489653828,"[95, 0, 159]",159,l,0.5356258534593508,colour,0.14
69,66,1,1,7,48,348,596.8539153524907,597.4784675013507,"[91, 0, 163]",163,l,0.10145805415231735,colour,0.14
69,66,1,1,7,49,349,597.9945515462896,598.6465239818208,"[69, 0, 185]",185,l,0.12892796529922634,colour,0.14
69,66,1,1,7,50,350,599.1664291124325,600.4545154148946,"[50, 0, 204]",204,l,0.7653289453592151,colour,0.14
69,66,1,1,8,1,351,605.6986915282905,606.87846844655,"[84, 0, 170]",170,l,0.6561412864830345,colour,0.06
69,66,1,1,8,2,352,607.3870103569934,608.0864159264602,"[72, 0, 182]",182,l,0.17645759135484695,colour,0.06
69,66,1,1,8,3,353,608.6056369480211,609.1584379944252,"[77, 0, 177]",177,l,0.029623456532135606,colour,0.06
69,66,1,1,8,4,354,609.6709226885578,610.3184273449006,"[60, 0, 194]",194,l,0.12442473997361958,colour,0.06
69,66,1,1,8,5,355,610.8178789154626,611.6224785541417,"[85, 0, 169]",169,l,0.2816177897620946,colour,0.06
69,66,1,1,8,6,356,612.130322964862,613.0863970218925,"[64, 0, 190]",190,l,0.43305361131206155,colour,0.06
69,66,1,1,8,7,357,613.5990601279773,614.5423999899067,"[65, 0, 189]",189,l,0.42044229595921934,colour,0.06
69,66,1,1,8,8,358,615.0522085063858,615.7184353793273,"[69, 0, 185]",185,l,0.14313474751543254,colour,0.06
69,66,1,1,8,9,359,616.2133742722217,618.1664531369461,"[51, 0, 203]",203,l,1.430085200467147,colour,0.06
69,66,1,1,8,10,360,618.6823867331259,619.4863830010872,"[93, 0, 161]",161,l,0.28113926807418466,colour,0.06
69,66,1,1,8,11,361,619.9948473239783,620.6144141809782,"[83, 0, 171]",171,l,0.09646724839694798,colour,0.06
69,66,1,1,8,12,362,621.1198864623439,621.7584055415355,"[76, 0, 178]",178,l,0.11541238147765398,colour,0.06
69,66,1,1,8,13,363,622.2762134467484,623.1583946715109,"[14, 0, 240]",240,a,0.3591950435657054,colour,0.06
69,66,1,1,8,14,364,623.6668203976005,624.622459255741,"[68, 0, 186]",186,l,0.43276925513055176,colour,0.06
69,66,1,1,8,15,365,625.1355807975633,625.6703929669457,"[90, 0, 164]",164,l,0.011829532799310982,colour,0.06
69,66,1,1,8,16,366,626.1823975638254,629.4863566134591,"[82, 0, 172]",172,l,2.780810210388154,colour,0.06
69,66,1,1,8,17,367,629.9949678406119,630.8143803890562,"[96, 0, 158]",158,l,0.29640864429529756,colour,0.06
69,66,1,1,8,18,368,631.32456227066,632.1984057936352,"[59, 0, 195]",195,l,0.3508415879914537,colour,0.06
69,66,1,1,8,19,369,632.7151223538676,633.6783651803853,"[62, 0, 192]",192,l,0.44032911281101406,colour,0.06
69,66,1,1,8,20,370,634.1994904432213,635.1743324029958,"[23, 0, 231]",231,a,0.452015679795295,colour,0.06
69,66,1,1,8,21,371,635.6838321448304,636.4063304305309,"[87, 0, 167]",167,l,0.1995542460354045,colour,0.06
69,66,1,1,8,22,372,636.9183082460659,637.6064277890837,"[80, 0, 174]",174,l,0.16516605101060122,colour,0.06
69,66,1,1,8,23,373,638.1214059168706,640.0624027941376,"[89, 0, 165]",165,l,1.418006757623516,colour,0.06
69,66,1,1,8,24,374,640.5698714765022,641.5663178118411,"[52, 0, 202]",202,l,0.473407378885895,colour,0.06
69,66,1,1,8,25,375,642.085458095069,642.8544037204701,"[86, 0, 168]",168,l,0.2462607357883826,colour,0.06
69,66,1,1,8,26,376,643.3553298473125,643.9503443979193,"[79, 0, 175]",175,l,0.07210280618164688,colour,0.06
69,66,1,1,8,27,377,644.4645765830064,645.134351212997,"[94, 0, 160]",160,l,0.14662539691198617,colour,0.06
69,66,1,1,8,28,378,645.6520823184401,646.1903682019329,"[81, 0, 173]",173,l,0.01516973355319351,colour,0.06
69,66,1,1,8,29,379,646.7017107452266,647.9903074710164,"[40, 0, 214]",214,l,0.7655463479459286,colour,0.06
69,66,1,1,8,30,380,648.4985634498298,649.4222902173642,"[95, 0, 159]",159,l,0.4007890293141827,colour,0.06
69,66,1,1,8,31,381,649.9368201494217,650.7343234863365,"[91, 0, 163]",163,l,0.2744135744869709,colour,0.06
69,66,1,1,8,32,382,651.2525894333376,651.8623204017058,"[71, 0, 183]",183,l,0.0865860675694421,colour,0.06
69,66,1,1,8,33,383,652.3776092733024,652.9583252759185,"[73, 0, 181]",181,l,0.057687286171130836,colour,0.06
69,66,1,1,8,34,384,653.4713810456451,655.2703845385695,"[70, 0, 184]",184,l,1.2759247581707314,colour,0.06
69,66,1,1,8,35,385,655.7714331513271,656.4862995058065,"[97, 0, 157]",157,l,0.19022366066928953,colour,0.06
69,66,1,1,8,36,386,657.0073109474033,658.166277875891,"[55, 0, 199]",199,l,0.6359086736338213,colour,0.06
69,66,1,1,8,37,387,658.679204070475,660.6223017177545,"[54, 0, 200]",200,l,1.4200350601458922,colour,0.06
69,66,1,1,8,38,388,661.132328818203,661.8142472694162,"[66, 0, 188]",188,l,0.15902246057521552,colour,0.06
69,66,1,1,8,39,389,662.3354934427189,663.3342890642816,"[56, 0, 198]",198,l,0.475868123350665,colour,0.06
69,66,1,1,8,40,390,663.8510580059374,664.4862593336729,"[67, 0, 187]",187,l,0.11207375617232174,colour,0.06
69,66,1,1,8,41,391,665.0072837721091,665.6622521877289,"[61, 0, 193]",193,l,0.13224847370292991,colour,0.06
69,66,1,1,8,42,392,666.1791747290408,666.7182735089445,"[75, 0, 179]",179,l,0.014838509727269411,colour,0.06
69,66,1,1,8,43,393,667.2276086234488,668.0462582939072,"[92, 0, 162]",162,l,0.29632948141079396,colour,0.06
69,66,1,1,8,44,394,668.5556237346027,669.1342755947262,"[99, 0, 155]",155,l,0.05549947638064623,colour,0.06
69,66,1,1,8,45,395,669.6494356789626,670.238300731522,"[78, 0, 176]",176,l,0.06590171437710524,colour,0.06
69,66,1,1,8,46,396,670.758841528208,671.870229599881,"[63, 0, 191]",191,l,0.5883581737289205,colour,0.06
69,66,1,1,8,47,397,672.3838308451232,673.1182204973884,"[74, 0, 180]",180,l,0.21133572980761528,colour,0.06
69,66,1,1,8,48,398,673.6338468942558,674.4622824350372,"[58, 0, 196]",196,l,0.30541903350967914,colour,0.06
69,66,1,1,8,49,399,674.9775752450805,675.9182290831814,"[50, 0, 204]",204,a,0.41791774856392294,colour,0.06
69,66,1,1,8,50,400,676.4182517293375,677.0542462611338,"[88, 0, 166]",166,l,0.11296266468707472,colour,0.06
69,66,1,1,9,1,401,684.2611697437242,685.1742087355815,"[79, 0, 175]",175,l,0.39689232548698783,colour,0.06
69,66,1,1,9,2,402,685.6917307091644,686.6702303088969,"[54, 0, 200]",200,a,0.45546182489488274,colour,0.06
69,66,1,1,9,3,403,687.1760156970704,688.1662274637492,"[82, 0, 172]",172,l,0.4671070381300524,colour,0.06
69,66,1,1,9,4,404,688.6760706384666,689.2942168960581,"[93, 0, 161]",161,l,0.09513487026561052,colour,0.06
69,66,1,1,9,5,405,689.8010223432211,690.3982191898394,"[88, 0, 166]",166,l,0.07448635704349726,colour,0.06
69,66,1,1,9,6,406,690.910371478647,691.8222167259082,"[17, 0, 237]",237,a,0.3887519402196631,colour,0.06
69,66,1,1,9,7,407,692.321419780259,693.006239688606,"[71, 0, 183]",183,l,0.16174353659152985,colour,0.06
69,66,1,1,9,8,408,693.5245209956774,694.1742040094687,"[91, 0, 163]",163,l,0.1256047000642866,colour,0.06
69,66,1,1,9,9,409,694.6817463409388,696.4622146936599,"[83, 0, 171]",171,l,1.2574683870188892,colour,0.06
69,66,1,1,9,10,410,696.9786504423246,697.8542091608979,"[81, 0, 173]",173,l,0.3528931273613125,colour,0.06
69,66,1,1,9,11,411,698.3693022915395,699.8142413616879,"[25, 0, 229]",229,a,0.9312775667058304,colour,0.06
69,66,1,1,9,12,412,700.3287401800044,700.8541815917706,"[97, 0, 157]",157,l,0.0025210027815774083,colour,0.06
69,66,1,1,9,13,413,701.3756038139109,703.390202865703,"[86, 0, 168]",168,l,1.4918881685007364,colour,0.06
69,66,1,1,9,14,414,703.906864681514,704.558155371109,"[85, 0, 169]",169,l,0.12828599766362458,colour,0.06
69,66,1,1,9,15,415,705.0787320076488,706.1342354224762,"[69, 0, 185]",185,l,0.5325294428039342,colour,0.06
69,66,1,1,9,16,416,706.6412212507566,707.7101855049841,"[77, 0, 177]",177,l,0.545879217912443,colour,0.06
69,66,1,1,9,17,417,708.2193323615938,708.8461770830909,"[90, 0, 164]",164,l,0.10387586953584105,colour,0.06
69,66,1,1,9,18,418,709.3599220816977,709.9502313643461,"[84, 0, 170]",170,l,0.06740305200219154,colour,0.06
69,66,1,1,9,19,419,710.4692794878501,711.2221869511995,"[68, 0, 186]",186,l,0.22977910400368273,colour,0.06
69,66,1,1,9,20,420,711.7348756572464,712.9981414447539,"[53, 0, 201]",201,l,0.7401567266788334,colour,0.06
69,66,1,1,9,21,421,713.5162002292927,714.1101368257077,"[80, 0, 174]",174,l,0.07116821163799614,colour,0.06
69,66,1,1,9,22,422,714.6255792969605,715.1581678166986,"[74, 0, 180]",180,l,0.009458978893235326,colour,0.06
69,66,1,1,9,23,423,715.672380703385,716.5901521384949,"[23, 0, 231]",231,a,0.3946367744356394,colour,0.06
69,66,1,1,9,24,424,717.109952112427,717.7741758888587,"[64, 0, 190]",190,l,0.1410792695824057,colour,0.06
69,66,1,1,9,25,425,718.2817776909797,719.262187045766,"[52, 0, 202]",202,l,0.4574385335436091,colour,0.06
69,66,1,1,9,26,426,719.7817920662928,720.422169307014,"[51, 0, 203]",203,l,0.1173756995704025,colour,0.06
69,66,1,1,9,27,427,720.938003260293,721.5900989694055,"[78, 0, 176]",176,l,0.1290287896990776,colour,0.06
69,66,1,1,9,28,428,722.1098512880271,722.7101551789092,"[65, 0, 189]",189,l,0.07761309354100376,colour,0.06
69,66,1,1,9,29,429,723.2192535925424,724.0861788317561,"[99, 0, 155]",155,l,0.3438953412696719,colour,0.06
69,66,1,1,9,30,430,724.594190626638,725.1421532853274,"[98, 0, 156]",156,l,0.024833905627019703,colour,0.06
69,66,1,1,9,31,431,725.6567663187161,726.8701906092465,"[66, 0, 188]",188,l,0.6904168417677283,colour,0.06
69,66,1,1,9,32,432,727.3910543589154,728.2061204323545,"[56, 0, 198]",198,l,0.291947954101488,colour,0.06
69,66,1,1,9,33,433,728.7192321280017,729.9101324146613,"[95, 0, 159]",159,l,0.6678723578806967,colour,0.06
69,66,1,1,9,34,434,730.422272494412,730.9981186017394,"[96, 0, 158]",158,l,0.05267993896268308,colour,0.06
69,66,1,1,9,35,435,731.5160844388884,732.6540988055058,"[63, 0, 191]",191,l,0.6151936004171148,colour,0.06
69,66,1,1,9,36,436,733.1722139099147,733.830128681031,"[60, 0, 194]",194,l,0.13469897827599198,colour,0.06
69,66,1,1,9,37,437,734.3441891496768,734.9021180598065,"[58, 0, 196]",196,l,0.034839541534893215,colour,0.06
69,66,1,1,9,38,438,735.4221815161873,735.9740901094628,"[62, 0, 192]",192,l,0.028668775921687484,colour,0.06
69,66,1,1,9,39,439,736.4847654789919,737.1100482105976,"[55, 0, 199]",199,l,0.10218784911558032,colour,0.06
69,66,1,1,9,40,440,737.6253878882853,738.1981214374537,"[76, 0, 178]",178,l,0.04967056820169091,colour,0.06
69,66,1,1,9,41,441,738.7035338543355,740.2861076245317,"[89, 0, 165]",165,l,1.0594056325498968,colour,0.06
69,66,1,1,9,42,442,740.797315472737,741.4221267716493,"[67, 0, 187]",187,l,0.10177234245929867,colour,0.06
69,66,1,1,9,43,443,741.9378725036513,742.678092639544,"[57, 0, 197]",197,l,0.21716503181960434,colour,0.06
69,66,1,1,9,44,444,743.1878920975141,743.8221052677836,"[92, 0, 162]",162,l,0.11110568488948047,colour,0.06
69,66,1,1,9,45,445,744.3284959959565,744.8621144207427,"[94, 0, 160]",160,l,0.01058576989453286,colour,0.06
69,66,1,1,9,46,446,745.3753710513702,745.9020904906793,"[75, 0, 179]",179,l,0.0036237691529095173,colour,0.06
69,66,1,1,9,47,447,746.4222173560411,747.7981236430351,"[50, 0, 204]",204,l,0.8526932509848848,colour,0.06
69,66,1,1,9,48,448,748.3128953959094,749.1421083869645,"[59, 0, 195]",195,l,0.30611495790071785,colour,0.06
69,66,1,1,9,49,449,749.656598146772,750.2221030622022,"[87, 0, 167]",167,l,0.042445085127837956,colour,0.06
69,66,1,1,9,50,450,750.7347031530226,751.96609780984,"[61, 0, 193]",193,l,0.7083667280385271,colour,0.06
69,66,1,1,10,1,451,756.9213546382962,757.9500517710112,"[82, 0, 172]",172,l,0.5047078280476853,colour,0.06
69,66,1,1,10,2,452,758.4690739007201,759.0140468809986,"[98, 0, 156]",156,l,0.02191590704023838,colour,0.06
69,66,1,1,10,3,453,759.5315550699597,761.0380115704611,"[95, 0, 159]",159,l,0.9834313286701217,colour,0.06
69,66,1,1,10,4,454,761.5471521255095,762.4780378162395,"[50, 0, 204]",204,l,0.40781286370474845,colour,0.06
69,66,1,1,10,5,455,762.9846746977419,763.6540456364164,"[73, 0, 181]",181,l,0.146512363338843,colour,0.06
69,66,1,1,10,6,456,764.1721122978488,764.9180754836416,"[67, 0, 187]",187,l,0.22271588526200503,colour,0.06
69,66,1,1,10,7,457,765.4378356791567,765.9660312500782,"[76, 0, 178]",178,l,0.00516567297745496,colour,0.06
69,66,1,1,10,8,458,766.4846296024043,768.1260083912639,"[78, 0, 176]",176,l,1.1182201034389436,colour,0.06
69,66,1,1,10,9,459,768.640864033252,769.3100282032974,"[99, 0, 155]",155,l,0.14595192181877792,colour,0.06
69,66,1,1,10,10,460,769.8285091897706,772.1659911565948,"[35, 0, 219]",219,a,1.8145142963621765,colour,0.06
69,66,1,1,10,11,461,772.6720845317468,773.3260545498924,"[91, 0, 163]",163,l,0.13079557893797755,colour,0.06
69,66,1,1,10,12,462,773.8439648548374,775.1419685719302,"[54, 0, 200]",200,l,0.7748989885440096,colour,0.06
69,66,1,1,10,13,463,775.6564977163216,776.3179976597894,"[79, 0, 175]",175,l,0.13852872839197516,colour,0.06
69,66,1,1,10,14,464,776.8283520456171,777.7419975589728,"[24, 0, 230]",230,a,0.3906628767726943,colour,0.06
69,66,1,1,10,15,465,778.2502972546499,779.3739799903706,"[80, 0, 174]",174,l,0.6012522700475529,colour,0.06
69,66,1,1,10,16,466,779.8909793314524,780.9899723087437,"[56, 0, 198]",198,l,0.5760938359890133,colour,0.06
69,66,1,1,10,17,467,781.500059667509,782.0859515831107,"[77, 0, 177]",177,l,0.06286359298974276,colour,0.06
69,66,1,1,10,18,468,782.593874368933,783.3339897419792,"[3, 0, 251]",251,a,0.21698937681503594,colour,0.06
69,66,1,1,10,19,469,783.8438789965585,785.0139677181141,"[65, 0, 189]",189,l,0.6469733591657132,colour,0.06
69,66,1,1,10,20,470,785.5314534580102,786.0860201121541,"[61, 0, 193]",193,l,0.031536362366750836,colour,0.06
69,66,1,1,10,21,471,786.5938696428202,787.1419543935917,"[88, 0, 166]",166,l,0.02490361628588289,colour,0.06
69,66,1,1,10,22,472,787.6563196983188,791.1339668201981,"[93, 0, 161]",161,l,2.954557359451428,colour,0.06
69,66,1,1,10,23,473,791.6407494243467,792.2139788245549,"[94, 0, 160]",160,l,0.050093557918444276,colour,0.06
69,66,1,1,10,24,474,792.7344266737346,793.453994751675,"[75, 0, 179]",179,l,0.19648501090705395,colour,0.06
69,66,1,1,10,25,475,793.9691910697147,794.5819723686436,"[86, 0, 168]",168,l,0.0900448156753555,colour,0.06
69,66,1,1,10,26,476,795.0938883504132,796.0139602350537,"[52, 0, 202]",202,l,0.39729562296997756,colour,0.06
69,66,1,1,10,27,477,796.5313636612846,797.1739385578549,"[62, 0, 192]",192,l,0.11955760163255036,colour,0.06
69,66,1,1,10,28,478,797.6876197535312,798.3179385829717,"[60, 0, 194]",194,l,0.10727435920853168,colour,0.06
69,66,1,1,10,29,479,798.8282000214094,799.4219459968153,"[66, 0, 188]",188,l,0.07069441594649106,colour,0.06
69,66,1,1,10,30,480,799.9376279258868,800.6139486560132,"[96, 0, 158]",158,l,0.1532459338195622,colour,0.06
69,66,1,1,10,31,481,801.1251285412582,801.6779528245097,"[83, 0, 171]",171,l,0.02976957301143557,colour,0.06
69,66,1,1,10,32,482,802.187636098126,802.9019305895781,"[59, 0, 195]",195,l,0.1911968521308154,colour,0.06
69,66,1,1,10,33,483,803.4218723477097,804.0139393612044,"[63, 0, 191]",191,l,0.06890202662907541,colour,0.06
69,66,1,1,10,34,484,804.5312671691645,805.1339156202739,"[58, 0, 196]",196,l,0.07955199328716844,colour,0.06
69,66,1,1,10,35,485,805.6406422983855,806.2619401048869,"[55, 0, 199]",199,l,0.09813754574861377,colour,0.06
69,66,1,1,10,36,486,806.781305273762,807.3419111493276,"[64, 0, 190]",190,l,0.03758621762972325,colour,0.06
69,66,1,1,10,37,487,807.8593913753284,808.4379258697154,"[89, 0, 165]",165,l,0.05540455970913172,colour,0.06
69,66,1,1,10,38,488,808.9531548768282,810.8699184622383,"[71, 0, 183]",183,l,1.3935552755137905,colour,0.06
69,66,1,1,10,39,489,811.3906731167808,811.9179029794177,"[84, 0, 170]",170,l,0.004920701263472438,colour,0.06
69,66,1,1,10,40,490,812.4376643565483,812.989905355149,"[74, 0, 180]",180,l,0.029286325094290078,colour,0.06
69,66,1,1,10,41,491,813.4999879878014,814.8619557011407,"[53, 0, 201]",201,l,0.8398818622808903,colour,0.06
69,66,1,1,10,42,492,815.3750662152888,816.1499246377498,"[68, 0, 186]",186,l,0.251806469168514,colour,0.06
69,66,1,1,10,43,493,816.6561751571717,818.7338914382271,"[69, 0, 185]",185,l,1.5545536573044956,colour,0.06
69,66,1,1,10,44,494,819.2500546460506,819.9338970307726,"[90, 0, 164]",164,l,0.16135402384679765,colour,0.06
69,66,1,1,10,45,495,820.4531649198616,821.1259256837657,"[85, 0, 169]",169,l,0.1496631244663149,colour,0.06
69,66,1,1,10,46,496,821.6405753447907,822.5578528980259,"[70, 0, 184]",184,l,0.3941243817098439,colour,0.06
69,66,1,1,10,47,497,823.0780904339626,826.381845077849,"[72, 0, 182]",182,l,2.7806168323149905,colour,0.06
69,66,1,1,10,48,498,826.8905701263575,827.4938676342135,"[92, 0, 162]",162,l,0.0802593391854316,colour,0.06
69,66,1,1,10,49,499,828.0000031507807,830.805878060055,"[87, 0, 167]",167,l,2.2829848263645545,colour,0.06
69,66,1,1,10,50,500,831.3124972184887,832.4539337056922,"[51, 0, 203]",203,a,0.6184845705283806,colour,0.06
69,66,1,1,11,1,501,837.7804931650171,839.0138279030798,"[64, 0, 190]",190,l,0.7095116359414533,colour,0.06
69,66,1,1,11,2,502,839.5312904061284,840.445810255711,"[62, 0, 192]",192,l,0.3915372131159529,colour,0.06
69,66,1,1,11,3,503,840.9531410923228,843.0698240181664,"[72, 0, 182]",182,l,1.5936790216946974,colour,0.06
69,66,1,1,11,4,504,843.5781213508453,844.3418394695036,"[5, 0, 249]",249,a,0.24067679920699447,colour,0.06
69,66,1,1,11,5,505,844.8593476585811,845.4218321754597,"[97, 0, 157]",157,l,0.03937151760328561,colour,0.06
69,66,1,1,11,6,506,845.9375653044553,848.1258583363378,"[85, 0, 169]",169,l,1.6651713679311797,colour,0.06
69,66,1,1,11,7,507,848.6405907047447,849.301766513614,"[60, 0, 194]",194,l,0.1381533939857036,colour,0.06
69,66,1,1,11,8,508,849.8124950523488,850.3738177261548,"[51, 0, 203]",203,l,0.03831128659658134,colour,0.06
69,66,1,1,11,9,509,850.890553584788,851.4457992280368,"[75, 0, 179]",179,l,0.03216415154747665,colour,0.06
69,66,1,1,11,10,510,851.9530560217099,852.4778121429263,"[94, 0, 160]",160,l,0.0017077125376090407,colour,0.06
69,66,1,1,11,11,511,852.9999929107726,855.4618196670199,"[92, 0, 162]",162,l,1.9389642424648628,colour,0.06
69,66,1,1,11,12,512,855.9686881294474,856.5178925818764,"[87, 0, 167]",167,l,0.02620015444699675,colour,0.06
69,66,1,1,11,13,513,857.0311307018856,857.6297749293735,"[69, 0, 185]",185,l,0.07560290803667158,colour,0.06
69,66,1,1,11,14,514,858.1404948034324,858.7817802509526,"[95, 0, 159]",159,l,0.1180964361410588,colour,0.06
69,66,1,1,11,15,515,859.2968005201546,861.2618235267,"[82, 0, 172]",172,l,1.4419781423639506,colour,0.06
69,66,1,1,11,16,516,861.7812044493621,862.4217530126916,"[76, 0, 178]",178,l,0.11788257828447968,colour,0.06
69,66,1,1,11,17,517,862.9374148555798,863.5417686561123,"[96, 0, 158]",158,l,0.08124316425528377,colour,0.06
69,66,1,1,11,18,518,864.0623527758289,865.429853619542,"[57, 0, 197]",197,a,0.8444402258610353,colour,0.06
69,66,1,1,11,19,519,865.9373183635762,866.7497626098339,"[37, 0, 217]",217,a,0.28930525318719447,colour,0.06
69,66,1,1,11,20,520,867.265448477352,868.3257603476522,"[77, 0, 177]",177,l,0.537445024237968,colour,0.06
69,66,1,1,11,21,521,868.8436289048987,869.5257352202898,"[91, 0, 163]",163,l,0.15906302665825933,colour,0.06
69,66,1,1,11,22,522,870.0467360280454,871.309776142356,"[53, 0, 201]",201,l,0.7399842225713655,colour,0.06
69,66,1,1,11,23,523,871.8279798618751,873.0297794191865,"[63, 0, 191]",191,l,0.6788043176056817,colour,0.06
69,66,1,1,11,24,524,873.546750797308,874.2297141196905,"[70, 0, 184]",184,l,0.15991058142390102,colour,0.06
69,66,1,1,11,25,525,874.749844529666,875.3977721756091,"[86, 0, 168]",168,l,0.12502811069134623,colour,0.06
69,66,1,1,11,26,526,875.9061014095787,876.981722434517,"[27, 0, 227]",227,a,0.5525706469779834,colour,0.06
69,66,1,1,11,27,527,877.4998154835775,878.1417236003326,"[68, 0, 186]",186,l,0.11908656288869679,colour,0.06
69,66,1,1,11,28,528,878.6560995389009,879.1897758587729,"[73, 0, 181]",181,l,0.01069289562292397,colour,0.06
69,66,1,1,11,29,529,879.7029706557514,880.2297976148548,"[74, 0, 180]",180,l,0.0037769749760627747,colour,0.06
69,66,1,1,11,30,530,880.7498701296281,882.4377647869987,"[71, 0, 183]",183,l,1.1651002787984908,colour,0.06
69,66,1,1,11,31,531,882.952994188061,884.5336818337673,"[52, 0, 202]",202,l,1.057677833829075,colour,0.06
69,66,1,1,11,32,532,885.0466564713279,885.7417573133716,"[88, 0, 166]",166,l,0.1720008396077901,colour,0.06
69,66,1,1,11,33,533,886.2497836805414,886.9016950700898,"[98, 0, 156]",156,l,0.12943366239778697,colour,0.06
69,66,1,1,11,34,534,887.421648249845,888.1176588742528,"[65, 0, 189]",189,l,0.17297718185000122,colour,0.06
69,66,1,1,11,35,535,888.6247431637021,891.7497240130324,"[78, 0, 176]",176,l,2.6019828527932987,colour,0.06
69,66,1,1,11,36,536,892.2653964898782,894.1096724823583,"[81, 0, 173]",173,l,1.3213386482093483,colour,0.06
69,66,1,1,11,37,537,894.6246884192806,895.3257099353941,"[58, 0, 196]",196,l,0.1779305721865967,colour,0.06
69,66,1,1,11,38,538,895.8435083883815,897.437761242385,"[66, 0, 188]",188,l,1.0712079899385571,colour,0.06
69,66,1,1,11,39,539,897.9528075054986,898.5096592491027,"[79, 0, 175]",175,l,0.033713538316078484,colour,0.06
69,66,1,1,11,40,540,899.0309518962167,900.5817159754224,"[89, 0, 165]",165,l,1.02773142431397,colour,0.06
69,66,1,1,11,41,541,901.0935256190132,901.725728997495,"[93, 0, 161]",161,l,0.10919632343575358,colour,0.06
69,66,1,1,11,42,542,902.2341283360729,902.7736839762656,"[83, 0, 171]",171,l,0.016644289600662887,colour,0.06
69,66,1,1,11,43,543,903.2809825176373,904.8776783931535,"[80, 0, 174]",174,l,1.073751048068516,colour,0.06
69,66,1,1,11,44,544,905.3902662748005,906.5096230154159,"[59, 0, 195]",195,l,0.5962177475448698,colour,0.06
69,66,1,1,11,45,545,907.0309656807221,907.8377121692756,"[99, 0, 155]",155,l,0.2837236797204241,colour,0.06
69,66,1,1,11,46,546,908.358977247146,909.8457347949734,"[55, 0, 199]",199,a,0.9636807822389528,colour,0.06
69,66,1,1,11,47,547,910.358985911822,911.6696966487216,"[67, 0, 187]",187,l,0.7875823776703328,colour,0.06
69,66,1,1,11,48,548,912.1872359514236,914.013618771336,"[54, 0, 200]",200,a,1.303391124936752,colour,0.06
69,66,1,1,11,49,549,914.5309418530669,915.6856725831749,"[50, 0, 204]",204,a,0.6317634534789249,colour,0.06
69,66,1,1,11,50,550,916.2028204038506,917.0856526546413,"[84, 0, 170]",170,l,0.359763755928725,colour,0.06
69,66,1,1,12,1,551,922.2175848706393,923.0696471817791,"[68, 0, 186]",186,l,0.3282258182298392,colour,0.06
69,66,1,1,12,2,552,923.5777405025437,924.213600733201,"[67, 0, 187]",187,l,0.1128382096067071,colour,0.06
69,66,1,1,12,3,553,924.7339717826108,926.8457060442306,"[59, 0, 195]",195,l,1.5887626527110115,colour,0.06
69,66,1,1,12,4,554,927.3589414072921,927.8935984016862,"[76, 0, 178]",178,l,0.011865372769534588,colour,0.06
69,66,1,1,12,5,555,928.4057124875253,930.2696401713183,"[72, 0, 182]",182,l,1.3409048749599606,colour,0.06
69,66,1,1,12,6,556,930.7808141488349,931.3415767748374,"[97, 0, 157]",157,l,0.03777526330668479,colour,0.06
69,66,1,1,12,7,557,931.8588943427894,932.6695910982089,"[62, 0, 192]",192,l,0.28792325069662184,colour,0.06
69,66,1,1,12,8,558,933.1870563580887,933.7496034963988,"[83, 0, 171]",171,l,0.0394652527756989,colour,0.06
69,66,1,1,12,9,559,934.2651460042689,934.9016533225076,"[64, 0, 190]",190,l,0.11348293407354504,colour,0.06
69,66,1,1,12,10,560,935.4215269455453,936.0936087203445,"[91, 0, 163]",163,l,0.14918302732985467,colour,0.06
69,66,1,1,12,11,561,936.6089732103283,938.0456041170983,"[89, 0, 165]",165,l,0.9137030147248879,colour,0.06
69,66,1,1,12,12,562,938.5620485304389,939.9815684410278,"[73, 0, 181]",181,l,0.8964982833713293,colour,0.06
69,66,1,1,12,13,563,940.4994452691171,941.2295605200343,"[58, 0, 196]",196,l,0.20726376480888575,colour,0.06
69,66,1,1,12,14,564,941.7494849490467,943.3015605326509,"[75, 0, 179]",179,l,1.029253242071718,colour,0.06
69,66,1,1,12,15,565,943.8120015644236,944.4376403319184,"[74, 0, 180]",180,l,0.10260020499117672,colour,0.06
69,66,1,1,12,16,566,944.9526428781683,945.4855724676745,"[84, 0, 170]",170,l,0.009943408309482038,colour,0.06
69,66,1,1,12,17,567,945.9994895766722,946.5575776003534,"[85, 0, 169]",169,l,0.035310186562128365,colour,0.06
69,66,1,1,12,18,568,947.0775114815915,949.7735776380869,"[98, 0, 156]",156,l,2.1729712741216645,colour,0.06
69,66,1,1,12,19,569,950.2807312444784,952.621552624274,"[56, 0, 198]",198,a,1.8179651675745845,colour,0.06
69,66,1,1,12,20,570,953.1400749644963,954.2694731809897,"[66, 0, 188]",188,l,0.6064329091459513,colour,0.06
69,66,1,1,12,21,571,954.7806755152997,955.4055462848628,"[71, 0, 183]",183,l,0.10186292685102671,colour,0.06
69,66,1,1,12,22,572,955.9213660598034,956.9095692161936,"[21, 0, 233]",233,a,0.46520594763569534,colour,0.06
69,66,1,1,12,23,573,957.4213056045119,958.5495049563469,"[95, 0, 159]",159,l,0.6051225862465799,colour,0.06
69,66,1,1,12,24,574,959.0618608632358,959.6295567391207,"[82, 0, 172]",172,l,0.044745140825398266,colour,0.06
69,66,1,1,12,25,575,960.1400269153528,962.541536681354,"[88, 0, 166]",166,l,1.8785452463198453,colour,0.06
69,66,1,1,12,26,576,963.0618844939163,964.837559751235,"[86, 0, 168]",168,l,1.2526516609359533,colour,0.06
69,66,1,1,12,27,577,965.358765752404,965.9814680105774,"[69, 0, 185]",185,l,0.09966527100186795,colour,0.06
69,66,1,1,12,28,578,966.4993924938608,967.5494773872197,"[2, 0, 252]",252,a,0.5273267484735698,colour,0.06
69,66,1,1,12,29,579,968.0617781557376,969.0614666242618,"[8, 0, 246]",246,a,0.4765605031279847,colour,0.06
69,66,1,1,12,30,580,969.5774797770428,971.2935087624937,"[70, 0, 184]",184,l,1.1929510383633897,colour,0.06
69,66,1,1,12,31,581,971.8118964077439,972.3655056243297,"[79, 0, 175]",175,l,0.030636032344773412,colour,0.06
69,66,1,1,12,32,582,972.8743913616054,973.6054593238514,"[54, 0, 200]",200,l,0.20800852589309216,colour,0.06
69,66,1,1,12,33,583,974.1243286416866,974.813500145101,"[53, 0, 201]",201,l,0.1663034757366404,colour,0.06
69,66,1,1,12,34,584,975.3274680601899,976.0695156374713,"[51, 0, 203]",203,l,0.21898656559642404,colour,0.06
69,66,1,1,12,35,585,976.5774742632639,977.2934796179179,"[93, 0, 161]",161,l,0.1930038136197254,colour,0.06
69,66,1,1,12,36,586,977.8118042479036,978.3654638767475,"[81, 0, 173]",173,l,0.03067502297926694,colour,0.06
69,66,1,1,12,37,587,978.8743405555142,979.4934934813064,"[65, 0, 189]",189,l,0.0961001847172156,colour,0.06
69,66,1,1,12,38,588,979.9993257371243,980.6054813791998,"[63, 0, 191]",191,l,0.08345972478855401,colour,0.06
69,66,1,1,12,39,589,981.1243235217407,981.6854973221198,"[77, 0, 177]",177,l,0.038198253023438156,colour,0.06
69,66,1,1,12,40,590,982.2024753955193,982.7814958947711,"[92, 0, 162]",162,l,0.05601659510284662,colour,0.06
69,66,1,1,12,41,591,983.2962597708683,983.8614783608355,"[90, 0, 164]",164,l,0.04227651946712285,colour,0.06
69,66,1,1,12,42,592,984.3742623772705,985.0215055203298,"[96, 0, 158]",158,l,0.12419827899429947,colour,0.06
69,66,1,1,12,43,593,985.5305188634666,987.021445262013,"[52, 0, 202]",202,l,0.9679457312449813,colour,0.06
69,66,1,1,12,44,594,987.5304960204521,988.2694653039798,"[80, 0, 174]",174,l,0.21590275794733316,colour,0.06
69,66,1,1,12,45,595,988.7805349125993,990.5575035574147,"[78, 0, 176]",176,l,1.253965922165662,colour,0.06
69,66,1,1,12,46,596,991.0773795434507,992.7094923375407,"[50, 0, 204]",204,l,1.1090604469645768,colour,0.06
69,66,1,1,12,47,597,993.2179755651159,994.3894368369365,"[61, 0, 193]",193,l,0.6483908077934757,colour,0.06
69,66,1,1,12,48,598,994.9054196636425,995.6454409076832,"[60, 0, 194]",194,l,0.21687082946300507,colour,0.06
69,66,1,1,12,49,599,996.1554538297933,996.8534198952839,"[55, 0, 199]",199,l,0.1748759092297405,colour,0.06
69,66,1,1,12,50,600,997.3741694298806,998.0614705627086,"[99, 0, 155]",155,l,0.1642204289091751,colour,0.06
69,66,1,1,13,1,601,1002.6390551024815,1003.3254346377216,"[89, 0, 165]",165,l,0.16258282074704766,colour,0.06
69,66,1,1,13,2,602,1003.842923528282,1005.2453800980002,"[45, 0, 209]",209,l,0.8794270656071603,colour,0.06
69,66,1,1,13,3,603,1005.7647716545034,1007.1014324541902,"[55, 0, 199]",199,l,0.8137080953456461,colour,0.06
69,66,1,1,13,4,604,1007.608573063626,1008.4693574692355,"[54, 0, 200]",200,l,0.3377667168388143,colour,0.06
69,66,1,1,13,5,605,1008.983499463764,1009.925402578665,"[38, 0, 216]",216,l,0.4193025081185624,colour,0.06
69,66,1,1,13,6,606,1010.4367025867105,1012.2214197409339,"[92, 0, 162]",162,l,1.2616632317658514,colour,0.06
69,66,1,1,13,7,607,1012.7335298883263,1013.3014037823305,"[73, 0, 181]",181,l,0.044843602227047086,colour,0.06
69,66,1,1,13,8,608,1013.811605356168,1014.5494061012287,"[58, 0, 196]",196,l,0.21477045328356326,colour,0.06
69,66,1,1,13,9,609,1015.0617631896166,1015.6613782453351,"[80, 0, 174]",174,l,0.07662690535653383,colour,0.06
69,66,1,1,13,10,610,1016.1711194142699,1016.7333495072089,"[82, 0, 172]",172,l,0.0393309515202418,colour,0.06
69,66,1,1,13,11,611,1017.2492385988589,1017.9013469109777,"[90, 0, 164]",164,l,0.1297136862995103,colour,0.06
69,66,1,1,13,12,612,1018.4210830820957,1018.949392080307,"[78, 0, 176]",176,l,0.00523262657225132,colour,0.06
69,66,1,1,13,13,613,1019.4679687712342,1020.045402862248,"[86, 0, 168]",168,l,0.054449091432616115,colour,0.06
69,66,1,1,13,14,614,1020.5617027343251,1022.4293447716627,"[75, 0, 179]",179,l,1.3445786625379696,colour,0.06
69,66,1,1,13,15,615,1022.9366397684207,1023.5973870737944,"[83, 0, 171]",171,l,0.13750945718493313,colour,0.06
69,66,1,1,13,16,616,1024.1084964607144,1025.2774004960665,"[56, 0, 198]",198,l,0.6457796145696193,colour,0.06
69,66,1,1,13,17,617,1025.7960071191192,1027.3093992326176,"[99, 0, 155]",155,l,0.9903094401815906,colour,0.06
69,66,1,1,13,18,618,1027.8272646391997,1028.5653808541829,"[70, 0, 184]",184,l,0.2154124208027497,colour,0.06
69,66,1,1,13,19,619,1029.0772464238107,1029.7493817616487,"[61, 0, 193]",193,l,0.1490636923117563,colour,0.06
69,66,1,1,13,20,620,1030.2646982023725,1031.013342685881,"[72, 0, 182]",182,l,0.2256350654643029,colour,0.06
69,66,1,1,13,21,621,1031.5303499038564,1033.0693632194307,"[60, 0, 194]",194,l,1.0159361561527476,colour,0.06
69,66,1,1,13,22,622,1033.577316331328,1034.8453606420662,"[64, 0, 190]",190,l,0.7449643944855779,colour,0.06
69,66,1,1,13,23,623,1035.3585546513787,1036.1093574062688,"[30, 0, 224]",224,a,0.22770078328903764,colour,0.06
69,66,1,1,13,24,624,1036.624255189672,1037.7413634682307,"[63, 0, 191]",191,l,0.5939456548076123,colour,0.06
69,66,1,1,13,25,625,1038.249254352646,1039.325401160866,"[57, 0, 197]",197,l,0.553629302768968,colour,0.06
69,66,1,1,13,26,626,1039.8429810296511,1040.3813204761827,"[66, 0, 188]",188,l,0.015127198188565671,colour,0.06
69,66,1,1,13,27,627,1040.8898316667182,1041.4773210181156,"[87, 0, 167]",167,l,0.06440864747855812,colour,0.06
69,66,1,1,13,28,628,1041.9835766574834,1042.5493686859263,"[74, 0, 180]",180,l,0.04325955698732287,colour,0.06
69,66,1,1,13,29,629,1043.0617371958215,1043.6853224547813,"[88, 0, 166]",166,l,0.10056560102384537,colour,0.06
69,66,1,1,13,30,630,1044.202376934234,1044.8932939593215,"[97, 0, 157]",157,l,0.16782253654673696,colour,0.06
69,66,1,1,13,31,631,1045.4054202544503,1048.2613509125076,"[59, 0, 195]",195,l,2.332745191291906,colour,0.06
69,66,1,1,13,32,632,1048.7805333372671,1049.3333115405403,"[94, 0, 160]",160,l,0.029671899392269552,colour,0.06
69,66,1,1,13,33,633,1049.8429420390166,1050.7173007114325,"[51, 0, 203]",203,l,0.35122755623888224,colour,0.06
69,66,1,1,13,34,634,1051.2335938882316,1051.9652790058171,"[50, 0, 204]",204,l,0.20858984137885273,colour,0.06
69,66,1,1,13,35,635,1052.4835508605465,1054.1012764915358,"[91, 0, 163]",163,l,1.0946583177428693,colour,0.06
69,66,1,1,13,36,636,1054.6085234391503,1056.3972534815548,"[76, 0, 178]",178,l,1.2655284280190244,colour,0.06
69,66,1,1,13,37,637,1056.9053739776136,1057.9173417501152,"[52, 0, 202]",202,l,0.4894884700188413,colour,0.06
69,66,1,1,13,38,638,1058.4366671405733,1059.0772964421194,"[85, 0, 169]",169,l,0.1174844007473439,colour,0.06
69,66,1,1,13,39,639,1059.5928834545193,1061.2612666296773,"[84, 0, 170]",170,l,1.1452339420793578,colour,0.06
69,66,1,1,13,40,640,1061.780380525277,1062.821304974379,"[65, 0, 189]",189,l,0.517868951195851,colour,0.06
69,66,1,1,13,41,641,1063.3273703865707,1063.9252631574636,"[79, 0, 175]",175,l,0.07480103918351233,colour,0.06
69,66,1,1,13,42,642,1064.4367179466644,1065.4132794343168,"[53, 0, 201]",201,l,0.45344730687793344,colour,0.06
69,66,1,1,13,43,643,1065.9210399560397,1066.5172974818852,"[68, 0, 186]",186,l,0.07326898165047169,colour,0.06
69,66,1,1,13,44,644,1067.0303851530189,1068.6052765797358,"[95, 0, 159]",159,l,1.0518126919632778,colour,0.06
69,66,1,1,13,45,645,1069.1241963097127,1069.7572440922959,"[96, 0, 158]",158,l,0.1100245799170807,colour,0.06
69,66,1,1,13,46,646,1070.264848257415,1072.3492673889268,"[98, 0, 156]",156,l,1.561552679282613,colour,0.06
69,66,1,1,13,47,647,1072.8585579990176,1073.549245018512,"[67, 0, 187]",187,l,0.1676803583977744,colour,0.06
69,66,1,1,13,48,648,1074.0616816636175,1074.6292381184176,"[71, 0, 183]",183,l,0.044611627352423966,colour,0.06
69,66,1,1,13,49,649,1075.1397319253301,1077.037249873858,"[69, 0, 185]",185,l,1.3745140442624688,colour,0.06
69,66,1,1,13,50,650,1077.5460217898944,1078.0932452012785,"[81, 0, 173]",173,l,0.024091507541015744,colour,0.06
69,66,1,1,14,1,651,1082.7014846780803,1083.9012126098387,"[53, 0, 201]",201,a,0.6759343680460006,colour,0.06
69,66,1,1,14,2,652,1084.4210342452861,1085.0212522778893,"[86, 0, 168]",168,l,0.07724051608238369,colour,0.06
69,66,1,1,14,3,653,1085.5303152455017,1087.2772149950033,"[68, 0, 186]",186,l,1.2237698148237541,colour,0.06
69,66,1,1,14,4,654,1087.7959405593574,1088.3252168413019,"[62, 0, 192]",192,l,0.006156193441711366,colour,0.06
69,66,1,1,14,5,655,1088.8427486610599,1089.3731698509073,"[73, 0, 181]",181,l,0.007340879761613905,colour,0.06
69,66,1,1,14,6,656,1089.905246765702,1090.4531932767713,"[96, 0, 158]",158,l,0.024732687510550022,colour,0.06
69,66,1,1,14,7,657,1090.967750777956,1092.4532074552262,"[79, 0, 175]",175,l,0.962384244077839,colour,0.06
69,66,1,1,14,8,658,1092.9678338792874,1094.4692416787148,"[89, 0, 165]",165,l,0.9783645106945187,colour,0.06
69,66,1,1,14,9,659,1094.9833474395564,1096.70118693111,"[85, 0, 169]",169,l,1.195210134028457,colour,0.06
69,66,1,1,14,10,660,1097.2177361071808,1097.797229614458,"[88, 0, 166]",166,l,0.05638168950099498,colour,0.06
69,66,1,1,14,11,661,1098.3115358424839,1099.021214862587,"[67, 0, 187]",187,l,0.186988222762011,colour,0.06
69,66,1,1,14,12,662,1099.530225448776,1101.0771790762665,"[65, 0, 189]",189,l,1.0238209358649328,colour,0.06
69,66,1,1,14,13,663,1101.5926766858902,1102.9811493898742,"[51, 0, 203]",203,l,0.8653112617321312,colour,0.06
69,66,1,1,14,14,664,1103.4990368516883,1104.077201919281,"[66, 0, 188]",188,l,0.05538998742122203,colour,0.06
69,66,1,1,14,15,665,1104.5926711719949,1106.1091978988843,"[74, 0, 180]",180,l,0.9933960045455024,colour,0.06
69,66,1,1,14,16,666,1106.6239905257244,1108.0131512770895,"[80, 0, 174]",174,l,0.8661741764517501,colour,0.06
69,66,1,1,14,17,667,1108.5301959103672,1109.90916276793,"[83, 0, 171]",171,l,0.8558412551647052,colour,0.06
69,66,1,1,14,18,668,1110.4208325964864,1111.893152175122,"[94, 0, 160]",160,l,0.9492837729630992,colour,0.06
69,66,1,1,14,19,669,1112.4051496828906,1113.877143157646,"[76, 0, 178]",178,l,0.9489048939431086,colour,0.06
69,66,1,1,14,20,670,1114.3895089105936,1115.3331469133263,"[43, 0, 211]",211,a,0.4205395757453516,colour,0.06
69,66,1,1,14,21,671,1115.8426521689398,1116.5971424959134,"[57, 0, 197]",197,l,0.23144703824073076,colour,0.06
69,66,1,1,14,22,672,1117.1082660612883,1117.6611253967276,"[61, 0, 193]",193,l,0.02974791149608791,colour,0.06
69,66,1,1,14,23,673,1118.1708248180803,1118.7171108780894,"[58, 0, 196]",196,l,0.023165971506386995,colour,0.06
69,66,1,1,14,24,674,1119.2332677843515,1120.8771195268491,"[59, 0, 195]",195,l,1.1207371677737683,colour,0.06
69,66,1,1,14,25,675,1121.389522301266,1122.749204531312,"[98, 0, 156]",156,l,0.836649575154297,colour,0.06
69,66,1,1,14,26,676,1123.2645705965115,1124.2770960537018,"[82, 0, 172]",172,l,0.48960110964253545,colour,0.06
69,66,1,1,14,27,677,1124.7957203999395,1126.1810939364368,"[54, 0, 200]",200,l,0.8621927958447486,colour,0.06
69,66,1,1,14,28,678,1126.7019407507032,1127.5251184587833,"[64, 0, 190]",190,l,0.3000958225456998,colour,0.06
69,66,1,1,14,29,679,1128.0457715012599,1129.4770788033493,"[97, 0, 157]",157,l,0.9086208370281383,colour,0.06
69,66,1,1,14,30,680,1129.9831796615617,1131.0290736486204,"[50, 0, 204]",204,l,0.5233449740335345,colour,0.06
69,66,1,1,14,31,681,1131.5457193168113,1133.0691080077086,"[95, 0, 159]",159,l,1.000543506233953,colour,0.06
69,66,1,1,14,32,682,1133.576837021741,1134.2611043654615,"[69, 0, 185]",185,l,0.16105194459669292,colour,0.06
69,66,1,1,14,33,683,1134.780088292202,1136.221105058561,"[92, 0, 162]",162,l,0.9181034464854747,colour,0.06
69,66,1,1,14,34,684,1136.7331474646926,1137.365093662287,"[90, 0, 164]",164,l,0.10902933322358876,colour,0.06
69,66,1,1,14,35,685,1137.8737927170005,1138.9490777918836,"[60, 0, 194]",194,l,0.5522047647973523,colour,0.06
69,66,1,1,14,36,686,1139.4674878863152,1140.029092553188,"[75, 0, 179]",179,l,0.038542473572306335,colour,0.06
69,66,1,1,14,37,687,1140.5456492124358,1141.4530499171233,"[56, 0, 198]",198,l,0.38431251770816743,colour,0.06
69,66,1,1,14,38,688,1141.9675700030057,1142.5650677472586,"[99, 0, 155]",155,l,0.07447848003357649,colour,0.06
69,66,1,1,14,39,689,1143.076823434094,1143.8371438507456,"[52, 0, 202]",202,l,0.2374795643845573,colour,0.06
69,66,1,1,14,40,690,1144.3581143324263,1145.285116710118,"[3, 0, 251]",251,a,0.40391694754362106,colour,0.06
69,66,1,1,14,41,691,1145.795601458638,1146.5171304915566,"[77, 0, 177]",177,l,0.1983935844618827,colour,0.06
69,66,1,1,14,42,692,1147.029975160258,1147.7090756493853,"[84, 0, 170]",170,l,0.15598433907143772,colour,0.06
69,66,1,1,14,43,693,1148.2175238246564,1148.8210410980973,"[78, 0, 176]",176,l,0.08050470461603254,colour,0.06
69,66,1,1,14,44,694,1149.3269060431048,1149.8610278019914,"[87, 0, 167]",167,l,0.011032784124836326,colour,0.06
69,66,1,1,14,45,695,1150.3737665262306,1151.9490116259549,"[70, 0, 184]",184,l,1.0524704133858904,colour,0.06
69,66,1,1,14,46,696,1152.4675111231627,1153.0770609227475,"[81, 0, 173]",173,l,0.0865116307977587,colour,0.06
69,66,1,1,14,47,697,1153.5924742494244,1154.1490841722116,"[93, 0, 161]",161,l,0.033908097771927714,colour,0.06
69,66,1,1,14,48,698,1154.6549365140963,1156.1970096125733,"[32, 0, 222]",222,a,1.0188710901420563,colour,0.06
69,66,1,1,14,49,699,1156.7174877878278,1157.269020259031,"[91, 0, 163]",163,l,0.028519508545286953,colour,0.06
69,66,1,1,14,50,700,1157.7800556031289,1158.5011655847775,"[63, 0, 191]",191,l,0.19813246512785554,colour,0.06
69,66,1,1,15,1,701,1162.8104041285114,1163.7810252498602,"[84, 0, 170]",170,l,0.4467802962753922,colour,0.06
69,66,1,1,15,2,702,1164.2955996863311,1164.8690350676188,"[94, 0, 160]",160,l,0.05039524333551526,colour,0.06
69,66,1,1,15,3,703,1165.3892970219022,1166.284968230524,"[62, 0, 192]",192,l,0.37271850428078324,colour,0.06
69,66,1,1,15,4,704,1166.7955215080874,1167.4529939910863,"[77, 0, 177]",177,l,0.1343890221323818,colour,0.06
69,66,1,1,15,5,705,1167.9674097080715,1168.652989737573,"[99, 0, 155]",155,l,0.16257100529037416,colour,0.06
69,66,1,1,15,6,706,1169.1705298280576,1170.524972736137,"[61, 0, 193]",193,l,0.8313287271885201,colour,0.06
69,66,1,1,15,7,707,1171.04556158185,1171.7169958752347,"[89, 0, 165]",165,l,0.1484158169478178,colour,0.06
69,66,1,1,15,8,708,1172.2330204496393,1174.036989148357,"[27, 0, 227]",227,a,1.2810152067104355,colour,0.06
69,66,1,1,15,9,709,1174.5454723759321,1175.2289874753915,"[88, 0, 166]",166,l,0.16035168804228306,colour,0.06
69,66,1,1,15,10,710,1175.74868308031,1176.3729658391094,"[68, 0, 186]",186,l,0.10140921734273434,colour,0.06
69,66,1,1,15,11,711,1176.8892708311323,1178.252959647798,"[78, 0, 176]",176,l,0.841076000710018,colour,0.06
69,66,1,1,15,12,712,1178.7642399636097,1179.3889437428443,"[65, 0, 189]",189,l,0.10174949956126511,colour,0.06
69,66,1,1,15,13,713,1179.9047682437813,1181.3649975641165,"[52, 0, 202]",202,l,0.9370233735535294,colour,0.06
69,66,1,1,15,14,714,1181.8736052466556,1182.4129541182192,"[81, 0, 173]",173,l,0.016216967720538378,colour,0.06
69,66,1,1,15,15,715,1182.9204905420775,1183.6129829477286,"[67, 0, 187]",187,l,0.169434544746764,colour,0.06
69,66,1,1,15,16,716,1184.1235968774417,1184.700956531684,"[85, 0, 169]",169,l,0.054378199158236384,colour,0.06
69,66,1,1,15,17,717,1185.21734226204,1185.8769407211803,"[76, 0, 178]",178,l,0.13661070261150599,colour,0.06
69,66,1,1,15,18,718,1186.3892028928967,1187.4049570926,"[56, 0, 198]",198,l,0.49277195695322007,colour,0.06
69,66,1,1,15,19,719,1187.9204866036307,1188.4849285308737,"[69, 0, 185]",185,l,0.04150694597046822,colour,0.06
69,66,1,1,15,20,720,1188.9985581329092,1190.7409270878416,"[73, 0, 181]",181,l,1.2194615427870303,colour,0.06
69,66,1,1,15,21,721,1191.2485308591276,1191.8931049136445,"[86, 0, 168]",168,l,0.12232121301349252,colour,0.06
69,66,1,1,15,22,722,1192.4047731668688,1192.980955617968,"[70, 0, 184]",184,l,0.05310765479225665,colour,0.06
69,66,1,1,15,23,723,1193.4985000407323,1194.2369407842634,"[53, 0, 201]",201,l,0.21559870964847505,colour,0.06
69,66,1,1,15,24,724,1194.7485668959562,1195.6849223081954,"[23, 0, 231]",231,a,0.4134716307744384,colour,0.06
69,66,1,1,15,25,725,1196.2016550160479,1196.8608907437883,"[58, 0, 196]",196,l,0.13618771289475262,colour,0.06
69,66,1,1,15,26,726,1197.3734605085338,1199.1649549501017,"[60, 0, 194]",194,l,1.268339694594033,colour,0.06
69,66,1,1,15,27,727,1199.6859817516524,1200.4448910211213,"[98, 0, 156]",156,l,0.23578209185507149,colour,0.06
69,66,1,1,15,28,728,1200.9516499945894,1201.5409498520894,"[93, 0, 161]",161,l,0.0662152151344344,colour,0.06
69,66,1,1,15,29,729,1202.0610215791967,1202.8289562040009,"[59, 0, 195]",195,l,0.24488345917779952,colour,0.06
69,66,1,1,15,30,730,1203.3422025947366,1204.7169025340118,"[63, 0, 191]",191,l,0.8516598013229668,colour,0.06
69,66,1,1,15,31,731,1205.232824708568,1206.3489231682615,"[80, 0, 174]",174,l,0.593168992199935,colour,0.06
69,66,1,1,15,32,732,1206.8578408070607,1207.7089287451236,"[71, 0, 183]",183,l,0.3279587911674753,colour,0.06
69,66,1,1,15,33,733,1208.2172520715976,1210.6288478178903,"[82, 0, 172]",172,l,1.8886493435129523,colour,0.06
69,66,1,1,15,34,734,1211.1390734163579,1211.7088866037084,"[96, 0, 158]",158,l,0.04677068640012294,colour,0.06
69,66,1,1,15,35,735,1212.217202840955,1213.6608926343033,"[51, 0, 203]",203,l,0.9206917969277129,colour,0.06
69,66,1,1,15,36,736,1214.1702328688698,1214.7008734303527,"[95, 0, 159]",159,l,0.007947401143610477,colour,0.06
69,66,1,1,15,37,737,1215.2172126870137,1215.8448600649135,"[72, 0, 182]",182,l,0.10466434748377651,colour,0.06
69,66,1,1,15,38,738,1216.3577917732764,1216.9088949532015,"[97, 0, 157]",157,l,0.028065798920579255,colour,0.06
69,66,1,1,15,39,739,1217.420281607192,1218.492872781353,"[22, 0, 232]",232,a,0.549565214663744,colour,0.06
69,66,1,1,15,40,740,1219.0140071025817,1219.8209847783437,"[66, 0, 188]",188,l,0.2838851563865319,colour,0.06
69,66,1,1,15,41,741,1220.3264373674756,1220.916927031125,"[91, 0, 163]",163,l,0.06771891587413847,colour,0.06
69,66,1,1,15,42,742,1221.435887721018,1222.7249117688043,"[55, 0, 199]",199,l,0.7666018528398126,colour,0.06
69,66,1,1,15,43,743,1223.2326269983314,1223.8289577794494,"[57, 0, 197]",197,l,0.07372387277428061,colour,0.06
69,66,1,1,15,44,744,1224.341980072204,1225.1569193275645,"[90, 0, 164]",164,l,0.29224845801945776,colour,0.06
69,66,1,1,15,45,745,1225.6701684751315,1226.8448691233061,"[50, 0, 204]",204,l,0.6523796714609489,colour,0.06
69,66,1,1,15,46,746,1227.3576625920832,1228.0528579569655,"[87, 0, 167]",167,l,0.1720882732188329,colour,0.06
69,66,1,1,15,47,747,1228.560866601183,1229.1088107491378,"[75, 0, 179]",179,l,0.025630654417909682,colour,0.06
69,66,1,1,15,48,748,1229.6233115366194,1231.244862979278,"[79, 0, 175]",175,l,1.099332471843809,colour,0.06
69,66,1,1,15,49,749,1231.763888259884,1232.3008610636462,"[74, 0, 180]",180,l,0.014593931846320629,colour,0.06
69,66,1,1,15,50,750,1232.8109074626118,1233.3728193286806,"[92, 0, 162]",162,l,0.03962397237773985,colour,0.06
69,66,1,1,16,1,751,1530.6838360832771,1532.276062997873,"[61, 0, 193]",193,a,1.0677378204418346,colour,0.06
69,66,1,1,16,2,752,1532.7940237149596,1533.9160688426346,"[76, 0, 178]",178,l,0.59907194331754,colour,0.06
69,66,1,1,16,3,753,1534.4346754656872,1535.1800396129256,"[69, 0, 185]",185,l,0.22243704285938293,colour,0.06
69,66,1,1,16,4,754,1535.7003074749373,1536.3640145265963,"[74, 0, 180]",180,l,0.14076064887922257,colour,0.06
69,66,1,1,16,5,755,1536.8721302965423,1537.908058032277,"[34, 0, 220]",220,l,0.5129368284251541,colour,0.06
69,66,1,1,16,6,756,1538.4189413521672,1539.0280791897094,"[60, 0, 194]",194,l,0.08596497378312051,colour,0.06
69,66,1,1,16,7,757,1539.5439009338152,1540.1880988661433,"[99, 0, 155]",155,l,0.12108178227208555,colour,0.06
69,66,1,1,16,8,758,1540.7002098013181,1541.308046768303,"[63, 0, 191]",191,l,0.08474169066175818,colour,0.06
69,66,1,1,16,9,759,1541.825137875392,1543.7640580071602,"[89, 0, 165]",165,l,1.4157976802671328,colour,0.06
69,66,1,1,16,10,760,1544.2783043705858,1544.8680441532051,"[81, 0, 173]",173,l,0.0667252445127815,colour,0.06
69,66,1,1,16,11,761,1545.3876097892644,1546.3880044220714,"[57, 0, 197]",197,l,0.4772261013276875,colour,0.06
69,66,1,1,16,12,762,1546.903327164473,1548.4120199175086,"[98, 0, 156]",156,l,0.9855962953297421,colour,0.06
69,66,1,1,16,13,763,1548.9188978322782,1549.564040599158,"[59, 0, 195]",195,l,0.12200653075706214,colour,0.06
69,66,1,1,16,14,764,1550.0750743678072,1551.6759784787428,"[88, 0, 166]",166,l,1.0778600345365703,colour,0.06
69,66,1,1,16,15,765,1552.184508967679,1553.5960401233751,"[93, 0, 161]",161,l,0.8885918421437964,colour,0.06
69,66,1,1,16,16,766,1554.1061826205114,1555.956002771156,"[90, 0, 164]",164,l,1.3265118041308597,colour,0.06
69,66,1,1,16,17,767,1556.4657431523083,1558.0759841501713,"[86, 0, 168]",168,l,1.0874206254957244,colour,0.06
69,66,1,1,16,18,768,1558.590747632319,1560.2280304316664,"[67, 0, 187]",187,l,1.1142442367272452,colour,0.06
69,66,1,1,16,19,769,1560.7469733984908,1561.3799778580433,"[70, 0, 184]",184,l,0.10985601413995028,colour,0.06
69,66,1,1,16,20,770,1561.8876021093456,1562.8280566617614,"[51, 0, 203]",203,l,0.41758534335531294,colour,0.06
69,66,1,1,16,21,771,1563.3407343400177,1563.9160133104306,"[68, 0, 186]",186,l,0.05225734319537878,colour,0.06
69,66,1,1,16,22,772,1564.4344348263694,1564.980024961871,"[91, 0, 163]",163,l,0.022497222409583628,colour,0.06
69,66,1,1,16,23,773,1565.4968065066496,1566.2439823416062,"[53, 0, 201]",201,l,0.22458507434930652,colour,0.06
69,66,1,1,16,24,774,1566.7625751801534,1567.4839261950692,"[27, 0, 227]",227,a,0.1982498309807852,colour,0.06
69,66,1,1,16,25,775,1567.9968921679538,1568.5799586384092,"[64, 0, 190]",190,l,0.05995662184432149,colour,0.06
69,66,1,1,16,26,776,1569.0907434968976,1569.7160120501649,"[96, 0, 158]",158,l,0.10230679041706026,colour,0.06
69,66,1,1,16,27,777,1570.2313119494356,1570.8039560957113,"[65, 0, 189]",189,l,0.0497745432658121,colour,0.06
69,66,1,1,16,28,778,1571.325022281846,1572.979952888214,"[77, 0, 177]",177,l,1.13177782879211,colour,0.06
69,66,1,1,16,29,779,1573.4969924015459,1575.5239774894435,"[10, 0, 244]",244,a,1.5039965437026694,colour,0.06
69,66,1,1,16,30,780,1576.0437731310958,1577.5079783180263,"[58, 0, 196]",196,l,0.9414505867753178,colour,0.06
69,66,1,1,16,31,781,1578.028097700444,1579.9879333724966,"[75, 0, 179]",179,l,1.436742758960463,colour,0.06
69,66,1,1,16,32,782,1580.4968462850666,1581.0439716289984,"[87, 0, 167]",167,l,0.024029673892073333,colour,0.06
69,66,1,1,16,33,783,1581.5594479709398,1582.3159252466867,"[56, 0, 198]",198,l,0.23347967315930873,colour,0.06
69,66,1,1,16,34,784,1582.8250063310843,1584.5399439715547,"[84, 0, 170]",170,l,1.1918490595417097,colour,0.06
69,66,1,1,16,35,785,1585.0592658175156,1585.5884503335692,"[71, 0, 183]",183,l,0.006036858423613012,colour,0.06
69,66,1,1,16,36,786,1586.1220663952408,1586.7639071644517,"[55, 0, 199]",199,l,0.11898298154119402,colour,0.06
69,66,1,1,16,37,787,1587.2781440756517,1589.2919262927026,"[97, 0, 157]",157,l,1.490778706735,colour,0.06
69,66,1,1,16,38,788,1589.8093293251004,1590.3399049021536,"[80, 0, 174]",174,l,0.007425162475556135,colour,0.06
69,66,1,1,16,39,789,1590.8718183712335,1592.827906606719,"[79, 0, 175]",175,l,1.4330248606856912,colour,0.06
69,66,1,1,16,40,790,1593.340511029819,1595.0598491021665,"[83, 0, 171]",171,l,1.1963046297896653,colour,0.06
69,66,1,1,16,41,791,1595.5748886698857,1596.4039090706501,"[50, 0, 204]",204,l,0.3060334320180118,colour,0.06
69,66,1,1,16,42,792,1596.9186890943674,1599.1718925322639,"[66, 0, 188]",188,l,1.7301865369081497,colour,0.06
69,66,1,1,16,43,793,1599.684071208816,1601.4839667610358,"[95, 0, 159]",159,l,1.276638405630365,colour,0.06
69,66,1,1,16,44,794,1601.996723602293,1602.963885581703,"[52, 0, 202]",202,l,0.4440592201426625,colour,0.06
69,66,1,1,16,45,795,1603.4811090206495,1604.0199726750143,"[92, 0, 162]",162,l,0.015976722119376063,colour,0.06
69,66,1,1,16,46,796,1604.5280155836372,1605.0518938241294,"[85, 0, 169]",169,l,0.0008554316591471434,colour,0.06
69,66,1,1,16,47,797,1605.5748418022413,1607.1239434612216,"[94, 0, 160]",160,l,1.0260713670868427,colour,0.06
69,66,1,1,16,48,798,1607.6373513283907,1608.283898547059,"[73, 0, 181]",181,l,0.12354410218540579,colour,0.06
69,66,1,1,16,49,799,1608.7935605531093,1609.4918361809105,"[62, 0, 192]",192,l,0.17512600088957697,colour,0.06
69,66,1,1,16,50,800,1610.0123466515215,1610.5479043696541,"[78, 0, 176]",176,l,0.012528214021585882,colour,0.06
