id,age,condition,counterbalance,block,trialinblock,trial,tstart,tend,trialstim,trialintensity,response,RT,trialtype,colourfreq
005,75,1,1,Practice,1,NA,5.12006226927042e-06,1.6266367239877582,"[97, 0, 157]",157,l,1.039912314270623,colour,0.5
005,75,1,1,Practice,2,NA,2.1418021430727094,2.794544135569595,"[88, 0, 166]",166,a,0.1295984429307282,colour,0.5
005,75,1,1,Practice,3,NA,3.315005990443751,5.898590269032866,"[19, 0, 235]",235,a,2.057523120660335,colour,0.5
005,75,1,1,Practice,4,NA,6.417663030442782,7.250546854687855,"[39, 0, 215]",215,a,0.3154624574817717,colour,0.5
005,75,1,1,Practice,5,NA,7.762746222433634,8.31450777570717,"[16, 0, 238]",238,a,0.019704095902852714,colour,0.5
005,75,1,1,Practice,6,NA,8.828643682412803,9.546581301954575,"[70, 0, 184]",184,l,0.1856785132549703,colour,0.5
005,75,1,1,Practice,7,NA,10.065264550037682,10.826572842197493,"[95, 0, 159]",159,l,0.24368133791722357,colour,0.5
005,75,1,1,Practice,8,NA,11.339858436142094,11.898531979881227,"[43, 0, 211]",211,a,0.030029940069653094,colour,0.5
005,75,1,1,Practice,9,NA,12.416686687152833,15.954737293184735,"[23, 0, 231]",231,a,3.0206505068344995,colour,0.5
005,75,1,1,Practice,10,NA,16.462679977645166,17.0905305336928,"[99, 0, 155]",155,l,0.10455734503921121,colour,0.5
005,75,1,1,1,1,1,5.134734583552927,6.528006361448206,"[53, 0, 201]",201,l,0.8690892634913325,colour,0.5
005,75,1,1,1,2,2,7.041949283797294,7.592010999331251,"[86, 0, 168]",168,a,0.022684719413518906,colour,0.5
005,75,1,1,1,3,3,8.10542931931559,8.672001042985357,"[2, 0, 252]",252,a,0.04310561448801309,colour,0.5
005,75,1,1,1,4,4,9.183687623823062,12.599933597724885,"[25, 0, 229]",229,a,2.8929157415404916,colour,0.5
005,75,1,1,1,5,5,13.160610634018667,16.112028596457094,"[13, 0, 241]",241,a,2.41958027088549,colour,0.5
005,75,1,1,1,6,6,16.629529913770966,17.367976649780758,"[75, 0, 179]",179,l,0.20742272946517915,colour,0.5
005,75,1,1,1,7,7,17.87942613544874,18.455955457640812,"[83, 0, 171]",171,a,0.04405872069764882,colour,0.5
005,75,1,1,1,8,8,18.975855688680895,22.59998873609584,"[47, 0, 207]",207,l,3.1058802725747228,colour,0.5
005,75,1,1,1,9,9,23.123115350375883,23.767950892215595,"[72, 0, 182]",182,l,0.11909458041191101,colour,0.5
005,75,1,1,1,10,10,24.282109641935676,27.775944382767193,"[21, 0, 233]",233,l,2.9706762250280008,colour,0.5
005,75,1,1,1,11,11,28.285503409570083,31.031927882228047,"[43, 0, 211]",211,a,2.223460516659543,colour,0.5
005,75,1,1,1,12,12,31.551310206297785,32.2239228914259,"[29, 0, 225]",225,a,0.14915720978751779,colour,0.5
005,75,1,1,1,13,13,32.73822224396281,34.055965067469515,"[65, 0, 189]",189,a,0.7991028984542936,colour,0.5
005,75,1,1,1,14,14,34.56788322958164,35.20001921977382,"[85, 0, 169]",169,l,0.10841427522245795,colour,0.5
005,75,1,1,1,15,15,35.71716410689987,36.32798989873845,"[18, 0, 236]",236,a,0.09412398107815534,colour,0.5
005,75,1,1,1,16,16,36.84263032162562,69.42395156330895,"[0, 0, 254]",254,a,32.05073361622635,colour,0.5
005,75,1,1,1,17,17,69.93331760587171,70.91191997379065,"[80, 0, 174]",174,l,0.4553300307597965,colour,0.5
005,75,1,1,1,18,18,71.43348144565243,73.18387588195037,"[37, 0, 217]",217,a,1.2271803884068504,colour,0.5
005,75,1,1,1,19,19,73.7068764657015,74.30386646115221,"[22, 0, 232]",232,a,0.0680297400103882,colour,0.5
005,75,1,1,1,20,20,74.81515643943567,77.47990717855282,"[15, 0, 239]",239,a,2.1329736998304725,colour,0.5
005,75,1,1,1,21,21,78.0019259051187,81.80791283096187,"[54, 0, 200]",200,l,3.288103972095996,colour,0.5
005,75,1,1,1,22,22,82.3257284371648,83.58428847463802,"[98, 0, 156]",156,l,0.7331077648559585,colour,0.5
005,75,1,1,1,23,23,84.08821393386461,88.25591024418827,"[1, 0, 253]",253,a,3.644400342484005,colour,0.5
005,75,1,1,1,24,24,88.77283497166354,89.87186902586836,"[52, 0, 202]",202,a,0.5868149941088632,colour,0.5
005,75,1,1,1,25,25,90.3868394914316,91.42389406193979,"[94, 0, 160]",160,l,0.5137759317876771,colour,0.5
005,75,1,1,1,26,26,91.9338071559323,92.9278376379516,"[11, 0, 243]",243,a,0.47085424326360226,colour,0.5
005,75,1,1,1,27,27,93.44109369360376,94.39988287037704,"[55, 0, 199]",199,a,0.4275355583522469,colour,0.5
005,75,1,1,1,28,28,94.9235281792935,95.94386203435715,"[30, 0, 224]",224,a,0.49144803639501333,colour,0.5
005,75,1,1,1,29,29,96.46548179537058,97.47185973112937,"[78, 0, 176]",176,l,0.47469187481328845,colour,0.5
005,75,1,1,1,30,30,97.99439794011414,98.95986910152715,"[39, 0, 215]",215,a,0.4485090186353773,colour,0.5
005,75,1,1,1,31,31,99.47479506244417,100.49585241195746,"[96, 0, 158]",158,l,0.48845559742767364,colour,0.5
005,75,1,1,1,32,32,101.00602229323704,102.031862897682,"[90, 0, 164]",164,l,0.5042043018620461,colour,0.5
005,75,1,1,1,33,33,102.54453684948385,103.62384278315585,"[12, 0, 242]",242,a,0.5617108810693026,colour,0.5
005,75,1,1,1,34,34,104.14588710968383,104.95984586467966,"[57, 0, 197]",197,l,0.2833191418321803,colour,0.5
005,75,1,1,1,35,35,105.47317872010171,106.5678170635365,"[89, 0, 165]",165,l,0.5630054516950622,colour,0.5
005,75,1,1,1,36,36,107.0854688299587,108.04784397105686,"[50, 0, 204]",204,a,0.4310455104568973,colour,0.5
005,75,1,1,1,37,37,108.56842555501498,109.59184164577164,"[60, 0, 194]",194,a,0.49883776158094406,colour,0.5
005,75,1,1,1,38,38,110.11276272463147,111.16781919030473,"[38, 0, 216]",216,a,0.5373854008503258,colour,0.5
005,75,1,1,1,39,39,111.6907669986831,112.50389473931864,"[3, 0, 251]",251,a,0.28040429041720927,colour,0.5
005,75,1,1,1,40,40,113.0203098305501,114.31180953944568,"[62, 0, 192]",192,a,0.7738377024652436,colour,0.5
005,75,1,1,1,41,41,114.82850268564653,115.8318637640914,"[70, 0, 184]",184,l,0.4705332589801401,colour,0.5
005,75,1,1,1,42,42,116.34582992328797,117.4958106642589,"[17, 0, 237]",237,a,0.6189504328649491,colour,0.5
005,75,1,1,1,43,43,118.01375584572088,119.09587108017877,"[6, 0, 248]",248,a,0.5644461388001218,colour,0.5
005,75,1,1,1,44,44,119.61328693316318,120.61581699736416,"[9, 0, 245]",245,a,0.48488617467228323,colour,0.5
005,75,1,1,1,45,45,121.13083472428843,122.11979759496171,"[42, 0, 212]",212,a,0.4565982137573883,colour,0.5
005,75,1,1,1,46,46,122.64216172404122,123.65581123146694,"[10, 0, 244]",244,a,0.48934017471037805,colour,0.5
005,75,1,1,1,47,47,124.17111410258804,125.19185873866081,"[99, 0, 155]",155,l,0.48864582483656704,colour,0.5
005,75,1,1,1,48,48,125.70815331314225,126.70381274062674,"[82, 0, 172]",172,l,0.4627945866668597,colour,0.5
005,75,1,1,1,49,49,127.22382758080494,128.143817057251,"[88, 0, 166]",166,l,0.3889394762227312,colour,0.5
005,75,1,1,1,50,50,128.66108403645921,129.759837278747,"[36, 0, 218]",218,a,0.5805355197517201,colour,0.5
005,75,1,1,2,1,51,134.98141993954778,136.03977998218033,"[4, 0, 250]",250,a,0.534363423474133,colour,0.5
005,75,1,1,2,2,52,136.5603844091529,137.5278047125321,"[44, 0, 210]",210,a,0.44427517836447805,colour,0.5
005,75,1,1,2,3,53,138.04477355070412,138.99977668956853,"[0, 0, 254]",254,a,0.4389326625969261,colour,0.5
005,75,1,1,2,4,54,139.5062944405945,140.5198159480933,"[48, 0, 206]",206,a,0.4901369243161753,colour,0.5
005,75,1,1,2,5,55,141.03184793156106,142.0397795883473,"[56, 0, 198]",198,a,0.48483576253056526,colour,0.5
005,75,1,1,2,6,56,142.54761357139796,143.55979560990818,"[57, 0, 197]",197,a,0.49677952437195927,colour,0.5
005,75,1,1,2,7,57,144.07870098692365,145.11178441217635,"[88, 0, 166]",166,l,0.4657208595890552,colour,0.5
005,75,1,1,2,8,58,145.62275655695703,146.66377597127575,"[45, 0, 209]",209,a,0.5176202588481829,colour,0.5
005,75,1,1,2,9,59,147.16984670748934,148.22381458384916,"[96, 0, 158]",158,l,0.5306663946248591,colour,0.5
005,75,1,1,2,10,60,148.73524949734565,149.69578262243886,"[59, 0, 195]",195,a,0.4384588663233444,colour,0.5
005,75,1,1,2,11,61,150.20921472704504,151.27983282052446,"[46, 0, 208]",208,a,0.5473386670928448,colour,0.5
005,75,1,1,2,12,62,151.78749036067165,152.63976044743322,"[51, 0, 203]",203,a,0.32885675283614546,colour,0.5
005,75,1,1,2,13,63,153.1469918466173,154.1597764689941,"[47, 0, 207]",207,a,0.4921616845531389,colour,0.5
005,75,1,1,2,14,64,154.71915893489495,155.66381732502487,"[37, 0, 217]",217,a,0.417720531928353,colour,0.5
005,75,1,1,2,15,65,156.17855345236603,157.1997754293261,"[8, 0, 246]",246,a,0.4894536022329703,colour,0.5
005,75,1,1,2,16,66,157.72134202113375,158.64774921175558,"[30, 0, 224]",224,a,0.40617337240837514,colour,0.5
005,75,1,1,2,17,67,159.16418241988868,160.1117974090157,"[38, 0, 216]",216,a,0.430090828682296,colour,0.5
005,75,1,1,2,18,68,160.6349657708779,161.63978171511553,"[81, 0, 173]",173,l,0.4863130773883313,colour,0.5
005,75,1,1,2,19,69,162.15152225270867,163.1917673664866,"[42, 0, 212]",212,a,0.5229036976816133,colour,0.5
005,75,1,1,2,20,70,163.70399863575585,164.68776313820854,"[40, 0, 214]",214,a,0.4661060406360775,colour,0.5
005,75,1,1,2,21,71,165.20821238995995,166.23981613712385,"[67, 0, 187]",187,l,0.5082825731951743,colour,0.5
005,75,1,1,2,22,72,166.7552875742549,167.8477219576016,"[82, 0, 172]",172,l,0.5755348620004952,colour,0.5
005,75,1,1,2,23,73,168.35834318608977,169.30376484896988,"[14, 0, 240]",240,a,0.4261799417436123,colour,0.5
005,75,1,1,2,24,74,169.82528733008076,170.807731662062,"[16, 0, 238]",238,a,0.45912670250982046,colour,0.5
005,75,1,1,2,25,75,171.32541966228746,172.32774728978984,"[86, 0, 168]",168,l,0.4790608042385429,colour,0.5
005,75,1,1,2,26,76,172.84116285282653,173.88776896707714,"[32, 0, 222]",222,a,0.5227910578250885,colour,0.5
005,75,1,1,2,27,77,174.39894512400497,175.2479458983289,"[83, 0, 171]",171,l,0.3201007773168385,colour,0.5
005,75,1,1,2,28,78,175.7640364606632,176.75174532691017,"[35, 0, 219]",219,a,0.46437115070875734,colour,0.5
005,75,1,1,2,29,79,177.2641345282318,178.391786586144,"[60, 0, 194]",194,l,0.6042824408505112,colour,0.5
005,75,1,1,2,30,80,178.9114008853212,180.01579242141452,"[66, 0, 188]",188,l,0.5876881500007585,colour,0.5
005,75,1,1,2,31,81,180.5298267158214,181.47974373260513,"[85, 0, 169]",169,l,0.4265859966399148,colour,0.5
005,75,1,1,2,32,82,181.99882634019013,183.0957611972699,"[87, 0, 167]",167,l,0.5820746683748439,colour,0.5
005,75,1,1,2,33,83,183.61517936130986,184.567735931254,"[36, 0, 218]",218,a,0.4205495248315856,colour,0.5
005,75,1,1,2,34,84,185.07400674116798,186.1357589759864,"[97, 0, 157]",157,l,0.5384952577296644,colour,0.5
005,75,1,1,2,35,85,186.65225401788484,187.64776220871136,"[24, 0, 230]",230,a,0.47225515206810087,colour,0.5
005,75,1,1,2,36,86,188.1679704269627,189.25578342587687,"[29, 0, 225]",225,a,0.5645623232703656,colour,0.5
005,75,1,1,2,37,87,189.76627350377385,191.1117414829787,"[63, 0, 191]",191,a,0.8220294391503558,colour,0.5
005,75,1,1,2,38,88,191.62268566479906,192.68771469511557,"[68, 0, 186]",186,l,0.5418315238784999,colour,0.5
005,75,1,1,2,39,89,193.20089198159985,194.38374819722958,"[54, 0, 200]",200,a,0.660319582093507,colour,0.5
005,75,1,1,2,40,90,194.89724371093325,195.99973100353964,"[19, 0, 235]",235,a,0.5854593776166439,colour,0.5
005,75,1,1,2,41,91,196.5191928843269,197.5677138759056,"[39, 0, 215]",215,a,0.5170361857162789,colour,0.5
005,75,1,1,2,42,92,198.07957020425238,199.05573388014454,"[78, 0, 176]",176,l,0.44369937607552856,colour,0.5
005,75,1,1,2,43,93,199.56529960234184,200.56768433749676,"[12, 0, 242]",242,a,0.4854537061182782,colour,0.5
005,75,1,1,2,44,94,201.08110580826178,202.1037893461762,"[79, 0, 175]",175,l,0.5049900237936527,colour,0.5
005,75,1,1,2,45,95,202.61278162919916,203.71971189416945,"[99, 0, 155]",155,l,0.589392319903709,colour,0.5
005,75,1,1,2,46,96,204.22506425599568,205.2956969216466,"[18, 0, 236]",236,a,0.5384940761141479,colour,0.5
005,75,1,1,2,47,97,205.80218670971226,206.91170847869944,"[53, 0, 201]",201,a,0.5862057150807232,colour,0.5
005,75,1,1,2,48,98,207.42732327559497,208.41601321124472,"[64, 0, 190]",190,l,0.4652892048470676,colour,0.5
005,75,1,1,2,49,99,208.9153153167572,210.03170102718286,"[80, 0, 174]",174,l,0.5930432687746361,colour,0.5
005,75,1,1,2,50,100,210.54034515062813,211.62367146031465,"[33, 0, 221]",221,a,0.5599405450047925,colour,0.5
005,75,1,1,3,1,101,218.0900874574436,218.86367703718133,"[29, 0, 225]",225,a,0.2414631994906813,colour,0.5
005,75,1,1,3,2,102,219.37348221754655,220.54373576748185,"[47, 0, 207]",207,a,0.6520771811483428,colour,0.5
005,75,1,1,3,3,103,221.065165694803,221.91168327257037,"[92, 0, 162]",162,l,0.3276169268647209,colour,0.5
005,75,1,1,3,4,104,222.4279053794453,223.43168669112492,"[97, 0, 157]",157,l,0.4714450116734952,colour,0.5
005,75,1,1,3,5,105,223.9427131867269,225.00769613718148,"[40, 0, 214]",214,a,0.5421529018785805,colour,0.5
005,75,1,1,3,6,106,225.52817217051052,226.7117089512758,"[54, 0, 200]",200,l,0.6601644068723544,colour,0.5
005,75,1,1,3,7,107,227.27548515878152,228.25569205370266,"[22, 0, 232]",232,a,0.4540579094318673,colour,0.5
005,75,1,1,3,8,108,228.76282735471614,229.73566106602084,"[91, 0, 163]",163,l,0.460548878996633,colour,0.5
005,75,1,1,3,9,109,230.24885095551144,231.16767622425687,"[55, 0, 199]",199,a,0.3953922425862402,colour,0.5
005,75,1,1,3,10,110,231.68645793385804,232.69572039484046,"[25, 0, 229]",229,a,0.4867817535996437,colour,0.5
005,75,1,1,3,11,111,233.19042395905126,234.25567866303027,"[86, 0, 168]",168,l,0.5418405823875219,colour,0.5
005,75,1,1,3,12,112,234.7797032452654,235.81563259882387,"[18, 0, 236]",236,a,0.5090261537116021,colour,0.5
005,75,1,1,3,13,113,236.33199018856976,237.27962723304518,"[16, 0, 238]",238,a,0.41589938977267593,colour,0.5
005,75,1,1,3,14,114,237.7977165619377,238.81572121405043,"[23, 0, 231]",231,a,0.500520663917996,colour,0.5
005,75,1,1,3,15,115,239.3324222372612,240.40768495190423,"[37, 0, 217]",217,a,0.5577452495926991,colour,0.5
005,75,1,1,3,16,116,240.92703616211656,242.1756677456433,"[2, 0, 252]",252,a,0.7299455784959719,colour,0.5
005,75,1,1,3,17,117,242.69204148300923,243.95163890975527,"[30, 0, 224]",224,a,0.7422776721650735,colour,0.5
005,75,1,1,3,18,118,244.46587997325696,245.64762081811205,"[99, 0, 155]",155,l,0.6203481910051778,colour,0.5
005,75,1,1,3,19,119,246.15793327160645,247.19171104661655,"[28, 0, 226]",226,a,0.5104810195043683,colour,0.5
005,75,1,1,3,20,120,247.70490211760625,248.7836310674902,"[38, 0, 216]",216,a,0.565676118596457,colour,0.5
005,75,1,1,3,21,121,249.30384125502314,250.33569430653006,"[73, 0, 181]",181,l,0.5085058836266398,colour,0.5
005,75,1,1,3,22,122,250.8508451533271,252.02364727819804,"[65, 0, 189]",189,l,0.6494998554699123,colour,0.5
005,75,1,1,3,23,123,252.538381042541,253.51167279633228,"[71, 0, 183]",183,l,0.44980477076023817,colour,0.5
005,75,1,1,3,24,124,254.02297774073668,255.03169393795542,"[21, 0, 233]",233,a,0.4846396273933351,colour,0.5
005,75,1,1,3,25,125,255.55193287611473,256.6236588573083,"[39, 0, 215]",215,a,0.5484489178052172,colour,0.5
005,75,1,1,3,26,126,257.1187995901564,258.18367659614887,"[83, 0, 171]",171,l,0.5416267241816968,colour,0.5
005,75,1,1,3,27,127,258.6969712484861,259.6476846210426,"[77, 0, 177]",177,l,0.4252394384238869,colour,0.5
005,75,1,1,3,28,128,260.147084006574,261.1116189969471,"[45, 0, 209]",209,a,0.4411252011777833,colour,0.5
005,75,1,1,3,29,129,261.6315968155395,262.7116601144662,"[27, 0, 227]",227,a,0.5568118355004117,colour,0.5
005,75,1,1,3,30,130,263.22545810160227,264.1836616299115,"[94, 0, 160]",160,l,0.43500641570426524,colour,0.5
005,75,1,1,3,31,131,264.6892057945952,265.68763868289534,"[80, 0, 174]",174,l,0.48116669664159417,colour,0.5
005,75,1,1,3,32,132,266.195185158751,267.33561947592534,"[49, 0, 205]",205,a,0.6170257094781846,colour,0.5
005,75,1,1,3,33,133,267.85161551542114,268.90365630516317,"[90, 0, 164]",164,l,0.5287211912218481,colour,0.5
005,75,1,1,3,34,134,269.4178957932163,270.13560498238076,"[44, 0, 210]",210,a,0.19436911051161587,colour,0.5
005,75,1,1,3,35,135,270.65231506398413,271.8235831601778,"[87, 0, 167]",167,l,0.6478799685137346,colour,0.5
005,75,1,1,3,36,136,272.33994705148507,273.71162388066296,"[60, 0, 194]",194,a,0.848545488785021,colour,0.5
005,75,1,1,3,37,137,274.230762808118,275.2803751458414,"[51, 0, 203]",203,a,0.5253585373284295,colour,0.5
005,75,1,1,3,38,138,275.79500769183505,276.84759238245897,"[70, 0, 184]",184,l,0.5292568212607875,colour,0.5
005,75,1,1,3,39,139,277.3576145716943,278.3515997615177,"[0, 0, 254]",254,a,0.4706616527400911,colour,0.5
005,75,1,1,3,40,140,278.85777880530804,279.92758912139107,"[17, 0, 237]",237,a,0.546540341922082,colour,0.5
005,75,1,1,3,41,141,280.4446646916913,281.54362233995926,"[7, 0, 247]",247,a,0.575651440420188,colour,0.5
005,75,1,1,3,42,142,282.0616939457832,283.1436020175461,"[35, 0, 219]",219,a,0.5586187992012128,colour,0.5
005,75,1,1,3,43,143,283.6555339641636,284.6715875050286,"[32, 0, 222]",222,a,0.4992910778382793,colour,0.5
005,75,1,1,3,44,144,285.1917047450552,286.28763253893703,"[57, 0, 197]",197,a,0.5653405622579157,colour,0.5
005,75,1,1,3,45,145,286.7978264448466,287.77557338017505,"[79, 0, 175]",175,l,0.4461640618974343,colour,0.5
005,75,1,1,3,46,146,288.2961718995357,289.6556296686176,"[56, 0, 198]",198,a,0.8427362659713253,colour,0.5
005,75,1,1,3,47,147,290.16885854885913,291.19956432806794,"[64, 0, 190]",190,l,0.4985411958768964,colour,0.5
005,75,1,1,3,48,148,291.71423507703,292.7355996260885,"[84, 0, 170]",170,l,0.5031503710197285,colour,0.5
005,75,1,1,3,49,149,293.2559161519166,294.18358640547376,"[89, 0, 165]",165,l,0.4101189178181812,colour,0.5
005,75,1,1,3,50,150,294.6966463258723,295.5996023735497,"[5, 0, 249]",249,a,0.3850817584898323,colour,0.5
005,75,1,1,4,1,151,300.93692444392946,301.49559444305487,"[22, 0, 232]",232,a,0.03464147844351828,colour,0.5
005,75,1,1,4,2,152,302.01578296907246,303.32753461319953,"[39, 0, 215]",215,a,0.7967177694663405,colour,0.5
005,75,1,1,4,3,153,303.8357884356519,304.9355664642062,"[36, 0, 218]",218,a,0.5764418884646147,colour,0.5
005,75,1,1,4,4,154,305.4651060666656,306.49560665222816,"[23, 0, 231]",231,a,0.5033342968672514,colour,0.5
005,75,1,1,4,5,155,307.01599210104905,308.0956284713466,"[95, 0, 159]",159,l,0.5561088211834431,colour,0.5
005,75,1,1,4,6,156,308.6133361638058,309.5036194411805,"[44, 0, 210]",210,a,0.36709089088253677,colour,0.5
005,75,1,1,4,7,157,310.0267165170517,311.17559961031657,"[53, 0, 201]",201,a,0.6257556913187727,colour,0.5
005,75,1,1,4,8,158,311.68312481837347,312.6315511295106,"[9, 0, 245]",245,a,0.4250310941133648,colour,0.5
005,75,1,1,4,9,159,313.1519483936718,314.17555707495194,"[73, 0, 181]",181,l,0.5002642703475431,colour,0.5
005,75,1,1,4,10,160,314.68329929199535,315.82354928948916,"[61, 0, 193]",193,l,0.6185932150110602,colour,0.5
005,75,1,1,4,11,161,316.3301568372408,317.94355601631105,"[62, 0, 192]",192,a,1.090029955841601,colour,0.5
005,75,1,1,4,12,162,318.4501103949733,319.5435482969042,"[94, 0, 160]",160,l,0.570194709347561,colour,0.5
005,75,1,1,4,13,163,320.04994474351406,320.9915654024808,"[99, 0, 155]",155,l,0.4183688018238172,colour,0.5
005,75,1,1,4,14,164,321.5032413494773,322.35956804594025,"[85, 0, 169]",169,l,0.33302206406369805,colour,0.5
005,75,1,1,4,15,165,322.8782973740017,323.9035586314276,"[3, 0, 251]",251,a,0.5005175131373107,colour,0.5
005,75,1,1,4,16,166,324.4047736452194,325.6635885006981,"[82, 0, 172]",172,l,0.7399949430255219,colour,0.5
005,75,1,1,4,17,167,326.1836049162084,327.39951580623165,"[32, 0, 222]",222,a,0.6932710689725354,colour,0.5
005,75,1,1,4,18,168,327.9181596698472,329.63158500019927,"[77, 0, 177]",177,l,1.1907224940368906,colour,0.5
005,75,1,1,4,19,169,330.1260806139326,331.1435236422112,"[15, 0, 239]",239,a,0.49429475248325616,colour,0.5
005,75,1,1,4,20,170,331.6573874015594,332.6555284502683,"[81, 0, 173]",173,l,0.47837118059396744,colour,0.5
005,75,1,1,4,21,171,333.169560381677,334.2874990252312,"[42, 0, 212]",212,a,0.5949097030097619,colour,0.5
005,75,1,1,4,22,172,334.79468828311656,335.7435797258513,"[98, 0, 156]",156,l,0.438161906786263,colour,0.5
005,75,1,1,4,23,173,336.25753879582044,337.2715104689123,"[91, 0, 163]",163,l,0.490621748380363,colour,0.5
005,75,1,1,4,24,174,337.7889641309157,338.76753971737344,"[41, 0, 213]",213,a,0.45522211701609194,colour,0.5
005,75,1,1,4,25,175,339.2770739319967,340.25552821392193,"[84, 0, 170]",170,l,0.45178187568672,colour,0.5
005,75,1,1,4,26,176,340.77674270782154,341.74356239661574,"[4, 0, 250]",250,a,0.44373127759899944,colour,0.5
005,75,1,1,4,27,177,342.26132443977986,343.1915346037131,"[79, 0, 175]",175,l,0.4068279437487945,colour,0.5
005,75,1,1,4,28,178,343.698868796695,344.6715000713011,"[50, 0, 204]",204,a,0.44918288849294186,colour,0.5
005,75,1,1,4,29,179,345.17395057878457,346.05552711116616,"[45, 0, 209]",209,a,0.363550218869932,colour,0.5
005,75,1,1,4,30,180,346.56732042413205,347.44750510621816,"[86, 0, 168]",168,l,0.3629200658760965,colour,0.5
005,75,1,1,4,31,181,347.96761565085035,348.8875125736231,"[76, 0, 178]",178,l,0.39685892371926457,colour,0.5
005,75,1,1,4,32,182,349.4059421850834,350.11950772453565,"[31, 0, 223]",223,a,0.19093910907395184,colour,0.5
005,75,1,1,4,33,183,350.6344683439238,352.2395372944884,"[13, 0, 241]",241,a,1.081733204307966,colour,0.5
005,75,1,1,4,34,184,352.7596068790881,353.847512825625,"[65, 0, 189]",189,l,0.5648356521269307,colour,0.5
005,75,1,1,4,35,185,354.3691908757901,355.4635137488367,"[2, 0, 252]",252,a,0.571057231281884,colour,0.5
005,75,1,1,4,36,186,356.00320708483923,357.1034758450696,"[12, 0, 242]",242,a,0.5709705852204934,colour,0.5
005,75,1,1,4,37,187,357.6228270553984,358.71951300208457,"[7, 0, 247]",247,a,0.5655256697209552,colour,0.5
005,75,1,1,4,38,188,359.2291082626907,360.2155001091305,"[8, 0, 246]",246,a,0.4694033160340041,colour,0.5
005,75,1,1,4,39,189,360.7327643315075,361.90350900695194,"[49, 0, 205]",205,a,0.6520216489443555,colour,0.5
005,75,1,1,4,40,190,362.4156461470993,363.3275184654631,"[90, 0, 164]",164,l,0.3948837879579514,colour,0.5
005,75,1,1,4,41,191,363.83873085619416,364.84745729342103,"[14, 0, 240]",240,a,0.4862150098197162,colour,0.5
005,75,1,1,4,42,192,365.354607166606,366.43947262503207,"[29, 0, 225]",225,a,0.567629199125804,colour,0.5
005,75,1,1,4,43,193,366.946501587634,367.9274646661943,"[67, 0, 187]",187,l,0.4574950000969693,colour,0.5
005,75,1,1,4,44,194,368.44656342139933,369.3034923078958,"[87, 0, 167]",167,l,0.33338322048075497,colour,0.5
005,75,1,1,4,45,195,369.8217147565447,370.71146476699505,"[37, 0, 217]",217,a,0.37311987951397896,colour,0.5
005,75,1,1,4,46,196,371.2129487772472,372.3994850863237,"[88, 0, 166]",166,l,0.6631796889705583,colour,0.5
005,75,1,1,4,47,197,372.91612033720594,374.0794670166215,"[0, 0, 254]",254,a,0.639937283936888,colour,0.5
005,75,1,1,4,48,198,374.5881603708258,375.5355079388246,"[20, 0, 234]",234,a,0.42401733552105725,colour,0.5
005,75,1,1,4,49,199,376.0466939418111,377.87149841722567,"[56, 0, 198]",198,a,1.298835871159099,colour,0.5
005,75,1,1,4,50,200,378.3917239647126,379.5194630624028,"[59, 0, 195]",195,l,0.5955686066299677,colour,0.5
005,75,1,1,5,1,201,384.82059623510577,385.9354617013596,"[34, 0, 220]",220,a,0.5923477374017239,colour,0.4
005,75,1,1,5,2,202,386.4541362847667,387.40747818292584,"[71, 0, 183]",183,l,0.42112611478660256,colour,0.4
005,75,1,1,5,3,203,387.9211178441765,388.62344893754926,"[80, 0, 174]",174,l,0.18447216413915157,colour,0.4
005,75,1,1,5,4,204,389.1374934720807,390.3594404399628,"[26, 0, 228]",228,a,0.6906382110901177,colour,0.4
005,75,1,1,5,5,205,390.88294238911476,391.8874594044173,"[75, 0, 179]",179,l,0.4873410143190995,colour,0.4
005,75,1,1,5,6,206,392.3994831170421,393.38348195760045,"[28, 0, 226]",226,a,0.4668047226732597,colour,0.4
005,75,1,1,5,7,207,393.9002905006055,394.8954481687397,"[77, 0, 177]",177,l,0.477490147924982,colour,0.4
005,75,1,1,5,8,208,395.4043931902852,396.3994354617316,"[86, 0, 168]",168,l,0.47872682311572134,colour,0.4
005,75,1,1,5,9,209,396.90551761956885,398.7274726218311,"[56, 0, 198]",198,a,1.298609409830533,colour,0.4
005,75,1,1,5,10,210,399.2401757182088,400.3434065913316,"[99, 0, 155]",155,l,0.579930966719985,colour,0.4
005,75,1,1,5,11,211,400.8460536276689,401.8314840969397,"[90, 0, 164]",164,l,0.4620766061125323,colour,0.4
005,75,1,1,5,12,212,402.3461316090543,403.39941695099697,"[65, 0, 189]",189,l,0.5301752691157162,colour,0.4
005,75,1,1,5,13,213,403.9087585750967,405.80750520073343,"[60, 0, 194]",194,a,1.3870116018224508,colour,0.4
005,75,1,1,5,14,214,406.3277902189875,407.52750735904556,"[9, 0, 245]",245,a,0.6800713333068416,colour,0.4
005,75,1,1,5,15,215,408.04643833602313,409.14354727300815,"[61, 0, 193]",193,l,0.5653634053887799,colour,0.4
005,75,1,1,5,16,216,409.6587627104018,410.6794376358157,"[35, 0, 219]",219,a,0.49111287377309054,colour,0.4
005,75,1,1,5,17,217,411.20143036858644,412.27945236559026,"[32, 0, 222]",222,a,0.5596904531121254,colour,0.4
005,75,1,1,5,18,218,412.7956279986538,413.74350016901735,"[76, 0, 178]",178,l,0.4285067815799266,colour,0.4
005,75,1,1,5,19,219,414.2527374239871,415.24745910509955,"[51, 0, 203]",203,a,0.4718455526744947,colour,0.4
005,75,1,1,5,20,220,415.7527992577525,416.6634561686078,"[81, 0, 173]",173,l,0.3809751302469522,colour,0.4
005,75,1,1,5,21,221,417.1796180170495,418.2794362179702,"[58, 0, 196]",196,a,0.5764584300341085,colour,0.4
005,75,1,1,5,22,222,418.789154358441,419.85541888244916,"[15, 0, 239]",239,a,0.5429622546071187,colour,0.4
005,75,1,1,5,23,223,420.36732444143854,421.55144017527346,"[91, 0, 163]",163,l,0.6587256888160482,colour,0.4
005,75,1,1,5,24,224,422.07341360964347,423.5674287317088,"[69, 0, 185]",185,l,0.9714694301364943,colour,0.4
005,75,1,1,5,25,225,424.0883797428105,425.27137616754044,"[57, 0, 197]",197,a,0.6596740691456944,colour,0.4
005,75,1,1,5,26,226,425.7967461263761,426.7274923141813,"[19, 0, 235]",235,a,0.41372378659434617,colour,0.4
005,75,1,1,5,27,227,427.23768976470456,428.2394049623981,"[92, 0, 162]",162,l,0.4783247068990022,colour,0.4
005,75,1,1,5,28,228,428.76095264952164,429.7433993445011,"[82, 0, 172]",172,l,0.4592554899863899,colour,0.4
005,75,1,1,5,29,229,430.2621739647584,431.2233919874998,"[7, 0, 247]",247,a,0.43793662707321346,colour,0.4
005,75,1,1,5,30,230,431.7409267817857,432.7914473275887,"[89, 0, 165]",165,l,0.5272679008776322,colour,0.4
005,75,1,1,5,31,231,433.3035060924012,434.3994374310132,"[98, 0, 156]",156,l,0.5725357277551666,colour,0.4
005,75,1,1,5,32,232,434.9192143883556,435.9833927121945,"[72, 0, 182]",182,l,0.540941038983874,colour,0.4
005,75,1,1,5,33,233,436.5028486853698,437.4554599999683,"[36, 0, 218]",218,a,0.42294371244497597,colour,0.4
005,75,1,1,5,34,234,437.96965537732467,439.0633685772773,"[6, 0, 248]",248,a,0.5765891866758466,colour,0.4
005,75,1,1,5,35,235,439.5767802018672,440.77542962657753,"[54, 0, 200]",200,a,0.6792107806541026,colour,0.4
005,75,1,1,5,36,236,441.2955886141863,442.295367666753,"[78, 0, 176]",176,l,0.482201723032631,colour,0.4
005,75,1,1,5,37,237,442.8122695510974,443.8153895960422,"[49, 0, 205]",205,a,0.4859479824081063,colour,0.4
005,75,1,1,5,38,238,444.3288729005726,445.47137215023395,"[25, 0, 229]",229,a,0.6245662774890661,colour,0.4
005,75,1,1,5,39,239,445.97692025336437,447.1353793088347,"[37, 0, 217]",217,a,0.6343269533244893,colour,0.4
005,75,1,1,5,40,240,447.651879864512,448.911381192971,"[94, 0, 160]",160,l,0.7360761791933328,colour,0.4
005,75,1,1,5,41,241,449.4177039904753,450.4873851251323,"[22, 0, 232]",232,a,0.5464021022198722,colour,0.4
005,75,1,1,5,42,242,450.99597923026886,452.0073869683547,"[83, 0, 171]",171,l,0.48460103047546,colour,0.4
005,75,1,1,5,43,243,452.5275837650988,453.5833625436062,"[50, 0, 204]",204,a,0.5324201891198754,colour,0.4
005,75,1,1,5,44,244,454.09028950019274,455.4074072907679,"[8, 0, 246]",246,a,0.7937922842102125,colour,0.4
005,75,1,1,5,45,245,455.91848931857385,456.90338258247357,"[31, 0, 223]",223,a,0.46011604263912886,colour,0.4
005,75,1,1,5,46,246,457.41204679210205,458.27942203951534,"[39, 0, 215]",215,a,0.3441485963994637,colour,0.4
005,75,1,1,5,47,247,458.79446576035116,459.81536005763337,"[5, 0, 249]",249,a,0.49761408322956413,colour,0.4
005,75,1,1,5,48,248,460.32580444938503,461.7913929768838,"[43, 0, 211]",211,a,0.94233863952104,colour,0.4
005,75,1,1,5,49,249,462.3061606119154,464.8073279702803,"[53, 0, 201]",201,a,1.9777764737373218,colour,0.4
005,75,1,1,5,50,250,465.3264196362579,466.3033111388795,"[63, 0, 191]",191,l,0.4537392883794382,colour,0.4
005,75,1,1,6,1,251,473.53424369439017,474.2794393687509,"[95, 0, 159]",159,l,0.22652306011877954,colour,0.28
005,75,1,1,6,2,252,474.8034848248353,475.98351716739126,"[4, 0, 250]",250,a,0.6629177816212177,colour,0.28
005,75,1,1,6,3,253,476.4923188290559,477.49531244963873,"[30, 0, 224]",224,a,0.4858136811526492,colour,0.28
005,75,1,1,6,4,254,478.013516781386,478.99131924891844,"[48, 0, 206]",206,a,0.4544363950844854,colour,0.28
005,75,1,1,6,5,255,479.4967929152772,480.3993306987686,"[93, 0, 161]",161,l,0.37902953289449215,colour,0.28
005,75,1,1,6,6,256,480.9188571703853,483.3833153608721,"[61, 0, 193]",193,l,1.9515337529592216,colour,0.28
005,75,1,1,6,7,257,483.8931016366696,484.8153616330819,"[68, 0, 186]",186,l,0.39916764677036554,colour,0.28
005,75,1,1,6,8,258,485.32543856685515,486.42334858572576,"[69, 0, 185]",185,l,0.5747341739479452,colour,0.28
005,75,1,1,6,9,259,486.9368846655125,487.9353624522919,"[87, 0, 167]",167,l,0.4696329280268401,colour,0.28
005,75,1,1,6,10,260,488.459257459268,489.9193278158782,"[72, 0, 182]",182,l,0.9416903696255758,colour,0.28
005,75,1,1,6,11,261,490.441882172483,491.50331618008204,"[11, 0, 243]",243,a,0.5442229544278234,colour,0.28
005,75,1,1,6,12,262,492.01938783796504,492.9833486014977,"[32, 0, 222]",222,a,0.446126252762042,colour,0.28
005,75,1,1,6,13,263,493.5057269090321,494.55131650774274,"[64, 0, 190]",190,l,0.5279555552406237,colour,0.28
005,75,1,1,6,14,264,495.07012224185746,497.3033489480149,"[59, 0, 195]",195,l,1.715933733037673,colour,0.28
005,75,1,1,6,15,265,497.8163895701291,498.6313502682606,"[81, 0, 173]",173,l,0.29159541346598417,colour,0.28
005,75,1,1,6,16,266,499.14463901298586,500.1113247942412,"[94, 0, 160]",160,l,0.44344495178665966,colour,0.28
005,75,1,1,6,17,267,500.6313305759104,501.7033417013008,"[76, 0, 178]",178,l,0.5484745177673176,colour,0.28
005,75,1,1,6,18,268,502.2112284596078,503.1913026286056,"[85, 0, 169]",169,l,0.4573158003622666,colour,0.28
005,75,1,1,6,19,269,503.7113619733136,504.59129892650526,"[51, 0, 203]",203,a,0.3566421668510884,colour,0.28
005,75,1,1,6,20,270,505.1021355885314,506.0953106379602,"[67, 0, 187]",187,l,0.4698534816270694,colour,0.28
005,75,1,1,6,21,271,506.59155847074,508.48731580830645,"[54, 0, 200]",200,a,1.3623411128064618,colour,0.28
005,75,1,1,6,22,272,509.0003123196075,510.11928165715653,"[84, 0, 170]",170,l,0.6021139268996194,colour,0.28
005,75,1,1,6,23,273,510.63453884224873,511.7753035959322,"[73, 0, 181]",181,l,0.6173612659331411,colour,0.28
005,75,1,1,6,24,274,512.2857381415088,513.3592840832425,"[58, 0, 196]",196,a,0.5502365829888731,colour,0.28
005,75,1,1,6,25,275,513.8796557474416,514.8952866920736,"[86, 0, 168]",168,l,0.4922613275703043,colour,0.28
005,75,1,1,6,26,276,515.4015011820011,516.431335774716,"[12, 0, 242]",242,a,0.5064669449348003,colour,0.28
005,75,1,1,6,27,277,516.9420613722177,518.0712856617756,"[5, 0, 249]",249,a,0.611773778218776,colour,0.28
005,75,1,1,6,28,278,518.5900122328894,519.5833018913399,"[1, 0, 253]",253,a,0.46991295216139406,colour,0.28
005,75,1,1,6,29,279,520.0901315681404,521.3352701348485,"[99, 0, 155]",155,l,0.7218327526934445,colour,0.28
005,75,1,1,6,30,280,521.8434065913316,523.1352895119926,"[77, 0, 177]",177,l,0.7687322818674147,colour,0.28
005,75,1,1,6,31,281,523.6560601418605,525.2152823124779,"[63, 0, 191]",191,l,1.0382648579543456,colour,0.28
005,75,1,1,6,32,282,525.7321085785516,526.6392582942499,"[92, 0, 162]",162,l,0.3839612676529214,colour,0.28
005,75,1,1,6,33,283,527.1547738420777,528.3353103070986,"[98, 0, 156]",156,l,0.6630075783468783,colour,0.28
005,75,1,1,6,34,284,528.8518262227299,530.0312902461737,"[50, 0, 204]",204,a,0.6485439921962097,colour,0.28
005,75,1,1,6,35,285,530.5499805834843,531.615260887309,"[6, 0, 248]",248,a,0.5340920637827367,colour,0.28
005,75,1,1,6,36,286,532.1272133139428,533.29524675617,"[60, 0, 194]",194,a,0.6495987107045949,colour,0.28
005,75,1,1,6,37,287,533.8159181368537,534.8313041095389,"[21, 0, 233]",233,a,0.48374284093733877,colour,0.28
005,75,1,1,6,38,288,535.3504394923802,536.439231591532,"[90, 0, 164]",164,l,0.5718693409580737,colour,0.28
005,75,1,1,6,39,289,536.9532367414795,538.0632330944063,"[91, 0, 163]",163,l,0.5850596242817119,colour,0.28
005,75,1,1,6,40,290,538.582920255023,539.4152538768249,"[88, 0, 166]",166,l,0.30893958639353514,colour,0.28
005,75,1,1,6,41,291,539.9268045809586,541.1592593498062,"[2, 0, 252]",252,a,0.7094041667878628,colour,0.28
005,75,1,1,6,42,292,541.6769130853936,542.6712519485736,"[47, 0, 207]",207,a,0.46830094209872186,colour,0.28
005,75,1,1,6,43,293,543.1800382504007,544.0872387720738,"[80, 0, 174]",174,l,0.3838230278342962,colour,0.28
005,75,1,1,6,44,294,544.6020402779104,545.5192803180544,"[70, 0, 184]",184,l,0.393950373865664,colour,0.28
005,75,1,1,6,45,295,546.0396484377561,547.0232451618649,"[24, 0, 230]",230,a,0.4602873654803261,colour,0.28
005,75,1,1,6,46,296,547.5363909406587,548.7272142592119,"[44, 0, 210]",210,a,0.6607681722380221,colour,0.28
005,75,1,1,6,47,297,549.2508418450598,550.4232308259234,"[55, 0, 199]",199,a,0.6419132074806839,colour,0.28
005,75,1,1,6,48,298,550.9344128904631,551.8552298365394,"[83, 0, 171]",171,l,0.40246374055277556,colour,0.28
005,75,1,1,6,49,299,552.3744046039646,553.327237259713,"[75, 0, 179]",179,l,0.41898241313174367,colour,0.28
005,75,1,1,6,50,300,553.8467786974506,554.7032700213604,"[97, 0, 157]",157,l,0.3271521889837459,colour,0.28
005,75,1,1,7,1,301,559.4188843456795,561.8472485552775,"[64, 0, 190]",190,a,1.9084379847627133,colour,0.14
005,75,1,1,7,2,302,562.3676564532798,563.43926231144,"[73, 0, 181]",181,l,0.5544141033897176,colour,0.14
005,75,1,1,7,3,303,563.9535061318893,564.9032242565881,"[72, 0, 182]",182,l,0.4318654970265925,colour,0.14
005,75,1,1,7,4,304,565.4241004369687,567.095194847323,"[96, 0, 158]",158,l,1.1393488787580281,colour,0.14
005,75,1,1,7,5,305,567.6081377955852,568.5032220509602,"[40, 0, 214]",214,a,0.3705531876767054,colour,0.14
005,75,1,1,7,6,306,569.0220238466281,570.0952306872932,"[32, 0, 222]",222,a,0.5459432720672339,colour,0.14
005,75,1,1,7,7,307,570.6098573255586,573.8873605491826,"[65, 0, 189]",189,a,2.747473283438012,colour,0.14
005,75,1,1,7,8,308,574.4100452687126,575.9671741499333,"[59, 0, 195]",195,a,1.0403683874756098,colour,0.14
005,75,1,1,7,9,309,576.4836061764508,577.6151876320364,"[52, 0, 202]",202,a,0.6115012370282784,colour,0.14
005,75,1,1,7,10,310,578.1698986950796,579.1112184559461,"[97, 0, 157]",157,l,0.40958210616372526,colour,0.14
005,75,1,1,7,11,311,579.6218806443503,580.527249783976,"[95, 0, 159]",159,l,0.3876319086411968,colour,0.14
005,75,1,1,7,12,312,581.0433501926018,582.5751835517585,"[76, 0, 178]",178,l,1.000387150212191,colour,0.14
005,75,1,1,7,13,313,583.084713434102,584.2552407067269,"[99, 0, 155]",155,l,0.6535233822651207,colour,0.14
005,75,1,1,7,14,314,584.7725833043223,586.4071879187832,"[75, 0, 179]",179,l,1.1171950630377978,colour,0.14
005,75,1,1,7,15,315,586.9265111659188,588.3992125451332,"[57, 0, 197]",197,a,0.9583610666450113,colour,0.14
005,75,1,1,7,16,316,588.9063218522351,590.3271726691164,"[15, 0, 239]",239,a,0.8974863198818639,colour,0.14
005,75,1,1,7,17,317,590.8394960982259,592.0871804829221,"[58, 0, 196]",196,a,0.7242564784828573,colour,0.14
005,75,1,1,7,18,318,592.5975539825158,593.5591390692862,"[87, 0, 167]",167,l,0.44550437049474567,colour,0.14
005,75,1,1,7,19,319,594.0747361432295,595.2231990031432,"[82, 0, 172]",172,l,0.6250767013989389,colour,0.14
005,75,1,1,7,20,320,595.731274019694,596.8151938548544,"[89, 0, 165]",165,l,0.5605951165780425,colour,0.14
005,75,1,1,7,21,321,597.3227100044023,598.4632230907446,"[93, 0, 161]",161,l,0.6206242768093944,colour,0.14
005,75,1,1,7,22,322,598.9765098663047,599.999151656637,"[20, 0, 234]",234,a,0.5087469172431156,colour,0.14
005,75,1,1,7,23,323,600.514573863009,602.7671395703219,"[71, 0, 183]",183,a,1.7292559548513964,colour,0.14
005,75,1,1,7,24,324,603.2827701210044,604.1351843551965,"[81, 0, 173]",173,l,0.32909739250317216,colour,0.14
005,75,1,1,7,25,325,604.6404047787655,605.6312210868346,"[92, 0, 162]",162,l,0.4674573248485103,colour,0.14
005,75,1,1,7,26,326,606.1404914248269,607.6391716481885,"[78, 0, 176]",176,l,0.975269646383822,colour,0.14
005,75,1,1,7,27,327,608.155436290428,609.2471310317051,"[86, 0, 168]",168,l,0.5597668591653928,colour,0.14
005,75,1,1,7,28,328,609.757907829131,610.9431728045456,"[68, 0, 186]",186,l,0.66194261983037,colour,0.14
005,75,1,1,7,29,329,611.4611585520906,612.3911442239769,"[80, 0, 174]",174,l,0.40656091657001525,colour,0.14
005,75,1,1,7,30,330,612.9022841471015,613.8071515273768,"[98, 0, 156]",156,l,0.3815493570873514,colour,0.14
005,75,1,1,7,31,331,614.3242822361644,615.1991283409297,"[51, 0, 203]",203,a,0.35154383536428213,colour,0.14
005,75,1,1,7,32,332,615.7149794452125,616.7832340712193,"[91, 0, 163]",163,l,0.5448657105443999,colour,0.14
005,75,1,1,7,33,333,617.2932507465594,618.3991290498525,"[44, 0, 210]",210,a,0.5828710242640227,colour,0.14
005,75,1,1,7,34,334,618.9207755923271,620.7271551822778,"[66, 0, 188]",188,a,1.2830576281994581,colour,0.14
005,75,1,1,7,35,335,621.2478809137829,623.1591467099497,"[61, 0, 193]",193,a,1.3879485606448725,colour,0.14
005,75,1,1,7,36,336,623.6780587823596,625.2391209997004,"[11, 0, 243]",243,a,1.0377044157357886,colour,0.14
005,75,1,1,7,37,337,625.749956873944,626.7991072308505,"[83, 0, 171]",171,l,0.5330164714250714,colour,0.14
005,75,1,1,7,38,338,627.3056234064279,628.4631443215767,"[85, 0, 169]",169,l,0.6335006651934236,colour,0.14
005,75,1,1,7,39,339,628.9831343494589,630.3911068086745,"[77, 0, 177]",177,l,0.8814308096189052,colour,0.14
005,75,1,1,7,40,340,630.9083497633692,632.4071252973517,"[60, 0, 194]",194,a,0.9754409692250192,colour,0.14
005,75,1,1,7,41,341,632.9248046329012,633.6951012696372,"[79, 0, 175]",175,l,0.24703375180251896,colour,0.14
005,75,1,1,7,42,342,634.2060887744883,635.575159133412,"[53, 0, 201]",201,a,0.8456097636371851,colour,0.14
005,75,1,1,7,43,343,636.0813499925425,637.7991119569633,"[62, 0, 192]",192,a,1.1944825380342081,colour,0.14
005,75,1,1,7,44,344,638.3129418456228,639.3351610396057,"[33, 0, 221]",221,a,0.4947689425898716,colour,0.14
005,75,1,1,7,45,345,639.8526832307689,640.8150946056703,"[84, 0, 170]",170,l,0.44465839012991637,colour,0.14
005,75,1,1,7,46,346,641.3366375667974,642.447086842265,"[50, 0, 204]",204,a,0.5782004091888666,colour,0.14
005,75,1,1,7,47,347,642.9581743838498,645.2151058696909,"[70, 0, 184]",184,l,1.7232119999825954,colour,0.14
005,75,1,1,7,48,348,645.7369008919923,646.7431275910931,"[88, 0, 166]",166,l,0.48799834272358567,colour,0.14
005,75,1,1,7,49,349,647.2545861352701,648.9351505632512,"[55, 0, 199]",199,a,1.1576930256560445,colour,0.14
005,75,1,1,7,50,350,649.4527223791229,650.4870842271484,"[63, 0, 191]",191,a,0.517134647234343,colour,0.14
005,75,1,1,8,1,351,663.8655950652901,664.6310938746901,"[80, 0, 174]",174,l,0.24134740885347128,colour,0.06
005,75,1,1,8,2,352,665.1399628840154,666.2950600733748,"[82, 0, 172]",172,l,0.63182642753236,colour,0.06
005,75,1,1,8,3,353,666.8119072131813,667.8310977343936,"[78, 0, 176]",176,l,0.49587998108472675,colour,0.06
005,75,1,1,8,4,354,668.335197273409,670.287071308936,"[63, 0, 191]",191,a,1.4343805951066315,colour,0.06
005,75,1,1,8,5,355,670.7942070037825,671.7750731962733,"[90, 0, 164]",164,l,0.4575682553695515,colour,0.06
005,75,1,1,8,6,356,672.2942483575316,673.303102794569,"[56, 0, 198]",198,a,0.4856620505452156,colour,0.06
005,75,1,1,8,7,357,673.8138295735698,675.015054354677,"[58, 0, 196]",196,a,0.6810055350651965,colour,0.06
005,75,1,1,8,8,358,675.5298885495868,676.4870731993578,"[98, 0, 156]",156,l,0.43414625688456,colour,0.06
005,75,1,1,8,9,359,676.9987861679401,678.3830837797141,"[72, 0, 182]",182,l,0.8566500437445939,colour,0.06
005,75,1,1,8,10,360,678.9030856229365,680.127080587903,"[95, 0, 159]",159,l,0.6964431015076116,colour,0.06
005,75,1,1,8,11,361,680.6436335251201,681.3910162241664,"[28, 0, 226]",226,a,0.2156210197135806,colour,0.06
005,75,1,1,8,12,362,681.9095454786438,683.119073312846,"[81, 0, 173]",173,l,0.6775077922502533,colour,0.06
005,75,1,1,8,13,363,683.6301419498632,684.6070681109559,"[55, 0, 199]",199,a,0.4597084125271067,colour,0.06
005,75,1,1,8,14,364,685.1210972854169,686.1350343000377,"[93, 0, 161]",161,l,0.49611234990879893,colour,0.06
005,75,1,1,8,15,365,686.6573295062408,688.0950786628528,"[88, 0, 166]",166,l,0.9048366603674367,colour,0.06
005,75,1,1,8,16,366,688.6043828715337,689.6150584507268,"[59, 0, 195]",195,a,0.48048573767300695,colour,0.06
005,75,1,1,8,17,367,690.1326204203069,691.2790065323934,"[89, 0, 165]",165,l,0.6295496060047299,colour,0.06
005,75,1,1,8,18,368,691.8022520879749,693.9030883797677,"[70, 0, 184]",184,a,1.5796371578471735,colour,0.06
005,75,1,1,8,19,369,694.4228806971805,695.7030431663152,"[96, 0, 158]",158,l,0.7618356513557956,colour,0.06
005,75,1,1,8,20,370,696.219720558729,698.3750434215181,"[77, 0, 177]",177,l,1.6373642906546593,colour,0.06
005,75,1,1,8,21,371,698.8942040104885,700.2550827745581,"[51, 0, 203]",203,a,0.8306322088465095,colour,0.06
005,75,1,1,8,22,372,700.7768994583748,701.9110787195386,"[99, 0, 155]",155,l,0.6142624886706471,colour,0.06
005,75,1,1,8,23,373,702.4318710109219,703.7349978300044,"[60, 0, 194]",194,a,0.7707928821910173,colour,0.06
005,75,1,1,8,24,374,704.2575797557365,705.3510747653199,"[17, 0, 237]",237,a,0.570592493400909,colour,0.06
005,75,1,1,8,25,375,705.8732258240925,706.8709875994828,"[62, 0, 192]",192,a,0.479746489552781,colour,0.06
005,75,1,1,8,26,376,707.381721073878,708.3110127898399,"[76, 0, 178]",178,l,0.4093631280120462,colour,0.06
005,75,1,1,8,27,377,708.8235957631841,710.783028089907,"[66, 0, 188]",188,l,1.4387759120436385,colour,0.06
005,75,1,1,8,28,378,711.3043119006325,712.3830601489171,"[57, 0, 197]",197,a,0.5614753613481298,colour,0.06
005,75,1,1,8,29,379,712.8963725244394,714.2550603253767,"[53, 0, 201]",201,a,0.8417095105396584,colour,0.06
005,75,1,1,8,30,380,714.7747600889998,716.0790475710528,"[75, 0, 179]",179,l,0.771076844772324,colour,0.06
005,75,1,1,8,31,381,716.6011088329833,717.6469934220659,"[79, 0, 175]",175,l,0.527894115424715,colour,0.06
005,75,1,1,8,32,382,718.1576961765531,719.1269750373904,"[94, 0, 160]",160,l,0.4494735465850681,colour,0.06
005,75,1,1,8,33,383,719.6505250356859,720.7910223681247,"[92, 0, 162]",162,l,0.6221153762890026,colour,0.06
005,75,1,1,8,34,384,721.3046907800017,723.2870027797762,"[67, 0, 187]",187,a,1.4644684304948896,colour,0.06
005,75,1,1,8,35,385,723.8077931018779,724.9830055619823,"[64, 0, 190]",190,a,0.6565036119427532,colour,0.06
005,75,1,1,8,36,386,725.5035465797409,726.4710326553322,"[54, 0, 200]",200,a,0.4498898413730785,colour,0.06
005,75,1,1,8,37,387,726.9885402743239,730.7110047553433,"[69, 0, 185]",185,l,3.2044078413164243,colour,0.06
005,75,1,1,8,38,388,731.2340805635322,732.2629699268145,"[91, 0, 163]",163,l,0.5118858667556196,colour,0.06
005,75,1,1,8,39,389,732.778272404219,736.2790179539006,"[71, 0, 183]",183,l,2.983527801115997,colour,0.06
005,75,1,1,8,40,390,736.7914721397683,737.4549917174736,"[24, 0, 230]",230,a,0.1307531981728971,colour,0.06
005,75,1,1,8,41,391,737.9655735613778,739.4789745521266,"[73, 0, 181]",181,l,0.9926662008510903,colour,0.06
005,75,1,1,8,42,392,739.9943250786746,740.9030946813291,"[86, 0, 168]",168,l,0.38551971467677504,colour,0.06
005,75,1,1,8,43,393,741.4161817771383,742.5989678882761,"[52, 0, 202]",202,a,0.6592656512511894,colour,0.06
005,75,1,1,8,44,394,743.1195675891358,744.8869749743026,"[68, 0, 186]",186,a,1.2557168659986928,colour,0.06
005,75,1,1,8,45,395,745.4049997125985,746.2709638111992,"[83, 0, 171]",171,l,0.34262244461569935,colour,0.06
005,75,1,1,8,46,396,746.7800655831816,748.7269653487019,"[74, 0, 180]",180,l,1.4235604745335877,colour,0.06
005,75,1,1,8,47,397,749.2468706998043,750.0549910872942,"[87, 0, 167]",167,l,0.28059057937934995,colour,0.06
005,75,1,1,8,48,398,750.5709501053207,751.5109410311561,"[61, 0, 193]",193,a,0.42231631639879197,colour,0.06
005,75,1,1,8,49,399,752.0246216523228,753.0069860335207,"[85, 0, 169]",169,l,0.4506865910952911,colour,0.06
005,75,1,1,8,50,400,753.5240749946097,754.8149433690123,"[97, 0, 157]",157,l,0.7735049029579386,colour,0.06
005,75,1,1,9,1,401,763.3899362994125,764.1269959111232,"[77, 0, 177]",177,l,0.22480195469688624,colour,0.06
005,75,1,1,9,2,402,764.640430378844,765.8949511356186,"[52, 0, 202]",202,a,0.7316867698682472,colour,0.06
005,75,1,1,9,3,403,766.4058098529931,767.1348984233337,"[82, 0, 172]",172,l,0.20573431334923953,colour,0.06
005,75,1,1,9,4,404,767.6456362301251,769.0469424583716,"[90, 0, 164]",164,l,0.8779563035350293,colour,0.06
005,75,1,1,9,5,405,769.5627435443457,772.742926729843,"[73, 0, 181]",181,a,2.6516927878838032,colour,0.06
005,75,1,1,9,6,406,773.258893624763,774.4709223785903,"[97, 0, 157]",157,l,0.6797980044502765,colour,0.06
005,75,1,1,9,7,407,774.9913172797533,776.0629526763223,"[66, 0, 188]",188,a,0.5382384703261778,colour,0.06
005,75,1,1,9,8,408,776.5865129146259,777.6069948556833,"[75, 0, 179]",179,l,0.5030574235133827,colour,0.06
005,75,1,1,9,9,409,778.1175412534503,779.3029255639995,"[64, 0, 190]",190,a,0.6534800592344254,colour,0.06
005,75,1,1,9,10,410,779.823057770147,780.8149260397768,"[79, 0, 175]",175,l,0.47325315687339753,colour,0.06
005,75,1,1,9,11,411,781.3340740257408,782.5189526384929,"[78, 0, 176]",176,l,0.6618803922319785,colour,0.06
005,75,1,1,9,12,412,783.0372936348431,785.1508995827753,"[83, 0, 171]",171,l,1.5903426692821085,colour,0.06
005,75,1,1,9,13,413,785.6695308432681,786.838895483641,"[50, 0, 204]",204,a,0.6460190479410812,colour,0.06
005,75,1,1,9,14,414,787.3571762215579,788.5589291496435,"[54, 0, 200]",200,a,0.6783955203136429,colour,0.06
005,75,1,1,9,15,415,789.0767805957003,790.3349302461138,"[93, 0, 161]",161,l,0.7405928006628528,colour,0.06
005,75,1,1,9,16,416,790.8458188956138,791.8389265974984,"[89, 0, 165]",165,l,0.47311452322173864,colour,0.06
005,75,1,1,9,17,417,792.35829868156,793.6149276939686,"[96, 0, 158]",158,l,0.7332889338722453,colour,0.06
005,75,1,1,9,18,418,794.1156673360383,795.150912185898,"[19, 0, 235]",235,a,0.5118992574280128,colour,0.06
005,75,1,1,9,19,419,795.6709994935663,797.8708954395261,"[68, 0, 186]",186,a,1.6765834365505725,colour,0.06
005,75,1,1,9,20,420,798.3912371714832,799.326916275546,"[94, 0, 160]",160,l,0.41235950542613864,colour,0.06
005,75,1,1,9,21,421,799.8417898550397,801.3348904676968,"[92, 0, 162]",162,l,0.9630698848050088,colour,0.06
005,75,1,1,9,22,422,801.8487361101434,802.846920875716,"[58, 0, 196]",196,a,0.4749329084297642,colour,0.06
005,75,1,1,9,23,423,803.3572254522005,804.7029005942168,"[95, 0, 159]",159,l,0.822334275697358,colour,0.06
005,75,1,1,9,24,424,805.2193743684329,806.5508781576063,"[85, 0, 169]",169,l,0.8082109721144661,colour,0.06
005,75,1,1,9,25,425,807.0686130254762,808.5028734976659,"[74, 0, 180]",180,l,0.9108514706604183,colour,0.06
005,75,1,1,9,26,426,809.0094708054094,810.8948589757783,"[80, 0, 174]",174,l,1.370451969327405,colour,0.06
005,75,1,1,9,27,427,811.4138135834364,812.5509651975008,"[56, 0, 198]",198,a,0.613771756994538,colour,0.06
005,75,1,1,9,28,428,813.0579149971018,814.318894428201,"[99, 0, 155]",155,l,0.7375924848020077,colour,0.06
005,75,1,1,9,29,429,814.8397296486655,816.3188920650864,"[69, 0, 185]",185,a,0.9560944851255044,colour,0.06
005,75,1,1,9,30,430,816.8398671008181,817.9668929441832,"[86, 0, 168]",168,l,0.6036971863359213,colour,0.06
005,75,1,1,9,31,431,818.4805286668707,819.686824997887,"[98, 0, 156]",156,l,0.6828621232416481,colour,0.06
005,75,1,1,9,32,432,820.2099835136905,821.1749056543922,"[62, 0, 192]",192,a,0.44291404797695577,colour,0.06
005,75,1,1,9,33,433,821.6909769183258,823.1428422892932,"[59, 0, 195]",195,a,0.9197716797934845,colour,0.06
005,75,1,1,9,34,434,823.6536927359411,826.4389216350392,"[76, 0, 178]",178,l,2.2681619934737682,colour,0.06
005,75,1,1,9,35,435,826.9488051906228,828.0388780756621,"[57, 0, 197]",197,a,0.5715133044868708,colour,0.06
005,75,1,1,9,36,436,828.5591154386057,829.6788362335647,"[88, 0, 166]",166,l,0.5928010536590591,colour,0.06
005,75,1,1,9,37,437,830.1996395525057,831.3669144480955,"[65, 0, 189]",189,a,0.6432857593754306,colour,0.06
005,75,1,1,9,38,438,831.8880021236837,832.8948814249597,"[55, 0, 199]",199,a,0.4842867417028174,colour,0.06
005,75,1,1,9,39,439,833.4037980895955,834.5508860344999,"[84, 0, 170]",170,l,0.6237789801089093,colour,0.06
005,75,1,1,9,40,440,835.0613969862461,838.7190565350465,"[71, 0, 183]",183,a,3.13439745164942,colour,0.06
005,75,1,1,9,41,441,839.2332597892964,840.4948347149184,"[72, 0, 182]",182,l,0.7347693995106965,colour,0.06
005,75,1,1,9,42,442,841.0083475577412,843.1347909035394,"[70, 0, 184]",184,a,1.6031536794034764,colour,0.06
005,75,1,1,9,43,443,843.6491343667731,844.702927375678,"[67, 0, 187]",187,a,0.530172118335031,colour,0.06
005,75,1,1,9,44,444,845.216844698065,846.3348164246418,"[63, 0, 191]",191,a,0.5946722141234204,colour,0.06
005,75,1,1,9,45,445,846.8420301008737,848.0388233311241,"[47, 0, 207]",207,a,0.673609902150929,colour,0.06
005,75,1,1,9,46,446,848.5467593201902,849.7588081602007,"[33, 0, 221]",221,a,0.6885878507746384,colour,0.06
005,75,1,1,9,47,447,850.2755312387599,851.5268716922728,"[61, 0, 193]",193,a,0.7208595601841807,colour,0.06
005,75,1,1,9,48,448,852.046427702182,853.3108891223092,"[81, 0, 173]",173,l,0.7410268185194582,colour,0.06
005,75,1,1,9,49,449,853.8279327910859,854.7748278304935,"[60, 0, 194]",194,a,0.4211623487062752,colour,0.06
005,75,1,1,9,50,450,855.2893772750394,856.3108627345646,"[87, 0, 167]",167,l,0.4980528271989897,colour,0.06
005,75,1,1,10,1,451,864.5910842806334,867.8068061248632,"[61, 0, 193]",193,l,2.684701382298954,colour,0.06
005,75,1,1,10,2,452,868.3273132719332,869.8148303353228,"[91, 0, 163]",163,l,0.9641553232213482,colour,0.06
005,75,1,1,10,3,453,870.3303852677345,871.2467986260308,"[75, 0, 179]",179,l,0.38813721272163093,colour,0.06
005,75,1,1,10,4,454,871.7629321175627,872.4228011403466,"[92, 0, 162]",162,l,0.13032351271249354,colour,0.06
005,75,1,1,10,5,455,872.9348567544948,873.9988743893337,"[95, 0, 159]",159,l,0.5467179664410651,colour,0.06
005,75,1,1,10,6,456,874.5092916056747,875.6067841482582,"[79, 0, 175]",175,l,0.5764501591911539,colour,0.06
005,75,1,1,10,7,457,876.1251255383249,876.9907891327748,"[59, 0, 195]",195,a,0.33384441363159567,colour,0.06
005,75,1,1,10,8,458,877.5148720041616,878.5667899141554,"[81, 0, 173]",173,l,0.5346879521384835,colour,0.06
005,75,1,1,10,9,459,879.0771870444296,880.110785619705,"[87, 0, 167]",167,l,0.5138598209014162,colour,0.06
005,75,1,1,10,10,460,880.6494687417289,881.8067568941042,"[63, 0, 191]",191,a,0.6475278704892844,colour,0.06
005,75,1,1,10,11,461,882.323530384805,884.8067872202955,"[77, 0, 177]",177,l,1.9600100982934237,colour,0.06
005,75,1,1,10,12,462,885.3229597025784,886.2788170926506,"[64, 0, 190]",190,a,0.4323920685565099,colour,0.06
005,75,1,1,10,13,463,886.7918502315879,887.6387592918472,"[78, 0, 176]",176,l,0.3210948435589671,colour,0.06
005,75,1,1,10,14,464,888.1537596896524,889.1107552935136,"[52, 0, 202]",202,a,0.43361495912540704,colour,0.06
005,75,1,1,10,15,465,889.6226691232296,890.638812854886,"[86, 0, 168]",168,l,0.4963380235712975,colour,0.06
005,75,1,1,10,16,466,891.1547037375858,893.0947612232994,"[73, 0, 181]",181,l,1.422689288156107,colour,0.06
005,75,1,1,10,17,467,893.6152656134218,894.6227632523514,"[89, 0, 165]",165,l,0.4902995825977996,colour,0.06
005,75,1,1,10,18,468,895.1465641303221,896.4787484847475,"[80, 0, 174]",174,l,0.8153313068905845,colour,0.06
005,75,1,1,10,19,469,896.9897647403413,898.0787569130771,"[58, 0, 196]",196,a,0.5712990525644273,colour,0.06
005,75,1,1,10,20,470,898.5985401718644,900.1347420666134,"[69, 0, 185]",185,a,1.006420077290386,colour,0.06
005,75,1,1,10,21,471,900.644584662281,903.174774503801,"[67, 0, 187]",187,a,1.9992682349402457,colour,0.06
005,75,1,1,10,22,472,903.6922486458207,904.990815520403,"[56, 0, 198]",198,a,0.7669678535312414,colour,0.06
005,75,1,1,10,23,473,905.5022047477541,907.4787366694072,"[62, 0, 192]",192,a,1.4593913668068126,colour,0.06
005,75,1,1,10,24,474,907.9957421350991,909.1507010846399,"[65, 0, 189]",189,a,0.6364450550172478,colour,0.06
005,75,1,1,10,25,475,909.6645991085097,911.2627702470636,"[74, 0, 180]",180,l,1.076040165964514,colour,0.06
005,75,1,1,10,26,476,911.7761574531905,912.9667357997969,"[51, 0, 203]",203,a,0.6675726429093629,colour,0.06
005,75,1,1,10,27,477,913.4793144408613,914.4467792487703,"[99, 0, 155]",155,l,0.44414205849170685,colour,0.06
005,75,1,1,10,28,478,914.9638008623151,916.1507258969359,"[85, 0, 169]",169,l,0.6604928742162883,colour,0.06
005,75,1,1,10,29,479,916.6703149898676,918.0067146738293,"[57, 0, 197]",197,a,0.8130151007790118,colour,0.06
005,75,1,1,10,30,480,918.5154226003215,919.7266979275737,"[54, 0, 200]",200,a,0.6878935010172427,colour,0.06
005,75,1,1,10,31,481,920.2387570863357,921.7267916628625,"[30, 0, 224]",224,a,0.9710440768394619,colour,0.06
005,75,1,1,10,32,482,922.2425391856814,923.622715597041,"[53, 0, 201]",201,a,0.8569241602672264,colour,0.06
005,75,1,1,10,33,483,924.138747082674,926.0387099036016,"[94, 0, 160]",160,l,1.3765632716240361,colour,0.06
005,75,1,1,10,34,484,926.5583943072706,928.8227962566307,"[84, 0, 170]",170,l,1.7411091323010623,colour,0.06
005,75,1,1,10,35,485,929.3399486268172,930.3507254242431,"[98, 0, 156]",156,l,0.4878939735936001,colour,0.06
005,75,1,1,10,36,486,930.8686954180012,932.1107265427709,"[93, 0, 161]",161,l,0.7115411729319021,colour,0.06
005,75,1,1,10,37,487,932.6302573466673,933.9747048718855,"[55, 0, 199]",199,a,0.8268780725775287,colour,0.06
005,75,1,1,10,38,488,934.4863756988198,935.9507216433994,"[50, 0, 204]",204,a,0.9472550143254921,colour,0.06
005,75,1,1,10,39,489,936.4678688935237,937.5826973384246,"[66, 0, 188]",188,a,0.5965835469542071,colour,0.06
005,75,1,1,10,40,490,938.1056423898553,938.7027174560353,"[37, 0, 217]",217,a,0.07926142925862223,colour,0.06
005,75,1,1,10,41,491,939.2188493722351,940.8066816696664,"[70, 0, 184]",184,a,1.0696894054999575,colour,0.06
005,75,1,1,10,42,492,941.3289209497161,942.2947256984189,"[76, 0, 178]",178,l,0.44685998710338026,colour,0.06
005,75,1,1,10,43,493,942.8140619425103,943.7987133852439,"[72, 0, 182]",182,l,0.4667224090080708,colour,0.06
005,75,1,1,10,44,494,944.3140674564056,945.3827257740777,"[60, 0, 194]",194,a,0.5517985748592764,colour,0.06
005,75,1,1,10,45,495,945.9067086086143,947.2067035674118,"[90, 0, 164]",164,l,0.7820702573517337,colour,0.06
005,75,1,1,10,46,496,947.7191774456296,948.8946868652711,"[97, 0, 157]",157,l,0.6570920173544437,colour,0.06
005,75,1,1,10,47,497,949.4080382314278,951.7106995249633,"[88, 0, 166]",166,l,1.772198123158887,colour,0.06
005,75,1,1,10,48,498,952.2196701464709,953.2946418093052,"[6, 0, 248]",248,a,0.551655214978382,colour,0.06
005,75,1,1,10,49,499,953.8092007061932,955.1106694352347,"[96, 0, 158]",158,l,0.7781499181874096,colour,0.06
005,75,1,1,10,50,500,955.6212418267969,956.9186819090974,"[68, 0, 186]",186,a,0.7742705388227478,colour,0.06
005,75,1,1,11,1,501,966.4740081590135,967.2147273840383,"[99, 0, 155]",155,l,0.21664541214704514,colour,0.06
005,75,1,1,11,2,502,967.7248216470471,968.8146940646693,"[84, 0, 170]",170,l,0.5723927617073059,colour,0.06
005,75,1,1,11,3,503,969.3285586118,970.1747043991927,"[95, 0, 159]",159,l,0.3228135857498273,colour,0.06
005,75,1,1,11,4,504,970.683453679434,971.8146519232541,"[78, 0, 176]",176,l,0.6133657022146508,colour,0.06
005,75,1,1,11,5,505,972.3272092967527,973.2946882831166,"[68, 0, 186]",186,a,0.4441534801153466,colour,0.06
005,75,1,1,11,6,506,973.8116638165666,974.9586647216929,"[86, 0, 168]",168,l,0.6285882289521396,colour,0.06
005,75,1,1,11,7,507,975.4786326941103,976.7346748765558,"[30, 0, 224]",224,a,0.7397590294713154,colour,0.06
005,75,1,1,11,8,508,977.2529776698211,978.4626717069186,"[64, 0, 190]",190,a,0.6864043708192185,colour,0.06
005,75,1,1,11,9,509,978.9718538235174,979.9987129125511,"[71, 0, 183]",183,l,0.5035816319286823,colour,0.06
005,75,1,1,11,10,510,980.5105885392986,981.5393892873544,"[45, 0, 209]",209,a,0.512260413961485,colour,0.06
005,75,1,1,11,11,511,982.0558465200011,983.0946505526081,"[59, 0, 195]",195,a,0.5154663170687854,colour,0.06
005,75,1,1,11,12,512,983.6052276703995,984.8227072475711,"[85, 0, 169]",169,l,0.6940780587028712,colour,0.06
005,75,1,1,11,13,513,985.3396985349245,987.7986357975751,"[70, 0, 184]",184,a,1.9338878941489384,colour,0.06
005,75,1,1,11,14,514,988.3107036210131,989.4229456816101,"[89, 0, 165]",165,l,0.5888350282330066,colour,0.06
005,75,1,1,11,15,515,989.9358019839274,991.3346880309982,"[54, 0, 200]",200,a,0.875505008501932,colour,0.06
005,75,1,1,11,16,516,991.844637752627,993.6706867801258,"[83, 0, 171]",171,l,1.2944964801426977,colour,0.06
005,75,1,1,11,17,517,994.1801942131715,995.3266409775242,"[63, 0, 191]",191,a,0.6290242159739137,colour,0.06
005,75,1,1,11,18,518,995.8487266578013,997.2386700464413,"[76, 0, 178]",178,l,0.8715823062229902,colour,0.06
005,75,1,1,11,19,519,997.7536901364801,998.750637045363,"[91, 0, 163]",163,l,0.4651994080049917,colour,0.06
005,75,1,1,11,20,520,999.2696211914299,1000.3505907290382,"[53, 0, 201]",201,a,0.5628014395479113,colour,0.06
005,75,1,1,11,21,521,1000.8717788353097,1002.1665671550436,"[74, 0, 180]",180,l,0.7753650357481092,colour,0.06
005,75,1,1,11,22,522,1002.6879781779135,1003.6945900579449,"[77, 0, 177]",177,l,0.48322296468541026,colour,0.06
005,75,1,1,11,23,523,1004.2024913886562,1005.1906984695233,"[80, 0, 174]",174,l,0.464835888473317,colour,0.06
005,75,1,1,11,24,524,1005.7032743536402,1006.9346298994496,"[75, 0, 179]",179,l,0.7188836367568001,colour,0.06
005,75,1,1,11,25,525,1007.4426021222025,1008.8066127466736,"[52, 0, 202]",202,a,0.8408501393860206,colour,0.06
005,75,1,1,11,26,526,1009.3177239190554,1010.5505634750007,"[72, 0, 182]",182,l,0.7094730897806585,colour,0.06
005,75,1,1,11,27,527,1011.0580386646325,1012.1586402244866,"[55, 0, 199]",199,a,0.566775735700503,colour,0.06
005,75,1,1,11,28,528,1012.6694067819044,1013.9586123401532,"[51, 0, 203]",203,a,0.7659091964596882,colour,0.06
005,75,1,1,11,29,529,1014.466271849582,1015.7746372091351,"[79, 0, 175]",175,l,0.7849071272648871,colour,0.06
005,75,1,1,11,30,530,1016.2833746740362,1017.9106112248264,"[81, 0, 173]",173,l,1.1038704783422872,colour,0.06
005,75,1,1,11,31,531,1018.4242193783866,1019.4466126521584,"[82, 0, 172]",172,l,0.499426954658702,colour,0.06
005,75,1,1,11,32,532,1019.9573516403325,1021.054653167841,"[65, 0, 189]",189,a,0.5793138106819242,colour,0.06
005,75,1,1,11,33,533,1021.5782890244154,1023.8625947494293,"[66, 0, 188]",188,a,1.7526988270692527,colour,0.06
005,75,1,1,11,34,534,1024.3753750395263,1025.5586211623158,"[90, 0, 164]",164,l,0.6515336742158979,colour,0.06
005,75,1,1,11,35,535,1026.076834158739,1027.486586406245,"[69, 0, 185]",185,a,0.8920197427505627,colour,0.06
005,75,1,1,11,36,536,1027.9963537773583,1028.6065813177265,"[92, 0, 162]",162,l,0.09224691276904196,colour,0.06
005,75,1,1,11,37,537,1029.1271168217063,1030.366570227081,"[97, 0, 157]",157,l,0.7209351785713807,colour,0.06
005,75,1,1,11,38,538,1030.8824685928412,1032.0465958742425,"[60, 0, 194]",194,a,0.6323632390704006,colour,0.06
005,75,1,1,11,39,539,1032.552650856669,1034.3425531279063,"[87, 0, 167]",167,l,1.266557072638534,colour,0.06
005,75,1,1,11,40,540,1034.8520550470566,1035.9665538431145,"[73, 0, 181]",181,l,0.5889287636382505,colour,0.06
005,75,1,1,11,41,541,1036.477995058056,1037.4465846890816,"[94, 0, 160]",160,l,0.44511997723020613,colour,0.06
005,75,1,1,11,42,542,1037.9625374055468,1039.606588013121,"[67, 0, 187]",187,a,1.121108706924133,colour,0.06
005,75,1,1,11,43,543,1040.1209850393934,1041.6385607937118,"[50, 0, 204]",204,a,0.9942608817946166,colour,0.06
005,75,1,1,11,44,544,1042.1618114693556,1043.3185667486396,"[61, 0, 193]",193,a,0.6389636977110058,colour,0.06
005,75,1,1,11,45,545,1043.8396347318776,1045.5905750382226,"[28, 0, 226]",226,a,1.2275821107905358,colour,0.06
005,75,1,1,11,46,546,1046.1053584271576,1046.998615632765,"[88, 0, 166]",166,l,0.3773096092045307,colour,0.06
005,75,1,1,11,47,547,1047.5199660032522,1048.6305787246674,"[57, 0, 197]",197,a,0.5877354113617912,colour,0.06
005,75,1,1,11,48,548,1049.1378975576954,1050.0865349699743,"[93, 0, 161]",161,l,0.42563564714509994,colour,0.06
005,75,1,1,11,49,549,1050.6067817851435,1051.5585581470514,"[56, 0, 198]",198,a,0.42848590784706175,colour,0.06
005,75,1,1,11,50,550,1052.0675969037693,1053.13454947609,"[96, 0, 158]",158,l,0.5379178799921647,colour,0.06
005,75,1,1,12,1,551,1059.0269595198333,1060.182541533024,"[78, 0, 176]",176,l,0.6313979234546423,colour,0.06
005,75,1,1,12,2,552,1060.7019797831308,1061.7905166703276,"[81, 0, 173]",173,l,0.5628904486075044,colour,0.06
005,75,1,1,12,3,553,1062.3083043135703,1063.2305792761035,"[91, 0, 163]",163,l,0.39703497278969735,colour,0.06
005,75,1,1,12,4,554,1063.7527693255106,1064.7425537579693,"[58, 0, 196]",196,a,0.45755131996702403,colour,0.06
005,75,1,1,12,5,555,1065.2516964899842,1066.3825548450695,"[82, 0, 172]",172,l,0.60033059399575,colour,0.06
005,75,1,1,12,6,556,1066.9054443642963,1068.4705297144828,"[73, 0, 181]",181,l,1.0469932644627988,colour,0.06
005,75,1,1,12,7,557,1068.980550722219,1070.4785204480868,"[62, 0, 192]",192,a,0.9801253689220175,colour,0.06
005,75,1,1,12,8,558,1070.998005565838,1072.1825147515628,"[52, 0, 202]",202,a,0.6586488890461624,colour,0.06
005,75,1,1,12,9,559,1072.7033188582864,1073.7664893311448,"[55, 0, 199]",199,a,0.5455813278676942,colour,0.06
005,75,1,1,12,10,560,1074.2796587407356,1075.3664772794582,"[96, 0, 158]",158,l,0.5551222377689555,colour,0.06
005,75,1,1,12,11,561,1075.8860191110289,1077.0465033205692,"[92, 0, 162]",162,l,0.6402763851219788,colour,0.06
005,75,1,1,12,12,562,1077.559408459696,1079.198482434149,"[67, 0, 187]",187,a,1.1072319506201893,colour,0.06
005,75,1,1,12,13,563,1079.7215629684506,1080.6545591962058,"[56, 0, 198]",198,a,0.4089783407980576,colour,0.06
005,75,1,1,12,14,564,1081.1694284434197,1082.2465272663394,"[87, 0, 167]",167,l,0.5535657599102706,colour,0.06
005,75,1,1,12,15,565,1082.7622763647232,1083.8625285833841,"[89, 0, 165]",165,l,0.5825720954453573,colour,0.06
005,75,1,1,12,16,566,1084.38670085778,1085.92714840814,"[63, 0, 191]",191,a,1.0231163742719218,colour,0.06
005,75,1,1,12,17,567,1086.4485267418204,1087.4064908120781,"[69, 0, 185]",185,l,0.4404718113364652,colour,0.06
005,75,1,1,12,18,568,1087.9179123347858,1089.446501981467,"[70, 0, 184]",184,l,1.0090694767422974,colour,0.06
005,75,1,1,12,19,569,1089.9631210847292,1090.9504947883543,"[93, 0, 161]",161,l,0.46863846795167774,colour,0.06
005,75,1,1,12,20,570,1091.471287079621,1092.4784495559288,"[65, 0, 189]",189,a,0.47812581481412053,colour,0.06
005,75,1,1,12,21,571,1093.0369372045388,1093.6784841355402,"[53, 0, 201]",201,a,0.12332684535067528,colour,0.06
005,75,1,1,12,22,572,1094.1964202584932,1095.6544445871841,"[64, 0, 190]",190,a,0.9257664039032534,colour,0.06
005,75,1,1,12,23,573,1096.1724441192346,1097.1904712205287,"[10, 0, 244]",244,a,0.48549269686918706,colour,0.06
005,75,1,1,12,24,574,1097.7079394549364,1098.6464707888663,"[75, 0, 179]",179,l,0.40481578651815653,colour,0.06
005,75,1,1,12,25,575,1099.1637704573805,1100.1345120607875,"[80, 0, 174]",174,l,0.4530181570444256,colour,0.06
005,75,1,1,12,26,576,1100.6451588892378,1101.814504625043,"[90, 0, 164]",164,l,0.6502446176018566,colour,0.06
005,75,1,1,12,27,577,1102.3284605442313,1103.7104553406825,"[85, 0, 169]",169,l,0.8531133101787418,colour,0.06
005,75,1,1,12,28,578,1104.226358432672,1105.2864836913068,"[88, 0, 166]",166,l,0.528120182803832,colour,0.06
005,75,1,1,12,29,579,1105.8019492207095,1106.7824388968293,"[74, 0, 180]",180,l,0.4615858744364232,colour,0.06
005,75,1,1,12,30,580,1107.303199286689,1108.3105610489147,"[54, 0, 200]",200,a,0.48922005179338157,colour,0.06
005,75,1,1,12,31,581,1108.8200275220443,1109.9105119757587,"[0, 0, 254]",254,a,0.573009917861782,colour,0.06
005,75,1,1,12,32,582,1110.4296757155098,1111.3744877054123,"[76, 0, 178]",178,l,0.42682427319232374,colour,0.06
005,75,1,1,12,33,583,1111.8933855993673,1113.022509458242,"[72, 0, 182]",182,l,0.606722314376384,colour,0.06
005,75,1,1,12,34,584,1113.5356520862551,1114.6464908750495,"[95, 0, 159]",159,l,0.5883411458926275,colour,0.06
005,75,1,1,12,35,585,1115.1538388526533,1116.262446505949,"[50, 0, 204]",204,a,0.5852825408801436,colour,0.06
005,75,1,1,12,36,586,1116.7789643908618,1118.158478747704,"[66, 0, 188]",188,a,0.8598890299908817,colour,0.06
005,75,1,1,12,37,587,1118.6660193158314,1119.822431949433,"[71, 0, 183]",183,l,0.6330063889035955,colour,0.06
005,75,1,1,12,38,588,1120.326309753349,1121.3424507280579,"[99, 0, 155]",155,l,0.4930171173764393,colour,0.06
005,75,1,1,12,39,589,1121.8576929470291,1122.8864779411815,"[60, 0, 194]",194,a,0.510184847516939,colour,0.06
005,75,1,1,12,40,590,1123.4072997709736,1124.3824662297266,"[97, 0, 157]",157,l,0.4519839184358716,colour,0.06
005,75,1,1,12,41,591,1124.889456201694,1125.9744528107112,"[57, 0, 197]",197,a,0.5615785489790142,colour,0.06
005,75,1,1,12,42,592,1126.4833127615275,1127.5744498174172,"[86, 0, 168]",168,l,0.5677205713000149,colour,0.06
005,75,1,1,12,43,593,1128.082630384597,1129.046427308349,"[77, 0, 177]",177,l,0.4404032821767032,colour,0.06
005,75,1,1,12,44,594,1129.5671372859506,1130.750427125604,"[61, 0, 193]",193,a,0.6721440088003874,colour,0.06
005,75,1,1,12,45,595,1131.2655311047565,1132.478466097382,"[79, 0, 175]",175,l,0.6898229506332427,colour,0.06
005,75,1,1,12,46,596,1133.0000149662374,1133.9904173425166,"[59, 0, 195]",195,a,0.4710330491652712,colour,0.06
005,75,1,1,12,47,597,1134.5117590484442,1135.5984732181532,"[51, 0, 203]",203,a,0.5634142633061856,colour,0.06
005,75,1,1,12,48,598,1136.1054336515954,1137.2624374475563,"[7, 0, 247]",247,a,0.633526265155524,colour,0.06
005,75,1,1,12,49,599,1137.780737090041,1138.7983987025218,"[84, 0, 170]",170,l,0.4942723031854257,colour,0.06
005,75,1,1,12,50,600,1139.3103066246258,1140.4465787813533,"[94, 0, 160]",160,l,0.6132061947137117,colour,0.06
005,75,1,1,13,1,601,1152.3601615712978,1153.5424293815158,"[96, 0, 158]",158,l,0.6643671334022656,colour,0.06
005,75,1,1,13,2,602,1154.040390836657,1154.8703861972317,"[89, 0, 165]",165,l,0.30702155840117484,colour,0.06
005,75,1,1,13,3,603,1155.3842471996322,1156.2784043424763,"[94, 0, 160]",160,l,0.3708202149719,colour,0.06
005,75,1,1,13,4,604,1156.7907265900867,1157.902427113033,"[62, 0, 192]",192,a,0.5882958536967635,colour,0.06
005,75,1,1,13,5,605,1158.4158127438277,1159.3984299738659,"[73, 0, 181]",181,l,0.4592228007968515,colour,0.06
005,75,1,1,13,6,606,1159.9159919435624,1160.8864176827483,"[92, 0, 162]",162,l,0.4453972444171086,colour,0.06
005,75,1,1,13,7,607,1161.4022471256321,1162.510354988859,"[50, 0, 204]",204,a,0.5847941723186523,colour,0.06
005,75,1,1,13,8,608,1163.0210534110665,1164.2144820182584,"[74, 0, 180]",180,l,0.664331293432042,colour,0.06
005,75,1,1,13,9,609,1164.731803742121,1165.7903689782834,"[63, 0, 191]",191,a,0.538944635540247,colour,0.06
005,75,1,1,13,10,610,1166.3010236836271,1167.3663563688751,"[54, 0, 200]",200,a,0.5467786185909063,colour,0.06
005,75,1,1,13,11,611,1167.8795147507917,1168.846365553327,"[67, 0, 187]",187,l,0.4489694241201505,colour,0.06
005,75,1,1,13,12,612,1169.3654717917088,1170.4543635337614,"[90, 0, 164]",164,l,0.5708079270552844,colour,0.06
005,75,1,1,13,13,613,1170.9723532197531,1172.302445860114,"[99, 0, 155]",155,l,0.8116874473635107,colour,0.06
005,75,1,1,13,14,614,1172.8165628621355,1173.782421173877,"[52, 0, 202]",202,a,0.448133290046826,colour,0.06
005,75,1,1,13,15,615,1174.2920766928,1175.462357811979,"[78, 0, 176]",176,l,0.6470103573519737,colour,0.06
005,75,1,1,13,16,616,1175.9818803450326,1177.1343533409527,"[13, 0, 241]",241,a,0.6290624189423397,colour,0.06
005,75,1,1,13,17,617,1177.655452044215,1178.7103588485625,"[36, 0, 218]",218,a,0.5346891337540001,colour,0.06
005,75,1,1,13,18,618,1179.2305820329348,1180.3103542799363,"[56, 0, 198]",198,a,0.5563943592133,colour,0.06
005,75,1,1,13,19,619,1180.8269060355378,1182.278342902544,"[71, 0, 183]",183,l,0.9288663626648486,colour,0.06
005,75,1,1,13,20,620,1182.7982911827276,1183.822376811062,"[70, 0, 184]",184,l,0.48037900554481894,colour,0.06
005,75,1,1,13,21,621,1184.3450792536605,1185.3183698258363,"[59, 0, 195]",195,a,0.4502092502079904,colour,0.06
005,75,1,1,13,22,622,1185.8271076845704,1186.9023388916394,"[53, 0, 201]",201,a,0.551843079389073,colour,0.06
005,75,1,1,13,23,623,1187.4223746055504,1188.3343611391028,"[57, 0, 197]",197,a,0.3935498328646645,colour,0.06
005,75,1,1,13,24,624,1188.8551656396594,1190.0463674438652,"[60, 0, 194]",194,a,0.6678849624004215,colour,0.06
005,75,1,1,13,25,625,1190.561618721229,1191.9023550392594,"[61, 0, 193]",193,a,0.8174242024542764,colour,0.06
005,75,1,1,13,26,626,1192.4211682564346,1193.4268601131625,"[77, 0, 177]",177,l,0.48526662949007004,colour,0.06
005,75,1,1,13,27,627,1193.94001376885,1194.9587517615873,"[95, 0, 159]",159,l,0.495436511002481,colour,0.06
005,75,1,1,13,28,628,1195.4713382795453,1196.4623566303635,"[76, 0, 178]",178,l,0.46768811834044755,colour,0.06
005,75,1,1,13,29,629,1196.9804621069925,1197.8783300631912,"[83, 0, 171]",171,l,0.3744061792967841,colour,0.06
005,75,1,1,13,30,630,1198.3968530161073,1199.5823145204922,"[91, 0, 163]",163,l,0.6620469889603555,colour,0.06
005,75,1,1,13,31,631,1200.1000840467168,1201.3023521248251,"[97, 0, 157]",157,l,0.6789354826323688,colour,0.06
005,75,1,1,13,32,632,1201.818974772701,1203.1983410435496,"[66, 0, 188]",188,a,0.8559777492191643,colour,0.06
005,75,1,1,13,33,633,1203.708998505841,1204.7343523170566,"[68, 0, 186]",186,l,0.5083448007935658,colour,0.06
005,75,1,1,13,34,634,1205.2553694942035,1206.1823674532352,"[82, 0, 172]",172,l,0.3966462470125407,colour,0.06
005,75,1,1,13,35,635,1206.7058894885704,1207.694294279907,"[80, 0, 174]",174,l,0.4563300048466772,colour,0.06
005,75,1,1,13,36,636,1208.2108901463216,1209.2303114610258,"[58, 0, 196]",196,a,0.5020208217902109,colour,0.06
005,75,1,1,13,37,637,1209.7427227178123,1210.9183585618157,"[84, 0, 170]",170,l,0.654323676484637,colour,0.06
005,75,1,1,13,38,638,1211.4375699568773,1213.0463438130682,"[72, 0, 182]",182,a,1.0764899376081303,colour,0.06
005,75,1,1,13,39,639,1213.5601886678487,1214.6382744678995,"[69, 0, 185]",185,a,0.5185599743854254,colour,0.06
005,75,1,1,13,40,640,1215.1468295822851,1216.0863041764824,"[79, 0, 175]",175,l,0.412856932496652,colour,0.06
005,75,1,1,13,41,641,1216.6034144052537,1217.5503003861522,"[17, 0, 237]",237,a,0.4235750469379127,colour,0.06
005,75,1,1,13,42,642,1218.0584624425974,1219.6302774327341,"[65, 0, 189]",189,a,1.0485265053575858,colour,0.06
005,75,1,1,13,43,643,1220.1366998731392,1221.0383696210338,"[55, 0, 199]",199,a,0.37828713399358094,colour,0.06
005,75,1,1,13,44,644,1221.5587015068159,1222.6143377132248,"[81, 0, 173]",173,l,0.532415856840089,colour,0.06
005,75,1,1,13,45,645,1223.136843626853,1224.7982868504478,"[87, 0, 167]",167,l,1.1013163896277547,colour,0.06
005,75,1,1,13,46,646,1225.3100801634137,1226.1743203997612,"[88, 0, 166]",166,l,0.3410064961062744,colour,0.06
005,75,1,1,13,47,647,1226.685222046217,1227.6463290045504,"[75, 0, 179]",179,l,0.43773182737641037,colour,0.06
005,75,1,1,13,48,648,1228.1475353536662,1229.142305083922,"[64, 0, 190]",190,a,0.4712937750155106,colour,0.06
005,75,1,1,13,49,649,1229.6551101861987,1230.5503716721432,"[93, 0, 161]",161,l,0.3719391303602606,colour,0.06
005,75,1,1,13,50,650,1231.061312703183,1232.0382983349264,"[51, 0, 203]",203,a,0.4536234977422282,colour,0.06
005,75,1,1,14,1,651,1240.7377882261062,1242.22225062293,"[88, 0, 166]",166,l,0.9602948485407978,colour,0.06
005,75,1,1,14,2,652,1242.738698403351,1244.5822487481637,"[69, 0, 185]",185,l,1.3180846815230325,colour,0.06
005,75,1,1,14,3,653,1245.0886333794333,1246.030374161317,"[53, 0, 201]",201,a,0.41909781005233526,colour,0.06
005,75,1,1,14,4,654,1246.5418740592431,1247.5902930448065,"[78, 0, 176]",176,l,0.5251167161623016,colour,0.06
005,75,1,1,14,5,655,1248.1085702381097,1249.0142753280234,"[99, 0, 155]",155,l,0.3824008512310684,colour,0.06
005,75,1,1,14,6,656,1249.530580930179,1251.0462662255159,"[71, 0, 183]",183,a,0.9954814093653113,colour,0.06
005,75,1,1,14,7,657,1251.5589086696273,1252.4622817997588,"[59, 0, 195]",195,a,0.380164202186279,colour,0.06
005,75,1,1,14,8,658,1252.9808646171587,1254.358249844634,"[92, 0, 162]",162,l,0.8513126480393112,colour,0.06
005,75,1,1,14,9,659,1254.8655076315627,1255.7983187519712,"[86, 0, 168]",168,l,0.41856848157476634,colour,0.06
005,75,1,1,14,10,660,1256.3099639789434,1257.1582507111598,"[97, 0, 157]",157,l,0.32525779167190194,colour,0.06
005,75,1,1,14,11,661,1257.669450104935,1258.566271219519,"[65, 0, 189]",189,a,0.3770449449075386,colour,0.06
005,75,1,1,14,12,662,1259.0775474131806,1260.0862364349887,"[64, 0, 190]",190,a,0.48532098019495606,colour,0.06
005,75,1,1,14,13,663,1260.5933280191384,1261.5582454336109,"[27, 0, 227]",227,a,0.44148123753257096,colour,0.06
005,75,1,1,14,14,664,1262.0737964275759,1262.918244346627,"[93, 0, 161]",161,l,0.32096172380261123,colour,0.06
005,75,1,1,14,15,665,1263.4350564342458,1264.3582065217197,"[58, 0, 196]",196,a,0.4051048692781478,colour,0.06
005,75,1,1,14,16,666,1264.8741722350242,1265.718238123809,"[50, 0, 204]",204,a,0.31868962838780135,colour,0.06
005,75,1,1,14,17,667,1266.235917853308,1267.182259539608,"[56, 0, 198]",198,a,0.422983490745537,colour,0.06
005,75,1,1,14,18,668,1267.6892321823398,1268.7022279058583,"[66, 0, 188]",188,a,0.48989982926286757,colour,0.06
005,75,1,1,14,19,669,1269.2093561176443,1270.0861982320203,"[91, 0, 163]",163,l,0.353748976951465,colour,0.06
005,75,1,1,14,20,670,1270.6000230006175,1271.582254655892,"[83, 0, 171]",171,l,0.4588324998039752,colour,0.06
005,75,1,1,14,21,671,1272.1001332773594,1273.0302473430056,"[55, 0, 199]",199,a,0.40675587009172887,colour,0.06
005,75,1,1,14,22,672,1273.540565704112,1274.446231409558,"[95, 0, 159]",159,l,0.38431651634164155,colour,0.06
005,75,1,1,14,23,673,1274.9679835026618,1276.0142461834475,"[23, 0, 231]",231,a,0.5230092481942847,colour,0.06
005,75,1,1,14,24,674,1276.530566751724,1277.5182771933032,"[32, 0, 222]",222,a,0.4722709058551118,colour,0.06
005,75,1,1,14,25,675,1278.038406642503,1279.1262251553126,"[82, 0, 172]",172,l,0.5683007058687508,colour,0.06
005,75,1,1,14,26,676,1279.6440009830985,1280.5662527087843,"[89, 0, 165]",165,l,0.39885178254917264,colour,0.06
005,75,1,1,14,27,677,1281.0816556167556,1282.0622260312084,"[52, 0, 202]",202,a,0.4572618434904143,colour,0.06
005,75,1,1,14,28,678,1282.5817560473224,1283.534242119058,"[54, 0, 200]",200,a,0.42791089322417974,colour,0.06
005,75,1,1,14,29,679,1284.0474564268952,1286.5022362554446,"[75, 0, 179]",179,l,1.9276344135869294,colour,0.06
005,75,1,1,14,30,680,1287.0161835100735,1288.0142257035477,"[84, 0, 170]",170,l,0.4661300651496276,colour,0.06
005,75,1,1,14,31,681,1288.5304722287692,1289.6062209489755,"[79, 0, 175]",175,l,0.5570182106457651,colour,0.06
005,75,1,1,14,32,682,1290.1259392233333,1291.0142087681452,"[96, 0, 158]",158,l,0.3700277976458892,colour,0.06
005,75,1,1,14,33,683,1291.5347616013605,1292.7261961682234,"[90, 0, 164]",164,l,0.6731014475226402,colour,0.06
005,75,1,1,14,34,684,1293.2348828270333,1294.2141893910011,"[60, 0, 194]",194,a,0.4569967854768038,colour,0.06
005,75,1,1,14,35,685,1294.733077044948,1295.6462325123139,"[73, 0, 181]",181,l,0.3915660325437784,colour,0.06
005,75,1,1,14,36,686,1296.1601927638985,1296.9822044799803,"[98, 0, 156]",156,l,0.2905773224774748,colour,0.06
005,75,1,1,14,37,687,1297.503477262915,1298.5102069028653,"[81, 0, 173]",173,l,0.4750301882158965,colour,0.06
005,75,1,1,14,38,688,1299.0342858359218,1299.8062303225743,"[85, 0, 169]",169,l,0.253429016796872,colour,0.06
005,75,1,1,14,39,689,1300.318693566951,1301.1262160968035,"[80, 0, 174]",174,l,0.288936561672017,colour,0.06
005,75,1,1,14,40,690,1301.6461907647317,1302.7021837951615,"[63, 0, 191]",191,a,0.5381829381221905,colour,0.06
005,75,1,1,14,41,691,1303.2189411382424,1304.1421979578445,"[68, 0, 186]",186,a,0.4002826235955581,colour,0.06
005,75,1,1,14,42,692,1304.6548285866156,1305.9742054756498,"[77, 0, 177]",177,l,0.7872961948160082,colour,0.06
005,75,1,1,14,43,693,1306.4964451495325,1308.2782412903616,"[72, 0, 182]",182,a,1.2637832178734243,colour,0.06
005,75,1,1,14,44,694,1308.7944102280308,1309.8141883669887,"[61, 0, 193]",193,a,0.5009999740868807,colour,0.06
005,75,1,1,14,45,695,1310.3370152646676,1310.942193704308,"[57, 0, 197]",197,a,0.08677718497347087,colour,0.06
005,75,1,1,14,46,696,1311.4510690151947,1312.5902028541313,"[76, 0, 178]",178,l,0.6208125349367037,colour,0.06
005,75,1,1,14,47,697,1313.1022628006758,1313.9982733809156,"[51, 0, 203]",203,a,0.372588581754826,colour,0.06
005,75,1,1,14,48,698,1314.5197596282233,1315.5421792896232,"[94, 0, 160]",160,l,0.5062034622533247,colour,0.06
005,75,1,1,14,49,699,1316.0603379353415,1317.5421725942288,"[70, 0, 184]",184,l,0.9585611402289942,colour,0.06
005,75,1,1,14,50,700,1318.0604848397197,1318.95818619919,"[87, 0, 167]",167,l,0.37427817936986685,colour,0.06
005,75,1,1,15,1,701,1325.6653545044828,1326.7421839369927,"[80, 0, 174]",174,l,0.5525496383197606,colour,0.06
005,75,1,1,15,2,702,1327.2601291184546,1329.1981827176642,"[69, 0, 185]",185,l,1.4149076865287498,colour,0.06
005,75,1,1,15,3,703,1329.7161802805495,1330.478125027148,"[90, 0, 164]",164,l,0.2384396466659382,colour,0.06
005,75,1,1,15,4,704,1330.9982891347026,1331.718181410106,"[97, 0, 157]",157,l,0.1972000728128478,colour,0.06
005,75,1,1,15,5,705,1332.2320825847564,1333.1021407084772,"[40, 0, 214]",214,a,0.34676688199397177,colour,0.06
005,75,1,1,15,6,706,1333.6227923969273,1334.606133121415,"[67, 0, 187]",187,a,0.46010383346583694,colour,0.06
005,75,1,1,15,7,707,1335.1289592315443,1336.1021639453247,"[74, 0, 180]",180,l,0.45534696616232395,colour,0.06
005,75,1,1,15,8,708,1336.6234812329058,1337.350137412781,"[91, 0, 163]",163,l,0.20320306753274053,colour,0.06
005,75,1,1,15,9,709,1337.8580159003614,1338.8541672411375,"[59, 0, 195]",195,a,0.472874277504161,colour,0.06
005,75,1,1,15,10,710,1339.3693192694336,1340.3982417157385,"[98, 0, 156]",156,l,0.505557949305512,colour,0.06
005,75,1,1,15,11,711,1340.9057531391736,1341.9421330521582,"[66, 0, 188]",188,a,0.5129665790591389,colour,0.06
005,75,1,1,15,12,712,1342.4526857514866,1343.3581210571574,"[76, 0, 178]",178,l,0.3820097626885399,colour,0.06
005,75,1,1,15,13,713,1343.8708276981488,1344.4061824309174,"[16, 0, 238]",238,a,0.012671588687226176,colour,0.06
005,75,1,1,15,14,714,1344.9687688307604,1346.0301303708693,"[58, 0, 196]",196,a,0.5446388553828001,colour,0.06
005,75,1,1,15,15,715,1346.5441272499738,1347.5182169349864,"[60, 0, 194]",194,a,0.4483392712427303,colour,0.06
005,75,1,1,15,16,716,1348.035489034257,1348.8861455355072,"[99, 0, 155]",155,l,0.33310555934440345,colour,0.06
005,75,1,1,15,17,717,1349.3960720202886,1350.3341429487336,"[83, 0, 171]",171,l,0.41921990213450044,colour,0.06
005,75,1,1,15,18,718,1350.8507612642134,1352.1501619099872,"[68, 0, 186]",186,a,0.7815566826611757,colour,0.06
005,75,1,1,15,19,719,1352.6623006255832,1353.6061461183708,"[96, 0, 158]",158,l,0.42607202811632305,colour,0.06
005,75,1,1,15,20,720,1354.1205002154456,1355.0301721184514,"[78, 0, 176]",176,l,0.39206345949787647,colour,0.06
005,75,1,1,15,21,721,1355.5455108296592,1356.8381227585487,"[92, 0, 162]",162,l,0.7692048965254799,colour,0.06
005,75,1,1,15,22,722,1357.348864503787,1358.3741549057886,"[88, 0, 166]",166,l,0.5019593818578869,colour,0.06
005,75,1,1,15,23,723,1358.8905491232872,1359.8781126603717,"[55, 0, 199]",199,a,0.46135862555820495,colour,0.06
005,75,1,1,15,24,724,1360.3937018573051,1361.486090554623,"[20, 0, 234]",234,a,0.5691545631270856,colour,0.06
005,75,1,1,15,25,725,1362.0058100104798,1363.1981157638365,"[63, 0, 191]",191,a,0.6690058469539508,colour,0.06
005,75,1,1,15,26,726,1363.7090311950305,1364.678202535957,"[64, 0, 190]",190,a,0.44322715513408184,colour,0.06
005,75,1,1,15,27,727,1365.1950390419224,1366.0221112803556,"[79, 0, 175]",175,l,0.30946773337200284,colour,0.06
005,75,1,1,15,28,728,1366.5391935460502,1367.550168841728,"[56, 0, 198]",198,a,0.4877242262009531,colour,0.06
005,75,1,1,15,29,729,1368.0610555220628,1369.054077759385,"[86, 0, 168]",168,l,0.4759714793181047,colour,0.06
005,75,1,1,15,30,730,1369.5767971372698,1370.5661215581931,"[89, 0, 165]",165,l,0.4707774433773011,colour,0.06
005,75,1,1,15,31,731,1371.0786966546439,1372.982118227752,"[75, 0, 179]",179,l,1.3849651800701395,colour,0.06
005,75,1,1,15,32,732,1373.505318885087,1374.3661176984897,"[82, 0, 172]",172,l,0.3438417906872928,colour,0.06
005,75,1,1,15,33,733,1374.8874341982882,1375.9101815392496,"[57, 0, 197]",197,a,0.4958008180838078,colour,0.06
005,75,1,1,15,34,734,1376.4269459715579,1379.6621100043412,"[72, 0, 182]",182,a,2.717862395104021,colour,0.06
005,75,1,1,15,35,735,1380.1736910344334,1381.1261203923495,"[93, 0, 161]",161,l,0.4316165865166113,colour,0.06
005,75,1,1,15,36,736,1381.6480052113766,1382.7741236344445,"[52, 0, 202]",202,a,0.6080704479245469,colour,0.06
005,75,1,1,15,37,737,1383.2894729794934,1384.4140766724013,"[87, 0, 167]",167,l,0.601860684226267,colour,0.06
005,75,1,1,15,38,738,1384.9296639000531,1386.086072201375,"[85, 0, 169]",169,l,0.6369306666310877,colour,0.06
005,75,1,1,15,39,739,1386.601672819932,1387.7341203419492,"[61, 0, 193]",193,a,0.6154676561709493,colour,0.06
005,75,1,1,15,40,740,1388.256906279712,1389.8621457654517,"[73, 0, 181]",181,a,1.0737578306579962,colour,0.06
005,75,1,1,15,41,741,1390.381296508247,1391.3021213313332,"[50, 0, 204]",204,a,0.4023199869552627,colour,0.06
005,75,1,1,15,42,742,1391.8173005349236,1392.8381125185406,"[94, 0, 160]",160,l,0.5029987404122949,colour,0.06
005,75,1,1,15,43,743,1393.3485332796117,1396.5980967017822,"[95, 0, 159]",159,l,2.7239677897887304,colour,0.06
005,75,1,1,15,44,744,1397.1056731097633,1397.7500576984603,"[51, 0, 203]",203,a,0.12101969786453992,colour,0.06
005,75,1,1,15,45,745,1398.2620065804804,1399.7660943040391,"[70, 0, 184]",184,a,0.9807886049384251,colour,0.06
005,75,1,1,15,46,746,1400.2792928580893,1401.3500759728486,"[54, 0, 200]",200,a,0.547688401886262,colour,0.06
005,75,1,1,15,47,747,1401.85754722415,1402.9980965441791,"[77, 0, 177]",177,l,0.6172446876298636,colour,0.06
005,75,1,1,15,48,748,1403.5139232301153,1405.3746897481615,"[71, 0, 183]",183,l,1.3373894180404022,colour,0.06
005,75,1,1,15,49,749,1405.8987718318822,1407.4140821861802,"[53, 0, 201]",201,a,0.991015987819992,colour,0.06
005,75,1,1,15,50,750,1407.933796128258,1408.8941055490868,"[62, 0, 192]",192,a,0.42958906933199614,colour,0.06
005,75,1,1,16,1,751,1413.7629876498831,1415.1820878229337,"[70, 0, 184]",184,l,0.8917349923867732,colour,0.06
005,75,1,1,16,2,752,1415.7022483858746,1416.5820423731348,"[93, 0, 161]",161,l,0.3620760547928512,colour,0.06
005,75,1,1,16,3,753,1417.0951735796407,1417.8540731120156,"[96, 0, 158]",158,l,0.227503735688515,colour,0.06
005,75,1,1,16,4,754,1418.3678955174983,1420.6220555118052,"[67, 0, 187]",187,a,1.7369536672485992,colour,0.06
005,75,1,1,16,5,755,1421.1453329689102,1422.0540714578237,"[82, 0, 172]",172,l,0.3900493331020698,colour,0.06
005,75,1,1,16,6,756,1422.5693810244557,1423.486011785455,"[59, 0, 195]",195,a,0.39826967869885266,colour,0.06
005,75,1,1,16,7,757,1424.0095716299256,1424.942018836853,"[16, 0, 238]",238,a,0.4102339205564931,colour,0.06
005,75,1,1,16,8,758,1425.483560096589,1426.4540307341376,"[85, 0, 169]",169,l,0.44928962062112987,colour,0.06
005,75,1,1,16,9,759,1426.9656826566206,1428.1020225548418,"[77, 0, 177]",177,l,0.612855278304778,colour,0.06
005,75,1,1,16,10,760,1428.6220728410408,1429.7739983915817,"[88, 0, 166]",166,l,0.6285693242680281,colour,0.06
005,75,1,1,16,11,761,1430.2809485851321,1431.518010953674,"[79, 0, 175]",175,l,0.7139558404451236,colour,0.06
005,75,1,1,16,12,762,1432.0310015573632,1433.0780377509072,"[54, 0, 200]",200,a,0.5239099732134491,colour,0.06
005,75,1,1,16,13,763,1433.5951353765558,1434.7740169023164,"[55, 0, 199]",199,a,0.6555150594795123,colour,0.06
005,75,1,1,16,14,764,1435.2945484678494,1436.4060347388731,"[62, 0, 192]",192,a,0.5826378676574677,colour,0.06
005,75,1,1,16,15,765,1436.9155094827292,1438.0460385828046,"[91, 0, 163]",163,l,0.613393665291369,colour,0.06
005,75,1,1,16,16,766,1438.5706173058134,1439.9420456184307,"[87, 0, 167]",167,l,0.8404050938552245,colour,0.06
005,75,1,1,16,17,767,1440.4660319976974,1441.6940418248996,"[73, 0, 181]",181,a,0.7107763248495758,colour,0.06
005,75,1,1,16,18,768,1442.2032920767087,1443.2780167983146,"[50, 0, 204]",204,a,0.5564199590589851,colour,0.06
005,75,1,1,16,19,769,1443.7975487837102,1444.789992461796,"[64, 0, 190]",190,a,0.46466377784963697,colour,0.06
005,75,1,1,16,20,770,1445.3064485130599,1446.0939908612054,"[95, 0, 159]",159,l,0.22805630101356655,colour,0.06
005,75,1,1,16,21,771,1446.6149312385824,1448.5340239285724,"[83, 0, 171]",171,l,1.3867118854541332,colour,0.06
005,75,1,1,16,22,772,1449.0514870429179,1450.0140244484646,"[84, 0, 170]",170,l,0.4439073265530169,colour,0.06
005,75,1,1,16,23,773,1450.5378249324858,1451.9820000741165,"[69, 0, 185]",185,a,0.9189623270649463,colour,0.06
005,75,1,1,16,24,774,1452.4975108958315,1453.4619375786278,"[76, 0, 178]",178,l,0.4470443067839369,colour,0.06
005,75,1,1,16,25,775,1453.9818519881228,1455.0860213952838,"[71, 0, 183]",183,a,0.5845523511525244,colour,0.06
005,75,1,1,16,26,776,1455.6001210681861,1456.6059736140305,"[57, 0, 197]",197,a,0.48111864761449397,colour,0.06
005,75,1,1,16,27,777,1457.1217569768196,1458.189995848923,"[94, 0, 160]",160,l,0.5510569635080174,colour,0.06
005,75,1,1,16,28,778,1458.7136041363701,1459.6700231502764,"[92, 0, 162]",162,l,0.43882277968805283,colour,0.06
005,75,1,1,16,29,779,1460.1838152298005,1462.2780427922262,"[90, 0, 164]",164,l,1.5740646363701671,colour,0.06
005,75,1,1,16,30,780,1462.7886994667351,1463.6859360883245,"[97, 0, 157]",157,l,0.3700691513950005,colour,0.06
005,75,1,1,16,31,781,1464.2042156447424,1465.693968175794,"[80, 0, 174]",174,l,0.957905781106092,colour,0.06
005,75,1,1,16,32,782,1466.207757892087,1467.181939343107,"[68, 0, 186]",186,a,0.4417380249360576,colour,0.06
005,75,1,1,16,33,783,1467.698747492279,1468.7739901208552,"[66, 0, 188]",188,a,0.5581824182299897,colour,0.06
005,75,1,1,16,34,784,1469.2917687055888,1470.3739327768562,"[99, 0, 155]",155,l,0.5492117967223749,colour,0.06
005,75,1,1,16,35,785,1470.8853401212255,1471.9340084110154,"[60, 0, 194]",194,a,0.5297073805704713,colour,0.06
005,75,1,1,16,36,786,1472.4481974868104,1473.581973450142,"[74, 0, 180]",180,a,0.6162671628408134,colour,0.06
005,75,1,1,16,37,787,1474.1031178394333,1475.1099790238077,"[31, 0, 223]",223,a,0.4800406921422109,colour,0.06
005,75,1,1,16,38,788,1475.6306551307207,1476.6220062811626,"[65, 0, 189]",189,a,0.4648953592404723,colour,0.06
005,75,1,1,16,39,789,1477.138723058044,1479.5579551693518,"[72, 0, 182]",182,a,1.9010179332690313,colour,0.06
005,75,1,1,16,40,790,1480.072364011081,1481.1339973045979,"[56, 0, 198]",198,a,0.5436664505396038,colour,0.06
005,75,1,1,16,41,791,1481.6551602046238,1482.6699266581563,"[52, 0, 202]",202,a,0.4973305144812912,colour,0.06
005,75,1,1,16,42,792,1483.1864626599709,1484.301950402325,"[61, 0, 193]",193,a,0.5977481483714655,colour,0.06
005,75,1,1,16,43,793,1484.8196230425965,1486.0152879051166,"[51, 0, 203]",203,a,0.670404392760247,colour,0.06
005,75,1,1,16,44,794,1486.5281737458427,1487.6299785039155,"[40, 0, 214]",214,a,0.5784631040878594,colour,0.06
005,75,1,1,16,45,795,1488.1376124134986,1489.3019736391725,"[63, 0, 191]",191,a,0.6412940821610391,colour,0.06
005,75,1,1,16,46,796,1489.8096981331473,1490.7099378275452,"[89, 0, 165]",165,l,0.3882104678777978,colour,0.06
005,75,1,1,16,47,797,1491.2275372125441,1492.1979920963058,"[86, 0, 168]",168,l,0.4471104728290811,colour,0.06
005,75,1,1,16,48,798,1492.7119968524203,1493.7818993283436,"[78, 0, 176]",176,l,0.5576239451766014,colour,0.06
005,75,1,1,16,49,799,1494.2948580305092,1495.3339668996632,"[58, 0, 196]",196,a,0.5157617012737319,colour,0.06
005,75,1,1,16,50,800,1495.8549442985095,1496.5100316415774,"[81, 0, 173]",173,l,0.12668713612947613,colour,0.06
