id,age,condition,counterbalance,block,trialinblock,trial,tstart,tend,trialstim,trialintensity,response,RT,trialtype,colourfreq
103,22,0,2,Practice,1,NA,5.907611921429634e-06,0.7015978703275323,"[37, 0, 217]",217,a,0.17736318102106452,colour,0.5
103,22,0,2,Practice,2,NA,1.2195270939264446,5.085578285274096,"[7, 0, 247]",247,a,3.3428389247274026,colour,0.5
103,22,0,2,Practice,3,NA,5.586719058570452,6.757560552679934,"[66, 0, 188]",188,a,0.647641830611974,colour,0.5
103,22,0,2,Practice,4,NA,7.268287918297574,8.157592926872894,"[57, 0, 197]",197,a,0.366132520372048,colour,0.5
103,22,0,2,Practice,5,NA,8.674576527439058,9.653582201572135,"[63, 0, 191]",191,a,0.45584539510309696,colour,0.5
103,22,0,2,Practice,6,NA,10.17483784398064,11.101590466103517,"[52, 0, 202]",202,a,0.4042591236066073,colour,0.5
103,22,0,2,Practice,7,NA,11.612389905378222,17.141527970670722,"[0, 0, 254]",254,a,5.005978180211969,colour,0.5
103,22,0,2,Practice,8,NA,17.660543026169762,20.765563886263408,"[49, 0, 205]",205,a,2.581931079388596,colour,0.5
103,22,0,2,Practice,9,NA,21.28725000168197,22.293697251705453,"[92, 0, 162]",162,l,0.4831715744221583,colour,0.5
103,22,0,2,Practice,10,NA,22.803033949108794,23.541524898726493,"[20, 0, 234]",234,a,0.2153810829622671,colour,0.5
103,22,0,2,1,1,1,4.571075123269111,5.120013375068083,"[78, 0, 176]",176,l,0.0251143432687968,colour,0.5
103,22,0,2,1,2,2,5.6220517221372575,12.247979671345092,"[44, 0, 210]",210,l,6.103034697473049,colour,0.5
103,22,0,2,1,3,3,12.767458676826209,13.343993679620326,"[7, 0, 247]",247,a,0.05505132395774126,colour,0.5
103,22,0,2,1,4,4,13.859457824495621,14.520290327141993,"[96, 0, 158]",158,l,0.13753595319576561,colour,0.5
103,22,0,2,1,5,5,15.031442258157767,15.583947174367495,"[99, 0, 155]",155,l,0.029346212628297508,colour,0.5
103,22,0,2,1,6,6,16.093934110482223,17.367952480213717,"[48, 0, 206]",206,a,0.7508202815661207,colour,0.5
103,22,0,2,1,7,7,17.87763418618124,18.463996420730837,"[41, 0, 213]",213,a,0.06314090953674167,colour,0.5
103,22,0,2,1,8,8,18.971349318511784,20.023925717687234,"[61, 0, 193]",193,a,0.5294590493431315,colour,0.5
103,22,0,2,1,9,9,20.535849979612976,21.35193084704224,"[43, 0, 211]",211,a,0.29379059316124767,colour,0.5
103,22,0,2,1,10,10,21.863111134967767,22.71993492101319,"[47, 0, 207]",207,a,0.33372691622935236,colour,0.5
103,22,0,2,1,11,11,23.23815637791995,24.04792626586277,"[5, 0, 249]",249,a,0.28709797735791653,colour,0.5
103,22,0,2,1,12,12,24.56629147636704,25.35994481446687,"[23, 0, 231]",231,a,0.27049384685233235,colour,0.5
103,22,0,2,1,13,13,25.880151252495125,26.99993462173734,"[65, 0, 189]",189,l,0.5965770104667172,colour,0.5
103,22,0,2,1,14,14,27.52142893441487,28.439960032585077,"[53, 0, 201]",201,a,0.395528357475996,colour,0.5
103,22,0,2,1,15,15,28.958842756110243,29.82394005358219,"[75, 0, 179]",179,l,0.34179602190852165,colour,0.5
103,22,0,2,1,16,16,30.33390178368427,31.20791574229952,"[19, 0, 235]",235,a,0.35085525503382087,colour,0.5
103,22,0,2,1,17,17,31.724489349871874,32.767985248123296,"[59, 0, 195]",195,a,0.5204596805851907,colour,0.5
103,22,0,2,1,18,18,33.289468139293604,34.19190631841775,"[39, 0, 215]",215,a,0.3795791919110343,colour,0.5
103,22,0,2,1,19,19,34.71128253021743,35.57588594558183,"[94, 0, 160]",160,l,0.34147228102665395,colour,0.5
103,22,0,2,1,20,20,36.08619662269484,36.943937280913815,"[52, 0, 202]",202,a,0.33452090865466744,colour,0.5
103,22,0,2,1,21,21,37.46126077021472,38.63197938457597,"[71, 0, 183]",183,l,0.64753706776537,colour,0.5
103,22,0,2,1,22,22,39.149997617234476,40.19194570288528,"[25, 0, 229]",229,a,0.5185522870160639,colour,0.5
103,22,0,2,1,23,23,40.712473912746646,41.591914274031296,"[98, 0, 156]",156,l,0.3562599963042885,colour,0.5
103,22,0,2,1,24,24,42.10318869096227,42.87195375317242,"[14, 0, 240]",240,a,0.24562368774786592,colour,0.5
103,22,0,2,1,25,25,43.38441718951799,44.27991384244524,"[68, 0, 186]",186,l,0.37123675749171525,colour,0.5
103,22,0,2,1,26,26,44.792092528543435,45.831894156406634,"[55, 0, 199]",199,a,0.5165736075723544,colour,0.5
103,22,0,2,1,27,27,46.32638406159822,47.15989889204502,"[45, 0, 209]",209,a,0.31394760357216,colour,0.5
103,22,0,2,1,28,28,47.6762578538619,48.49590184120461,"[21, 0, 233]",233,a,0.29639981931541115,colour,0.5
103,22,0,2,1,29,29,49.00435278005898,49.8399041852681,"[20, 0, 234]",234,a,0.31740674818865955,colour,0.5
103,22,0,2,1,30,30,50.35864748747554,51.15186917083338,"[76, 0, 178]",178,l,0.270703372429125,colour,0.5
103,22,0,2,1,31,31,51.67107524140738,52.455979302641936,"[62, 0, 192]",192,l,0.26172802841756493,colour,0.5
103,22,0,2,1,32,32,52.96923791302834,53.703884537215345,"[26, 0, 228]",228,a,0.2114260868402198,colour,0.5
103,22,0,2,1,33,33,54.21922225761227,54.991940346662886,"[72, 0, 182]",182,l,0.24948770552873611,colour,0.5
103,22,0,2,1,34,34,55.5005299190525,56.295889001805335,"[0, 0, 254]",254,a,0.2722129821777344,colour,0.5
103,22,0,2,1,35,35,56.814614974777214,57.519903964712285,"[60, 0, 194]",194,l,0.18210271722637117,colour,0.5
103,22,0,2,1,36,36,58.03334650094621,58.80788494355511,"[32, 0, 222]",222,a,0.25055975280702114,colour,0.5
103,22,0,2,1,37,37,59.315421373350546,60.99188954057172,"[79, 0, 175]",175,l,1.1543330680578947,colour,0.5
103,22,0,2,1,38,38,61.50188947364222,62.27989021164831,"[63, 0, 191]",191,l,0.2523730172542855,colour,0.5
103,22,0,2,1,39,39,62.80130024137907,63.59991366916802,"[74, 0, 180]",180,l,0.27631685184314847,colour,0.5
103,22,0,2,1,40,40,64.1138213367667,64.95188193151262,"[22, 0, 232]",232,a,0.314880229649134,colour,0.5
103,22,0,2,1,41,41,65.4575452322606,66.3038734307047,"[17, 0, 237]",237,a,0.3231049042660743,colour,0.5
103,22,0,2,1,42,42,66.8111979715759,67.6398921336513,"[34, 0, 220]",220,a,0.30576388887129724,colour,0.5
103,22,0,2,1,43,43,68.14722297608387,68.95190241141245,"[85, 0, 169]",169,l,0.2815837471280247,colour,0.5
103,22,0,2,1,44,44,69.45964009617455,70.32786610198673,"[54, 0, 200]",200,l,0.34502594848163426,colour,0.5
103,22,0,2,1,45,45,70.83458648400847,71.64785056875553,"[37, 0, 217]",217,l,0.2901164088398218,colour,0.5
103,22,0,2,1,46,46,72.16448601009324,72.93585596606135,"[10, 0, 244]",244,a,0.24813208950217813,colour,0.5
103,22,0,2,1,47,47,73.44578067457769,74.23188675218262,"[4, 0, 250]",250,a,0.26289538643322885,colour,0.5
103,22,0,2,1,48,48,74.74269446218386,75.487856760039,"[70, 0, 184]",184,l,0.22197366203181446,colour,0.5
103,22,0,2,1,49,49,76.00268248142675,76.79188221506774,"[89, 0, 165]",165,l,0.278756330604665,colour,0.5
103,22,0,2,1,50,50,77.30682451475877,78.08785195508972,"[38, 0, 216]",216,a,0.25781989993993193,colour,0.5
103,22,0,2,2,1,51,82.62017150397878,83.39181951479986,"[74, 0, 180]",180,l,0.24773076095152646,colour,0.5
103,22,0,2,2,2,52,83.90225858555641,84.60784138424788,"[29, 0, 225]",225,a,0.18248592887539417,colour,0.5
103,22,0,2,2,3,53,85.12098735489417,85.91182903014123,"[48, 0, 206]",206,l,0.2673667138442397,colour,0.5
103,22,0,2,2,4,54,86.41780465038028,87.1758015837986,"[54, 0, 200]",200,l,0.234377036918886,colour,0.5
103,22,0,2,2,5,55,87.68390042486135,88.51179074833635,"[40, 0, 214]",214,l,0.30477139831054956,colour,0.5
103,22,0,2,2,6,56,89.02998542378191,90.54380605160259,"[73, 0, 181]",181,l,0.9906831918051466,colour,0.5
103,22,0,2,2,7,57,91.06129298685119,92.11183359881397,"[75, 0, 179]",179,l,0.5274583144346252,colour,0.5
103,22,0,2,2,8,58,92.62373895617202,93.57581702258904,"[56, 0, 198]",198,l,0.4289552028058097,colour,0.5
103,22,0,2,2,9,59,94.09243119624443,95.10384720063303,"[10, 0, 244]",244,a,0.4862742889672518,colour,0.5
103,22,0,2,2,10,60,95.61117174150422,96.42379228281789,"[33, 0, 221]",221,a,0.2894964962033555,colour,0.5
103,22,0,2,2,11,61,96.94005869084504,97.75183876603842,"[87, 0, 167]",167,l,0.2900372459553182,colour,0.5
103,22,0,2,2,12,62,98.26627339888364,99.03977720951661,"[37, 0, 217]",217,a,0.2503561347257346,colour,0.5
103,22,0,2,2,13,63,99.54749520204496,100.4558473645011,"[41, 0, 213]",213,a,0.3850957852555439,colour,0.5
103,22,0,2,2,14,64,100.96939033118542,101.75979956425726,"[99, 0, 155]",155,l,0.2673005477990955,colour,0.5
103,22,0,2,2,15,65,102.26619069138542,103.0318223190261,"[88, 0, 166]",166,l,0.24020870658569038,colour,0.5
103,22,0,2,2,16,66,103.54809384711552,104.34384519990999,"[96, 0, 158]",158,l,0.272572563146241,colour,0.5
103,22,0,2,2,17,67,104.86065629625227,105.63178994494956,"[14, 0, 240]",240,a,0.24797415744978935,colour,0.5
103,22,0,2,2,18,68,106.14189661014825,106.94383448723238,"[7, 0, 247]",247,a,0.275706785148941,colour,0.5
103,22,0,2,2,19,69,107.45737115247175,108.19181415857747,"[91, 0, 163]",163,l,0.2112460994394496,colour,0.5
103,22,0,2,2,20,70,108.70734013721813,109.48781304317527,"[38, 0, 216]",216,a,0.2571818702854216,colour,0.5
103,22,0,2,2,21,71,110.00429764168803,110.79980165942106,"[69, 0, 185]",185,l,0.27231223112903535,colour,0.5
103,22,0,2,2,22,72,111.31684118614066,112.11979242775124,"[20, 0, 234]",234,a,0.2798358609434217,colour,0.5
103,22,0,2,2,23,73,112.63139137334656,113.37576204177458,"[27, 0, 227]",227,a,0.2211351649602875,colour,0.5
103,22,0,2,2,24,74,113.94196962902788,114.62413319537882,"[72, 0, 182]",182,l,0.1575169146526605,colour,0.5
103,22,0,2,2,25,75,115.14255669503473,115.9677657186985,"[65, 0, 189]",189,l,0.31139824190177023,colour,0.5
103,22,0,2,2,26,76,116.48353351850528,117.29574642970692,"[53, 0, 201]",201,l,0.2888891864567995,colour,0.5
103,22,0,2,2,27,77,117.81164537998848,118.52779465843923,"[17, 0, 237]",237,a,0.19318710372317582,colour,0.5
103,22,0,2,2,28,78,119.04614332749043,119.81573782814667,"[71, 0, 183]",183,l,0.2464452494168654,colour,0.5
103,22,0,2,2,29,79,120.32733677374199,121.34385937836487,"[28, 0, 226]",226,a,0.49335484264884144,colour,0.5
103,22,0,2,2,30,80,121.85901908064261,122.6397873708047,"[52, 0, 202]",202,a,0.25770844181533903,colour,0.5
103,22,0,2,2,31,81,123.15722074289806,123.97576432605274,"[44, 0, 210]",210,a,0.2953710949514061,colour,0.5
103,22,0,2,2,32,82,124.48526761995163,125.27977323962841,"[50, 0, 204]",204,a,0.2718144105747342,colour,0.5
103,22,0,2,2,33,83,125.79728026082739,126.58375419001095,"[78, 0, 176]",176,l,0.26330813637468964,colour,0.5
103,22,0,2,2,34,84,127.09411764249671,127.71174608625006,"[39, 0, 215]",215,a,0.09467020758893341,colour,0.5
103,22,0,2,2,35,85,128.21917539008427,128.89571838791016,"[5, 0, 249]",249,a,0.1534351003356278,colour,0.5
103,22,0,2,2,36,86,129.40666630701162,129.9997538466705,"[9, 0, 245]",245,a,0.07501653174404055,colour,0.5
103,22,0,2,2,37,87,130.51093767909333,131.34379321231972,"[34, 0, 220]",220,a,0.3181589931482449,colour,0.5
103,22,0,2,2,38,88,131.86115569225512,132.63975349999964,"[18, 0, 236]",236,a,0.2552532091503963,colour,0.5
103,22,0,2,2,39,89,133.15810019988567,133.95978562207893,"[85, 0, 169]",169,l,0.2828822556184605,colour,0.5
103,22,0,2,2,40,90,134.46624803519808,135.2637535756221,"[95, 0, 159]",159,l,0.2742905168561265,colour,0.5
103,22,0,2,2,41,91,135.77873407839797,136.83176497509703,"[92, 0, 162]",162,l,0.529830445535481,colour,0.5
103,22,0,2,2,42,92,137.34126157371793,138.0717027160572,"[16, 0, 238]",238,a,0.20178475009743124,colour,0.5
103,22,0,2,2,43,93,138.5811193640111,139.37574550020508,"[45, 0, 209]",209,a,0.27156746946275234,colour,0.5
103,22,0,2,2,44,94,139.88931209780276,140.69576777610928,"[98, 0, 156]",156,l,0.28347578062675893,colour,0.5
103,22,0,2,2,45,95,141.20176781481132,141.9917635100428,"[36, 0, 218]",218,a,0.26683108403813094,colour,0.5
103,22,0,2,2,46,96,142.4888342844788,143.5037385780597,"[30, 0, 224]",224,a,0.4919960757251829,colour,0.5
103,22,0,2,2,47,97,144.01490901981015,144.67977765062824,"[93, 0, 161]",161,l,0.1417115026852116,colour,0.5
103,22,0,2,2,48,98,145.1867599397665,145.99171191628557,"[97, 0, 157]",157,l,0.2818172974511981,colour,0.5
103,22,0,2,2,49,99,146.49919478304219,148.1117414389737,"[61, 0, 193]",193,a,1.0892528634285554,colour,0.5
103,22,0,2,2,50,100,148.6260701273568,149.41572002635803,"[13, 0, 241]",241,a,0.2663068757392466,colour,0.5
103,22,0,2,3,1,101,153.91405701392796,154.66374498978257,"[28, 0, 226]",226,a,0.22576599987223744,colour,0.5
103,22,0,2,3,2,102,155.180399729521,155.93571890785825,"[6, 0, 248]",248,a,0.23206280102021992,colour,0.5
103,22,0,2,3,3,103,156.4461382862646,157.1116768482607,"[89, 0, 165]",165,l,0.14269454090390354,colour,0.5
103,22,0,2,3,4,104,157.6179005911108,158.39971651008818,"[10, 0, 244]",244,a,0.25852330797351897,colour,0.5
103,22,0,2,3,5,105,158.91721565451007,159.92771990655456,"[70, 0, 184]",184,l,0.4873195547843352,colour,0.5
103,22,0,2,3,6,106,160.44847772829235,161.24780244089197,"[78, 0, 176]",176,l,0.27614434750285,colour,0.5
103,22,0,2,3,7,107,161.76093935291283,162.59971438336652,"[49, 0, 205]",205,a,0.315863661817275,colour,0.5
103,22,0,2,3,8,108,163.1202863099752,163.71169252332766,"[9, 0, 245]",245,a,0.06826208205893636,colour,0.5
103,22,0,2,3,9,109,164.22975722979754,165.39968185173348,"[87, 0, 167]",167,l,0.6467966383788735,colour,0.5
103,22,0,2,3,10,110,165.91719674982596,166.7037092759274,"[98, 0, 156]",156,l,0.263396751601249,colour,0.5
103,22,0,2,3,11,111,167.21710415685084,167.91167818731628,"[92, 0, 162]",162,l,0.17124045954551548,colour,0.5
103,22,0,2,3,12,112,168.42023349530064,169.12770084454678,"[35, 0, 219]",219,a,0.18430076877120882,colour,0.5
103,22,0,2,3,13,113,169.63893824000843,170.39970469474792,"[44, 0, 210]",210,a,0.23779758473392576,colour,0.5
103,22,0,2,3,14,114,170.90593198209535,171.83970962569583,"[50, 0, 204]",204,a,0.41112188063561916,colour,0.5
103,22,0,2,3,15,115,172.35903818218503,173.287648967118,"[63, 0, 191]",191,l,0.4047533995471895,colour,0.5
103,22,0,2,3,16,116,173.7960211369209,174.64779700583313,"[84, 0, 170]",170,l,0.32865221751853824,colour,0.5
103,22,0,2,3,17,117,175.15544134913944,175.98367156134918,"[57, 0, 197]",197,a,0.3054893786320463,colour,0.5
103,22,0,2,3,18,118,176.49913294927683,177.31164400151465,"[32, 0, 222]",222,a,0.28918850899208337,colour,0.5
103,22,0,2,3,19,119,177.82866462366655,179.44766286201775,"[97, 0, 157]",157,l,1.0956237073987722,colour,0.5
103,22,0,2,3,20,120,179.95514454727527,180.543661510339,"[37, 0, 217]",217,a,0.06601046759169549,colour,0.5
103,22,0,2,3,21,121,181.0644917995669,181.75167689553928,"[39, 0, 215]",215,a,0.1639913400867954,colour,0.5
103,22,0,2,3,22,122,182.2675845103804,182.96764520194847,"[85, 0, 169]",169,l,0.1783481885213405,colour,0.5
103,22,0,2,3,23,123,183.4856335024815,184.21567134698853,"[72, 0, 182]",182,l,0.2120192180154845,colour,0.5
103,22,0,2,3,24,124,184.72799733129796,185.4716701055877,"[74, 0, 180]",180,l,0.2203648032154888,colour,0.5
103,22,0,2,3,25,125,185.9780395713169,186.70364114071708,"[11, 0, 243]",243,a,0.20236961066257209,colour,0.5
103,22,0,2,3,26,126,187.21238155593164,187.95163302111905,"[18, 0, 236]",236,a,0.22814049408771098,colour,0.5
103,22,0,2,3,27,127,188.46597588807344,189.20764792745467,"[56, 0, 198]",198,a,0.21883865224663168,colour,0.5
103,22,0,2,3,28,128,189.7159448727034,192.24767404724844,"[23, 0, 231]",231,a,2.008521240320988,colour,0.5
103,22,0,2,3,29,129,192.76425750087947,193.3116601492511,"[2, 0, 252]",252,a,0.024256153963506222,colour,0.5
103,22,0,2,3,30,130,193.82668082416058,194.61565685353708,"[47, 0, 207]",207,a,0.26560504315420985,colour,0.5
103,22,0,2,3,31,131,195.12356979947072,195.89566836960148,"[8, 0, 246]",246,a,0.2488221067469567,colour,0.5
103,22,0,2,3,32,132,196.40478648268618,197.00765241729096,"[4, 0, 250]",250,a,0.0781613877043128,colour,0.5
103,22,0,2,3,33,133,197.51560474780854,198.31167157075834,"[17, 0, 237]",237,a,0.27269623056054115,colour,0.5
103,22,0,2,3,34,134,198.8280494371429,199.63165052363183,"[7, 0, 247]",247,a,0.2803009924245998,colour,0.5
103,22,0,2,3,35,135,200.1405969200423,201.82365372800268,"[88, 0, 166]",166,l,1.1573908841237426,colour,0.5
103,22,0,2,3,36,136,202.3305509465281,203.65559829655103,"[79, 0, 175]",175,l,0.8020985660841689,colour,0.5
103,22,0,2,3,37,137,204.17381227051374,204.99960457917769,"[53, 0, 201]",201,a,0.3025784668279812,colour,0.5
103,22,0,2,3,38,138,205.51759878732264,206.20762193365954,"[25, 0, 229]",229,a,0.16688374115619808,colour,0.5
103,22,0,2,3,39,139,206.72061942447908,207.61557965981774,"[80, 0, 174]",174,l,0.37214811576996,colour,0.5
103,22,0,2,3,40,140,208.128222295898,208.92760726681445,"[66, 0, 188]",188,l,0.2761703412979841,colour,0.5
103,22,0,2,3,41,141,209.44079144031275,210.24758503818884,"[12, 0, 242]",242,a,0.2836648265365511,colour,0.5
103,22,0,2,3,42,142,210.76883398508653,211.6483980140183,"[20, 0, 234]",234,a,0.356374605325982,colour,0.5
103,22,0,2,3,43,143,212.160871690372,212.9596072101267,"[14, 0, 240]",240,a,0.2755661824485287,colour,0.5
103,22,0,2,3,44,144,213.47332504426595,214.27158952481113,"[96, 0, 158]",158,l,0.27540431183297187,colour,0.5
103,22,0,2,3,45,145,214.78581935807597,215.73558791482355,"[55, 0, 199]",199,a,0.4267547882627696,colour,0.5
103,22,0,2,3,46,146,216.2418297745753,217.1116091068834,"[43, 0, 211]",211,a,0.3468986836960539,colour,0.5
103,22,0,2,3,47,147,217.63073325762525,218.68760926753748,"[64, 0, 190]",190,a,0.5337503893533722,colour,0.5
103,22,0,2,3,48,148,219.19612912938464,219.9996124560712,"[95, 0, 159]",159,l,0.2804250536719337,colour,0.5
103,22,0,2,3,49,149,220.50865652621724,221.38358066172805,"[71, 0, 183]",183,l,0.35176109964959323,colour,0.5
103,22,0,2,3,50,150,221.9016662420472,222.67958663555328,"[48, 0, 206]",206,a,0.2546470809029415,colour,0.5
103,22,0,2,4,1,151,229.49635555106215,230.0875620848965,"[1, 0, 253]",253,a,0.0678662674035877,colour,0.5
103,22,0,2,4,2,152,230.60660549730528,231.48754247138277,"[76, 0, 178]",178,l,0.35761521849781275,colour,0.5
103,22,0,2,4,3,153,231.99708357441705,232.6315666345181,"[30, 0, 224]",224,a,0.11127197509631515,colour,0.5
103,22,0,2,4,4,154,233.13770806370303,233.73559027793817,"[55, 0, 199]",199,a,0.07473611377645284,colour,0.5
103,22,0,2,4,5,155,234.24689265782945,235.63167179131415,"[81, 0, 173]",173,l,0.8613404057687148,colour,0.5
103,22,0,2,4,6,156,236.14114830375183,236.92754976532888,"[59, 0, 195]",195,a,0.26326126873027533,colour,0.5
103,22,0,2,4,7,157,237.437997500645,238.24756731512025,"[92, 0, 162]",162,l,0.28651390445884317,colour,0.5
103,22,0,2,4,8,158,238.76611881458666,239.5835686888313,"[70, 0, 184]",184,l,0.2948598834918812,colour,0.5
103,22,0,2,4,9,159,240.09713410481345,241.31159398320597,"[24, 0, 230]",230,a,0.6915126697858796,colour,0.5
103,22,0,2,4,10,160,241.82954408065416,243.1035498472629,"[77, 0, 177]",177,l,0.7509856966789812,colour,0.5
103,22,0,2,4,11,161,243.61083854816388,244.89559472049586,"[0, 0, 254]",254,a,0.762150821625255,colour,0.5
103,22,0,2,4,12,162,245.4100931562716,246.2715465957299,"[34, 0, 220]",220,a,0.3381242008181289,colour,0.5
103,22,0,2,4,13,163,246.78506750718225,247.66355436865706,"[10, 0, 244]",244,a,0.35529822565149516,colour,0.5
103,22,0,2,4,14,164,248.17573935631663,248.9596639238298,"[27, 0, 227]",227,a,0.26139168441295624,colour,0.5
103,22,0,2,4,15,165,249.4728213158669,250.2715611680178,"[69, 0, 185]",185,l,0.27595924015622586,colour,0.5
103,22,0,2,4,16,166,250.7873203031486,251.65554276434705,"[20, 0, 234]",234,a,0.345243351184763,colour,0.5
103,22,0,2,4,17,167,252.1624112322461,252.99957385926973,"[21, 0, 233]",233,a,0.31408663105685264,colour,0.5
103,22,0,2,4,18,168,253.52009694906883,254.35153030627407,"[97, 0, 157]",157,l,0.3104215052444488,colour,0.5
103,22,0,2,4,19,169,254.8615782884881,255.64755951694679,"[51, 0, 203]",203,a,0.2626724698347971,colour,0.5
103,22,0,2,4,20,170,256.1585161006078,256.91954682569485,"[36, 0, 218]",218,a,0.24997764930594712,colour,0.5
103,22,0,2,4,21,171,257.4276858390076,258.2235620407155,"[99, 0, 155]",155,l,0.2713429775321856,colour,0.5
103,22,0,2,4,22,172,258.74137941224035,259.5835332428105,"[48, 0, 206]",206,a,0.318830105708912,colour,0.5
103,22,0,2,4,23,173,260.1009713411331,260.9515302274376,"[17, 0, 237]",237,a,0.3273714320966974,colour,0.5
103,22,0,2,4,24,174,261.46049828547984,262.26356492366176,"[35, 0, 219]",219,a,0.27995755919255316,colour,0.5
103,22,0,2,4,25,175,262.7728728703223,263.5755113984924,"[2, 0, 252]",252,a,0.27962475980166346,colour,0.5
103,22,0,2,4,26,176,264.08778775832616,264.8875716946786,"[93, 0, 161]",161,l,0.2768520878162235,colour,0.5
103,22,0,2,4,27,177,265.40025725984015,266.15950189577416,"[44, 0, 210]",210,a,0.23606899695005268,colour,0.5
103,22,0,2,4,28,178,266.66596233972814,267.68754782760516,"[32, 0, 222]",222,a,0.49846183648332953,colour,0.5
103,22,0,2,4,29,179,268.19711137993727,269.3917096320074,"[64, 0, 190]",190,l,0.671359991771169,colour,0.5
103,22,0,2,4,30,180,269.9150715598371,270.5995052513899,"[71, 0, 183]",183,l,0.1612891664262861,colour,0.5
103,22,0,2,4,31,181,271.11828951351345,271.91964016703423,"[22, 0, 232]",232,a,0.2758123357780278,colour,0.5
103,22,0,2,4,32,182,272.4330338664586,273.23946788336616,"[46, 0, 208]",208,a,0.28330682101659477,colour,0.5
103,22,0,2,4,33,183,273.7454600450583,274.5674911296228,"[11, 0, 243]",243,a,0.2987790396437049,colour,0.5
103,22,0,2,4,34,184,275.0734998328844,275.90348029416054,"[65, 0, 189]",189,l,0.3066992717795074,colour,0.5
103,22,0,2,4,35,185,276.417329278891,277.16747962939553,"[90, 0, 164]",164,l,0.22700582537800074,colour,0.5
103,22,0,2,4,36,186,277.68295204499736,278.49545010039583,"[73, 0, 181]",181,l,0.2892999672330916,colour,0.5
103,22,0,2,4,37,187,279.01261014386546,279.7434841223294,"[83, 0, 171]",171,l,0.20788896072190255,colour,0.5
103,22,0,2,4,38,188,280.26246806408744,281.01550333260093,"[38, 0, 216]",216,a,0.229886804940179,colour,0.5
103,22,0,2,4,39,189,281.5280778333545,282.34344190207776,"[66, 0, 188]",188,a,0.2921478636562824,colour,0.5
103,22,0,2,4,40,190,282.8561707903864,283.6954806628637,"[57, 0, 197]",197,a,0.3162665657000616,colour,0.5
103,22,0,2,4,41,191,284.216939135571,285.0074936975725,"[49, 0, 205]",205,a,0.26722453569527715,colour,0.5
103,22,0,2,4,42,192,285.51381156942807,286.4634603970917,"[86, 0, 168]",168,l,0.4264334103791043,colour,0.5
103,22,0,2,4,43,193,286.982623144635,287.7994633462513,"[41, 0, 213]",213,a,0.29684171394910663,colour,0.5
103,22,0,2,4,44,194,288.3048355951905,288.9594945702702,"[89, 0, 165]",165,l,0.13164166209753603,colour,0.5
103,22,0,2,4,45,195,289.4766723368084,290.3594777137041,"[42, 0, 212]",212,a,0.36910723510663956,colour,0.5
103,22,0,2,4,46,196,290.8737516576657,291.76747049216647,"[60, 0, 194]",194,a,0.37060542323160917,colour,0.5
103,22,0,2,4,47,197,292.28001309151296,292.95946542569436,"[74, 0, 180]",180,l,0.15629402454942465,colour,0.5
103,22,0,2,4,48,198,293.4675099160522,294.28750678896904,"[37, 0, 217]",217,a,0.29685037850867957,colour,0.5
103,22,0,2,4,49,199,294.79558199923486,295.6954830258619,"[29, 0, 225]",225,a,0.37671199697069824,colour,0.5
103,22,0,2,4,50,200,296.2017879008781,296.98347660782747,"[88, 0, 166]",166,l,0.2584630496567115,colour,0.5
103,22,0,2,5,1,201,301.67346627719235,302.2554532827344,"[25, 0, 229]",229,a,0.0642649446381256,colour,0.5
103,22,0,2,5,2,202,302.75155874190386,304.2554103535367,"[18, 0, 236]",236,a,0.9808185447473079,colour,0.5
103,22,0,2,5,3,203,304.7670112684136,305.9674663961632,"[12, 0, 242]",242,a,0.6772349843522534,colour,0.5
103,22,0,2,5,4,204,306.4816777186934,309.0314725842327,"[33, 0, 221]",221,a,2.0265995343215764,colour,0.5
103,22,0,2,5,5,205,309.54931201110594,311.64743978797924,"[21, 0, 233]",233,a,1.5748639166122302,colour,0.5
103,22,0,2,5,6,206,312.15454850147944,312.68740604328923,"[83, 0, 171]",171,l,0.01951110386289656,colour,0.5
103,22,0,2,5,7,207,313.2070138362469,314.1834276134614,"[23, 0, 231]",231,a,0.4532129322178662,colour,0.5
103,22,0,2,5,8,208,314.70123513881117,315.383437695913,"[28, 0, 226]",226,a,0.15896626596804708,colour,0.5
103,22,0,2,5,9,209,315.90438771410845,316.6954263121588,"[4, 0, 250]",250,a,0.26800671266391873,colour,0.5
103,22,0,2,5,10,210,317.20128062798176,317.9034338204656,"[10, 0, 244]",244,a,0.18763033824507147,colour,0.5
103,22,0,2,5,11,211,318.41164530126844,319.23139405145776,"[53, 0, 201]",201,a,0.29647071147337556,colour,0.5
103,22,0,2,5,12,212,319.73406688368414,320.5194230794441,"[76, 0, 178]",178,l,0.2624869686551392,colour,0.5
103,22,0,2,5,13,213,321.03053680749144,321.5754468078958,"[86, 0, 168]",168,l,0.02194821962621063,colour,0.5
103,22,0,2,5,14,214,322.0899590282934,323.06342999229673,"[45, 0, 209]",209,a,0.46220836241263896,colour,0.5
103,22,0,2,5,15,215,323.5632529587019,324.1194048838224,"[0, 0, 254]",254,a,0.03297471080441028,colour,0.5
103,22,0,2,5,16,216,324.62585154315457,325.6074140620185,"[87, 0, 167]",167,l,0.45844831981230527,colour,0.5
103,22,0,2,5,17,217,326.12577690940816,326.79136115754955,"[30, 0, 224]",224,a,0.14237591996788979,colour,0.5
103,22,0,2,5,18,218,327.2976199525874,328.4234472741373,"[90, 0, 164]",164,l,0.6030222912086174,colour,0.5
103,22,0,2,5,19,219,328.93825724173803,330.01540684048086,"[50, 0, 204]",204,a,0.5544245189521462,colour,0.5
103,22,0,2,5,20,220,330.53339277778286,331.9673884147778,"[96, 0, 158]",158,l,0.9107778565958142,colour,0.5
103,22,0,2,5,21,221,332.4862738951342,333.1914045593003,"[89, 0, 165]",165,l,0.18261077790521085,colour,0.5
103,22,0,2,5,22,222,333.7044351331424,334.32741987518966,"[59, 0, 195]",195,a,0.09987369377631694,colour,0.5
103,22,0,2,5,23,223,334.8464983397862,335.43940510437824,"[2, 0, 252]",252,a,0.06967953185085207,colour,0.5
103,22,0,2,5,24,224,335.95905346341897,337.6233982797712,"[41, 0, 213]",213,a,1.1409206609241664,colour,0.5
103,22,0,2,5,25,225,338.14256023964845,338.7673881785013,"[85, 0, 169]",169,l,0.0993778423871845,colour,0.5
103,22,0,2,5,26,226,339.2854111372726,340.11139800574165,"[43, 0, 211]",211,a,0.30367572035174817,colour,0.5
103,22,0,2,5,27,227,340.61696835886687,341.3273659183178,"[1, 0, 253]",253,a,0.1871305484091863,colour,0.5
103,22,0,2,5,28,228,341.8357113065431,342.6394041591557,"[82, 0, 172]",172,l,0.28062197647523135,colour,0.5
103,22,0,2,5,29,229,343.1482095589163,343.79940190631896,"[9, 0, 245]",245,a,0.12799780385103077,colour,0.5
103,22,0,2,5,30,230,344.320075838943,345.14341094589327,"[70, 0, 184]",184,l,0.30010314809624106,colour,0.5
103,22,0,2,5,31,231,345.6638107619947,346.5193596703466,"[62, 0, 192]",192,a,0.3326190289808437,colour,0.5
103,22,0,2,5,32,232,347.0404727406567,347.95935633056797,"[61, 0, 193]",193,a,0.400687339133583,colour,0.5
103,22,0,2,5,33,233,348.4729623126332,349.3353759471793,"[98, 0, 156]",156,l,0.33916907268576324,colour,0.5
103,22,0,2,5,34,234,349.8523280401714,350.503367575584,"[51, 0, 203]",203,a,0.12770635820925236,colour,0.5
103,22,0,2,5,35,235,351.02417974791024,351.91934202611446,"[52, 0, 202]",202,a,0.37201775307767093,colour,0.5
103,22,0,2,5,36,236,352.43041203718167,353.3033578869654,"[80, 0, 174]",174,l,0.3529087651986629,colour,0.5
103,22,0,2,5,37,237,353.8229022708256,354.67940467898734,"[8, 0, 246]",246,a,0.33328029548283666,colour,0.5
103,22,0,2,5,38,238,355.19792703387793,356.1754427906126,"[88, 0, 166]",166,l,0.45425229030661285,colour,0.5
103,22,0,2,5,39,239,356.68086545180995,357.5673485576408,"[27, 0, 227]",227,a,0.3653968170983717,colour,0.5
103,22,0,2,5,40,240,358.0849378926214,359.16734414652456,"[84, 0, 170]",170,l,0.5694568122271448,colour,0.5
103,22,0,2,5,41,241,359.68397958786227,360.4313486017054,"[46, 0, 208]",208,a,0.22422763949725777,colour,0.5
103,22,0,2,5,42,242,360.94944796653,361.74338014714886,"[97, 0, 157]",157,l,0.2711121841566637,colour,0.5
103,22,0,2,5,43,243,362.2619730003644,362.8713145420188,"[58, 0, 196]",196,a,0.08380440541077405,colour,0.5
103,22,0,2,5,44,244,363.38965927250683,363.99133776314557,"[73, 0, 181]",181,a,0.07899279543198645,colour,0.5
103,22,0,2,5,45,245,364.49905536172446,365.7113691761624,"[40, 0, 214]",214,a,0.6893457320984453,colour,0.5
103,22,0,2,5,46,246,366.2179154783953,366.8313360774191,"[48, 0, 206]",206,a,0.09025835082866251,colour,0.5
103,22,0,2,5,47,247,367.3427633064566,368.04739930061623,"[32, 0, 222]",222,a,0.17913903016597033,colour,0.5
103,22,0,2,5,48,248,368.54827107756864,369.39936323068105,"[13, 0, 241]",241,a,0.3279495971510187,colour,0.5
103,22,0,2,5,49,249,369.90767002210487,371.0552982650697,"[69, 0, 185]",185,l,0.6248452679719776,colour,0.5
103,22,0,2,5,50,250,371.5626472244039,372.19131397479214,"[5, 0, 249]",249,a,0.10546511760912836,colour,0.5
103,22,0,2,6,1,251,381.5810405948432,383.0153351605404,"[79, 0, 175]",175,a,0.9101378576597199,colour,0.5
103,22,0,2,6,2,252,383.5360339054605,384.7193347004941,"[22, 0, 232]",232,a,0.6600936484755948,colour,0.5
103,22,0,2,6,3,253,385.2390953055583,387.62329509225674,"[52, 0, 202]",202,a,1.8615487499628216,colour,0.5
103,22,0,2,6,4,254,388.1311733798357,388.81534910271876,"[19, 0, 235]",235,a,0.16083624423481524,colour,0.5
103,22,0,2,6,5,255,389.33422473690007,390.2233028904302,"[86, 0, 168]",168,l,0.3658686438575387,colour,0.5
103,22,0,2,6,6,256,390.7404471799964,394.8393299586605,"[97, 0, 157]",157,l,3.57906388444826,colour,0.5
103,22,0,2,6,7,257,395.35847262013704,396.5672583669657,"[88, 0, 166]",166,l,0.685655006323941,colour,0.5
103,22,0,2,6,8,258,397.0771937094396,397.77533282898366,"[82, 0, 172]",172,l,0.17510290199425071,colour,0.5
103,22,0,2,6,9,259,398.2817148977192,398.87926785706077,"[75, 0, 179]",179,l,0.0742662560660392,colour,0.5
103,22,0,2,6,10,260,399.39174941030797,400.00727708253544,"[53, 0, 201]",201,a,0.09356822806876153,colour,0.5
103,22,0,2,6,11,261,400.5161486483412,401.8232933593681,"[33, 0, 221]",221,a,0.7838682476431131,colour,0.5
103,22,0,2,6,12,262,402.3442595253,402.87127515743487,"[46, 0, 208]",208,a,0.0028490780387073755,colour,0.5
103,22,0,2,6,13,263,403.3817965418566,404.2952497906517,"[28, 0, 226]",226,a,0.3944169256137684,colour,0.5
103,22,0,2,6,14,264,404.8152293736348,405.543262544903,"[36, 0, 218]",218,a,0.2048276000423357,colour,0.5
103,22,0,2,6,15,265,406.0496044413885,406.95924684149213,"[87, 0, 167]",167,l,0.39707380707841367,colour,0.5
103,22,0,2,6,16,266,407.47667627525516,409.23126841476187,"[14, 0, 240]",240,a,1.2364045532885939,colour,0.5
103,22,0,2,6,17,267,409.73768986796495,410.36729712144006,"[0, 0, 254]",254,a,0.10655410040635616,colour,0.5
103,22,0,2,6,18,268,410.8836671108147,411.5992689441191,"[83, 0, 171]",171,l,0.19263335701543838,colour,0.5
103,22,0,2,6,19,269,412.1180697476957,412.9352588963229,"[65, 0, 189]",189,l,0.29400917736347765,colour,0.5
103,22,0,2,6,20,270,413.4420044843573,414.22322215209715,"[32, 0, 222]",222,a,0.25797546887770295,colour,0.5
103,22,0,2,6,21,271,414.7389186657965,415.39923838165123,"[50, 0, 204]",204,a,0.1374705748166889,colour,0.5
103,22,0,2,6,22,272,415.91606011183467,416.64742324640974,"[44, 0, 210]",210,a,0.20809376041870564,colour,0.5
103,22,0,2,6,23,273,417.16608462878503,417.80724061245564,"[5, 0, 249]",249,a,0.11801776010543108,colour,0.5
103,22,0,2,6,24,274,418.3173878437374,419.0712474307511,"[23, 0, 231]",231,a,0.23102541209664196,colour,0.5
103,22,0,2,6,25,275,419.57496316567995,420.34328790858854,"[30, 0, 224]",224,a,0.24517667316831648,colour,0.5
103,22,0,2,6,26,276,420.8561432211427,421.5192383659305,"[99, 0, 155]",155,l,0.14007861935533583,colour,0.5
103,22,0,2,6,27,277,422.02804415952414,422.83121713611763,"[98, 0, 156]",156,l,0.28059716429561377,colour,0.5
103,22,0,2,6,28,278,423.34620709111914,424.2072316327831,"[89, 0, 165]",165,l,0.3382474743993953,colour,0.5
103,22,0,2,6,29,279,424.71733593486715,425.4472469611792,"[20, 0, 234]",234,a,0.20674562733620405,colour,0.5
103,22,0,2,6,30,280,425.95963556692004,426.6953046139097,"[17, 0, 237]",237,a,0.21619043534155935,colour,0.5
103,22,0,2,6,31,281,427.206257652957,428.2472093096003,"[38, 0, 216]",216,a,0.5216534262290224,colour,0.5
103,22,0,2,6,32,282,428.7655493139755,429.39920726791024,"[4, 0, 250]",250,a,0.11045238270889968,colour,0.5
103,22,0,2,6,33,283,429.90618325560354,430.6312602227554,"[40, 0, 214]",214,a,0.20213724172208458,colour,0.5
103,22,0,2,6,34,284,431.1405209079385,431.95920470007695,"[80, 0, 174]",174,l,0.29453496111091226,colour,0.5
103,22,0,2,6,35,285,432.46966582606547,433.3192515204428,"[18, 0, 236]",236,a,0.3263025355990976,colour,0.5
103,22,0,2,6,36,286,433.8289789123228,434.53516744542867,"[54, 0, 200]",200,a,0.1830507032573223,colour,0.5
103,22,0,2,6,37,287,435.0477915707743,435.90323099005036,"[91, 0, 163]",163,l,0.3323173433309421,colour,0.5
103,22,0,2,6,38,288,436.42269975552335,437.0712139537791,"[76, 0, 178]",178,l,0.12396364484447986,colour,0.5
103,22,0,2,6,39,289,437.5805782203097,438.3992033294635,"[64, 0, 190]",190,l,0.29579329735133797,colour,0.5
103,22,0,2,6,40,290,438.9084195100004,439.4791815262288,"[26, 0, 228]",228,a,0.0476415156153962,colour,0.5
103,22,0,2,6,41,291,439.9864304487128,440.67920106090605,"[68, 0, 186]",186,l,0.16958197636995465,colour,0.5
103,22,0,2,6,42,292,441.18959168868605,441.91143045853823,"[8, 0, 246]",246,a,0.19894630589988083,colour,0.5
103,22,0,2,6,43,293,442.4239159502322,443.10317963256966,"[57, 0, 197]",197,a,0.154537079972215,colour,0.5
103,22,0,2,6,44,294,443.61290308611933,444.39917142794,"[60, 0, 194]",194,a,0.2630974290659651,colour,0.5
103,22,0,2,6,45,295,444.909824356786,445.5273220438976,"[63, 0, 191]",191,a,0.09436615882441401,colour,0.5
103,22,0,2,6,46,296,446.0348372060107,446.60718523780815,"[27, 0, 227]",227,a,0.048089711694046855,colour,0.5
103,22,0,2,6,47,297,447.1172257368453,447.8076553316787,"[24, 0, 230]",230,a,0.1672937342664227,colour,0.5
103,22,0,2,6,48,298,448.3203794937581,449.0151760469889,"[78, 0, 176]",176,l,0.17149685299955308,colour,0.5
103,22,0,2,6,49,299,449.523503318429,450.31121510383673,"[29, 0, 225]",225,a,0.26457671262323856,colour,0.5
103,22,0,2,6,50,300,450.82019300793763,451.7511798625346,"[10, 0, 244]",244,a,0.4088356076972559,colour,0.5
103,22,0,2,7,1,301,460.6347492997302,461.727240754175,"[47, 0, 207]",207,a,0.5752825741656125,colour,0.5
103,22,0,2,7,2,302,462.2452030607965,463.551194198546,"[95, 0, 159]",159,l,0.7827536650002003,colour,0.5
103,22,0,2,7,3,303,464.05775664839894,464.79123985313345,"[66, 0, 188]",188,l,0.21039263636339456,colour,0.5
103,22,0,2,7,4,304,465.3077744699549,465.98316822678316,"[97, 0, 157]",157,l,0.15228113322518766,colour,0.5
103,22,0,2,7,5,305,466.4951369932387,467.3191475451458,"[73, 0, 181]",181,l,0.30068052548449486,colour,0.5
103,22,0,2,7,6,306,467.84201322775334,468.6311160753248,"[88, 0, 166]",166,l,0.2659090918023139,colour,0.5
103,22,0,2,7,7,307,469.1388655754272,469.9271893968107,"[65, 0, 189]",189,l,0.2651154932100326,colour,0.5
103,22,0,2,7,8,308,470.4358652214287,471.1111183754401,"[44, 0, 210]",210,a,0.1520987827097997,colour,0.5
103,22,0,2,7,9,309,471.6232131724246,472.24714865745045,"[57, 0, 197]",197,a,0.10074606153648347,colour,0.5
103,22,0,2,7,10,310,472.7638439631555,473.4151359535754,"[22, 0, 232]",232,a,0.12809114530682564,colour,0.5
103,22,0,2,7,11,311,473.92148060689215,474.5271739580203,"[36, 0, 218]",218,a,0.08255867217667401,colour,0.5
103,22,0,2,7,12,312,475.04652220685966,476.46315359149594,"[11, 0, 243]",243,a,0.8935325456550345,colour,0.5
103,22,0,2,7,13,313,476.9840835236246,478.25514017557725,"[96, 0, 158]",158,a,0.7480290989624336,colour,0.5
103,22,0,2,7,14,314,478.7651152963517,479.67919121473096,"[15, 0, 239]",239,a,0.39077700581401587,colour,0.5
103,22,0,2,7,15,315,480.1870037300978,481.16714052844327,"[99, 0, 155]",155,l,0.45691783633083105,colour,0.5
103,22,0,2,7,16,316,481.6871488621691,482.37513385829516,"[2, 0, 252]",252,a,0.1652681870618835,colour,0.5
103,22,0,2,7,17,317,482.8916440566536,483.9273118827259,"[63, 0, 191]",191,l,0.5125544146867469,colour,0.5
103,22,0,2,7,18,318,484.43846893368755,485.2630942784017,"[59, 0, 195]",195,l,0.30158006865531206,colour,0.5
103,22,0,2,7,19,319,485.7840836811811,486.84708910796326,"[25, 0, 229]",229,a,0.5398254555184394,colour,0.5
103,22,0,2,7,20,320,487.3622519611381,488.0791574228788,"[24, 0, 230]",230,a,0.19366798910778016,colour,0.5
103,22,0,2,7,21,321,488.5977904482279,490.1511425260687,"[68, 0, 186]",186,l,1.0304363769246265,colour,0.5
103,22,0,2,7,22,322,490.66035240504425,491.5031273298664,"[62, 0, 192]",192,l,0.3195921966107562,colour,0.5
103,22,0,2,7,23,323,492.0197202358395,493.75909024849534,"[13, 0, 241]",241,a,1.2161455368623137,colour,0.5
103,22,0,2,7,24,324,494.2711070642108,495.0311311202822,"[30, 0, 224]",224,a,0.2369055247399956,colour,0.5
103,22,0,2,7,25,325,495.5487929227529,496.07115212013014,"[26, 0, 228]",228,a,0.001577744958922267,colour,0.5
103,22,0,2,7,26,326,496.59334196383134,497.3991166834021,"[14, 0, 240]",240,a,0.2825620591174811,colour,0.5
103,22,0,2,7,27,327,497.8953213917557,498.90310417173896,"[72, 0, 182]",182,l,0.4844740213593468,colour,0.5
103,22,0,2,7,28,328,499.4110214500688,499.9671654981794,"[91, 0, 163]",163,l,0.03691198374144733,colour,0.5
103,22,0,2,7,29,329,500.4857808005763,501.7030602185987,"[52, 0, 202]",202,l,0.6957882560091093,colour,0.5
103,22,0,2,7,30,330,502.21879099693615,504.3751019567717,"[18, 0, 236]",236,a,1.6331719486042857,colour,0.5
103,22,0,2,7,31,331,504.8906275415793,507.12714946083724,"[50, 0, 204]",204,a,1.7132998065790161,colour,0.5
103,22,0,2,7,32,332,507.6416581366211,509.01509609632194,"[20, 0, 234]",234,a,0.8500342841725796,colour,0.5
103,22,0,2,7,33,333,509.5322423551697,512.111077415524,"[43, 0, 211]",211,a,2.055625944514759,colour,0.5
103,22,0,2,7,34,334,512.6273201928707,514.7271013329737,"[75, 0, 179]",179,a,1.5768768606940284,colour,0.5
103,22,0,2,7,35,335,515.2366554329637,516.2390708870953,"[98, 0, 156]",156,l,0.477645922685042,colour,0.5
103,22,0,2,7,36,336,516.7544594136998,517.5590588984778,"[5, 0, 249]",249,a,0.28155027027241886,colour,0.5
103,22,0,2,7,37,337,518.0669753890252,518.823212227202,"[27, 0, 227]",227,a,0.23336446029134095,colour,0.5
103,22,0,2,7,38,338,519.333386633778,520.0470905258553,"[81, 0, 173]",173,l,0.19052982854191214,colour,0.5
103,22,0,2,7,39,339,520.5677550061373,521.383100957959,"[70, 0, 184]",184,l,0.29224278044421226,colour,0.5
103,22,0,2,7,40,340,521.8957845539553,522.7670585297747,"[76, 0, 178]",178,l,0.3480660415953025,colour,0.5
103,22,0,2,7,41,341,523.2881003140938,524.119079567492,"[37, 0, 217]",217,a,0.3078997128177434,colour,0.5
103,22,0,2,7,42,342,524.6318261787528,525.4390616711462,"[9, 0, 245]",245,a,0.2840279520023614,colour,0.5
103,22,0,2,7,43,343,525.9600065693958,526.7350467711221,"[61, 0, 193]",193,l,0.2509555674623698,colour,0.5
103,22,0,2,7,44,344,527.2486342424527,528.055112370057,"[53, 0, 201]",201,l,0.28359629737678915,colour,0.5
103,22,0,2,7,45,345,528.5610639656661,529.3910653007915,"[74, 0, 180]",180,l,0.3067425948102027,colour,0.5
103,22,0,2,7,46,346,529.8996308486676,530.6710327061592,"[0, 0, 254]",254,a,0.2505050083855167,colour,0.5
103,22,0,2,7,47,347,531.1869671025779,531.9750219273847,"[3, 0, 251]",251,a,0.26484964753035456,colour,0.5
103,22,0,2,7,48,348,532.4838824655162,533.4150059844833,"[42, 0, 212]",212,a,0.40800498763564974,colour,0.5
103,22,0,2,7,49,349,533.921358908643,534.8230070337886,"[38, 0, 216]",216,a,0.3785776429576799,colour,0.5
103,22,0,2,7,50,350,535.3432500993367,536.1431659739465,"[46, 0, 208]",208,a,0.27541258255951107,colour,0.5
103,22,0,2,8,1,351,541.0779849449173,541.9910463175038,"[49, 0, 205]",205,l,0.389407605282031,colour,0.5
103,22,0,2,8,2,352,542.5006587065291,543.2550184773281,"[17, 0, 237]",237,a,0.2289171573938802,colour,0.5
103,22,0,2,8,3,353,543.7685027611442,544.718975907308,"[32, 0, 222]",222,a,0.42723882431164384,colour,0.5
103,22,0,2,8,4,354,545.2365932053654,545.9190194666153,"[94, 0, 160]",160,l,0.15840543003287166,colour,0.5
103,22,0,2,8,5,355,546.4248820531648,547.967080821516,"[39, 0, 215]",215,a,1.0195827838033438,colour,0.5
103,22,0,2,8,6,356,548.4731942875078,549.6070773240644,"[50, 0, 204]",204,a,0.6106648623244837,colour,0.5
103,22,0,2,8,7,357,550.1138563890709,550.8950216753874,"[99, 0, 155]",155,l,0.25799476739484817,colour,0.5
103,22,0,2,8,8,358,551.4107083429117,552.1829774481012,"[60, 0, 194]",194,a,0.24801393586676568,colour,0.5
103,22,0,2,8,9,359,552.6938820441719,553.4790212310618,"[7, 0, 247]",247,a,0.2635763451689854,colour,0.5
103,22,0,2,8,10,360,553.989463846432,554.7670289913658,"[15, 0, 239]",239,a,0.2543359430273995,colour,0.5
103,22,0,2,8,11,361,555.2863024096005,556.2389921180438,"[87, 0, 167]",167,l,0.42947429115884006,colour,0.5
103,22,0,2,8,12,362,556.755019855802,557.4150256768335,"[35, 0, 219]",219,a,0.13697944954037666,colour,0.5
103,22,0,2,8,13,363,557.9277730757603,558.6710287677124,"[27, 0, 227]",227,a,0.22092485160101205,colour,0.5
103,22,0,2,8,14,364,559.1769811509876,559.9429920518305,"[58, 0, 196]",196,a,0.24281714507378638,colour,0.5
103,22,0,2,8,15,365,560.4581407265505,561.0069813046139,"[77, 0, 177]",177,a,0.02426048624329269,colour,0.5
103,22,0,2,8,16,366,561.5222024468239,562.5270183890825,"[8, 0, 246]",246,a,0.48167023551650345,colour,0.5
103,22,0,2,8,17,367,563.0378962036921,563.9429967779433,"[4, 0, 250]",250,a,0.382068688981235,colour,0.5
103,22,0,2,8,18,368,564.4507104381919,565.1909717231756,"[67, 0, 187]",187,l,0.21709549217484891,colour,0.5
103,22,0,2,8,19,369,565.6968827527016,566.4069609034341,"[66, 0, 188]",188,l,0.18687100417446345,colour,0.5
103,22,0,2,8,20,370,566.9156855648616,567.5749777379679,"[38, 0, 216]",216,a,0.1361736417748034,colour,0.5
103,22,0,2,8,21,371,568.087625100161,568.6469730810495,"[46, 0, 208]",208,a,0.03615973889827728,colour,0.5
103,22,0,2,8,22,372,569.1656746356748,569.7190267133992,"[61, 0, 193]",193,a,0.03055886272341013,colour,0.5
103,22,0,2,8,23,373,570.2280668450985,570.7989702516934,"[75, 0, 179]",179,l,0.04763994016684592,colour,0.5
103,22,0,2,8,24,374,571.3063247248065,571.9749990843702,"[47, 0, 207]",207,a,0.14558851742185652,colour,0.5
103,22,0,2,8,25,375,572.4938042202266,573.3589625637978,"[10, 0, 244]",244,a,0.33999732963275164,colour,0.5
103,22,0,2,8,26,376,573.8708714657696,574.6149821962463,"[62, 0, 192]",192,l,0.22096187295392156,colour,0.5
103,22,0,2,8,27,377,575.1208940134384,576.1109502033796,"[57, 0, 197]",197,l,0.4671133136143908,colour,0.5
103,22,0,2,8,28,378,576.6206555400277,577.2310076891445,"[86, 0, 168]",168,l,0.08719265786930919,colour,0.5
103,22,0,2,8,29,379,577.745710924617,579.3909412394278,"[18, 0, 236]",236,a,1.121144892880693,colour,0.5
103,22,0,2,8,30,380,579.9032668299042,581.094982920913,"[23, 0, 231]",231,a,0.6683762185275555,colour,0.5
103,22,0,2,8,31,381,581.6064077868359,582.2069638178218,"[44, 0, 210]",210,a,0.07732722291257232,colour,0.5
103,22,0,2,8,32,382,582.7157767006429,583.3669745619409,"[73, 0, 181]",181,l,0.12836801866069436,colour,0.5
103,22,0,2,8,33,383,583.8732951907441,584.9510170468129,"[25, 0, 229]",229,a,0.5544253066182137,colour,0.5
103,22,0,2,8,34,384,585.4670660522534,586.0629932176089,"[85, 0, 169]",169,l,0.07266251731198281,colour,0.5
103,22,0,2,8,35,385,586.5763751015766,587.4073598688701,"[55, 0, 199]",199,l,0.3075712457066402,colour,0.5
103,22,0,2,8,36,386,587.9201777661219,588.7189428242855,"[97, 0, 157]",157,l,0.2755791792878881,colour,0.5
103,22,0,2,8,37,387,589.2327268244699,589.8709159704158,"[91, 0, 163]",163,l,0.1274361803662032,colour,0.5
103,22,0,2,8,38,388,590.3921743696555,591.1349314531544,"[84, 0, 170]",170,l,0.22193309583235532,colour,0.5
103,22,0,2,8,39,389,591.6555033798795,592.3829619305907,"[79, 0, 175]",175,l,0.2043423824943602,colour,0.5
103,22,0,2,8,40,390,592.8898303983733,593.7029680587584,"[3, 0, 251]",251,l,0.28984465554822236,colour,0.5
103,22,0,2,8,41,391,594.2180836504558,595.0149287120439,"[89, 0, 165]",165,l,0.2737489794380963,colour,0.5
103,22,0,2,8,42,392,595.5304791091476,596.4549261599313,"[43, 0, 211]",211,a,0.4015010237926617,colour,0.5
103,22,0,2,8,43,393,596.9693667005049,597.4955135094933,"[56, 0, 198]",198,a,0.0027939396677538753,colour,0.5
103,22,0,2,8,44,394,598.0175918950699,598.7269248901866,"[98, 0, 156]",156,l,0.18728375423233956,colour,0.5
103,22,0,2,8,45,395,599.2305311360396,599.9589467312908,"[48, 0, 206]",206,a,0.2167185820871964,colour,0.5
103,22,0,2,8,46,396,600.4766112907091,601.3269760112744,"[21, 0, 233]",233,a,0.32728202920407057,colour,0.5
103,22,0,2,8,47,397,601.8359771523392,602.6628958589863,"[45, 0, 209]",209,a,0.30403530108742416,colour,0.5
103,22,0,2,8,48,398,603.1749193699798,604.1511318922276,"[69, 0, 185]",185,l,0.45311171386856586,colour,0.5
103,22,0,2,8,49,399,604.6509576155804,607.0469038430601,"[12, 0, 242]",242,a,1.8726859118323773,colour,0.5
103,22,0,2,8,50,400,607.5572117632255,608.3589290869422,"[33, 0, 221]",221,a,0.285520626232028,colour,0.5
103,22,0,2,9,1,401,612.925767614739,613.71888886753,"[31, 0, 223]",223,a,0.2682213585358113,colour,0.5
103,22,0,2,9,2,402,614.2297328113345,614.9268959818874,"[33, 0, 221]",221,a,0.1740891437511891,colour,0.5
103,22,0,2,9,3,403,615.448385174619,616.2229129833868,"[48, 0, 206]",206,a,0.25129466841463,colour,0.5
103,22,0,2,9,4,404,616.7296632976504,617.3189092687098,"[3, 0, 251]",251,a,0.06601913226768374,colour,0.5
103,22,0,2,9,5,405,617.8389991284348,618.9108908902854,"[26, 0, 228]",228,a,0.5492564789019525,colour,0.5
103,22,0,2,9,6,406,619.417233574437,619.9588990759803,"[19, 0, 235]",235,a,0.017893186770379543,colour,0.5
103,22,0,2,9,7,407,620.4655784979695,621.1188471986679,"[8, 0, 246]",246,a,0.13011157244909555,colour,0.5
103,22,0,2,9,8,408,621.6374250857625,622.3668721620925,"[59, 0, 195]",195,l,0.20634075428824872,colour,0.5
103,22,0,2,9,9,409,622.8873987965053,623.6388685293496,"[86, 0, 168]",168,l,0.22859420417807996,colour,0.5
103,22,0,2,9,10,410,624.154445313965,624.75088369078,"[13, 0, 241]",241,a,0.07338089146651328,colour,0.5
103,22,0,2,9,11,411,625.2638134402223,625.8629130306654,"[88, 0, 166]",166,l,0.07587669009808451,colour,0.5
103,22,0,2,9,12,412,626.3731189449318,627.2788906319765,"[44, 0, 210]",210,a,0.38254327280446887,colour,0.5
103,22,0,2,9,13,413,627.7949573603692,628.3988646223443,"[98, 0, 156]",156,l,0.08080330293159932,colour,0.5
103,22,0,2,9,14,414,628.9199934464414,629.7028751112521,"[58, 0, 196]",196,a,0.2596485244575888,colour,0.5
103,22,0,2,9,15,415,630.2172928088112,631.2949043881381,"[54, 0, 200]",200,a,0.5544642972527072,colour,0.5
103,22,0,2,9,16,416,631.8110140457284,632.5668570385315,"[51, 0, 203]",203,a,0.23264136002399027,colour,0.5
103,22,0,2,9,17,417,633.076625390444,633.8868942805566,"[16, 0, 238]",238,a,0.28702629753388464,colour,0.5
103,22,0,2,9,18,418,634.3975932892645,635.3188198658172,"[36, 0, 218]",218,a,0.40143761469516903,colour,0.5
103,22,0,2,9,19,419,635.8276205393486,636.9028576245764,"[18, 0, 236]",236,a,0.5520961045986041,colour,0.5
103,22,0,2,9,20,420,637.4213130256394,638.174827997922,"[66, 0, 188]",188,l,0.22885492979548872,colour,0.5
103,22,0,2,9,21,421,638.6767296806211,639.2788953580894,"[71, 0, 183]",183,l,0.07894868473522365,colour,0.5
103,22,0,2,9,22,422,639.7860379422782,640.7828288895544,"[45, 0, 209]",209,a,0.4736251544672996,colour,0.5
103,22,0,2,9,23,423,641.2968846431468,641.8548309281468,"[38, 0, 216]",216,a,0.034733230830170214,colour,0.5
103,22,0,2,9,24,424,642.375042486121,645.0308428254211,"[5, 0, 249]",249,a,2.132666841847822,colour,0.5
103,22,0,2,9,25,425,645.5484171942808,647.1108076313976,"[82, 0, 172]",172,l,1.0395783175481483,colour,0.5
103,22,0,2,9,26,426,647.6280444746371,648.4473332134075,"[77, 0, 177]",177,l,0.29604850918985903,colour,0.5
103,22,0,2,9,27,427,648.9562622805825,649.7188356983243,"[46, 0, 208]",208,a,0.2394340125611052,colour,0.5
103,22,0,2,9,28,428,650.2375368590001,651.1428611376323,"[70, 0, 184]",184,l,0.38232902088202536,colour,0.5
103,22,0,2,9,29,429,651.6593937852886,652.4788404559949,"[78, 0, 176]",176,l,0.29628324101213366,colour,0.5
103,22,0,2,9,30,430,652.9888837120961,653.7108016449492,"[10, 0, 244]",244,a,0.19910108717158437,colour,0.5
103,22,0,2,9,31,431,654.2232855611946,655.0075248113135,"[27, 0, 227]",227,a,0.2612168170744553,colour,0.5
103,22,0,2,9,32,432,655.5299946791492,656.3268787314883,"[20, 0, 234]",234,a,0.27390769915655255,colour,0.5
103,22,0,2,9,33,433,656.8425598852336,658.0468152278336,"[79, 0, 175]",175,l,0.6811962819192559,colour,0.5
103,22,0,2,9,34,434,658.5477515953826,659.3348237759201,"[0, 0, 254]",254,a,0.2639162339037284,colour,0.5
103,22,0,2,9,35,435,659.8447425767081,660.5349445288302,"[62, 0, 192]",192,l,0.1672047252068296,colour,0.5
103,22,0,2,9,36,436,661.0477281615604,661.7828044710914,"[12, 0, 242]",242,a,0.22096581140067428,colour,0.5
103,22,0,2,9,37,437,662.2894169393694,663.2308466063114,"[50, 0, 204]",204,l,0.42445866926573217,colour,0.5
103,22,0,2,9,38,438,663.7519541627262,664.3748821910704,"[6, 0, 248]",248,a,0.09970158338546753,colour,0.5
103,22,0,2,9,39,439,664.892886639107,665.6468056967715,"[99, 0, 155]",155,l,0.2305413760477677,colour,0.5
103,22,0,2,9,40,440,666.1649212093325,667.3188328626566,"[68, 0, 186]",186,l,0.6307521620765328,colour,0.5
103,22,0,2,9,41,441,667.8367707509315,668.5188106497517,"[83, 0, 171]",171,l,0.16520911024417728,colour,0.5
103,22,0,2,9,42,442,669.028304885258,669.798796959687,"[92, 0, 162]",162,l,0.2501615750370547,colour,0.5
103,22,0,2,9,43,443,670.3074428520631,671.0627919626422,"[34, 0, 220]",220,a,0.22365183755755424,colour,0.5
103,22,0,2,9,44,444,671.5815226617269,672.4948045876808,"[75, 0, 179]",179,l,0.39003224414773285,colour,0.5
103,22,0,2,9,45,445,673.0034453601111,674.1431061094627,"[4, 0, 250]",250,a,0.6289483498549089,colour,0.5
103,22,0,2,9,46,446,674.6650895782514,675.5667636970757,"[39, 0, 215]",215,a,0.37893210374750197,colour,0.5
103,22,0,2,9,47,447,676.0869260244071,676.902809969266,"[57, 0, 197]",197,l,0.2926886136410758,colour,0.5
103,22,0,2,9,48,448,677.4150851474842,678.150826661964,"[94, 0, 160]",160,l,0.2245624081697315,colour,0.5
103,22,0,2,9,49,449,678.6627532870043,679.4867748665856,"[64, 0, 190]",190,l,0.3008691775612533,colour,0.5
103,22,0,2,9,50,450,679.9942144103115,680.6547940641176,"[80, 0, 174]",174,l,0.13738038414157927,colour,0.5
103,22,0,2,10,1,451,694.029565584613,696.1188219925389,"[23, 0, 231]",231,a,1.5652800812385976,colour,0.5
103,22,0,2,10,2,452,696.6396475556539,697.4547229356831,"[92, 0, 162]",162,l,0.29173235676717013,colour,0.5
103,22,0,2,10,3,453,697.9691930146655,698.8227967203129,"[87, 0, 167]",167,l,0.330505654332228,colour,0.5
103,22,0,2,10,4,454,699.328452537884,699.942777406075,"[6, 0, 248]",248,a,0.09165335143916309,colour,0.5
103,22,0,2,10,5,455,700.4534165502992,701.1427327439887,"[38, 0, 216]",216,a,0.16593417979311198,colour,0.5
103,22,0,2,10,6,456,701.6590542905033,702.3027608173434,"[1, 0, 253]",253,a,0.12059035862330347,colour,0.5
103,22,0,2,10,7,457,702.815336499596,703.4147413204191,"[32, 0, 222]",222,a,0.07642767997458577,colour,0.5
103,22,0,2,10,8,458,703.9232028931146,704.6227169272024,"[5, 0, 249]",249,a,0.18143711844459176,colour,0.5
103,22,0,2,10,9,459,705.1419990098802,705.7747420608066,"[31, 0, 223]",223,a,0.10942365834489465,colour,0.5
103,22,0,2,10,10,460,706.2826569760218,707.0067186097149,"[55, 0, 199]",199,l,0.20085212402045727,colour,0.5
103,22,0,2,10,11,461,707.5170359821059,708.262732334435,"[57, 0, 197]",197,l,0.220277369604446,colour,0.5
103,22,0,2,10,12,462,708.7691463045776,709.5427198258694,"[14, 0, 240]",240,l,0.2503470763331279,colour,0.5
103,22,0,2,10,13,463,710.0503992214799,711.1507860958809,"[3, 0, 251]",251,a,0.5771175002446398,colour,0.5
103,22,0,2,10,14,464,711.6598813659512,712.2786893768935,"[71, 0, 183]",183,l,0.09556029830127954,colour,0.5
103,22,0,2,10,15,465,712.7864357262151,713.4867437527282,"[79, 0, 175]",175,l,0.17894092586357147,colour,0.5
103,22,0,2,10,16,466,714.0038805593504,714.5827380687697,"[95, 0, 159]",159,l,0.05568502133246511,colour,0.5
103,22,0,2,10,17,467,715.0976819437928,715.702738053049,"[12, 0, 242]",242,a,0.08194348553661257,colour,0.5
103,22,0,2,10,18,468,716.2225703379372,716.8947877311148,"[59, 0, 195]",195,l,0.14761760912369937,colour,0.5
103,22,0,2,10,19,469,717.4115373876411,718.0067178219324,"[99, 0, 155]",155,l,0.07133643969427794,colour,0.5
103,22,0,2,10,20,470,718.5200713491067,720.4387024840107,"[80, 0, 174]",174,l,1.3954944866709411,colour,0.5
103,22,0,2,10,21,471,720.9577612564899,721.6066858416889,"[82, 0, 172]",172,l,0.12577060784678906,colour,0.5
103,22,0,2,10,22,472,722.1139599704184,722.6467092046514,"[93, 0, 161]",161,l,0.00959525688085705,colour,0.5
103,22,0,2,10,23,473,723.1607448720606,725.3106999540469,"[60, 0, 194]",194,l,1.6266983108362183,colour,0.5
103,22,0,2,10,24,474,725.8185175893595,726.470687461202,"[94, 0, 160]",160,l,0.12910254043526947,colour,0.5
103,22,0,2,10,25,475,726.9902980111074,727.9026914216811,"[20, 0, 234]",234,a,0.3893556175753474,colour,0.5
103,22,0,2,10,26,476,728.4123002662091,729.4307129351655,"[13, 0, 241]",241,a,0.4961834406713024,colour,0.5
103,22,0,2,10,27,477,729.9435229555238,730.8306905647041,"[19, 0, 235]",235,a,0.3645457170205191,colour,0.5
103,22,0,2,10,28,478,731.3513125097379,732.2546927671647,"[50, 0, 204]",204,a,0.3801278186729178,colour,0.5
103,22,0,2,10,29,479,732.7731804635841,733.4787132439669,"[69, 0, 185]",185,l,0.182313424651511,colour,0.5
103,22,0,2,10,30,480,733.9918560637161,734.7586503231432,"[10, 0, 244]",244,a,0.2435268545523286,colour,0.5
103,22,0,2,10,31,481,735.2731452144217,736.1426831195131,"[30, 0, 224]",224,a,0.3463012201245874,colour,0.5
103,22,0,2,10,32,482,736.6637977651553,737.5986769944429,"[70, 0, 184]",184,l,0.4117673933506012,colour,0.5
103,22,0,2,10,33,483,738.1169681620086,739.0386705037672,"[46, 0, 208]",208,a,0.3949383769650012,colour,0.5
103,22,0,2,10,34,484,739.5556379568297,740.2146780687617,"[52, 0, 202]",202,a,0.13639025669544935,colour,0.5
103,22,0,2,10,35,485,740.7276416888926,741.2946917116642,"[25, 0, 229]",229,a,0.044020500499755144,colour,0.5
103,22,0,2,10,36,486,741.8056853167946,742.9506673121359,"[62, 0, 192]",192,l,0.6219575931318104,colour,0.5
103,22,0,2,10,37,487,743.4618980122032,744.1106741176918,"[61, 0, 193]",193,l,0.12545789452269673,colour,0.5
103,22,0,2,10,38,488,744.6181774644647,745.3906450676732,"[56, 0, 198]",198,l,0.24924706597812474,colour,0.5
103,22,0,2,10,39,489,745.9008446803782,746.7026785823982,"[44, 0, 210]",210,a,0.2784479495603591,colour,0.5
103,22,0,2,10,40,490,747.2132976404391,747.9186768210493,"[0, 0, 254]",254,a,0.1820846003247425,colour,0.5
103,22,0,2,10,41,491,748.4320496466244,749.0626627813326,"[75, 0, 179]",179,l,0.10778289823792875,colour,0.5
103,22,0,2,10,42,492,749.5727009173715,750.2306343235541,"[88, 0, 166]",166,l,0.1349247577600181,colour,0.5
103,22,0,2,10,43,493,750.7446294249967,751.3426510604331,"[4, 0, 250]",250,a,0.07485032884869725,colour,0.5
103,22,0,2,10,44,494,751.8553098441334,752.4066722146235,"[74, 0, 180]",180,l,0.028616810799576342,colour,0.5
103,22,0,2,10,45,495,752.9193388753338,753.5106304796645,"[7, 0, 247]",247,a,0.06850981083698571,colour,0.5
103,22,0,2,10,46,496,754.0286435923772,754.7826296037529,"[45, 0, 209]",209,l,0.23057209595572203,colour,0.5
103,22,0,2,10,47,497,755.2942781738238,756.0226760460064,"[37, 0, 217]",217,a,0.20520017785020173,colour,0.5
103,22,0,2,10,48,498,756.544332229183,757.2146142658312,"[21, 0, 233]",233,a,0.1471796529367566,colour,0.5
103,22,0,2,10,49,499,757.731816450716,758.4946994310012,"[96, 0, 158]",158,l,0.23878889379557222,colour,0.5
103,22,0,2,10,50,500,759.0143178578,759.5826671766117,"[36, 0, 218]",218,a,0.04504961858037859,colour,0.5
103,22,0,2,11,1,501,764.0943535559345,764.9746213866165,"[83, 0, 171]",171,l,0.35607016284484416,colour,0.5
103,22,0,2,11,2,502,765.4982771230862,766.0306451149518,"[87, 0, 167]",167,l,0.009168328368104994,colour,0.5
103,22,0,2,11,3,503,766.5451159816002,767.1586570973741,"[38, 0, 216]",216,a,0.09018352022394538,colour,0.5
103,22,0,2,11,4,504,767.670209569158,768.4866114207543,"[36, 0, 218]",218,a,0.2913723820820451,colour,0.5
103,22,0,2,11,5,505,769.0002851441968,769.6706321652746,"[55, 0, 199]",199,a,0.14739863097202033,colour,0.5
103,22,0,2,11,6,506,770.1879347808426,770.726684250636,"[49, 0, 205]",205,a,0.015778630506247282,colour,0.5
103,22,0,2,11,7,507,771.2347685192944,771.822590345284,"[70, 0, 184]",184,l,0.06469975004438311,colour,0.5
103,22,0,2,11,8,508,772.344290245208,773.014595124987,"[47, 0, 207]",207,a,0.14586105849593878,colour,0.5
103,22,0,2,11,9,509,773.5352190391859,774.2626102423528,"[46, 0, 208]",208,a,0.20617179467808455,colour,0.5
103,22,0,2,11,10,510,774.7835110299056,776.1426252241945,"[41, 0, 213]",213,a,0.8359302845783532,colour,0.5
103,22,0,2,11,11,511,776.6473468404729,777.3505626280094,"[23, 0, 231]",231,a,0.17985819198656827,colour,0.5
103,22,0,2,11,12,512,777.8662441755878,778.4306865475373,"[86, 0, 168]",168,l,0.04580186342354864,colour,0.5
103,22,0,2,11,13,513,778.9402244997909,779.4787766530644,"[26, 0, 228]",228,a,0.015758150606416166,colour,0.5
103,22,0,2,11,14,514,779.9870751737617,780.5186082131695,"[84, 0, 170]",170,l,0.008751639863476157,colour,0.5
103,22,0,2,11,15,515,781.0340715703787,781.7268240657868,"[12, 0, 242]",242,a,0.1700026033213362,colour,0.5
103,22,0,2,11,16,516,782.2369346693158,783.8465692319442,"[51, 0, 203]",203,a,1.0837287869071588,colour,0.5
103,22,0,2,11,17,517,784.3645559570286,784.98277398746,"[24, 0, 230]",230,a,0.09531375102233142,colour,0.5
103,22,0,2,11,18,518,785.4895833785413,787.6946035689907,"[28, 0, 226]",226,a,1.6823707290459424,colour,0.5
103,22,0,2,11,19,519,788.209764452884,788.7665800076211,"[64, 0, 190]",190,l,0.033571780542843044,colour,0.5
103,22,0,2,11,20,520,789.2878368314123,790.2945987640414,"[35, 0, 219]",219,a,0.4836174075026065,colour,0.5
103,22,0,2,11,21,521,790.8035006560385,791.3506232801592,"[75, 0, 179]",179,l,0.023971403599716723,colour,0.5
103,22,0,2,11,22,522,791.8684985470027,792.4305825723568,"[72, 0, 182]",182,l,0.03883237426634878,colour,0.5
103,22,0,2,11,23,523,792.9466205500066,794.486565734609,"[21, 0, 233]",233,a,1.0174036368262023,colour,0.5
103,22,0,2,11,24,524,794.9936441220343,795.6386113482295,"[92, 0, 162]",162,l,0.12193297769408673,colour,0.5
103,22,0,2,11,25,525,796.1496896301396,796.9265986286337,"[67, 0, 187]",187,l,0.2533241541823372,colour,0.5
103,22,0,2,11,26,526,797.4476691635791,798.0865888927365,"[62, 0, 192]",192,l,0.11576535785570741,colour,0.5
103,22,0,2,11,27,527,798.6039340435527,799.3266223381506,"[56, 0, 198]",198,a,0.19968240312300622,colour,0.5
103,22,0,2,11,28,528,799.8382417636458,800.5265351406997,"[53, 0, 201]",201,a,0.1652697625104338,colour,0.5
103,22,0,2,11,29,529,801.0414085173979,801.7425621300936,"[69, 0, 185]",185,l,0.17096713080536574,colour,0.5
103,22,0,2,11,30,530,802.2515928095672,802.7905671651242,"[14, 0, 240]",240,a,0.02217546838801354,colour,0.5
103,22,0,2,11,31,531,803.3080261371797,804.1985359189566,"[3, 0, 251]",251,a,0.367166364681907,colour,0.5
103,22,0,2,11,32,532,804.7142068326939,806.0545542910695,"[80, 0, 174]",174,l,0.8173510191263631,colour,0.5
103,22,0,2,11,33,533,806.5762845171848,807.2145252567716,"[42, 0, 212]",212,a,0.11492016562260687,colour,0.5
103,22,0,2,11,34,534,807.7323678344255,808.2625688884873,"[39, 0, 215]",215,a,0.012039461638778448,colour,0.5
103,22,0,2,11,35,535,808.7626124084927,809.990539044491,"[31, 0, 223]",223,a,0.7104952330701053,colour,0.5
103,22,0,2,11,36,536,810.4967576672789,811.3345870746998,"[6, 0, 248]",248,a,0.3147215098142624,colour,0.5
103,22,0,2,11,37,537,811.8404709289316,812.5825395706343,"[40, 0, 214]",214,a,0.21883589518256485,colour,0.5
103,22,0,2,11,38,538,813.092288624146,814.1905715761241,"[71, 0, 183]",183,l,0.5679739841725677,colour,0.5
103,22,0,2,11,39,539,814.7008960378589,815.2785928847734,"[43, 0, 211]",211,a,0.05452790332492441,colour,0.5
103,22,0,2,11,40,540,815.794644253212,816.3985794782639,"[76, 0, 178]",178,l,0.0806146509712562,colour,0.5
103,22,0,2,11,41,541,816.9196736438898,817.7745396242244,"[44, 0, 210]",210,a,0.3315966061782092,colour,0.5
103,22,0,2,11,42,542,818.2959910078207,818.9185161321657,"[93, 0, 161]",161,l,0.09987802605610341,colour,0.5
103,22,0,2,11,43,543,819.4366966291564,820.0225224462338,"[45, 0, 209]",209,a,0.06266435654833913,colour,0.5
103,22,0,2,11,44,544,820.5304381492315,821.190514862421,"[58, 0, 196]",196,a,0.13722835993394256,colour,0.5
103,22,0,2,11,45,545,821.7023020661436,822.4386603425955,"[74, 0, 180]",180,l,0.21345242171082646,colour,0.5
103,22,0,2,11,46,546,822.9527432714822,824.17455703218,"[48, 0, 206]",206,l,0.703888475545682,colour,0.5
103,22,0,2,11,47,547,824.695103752776,825.422542217304,"[66, 0, 188]",188,a,0.196573780849576,colour,0.5
103,22,0,2,11,48,548,825.9508701425511,827.6145446340088,"[37, 0, 217]",217,a,1.1559501974843442,colour,0.5
103,22,0,2,11,49,549,828.1268591966946,828.7026076902403,"[90, 0, 164]",164,l,0.05228534736670554,colour,0.5
103,22,0,2,11,50,550,829.2125225525815,829.870520155644,"[68, 0, 186]",186,a,0.13405081466771662,colour,0.5
103,22,0,2,12,1,551,846.464653354953,847.5424543740228,"[12, 0, 242]",242,a,0.5545863894512877,colour,0.5
103,22,0,2,12,2,552,848.050934457453,848.9744874790777,"[18, 0, 236]",236,a,0.40692073106765747,colour,0.5
103,22,0,2,12,3,553,849.4817206477746,850.1664682342671,"[34, 0, 220]",220,a,0.16148333228193223,colour,0.5
103,22,0,2,12,4,554,850.6849169400521,851.3824558391934,"[47, 0, 207]",207,a,0.17444045399315655,colour,0.5
103,22,0,2,12,5,555,851.9038631119765,852.5344687636243,"[61, 0, 193]",193,l,0.10763402469456196,colour,0.5
103,22,0,2,12,6,556,853.0362570189172,853.9184539045673,"[97, 0, 157]",157,l,0.36502620845567435,colour,0.5
103,22,0,2,12,7,557,854.4364327527583,854.97456506663,"[35, 0, 219]",219,a,0.01490823202766478,colour,0.5
103,22,0,2,12,8,558,855.4833314757561,856.4144396347692,"[78, 0, 176]",176,l,0.4075737268431112,colour,0.5
103,22,0,2,12,9,559,856.9207961035427,857.7664409801364,"[15, 0, 239]",239,a,0.32245742238592356,colour,0.5
103,22,0,2,12,10,560,858.2801261250861,858.8065249952488,"[14, 0, 240]",240,a,0.0034922276390716434,colour,0.5
103,22,0,2,12,11,561,859.3270677772816,860.0544432266615,"[72, 0, 182]",182,l,0.20278511755168438,colour,0.5
103,22,0,2,12,12,562,860.5627708918182,861.2304563054349,"[67, 0, 187]",187,l,0.14449599001090974,colour,0.5
103,22,0,2,12,13,563,861.7501771320822,862.6544218802592,"[11, 0, 243]",243,a,0.3809017250314355,colour,0.5
103,22,0,2,12,14,564,863.1721939594718,863.7424408257939,"[17, 0, 237]",237,a,0.047269725473597646,colour,0.5
103,22,0,2,12,15,565,864.2502458581002,865.182488685823,"[94, 0, 160]",160,a,0.4089919643010944,colour,0.5
103,22,0,2,12,16,566,865.7033918364905,866.5264544023667,"[69, 0, 185]",185,l,0.2996714934706688,colour,0.5
103,22,0,2,12,17,567,867.0339171830565,867.8304381098133,"[8, 0, 246]",246,a,0.27400064666289836,colour,0.5
103,22,0,2,12,18,568,868.3463764446788,869.3505086711375,"[77, 0, 177]",177,l,0.48196168115828186,colour,0.5
103,22,0,2,12,19,569,869.8610359632876,870.5264870915562,"[79, 0, 175]",175,l,0.14241254760418087,colour,0.5
103,22,0,2,12,20,570,871.032729345141,871.7184229482664,"[51, 0, 203]",203,a,0.16251678264234215,colour,0.5
103,22,0,2,12,21,571,872.2358728620457,873.0384298642166,"[25, 0, 229]",229,a,0.2792612403864041,colour,0.5
103,22,0,2,12,22,572,873.5506333626108,874.2464539139764,"[84, 0, 170]",170,l,0.17263782327063382,colour,0.5
103,22,0,2,12,23,573,874.7538127194857,875.3904130926821,"[42, 0, 212]",212,a,0.11349759576842189,colour,0.5
103,22,0,2,12,24,574,875.9099594458239,876.5586981360102,"[68, 0, 186]",186,l,0.12542835611384362,colour,0.5
103,22,0,2,12,25,575,877.0818670795998,877.6465764787281,"[46, 0, 208]",208,a,0.04150264640338719,colour,0.5
103,22,0,2,12,26,576,878.1611016960815,878.9104478141526,"[9, 0, 245]",245,a,0.22592432575765997,colour,0.5
103,22,0,2,12,27,577,879.4244216477964,880.0064708809368,"[76, 0, 178]",178,l,0.05882160656619817,colour,0.5
103,22,0,2,12,28,578,880.5216388540575,881.2144965060288,"[60, 0, 194]",194,a,0.1699903941480443,colour,0.5
103,22,0,2,12,29,579,881.7245964758331,882.2784483435098,"[88, 0, 166]",166,l,0.030604548868723214,colour,0.5
103,22,0,2,12,30,580,882.7870513066882,883.7344221322564,"[41, 0, 213]",213,a,0.42413886671420187,colour,0.5
103,22,0,2,12,31,581,884.2558869065251,885.0064082595054,"[70, 0, 184]",184,l,0.2273776155197993,colour,0.5
103,22,0,2,12,32,582,885.5215498448815,886.262436162564,"[71, 0, 183]",183,l,0.21788554603699595,colour,0.5
103,22,0,2,12,33,583,886.7715081957867,887.5263917809352,"[83, 0, 171]",171,l,0.23187808750662953,colour,0.5
103,22,0,2,12,34,584,888.0371242664987,888.6544301509857,"[19, 0, 235]",235,a,0.09419326076749712,colour,0.5
103,22,0,2,12,35,585,889.162043380551,889.9263686228078,"[2, 0, 252]",252,a,0.24081247160211205,colour,0.5
103,22,0,2,12,36,586,890.4433565557702,891.0624296248425,"[32, 0, 222]",222,a,0.09586986096110195,colour,0.5
103,22,0,2,12,37,587,891.5840460296022,892.1504253334133,"[87, 0, 167]",167,l,0.04328085866291076,colour,0.5
103,22,0,2,12,38,588,892.6621144696837,893.1904380625347,"[95, 0, 159]",159,a,0.005236175376921892,colour,0.5
103,22,0,2,12,39,589,893.7088938575471,894.2464361910243,"[85, 0, 169]",169,l,0.01429619628470391,colour,0.5
103,22,0,2,12,40,590,894.7558004574385,895.66238858609,"[80, 0, 174]",174,l,0.38396229792851955,colour,0.5
103,22,0,2,12,41,591,896.1790252089268,896.8304152667988,"[5, 0, 249]",249,a,0.12827034504152834,colour,0.5
103,22,0,2,12,42,592,897.3509072427405,897.9024137606611,"[27, 0, 227]",227,a,0.028911407222039998,colour,0.5
103,22,0,2,12,43,593,898.4133857042762,900.9424316097284,"[38, 0, 216]",216,a,2.0058415157254785,colour,0.5
103,22,0,2,12,44,594,901.4615033790469,902.2863992955536,"[4, 0, 250]",250,a,0.30233822111040354,colour,0.5
103,22,0,2,12,45,595,902.8053891449235,903.6383640132844,"[89, 0, 165]",165,a,0.31543791480362415,colour,0.5
103,22,0,2,12,46,596,904.144347510417,904.8544126641937,"[33, 0, 221]",221,l,0.1962299537844956,colour,0.5
103,22,0,2,12,47,597,905.3696007234976,905.95839259075,"[56, 0, 198]",198,l,0.06567294208798558,colour,0.5
103,22,0,2,12,48,598,906.4788396683289,908.1743837401737,"[55, 0, 199]",199,l,1.1723963959375396,colour,0.5
103,22,0,2,12,49,599,908.6842095935717,909.2624231657246,"[43, 0, 211]",211,l,0.05497176724020392,colour,0.5
103,22,0,2,12,50,600,909.7778790398734,911.9183849815745,"[39, 0, 215]",215,a,1.6172491706674919,colour,0.5
103,22,0,2,13,1,601,916.4150272521656,917.3103321023518,"[51, 0, 203]",203,a,0.36612621881067753,colour,0.5
103,22,0,2,13,2,602,917.8274177089334,918.7663244018331,"[30, 0, 224]",224,a,0.4157263278029859,colour,0.5
103,22,0,2,13,3,603,919.2805357243633,920.1983535685576,"[44, 0, 210]",210,a,0.39437242108397186,colour,0.5
103,22,0,2,13,4,604,920.7180212259991,921.5903696122114,"[85, 0, 169]",169,l,0.34913966432213783,colour,0.5
103,22,0,2,13,5,605,922.1086867735721,922.6943444187054,"[74, 0, 180]",180,l,0.06250957539305091,colour,0.5
103,22,0,2,13,6,606,923.202423567418,923.9103639250388,"[39, 0, 215]",215,a,0.1846812234725803,colour,0.5
103,22,0,2,13,7,607,924.4212137765717,925.4223086669808,"[43, 0, 211]",211,a,0.4782957676798105,colour,0.5
103,22,0,2,13,8,608,925.9381481466116,926.5583873919677,"[84, 0, 170]",170,l,0.09750904561951756,colour,0.5
103,22,0,2,13,9,609,927.0787123774644,927.7823554873466,"[59, 0, 195]",195,a,0.18038712651468813,colour,0.5
103,22,0,2,13,10,610,928.2975392142544,928.9183444154914,"[48, 0, 206]",206,a,0.09757481783162802,colour,0.5
103,22,0,2,13,11,611,929.4381656727055,930.4463336336194,"[33, 0, 221]",221,a,0.4836733335396275,colour,0.5
103,22,0,2,13,12,612,930.955426146742,931.8303195623448,"[20, 0, 234]",234,a,0.35196983779314905,colour,0.5
103,22,0,2,13,13,613,932.3449834132334,933.1023245940451,"[17, 0, 237]",237,a,0.23342511244118214,colour,0.5
103,22,0,2,13,14,614,933.6113639380783,934.2863760587061,"[62, 0, 192]",192,l,0.15177937410771847,colour,0.5
103,22,0,2,13,15,615,934.7989537102403,935.4063598952489,"[31, 0, 223]",223,a,0.08431955520063639,colour,0.5
103,22,0,2,13,16,616,935.925646704156,936.8943151165731,"[53, 0, 201]",201,l,0.44572277925908566,colour,0.5
103,22,0,2,13,17,617,937.4097820183961,938.4463194551645,"[4, 0, 250]",250,a,0.5136961726238951,colour,0.5
103,22,0,2,13,18,618,938.9566478553461,940.1423337785527,"[36, 0, 218]",218,a,0.6623192692641169,colour,0.5
103,22,0,2,13,19,619,940.6597541538067,941.366323141614,"[68, 0, 186]",186,l,0.18337601970415562,colour,0.5
103,22,0,2,13,20,620,941.8784919815371,942.7503275809577,"[50, 0, 204]",204,a,0.3486367235891521,colour,0.5
103,22,0,2,13,21,621,943.2691453199368,944.0463044103235,"[37, 0, 217]",217,a,0.25264989072456956,colour,0.5
103,22,0,2,13,22,622,944.5673166561173,945.1742970942287,"[64, 0, 190]",190,l,0.08407418942078948,colour,0.5
103,22,0,2,13,23,623,945.6923235976137,946.4622965838062,"[63, 0, 191]",191,l,0.24681034416425973,colour,0.5
103,22,0,2,13,24,624,946.9736395298969,947.7742848062189,"[12, 0, 242]",242,a,0.27746648667380214,colour,0.5
103,22,0,2,13,25,625,948.286875848542,948.9823435144499,"[35, 0, 219]",219,a,0.18450990074779838,colour,0.5
103,22,0,2,13,26,626,949.4972736048512,950.0382809906732,"[97, 0, 157]",157,l,0.017988891224376857,colour,0.5
103,22,0,2,13,27,627,950.5442617308581,951.2702973178821,"[29, 0, 225]",225,a,0.20284931431524456,colour,0.5
103,22,0,2,13,28,628,951.7785757525126,952.798271569889,"[18, 0, 236]",236,a,0.49679075030144304,colour,0.5
103,22,0,2,13,29,629,953.3112403099658,955.3423044764204,"[89, 0, 165]",165,l,1.507855050615035,colour,0.5
103,22,0,2,13,30,630,955.8581061469158,956.662308635423,"[88, 0, 166]",166,l,0.2735532382503152,colour,0.5
103,22,0,2,13,31,631,957.1717626986792,957.9022826101864,"[40, 0, 214]",214,a,0.20758333674166352,colour,0.5
103,22,0,2,13,32,632,958.421801000135,959.0223129205406,"[9, 0, 245]",245,a,0.07755171495955437,colour,0.5
103,22,0,2,13,33,633,959.5310564865358,960.1742636173731,"[82, 0, 172]",172,l,0.119881042977795,colour,0.5
103,22,0,2,13,34,634,960.6880235929275,961.4222913377453,"[47, 0, 207]",207,a,0.2118388368980959,colour,0.5
103,22,0,2,13,35,635,961.9373596679652,962.6142732744338,"[67, 0, 187]",187,l,0.15415583760477602,colour,0.5
103,22,0,2,13,36,636,963.1264188775094,963.8302829347085,"[45, 0, 209]",209,a,0.18053875700570643,colour,0.5
103,22,0,2,13,37,637,964.3451314991107,965.1502650383627,"[26, 0, 228]",228,a,0.2817731867544353,colour,0.5
103,22,0,2,13,38,638,965.6570086571155,967.350253853132,"[38, 0, 216]",216,a,1.1701207569567487,colour,0.5
103,22,0,2,13,39,639,967.8601324817864,968.7022492907709,"[56, 0, 198]",198,a,0.3169514627661556,colour,0.5
103,22,0,2,13,40,640,969.2214088876499,970.2222509292187,"[54, 0, 200]",200,a,0.4777790424413979,colour,0.5
103,22,0,2,13,41,641,970.7359860925935,971.406264978461,"[71, 0, 183]",183,l,0.14699178864248097,colour,0.5
103,22,0,2,13,42,642,971.9248082072008,972.8302317347843,"[57, 0, 197]",197,l,0.3820797166554257,colour,0.5
103,22,0,2,13,43,643,973.346858117613,974.0542482731398,"[23, 0, 231]",231,a,0.18270805769134313,colour,0.5
103,22,0,2,13,44,644,974.5671748718014,975.2543103431817,"[98, 0, 156]",156,l,0.16385034343693405,colour,0.5
103,22,0,2,13,45,645,975.7701580935391,976.4542408687994,"[91, 0, 163]",163,l,0.16090044099837542,colour,0.5
103,22,0,2,13,46,646,976.9733492657542,977.8542618213687,"[69, 0, 185]",185,l,0.3577538520330563,colour,0.5
103,22,0,2,13,47,647,978.364028204116,979.6222376172664,"[60, 0, 194]",194,l,0.7357289114734158,colour,0.5
103,22,0,2,13,48,648,980.129609813448,981.0782566983253,"[28, 0, 226]",226,a,0.4254692767281085,colour,0.5
103,22,0,2,13,49,649,981.5983630995033,982.6542379544117,"[1, 0, 253]",253,a,0.5326862189685926,colour,0.5
103,22,0,2,13,50,650,983.1631666277535,983.7822294568177,"[83, 0, 171]",171,l,0.09594863001257181,colour,0.5
103,22,0,2,14,1,651,988.3233400300378,989.1822216586443,"[33, 0, 221]",221,a,0.3335024242987856,colour,0.5
103,22,0,2,14,2,652,989.7004545370582,990.7902012825944,"[15, 0, 239]",239,a,0.5668294691713527,colour,0.5
103,22,0,2,14,3,653,991.3098149832804,991.8862826385302,"[36, 0, 218]",218,a,0.05315338273067027,colour,0.5
103,22,0,2,14,4,654,992.4035545340739,992.9502128143795,"[71, 0, 183]",183,l,0.022239271318539977,colour,0.5
103,22,0,2,14,5,655,993.4674961315468,994.1422061725752,"[65, 0, 189]",189,l,0.1514745376771316,colour,0.5
103,22,0,2,14,6,656,994.6549575100653,995.3342227677349,"[76, 0, 178]",178,l,0.15629875066224486,colour,0.5
103,22,0,2,14,7,657,995.8424779654015,996.9185752089834,"[34, 0, 220]",220,a,0.5461139859398827,colour,0.5
103,22,0,2,14,8,658,997.4279406570131,998.2062344161095,"[87, 0, 167]",167,l,0.26126959233079106,colour,0.5
103,22,0,2,14,9,659,998.7189314027783,999.8782678834395,"[39, 0, 215]",215,a,0.6361013710265979,colour,0.5
103,22,0,2,14,10,660,1000.3908829503926,1000.9662277521566,"[83, 0, 171]",171,l,0.05255394987761974,colour,0.5
103,22,0,2,14,11,661,1001.4845157690579,1002.1902234167792,"[61, 0, 193]",193,a,0.17952342343050987,colour,0.5
103,22,0,2,14,12,662,1002.7062999913469,1003.3422158611938,"[69, 0, 185]",185,a,0.11280521540902555,colour,0.5
103,22,0,2,14,13,663,1003.8612801474519,1004.9742543225875,"[9, 0, 245]",245,a,0.5900659572798759,colour,0.5
103,22,0,2,14,14,664,1005.4862585351802,1006.0702143741073,"[21, 0, 233]",233,a,0.06078295689076185,colour,0.5
103,22,0,2,14,15,665,1006.5800016305875,1007.4541912443237,"[80, 0, 174]",174,l,0.3509631687775254,colour,0.5
103,22,0,2,14,16,666,1007.9705895906081,1009.0141922209878,"[49, 0, 205]",205,a,0.5174507013289258,colour,0.5
103,22,0,2,14,17,667,1009.520800750819,1010.2061800654046,"[59, 0, 195]",195,a,0.16287596977781504,colour,0.5
103,22,0,2,14,18,668,1010.7239226062084,1011.6542202313431,"[32, 0, 222]",222,a,0.4077938864938915,colour,0.5
103,22,0,2,14,19,669,1012.1613139787223,1012.8701688455185,"[25, 0, 229]",229,a,0.18464105122257024,colour,0.5
103,22,0,2,14,20,670,1013.3810253924457,1014.3501900502015,"[14, 0, 240]",240,a,0.4457278993213549,colour,0.5
103,22,0,2,14,21,671,1014.8654683000641,1015.5114181705285,"[10, 0, 244]",244,a,0.12306213262490928,colour,0.5
103,22,0,2,14,22,672,1016.0216945831198,1016.6542052652221,"[86, 0, 168]",168,l,0.10946658754255623,colour,0.5
103,22,0,2,14,23,673,1017.1624029614031,1017.8541751754237,"[1, 0, 253]",253,a,0.16870055021718144,colour,0.5
103,22,0,2,14,24,674,1018.3537578961113,1019.02216877311,"[88, 0, 166]",166,l,0.14531321940012276,colour,0.5
103,22,0,2,14,25,675,1019.5385537286056,1020.0861781119602,"[35, 0, 219]",219,a,0.02515215240418911,colour,0.5
103,22,0,2,14,26,676,1020.6009589349851,1021.278163199313,"[66, 0, 188]",188,a,0.1540042069973424,colour,0.5
103,22,0,2,14,27,677,1021.7767991155852,1022.9741282920586,"[2, 0, 252]",252,a,0.6741228175815195,colour,0.5
103,22,0,2,14,28,678,1023.4955213863868,1024.3021609906573,"[29, 0, 225]",225,a,0.28355021739844233,colour,0.5
103,22,0,2,14,29,679,1024.823545026593,1025.534159988747,"[23, 0, 231]",231,a,0.19243840361014009,colour,0.5
103,22,0,2,14,30,680,1026.044606936397,1026.6461960240267,"[95, 0, 159]",159,l,0.07822203985415399,colour,0.5
103,22,0,2,14,31,681,1027.154080613167,1027.8221874412848,"[85, 0, 169]",169,l,0.14499617379624397,colour,0.5
103,22,0,2,14,32,682,1028.3416885021143,1029.2222048493568,"[92, 0, 162]",162,l,0.35742932348512113,colour,0.5
103,22,0,2,14,33,683,1029.7330389469862,1030.6941872743191,"[44, 0, 210]",210,a,0.43916643399279565,colour,0.5
103,22,0,2,14,34,684,1031.202342829085,1032.1821468280395,"[52, 0, 202]",202,a,0.4566204830771312,colour,0.5
103,22,0,2,14,35,685,1032.7022658323403,1033.5821476944257,"[0, 0, 254]",254,a,0.35663611872587353,colour,0.5
103,22,0,2,14,36,686,1034.092975096777,1034.6941979081603,"[55, 0, 199]",199,a,0.07794871111400425,colour,0.5
103,22,0,2,14,37,687,1035.2022995061707,1035.8381618129788,"[17, 0, 237]",237,a,0.11263980029616505,colour,0.5
103,22,0,2,14,38,688,1036.358574626036,1037.1741316791158,"[74, 0, 180]",180,l,0.2923885033233091,colour,0.5
103,22,0,2,14,39,689,1037.6809737592703,1038.4141454321798,"[57, 0, 197]",197,l,0.21736606396734715,colour,0.5
103,22,0,2,14,40,690,1038.9236711753765,1039.7581379301846,"[31, 0, 223]",223,a,0.31138563889544457,colour,0.5
103,22,0,2,14,41,691,1040.266391946352,1041.142108892789,"[27, 0, 227]",227,a,0.3524995598709211,colour,0.5
103,22,0,2,14,42,692,1041.6569373711245,1042.3741429430665,"[63, 0, 191]",191,l,0.19396613002754748,colour,0.5
103,22,0,2,14,43,693,1042.8913793925894,1043.710215602885,"[82, 0, 172]",172,l,0.29337311699055135,colour,0.5
103,22,0,2,14,44,694,1044.2203549571568,1044.830163993407,"[7, 0, 247]",247,a,0.08674012939445674,colour,0.5
103,22,0,2,14,45,695,1045.3452977018896,1045.88609398657,"[91, 0, 163]",163,l,0.01804993732366711,colour,0.5
103,22,0,2,14,46,696,1046.3919329423225,1047.038316042861,"[40, 0, 214]",214,a,0.12072190293110907,colour,0.5
103,22,0,2,14,47,697,1047.5506337564439,1048.1821358003654,"[70, 0, 184]",184,l,0.10870764742139727,colour,0.5
103,22,0,2,14,48,698,1048.6912936917506,1049.3421099168481,"[94, 0, 160]",160,l,0.12767169997096062,colour,0.5
103,22,0,2,14,49,699,1049.8630496950354,1050.7581458071945,"[37, 0, 217]",217,a,0.3718216179404408,colour,0.5
103,22,0,2,14,50,700,1051.2693914733827,1051.9261488571065,"[84, 0, 170]",170,l,0.13176769262645394,colour,0.5
103,22,0,2,15,1,701,1056.4771008406533,1057.3260922221234,"[9, 0, 245]",245,a,0.32492959033697844,colour,0.5
103,22,0,2,15,2,702,1057.8383402250474,1058.8541495754616,"[34, 0, 220]",220,a,0.49295784637797624,colour,0.5
103,22,0,2,15,3,703,1059.3694687852403,1060.0620684685418,"[63, 0, 191]",191,l,0.1692763523897156,colour,0.5
103,22,0,2,15,4,704,1060.5725910344627,1061.1660881733987,"[83, 0, 171]",171,l,0.07026478624902666,colour,0.5
103,22,0,2,15,5,705,1061.681885117665,1062.3101737764664,"[89, 0, 165]",165,l,0.10488734638784081,colour,0.5
103,22,0,2,15,6,706,1062.8225777421612,1063.4220707842615,"[29, 0, 225]",225,a,0.07678529154509306,colour,0.5
103,22,0,2,15,7,707,1063.9333810411626,1064.662070358987,"[65, 0, 189]",189,l,0.20556330343242735,colour,0.5
103,22,0,2,15,8,708,1065.1833070967114,1065.91011304548,"[58, 0, 196]",196,a,0.20358738070353866,colour,0.5
103,22,0,2,15,9,709,1066.4177731426898,1066.9981359294616,"[22, 0, 232]",232,l,0.05794726952444762,colour,0.5
103,22,0,2,15,10,710,1067.5114091121359,1068.086086345953,"[45, 0, 209]",209,a,0.051959637203253806,colour,0.5
103,22,0,2,15,11,711,1068.6051652043825,1069.4700726685114,"[75, 0, 179]",179,a,0.34229029796551913,colour,0.5
103,22,0,2,15,12,712,1069.9815546419704,1070.5660650152713,"[4, 0, 250]",250,a,0.06134930660482496,colour,0.5
103,22,0,2,15,13,713,1071.0753426357405,1071.7261383808218,"[99, 0, 155]",155,l,0.1275606354465708,colour,0.5
103,22,0,2,15,14,714,1072.2472719310317,1073.006073884666,"[7, 0, 247]",247,a,0.23567121312953532,colour,0.5
103,22,0,2,15,15,715,1073.5128431033809,1074.1820842066081,"[82, 0, 172]",172,l,0.1438402374042198,colour,0.5
103,22,0,2,15,16,716,1074.7026202932466,1075.262071067933,"[1, 0, 253]",253,a,0.036291283438913524,colour,0.5
103,22,0,2,15,17,717,1075.7807600193191,1076.3500545673305,"[36, 0, 218]",218,a,0.04609567217994481,colour,0.5
103,22,0,2,15,18,718,1076.8587760779774,1078.4780882111518,"[57, 0, 197]",197,a,1.095870648510754,colour,0.5
103,22,0,2,15,19,719,1078.9854021181818,1079.5180887310999,"[80, 0, 174]",174,l,0.009367614169605076,colour,0.5
103,22,0,2,15,20,720,1080.032306748908,1080.8060606514337,"[87, 0, 167]",167,l,0.2507495863828808,colour,0.5
103,22,0,2,15,21,721,1081.3132867309032,1082.1340488455025,"[95, 0, 159]",159,l,0.2975557557074353,colour,0.5
103,22,0,2,15,22,722,1082.6295430565951,1083.334082558751,"[67, 0, 187]",187,a,0.1814327861648053,colour,0.5
103,22,0,2,15,23,723,1083.8482253521215,1084.9180328837829,"[41, 0, 213]",213,a,0.5465783297549933,colour,0.5
103,22,0,2,15,24,724,1085.4241124792024,1086.1580135538243,"[12, 0, 242]",242,a,0.21065730042755604,colour,0.5
103,22,0,2,15,25,725,1086.6742610574001,1087.4460555787664,"[69, 0, 185]",185,l,0.24866968858987093,colour,0.5
103,22,0,2,15,26,726,1087.965336086112,1088.806025993079,"[68, 0, 186]",186,l,0.31754735112190247,colour,0.5
103,22,0,2,15,27,727,1089.3208115422167,1090.0940215442097,"[97, 0, 157]",157,l,0.2500997413881123,colour,0.5
103,22,0,2,15,28,728,1090.5926519465866,1091.1661141671939,"[44, 0, 210]",210,a,0.050263344775885344,colour,0.5
103,22,0,2,15,29,729,1091.6864202481229,1092.310094613582,"[91, 0, 163]",163,l,0.10056174185592681,colour,0.5
103,22,0,2,15,30,730,1092.8270085036056,1093.3740287278779,"[23, 0, 231]",231,a,0.023786690086126328,colour,0.5
103,22,0,2,15,31,731,1093.8893778698985,1094.6540504839504,"[46, 0, 208]",208,a,0.24137685226742178,colour,0.5
103,22,0,2,15,32,732,1095.170721371309,1095.8780603269115,"[11, 0, 243]",243,a,0.18420624581631273,colour,0.5
103,22,0,2,15,33,733,1096.38946234982,1097.118096529157,"[54, 0, 200]",200,a,0.20390009391121566,colour,0.5
103,22,0,2,15,34,734,1097.6252907072194,1098.2380488581257,"[16, 0, 238]",238,a,0.08949389669578522,colour,0.5
103,22,0,2,15,35,735,1098.7503614517627,1099.718016893603,"[10, 0, 244]",244,a,0.4444226953200996,colour,0.5
103,22,0,2,15,36,736,1100.23466533178,1101.0300307160942,"[71, 0, 183]",183,l,0.27071164338849485,colour,0.5
103,22,0,2,15,37,737,1101.5486408984289,1102.422031793627,"[59, 0, 195]",195,l,0.35017547791358083,colour,0.5
103,22,0,2,15,38,738,1102.9391107049305,1103.6540209455416,"[42, 0, 212]",212,a,0.19237656984478235,colour,0.5
103,22,0,2,15,39,739,1104.1726078910287,1104.910057119443,"[52, 0, 202]",202,a,0.21419245726428926,colour,0.5
103,22,0,2,15,40,740,1105.4226328018121,1106.2860672838287,"[37, 0, 217]",217,a,0.3402363939676434,colour,0.5
103,22,0,2,15,41,741,1106.7975898233708,1107.3740342417732,"[14, 0, 240]",240,a,0.05354407744016498,colour,0.5
103,22,0,2,15,42,742,1107.8914057802176,1108.7980317180045,"[39, 0, 215]",215,a,0.38250546366907656,colour,0.5
103,22,0,2,15,43,743,1109.3143497197889,1110.0780113325454,"[62, 0, 192]",192,l,0.24028786947019398,colour,0.5
103,22,0,2,15,44,744,1110.595650292118,1111.1659991643392,"[21, 0, 233]",233,a,0.047182291746139526,colour,0.5
103,22,0,2,15,45,745,1111.6737793843495,1113.1260033706203,"[18, 0, 236]",236,a,0.9290042365901172,colour,0.5
103,22,0,2,15,46,746,1113.6425005721394,1114.757987481309,"[79, 0, 175]",175,l,0.5922766118310392,colour,0.5
103,22,0,2,15,47,747,1115.2696147836978,1116.2540571005084,"[33, 0, 221]",221,a,0.46132260386366397,colour,0.5
103,22,0,2,15,48,748,1116.76958189765,1117.4940161091508,"[15, 0, 239]",239,l,0.20183791918680072,colour,0.5
103,22,0,2,15,49,749,1118.0039573592367,1118.9980091112666,"[77, 0, 177]",177,l,0.47086941776797175,colour,0.5
103,22,0,2,15,50,750,1119.5039855191717,1120.1979896553094,"[84, 0, 170]",170,l,0.17085370339918882,colour,0.5
103,22,0,2,16,1,751,1126.5221205269918,1127.5820145746693,"[13, 0, 241]",241,a,0.5413571204990149,colour,0.5
103,22,0,2,16,2,752,1128.095674119657,1128.781948645017,"[38, 0, 216]",216,a,0.1599489104701206,colour,0.5
103,22,0,2,16,3,753,1129.3019687940832,1130.2620045080548,"[24, 0, 230]",230,a,0.43712119455449283,colour,0.5
103,22,0,2,16,4,754,1130.7707177479751,1131.4139827740146,"[78, 0, 176]",176,l,0.12078413052950054,colour,0.5
103,22,0,2,16,5,755,1131.9269822341157,1132.829932018416,"[51, 0, 203]",203,l,0.3798147115157917,colour,0.5
103,22,0,2,16,6,756,1133.3504822835093,1133.8785435752943,"[23, 0, 231]",231,a,0.005551645532250404,colour,0.5
103,22,0,2,16,7,757,1134.397354618879,1135.0939809781266,"[3, 0, 251]",251,a,0.17450662003830075,colour,0.5
103,22,0,2,16,8,758,1135.6004485111916,1136.7100301017053,"[48, 0, 206]",206,a,0.5863673547282815,colour,0.5
103,22,0,2,16,9,759,1137.226823868812,1137.837935351883,"[31, 0, 223]",223,a,0.08792481652926654,colour,0.5
103,22,0,2,16,10,760,1138.3517150197877,1138.9419278814457,"[74, 0, 180]",180,l,0.06578952039126307,colour,0.5
103,22,0,2,16,11,761,1139.462578577106,1140.486054917099,"[75, 0, 179]",179,l,0.5003522947663441,colour,0.5
103,22,0,2,16,12,762,1140.9938182018232,1141.6139609549427,"[91, 0, 163]",163,l,0.09680524375289679,colour,0.5
103,22,0,2,16,13,763,1142.1345171277644,1142.797944284277,"[25, 0, 229]",229,a,0.14021567767485976,colour,0.5
103,22,0,2,16,14,764,1143.3063680478372,1144.077949104947,"[26, 0, 228]",228,a,0.24843377503566444,colour,0.5
103,22,0,2,16,15,765,1144.5876071801176,1145.3179136273684,"[61, 0, 193]",193,a,0.21220117469783872,colour,0.5
103,22,0,2,16,16,766,1145.8253374173073,1146.8300202398095,"[56, 0, 198]",198,a,0.4818762168288231,colour,0.5
103,22,0,2,16,17,767,1147.3409571311204,1147.8785297906725,"[99, 0, 155]",155,l,0.0058600264601409435,colour,0.5
103,22,0,2,16,18,768,1148.4121253988706,1149.2779194089817,"[92, 0, 162]",162,l,0.3426676018862054,colour,0.5
103,22,0,2,16,19,769,1149.787000106764,1150.3419571047416,"[45, 0, 209]",209,a,0.03181916824541986,colour,0.5
103,22,0,2,16,20,770,1150.8585208661389,1151.44593860663,"[97, 0, 157]",157,l,0.0644874672871083,colour,0.5
103,22,0,2,16,21,771,1151.9522891676752,1152.7899500092026,"[7, 0, 247]",247,a,0.3143879227573052,colour,0.5
103,22,0,2,16,22,772,1153.296099315281,1153.9819575458532,"[5, 0, 249]",249,a,0.16275545302778482,colour,0.5
103,22,0,2,16,23,773,1154.4992219583364,1155.877915391815,"[36, 0, 218]",218,a,0.8555508775170892,colour,0.5
103,22,0,2,16,24,774,1156.3897549769608,1157.9659091312205,"[22, 0, 232]",232,a,1.0529426754219458,colour,0.5
103,22,0,2,16,25,775,1158.4834771985188,1160.333961254335,"[6, 0, 248]",248,a,1.3321834359085187,colour,0.5
103,22,0,2,16,26,776,1160.8443944173632,1161.493945610826,"[96, 0, 158]",158,l,0.126655972446315,colour,0.5
103,22,0,2,16,27,777,1162.0006683557294,1163.013940553763,"[1, 0, 253]",253,a,0.4903509832220152,colour,0.5
103,22,0,2,16,28,778,1163.5338870538399,1164.2699570354307,"[77, 0, 177]",177,l,0.21278957976028323,colour,0.5
103,22,0,2,16,29,779,1164.7839139337884,1165.325935077737,"[66, 0, 188]",188,a,0.01947211311198771,colour,0.5
103,22,0,2,16,30,780,1165.8465810472844,1166.6219217531616,"[62, 0, 192]",192,l,0.25195514725055546,colour,0.5
103,22,0,2,16,31,781,1167.12783790275,1167.7259197966196,"[72, 0, 182]",182,a,0.07478849519975483,colour,0.5
103,22,0,2,16,32,782,1168.2371847612085,1168.8938944896217,"[42, 0, 212]",212,a,0.13305635494180024,colour,0.5
103,22,0,2,16,33,783,1169.4096524432534,1170.325964616146,"[64, 0, 190]",190,l,0.3932129399618134,colour,0.5
103,22,0,2,16,34,784,1170.8482568596955,1171.7179574229522,"[50, 0, 204]",204,l,0.3464701797347516,colour,0.5
103,22,0,2,16,35,785,1172.238953127293,1173.070016269805,"[44, 0, 210]",210,a,0.30817028461024165,colour,0.5
103,22,0,2,16,36,786,1173.5826679642778,1174.3019152311608,"[16, 0, 238]",238,a,0.19602003414183855,colour,0.5
103,22,0,2,16,37,787,1174.8169583552517,1175.5499205023516,"[93, 0, 161]",161,l,0.2098361327080056,colour,0.5
103,22,0,2,16,38,788,1176.0708197145723,1176.725908374996,"[85, 0, 169]",169,l,0.13194649841170758,colour,0.5
103,22,0,2,16,39,789,1177.2427368005738,1177.9738821386127,"[79, 0, 175]",175,l,0.20800908363889903,colour,0.5
103,22,0,2,16,40,790,1178.4841305881273,1179.0939183566952,"[2, 0, 252]",252,a,0.0864833421073854,colour,0.5
103,22,0,2,16,41,791,1179.6091394989053,1180.1658967644908,"[27, 0, 227]",227,a,0.0263470794307068,colour,0.5
103,22,0,2,16,42,792,1180.6667374275858,1181.3418885756982,"[98, 0, 156]",156,l,0.15200937981717288,colour,0.5
103,22,0,2,16,43,793,1181.8607839021133,1182.925910974387,"[65, 0, 189]",189,l,0.5420443807961419,colour,0.5
103,22,0,2,16,44,794,1183.438914766768,1184.2298832603265,"[37, 0, 217]",217,a,0.27280453802086413,colour,0.5
103,22,0,2,16,45,795,1184.7463040557923,1185.4138409896987,"[82, 0, 172]",172,l,0.1444018610054627,colour,0.5
103,22,0,2,16,46,796,1185.933857987984,1186.6778812847333,"[39, 0, 215]",215,a,0.22089688840787858,colour,0.5
103,22,0,2,16,47,797,1187.1838951079408,1187.7818387621082,"[11, 0, 243]",243,a,0.07487750425934792,colour,0.5
103,22,0,2,16,48,798,1188.280882308376,1189.061838856549,"[69, 0, 185]",185,l,0.25482667447067797,colour,0.5
103,22,0,2,16,49,799,1189.5758461671649,1190.5578942974098,"[20, 0, 234]",234,a,0.45887091592885554,colour,0.5
103,22,0,2,16,50,800,1191.0682908328017,1191.7418571467279,"[83, 0, 171]",171,l,0.15034577657934278,colour,0.5
