id,age,condition,counterbalance,block,trialinblock,trial,tstart,tend,trialstim,trialintensity,response,RT,trialtype,colourfreq
066,63,0,1,Practice,1,NA,5.5138953030109406e-06,1.1881195683963597,"[63, 0, 191]",191,a,0.6327551153954118,colour,0.5
066,63,0,1,Practice,2,NA,1.704245576984249,2.884175913524814,"[72, 0, 182]",182,a,0.6574917705729604,colour,0.5
066,63,0,1,Practice,3,NA,3.3913891959236935,3.9240835015662014,"[71, 0, 183]",183,a,0.009722472750581801,colour,0.5
066,63,0,1,Practice,4,NA,4.438303691218607,4.988132250262424,"[47, 0, 207]",207,a,0.039323121192865074,colour,0.5
066,63,0,1,Practice,5,NA,5.504675341304392,6.644180970499292,"[27, 0, 227]",227,a,0.617098570917733,colour,0.5
066,63,0,1,Practice,6,NA,7.160349908284843,7.692206898122095,"[8, 0, 246]",246,a,0.008631520322524011,colour,0.5
066,63,0,1,Practice,7,NA,8.207271886640228,8.79615181335248,"[14, 0, 240]",240,a,0.06602703512180597,colour,0.5
066,63,0,1,Practice,8,NA,9.316704646567814,9.876146976952441,"[50, 0, 204]",204,a,0.03629326692316681,colour,0.5
066,63,0,1,Practice,9,NA,10.394725068239495,11.076297347201034,"[18, 0, 236]",236,a,0.15938616800121963,colour,0.5
066,63,0,1,Practice,10,NA,11.582155800657347,13.708108808496036,"[77, 0, 177]",177,l,1.6033419375307858,colour,0.5
066,63,0,1,1,1,1,4.7311515336623415,5.296170717920177,"[17, 0, 237]",237,a,0.040206910693086684,colour,0.5
066,63,0,1,1,2,2,5.810078194132075,27.04812950908672,"[67, 0, 187]",187,a,20.715028675855137,colour,0.5
066,63,0,1,1,3,3,27.55997362814378,28.119951194734313,"[6, 0, 248]",248,a,0.037067961296997964,colour,0.5
066,63,0,1,1,4,4,28.63826501555741,29.183940866496414,"[53, 0, 201]",201,a,0.02285564853809774,colour,0.5
066,63,0,1,1,5,5,29.700745864887722,31.21596209006384,"[78, 0, 176]",176,a,0.9924503734800965,colour,0.5
066,63,0,1,1,6,6,31.73193568037823,32.3919756320538,"[71, 0, 183]",183,a,0.13704921421594918,colour,0.5
066,63,0,1,1,7,7,32.90379887726158,33.8959881310584,"[10, 0, 244]",244,a,0.46920363628305495,colour,0.5
066,63,0,1,1,8,8,34.40381896344479,35.43202382302843,"[63, 0, 191]",191,a,0.5052881650626659,colour,0.5
066,63,0,1,1,9,9,35.95075393863954,36.5999560469063,"[85, 0, 169]",169,l,0.12640593037940562,colour,0.5
066,63,0,1,1,10,10,37.10695744026452,37.743976328289136,"[38, 0, 216]",216,a,0.11416599643416703,colour,0.5
066,63,0,1,1,11,11,38.263179846457206,38.86396415065974,"[45, 0, 209]",209,a,0.07800781866535544,colour,0.5
066,63,0,1,1,12,12,39.372600003378466,41.36797152971849,"[39, 0, 215]",215,a,1.4725966162513942,colour,0.5
066,63,0,1,1,13,13,41.8881636003498,42.5040144684026,"[18, 0, 236]",236,a,0.09299915796145797,colour,0.5
066,63,0,1,1,14,14,43.013178074150346,43.62397078296635,"[43, 0, 211]",211,a,0.08785238349810243,colour,0.5
066,63,0,1,1,15,15,44.13824768643826,45.90396192937624,"[83, 0, 171]",171,l,1.242808182258159,colour,0.5
066,63,0,1,1,16,16,46.419662584667094,46.98403861897532,"[13, 0, 241]",241,a,0.041830736212432384,colour,0.5
066,63,0,1,1,17,17,47.4975408280734,48.912008589017205,"[92, 0, 162]",162,l,0.8916294416412711,colour,0.5
066,63,0,1,1,18,18,49.41947156947572,49.975982506992295,"[87, 0, 167]",167,l,0.03367064893245697,colour,0.5
066,63,0,1,1,19,19,50.49777595384512,52.69596615456976,"[23, 0, 231]",231,a,1.6755054811947048,colour,0.5
066,63,0,1,1,20,20,53.21644848934375,53.79993548814673,"[60, 0, 194]",194,a,0.06055258121341467,colour,0.5
066,63,0,1,1,21,21,54.31026487692725,54.967925607343204,"[49, 0, 205]",205,a,0.13491102633997798,colour,0.5
066,63,0,1,1,22,22,55.482087901677005,56.16822327580303,"[65, 0, 189]",189,a,0.1631399104371667,colour,0.5
066,63,0,1,1,23,23,56.685183843248524,57.30399406712968,"[15, 0, 239]",239,a,0.09593133849557489,colour,0.5
066,63,0,1,1,24,24,57.81020737555809,59.5839600074105,"[30, 0, 224]",224,a,1.2508512972854078,colour,0.5
066,63,0,1,1,25,25,60.091477338573895,61.72792121197563,"[89, 0, 165]",165,l,1.113242428516969,colour,0.5
066,63,0,1,1,26,26,62.248092802707106,62.81587757077068,"[22, 0, 232]",232,a,0.04506184556521475,colour,0.5
066,63,0,1,1,27,27,63.32631999324076,63.87196000420954,"[74, 0, 180]",180,l,0.022871402325108647,colour,0.5
066,63,0,1,1,28,28,64.38866299658548,65.11202899017371,"[33, 0, 221]",221,a,0.20056036347523332,colour,0.5
066,63,0,1,1,29,29,65.62307635962497,67.47194046946242,"[93, 0, 161]",161,l,1.3261809657560661,colour,0.5
066,63,0,1,1,30,30,67.98253649182152,68.74391449452378,"[77, 0, 177]",177,l,0.2384995111497119,colour,0.5
066,63,0,1,1,31,31,69.26369696576148,69.82391832279973,"[37, 0, 217]",217,a,0.03748386225197464,colour,0.5
066,63,0,1,1,32,32,70.3418701995397,71.58387690596282,"[52, 0, 202]",202,a,0.7192117101512849,colour,0.5
066,63,0,1,1,33,33,72.09184952266514,72.71188303106464,"[31, 0, 223]",223,a,0.09705616161227226,colour,0.5
066,63,0,1,1,34,34,73.2324039627565,74.7278751321137,"[35, 0, 219]",219,a,0.9724989425158128,colour,0.5
066,63,0,1,1,35,35,75.24804987350944,75.77586246281862,"[51, 0, 203]",203,a,0.005022713099606335,colour,0.5
066,63,0,1,1,36,36,76.294926953502,76.83189251483418,"[86, 0, 168]",168,l,0.01406225748360157,colour,0.5
066,63,0,1,1,37,37,77.34184617502615,77.91189476766158,"[3, 0, 251]",251,a,0.04737490089610219,colour,0.5
066,63,0,1,1,38,38,78.41987723053899,78.9518783679232,"[27, 0, 227]",227,a,0.009259704151190817,colour,0.5
066,63,0,1,1,39,39,79.46683583653066,81.26392775925342,"[11, 0, 243]",243,a,1.274318981799297,colour,0.5
066,63,0,1,1,40,40,81.77932436577976,82.96795199497137,"[61, 0, 193]",193,a,0.665779463830404,colour,0.5
066,63,0,1,1,41,41,83.48237737815361,84.23192110809032,"[8, 0, 246]",246,a,0.2265025801025331,colour,0.5
066,63,0,1,1,42,42,84.74809083342552,86.43989443371538,"[96, 0, 158]",158,l,1.1690846162382513,colour,0.5
066,63,0,1,1,43,43,86.95118874427862,87.48814918554854,"[97, 0, 157]",157,l,0.014111488126218319,colour,0.5
066,63,0,1,1,44,44,87.99805440276396,88.62386877695099,"[95, 0, 159]",159,l,0.10297802416607738,colour,0.5
066,63,0,1,1,45,45,89.1386820981279,90.8398651315365,"[55, 0, 199]",199,a,1.178323446540162,colour,0.5
066,63,0,1,1,46,46,91.35814941406716,91.92784512101207,"[56, 0, 198]",198,a,0.04748950991779566,colour,0.5
066,63,0,1,1,47,47,92.43551487044897,93.04792943550274,"[4, 0, 250]",250,a,0.08979522390291095,colour,0.5
066,63,0,1,1,48,48,93.56048602121882,94.99186748196371,"[7, 0, 247]",247,a,0.9084431045921519,colour,0.5
066,63,0,1,1,49,49,95.51359003665857,96.55989249597769,"[21, 0, 233]",233,a,0.5232443741988391,colour,0.5
066,63,0,1,1,50,50,97.07608427666128,98.62388846930116,"[54, 0, 200]",200,a,1.0374925268115476,colour,0.5
066,63,0,1,2,1,51,104.1877895258367,104.7918336900184,"[15, 0, 239]",239,a,0.08015427715145051,colour,0.5
066,63,0,1,2,2,52,105.29805645067245,105.83202839153819,"[72, 0, 182]",182,l,0.011183639871887863,colour,0.5
066,63,0,1,2,3,53,106.34488587535452,107.79181084700394,"[22, 0, 232]",232,a,0.9240196985192597,colour,0.5
066,63,0,1,2,4,54,108.29806550918147,109.6638701002812,"[23, 0, 231]",231,a,0.8431387762539089,colour,0.5
066,63,0,1,2,5,55,110.17304709693417,110.78385831648484,"[57, 0, 197]",197,a,0.08806387870572507,colour,0.5
066,63,0,1,2,6,56,111.29803006304428,112.2398200755706,"[68, 0, 186]",186,a,0.41890403791330755,colour,0.5
066,63,0,1,2,7,57,112.75117306923494,113.36783998529427,"[25, 0, 229]",229,a,0.09427758085075766,colour,0.5
066,63,0,1,2,8,58,113.87600991863292,114.81584803236183,"[63, 0, 191]",191,l,0.4169978251447901,colour,0.5
066,63,0,1,2,9,59,115.3292411462171,115.86386923387181,"[47, 0, 207]",207,a,0.011813005316071212,colour,0.5
066,63,0,1,2,10,60,116.37612413382158,116.9279144378379,"[52, 0, 202]",202,a,0.02847543149255216,colour,0.5
066,63,0,1,2,11,61,117.43856441706885,117.99984561256133,"[73, 0, 181]",181,l,0.038484623888507485,colour,0.5
066,63,0,1,2,12,62,118.51665573089849,119.67983226908837,"[51, 0, 203]",203,a,0.6399664286291227,colour,0.5
066,63,0,1,2,13,63,120.18858942622319,121.01580069214106,"[66, 0, 188]",188,l,0.30378020892385393,colour,0.5
066,63,0,1,2,14,64,121.53232172783464,122.12780605151784,"[80, 0, 174]",174,l,0.07237267564050853,colour,0.5
066,63,0,1,2,15,65,122.64172691851854,124.24778481537942,"[62, 0, 192]",192,a,1.0828446365194395,colour,0.5
066,63,0,1,2,16,66,124.76672485086601,125.9998184372671,"[32, 0, 222]",222,a,0.7097499632509425,colour,0.5
066,63,0,1,2,17,67,126.51665494323242,127.48782347526867,"[2, 0, 252]",252,a,0.4477815858554095,colour,0.5
066,63,0,1,2,18,68,128.00104644778185,129.02380954264663,"[30, 0, 224]",224,a,0.49943837616592646,colour,0.5
066,63,0,1,2,19,69,129.53225477400701,130.56782966654282,"[1, 0, 253]",253,a,0.5123592690797523,colour,0.5
066,63,0,1,2,20,70,131.07915272784885,131.99985900335014,"[9, 0, 245]",245,a,0.39737210457678884,colour,0.5
066,63,0,1,2,21,71,132.51667778624687,133.2957961707143,"[12, 0, 242]",242,a,0.25629818206653,colour,0.5
066,63,0,1,2,22,72,133.81353694631252,134.35179471515585,"[91, 0, 163]",163,l,0.015013788593932986,colour,0.5
066,63,0,1,2,23,73,134.86042387248017,135.43976997840218,"[93, 0, 161]",161,l,0.05605643964372575,colour,0.5
066,63,0,1,2,24,74,135.95409296173602,136.59983277320862,"[83, 0, 171]",171,l,0.12220044690184295,colour,0.5
066,63,0,1,2,25,75,137.110392167815,138.33578764798585,"[42, 0, 212]",212,a,0.702636323752813,colour,0.5
066,63,0,1,2,26,76,138.84480159240775,139.79979094676673,"[35, 0, 219]",219,a,0.4317619155626744,colour,0.5
066,63,0,1,2,27,77,140.31343454646412,141.33586247859057,"[76, 0, 178]",178,l,0.49899726908188313,colour,0.5
066,63,0,1,2,28,78,141.84478150634095,142.82382064906415,"[17, 0, 237]",237,a,0.456135445041582,colour,0.5
066,63,0,1,2,29,79,143.34475118014961,144.37574879894964,"[33, 0, 221]",221,a,0.5082715455209836,colour,0.5
066,63,0,1,2,30,80,144.89160699257627,146.03176640544552,"[5, 0, 249]",249,a,0.6173195182345808,colour,0.5
066,63,0,1,2,31,81,146.54782349104062,147.75978253420908,"[40, 0, 214]",214,a,0.6893078004941344,colour,0.5
066,63,0,1,2,32,82,148.266660260153,149.21581754868384,"[19, 0, 235]",235,a,0.4263272399548441,colour,0.5
066,63,0,1,2,33,83,149.7353570171399,150.775788813713,"[61, 0, 193]",193,l,0.5174993481487036,colour,0.5
066,63,0,1,2,34,84,151.28232231852598,152.02379851497244,"[84, 0, 170]",170,l,0.21868750161956996,colour,0.5
066,63,0,1,2,35,85,152.53219884797,153.5118500267854,"[58, 0, 196]",196,a,0.45675299502909184,colour,0.5
066,63,0,1,2,36,86,154.03217364184093,154.89585028518923,"[75, 0, 179]",179,l,0.34068511810619384,colour,0.5
066,63,0,1,2,37,87,155.40712962963153,156.55985508055892,"[98, 0, 156]",156,l,0.6299619623459876,colour,0.5
066,63,0,1,2,38,88,157.07907474646345,158.20785162737593,"[94, 0, 160]",160,l,0.6057573927100748,colour,0.5
066,63,0,1,2,39,89,158.71963942644652,160.03976777289063,"[36, 0, 218]",218,a,0.7973246854962781,colour,0.5
066,63,0,1,2,40,90,160.5478711463511,161.75982349424157,"[50, 0, 204]",204,a,0.6894066558452323,colour,0.5
066,63,0,1,2,41,91,162.2665176880546,163.59983237937558,"[53, 0, 201]",201,a,0.8104200521484017,colour,0.5
066,63,0,1,2,42,92,164.1102751956787,165.64780750090722,"[3, 0, 251]",251,a,1.01490863179788,colour,0.5
066,63,0,1,2,43,93,166.15717669413425,167.25586219504476,"[39, 0, 215]",215,a,0.5759708491386846,colour,0.5
066,63,0,1,2,44,94,167.76647160807624,168.92781006882433,"[96, 0, 158]",158,l,0.6384611506946385,colour,0.5
066,63,0,1,2,45,95,169.43845177721232,170.67977437376976,"[48, 0, 206]",206,a,0.7185866771033034,colour,0.5
066,63,0,1,2,46,96,171.18837005423848,172.5117188761942,"[16, 0, 238]",238,a,0.8006956101162359,colour,0.5
066,63,0,1,2,47,97,173.03225634945557,174.0958490248304,"[70, 0, 184]",184,l,0.5404617288149893,colour,0.5
066,63,0,1,2,48,98,174.61028701113537,175.8877284009941,"[34, 0, 220]",220,a,0.7549787993775681,colour,0.5
066,63,0,1,2,49,99,176.4071249034023,177.57572981563862,"[43, 0, 211]",211,a,0.6452049690997228,colour,0.5
066,63,0,1,2,50,100,178.09470923559275,179.19975022319704,"[65, 0, 189]",189,l,0.5817658934975043,colour,0.5
066,63,0,1,3,1,101,184.4232934473548,184.98371290869545,"[22, 0, 232]",232,a,0.0368450446985662,colour,0.5
066,63,0,1,3,2,102,185.5022843045881,186.44778316130396,"[63, 0, 191]",191,a,0.422645571292378,colour,0.5
066,63,0,1,3,3,103,186.9553788676858,187.92768758279271,"[60, 0, 194]",194,a,0.44943613128270954,colour,0.5
066,63,0,1,3,4,104,188.43967151700053,189.11973891186062,"[75, 0, 179]",179,l,0.15674858388956636,colour,0.5
066,63,0,1,3,5,105,189.62747994740494,190.7117924465565,"[11, 0, 243]",243,a,0.5611811587586999,colour,0.5
066,63,0,1,3,6,106,191.22109192912467,192.19970020477194,"[66, 0, 188]",188,l,0.45581446087453514,colour,0.5
066,63,0,1,3,7,107,192.72102497541346,193.78375946125016,"[47, 0, 207]",207,a,0.5400954524520785,colour,0.5
066,63,0,1,3,8,108,194.29898907709867,195.2636749104131,"[91, 0, 163]",163,l,0.4416139635723084,colour,0.5
066,63,0,1,3,9,109,195.78336797864176,196.77573485684115,"[16, 0, 238]",238,a,0.46939189452677965,colour,0.5
066,63,0,1,3,10,110,197.28334356017876,198.80771905893926,"[67, 0, 187]",187,a,1.0009594078874215,colour,0.5
066,63,0,1,3,11,111,199.31469564011786,200.42373219132423,"[42, 0, 212]",212,a,0.5861517582088709,colour,0.5
066,63,0,1,3,12,112,200.93966088315938,202.1997388015734,"[53, 0, 201]",201,a,0.7372482636710629,colour,0.5
066,63,0,1,3,13,113,202.72092178778257,203.8956742361188,"[80, 0, 174]",174,l,0.6515214649261907,colour,0.5
066,63,0,1,3,14,114,204.40835921559483,205.4397357138805,"[7, 0, 247]",247,a,0.5080828934442252,colour,0.5
066,63,0,1,3,15,115,205.9551520126406,206.99181549437344,"[65, 0, 189]",189,l,0.5131828002631664,colour,0.5
066,63,0,1,3,16,116,207.50193890195806,208.50379233947024,"[90, 0, 164]",164,l,0.4788197707384825,colour,0.5
066,63,0,1,3,17,117,209.01773250487167,210.01573058753274,"[70, 0, 184]",184,a,0.4747481947997585,colour,0.5
066,63,0,1,3,18,118,210.5333260340849,211.7037477560807,"[49, 0, 205]",205,a,0.6475715873530135,colour,0.5
066,63,0,1,3,19,119,212.22089067404158,213.15970360755455,"[94, 0, 160]",160,l,0.4160766202257946,colour,0.5
066,63,0,1,3,20,120,213.67390489263926,214.85569142352324,"[29, 0, 225]",225,a,0.6584153384901583,colour,0.5
066,63,0,1,3,21,121,215.37704494490754,216.40768061962444,"[17, 0, 237]",237,a,0.5044528185389936,colour,0.5
066,63,0,1,3,22,122,216.9267616517609,218.07968560094014,"[25, 0, 229]",229,a,0.6296445227926597,colour,0.5
066,63,0,1,3,23,123,218.58937814144883,219.55166072887369,"[12, 0, 242]",242,a,0.4390197026077658,colour,0.5
066,63,0,1,3,24,124,220.05807607993484,221.127656390192,"[21, 0, 233]",233,a,0.5462957638083026,colour,0.5
066,63,0,1,3,25,125,221.63624498143326,222.69569715799298,"[23, 0, 231]",231,a,0.5361569963861257,colour,0.5
066,63,0,1,3,26,126,223.21933340851683,224.22367319324985,"[10, 0, 244]",244,a,0.4808996693463996,colour,0.5
066,63,0,1,3,27,127,224.73495371919125,225.69567195186391,"[38, 0, 216]",216,a,0.4376743258908391,colour,0.5
066,63,0,1,3,28,128,226.20369813160505,227.27165225322824,"[84, 0, 170]",170,l,0.5445411816472188,colour,0.5
066,63,0,1,3,29,129,227.78179850394372,228.84771211154293,"[6, 0, 248]",248,a,0.5550064472481608,colour,0.5
066,63,0,1,3,30,130,229.36315085948445,230.36768087162636,"[33, 0, 221]",221,a,0.4812974533997476,colour,0.5
066,63,0,1,3,31,131,230.87873296719044,231.86366522184107,"[97, 0, 157]",157,l,0.46155436686240137,colour,0.5
066,63,0,1,3,32,132,232.3787057918962,233.3756369468756,"[74, 0, 180]",180,l,0.4735146703897044,colour,0.5
066,63,0,1,3,33,133,233.894341068808,234.94367535156198,"[26, 0, 228]",228,a,0.5255479770712554,colour,0.5
066,63,0,1,3,34,134,235.45682152418885,236.73566382285208,"[57, 0, 197]",197,a,0.7554592909291387,colour,0.5
066,63,0,1,3,35,135,237.2536739888601,238.27960439003073,"[88, 0, 166]",166,l,0.5034217307111248,colour,0.5
066,63,0,1,3,36,136,238.80055697646458,239.84761640697252,"[48, 0, 206]",206,a,0.5236819365527481,colour,0.5
066,63,0,1,3,37,137,240.36305082263425,241.31964903639164,"[76, 0, 178]",178,l,0.4332561659393832,colour,0.5
066,63,0,1,3,38,138,241.83184643485583,242.75963878061157,"[62, 0, 192]",192,a,0.4045747531345114,colour,0.5
066,63,0,1,3,39,139,243.26927657658234,244.51965801604092,"[69, 0, 185]",185,a,0.727046087034978,colour,0.5
066,63,0,1,3,40,140,245.03499042568728,245.94366471772082,"[79, 0, 175]",175,l,0.3853909272002056,colour,0.5
066,63,0,1,3,41,141,246.45691565331072,247.47163602686487,"[73, 0, 181]",181,l,0.49152956251055,colour,0.5
066,63,0,1,3,42,142,247.98811728414148,248.87160948163364,"[35, 0, 219]",219,a,0.3602710602572188,colour,0.5
066,63,0,1,3,43,143,249.37864080735017,250.29563036176842,"[20, 0, 234]",234,a,0.3937223373213783,colour,0.5
066,63,0,1,3,44,144,250.8161359335063,251.695728665567,"[83, 0, 171]",171,l,0.35647635778877884,colour,0.5
066,63,0,1,3,45,145,252.20676894579083,253.11963257356547,"[8, 0, 246]",246,a,0.38955860142596066,colour,0.5
066,63,0,1,3,46,146,253.6298894948559,254.5438109919196,"[32, 0, 222]",222,a,0.390629073837772,colour,0.5
066,63,0,1,3,47,147,255.05173910409212,256.05561178794596,"[68, 0, 186]",186,l,0.4803144148318097,colour,0.5
066,63,0,1,3,48,148,256.56745078705717,257.4956582459854,"[61, 0, 193]",193,l,0.40486068499740213,colour,0.5
066,63,0,1,3,49,149,258.00492307019886,258.9435887055006,"[24, 0, 230]",230,a,0.415256239939481,colour,0.5
066,63,0,1,3,50,150,259.45808655628935,260.3756448237691,"[46, 0, 208]",208,a,0.3941957396455109,colour,0.5
066,63,0,1,4,1,151,265.73851447738707,266.4636196932988,"[43, 0, 211]",211,a,0.2018746263347566,colour,0.5
066,63,0,1,4,2,152,266.973736011656,267.5676355006872,"[61, 0, 193]",193,a,0.07062636420596391,colour,0.5
066,63,0,1,4,3,153,268.08301241486333,268.83962646115106,"[68, 0, 186]",186,a,0.23333501373417675,colour,0.5
066,63,0,1,4,4,154,269.34866955014877,270.0395673054736,"[22, 0, 232]",232,a,0.1677884702803567,colour,0.5
066,63,0,1,4,5,155,270.5518147224793,271.8955663224915,"[30, 0, 224]",224,a,0.8183532842667773,colour,0.5
066,63,0,1,4,6,156,272.41311411361676,273.4398849813733,"[48, 0, 206]",206,a,0.5034563890658319,colour,0.5
066,63,0,1,4,7,157,273.9600475135958,275.02361380134244,"[79, 0, 175]",175,l,0.5402285722084343,colour,0.5
066,63,0,1,4,8,158,275.538100624457,276.5915840707021,"[67, 0, 187]",187,l,0.5301575461635366,colour,0.5
066,63,0,1,4,9,159,277.08818085084204,278.0076185495127,"[19, 0, 235]",235,a,0.396179539966397,colour,0.5
066,63,0,1,4,10,160,278.5256342292996,279.70356225478463,"[34, 0, 220]",220,a,0.6596272015012801,colour,0.5
066,63,0,1,4,11,161,280.22364995640237,281.37558102072217,"[11, 0, 243]",243,a,0.6285756258293986,colour,0.5
066,63,0,1,4,12,162,281.88681428530253,283.0715578091331,"[81, 0, 173]",173,l,0.6614219560287893,colour,0.5
066,63,0,1,4,13,163,283.58990904537495,284.87157718627714,"[91, 0, 163]",163,l,0.7671584747731686,colour,0.5
066,63,0,1,4,14,164,285.3779578789836,286.32757911772933,"[58, 0, 196]",196,a,0.4262917939340696,colour,0.5
066,63,0,1,4,15,165,286.8467105621239,287.8876208810834,"[99, 0, 155]",155,l,0.5176088372245431,colour,0.5
066,63,0,1,4,16,166,288.4092359158676,289.4155724979937,"[90, 0, 164]",164,l,0.4818823141977191,colour,0.5
066,63,0,1,4,17,167,289.92605981894303,290.9835935734445,"[92, 0, 162]",162,l,0.534251177450642,colour,0.5
066,63,0,1,4,18,168,291.5041471943259,292.607590350206,"[44, 0, 210]",210,a,0.5801700310548767,colour,0.5
066,63,0,1,4,19,169,293.1135055173654,294.23958455596585,"[0, 0, 254]",254,a,0.6027369906660169,colour,0.5
066,63,0,1,4,20,170,294.75428878178354,295.7275470587192,"[37, 0, 217]",217,a,0.4500430473126471,colour,0.5
066,63,0,1,4,21,171,296.2384613082977,297.26363985810895,"[86, 0, 168]",168,l,0.5024477504193783,colour,0.5
066,63,0,1,4,22,172,297.7697432836285,298.7355874167988,"[32, 0, 222]",222,a,0.44250917457975447,colour,0.5
066,63,0,1,4,23,173,299.2541647204198,300.4075612843735,"[47, 0, 207]",207,a,0.6300600299146026,colour,0.5
066,63,0,1,4,24,174,300.9259471790865,302.0395814839285,"[24, 0, 230]",230,a,0.590296589420177,colour,0.5
066,63,0,1,4,25,175,302.5394200072624,303.53554653562605,"[84, 0, 170]",170,l,0.47286758199334145,colour,0.5
066,63,0,1,4,26,176,304.0550978194224,305.2875774005661,"[87, 0, 167]",167,l,0.7091473793843761,colour,0.5
066,63,0,1,4,27,177,305.8068002171349,306.88760867191013,"[35, 0, 219]",219,a,0.5574691639048979,colour,0.5
066,63,0,1,4,28,178,307.4005614663474,308.5355122711044,"[50, 0, 204]",204,a,0.6116308122873306,colour,0.5
066,63,0,1,4,29,179,309.05707925674506,310.151559274178,"[5, 0, 249]",249,a,0.5710627450607717,colour,0.5
066,63,0,1,4,30,180,310.66651871206705,311.8075571884401,"[46, 0, 208]",208,a,0.6178634191164747,colour,0.5
066,63,0,1,4,31,181,312.3226387184113,313.37550737161655,"[6, 0, 248]",248,a,0.531719931634143,colour,0.5
066,63,0,1,4,32,182,313.8849301278824,314.91158087272197,"[3, 0, 251]",251,a,0.5033346908167005,colour,0.5
066,63,0,1,4,33,183,315.4318576201331,316.4155114518944,"[41, 0, 213]",213,a,0.4608604109380394,colour,0.5
066,63,0,1,4,34,184,316.93180051248055,317.97553037223406,"[4, 0, 250]",250,a,0.5204464949201792,colour,0.5
066,63,0,1,4,35,185,318.4943585555302,319.4795318436809,"[77, 0, 177]",177,l,0.46185447729658335,colour,0.5
066,63,0,1,4,36,186,319.99436603859067,321.1355596900685,"[42, 0, 212]",212,a,0.6179469142807648,colour,0.5
066,63,0,1,4,37,187,321.65052267257124,322.8875515642576,"[65, 0, 189]",189,a,0.7136470654513687,colour,0.5
066,63,0,1,4,38,188,323.40051814331673,324.455558855203,"[10, 0, 244]",244,a,0.531653371755965,colour,0.5
066,63,0,1,4,39,189,324.96306476474274,325.91952552634757,"[14, 0, 240]",240,a,0.4331324982922524,colour,0.5
066,63,0,1,4,40,190,326.431767823291,327.3595176336821,"[83, 0, 171]",171,l,0.40451567620038986,colour,0.5
066,63,0,1,4,41,191,327.8692168695852,328.90349797916133,"[70, 0, 184]",184,l,0.5108764403266832,colour,0.5
066,63,0,1,4,42,192,329.4037232588744,330.2875553452177,"[73, 0, 181]",181,l,0.3593077139230445,colour,0.5
066,63,0,1,4,43,193,330.79557601106353,331.71150257613044,"[59, 0, 195]",195,a,0.3926022403175011,colour,0.5
066,63,0,1,4,44,194,332.2255451414967,333.42351006239187,"[51, 0, 203]",203,a,0.6746346885338426,colour,0.5
066,63,0,1,4,45,195,333.9443220460089,334.78352354769595,"[39, 0, 215]",215,a,0.31586221081670374,colour,0.5
066,63,0,1,4,46,196,335.2947079753503,336.3194985872833,"[72, 0, 182]",182,l,0.5015320593956858,colour,0.5
066,63,0,1,4,47,197,336.82593717530835,337.79146701982245,"[96, 0, 158]",158,l,0.44225278112571687,colour,0.5
066,63,0,1,4,48,198,338.3104948827531,339.39957370155025,"[57, 0, 197]",197,a,0.5664964991156012,colour,0.5
066,63,0,1,4,49,199,339.919788615196,340.96753766934853,"[1, 0, 253]",253,a,0.5243621078552678,colour,0.5
066,63,0,1,4,50,200,341.482328147511,342.5195020531537,"[52, 0, 202]",202,a,0.5140354760224,colour,0.5
066,63,0,1,5,1,201,347.50521333434153,348.5194855115842,"[33, 0, 221]",221,a,0.49019560730084777,colour,0.5
066,63,0,1,5,2,202,349.0373026932357,350.15145726816263,"[38, 0, 216]",216,a,0.589143015560694,colour,0.5
066,63,0,1,5,3,203,350.6640339400619,351.847488407162,"[52, 0, 202]",202,a,0.6602163944626227,colour,0.5
066,63,0,1,5,4,204,352.36733546911273,353.49552630772814,"[36, 0, 218]",218,a,0.6047712032450363,colour,0.5
066,63,0,1,5,5,205,354.007904481492,355.08769799605943,"[21, 0, 233]",233,a,0.556457374477759,colour,0.5
066,63,0,1,5,6,206,355.60168699827045,356.5194642440183,"[83, 0, 171]",171,l,0.3944399240426719,colour,0.5
066,63,0,1,5,7,207,357.0369210568024,358.20744360331446,"[49, 0, 205]",205,a,0.6471127572003752,colour,0.5
066,63,0,1,5,8,208,358.72442780144047,359.8474872256629,"[60, 0, 194]",194,a,0.5996736595407128,colour,0.5
066,63,0,1,5,9,209,360.3651256012963,361.3354418515228,"[16, 0, 238]",238,a,0.44991662295069546,colour,0.5
066,63,0,1,5,10,210,361.8466239160625,362.83146952465177,"[77, 0, 177]",177,l,0.4615768160438165,colour,0.5
066,63,0,1,5,11,211,363.34658728842624,364.2715084996307,"[50, 0, 204]",204,a,0.4016335140913725,colour,0.5
066,63,0,1,5,12,212,364.7845955954399,365.9914401595015,"[65, 0, 189]",189,a,0.683517876197584,colour,0.5
066,63,0,1,5,13,213,366.50328073394485,367.68752407387365,"[92, 0, 162]",162,l,0.6612325162859634,colour,0.5
066,63,0,1,5,14,214,368.20640660787467,369.4074620353058,"[28, 0, 226]",226,a,0.6777846657205373,colour,0.5
066,63,0,1,5,15,215,369.9252004477894,370.9915000241017,"[56, 0, 198]",198,a,0.5430414176080376,colour,0.5
066,63,0,1,5,16,216,371.50325395248365,372.49542508937884,"[79, 0, 175]",175,l,0.4691481040790677,colour,0.5
066,63,0,1,5,17,217,373.00325158936903,374.05549481580965,"[87, 0, 167]",167,l,0.5289492277661338,colour,0.5
066,63,0,1,5,18,218,374.5657430725405,376.29544761742,"[70, 0, 184]",184,a,1.2066035305615515,colour,0.5
066,63,0,1,5,19,219,376.8169791569235,377.97547562769614,"[5, 0, 249]",249,a,0.6351819920819253,colour,0.5
066,63,0,1,5,20,220,378.4887675232021,379.8475415763678,"[69, 0, 185]",185,a,0.8477593729039654,colour,0.5
066,63,0,1,5,21,221,380.3670180295594,381.41547639959026,"[51, 0, 203]",203,a,0.5236957211745903,colour,0.5
066,63,0,1,5,22,222,381.93094153527636,382.80740201321896,"[19, 0, 235]",235,a,0.3532673037843779,colour,0.5
066,63,0,1,5,23,223,383.3215087753488,384.2474405943649,"[74, 0, 180]",180,l,0.40256180823780596,colour,0.5
066,63,0,1,5,24,224,384.7589952368289,385.7514042565599,"[2, 0, 252]",252,a,0.46902364888228476,colour,0.5
066,63,0,1,5,25,225,386.2589948429959,387.2474209020147,"[90, 0, 164]",164,l,0.4650221774354577,colour,0.5
066,63,0,1,5,26,226,387.75906770443544,388.67945378343575,"[57, 0, 197]",197,a,0.3970436373492703,colour,0.5
066,63,0,1,5,27,227,389.1965128122829,390.07155977829825,"[55, 0, 199]",199,a,0.3516942843561992,colour,0.5
066,63,0,1,5,28,228,390.58412739180494,391.5354468927253,"[8, 0, 246]",246,a,0.42796997004188597,colour,0.5
066,63,0,1,5,29,229,392.0548678135965,392.95943311438896,"[34, 0, 220]",220,a,0.38134416355751455,colour,0.5
066,63,0,1,5,30,230,393.4767111213878,394.2715774226235,"[42, 0, 212]",212,a,0.27156600111629814,colour,0.5
066,63,0,1,5,31,231,394.7891567214392,396.2074432094814,"[89, 0, 165]",165,l,0.8948999356944114,colour,0.5
066,63,0,1,5,32,232,396.7267211644212,397.75144364114385,"[64, 0, 190]",190,a,0.5013965765247121,colour,0.5
066,63,0,1,5,33,233,398.2579665121157,399.26348389533814,"[68, 0, 186]",186,a,0.4822462275624275,colour,0.5
066,63,0,1,5,34,234,399.77353601681534,400.815433706739,"[15, 0, 239]",239,a,0.518559186719358,colour,0.5
066,63,0,1,5,35,235,401.3360751551809,402.51946818246506,"[9, 0, 245]",245,a,0.6601088746683672,colour,0.5
066,63,0,1,5,36,236,403.03915376763325,403.90338809625246,"[13, 0, 241]",241,a,0.34091394231654704,colour,0.5
066,63,0,1,5,37,237,404.4172884832369,405.39939332031645,"[48, 0, 206]",206,a,0.45871789078228176,colour,0.5
066,63,0,1,5,38,238,405.91863858606666,406.967393521918,"[18, 0, 236]",236,a,0.5255263155559078,colour,0.5
066,63,0,1,5,39,239,407.481070992304,408.6473612738773,"[75, 0, 179]",179,l,0.643110498203896,colour,0.5
066,63,0,1,5,40,240,409.1685166908428,410.24741578206886,"[76, 0, 178]",178,l,0.555595246492885,colour,0.5
066,63,0,1,5,41,241,410.7622704569949,411.75144364114385,"[35, 0, 219]",219,a,0.4658626440213993,colour,0.5
066,63,0,1,5,42,242,412.253103306517,413.2474004221149,"[78, 0, 176]",176,l,0.4711126059992239,colour,0.5
066,63,0,1,5,43,243,413.7686889588367,414.72740763728507,"[14, 0, 240]",240,a,0.43538765830453485,colour,0.5
066,63,0,1,5,44,244,415.2376204478787,416.4555690950947,"[44, 0, 210]",210,a,0.6950528264278546,colour,0.5
066,63,0,1,5,45,245,416.97478364093695,418.0875097378157,"[59, 0, 195]",195,a,0.5893517537042499,colour,0.5
066,63,0,1,5,46,246,418.58723089518026,419.5914048709674,"[10, 0, 244]",244,a,0.4807488265214488,colour,0.5
066,63,0,1,5,47,247,420.10288192587905,421.0634028419154,"[32, 0, 222]",222,a,0.437142240582034,colour,0.5
066,63,0,1,5,48,248,421.5733498065965,422.66358259296976,"[40, 0, 214]",214,a,0.5668513539712876,colour,0.5
066,63,0,1,5,49,249,423.1827636619564,424.35936206462793,"[81, 0, 173]",173,l,0.6533812038833275,colour,0.5
066,63,0,1,5,50,250,424.8700912068598,425.87943952623755,"[6, 0, 248]",248,a,0.48520046344492584,colour,0.5
066,63,0,1,6,1,251,430.91625818319153,431.6235552758444,"[8, 0, 246]",246,a,0.18337727338075638,colour,0.5
066,63,0,1,6,2,252,432.12894899153616,433.1913782469928,"[61, 0, 193]",193,a,0.5391277737217024,colour,0.5
066,63,0,1,6,3,253,433.70710647152737,434.7033696642611,"[6, 0, 248]",248,a,0.4729195695836097,colour,0.5
066,63,0,1,6,4,254,435.2226712499978,436.3673606752418,"[2, 0, 252]",252,a,0.6214497772743925,colour,0.5
066,63,0,1,6,5,255,436.87895233917516,438.2553423187928,"[18, 0, 236]",236,a,0.8530695933150128,colour,0.5
066,63,0,1,6,6,256,438.7694809824461,439.9353817506926,"[42, 0, 212]",212,a,0.6424980682786554,colour,0.5
066,63,0,1,6,7,257,440.4570515300147,441.57536078232806,"[54, 0, 200]",200,a,0.5958273633150384,colour,0.5
066,63,0,1,6,8,258,442.08201598539017,443.1833690026542,"[39, 0, 215]",215,a,0.5782299475977197,colour,0.5
066,63,0,1,6,9,259,443.69135422236286,444.8233649696922,"[1, 0, 253]",253,a,0.6085993825690821,colour,0.5
066,63,0,1,6,10,260,445.33203784388024,446.4393603790086,"[92, 0, 162]",162,l,0.584221520810388,colour,0.5
066,63,0,1,6,11,261,446.95698851475026,448.0553971421905,"[20, 0, 234]",234,a,0.5751095088198781,colour,0.5
066,63,0,1,6,12,262,448.568561825552,449.7033594243694,"[12, 0, 242]",242,a,0.6114319203188643,colour,0.5
066,63,0,1,6,13,263,450.2248299177736,451.2153638385935,"[98, 0, 156]",156,l,0.46720211289357394,colour,0.5
066,63,0,1,6,14,264,451.7248350378359,452.991376750404,"[59, 0, 195]",195,a,0.7431850924622267,colour,0.5
066,63,0,1,6,15,265,453.4936275780201,454.53535827749874,"[0, 0, 254]",254,a,0.5185331929242238,colour,0.5
066,63,0,1,6,16,266,455.05375795671716,456.08742348570377,"[52, 0, 202]",202,a,0.5103037889348343,colour,0.5
066,63,0,1,6,17,267,456.60063424904365,458.7113383425167,"[66, 0, 188]",188,l,1.5863916100934148,colour,0.5
066,63,0,1,6,18,268,459.22657386620995,460.1113196742954,"[51, 0, 203]",203,a,0.36143526795785874,colour,0.5
066,63,0,1,6,19,269,460.63280986004975,461.66333525790833,"[75, 0, 179]",179,l,0.5154942801455036,colour,0.5
066,63,0,1,6,20,270,462.171242496348,463.1993229006184,"[67, 0, 187]",187,l,0.5046497412258759,colour,0.5
066,63,0,1,6,21,271,463.718238517642,464.71134346257895,"[97, 0, 157]",157,l,0.46979125402867794,colour,0.5
066,63,0,1,6,22,272,465.21825781615917,466.2153496601386,"[73, 0, 181]",181,l,0.4738116299267858,colour,0.5
066,63,0,1,6,23,273,466.73383519775234,467.6312959175557,"[10, 0, 244]",244,a,0.3749335386091843,colour,0.5
066,63,0,1,6,24,274,468.1401019115001,469.0712943263352,"[95, 0, 159]",159,l,0.4079161392292008,colour,0.5
066,63,0,1,6,25,275,469.57762027462013,470.5993384969188,"[41, 0, 213]",213,a,0.4986038173083216,colour,0.5
066,63,0,1,6,26,276,471.09657842689194,472.1353387427516,"[71, 0, 183]",183,l,0.51547458791174,colour,0.5
066,63,0,1,6,27,277,472.63821302796714,473.56732396874577,"[84, 0, 170]",170,l,0.405857902020216,colour,0.5
066,63,0,1,6,28,278,474.0756415942451,475.03132057224866,"[27, 0, 227]",227,a,0.43230424099601805,colour,0.5
066,63,0,1,6,29,279,475.5444632002618,476.5593415059848,"[11, 0, 243]",243,a,0.4915642208652571,colour,0.5
066,63,0,1,6,30,280,477.0756057542749,478.1033009776147,"[56, 0, 198]",198,a,0.5043472677934915,colour,0.5
066,63,0,1,6,31,281,478.62251316034235,479.7993084859336,"[64, 0, 190]",190,l,0.6533343363553286,colour,0.5
066,63,0,1,6,32,282,480.30290350865107,481.383330326993,"[58, 0, 196]",196,a,0.5571820504264906,colour,0.5
066,63,0,1,6,33,283,481.8965643271804,482.8792989233043,"[33, 0, 221]",221,a,0.4594283881597221,colour,0.5
066,63,0,1,6,34,284,483.39655605645385,484.3834634468658,"[35, 0, 219]",219,a,0.463644111645408,colour,0.5
066,63,0,1,6,35,285,484.89652376109734,485.8873892999254,"[88, 0, 166]",166,l,0.46757941704709083,colour,0.5
066,63,0,1,6,36,286,486.39651391503867,487.4392827914562,"[55, 0, 199]",199,a,0.5194047732511535,colour,0.5
066,63,0,1,6,37,287,487.95904005644843,488.96732853737194,"[77, 0, 177]",177,l,0.48497439606580883,colour,0.5
066,63,0,1,6,38,288,489.47466706263367,490.5033303585369,"[86, 0, 168]",168,l,0.5053484233794734,colour,0.5
066,63,0,1,6,39,289,491.0225220612483,491.9832950384589,"[44, 0, 210]",210,a,0.43743604933843017,colour,0.5
066,63,0,1,6,40,290,492.4913031012984,493.47930341318715,"[30, 0, 224]",224,a,0.46469095326028764,colour,0.5
066,63,0,1,6,41,291,493.9918552727904,495.09530354861636,"[45, 0, 209]",209,a,0.5800471511902288,colour,0.5
066,63,0,1,6,42,292,495.6038240046473,496.64729825849645,"[32, 0, 222]",222,a,0.5201385075924918,colour,0.5
066,63,0,1,6,43,293,497.1671394127188,498.2152953094337,"[14, 0, 240]",240,a,0.5250785131938756,colour,0.5
066,63,0,1,6,44,294,498.729560791282,499.7592776241945,"[25, 0, 229]",229,a,0.5063653327524662,colour,0.5
066,63,0,1,6,45,295,500.2764874958666,501.5352562714834,"[96, 0, 158]",158,l,0.7357796134892851,colour,0.5
066,63,0,1,6,46,296,502.04210327740293,503.5433013556758,"[69, 0, 185]",185,l,0.9778816304169595,colour,0.5
066,63,0,1,6,47,297,504.0576814466622,504.9833107922459,"[26, 0, 228]",228,a,0.4022538209101185,colour,0.5
066,63,0,1,6,48,298,505.49522028968204,506.41525387682486,"[68, 0, 186]",186,l,0.39675416075624526,colour,0.5
066,63,0,1,6,49,299,506.9346039055381,507.83926924318075,"[29, 0, 225]",225,a,0.3816458493238315,colour,0.5
066,63,0,1,6,50,300,508.35652046860196,509.27132063522004,"[19, 0, 235]",235,a,0.3915408264147118,colour,0.5
066,63,0,1,7,1,301,514.261920328252,514.9752574372105,"[45, 0, 209]",209,a,0.18925344990566373,colour,0.5
066,63,0,1,7,2,302,515.4814880747581,516.431206987123,"[56, 0, 198]",198,a,0.4265631535090506,colour,0.5
066,63,0,1,7,3,303,516.9501419026637,517.9272771956166,"[48, 0, 206]",206,a,0.4538160882657394,colour,0.5
066,63,0,1,7,4,304,518.4346235978883,519.4392654622206,"[90, 0, 164]",164,l,0.4814030041452497,colour,0.5
066,63,0,1,7,5,305,519.9501517487224,520.8552136888029,"[53, 0, 201]",201,a,0.38173170760273933,colour,0.5
066,63,0,1,7,6,306,521.3719796965597,522.279264895129,"[98, 0, 156]",156,l,0.3838383879046887,colour,0.5
066,63,0,1,7,7,307,522.7938990164548,523.7352278358303,"[97, 0, 157]",157,l,0.4180517561035231,colour,0.5
066,63,0,1,7,8,308,524.2470345394686,525.1752794138156,"[16, 0, 238]",238,a,0.4048898295732215,colour,0.5
066,63,0,1,7,9,309,525.6845781087177,526.639244509628,"[32, 0, 222]",222,a,0.4317067771917209,colour,0.5
066,63,0,1,7,10,310,527.154163381434,528.1432483440731,"[9, 0, 245]",245,a,0.46565272426232696,colour,0.5
066,63,0,1,7,11,311,528.6541728336597,529.5111950614955,"[94, 0, 160]",160,l,0.33370735531207174,colour,0.5
066,63,0,1,7,12,312,530.0291162183275,530.9832363554742,"[85, 0, 169]",169,l,0.43078793538734317,colour,0.5
066,63,0,1,7,13,313,531.4979141936637,532.5032567094313,"[35, 0, 219]",219,a,0.4944270846899599,colour,0.5
066,63,0,1,7,14,314,533.0167628569761,534.1432373163989,"[95, 0, 159]",159,l,0.6032316607888788,colour,0.5
066,63,0,1,7,15,315,534.6573779492173,535.9033514686162,"[68, 0, 186]",186,l,0.7226602223236114,colour,0.5
066,63,0,1,7,16,316,536.4228720325045,537.5272218210157,"[58, 0, 196]",196,a,0.5809514207066968,colour,0.5
066,63,0,1,7,17,317,538.0479692139197,539.0472339041298,"[67, 0, 187]",187,a,0.4768737795529887,colour,0.5
066,63,0,1,7,18,318,539.5635678631952,540.6232228701701,"[66, 0, 188]",188,a,0.5363318637246266,colour,0.5
066,63,0,1,7,19,319,541.1416257001692,542.3671932908474,"[84, 0, 170]",170,l,0.7021570137003437,colour,0.5
066,63,0,1,7,20,320,542.8760181893595,543.8792288188124,"[61, 0, 193]",193,a,0.47980989853385836,colour,0.5
066,63,0,1,7,21,321,544.3916881247424,545.4312286486384,"[25, 0, 229]",229,a,0.5162425867747515,colour,0.5
066,63,0,1,7,22,322,545.938495494076,547.0232053834479,"[5, 0, 249]",249,a,0.5612599279265851,colour,0.5
066,63,0,1,7,23,323,547.5324371245224,548.8872447585454,"[62, 0, 192]",192,a,0.8316979550290853,colour,0.5
066,63,0,1,7,24,324,549.4073553031776,550.4871996238362,"[39, 0, 215]",215,a,0.5565471713198349,colour,0.5
066,63,0,1,7,25,325,551.0037529548863,552.0791968385456,"[30, 0, 224]",224,a,0.5624465846922249,colour,0.5
066,63,0,1,7,26,326,552.5778561880579,553.463309736806,"[36, 0, 218]",218,a,0.36211583320982754,colour,0.5
066,63,0,1,7,27,327,553.98417764646,555.0072034362238,"[3, 0, 251]",251,a,0.4998219817643985,colour,0.5
066,63,0,1,7,28,328,555.5153556466103,556.5512255294016,"[26, 0, 228]",228,a,0.5127948623849079,colour,0.5
066,63,0,1,7,29,329,557.0622295758221,558.1512119023828,"[55, 0, 199]",199,a,0.5657269248040393,colour,0.5
066,63,0,1,7,30,330,558.6715607235674,559.919227779028,"[77, 0, 177]",177,l,0.7246648963773623,colour,0.5
066,63,0,1,7,31,331,560.4372099819593,561.5432828449411,"[47, 0, 207]",207,a,0.5826662244508043,colour,0.5
066,63,0,1,7,32,332,562.0621437174268,563.0312000554986,"[86, 0, 168]",168,l,0.44568711484316736,colour,0.5
066,63,0,1,7,33,333,563.5465198620223,564.4712981072953,"[89, 0, 165]",165,l,0.4014472251292318,colour,0.5
066,63,0,1,7,34,334,564.9840405881405,566.5672018766636,"[72, 0, 182]",182,l,1.059773554559797,colour,0.5
066,63,0,1,7,35,335,567.0777963235741,567.9832942507928,"[13, 0, 241]",241,a,0.3820912886876613,colour,0.5
066,63,0,1,7,36,336,568.4996112744557,569.5591626999667,"[33, 0, 221]",221,a,0.5363121713744476,colour,0.5
066,63,0,1,7,37,337,570.0777667851653,571.167220938718,"[96, 0, 158]",158,l,0.5660746904322878,colour,0.5
066,63,0,1,7,38,338,571.6870664252201,572.7271599083906,"[74, 0, 180]",180,l,0.5166691215708852,colour,0.5
066,63,0,1,7,39,339,573.2358761056093,574.1831586890621,"[82, 0, 172]",172,l,0.42394132330082357,colour,0.5
066,63,0,1,7,40,340,574.7045673488174,575.5991502387915,"[7, 0, 247]",247,a,0.37206240405794233,colour,0.5
066,63,0,1,7,41,341,576.1040039920481,577.0071908332175,"[1, 0, 253]",253,a,0.37990190100390464,colour,0.5
066,63,0,1,7,42,342,577.5258894412545,578.4871692977613,"[29, 0, 225]",225,a,0.43799727933946997,colour,0.5
066,63,0,1,7,43,343,578.9946236136602,579.9511564489221,"[41, 0, 213]",213,a,0.432374345487915,colour,0.5
066,63,0,1,7,44,344,580.4661533021135,581.4311502734199,"[19, 0, 235]",235,a,0.441873901640065,colour,0.5
066,63,0,1,7,45,345,581.9528078435687,582.983184367884,"[31, 0, 223]",223,a,0.5069722488988191,colour,0.5
066,63,0,1,7,46,346,583.4997124926886,585.3031772313407,"[63, 0, 191]",191,l,1.2803058290155604,colour,0.5
066,63,0,1,7,47,347,585.8121679389151,586.7351774235722,"[73, 0, 181]",181,l,0.39969697524793446,colour,0.5
066,63,0,1,7,48,348,587.2498658956029,588.0951794872526,"[11, 0, 243]",243,a,0.3222539310809225,colour,0.5
066,63,0,1,7,49,349,588.5966256883694,589.5111820646562,"[20, 0, 234]",234,a,0.3912789191817865,colour,0.5
066,63,0,1,7,50,350,590.0250982054276,590.9591645117616,"[14, 0, 240]",240,a,0.4106588801369071,colour,0.5
066,63,0,1,8,1,351,595.5370537828421,596.5831628638553,"[20, 0, 234]",234,a,0.5216819886118174,colour,0.5
066,63,0,1,8,2,352,597.0917998980731,597.9591920808889,"[86, 0, 168]",168,l,0.34431991924066097,colour,0.5
066,63,0,1,8,3,353,598.4667743965983,599.4711445075227,"[75, 0, 179]",179,l,0.4810694168554619,colour,0.5
066,63,0,1,8,4,354,599.982367925928,600.8951362430817,"[12, 0, 242]",242,a,0.38969802286010236,colour,0.5
066,63,0,1,8,5,355,601.4043289934052,602.3831322226906,"[34, 0, 220]",220,a,0.455504504381679,colour,0.5
066,63,0,1,8,6,356,602.9045940515352,603.839120369521,"[83, 0, 171]",171,l,0.41114724869839847,colour,0.5
066,63,0,1,8,7,357,604.3595904951217,605.2871059674071,"[87, 0, 167]",167,l,0.40417106135282665,colour,0.5
066,63,0,1,8,8,358,605.797041510581,607.8151879471261,"[69, 0, 185]",185,l,1.494821324129589,colour,0.5
066,63,0,1,8,9,359,608.3300871265819,609.2071730314055,"[37, 0, 217]",217,a,0.35379072465002537,colour,0.5
066,63,0,1,8,10,360,609.7207693695091,610.6711365517695,"[88, 0, 166]",166,l,0.4270546728512272,colour,0.5
066,63,0,1,8,11,361,611.1894810927333,612.0311220741132,"[76, 0, 178]",178,l,0.318378490395844,colour,0.5
066,63,0,1,8,12,362,612.548838037299,613.4711519905832,"[1, 0, 253]",253,a,0.3972827015677467,colour,0.5
066,63,0,1,8,13,363,613.9880089765647,615.1351177953184,"[47, 0, 207]",207,a,0.6238183646928519,colour,0.5
066,63,0,1,8,14,364,615.6443341764389,616.5110867540352,"[28, 0, 226]",226,a,0.34347866498865187,colour,0.5
066,63,0,1,8,15,365,617.0192917395616,617.9270999651635,"[70, 0, 184]",184,l,0.3845670021837577,colour,0.5
066,63,0,1,8,16,366,618.4411307150731,619.3751021045027,"[91, 0, 163]",163,l,0.41067620925605297,colour,0.5
066,63,0,1,8,17,367,619.8943064103369,620.7751358177047,"[0, 0, 254]",254,a,0.357538559474051,colour,0.5
066,63,0,1,8,18,368,621.2849185487721,622.1831114275847,"[21, 0, 233]",233,a,0.3749630769016221,colour,0.5
066,63,0,1,8,19,369,622.6911435150541,623.4551417726325,"[30, 0, 224]",224,a,0.24073616042733192,colour,0.5
066,63,0,1,8,20,370,623.9723839396611,624.8551404335303,"[44, 0, 210]",210,a,0.3594337444519624,colour,0.5
066,63,0,1,8,21,371,625.3629306997173,626.2151062635239,"[17, 0, 237]",237,a,0.32882091286592185,colour,0.5
066,63,0,1,8,22,372,626.722362081171,627.6471615941264,"[48, 0, 206]",206,a,0.40183437534142286,colour,0.5
066,63,0,1,8,23,373,628.1601884315023,629.4230929799378,"[73, 0, 181]",181,l,0.7395282359793782,colour,0.5
066,63,0,1,8,24,374,629.9414591823006,630.9910947568715,"[67, 0, 187]",187,l,0.5263077052077278,colour,0.5
066,63,0,1,8,25,375,631.504036917584,632.3911394977476,"[78, 0, 176]",176,l,0.36383812001440674,colour,0.5
066,63,0,1,8,26,376,632.9101488500601,633.7431205018656,"[71, 0, 183]",183,l,0.310354673769325,colour,0.5
066,63,0,1,8,27,377,634.2416081347037,635.2870783981634,"[65, 0, 189]",189,l,0.5221624802798033,colour,0.5
066,63,0,1,8,28,378,635.8079986893572,636.591127209831,"[16, 0, 238]",238,a,0.25818982254713774,colour,0.5
066,63,0,1,8,29,379,637.1064521364169,638.0071069441037,"[39, 0, 215]",215,a,0.3773493875050917,colour,0.5
066,63,0,1,8,30,380,638.5282974133734,640.2630998957902,"[61, 0, 193]",193,a,1.2114462561439723,colour,0.5
066,63,0,1,8,31,381,640.7784000100801,641.6951386849396,"[36, 0, 218]",218,a,0.3934104115469381,colour,0.5
066,63,0,1,8,32,382,642.2157970686676,643.0390742107993,"[82, 0, 172]",172,l,0.3004915980855003,colour,0.5
066,63,0,1,8,33,383,643.5596120778937,644.4231063706102,"[58, 0, 196]",196,a,0.34021801711060107,colour,0.5
066,63,0,1,8,34,384,644.9345590071753,645.6310816655168,"[72, 0, 182]",182,l,0.17315382906235754,colour,0.5
066,63,0,1,8,35,385,646.1376978779444,646.7271228869213,"[5, 0, 249]",249,a,0.06603727512992918,colour,0.5
066,63,0,1,8,36,386,647.2470975548495,649.6950737003936,"[80, 0, 174]",174,l,1.924688842264004,colour,0.5
066,63,0,1,8,37,387,650.215843542479,651.2630786281079,"[93, 0, 161]",161,l,0.5241896035149693,colour,0.5
066,63,0,1,8,38,388,651.7783551117172,652.7990489416989,"[11, 0, 243]",243,a,0.4976908832322806,colour,0.5
066,63,0,1,8,39,389,653.3096469332231,654.3270797214936,"[52, 0, 202]",202,a,0.49430853710509837,colour,0.5
066,63,0,1,8,40,390,654.8408328102669,655.7910656911554,"[74, 0, 180]",180,l,0.4270164698828012,colour,0.5
066,63,0,1,8,41,391,656.3095299610868,657.3031276067486,"[10, 0, 244]",244,a,0.4705340467626229,colour,0.5
066,63,0,1,8,42,392,657.8095390194794,658.7430452773115,"[84, 0, 170]",170,l,0.410273305256851,colour,0.5
066,63,0,1,8,43,393,659.2626489426475,660.2150491558714,"[3, 0, 251]",251,a,0.4290254762163386,colour,0.5
066,63,0,1,8,44,394,660.7313748442102,661.6391677097417,"[24, 0, 230]",230,a,0.38525505049619824,colour,0.5
066,63,0,1,8,45,395,662.1532433580142,663.1190248698695,"[19, 0, 235]",235,a,0.44246467016637325,colour,0.5
066,63,0,1,8,46,396,663.6376175334444,664.6470422588754,"[22, 0, 232]",232,a,0.48605550231877714,colour,0.5
066,63,0,1,8,47,397,665.1532610810827,666.0310720556881,"[35, 0, 219]",219,a,0.3544543544994667,colour,0.5
066,63,0,1,8,48,398,666.5444852556102,667.4230736814206,"[9, 0, 245]",245,a,0.3551479165907949,colour,0.5
066,63,0,1,8,49,399,667.9351096033351,669.0472248457372,"[94, 0, 160]",160,l,0.5887401115614921,colour,0.5
066,63,0,1,8,50,400,669.5600933572277,670.4550303143915,"[50, 0, 204]",204,a,0.3716055431868881,colour,0.5
066,63,0,1,9,1,401,675.1226671540644,676.1431502765045,"[43, 0, 211]",211,a,0.4966152907582,colour,0.5
066,63,0,1,9,2,402,676.6547734482447,677.5350668317406,"[87, 0, 167]",167,l,0.357088393997401,colour,0.5
066,63,0,1,9,3,403,678.0453591990517,678.9110031011514,"[73, 0, 181]",181,l,0.3427063337294385,colour,0.5
066,63,0,1,9,4,404,679.4203455129173,680.3110565065872,"[18, 0, 236]",236,a,0.3674555919133127,colour,0.5
066,63,0,1,9,5,405,680.8265220361063,681.7351955404738,"[9, 0, 245]",245,a,0.38523693359456956,colour,0.5
066,63,0,1,9,6,406,682.2499403323745,683.0790243342053,"[37, 0, 217]",217,a,0.30568878480698913,colour,0.5
066,63,0,1,9,7,407,683.5937549477676,684.5750055335229,"[16, 0, 238]",238,a,0.4579431964084506,colour,0.5
066,63,0,1,9,8,408,685.0937234400772,686.0870461815502,"[31, 0, 223]",223,a,0.4699893582146615,colour,0.5
066,63,0,1,9,9,409,686.595250379527,687.6870278284186,"[92, 0, 162]",162,l,0.56854055786971,colour,0.5
066,63,0,1,9,10,410,688.204601613339,689.2390737382229,"[89, 0, 165]",165,l,0.5111407107906416,colour,0.5
066,63,0,1,9,11,411,689.7515184717486,690.6710376965348,"[97, 0, 157]",157,l,0.39633353357203305,colour,0.5
066,63,0,1,9,12,412,691.1889411304146,692.0949998936849,"[2, 0, 252]",252,a,0.3827529492555186,colour,0.5
066,63,0,1,9,13,413,692.6108561180299,694.0390033185249,"[60, 0, 194]",194,a,0.904832721920684,colour,0.5
066,63,0,1,9,14,414,694.5483496687375,695.519018016872,"[68, 0, 186]",186,l,0.447536613792181,colour,0.5
066,63,0,1,9,15,415,696.0326620104024,696.8870092388242,"[81, 0, 173]",173,l,0.33108237432315946,colour,0.5
066,63,0,1,9,16,416,697.4076766811777,698.2950277780183,"[72, 0, 182]",182,l,0.3641130243195221,colour,0.5
066,63,0,1,9,17,417,698.8140434317756,699.7189616182586,"[14, 0, 240]",240,a,0.3815922864014283,colour,0.5
066,63,0,1,9,18,418,700.23587925639,701.2949907564325,"[64, 0, 190]",190,l,0.5357308553066105,colour,0.5
066,63,0,1,9,19,419,701.814024527208,702.6869722960982,"[34, 0, 220]",220,a,0.34963250264991075,colour,0.5
066,63,0,1,9,20,420,703.20464060409,704.1829873662209,"[56, 0, 198]",198,a,0.4550791510846466,colour,0.5
066,63,0,1,9,21,421,704.7046339086955,705.5749921428505,"[76, 0, 178]",178,l,0.34709180460777134,colour,0.5
066,63,0,1,9,22,422,706.0952633763663,707.0629810332321,"[77, 0, 177]",177,l,0.4444299596361816,colour,0.5
066,63,0,1,9,23,423,707.5796477918047,708.406976423692,"[41, 0, 213]",213,a,0.3041106454329565,colour,0.5
066,63,0,1,9,24,424,708.9233474041102,709.8950035170419,"[0, 0, 254]",254,a,0.448295948212035,colour,0.5
066,63,0,1,9,25,425,710.4077633272391,711.295087642502,"[10, 0, 244]",244,a,0.3639865998411551,colour,0.5
066,63,0,1,9,26,426,711.8140064103063,712.7669977858895,"[70, 0, 184]",184,l,0.42978638608474284,colour,0.5
066,63,0,1,9,27,427,713.2827043487923,714.8949901263695,"[52, 0, 202]",202,a,1.0891524679027498,colour,0.5
066,63,0,1,9,28,428,715.4077156718122,716.3830959888874,"[3, 0, 251]",251,a,0.45205047843046486,colour,0.5
066,63,0,1,9,29,429,716.8919386105845,717.8389336867258,"[24, 0, 230]",230,a,0.42345807480160147,colour,0.5
066,63,0,1,9,30,430,718.3451603858266,719.2069757147692,"[44, 0, 210]",210,a,0.3383921489585191,colour,0.5
066,63,0,1,9,31,431,719.7131523954449,720.5909590377705,"[65, 0, 189]",189,l,0.35475328331813216,colour,0.5
066,63,0,1,9,32,432,721.1037731985562,721.9349721511826,"[74, 0, 180]",180,l,0.30772181577049196,colour,0.5
066,63,0,1,9,33,433,722.4475303123472,723.2630108867306,"[50, 0, 204]",204,a,0.29223541251849383,colour,0.5
066,63,0,1,9,34,434,723.7757529737428,724.838945108233,"[7, 0, 247]",247,a,0.5399796618148685,colour,0.5
066,63,0,1,9,35,435,725.3537698508007,726.359340797062,"[61, 0, 193]",193,a,0.4822044799802825,colour,0.5
066,63,0,1,9,36,436,726.8693984323181,727.782963893027,"[38, 0, 216]",216,a,0.39017496979795396,colour,0.5
066,63,0,1,9,37,437,728.2912543431157,729.150958659593,"[48, 0, 206]",206,a,0.3363532101502642,colour,0.5
066,63,0,1,9,38,438,729.6546316638123,730.5669600553811,"[33, 0, 221]",221,a,0.38899264531210065,colour,0.5
066,63,0,1,9,39,439,731.0765104176244,731.8869584327331,"[80, 0, 174]",174,l,0.28743561601731926,colour,0.5
066,63,0,1,9,40,440,732.4046369807329,733.6309709949419,"[62, 0, 192]",192,l,0.7030266248621047,colour,0.5
066,63,0,1,9,41,441,734.13897275622,735.0149141455768,"[46, 0, 208]",208,a,0.3525575939565897,colour,0.5
066,63,0,1,9,42,442,735.5295585070271,736.542960679275,"[47, 0, 207]",207,a,0.49006051826290786,colour,0.5
066,63,0,1,9,43,443,737.0627738704206,738.2709709003102,"[57, 0, 197]",197,a,0.6848723113071173,colour,0.5
066,63,0,1,9,44,444,738.7814873658353,739.6949618482031,"[69, 0, 185]",185,l,0.3902939112158492,colour,0.5
066,63,0,1,9,45,445,740.2033413074678,741.1029689657735,"[36, 0, 218]",218,a,0.3762367736781016,colour,0.5
066,63,0,1,9,46,446,741.609584784368,742.5029187898617,"[5, 0, 249]",249,a,0.3700955390231684,colour,0.5
066,63,0,1,9,47,447,743.0184229161823,743.80693058006,"[4, 0, 250]",250,a,0.26518058218061924,colour,0.5
066,63,0,1,9,48,448,744.315298617701,745.0949246691307,"[40, 0, 214]",214,a,0.25646674796007574,colour,0.5
066,63,0,1,9,49,449,745.612179439282,746.2629443268524,"[66, 0, 188]",188,l,0.12561351305339485,colour,0.5
066,63,0,1,9,50,450,746.7702856089454,747.4549448498292,"[86, 0, 168]",168,l,0.16129316843580455,colour,0.5
066,63,0,1,10,1,451,752.2225243456196,753.1669543052558,"[67, 0, 187]",187,l,0.42039474355988204,colour,0.5
066,63,0,1,10,2,452,753.678368738736,754.6229396951385,"[19, 0, 235]",235,a,0.4212478131521493,colour,0.5
066,63,0,1,10,3,453,755.1315105634276,756.0549532781588,"[20, 0, 234]",234,a,0.40035627281758934,colour,0.5
066,63,0,1,10,4,454,756.5689485819312,757.5028920084005,"[65, 0, 189]",189,l,0.410732529242523,colour,0.5
066,63,0,1,10,5,455,758.0219348374521,758.9430152663263,"[71, 0, 183]",183,l,0.3976576426066458,colour,0.5
066,63,0,1,10,6,456,759.4595173973357,760.758940492291,"[53, 0, 201]",201,a,0.776056234841235,colour,0.5
066,63,0,1,10,7,457,761.2720362527762,762.1989345689071,"[69, 0, 185]",185,l,0.4035192468436435,colour,0.5
066,63,0,1,10,8,458,762.7046575394925,763.8868981744163,"[61, 0, 193]",193,a,0.6588851964334026,colour,0.5
066,63,0,1,10,9,459,764.4077873517526,765.2869425214594,"[95, 0, 159]",159,l,0.35578082653228194,colour,0.5
066,63,0,1,10,10,460,765.7984089425299,766.7348828270333,"[88, 0, 166]",166,l,0.4123528100317344,colour,0.5
066,63,0,1,10,11,461,767.2541556620272,768.1349338694708,"[91, 0, 163]",163,l,0.3574207996716723,colour,0.5
066,63,0,1,10,12,462,768.6447142374236,769.5109181880252,"[26, 0, 228]",228,a,0.3428288196446374,colour,0.5
066,63,0,1,10,13,463,770.0202208213741,770.8149193443824,"[17, 0, 237]",237,a,0.27130921371281147,colour,0.5
066,63,0,1,10,14,464,771.3334123650566,772.134879912599,"[22, 0, 232]",232,a,0.2781605520285666,colour,0.5
066,63,0,1,10,15,465,772.6460363771766,773.7029269818449,"[87, 0, 167]",167,l,0.5335339845623821,colour,0.5
066,63,0,1,10,16,466,774.2241229648935,775.1428730092011,"[44, 0, 210]",210,a,0.3953311964869499,colour,0.5
066,63,0,1,10,17,467,775.6616015495965,776.5989970328519,"[96, 0, 158]",158,l,0.41407352162059397,colour,0.5
066,63,0,1,10,18,468,777.1149143031798,778.2948745720787,"[58, 0, 196]",196,a,0.6571703925728798,colour,0.5
066,63,0,1,10,19,469,778.8144337327685,779.7428904960398,"[62, 0, 192]",192,a,0.4058283637277782,colour,0.5
066,63,0,1,10,20,470,780.2519383112667,781.1750438940944,"[4, 0, 250]",250,a,0.39971351670101285,colour,0.5
066,63,0,1,10,21,471,781.691429446917,782.6069030895596,"[92, 0, 162]",162,l,0.3920910287415609,colour,0.5
066,63,0,1,10,22,472,783.1133428592002,784.0229198454181,"[6, 0, 248]",248,a,0.3863172521814704,colour,0.5
066,63,0,1,10,23,473,784.5351483577397,785.4148742096731,"[37, 0, 217]",217,a,0.3563759272219613,colour,0.5
066,63,0,1,10,24,474,785.9288915687939,786.8548730124021,"[51, 0, 203]",203,a,0.4026374265085906,colour,0.5
066,63,0,1,10,25,475,787.3664174149744,788.2388638184639,"[13, 0, 241]",241,a,0.3492390508763492,colour,0.5
066,63,0,1,10,26,476,788.7570878425613,790.3908697135048,"[64, 0, 190]",190,a,1.1105103214504197,colour,0.5
066,63,0,1,10,27,477,790.8881801419193,791.9028666446684,"[49, 0, 205]",205,a,0.49142598104663193,colour,0.5
066,63,0,1,10,28,478,792.4194243079983,793.2788887724746,"[41, 0, 213]",213,a,0.3361180842621252,colour,0.5
066,63,0,1,10,29,479,793.7944760002429,794.5269181659678,"[14, 0, 240]",240,a,0.2091714038979262,colour,0.5
066,63,0,1,10,30,480,795.0444710771553,795.9108880982967,"[42, 0, 212]",212,a,0.3430718225426972,colour,0.5
066,63,0,1,10,31,481,796.419453058741,796.9589731027372,"[83, 0, 171]",171,l,0.016528912587091327,colour,0.5
066,63,0,1,10,32,482,797.4663797633257,798.4228657309432,"[81, 0, 173]",173,l,0.43353776540607214,colour,0.5
066,63,0,1,10,33,483,798.9350777018117,799.6868576870766,"[7, 0, 247]",247,a,0.2284517219522968,colour,0.5
066,63,0,1,10,34,484,800.2037457869155,801.0868366557406,"[84, 0, 170]",170,l,0.3597267656587064,colour,0.5
066,63,0,1,10,35,485,801.5949644475477,803.1108549364144,"[63, 0, 191]",191,a,0.9925322933122516,colour,0.5
066,63,0,1,10,36,486,803.62627241679,804.5908916901099,"[30, 0, 224]",224,a,0.44126265321392566,colour,0.5
066,63,0,1,10,37,487,805.1106316259829,806.3591529326513,"[97, 0, 157]",157,l,0.7251166374189779,colour,0.5
066,63,0,1,10,38,488,806.8763025458902,807.8868662728928,"[34, 0, 220]",220,a,0.4872271929634735,colour,0.5
066,63,0,1,10,39,489,808.4074770014267,809.326836324879,"[43, 0, 211]",211,a,0.395906605059281,colour,0.5
066,63,0,1,10,40,490,809.8450028474908,810.8788842039648,"[18, 0, 236]",236,a,0.5105487608816475,colour,0.5
066,63,0,1,10,41,491,811.3919260074617,812.334868412232,"[46, 0, 208]",208,a,0.41961689840536565,colour,0.5
066,63,0,1,10,42,492,812.8449744906975,813.8788845977979,"[60, 0, 194]",194,a,0.5105719977291301,colour,0.5
066,63,0,1,10,43,493,814.3919000136666,815.3588729084004,"[36, 0, 218]",218,a,0.44370567752048373,colour,0.5
066,63,0,1,10,44,494,815.8782012755983,816.9907966158353,"[76, 0, 178]",178,l,0.5892686523729935,colour,0.5
066,63,0,1,10,45,495,817.5037308995379,818.4628383035306,"[33, 0, 221]",221,a,0.43565980554558337,colour,0.5
066,63,0,1,10,46,496,818.9726269424427,819.9909478524933,"[15, 0, 239]",239,a,0.49508283752948046,colour,0.5
066,63,0,1,10,47,497,820.5038147886517,821.4628229435766,"[45, 0, 209]",209,a,0.4356464148731902,colour,0.5
066,63,0,1,10,48,498,821.9726513607893,823.0068344029132,"[85, 0, 169]",169,l,0.5109914432978258,colour,0.5
066,63,0,1,10,49,499,823.520244058338,824.4789450137177,"[50, 0, 204]",204,a,0.43527738156262785,colour,0.5
066,63,0,1,10,50,500,824.9890313997166,825.9588399829809,"[9, 0, 245]",245,a,0.4463708308758214,colour,0.5
066,63,0,1,11,1,501,831.2694943731185,832.2708381743869,"[49, 0, 205]",205,a,0.4772833789465949,colour,0.5
066,63,0,1,11,2,502,832.7858409353066,833.6547762051923,"[61, 0, 193]",193,a,0.34556998522020876,colour,0.5
066,63,0,1,11,3,503,834.1764743414242,835.1028275751742,"[0, 0, 254]",254,a,0.4029792844085023,colour,0.5
066,63,0,1,11,4,504,835.6140080643818,836.4628410604782,"[1, 0, 253]",253,a,0.3256213110871613,colour,0.5
066,63,0,1,11,5,505,836.9733681598445,837.790788030019,"[38, 0, 216]",216,a,0.29404670861549675,colour,0.5
066,63,0,1,11,6,506,838.3014391906327,839.1668381207855,"[58, 0, 196]",196,a,0.3420430977130309,colour,0.5
066,63,0,1,11,7,507,839.676462919917,840.5747810415924,"[54, 0, 200]",200,a,0.3749937969259918,colour,0.5
066,63,0,1,11,8,508,841.0835220511071,841.9748060901184,"[23, 0, 231]",231,a,0.3689742606366053,colour,0.5
066,63,0,1,11,9,509,842.489574118983,843.3027991395211,"[17, 0, 237]",237,a,0.29304752219468355,colour,0.5
066,63,0,1,11,10,510,843.8046254016226,844.8069136446575,"[98, 0, 156]",156,l,0.4789690382312983,colour,0.5
066,63,0,1,11,11,511,845.3203173923539,846.1587875226978,"[20, 0, 234]",234,a,0.3151714055566117,colour,0.5
066,63,0,1,11,12,512,846.6796065955423,847.5267925292719,"[5, 0, 249]",249,a,0.32379741210024804,colour,0.5
066,63,0,1,11,13,513,848.0389552693814,848.8868292514235,"[30, 0, 224]",224,a,0.32448624807875603,colour,0.5
066,63,0,1,11,14,514,849.3859627910424,850.4068043130683,"[95, 0, 159]",159,l,0.49747269263025373,colour,0.5
066,63,0,1,11,15,515,850.9172817879589,851.9828515682602,"[93, 0, 161]",161,l,0.5422608155058697,colour,0.5
066,63,0,1,11,16,516,852.4953037849627,853.2387996215839,"[47, 0, 207]",207,a,0.22015260730404407,colour,0.5
066,63,0,1,11,17,517,853.7472381576663,854.6227612830698,"[2, 0, 252]",252,a,0.3522736312588677,colour,0.5
066,63,0,1,11,18,518,855.1379211883759,855.87081430736,"[29, 0, 225]",225,a,0.2096652863547206,colour,0.5
066,63,0,1,11,19,519,856.3879154776223,857.3427803767845,"[90, 0, 164]",164,l,0.4316504573216662,colour,0.5
066,63,0,1,11,20,520,857.8566122346092,858.6950756695587,"[88, 0, 166]",166,l,0.31595515832304955,colour,0.5
066,63,0,1,11,21,521,859.2166402922012,860.0867523727939,"[43, 0, 211]",211,a,0.3467444328125566,colour,0.5
066,63,0,1,11,22,522,860.6072756676003,861.702807646594,"[27, 0, 227]",227,a,0.5722119865240529,colour,0.5
066,63,0,1,11,23,523,862.2166257199133,863.1747784422478,"[9, 0, 245]",245,a,0.43479058844968677,colour,0.5
066,63,0,1,11,24,524,863.6854217259679,864.654786051251,"[74, 0, 180]",180,l,0.4460789911681786,colour,0.5
066,63,0,1,11,25,525,865.1697663629893,866.3268004849087,"[57, 0, 197]",197,a,0.6337200371781364,colour,0.5
066,63,0,1,11,26,526,866.8416039599106,867.9029107553652,"[31, 0, 223]",223,a,0.5380167352268472,colour,0.5
066,63,0,1,11,27,527,868.4197445044992,869.3827643708792,"[13, 0, 241]",241,a,0.439713264699094,colour,0.5
066,63,0,1,11,28,528,869.904141522944,870.8307976240758,"[78, 0, 176]",176,l,0.4032880595186725,colour,0.5
066,63,0,1,11,29,529,871.3417292027734,872.3588681822876,"[25, 0, 229]",229,a,0.49380874703638256,colour,0.5
066,63,0,1,11,30,530,872.8729072029237,873.8067982478533,"[94, 0, 160]",160,l,0.4104871633462608,colour,0.5
066,63,0,1,11,31,531,874.3259907383472,875.4867585167522,"[66, 0, 188]",188,l,0.6373552321456373,colour,0.5
066,63,0,1,11,32,532,875.9979236460058,877.2787710126722,"[63, 0, 191]",191,l,0.7576364694396034,colour,0.5
066,63,0,1,11,33,533,877.7947434214875,878.606749489787,"[65, 0, 189]",189,l,0.2886628389824182,colour,0.5
066,63,0,1,11,34,534,879.1228644707007,880.0787376145599,"[97, 0, 157]",157,l,0.4449482604395598,colour,0.5
066,63,0,1,11,35,535,880.5948919800576,881.4387247122359,"[37, 0, 217]",217,a,0.32051825360395014,colour,0.5
066,63,0,1,11,36,536,881.9543379337993,882.8787530533737,"[85, 0, 169]",169,l,0.4011447516968474,colour,0.5
066,63,0,1,11,37,537,883.3917928877054,884.3587744469987,"[56, 0, 198]",198,a,0.44304598623421043,colour,0.5
066,63,0,1,11,38,538,884.8767097822856,886.054740207619,"[64, 0, 190]",190,a,0.6545812514377758,colour,0.5
066,63,0,1,11,39,539,886.5642094376963,887.57474362629,"[26, 0, 228]",228,a,0.48718544538132846,colour,0.5
066,63,0,1,11,40,540,888.0955020468682,889.0147321890108,"[86, 0, 168]",168,l,0.3958424082957208,colour,0.5
066,63,0,1,11,41,541,889.5328636593185,890.5027675532037,"[79, 0, 175]",175,l,0.44646299083251506,colour,0.5
066,63,0,1,11,42,542,891.0173240869772,892.262712745578,"[72, 0, 182]",182,l,0.7220375523902476,colour,0.5
066,63,0,1,11,43,543,892.7829666499747,893.7987496190472,"[40, 0, 214]",214,a,0.4926059425342828,colour,0.5
066,63,0,1,11,44,544,894.3167731757276,895.2787154804682,"[77, 0, 177]",177,l,0.438675481476821,colour,0.5
066,63,0,1,11,45,545,895.7855069541838,896.7027371482691,"[14, 0, 240]",240,a,0.39382867561653256,colour,0.5
066,63,0,1,11,46,546,897.2230698218336,898.2387196709169,"[42, 0, 212]",212,a,0.4919568848563358,colour,0.5
066,63,0,1,11,47,547,898.7543175325263,899.694751534611,"[41, 0, 213]",213,a,0.41716087725944817,colour,0.5
066,63,0,1,11,48,548,900.2073171788361,901.0866936898092,"[89, 0, 165]",165,l,0.35598405089695007,colour,0.5
066,63,0,1,11,49,549,901.598012024886,902.4946885980899,"[22, 0, 232]",232,a,0.37345070973969996,colour,0.5
066,63,0,1,11,50,550,903.004252744955,904.1667684101267,"[68, 0, 186]",186,l,0.6392106388229877,colour,0.5
066,63,0,1,12,1,551,909.1572353771189,910.7587880741339,"[44, 0, 210]",210,a,1.0774296533782035,colour,0.5
066,63,0,1,12,2,552,911.2678343139123,912.494723256561,"[99, 0, 155]",155,l,0.7037674483144656,colour,0.5
066,63,0,1,12,3,553,913.0020944710122,914.1187231841031,"[2, 0, 252]",252,a,0.5933689790545031,colour,0.5
066,63,0,1,12,4,554,914.627104612533,915.5108327235794,"[81, 0, 173]",173,l,0.36048491846304387,colour,0.5
066,63,0,1,12,5,555,916.0176521603717,916.9266793379793,"[42, 0, 212]",212,a,0.38565874216146767,colour,0.5
066,63,0,1,12,6,556,917.4395907786675,918.3587169455132,"[65, 0, 189]",189,a,0.3958817927632481,colour,0.5
066,63,0,1,12,7,557,918.877092994051,919.7746805321658,"[47, 0, 207]",207,a,0.37502924306318164,colour,0.5
066,63,0,1,12,8,558,920.2832884218078,921.1986955045722,"[35, 0, 219]",219,a,0.39201107807457447,colour,0.5
066,63,0,1,12,9,559,921.7051077049691,922.6387974948157,"[12, 0, 242]",242,a,0.41024258523248136,colour,0.5
066,63,0,1,12,10,560,923.1582893079612,924.1107639580732,"[28, 0, 226]",226,a,0.42918222676962614,colour,0.5
066,63,0,1,12,11,561,924.6300021347124,925.5746900632512,"[32, 0, 222]",222,a,0.42139511147979647,colour,0.5
066,63,0,1,12,12,562,926.0831061501522,927.4626890360378,"[9, 0, 245]",245,a,0.8563227580161765,colour,0.5
066,63,0,1,12,13,563,927.9737529469421,928.8626467370195,"[10, 0, 244]",244,a,0.36554583453107625,colour,0.5
066,63,0,1,12,14,564,929.3827564939857,930.3986737643136,"[80, 0, 174]",174,l,0.49283673602622,colour,0.5
066,63,0,1,12,15,565,930.9148533358239,931.990711545106,"[60, 0, 194]",194,l,0.5533743510022759,colour,0.5
066,63,0,1,12,16,566,932.5100473953644,933.5186800974188,"[93, 0, 161]",161,l,0.48534539865795523,colour,0.5
066,63,0,1,12,17,567,934.0257094538538,935.390633800067,"[33, 0, 221]",221,a,0.8420261624269187,colour,0.5
066,63,0,1,12,18,568,935.9005957308691,937.3986603735248,"[82, 0, 172]",172,l,0.9755173752782866,colour,0.5
066,63,0,1,12,19,569,937.9161924109794,938.9266714610858,"[77, 0, 177]",177,l,0.4873059621313587,colour,0.5
066,63,0,1,12,20,570,939.4474767493084,940.358675197931,"[75, 0, 179]",179,l,0.38790760072879493,colour,0.5
066,63,0,1,12,21,571,940.8693539277883,942.0626813167473,"[59, 0, 195]",195,a,0.670077107148245,colour,0.5
066,63,0,1,12,22,572,942.5724148171721,943.4386380661745,"[3, 0, 251]",251,a,0.3427567459875718,colour,0.5
066,63,0,1,12,23,573,943.9473979802569,944.7667476938805,"[29, 0, 225]",225,a,0.2959828535094857,colour,0.5
066,63,0,1,12,24,574,945.275492641842,947.1186459903838,"[61, 0, 193]",193,a,1.3197187470505014,colour,0.5
066,63,0,1,12,25,575,947.6348877894925,948.4786645956337,"[88, 0, 166]",166,l,0.3204524813918397,colour,0.5
066,63,0,1,12,26,576,948.9942797863623,949.8866405993467,"[94, 0, 160]",160,l,0.3689915897557512,colour,0.5
066,63,0,1,12,27,577,950.4005650109611,951.0466384096071,"[27, 0, 227]",227,a,0.12281563377473503,colour,0.5
066,63,0,1,12,28,578,951.5528359641321,952.4067680793814,"[50, 0, 204]",204,a,0.3305278398329392,colour,0.5
066,63,0,1,12,29,579,952.9202880114317,953.8546595480293,"[30, 0, 224]",224,a,0.4116903616813943,colour,0.5
066,63,0,1,12,30,580,954.373505060561,955.2146844548406,"[92, 0, 162]",162,l,0.31785388791467994,colour,0.5
066,63,0,1,12,31,581,955.7329262020066,956.806626137346,"[72, 0, 182]",182,l,0.5511136772111058,colour,0.5
066,63,0,1,12,32,582,957.3282336890697,958.3106075226096,"[84, 0, 170]",170,l,0.45910189021378756,colour,0.5
066,63,0,1,12,33,583,958.8281084462069,959.758628566633,"[14, 0, 240]",240,a,0.4070280174491927,colour,0.5
066,63,0,1,12,34,584,960.2657323598396,961.2309368879069,"[89, 0, 165]",165,l,0.442181101301685,colour,0.5
066,63,0,1,12,35,585,961.7499891693005,962.6946511040442,"[69, 0, 185]",185,l,0.4212816839572042,colour,0.5
066,63,0,1,12,36,586,963.2031463538297,964.2306265374646,"[66, 0, 188]",188,l,0.5040861481102183,colour,0.5
066,63,0,1,12,37,587,964.7514152842341,965.6706844170112,"[7, 0, 247]",247,a,0.39577387901954353,colour,0.5
066,63,0,1,12,38,588,966.1890407733154,966.942619057605,"[15, 0, 239]",239,a,0.23030752257909626,colour,0.5
066,63,0,1,12,39,589,967.454677822534,968.5346867706394,"[63, 0, 191]",191,a,0.556734247948043,colour,0.5
066,63,0,1,12,40,590,969.0483394288458,970.0546393832192,"[13, 0, 241]",241,a,0.48299414035864174,colour,0.5
066,63,0,1,12,41,591,970.5515638428042,971.4546502532903,"[36, 0, 218]",218,a,0.37975775345694274,colour,0.5
066,63,0,1,12,42,592,971.9734760734718,973.0306435516104,"[25, 0, 229]",229,a,0.546374139143154,colour,0.5
066,63,0,1,12,43,593,973.5390257678227,974.7586226589046,"[98, 0, 156]",156,l,0.6961221173405647,colour,0.5
066,63,0,1,12,44,594,975.2733666632557,976.1026460124413,"[17, 0, 237]",237,a,0.3059565998846665,colour,0.5
066,63,0,1,12,45,595,976.6171718261903,977.5346962229814,"[86, 0, 168]",168,l,0.3941449335543439,colour,0.5
066,63,0,1,12,46,596,978.0546543493401,978.9986042111414,"[83, 0, 171]",171,l,0.42058221402112395,colour,0.5
066,63,0,1,12,47,597,979.5078052323079,980.4306233079406,"[0, 0, 254]",254,a,0.3982519556302577,colour,0.5
066,63,0,1,12,48,598,980.9466280121123,981.8306286642328,"[1, 0, 253]",253,a,0.3613273542141542,colour,0.5
066,63,0,1,12,49,599,982.3372098244727,983.2866239002906,"[37, 0, 217]",217,a,0.4260873879538849,colour,0.5
066,63,0,1,12,50,600,983.8059558121022,984.9346610131906,"[62, 0, 192]",192,l,0.6053946608444676,colour,0.5
066,63,0,1,13,1,601,989.9926303609973,991.0065969140269,"[68, 0, 186]",186,l,0.48975607566535473,colour,0.5
066,63,0,1,13,2,602,991.5247535905801,992.6306330753723,"[52, 0, 202]",202,l,0.5826256584841758,colour,0.5
066,63,0,1,13,3,603,993.1496936274925,994.0069194735261,"[78, 0, 176]",176,l,0.3323623725445941,colour,0.5
066,63,0,1,13,4,604,994.5253301805351,995.6466862224042,"[15, 0, 239]",239,a,0.5980092679383233,colour,0.5
066,63,0,1,13,5,605,996.1660035619279,997.142621735693,"[6, 0, 248]",248,a,0.4515751067083329,colour,0.5
066,63,0,1,13,6,606,997.651799126179,998.5665788128972,"[65, 0, 189]",189,l,0.3914360635681078,colour,0.5
066,63,0,1,13,7,607,999.0736483415822,999.9425989714218,"[51, 0, 203]",203,l,0.3455833758926019,colour,0.5
066,63,0,1,13,8,608,1000.4486307170009,1001.3506088459399,"[75, 0, 179]",179,l,0.37880937312729657,colour,0.5
066,63,0,1,13,9,609,1001.8608062965795,1002.6225840526167,"[11, 0, 243]",243,a,0.2384707605233416,colour,0.5
066,63,0,1,13,10,610,1003.1404662186978,1003.9745800227392,"[88, 0, 166]",166,l,0.3108552515041083,colour,0.5
066,63,0,1,13,11,611,1004.4859223825624,1005.3426094477763,"[7, 0, 247]",247,a,0.33334068511612713,colour,0.5
066,63,0,1,13,12,612,1005.8610024316004,1006.7345594797516,"[39, 0, 215]",215,a,0.35030125244520605,colour,0.5
066,63,0,1,13,13,613,1007.2515440717107,1008.1905700757634,"[42, 0, 212]",212,a,0.41561424545943737,colour,0.5
066,63,0,1,13,14,614,1008.7045968872262,1009.6545489561977,"[32, 0, 222]",222,a,0.42507205402944237,colour,0.5
066,63,0,1,13,15,615,1010.1753538505873,1011.0625923075713,"[90, 0, 164]",164,l,0.36378888925537467,colour,0.5
066,63,0,1,13,16,616,1011.581613869057,1012.5425971597433,"[64, 0, 190]",190,l,0.43961756012868136,colour,0.5
066,63,0,1,13,17,617,1013.0639798257034,1013.9585445987759,"[25, 0, 229]",229,a,0.371281408239156,colour,0.5
066,63,0,1,13,18,618,1014.4702343302779,1015.4705694928998,"[8, 0, 246]",246,a,0.4770179270999506,colour,0.5
066,63,0,1,13,19,619,1015.9858763025841,1016.9906174161006,"[73, 0, 181]",181,l,0.4813742534024641,colour,0.5
066,63,0,1,13,20,620,1017.5037435025442,1018.4466599135194,"[95, 0, 159]",159,l,0.4181120144203305,colour,0.5
066,63,0,1,13,21,621,1018.9583106543869,1019.8706611014204,"[13, 0, 241]",241,a,0.3889615315711126,colour,0.5
066,63,0,1,13,22,622,1020.3801791683072,1021.2545798337087,"[71, 0, 183]",183,l,0.3510318361222744,colour,0.5
066,63,0,1,13,23,623,1021.770792882191,1022.6705331803532,"[30, 0, 224]",224,a,0.3763222381239757,colour,0.5
066,63,0,1,13,24,624,1023.1770997681888,1024.0385444884887,"[86, 0, 168]",168,l,0.3382046784972772,colour,0.5
066,63,0,1,13,25,625,1024.5520411836915,1025.3825969864847,"[37, 0, 217]",217,a,0.30756191443651915,colour,0.5
066,63,0,1,13,26,626,1025.8882478832966,1026.7345748397056,"[82, 0, 172]",172,l,0.3231310253031552,colour,0.5
066,63,0,1,13,27,627,1027.247506366577,1028.1185298059136,"[38, 0, 216]",216,a,0.34771723148878664,colour,0.5
066,63,0,1,13,28,628,1028.638177975663,1029.5105629393365,"[98, 0, 156]",156,l,0.3497990993782878,colour,0.5
066,63,0,1,13,29,629,1030.0163753128145,1030.894828255754,"[31, 0, 223]",223,a,0.3552121133543551,colour,0.5
066,63,0,1,13,30,630,1031.4070205343887,1032.2625040074345,"[18, 0, 236]",236,a,0.3321138561004773,colour,0.5
066,63,0,1,13,31,631,1032.784059177735,1033.7025481023593,"[57, 0, 197]",197,l,0.39510631072334945,colour,0.5
066,63,0,1,13,32,632,1034.221899706521,1035.2225802716566,"[49, 0, 205]",205,l,0.47736017883289605,colour,0.5
066,63,0,1,13,33,633,1035.7375436479924,1036.3665651070187,"[1, 0, 253]",253,a,0.10447896982077509,colour,0.5
066,63,0,1,13,34,634,1036.8798286457313,1037.8865031473106,"[56, 0, 198]",198,l,0.4834895981475711,colour,0.5
066,63,0,1,13,35,635,1038.3951697199373,1039.262550875079,"[76, 0, 178]",178,l,0.3440320180961862,colour,0.5
066,63,0,1,13,36,636,1039.7701461876277,1040.7265825307695,"[35, 0, 219]",219,a,0.4329639323987067,colour,0.5
066,63,0,1,13,37,637,1041.2388941445388,1042.1264984841691,"[81, 0, 173]",173,l,0.3642252702265978,colour,0.5
066,63,0,1,13,38,638,1042.6454337934265,1043.3264881654177,"[21, 0, 233]",233,a,0.15795453928876668,colour,0.5
066,63,0,1,13,39,639,1043.8327412521467,1044.7504865962546,"[77, 0, 177]",177,l,0.39458446530625224,colour,0.5
066,63,0,1,13,40,640,1045.270191086107,1046.1825391699094,"[46, 0, 208]",208,a,0.3890343928942457,colour,0.5
066,63,0,1,13,41,641,1046.6920828367583,1047.6705233341781,"[69, 0, 185]",185,l,0.4551949417218566,colour,0.5
066,63,0,1,13,42,642,1048.1921273414046,1049.1904999712715,"[58, 0, 196]",196,l,0.4750935974298045,colour,0.5
066,63,0,1,13,43,643,1049.7076456460636,1050.814521954162,"[48, 0, 206]",206,l,0.5929995517944917,colour,0.5
066,63,0,1,13,44,644,1051.3233657573583,1052.5425109076314,"[43, 0, 211]",211,l,0.6965041476069018,colour,0.5
066,63,0,1,13,45,645,1053.057855920284,1053.9345739732962,"[29, 0, 225]",225,a,0.3534445343539119,colour,0.5
066,63,0,1,13,46,646,1054.4484085880686,1055.3985079553677,"[87, 0, 167]",167,l,0.42700150376185775,colour,0.5
066,63,0,1,13,47,647,1055.917081320542,1057.542554624495,"[50, 0, 204]",204,l,1.102099354728125,colour,0.5
066,63,0,1,13,48,648,1058.0577783327317,1059.0305285487557,"[54, 0, 200]",200,l,0.4494384943973273,colour,0.5
066,63,0,1,13,49,649,1059.542103671236,1060.414513053256,"[22, 0, 232]",232,a,0.3491591002093628,colour,0.5
066,63,0,1,13,50,650,1060.932769766543,1061.8384614657843,"[5, 0, 249]",249,a,0.38243629748467356,colour,0.5
066,63,0,1,14,1,651,1066.8225587677443,1067.7504755685804,"[89, 0, 165]",165,l,0.40389300626702607,colour,0.5
066,63,0,1,14,2,652,1068.260798655916,1069.2945390156237,"[57, 0, 197]",197,a,0.5106684899656102,colour,0.5
066,63,0,1,14,3,653,1069.807681643637,1070.7665480141295,"[55, 0, 199]",199,a,0.43544476584065706,colour,0.5
066,63,0,1,14,4,654,1071.2764485051157,1072.1824726100313,"[18, 0, 236]",236,a,0.3829632628476247,colour,0.5
066,63,0,1,14,5,655,1072.6983158374205,1073.5825476769824,"[22, 0, 232]",232,a,0.361015428439714,colour,0.5
066,63,0,1,14,6,656,1074.0888503883034,1074.934512927197,"[11, 0, 243]",243,a,0.32211214676499367,colour,0.5
066,63,0,1,14,7,657,1075.4482471114025,1076.3105070920428,"[66, 0, 188]",188,l,0.3390864987159148,colour,0.5
066,63,0,1,14,8,658,1076.8232519360026,1077.9507106157253,"[45, 0, 209]",209,l,0.6041375057538971,colour,0.5
066,63,0,1,14,9,659,1078.463925711345,1080.0385043162387,"[60, 0, 194]",194,l,1.0512972093420103,colour,0.5
066,63,0,1,14,10,660,1080.5577543081017,1081.5265479511581,"[32, 0, 222]",222,a,0.4455181551165879,colour,0.5
066,63,0,1,14,11,661,1082.0419926067116,1082.9264627229422,"[63, 0, 191]",191,l,0.360908696311526,colour,0.5
066,63,0,1,14,12,662,1083.4326835143147,1084.4225096945884,"[31, 0, 223]",223,a,0.46661961532663554,colour,0.5
066,63,0,1,14,13,663,1084.932719748118,1085.830487667583,"[25, 0, 229]",229,a,0.3748082956299186,colour,0.5
066,63,0,1,14,14,664,1086.3387796930037,1087.2144705967512,"[37, 0, 217]",217,a,0.3521586284041405,colour,0.5
066,63,0,1,14,15,665,1087.7294832037296,1088.5744580881437,"[78, 0, 176]",176,l,0.3215694274986163,colour,0.5
066,63,0,1,14,16,666,1089.0887932807673,1089.9744709274964,"[48, 0, 206]",206,a,0.3622398944571614,colour,0.5
066,63,0,1,14,17,667,1090.4958311442751,1091.422438014648,"[44, 0, 210]",210,a,0.4033916408661753,colour,0.5
066,63,0,1,14,18,668,1091.9351552894805,1092.8144947788678,"[38, 0, 216]",216,a,0.35601319547276944,colour,0.5
066,63,0,1,14,19,669,1093.3257111079292,1094.2384841513122,"[27, 0, 227]",227,a,0.3902466497384012,colour,0.5
066,63,0,1,14,20,670,1094.7361380129587,1095.7185083018849,"[43, 0, 211]",211,a,0.45927636383567005,colour,0.5
066,63,0,1,14,21,671,1096.2361159576103,1097.318445444107,"[21, 0, 233]",233,a,0.558976017171517,colour,0.5
066,63,0,1,14,22,672,1097.8298756314907,1098.8064233069308,"[70, 0, 184]",184,l,0.4525770500767976,colour,0.5
066,63,0,1,14,23,673,1099.3149441566784,1100.2064243308268,"[92, 0, 162]",162,l,0.36842799675650895,colour,0.5
066,63,0,1,14,24,674,1100.7212018120335,1101.6144487776328,"[17, 0, 237]",237,a,0.36991712695453316,colour,0.5
066,63,0,1,14,25,675,1102.127465375117,1103.2624858905328,"[47, 0, 207]",207,a,0.6120526209706441,colour,0.5
066,63,0,1,14,26,676,1103.783738981234,1104.6784215141088,"[88, 0, 166]",166,l,0.3714550940785557,colour,0.5
066,63,0,1,14,27,677,1105.1899076275295,1106.1744519441854,"[80, 0, 174]",174,l,0.4612845826195553,colour,0.5
066,63,0,1,14,28,678,1106.689930864377,1107.6145685067168,"[90, 0, 164]",164,l,0.40144407434854656,colour,0.5
066,63,0,1,14,29,679,1108.1274338674266,1109.110439823242,"[2, 0, 252]",252,a,0.45970683719497174,colour,0.5
066,63,0,1,14,30,680,1109.6274090551306,1110.5504354750738,"[46, 0, 208]",208,a,0.3997166673652828,colour,0.5
066,63,0,1,14,31,681,1111.0648817321053,1111.9984108329518,"[39, 0, 215]",215,a,0.41036822192836553,colour,0.5
066,63,0,1,14,32,682,1112.5180089843925,1113.454436789034,"[75, 0, 179]",179,l,0.4131905196700245,colour,0.5
066,63,0,1,14,33,683,1113.971182316658,1114.8944694624515,"[87, 0, 167]",167,l,0.4001042115269229,colour,0.5
066,63,0,1,14,34,684,1115.408666808973,1116.3023954478558,"[56, 0, 198]",198,a,0.3705098646460101,colour,0.5
066,63,0,1,14,35,685,1116.802452949225,1117.7104265899397,"[98, 0, 156]",156,l,0.3845457345014438,colour,0.5
066,63,0,1,14,36,686,1118.224325795425,1119.5423860584851,"[65, 0, 189]",189,l,0.7946461414685473,colour,0.5
066,63,0,1,14,37,687,1120.0524330600165,1120.9904366409173,"[85, 0, 169]",169,l,0.4147005237173289,colour,0.5
066,63,0,1,14,38,688,1121.507253848482,1122.3985189830419,"[72, 0, 182]",182,l,0.36795420048292726,colour,0.5
066,63,0,1,14,39,689,1122.9165185150923,1124.0463914683787,"[62, 0, 192]",192,l,0.606498216278851,colour,0.5
066,63,0,1,14,40,690,1124.5571568442974,1126.254424658604,"[49, 0, 205]",205,a,1.1739399449434131,colour,0.5
066,63,0,1,14,41,691,1126.7759624996688,1127.6704650450265,"[15, 0, 239]",239,a,0.3712660481687635,colour,0.5
066,63,0,1,14,42,692,1128.1821598965907,1129.0944130637217,"[97, 0, 157]",157,l,0.38915254664607346,colour,0.5
066,63,0,1,14,43,693,1129.591597461491,1130.4864060248947,"[71, 0, 183]",183,l,0.37145273096393794,colour,0.5
066,63,0,1,14,44,694,1130.986181532964,1131.8703956494574,"[0, 0, 254]",254,a,0.3609516255091876,colour,0.5
066,63,0,1,14,45,695,1132.378644745797,1133.2544183570426,"[6, 0, 248]",248,a,0.3524260496487841,colour,0.5
066,63,0,1,14,46,696,1133.7692753949668,1134.9583886358887,"[82, 0, 172]",172,l,0.6645002532750368,colour,0.5
066,63,0,1,14,47,697,1135.4735950148897,1136.36643474421,"[34, 0, 220]",220,a,0.36957802600227296,colour,0.5
066,63,0,1,14,48,698,1136.8816383662634,1137.7904245104874,"[86, 0, 168]",168,l,0.38549214554950595,colour,0.5
066,63,0,1,14,49,699,1138.303569107782,1139.158413763158,"[51, 0, 203]",203,a,0.3314880352700129,colour,0.5
066,63,0,1,14,50,700,1139.6702767868992,1140.5103766503744,"[30, 0, 224]",224,a,0.31674403115175664,colour,0.5
066,63,0,1,15,1,701,1145.6540046615992,1146.5823936833767,"[49, 0, 205]",205,a,0.40437428560107946,colour,0.5
066,63,0,1,15,2,702,1147.0923611280741,1147.9583724881522,"[8, 0, 246]",246,a,0.34284733049571514,colour,0.5
066,63,0,1,15,3,703,1148.469131168793,1149.6864138230449,"[52, 0, 202]",202,l,0.693993775639683,colour,0.5
066,63,0,1,15,4,704,1150.203497664188,1151.0943465038436,"[73, 0, 181]",181,l,0.3676154932472855,colour,0.5
066,63,0,1,15,5,705,1151.6097533502616,1152.4623826241586,"[89, 0, 165]",165,l,0.3293411829508841,colour,0.5
066,63,0,1,15,6,706,1152.9690898149274,1154.06238514476,"[28, 0, 226]",226,a,0.570084432605654,colour,0.5
066,63,0,1,15,7,707,1154.5784875226673,1155.478450737428,"[62, 0, 192]",192,l,0.37688189279288054,colour,0.5
066,63,0,1,15,8,708,1155.9846963410964,1156.8703322403599,"[99, 0, 155]",155,l,0.3623962512938306,colour,0.5
066,63,0,1,15,9,709,1157.3909362734994,1158.2063652540091,"[19, 0, 235]",235,a,0.29217594186775386,colour,0.5
066,63,0,1,15,10,710,1158.7190573227126,1159.614378673141,"[7, 0, 247]",247,a,0.37197890877723694,colour,0.5
066,63,0,1,15,11,711,1160.1253232487943,1160.9583583096974,"[75, 0, 179]",179,l,0.3096989206969738,colour,0.5
066,63,0,1,15,12,712,1161.4690102580935,1162.3743656132137,"[66, 0, 188]",188,l,0.3819097258383408,colour,0.5
066,63,0,1,15,13,713,1162.8911375285825,1163.7744217755971,"[9, 0, 245]",245,a,0.3601536942878738,colour,0.5
066,63,0,1,15,14,714,1164.2815425042063,1165.102744867676,"[82, 0, 172]",172,l,0.29811198299285024,colour,0.5
066,63,0,1,15,15,715,1165.602801975212,1166.5183378455695,"[20, 0, 234]",234,a,0.3903864650055766,colour,0.5
066,63,0,1,15,16,716,1167.026456185151,1168.2783409332624,"[50, 0, 204]",204,a,0.728521826560609,colour,0.5
066,63,0,1,15,17,717,1168.7827701210044,1169.8143671728903,"[65, 0, 189]",189,a,0.5081738719018176,colour,0.5
066,63,0,1,15,18,718,1170.3330535717541,1171.2463472789386,"[24, 0, 230]",230,a,0.39004342549014837,colour,0.5
066,63,0,1,15,19,719,1171.7568298736587,1172.6383650524076,"[34, 0, 220]",220,a,0.358120663324371,colour,0.5
066,63,0,1,15,20,720,1173.1475223567104,1174.5823078250978,"[94, 0, 160]",160,l,0.9115564542589709,colour,0.5
066,63,0,1,15,21,721,1175.1006232213695,1176.054388897377,"[48, 0, 206]",206,a,0.4305559603963047,colour,0.5
066,63,0,1,15,22,722,1176.5693747228943,1177.438454927993,"[25, 0, 229]",229,a,0.34579959721304476,colour,0.5
066,63,0,1,15,23,723,1177.9600380612537,1178.8543543177657,"[10, 0, 244]",244,a,0.37112859613262117,colour,0.5
066,63,0,1,15,24,724,1179.3538541337475,1180.2543982708594,"[30, 0, 224]",224,a,0.377168218488805,colour,0.5
066,63,0,1,15,25,725,1180.77568405075,1181.9663478618022,"[64, 0, 190]",190,l,0.6673804462188855,colour,0.5
066,63,0,1,15,26,726,1182.478826859966,1183.670321685262,"[45, 0, 209]",209,a,0.6685229922877625,colour,0.5
066,63,0,1,15,27,727,1184.1818920816295,1185.0783327412792,"[21, 0, 233]",233,a,0.3732825377956033,colour,0.5
066,63,0,1,15,28,728,1185.588732628501,1186.4223411285784,"[13, 0, 241]",241,a,0.3102077692747116,colour,0.5
066,63,0,1,15,29,729,1186.9325488192262,1187.8463297133567,"[95, 0, 159]",159,l,0.39062395377550274,colour,0.5
066,63,0,1,15,30,730,1188.3419174610171,1189.014318257221,"[78, 0, 176]",176,l,0.149498280021362,colour,0.5
066,63,0,1,15,31,731,1189.5294962794287,1190.4943353185663,"[67, 0, 187]",187,l,0.4508220738498494,colour,0.5
066,63,0,1,15,32,732,1191.0044646338793,1191.8303151631262,"[27, 0, 227]",227,a,0.30255337979178876,colour,0.5
066,63,0,1,15,33,733,1192.3481559754582,1193.1903262853157,"[14, 0, 240]",240,a,0.31894405256025493,colour,0.5
066,63,0,1,15,34,734,1193.7075460031629,1194.9503502469743,"[97, 0, 157]",157,l,0.7194452605908737,colour,0.5
066,63,0,1,15,35,735,1195.4576131538488,1196.3823512268718,"[51, 0, 203]",203,a,0.4014161112718284,colour,0.5
066,63,0,1,15,36,736,1196.882648186409,1197.8863605750958,"[63, 0, 191]",191,l,0.48051527608186007,colour,0.5
066,63,0,1,15,37,737,1198.398375229328,1199.3664922455791,"[41, 0, 213]",213,a,0.4452042600605637,colour,0.5
066,63,0,1,15,38,738,1199.882619041833,1200.6862830662867,"[36, 0, 218]",218,a,0.28048857336398214,colour,0.5
066,63,0,1,15,39,739,1201.1950500695966,1202.1423058715882,"[56, 0, 198]",198,a,0.4238916988251731,colour,0.5
066,63,0,1,15,40,740,1202.6638082665158,1203.4702914379304,"[68, 0, 186]",186,l,0.2830812589963898,colour,0.5
066,63,0,1,15,41,741,1203.9919513710774,1204.9343081275001,"[39, 0, 215]",215,a,0.42897073179483414,colour,0.5
066,63,0,1,15,42,742,1205.4509500737768,1206.2383183422498,"[76, 0, 178]",178,l,0.26393524231389165,colour,0.5
066,63,0,1,15,43,743,1206.7478757937206,1207.5984436797444,"[79, 0, 175]",175,l,0.3273597457446158,colour,0.5
066,63,0,1,15,44,744,1208.107190990704,1208.950274628587,"[47, 0, 207]",207,a,0.31968251313082874,colour,0.5
066,63,0,1,15,45,745,1209.4666460029548,1210.3422857066616,"[71, 0, 183]",183,l,0.3525264802156016,colour,0.5
066,63,0,1,15,46,746,1210.852852978278,1211.69433484599,"[72, 0, 182]",182,l,0.3170374460751191,colour,0.5
066,63,0,1,15,47,747,1212.20466462872,1213.0143296787282,"[11, 0, 243]",243,a,0.2993588980752975,colour,0.5
066,63,0,1,15,48,748,1213.5122635646258,1214.310332224588,"[26, 0, 228]",228,a,0.27386054559610784,colour,0.5
066,63,0,1,15,49,749,1214.8194788950495,1215.6943927413085,"[15, 0, 239]",239,a,0.3514489185763523,colour,0.5
066,63,0,1,15,50,750,1216.210231242585,1217.2944047142519,"[88, 0, 166]",166,l,0.5608341807965189,colour,0.5
066,63,0,1,16,1,751,1222.1028831074946,1223.4705222314224,"[60, 0, 194]",194,a,0.8554173070006073,colour,0.5
066,63,0,1,16,2,752,1223.9831627063686,1224.9182474972913,"[93, 0, 161]",161,l,0.41190618905238807,colour,0.5
066,63,0,1,16,3,753,1225.4362639648607,1226.422327737906,"[19, 0, 235]",235,a,0.46271975606214255,colour,0.5
066,63,0,1,16,4,754,1226.9362493925728,1227.8062689193757,"[86, 0, 168]",168,l,0.3466873251600191,colour,0.5
066,63,0,1,16,5,755,1228.327813062002,1229.21433944616,"[36, 0, 218]",218,a,0.36356085271108896,colour,0.5
066,63,0,1,16,6,756,1229.7215350053739,1230.542280114023,"[75, 0, 179]",179,l,0.2973668270278722,colour,0.5
066,63,0,1,16,7,757,1231.0496659007622,1231.7902141968952,"[72, 0, 182]",182,l,0.21743940492160618,colour,0.5
066,63,0,1,16,8,758,1232.3015691597247,1232.9582618175773,"[42, 0, 212]",212,a,0.133367151604034,colour,0.5
066,63,0,1,16,9,759,1233.4734847381478,1234.0702549677808,"[70, 0, 184]",184,l,0.07342503103427589,colour,0.5
066,63,0,1,16,10,760,1234.5828021012712,1235.206282940344,"[20, 0, 234]",234,a,0.10028727108146995,colour,0.5
066,63,0,1,16,11,761,1235.724170620204,1236.3502717141528,"[3, 0, 251]",251,a,0.10267436923459172,colour,0.5
066,63,0,1,16,12,762,1236.8648554232204,1237.7102611748269,"[25, 0, 229]",229,a,0.32212553755380213,colour,0.5
066,63,0,1,16,13,763,1238.2242151248502,1239.4142381490674,"[95, 0, 159]",159,l,0.6666774317855015,colour,0.5
066,63,0,1,16,14,764,1239.9273701432394,1240.4623991657281,"[51, 0, 203]",203,a,0.011660587042570114,colour,0.5
066,63,0,1,16,15,765,1240.9754965015454,1241.9422535689082,"[62, 0, 192]",192,a,0.4436627484392375,colour,0.5
066,63,0,1,16,16,766,1242.4599006092176,1243.6862724324455,"[97, 0, 157]",157,l,0.7013594761956483,colour,0.5
066,63,0,1,16,17,767,1244.1959567022277,1245.1182931046933,"[98, 0, 156]",156,l,0.3990203484427184,colour,0.5
066,63,0,1,16,18,768,1245.6336180312792,1246.5982538461685,"[4, 0, 250]",250,a,0.44127801328431815,colour,0.5
066,63,0,1,16,19,769,1247.1179989019874,1248.2062573403819,"[10, 0, 244]",244,a,0.5649884643498808,colour,0.5
066,63,0,1,16,20,770,1248.7274202404078,1249.6862617987208,"[32, 0, 222]",222,a,0.4355707966024056,colour,0.5
066,63,0,1,16,21,771,1250.196137871244,1251.1662343555363,"[69, 0, 185]",185,l,0.446869439445436,colour,0.5
066,63,0,1,16,22,772,1251.6804876282113,1252.6782446773723,"[80, 0, 174]",174,l,0.4745378812076524,colour,0.5
066,63,0,1,16,23,773,1253.1961744988803,1254.2782554688165,"[39, 0, 215]",215,a,0.558814934338443,colour,0.5
066,63,0,1,16,24,774,1254.789832166629,1256.1342154950835,"[89, 0, 165]",165,l,0.8211696742800996,colour,0.5
066,63,0,1,16,25,775,1256.649324200349,1257.6782088375185,"[8, 0, 246]",246,a,0.5059167427243665,colour,0.5
066,63,0,1,16,26,776,1258.1960358652286,1259.4148612128338,"[59, 0, 195]",195,a,0.6954785736743361,colour,0.5
066,63,0,1,16,27,777,1259.9304484404856,1260.8623155129608,"[91, 0, 163]",163,l,0.40860930760391057,colour,0.5
066,63,0,1,16,28,778,1261.3835965666221,1262.2942353605758,"[92, 0, 162]",162,l,0.3872636631131172,colour,0.5
066,63,0,1,16,29,779,1262.8053142376011,1263.702230662806,"[44, 0, 210]",210,a,0.3734286545077339,colour,0.5
066,63,0,1,16,30,780,1264.2117121020565,1265.334220142453,"[41, 0, 213]",213,a,0.5992928108898923,colour,0.5
066,63,0,1,16,31,781,1265.8522787513211,1266.7822541833157,"[49, 0, 205]",205,a,0.40665662102401257,colour,0.5
066,63,0,1,16,32,782,1267.2897577298572,1268.4142188505502,"[64, 0, 190]",190,a,0.6011675158515573,colour,0.5
066,63,0,1,16,33,783,1268.9303657329874,1270.2222844936186,"[66, 0, 188]",188,a,0.7685515066841617,colour,0.5
066,63,0,1,16,34,784,1270.742918065167,1271.8382164938375,"[46, 0, 208]",208,a,0.5728543488075957,colour,0.5
066,63,0,1,16,35,785,1272.353791512316,1273.4782034023665,"[53, 0, 201]",201,a,0.6009820146718994,colour,0.5
066,63,0,1,16,36,786,1273.9944203892956,1275.1501945991768,"[29, 0, 225]",225,a,0.6324045929359272,colour,0.5
066,63,0,1,16,37,787,1275.666398982983,1276.7581945487764,"[31, 0, 223]",223,a,0.5685897885123268,colour,0.5
066,63,0,1,16,38,788,1277.2757565183565,1278.4142141244374,"[57, 0, 197]",197,a,0.6151722719660029,colour,0.5
066,63,0,1,16,39,789,1278.9329836247489,1279.830192677211,"[6, 0, 248]",248,a,0.3738815769320354,colour,0.5
066,63,0,1,16,40,790,1280.3361310813343,1281.3341886347625,"[27, 0, 227]",227,a,0.4870921039255336,colour,0.5
066,63,0,1,16,41,791,1281.8549360276666,1282.9102067453787,"[0, 0, 254]",254,a,0.5318538391729817,colour,0.5
066,63,0,1,16,42,792,1283.4175303045195,1284.5181834580144,"[37, 0, 217]",217,a,0.5773930256254971,colour,0.5
066,63,0,1,16,43,793,1285.0269307690905,1285.9581712330692,"[65, 0, 189]",189,l,0.40798112377524376,colour,0.5
066,63,0,1,16,44,794,1286.4645688611781,1287.3182095306693,"[15, 0, 239]",239,a,0.33046285528689623,colour,0.5
066,63,0,1,16,45,795,1287.8271096537355,1289.4461939942557,"[48, 0, 206]",206,a,1.0957454434828833,colour,0.5
066,63,0,1,16,46,796,1289.9677617675625,1291.230192125775,"[58, 0, 196]",196,a,0.739118242636323,colour,0.5
066,63,0,1,16,47,797,1291.7392738116905,1292.6701799008297,"[17, 0, 237]",237,a,0.40846516005694866,colour,0.5
066,63,0,1,16,48,798,1293.1767516087275,1294.1501784514403,"[33, 0, 221]",221,a,0.4500686472747475,colour,0.5
066,63,0,1,16,49,799,1294.662186016445,1295.7501459198538,"[77, 0, 177]",177,l,0.5646312462631613,colour,0.5
066,63,0,1,16,50,800,1296.27152937348,1297.2462035252247,"[74, 0, 180]",180,l,0.4512848424492404,colour,0.5
