id,age,condition,counterbalance,block,trialinblock,trial,tstart,tend,trialstim,trialintensity,response,RT,trialtype,colourfreq
164,19,1,2,Practice,1,NA,5.7998113334178925e-06,2.9448564001359046,"[8, 0, 246]",246,a,2.4298412003554404,colour,0.5
164,19,1,2,Practice,2,NA,3.460111299995333,4.600755900144577,"[18, 0, 236]",236,a,0.617437600158155,colour,0.5
164,19,1,2,Practice,3,NA,5.116198599804193,6.032752099912614,"[78, 0, 176]",176,l,0.3933981000445783,colour,0.5
164,19,1,2,Practice,4,NA,6.539784499909729,7.520727400202304,"[14, 0, 240]",240,a,0.45788110001012683,colour,0.5
164,19,1,2,Practice,5,NA,8.039655500091612,15.808663200121373,"[61, 0, 193]",193,l,7.246181400027126,colour,0.5
164,19,1,2,Practice,6,NA,16.320598700083792,17.200728999916464,"[41, 0, 213]",213,a,0.35726459976285696,colour,0.5
164,19,1,2,Practice,7,NA,17.71073090005666,18.47269929992035,"[76, 0, 178]",178,l,0.23865059996023774,colour,0.5
164,19,1,2,Practice,8,NA,18.99186100019142,19.82465359987691,"[73, 0, 181]",181,l,0.30965209985151887,colour,0.5
164,19,1,2,Practice,9,NA,20.33548010000959,22.016722000204027,"[5, 0, 249]",249,a,1.15800050040707,colour,0.5
164,19,1,2,Practice,10,NA,22.522848799824715,33.6246960000135,"[52, 0, 202]",202,a,10.57871020026505,colour,0.5
164,19,1,2,1,1,1,4.270403300411999,5.240008500404656,"[27, 0, 227]",227,a,0.4456994002684951,colour,0.5
164,19,1,2,1,2,2,5.757297000382096,6.752037000376731,"[47, 0, 207]",207,a,0.4714931002818048,colour,0.5
164,19,1,2,1,3,3,7.272964900359511,8.216055100318044,"[46, 0, 208]",208,a,0.41995680006220937,colour,0.5
164,19,1,2,1,4,4,8.727766400203109,9.63207870023325,"[49, 0, 205]",205,a,0.3816757998429239,colour,0.5
164,19,1,2,1,5,5,10.14953190041706,14.272058000322431,"[55, 0, 199]",199,a,3.59925530012697,colour,0.5
164,19,1,2,1,6,6,14.79171030037105,15.640002500265837,"[42, 0, 212]",212,a,0.3256264999508858,colour,0.5
164,19,1,2,1,7,7,16.15075260028243,16.95203260006383,"[35, 0, 219]",219,a,0.27804649993777275,colour,0.5
164,19,1,2,1,8,8,17.463232100009918,18.25602490035817,"[65, 0, 189]",189,l,0.26748180016875267,colour,0.5
164,19,1,2,1,9,9,18.77634150022641,19.5920342002064,"[77, 0, 177]",177,l,0.29235529992729425,colour,0.5
164,19,1,2,1,10,10,20.104390799999237,20.671984100248665,"[43, 0, 211]",211,a,0.044224599841982126,colour,0.5
164,19,1,2,1,11,11,21.18240400031209,21.720396700315177,"[88, 0, 166]",166,l,0.01466390024870634,colour,0.5
164,19,1,2,1,12,12,22.229251800104976,22.856006700079888,"[61, 0, 193]",193,a,0.10353469988331199,colour,0.5
164,19,1,2,1,13,13,23.36971140000969,24.16799720004201,"[13, 0, 241]",241,a,0.2750130998902023,colour,0.5
164,19,1,2,1,14,14,24.68216190021485,25.496005000080913,"[70, 0, 184]",184,l,0.29056779993698,colour,0.5
164,19,1,2,1,15,15,26.01013180008158,26.84808940021321,"[2, 0, 252]",252,a,0.3145357999019325,colour,0.5
164,19,1,2,1,16,16,27.369364600162953,28.688051900360733,"[53, 0, 201]",201,a,0.795282400213182,colour,0.5
164,19,1,2,1,17,17,29.199394500348717,30.024067500140518,"[17, 0, 237]",237,a,0.30131160002201796,colour,0.5
164,19,1,2,1,18,18,30.542961600236595,31.135982100386173,"[36, 0, 218]",218,a,0.06798050040379167,colour,0.5
164,19,1,2,1,19,19,31.652492800261825,32.431985600385815,"[73, 0, 181]",181,l,0.25314690032973886,colour,0.5
164,19,1,2,1,20,20,32.95236840005964,34.4480023002252,"[59, 0, 195]",195,l,0.9701604000292718,colour,0.5
164,19,1,2,1,21,21,34.955362300388515,35.73599450010806,"[14, 0, 240]",240,a,0.2582526998594403,colour,0.5
164,19,1,2,1,22,22,36.25209960015491,36.87205070024356,"[84, 0, 170]",170,l,0.09664750006049871,colour,0.5
164,19,1,2,1,23,23,37.394226600416005,38.119964400306344,"[93, 0, 161]",161,l,0.2025385000742972,colour,0.5
164,19,1,2,1,24,24,38.62857160018757,39.38399270037189,"[90, 0, 164]",164,l,0.23231790028512478,colour,0.5
164,19,1,2,1,25,25,39.89403500035405,40.656028900295496,"[96, 0, 158]",158,l,0.23880370007827878,colour,0.5
164,19,1,2,1,26,26,41.17526590032503,41.81601470010355,"[92, 0, 162]",162,l,0.11757380003109574,colour,0.5
164,19,1,2,1,27,27,42.33127690013498,43.14402670040727,"[31, 0, 223]",223,a,0.28930960036814213,colour,0.5
164,19,1,2,1,28,28,43.65952710015699,44.54404490021989,"[68, 0, 186]",186,l,0.36151430010795593,colour,0.5
164,19,1,2,1,29,29,45.06551800016314,47.50404780032113,"[62, 0, 192]",192,a,1.9152667000889778,colour,0.5
164,19,1,2,1,30,30,48.01847060024738,48.87199850007892,"[19, 0, 235]",235,a,0.33031569980084896,colour,0.5
164,19,1,2,1,31,31,49.39329749997705,49.9520046999678,"[11, 0, 243]",243,a,0.03558079991489649,colour,0.5
164,19,1,2,1,32,32,50.47132190037519,52.264015700202435,"[57, 0, 197]",197,a,1.2695412999019027,colour,0.5
164,19,1,2,1,33,33,52.78364130016416,53.60801980039105,"[10, 0, 244]",244,a,0.30112410010769963,colour,0.5
164,19,1,2,1,34,34,54.127265400253236,54.75198379997164,"[7, 0, 247]",247,a,0.10132939973846078,colour,0.5
164,19,1,2,1,35,35,55.26782240020111,56.06400510016829,"[3, 0, 251]",251,a,0.2729897000826895,colour,0.5
164,19,1,2,1,36,36,56.580160800367594,57.4960340000689,"[50, 0, 204]",204,a,0.38837229972705245,colour,0.5
164,19,1,2,1,37,37,58.00602299999446,58.808062199968845,"[91, 0, 163]",163,l,0.27869199961423874,colour,0.5
164,19,1,2,1,38,38,59.31856060028076,60.12003690004349,"[8, 0, 246]",246,a,0.27820529974997044,colour,0.5
164,19,1,2,1,39,39,60.63091649999842,63.13599490001798,"[60, 0, 194]",194,a,1.982058399822563,colour,0.5
164,19,1,2,1,40,40,63.64630310004577,64.45598250022158,"[80, 0, 174]",174,l,0.28660969994962215,colour,0.5
164,19,1,2,1,41,41,64.97424060013145,65.7760354001075,"[81, 0, 173]",173,l,0.2784545999020338,colour,0.5
164,19,1,2,1,42,42,66.28657950041816,67.10396330012009,"[40, 0, 214]",214,a,0.2939665000885725,colour,0.5
164,19,1,2,1,43,43,67.61467909999192,68.39201760012656,"[89, 0, 165]",165,l,0.2533764000982046,colour,0.5
164,19,1,2,1,44,44,68.9122155001387,69.72794310003519,"[78, 0, 176]",176,l,0.29246879974380136,colour,0.5
164,19,1,2,1,45,45,70.24031660007313,71.0239728000015,"[12, 0, 242]",242,a,0.2604706999845803,colour,0.5
164,19,1,2,1,46,46,71.53690830012783,72.36798450024799,"[29, 0, 225]",225,a,0.307693500071764,colour,0.5
164,19,1,2,1,47,47,72.88064480014145,73.70395210012794,"[4, 0, 250]",250,a,0.300394699908793,colour,0.5
164,19,1,2,1,48,48,74.22424959996715,75.00001770025119,"[18, 0, 236]",236,a,0.2525088000111282,colour,0.5
164,19,1,2,1,49,49,75.52109860023484,76.31194430030882,"[0, 0, 254]",254,a,0.2676997003145516,colour,0.5
164,19,1,2,1,50,50,76.81783170020208,77.62402530014515,"[83, 0, 171]",171,l,0.2830260000191629,colour,0.5
164,19,1,2,2,1,51,107.02710640011355,107.80795010039583,"[96, 0, 158]",158,l,0.2568107000552118,colour,0.5
164,19,1,2,2,2,52,108.32470320025459,109.14394110022113,"[93, 0, 161]",161,l,0.2961273998953402,colour,0.5
164,19,1,2,2,3,53,109.65267810039222,110.42397320037708,"[83, 0, 171]",171,l,0.24797150027006865,colour,0.5
164,19,1,2,2,4,54,110.93373779999092,111.71203240007162,"[85, 0, 169]",169,l,0.2550627999007702,colour,0.5
164,19,1,2,2,5,55,112.23049640003592,112.983957500197,"[0, 0, 254]",254,a,0.2303464999422431,colour,0.5
164,19,1,2,2,6,56,113.4960666000843,114.27992380037904,"[17, 0, 237]",237,a,0.2606636001728475,colour,0.5
164,19,1,2,2,7,57,114.79289779998362,115.56792010040954,"[5, 0, 249]",249,a,0.25179410027340055,colour,0.5
164,19,1,2,2,8,58,116.07401130022481,116.83193700015545,"[24, 0, 230]",230,a,0.23471250012516975,colour,0.5
164,19,1,2,2,9,59,117.3394850003533,118.12791950022802,"[26, 0, 228]",228,a,0.26521020010113716,colour,0.5
164,19,1,2,2,10,60,118.63633610028774,119.4079434000887,"[35, 0, 219]",219,a,0.2577515998855233,colour,0.5
164,19,1,2,2,11,61,119.92389820003882,122.38398060016334,"[70, 0, 184]",184,l,1.9366724998690188,colour,0.5
164,19,1,2,2,12,62,122.89251440018415,123.66397720016539,"[38, 0, 216]",216,a,0.24819470010697842,colour,0.5
164,19,1,2,2,13,63,124.17648150026798,124.98394950013608,"[3, 0, 251]",251,a,0.2843617000617087,colour,0.5
164,19,1,2,2,14,64,125.50448730029166,126.36794990021735,"[55, 0, 199]",199,a,0.340325600001961,colour,0.5
164,19,1,2,2,15,65,126.8812131001614,127.66398550011218,"[45, 0, 209]",209,a,0.2597374999895692,colour,0.5
164,19,1,2,2,16,66,128.1780561003834,128.94393080007285,"[1, 0, 253]",253,a,0.25211349967867136,colour,0.5
164,19,1,2,2,17,67,129.44976640027016,130.19990800041705,"[15, 0, 239]",239,a,0.22694840002804995,colour,0.5
164,19,1,2,2,18,68,130.7153199003078,131.4879145002924,"[42, 0, 212]",212,a,0.24945540027692914,colour,0.5
164,19,1,2,2,19,69,131.99637529999018,133.63193770032376,"[65, 0, 189]",189,a,1.1123927002772689,colour,0.5
164,19,1,2,2,20,70,134.15337850013748,134.9359347000718,"[51, 0, 203]",203,a,0.257640500087291,colour,0.5
164,19,1,2,2,21,71,135.45188429998234,136.19996180012822,"[72, 0, 182]",182,l,0.2247993997298181,colour,0.5
164,19,1,2,2,22,72,136.71899550035596,137.30393530009314,"[27, 0, 227]",227,a,0.06170399999246001,colour,0.5
164,19,1,2,2,23,73,137.81257760012522,138.71193580003455,"[52, 0, 202]",202,a,0.37612019991502166,colour,0.5
164,19,1,2,2,24,74,139.2186869001016,140.0799836004153,"[57, 0, 197]",197,a,0.3373793000355363,colour,0.5
164,19,1,2,2,25,75,140.59421410039067,141.32793560018763,"[13, 0, 241]",241,a,0.21037429990246892,colour,0.5
164,19,1,2,2,26,76,141.8442918001674,142.5919156000018,"[29, 0, 225]",225,a,0.2244565999135375,colour,0.5
164,19,1,2,2,27,77,143.10974010033533,144.23191590001807,"[61, 0, 193]",193,l,0.5997140998952091,colour,0.5
164,19,1,2,2,28,78,144.75025600008667,145.50390450004488,"[19, 0, 235]",235,a,0.23037909995764494,colour,0.5
164,19,1,2,2,29,79,146.0418041003868,147.54396650008857,"[53, 0, 201]",201,a,0.9738564998842776,colour,0.5
164,19,1,2,2,30,80,148.0562079004012,148.86394970025867,"[91, 0, 163]",163,l,0.28863639989867806,colour,0.5
164,19,1,2,2,31,81,149.3800077000633,150.17599900020286,"[32, 0, 222]",222,a,0.2696242998354137,colour,0.5
164,19,1,2,2,32,82,150.69552320009097,151.40793410036713,"[33, 0, 221]",221,a,0.18917680019512773,colour,0.5
164,19,1,2,2,33,83,151.91661790013313,152.61594870034605,"[64, 0, 190]",190,l,0.17614659992977977,colour,0.5
164,19,1,2,2,34,84,153.12283620005473,153.9119299002923,"[89, 0, 165]",165,l,0.26589390030130744,colour,0.5
164,19,1,2,2,35,85,154.41959980037063,155.0479284003377,"[16, 0, 238]",238,a,0.10553310019895434,colour,0.5
164,19,1,2,2,36,86,155.56015480030328,156.36790420021862,"[9, 0, 245]",245,a,0.28448980022221804,colour,0.5
164,19,1,2,2,37,87,156.8882300001569,157.62389690009877,"[88, 0, 166]",166,l,0.20963589986786246,colour,0.5
164,19,1,2,2,38,88,158.14094840036705,159.15992930019274,"[10, 0, 244]",244,a,0.49570839991793036,colour,0.5
164,19,1,2,2,39,89,159.67210810026154,160.47987639997154,"[12, 0, 242]",242,a,0.28454089956358075,colour,0.5
164,19,1,2,2,40,90,161.00006910040975,161.87196910008788,"[43, 0, 211]",211,a,0.3485983000136912,colour,0.5
164,19,1,2,2,41,91,162.3906841003336,163.15990390023217,"[74, 0, 180]",180,l,0.24607020011171699,colour,0.5
164,19,1,2,2,42,92,163.67178190033883,164.43994310032576,"[81, 0, 173]",173,l,0.245021500159055,colour,0.5
164,19,1,2,2,43,93,164.95288420002908,166.2879338003695,"[58, 0, 196]",196,a,0.8117937999777496,colour,0.5
164,19,1,2,2,44,94,166.79654160002246,167.67989290039986,"[59, 0, 195]",195,a,0.3576348000206053,colour,0.5
164,19,1,2,2,45,95,168.18943590018898,168.98389640031382,"[23, 0, 231]",231,a,0.2718537002801895,colour,0.5
164,19,1,2,2,46,96,169.50184410018846,170.2799562001601,"[44, 0, 210]",210,a,0.2548834001645446,colour,0.5
164,19,1,2,2,47,97,170.80052320007235,171.58390780026093,"[71, 0, 183]",183,l,0.2600978002883494,colour,0.5
164,19,1,2,2,48,98,172.10002660006285,173.71191980037838,"[60, 0, 194]",194,a,1.0887736002914608,colour,0.5
164,19,1,2,2,49,99,174.22474760003388,174.99994410015643,"[69, 0, 185]",185,l,0.251921399962157,colour,0.5
164,19,1,2,2,50,100,175.50587810017169,176.3119126004167,"[99, 0, 155]",155,l,0.28275670018047094,colour,0.5
164,19,1,2,3,1,101,184.78949200036004,185.54394350014627,"[78, 0, 176]",176,l,0.23031040001660585,colour,0.5
164,19,1,2,3,2,102,186.05100270034745,186.95190250035375,"[65, 0, 189]",189,l,0.3870189003646374,colour,0.5
164,19,1,2,3,3,103,187.46343630040064,188.24791999999434,"[67, 0, 187]",187,l,0.2613718998618424,colour,0.5
164,19,1,2,3,4,104,188.76016070041806,189.52794350031763,"[93, 0, 161]",161,l,0.2446377002634108,colour,0.5
164,19,1,2,3,5,105,190.03428870020434,190.7438941001892,"[20, 0, 234]",234,a,0.18613489996641874,colour,0.5
164,19,1,2,3,6,106,191.25313490023836,191.999939000234,"[72, 0, 182]",182,l,0.22434259997680783,colour,0.5
164,19,1,2,3,7,107,192.51854940038174,193.31988580012694,"[49, 0, 205]",205,a,0.2779772998765111,colour,0.5
164,19,1,2,3,8,108,193.8311150004156,194.59987310040742,"[41, 0, 213]",213,a,0.2548931003548205,colour,0.5
164,19,1,2,3,9,109,195.1185627002269,195.9038803000003,"[8, 0, 246]",246,a,0.26204979978501797,colour,0.5
164,19,1,2,3,10,110,196.41531700035557,197.15989540005103,"[69, 0, 185]",185,l,0.23443169984966516,colour,0.5
164,19,1,2,3,11,111,197.66812780033797,198.4558890000917,"[71, 0, 183]",183,l,0.2616556999273598,colour,0.5
164,19,1,2,3,12,112,198.96787290042266,199.7518720002845,"[86, 0, 168]",168,l,0.26076020020991564,colour,0.5
164,19,1,2,3,13,113,200.26457380037755,201.0398926003836,"[25, 0, 229]",229,a,0.2522424999624491,colour,0.5
164,19,1,2,3,14,114,201.56134940031916,202.49592250026762,"[0, 0, 254]",254,a,0.4113103002309799,colour,0.5
164,19,1,2,3,15,115,203.0143571002409,203.80788259999827,"[70, 0, 184]",184,l,0.27026599971577525,colour,0.5
164,19,1,2,3,16,116,204.327054399997,205.30385330040008,"[52, 0, 202]",202,a,0.45365740032866597,colour,0.5
164,19,1,2,3,17,117,205.81134440004826,206.5918645001948,"[26, 0, 228]",228,a,0.25730379996821284,colour,0.5
164,19,1,2,3,18,118,207.09879670012742,207.8878875002265,"[80, 0, 174]",174,l,0.26430399995297194,colour,0.5
164,19,1,2,3,19,119,208.39715860038996,209.35992470011115,"[36, 0, 218]",218,a,0.44031579978764057,colour,0.5
164,19,1,2,3,20,120,209.88131200009957,210.63984770001844,"[37, 0, 217]",217,a,0.2354341996833682,colour,0.5
164,19,1,2,3,21,121,211.1468597999774,212.1199580002576,"[48, 0, 206]",206,a,0.4499142998829484,colour,0.5
164,19,1,2,3,22,122,212.61871750000864,213.39186350023374,"[13, 0, 241]",241,a,0.24994180025532842,colour,0.5
164,19,1,2,3,23,123,213.8998363004066,215.18394710030407,"[63, 0, 191]",191,a,0.7607289999723434,colour,0.5
164,19,1,2,3,24,124,215.6978065003641,216.47192679997534,"[45, 0, 209]",209,a,0.2510903999209404,colour,0.5
164,19,1,2,3,25,125,216.97897140029818,217.74380680033937,"[66, 0, 188]",188,l,0.24162520002573729,colour,0.5
164,19,1,2,3,26,126,218.24797830032185,219.06389220012352,"[50, 0, 204]",204,a,0.2907962999306619,colour,0.5
164,19,1,2,3,27,127,219.57784430030733,220.34385770000517,"[92, 0, 162]",162,l,0.2551197996363044,colour,0.5
164,19,1,2,3,28,128,220.86130220023915,221.56787490006536,"[6, 0, 248]",248,a,0.1805423996411264,colour,0.5
164,19,1,2,3,29,129,222.0829272000119,222.8398641999811,"[5, 0, 249]",249,a,0.2336016995832324,colour,0.5
164,19,1,2,3,30,130,223.34852080000564,229.70392440026626,"[61, 0, 193]",193,l,5.832140100188553,colour,0.5
164,19,1,2,3,31,131,230.22292810026556,231.2078279000707,"[90, 0, 164]",164,l,0.46161089977249503,colour,0.5
164,19,1,2,3,32,132,231.72281270008534,232.5438684001565,"[84, 0, 170]",170,l,0.3023632997646928,colour,0.5
164,19,1,2,3,33,133,233.06365500018,233.87184990011156,"[44, 0, 210]",210,a,0.2819511997513473,colour,0.5
164,19,1,2,3,34,134,234.3790065003559,235.24782360019162,"[68, 0, 186]",186,l,0.34557879995554686,colour,0.5
164,19,1,2,3,35,135,235.75395050039515,236.44786550011486,"[2, 0, 252]",252,a,0.1676179999485612,colour,0.5
164,19,1,2,3,36,136,236.95998800033703,237.74385520024225,"[39, 0, 215]",215,a,0.26059440011158586,colour,0.5
164,19,1,2,3,37,137,238.25098620029166,239.02387300040573,"[31, 0, 223]",223,a,0.24965190002694726,colour,0.5
164,19,1,2,3,38,138,239.53223540028557,241.03986510029063,"[30, 0, 224]",224,a,0.9844064000062644,colour,0.5
164,19,1,2,3,39,139,241.54769740020856,243.99986740015447,"[34, 0, 220]",220,a,1.9292243998497725,colour,0.5
164,19,1,2,3,40,140,244.51633630041033,245.25586370006204,"[76, 0, 178]",178,l,0.21639129985123873,colour,0.5
164,19,1,2,3,41,141,245.7682628002949,246.55985870026052,"[7, 0, 247]",247,a,0.268331500235945,colour,0.5
164,19,1,2,3,42,142,247.08069460000843,248.08794030034915,"[58, 0, 196]",196,l,0.4842705000191927,colour,0.5
164,19,1,2,3,43,143,248.59618650004268,249.36785130016506,"[42, 0, 212]",212,a,0.24848629999905825,colour,0.5
164,19,1,2,3,44,144,249.87734640017152,250.63991640042514,"[88, 0, 166]",166,l,0.23938090028241277,colour,0.5
164,19,1,2,3,45,145,251.16039790026844,252.01577679999173,"[59, 0, 195]",195,a,0.33211749978363514,colour,0.5
164,19,1,2,3,46,146,252.53530670003965,253.33584440033883,"[4, 0, 250]",250,a,0.2772110002115369,colour,0.5
164,19,1,2,3,47,147,253.84770310018212,254.6238475004211,"[33, 0, 221]",221,a,0.25316920038312674,colour,0.5
164,19,1,2,3,48,148,255.13817530032247,255.88783770008013,"[43, 0, 211]",211,a,0.2265304997563362,colour,0.5
164,19,1,2,3,49,149,256.4035600000061,257.11983900005,"[75, 0, 179]",179,l,0.19268589979037642,colour,0.5
164,19,1,2,3,50,150,257.62570780003443,259.7199079003185,"[57, 0, 197]",197,l,1.5678616003133357,colour,0.5
164,19,1,2,4,1,151,264.6430028001778,266.0398432002403,"[26, 0, 228]",228,a,0.8727537002414465,colour,0.5
164,19,1,2,4,2,152,266.5404794001952,267.311814900022,"[8, 0, 246]",246,a,0.24499979987740517,colour,0.5
164,19,1,2,4,3,153,267.8246298003942,268.5998547002673,"[48, 0, 206]",206,a,0.2518679001368582,colour,0.5
164,19,1,2,4,4,154,269.1214338000864,269.89587530028075,"[34, 0, 220]",220,a,0.2512436001561582,colour,0.5
164,19,1,2,4,5,155,270.4025827003643,271.3678280003369,"[63, 0, 191]",191,l,0.4419913999736309,colour,0.5
164,19,1,2,4,6,156,271.8867679000832,272.55181760014966,"[27, 0, 227]",227,a,0.1417243997566402,colour,0.5
164,19,1,2,4,7,157,273.0586243001744,273.7358653000556,"[90, 0, 164]",164,l,0.15402220003306866,colour,0.5
164,19,1,2,4,8,158,274.2460435000248,274.9758552000858,"[86, 0, 168]",168,l,0.20667220000177622,colour,0.5
164,19,1,2,4,9,159,275.4958953000605,276.23984850011766,"[99, 0, 155]",155,l,0.22071989998221397,colour,0.5
164,19,1,2,4,10,160,276.74644350027665,277.4798178002238,"[24, 0, 230]",230,a,0.22106170002371073,colour,0.5
164,19,1,2,4,11,161,278.00112659996375,278.77580070029944,"[41, 0, 213]",213,a,0.251324700191617,colour,0.5
164,19,1,2,4,12,162,279.282279800158,280.0158199002035,"[13, 0, 241]",241,a,0.21032269997522235,colour,0.5
164,19,1,2,4,13,163,280.5322538004257,281.23982929997146,"[23, 0, 231]",231,a,0.1843797997571528,colour,0.5
164,19,1,2,4,14,164,281.75162110012025,283.4958100002259,"[52, 0, 202]",202,a,1.2208805000409484,colour,0.5
164,19,1,2,4,15,165,284.0183200002648,285.1118728001602,"[61, 0, 193]",193,l,0.5704366001300514,colour,0.5
164,19,1,2,4,16,166,285.62941090017557,286.4078249000013,"[82, 0, 172]",172,l,0.2555092996917665,colour,0.5
164,19,1,2,4,17,167,286.92689330037683,287.68784220004454,"[64, 0, 190]",190,l,0.24691509967669845,colour,0.5
164,19,1,2,4,18,168,288.20174920000136,288.9358777003363,"[22, 0, 232]",232,a,0.20970549993216991,colour,0.5
164,19,1,2,4,19,169,289.4526806999929,290.21581640001386,"[97, 0, 157]",157,l,0.2367791999131441,colour,0.5
164,19,1,2,4,20,170,290.73683680035174,291.4718142002821,"[9, 0, 245]",245,a,0.2115038000047207,colour,0.5
164,19,1,2,4,21,171,291.98672210006043,292.8398425001651,"[77, 0, 177]",177,l,0.3384293997660279,colour,0.5
164,19,1,2,4,22,172,293.3531379001215,293.9597482001409,"[70, 0, 184]",184,l,0.08339729998260736,colour,0.5
164,19,1,2,4,23,173,294.4779993002303,295.5358839002438,"[43, 0, 211]",211,a,0.5439265999011695,colour,0.5
164,19,1,2,4,24,174,296.04668779997155,296.8478353000246,"[53, 0, 201]",201,a,0.2748102997429669,colour,0.5
164,19,1,2,4,25,175,297.36284130020067,298.0878063002601,"[10, 0, 244]",244,a,0.19868380017578602,colour,0.5
164,19,1,2,4,26,176,298.6018073000014,299.3598317001015,"[83, 0, 171]",171,l,0.23166549997404218,colour,0.5
164,19,1,2,4,27,177,299.858081900049,300.6638450003229,"[87, 0, 167]",167,l,0.28258700016885996,colour,0.5
164,19,1,2,4,28,178,301.1702925004065,301.7278377003968,"[36, 0, 218]",218,a,0.034211500082165,colour,0.5
164,19,1,2,4,29,179,302.2484293002635,303.04782159999013,"[50, 0, 204]",204,a,0.2746016997843981,colour,0.5
164,19,1,2,4,30,180,303.56241200026125,304.26381900021806,"[5, 0, 249]",249,a,0.17511710012331605,colour,0.5
164,19,1,2,4,31,181,304.78409210033715,305.8318545999937,"[68, 0, 186]",186,l,0.5245298999361694,colour,0.5
164,19,1,2,4,32,182,306.3464673003182,307.1358647001907,"[51, 0, 203]",203,a,0.26625589979812503,colour,0.5
164,19,1,2,4,33,183,307.6432117000222,308.37580530019477,"[37, 0, 217]",217,a,0.20940299984067678,colour,0.5
164,19,1,2,4,34,184,308.9208063003607,309.68778940010816,"[54, 0, 200]",200,a,0.2402137997560203,colour,0.5
164,19,1,2,4,35,185,310.205535300076,310.9438138999976,"[75, 0, 179]",179,l,0.21503769978880882,colour,0.5
164,19,1,2,4,36,186,311.4553493000567,312.24782510008663,"[96, 0, 158]",158,l,0.26909649977460504,colour,0.5
164,19,1,2,4,37,187,312.7677603000775,313.5598142002709,"[94, 0, 160]",160,l,0.2687853001989424,colour,0.5
164,19,1,2,4,38,188,314.0801918003708,314.84778880001977,"[7, 0, 247]",247,a,0.24434599978849292,colour,0.5
164,19,1,2,4,39,189,315.3613871000707,316.1517814002,"[49, 0, 205]",205,a,0.27692219987511635,colour,0.5
164,19,1,2,4,40,190,316.6640712004155,317.3998372000642,"[92, 0, 162]",162,l,0.21281539974734187,colour,0.5
164,19,1,2,4,41,191,317.9139148001559,318.7197708003223,"[91, 0, 163]",163,l,0.2827775003388524,colour,0.5
164,19,1,2,4,42,192,319.22629950009286,320.32785680005327,"[40, 0, 214]",214,a,0.5783011000603437,colour,0.5
164,19,1,2,4,43,193,320.8355761002749,321.63979490008205,"[65, 0, 189]",189,l,0.28096939995884895,colour,0.5
164,19,1,2,4,44,194,322.14790910016745,322.9037838000804,"[1, 0, 253]",253,a,0.2332085999660194,colour,0.5
164,19,1,2,4,45,195,323.41349259996787,324.1917853001505,"[31, 0, 223]",223,a,0.2558844001032412,colour,0.5
164,19,1,2,4,46,196,324.71025710040703,325.48780460003763,"[21, 0, 233]",233,a,0.25428539980202913,colour,0.5
164,19,1,2,4,47,197,326.0070258001797,326.83179810037836,"[38, 0, 216]",216,a,0.3016370004042983,colour,0.5
164,19,1,2,4,48,198,327.3506689001806,328.2157812002115,"[73, 0, 181]",181,l,0.3418695000000298,colour,0.5
164,19,1,2,4,49,199,328.725459900219,329.4877714002505,"[33, 0, 221]",221,a,0.23902740003541112,colour,0.5
164,19,1,2,4,50,200,330.0065199001692,330.7759136003442,"[19, 0, 235]",235,a,0.24595930008217692,colour,0.5
164,19,1,2,5,1,201,340.8955622003414,341.83974490035325,"[21, 0, 233]",233,a,0.42026420030742884,colour,0.4
164,19,1,2,5,2,202,342.34945330023766,343.0798133001663,"[91, 0, 163]",163,l,0.20720939990133047,colour,0.4
164,19,1,2,5,3,203,343.5991869000718,344.23176440037787,"[32, 0, 222]",222,a,0.10935990000143647,colour,0.4
164,19,1,2,5,4,204,344.7397347004153,345.4637942002155,"[44, 0, 210]",210,a,0.2007710998877883,colour,0.4
164,19,1,2,5,5,205,345.9740123003721,346.6477812002413,"[81, 0, 173]",173,l,0.15049599995836616,colour,0.4
164,19,1,2,5,6,206,347.161502700299,347.9117609001696,"[98, 0, 156]",156,l,0.22714889980852604,colour,0.4
164,19,1,2,5,7,207,348.4269255003892,349.0317580001429,"[69, 0, 185]",185,a,0.08162529999390244,colour,0.4
164,19,1,2,5,8,208,349.55186860030517,350.31982640037313,"[70, 0, 184]",184,l,0.2446908000856638,colour,0.4
164,19,1,2,5,9,209,350.83294680016115,351.5118425004184,"[36, 0, 218]",218,a,0.15548750013113022,colour,0.4
164,19,1,2,5,10,210,352.02033610036597,352.78381390031427,"[29, 0, 225]",225,a,0.2494641002267599,colour,0.4
164,19,1,2,5,11,211,353.2865703999996,353.927777600009,"[46, 0, 208]",208,a,0.11800300003960729,colour,0.4
164,19,1,2,5,12,212,354.4425780000165,355.3038139999844,"[79, 0, 175]",175,l,0.34699999960139394,colour,0.4
164,19,1,2,5,13,213,355.82410800037906,356.63177780015394,"[53, 0, 201]",201,a,0.28439659997820854,colour,0.4
164,19,1,2,5,14,214,357.15213689999655,357.8878044001758,"[14, 0, 240]",240,a,0.21239699982106686,colour,0.4
164,19,1,2,5,15,215,358.38960640039295,359.11975549999624,"[19, 0, 235]",235,a,0.20695089967921376,colour,0.4
164,19,1,2,5,16,216,359.63948580017313,360.55179559998214,"[52, 0, 202]",202,a,0.3890802999958396,colour,0.4
164,19,1,2,5,17,217,361.0612914999947,361.83175919996575,"[12, 0, 242]",242,a,0.25841059954836965,colour,0.4
164,19,1,2,5,18,218,362.3474302999675,363.0397878000513,"[55, 0, 199]",199,l,0.16935449978336692,colour,0.4
164,19,1,2,5,19,219,363.55045440001413,364.527728700079,"[40, 0, 214]",214,a,0.45403659995645285,colour,0.4
164,19,1,2,5,20,220,365.03515990031883,365.7518016002141,"[10, 0, 244]",244,a,0.1932907998561859,colour,0.4
164,19,1,2,5,21,221,366.2694601002149,366.9837515000254,"[84, 0, 170]",170,l,0.19105789996683598,colour,0.4
164,19,1,2,5,22,222,367.50516080018133,368.33588080015033,"[80, 0, 174]",174,l,0.30738750007003546,colour,0.4
164,19,1,2,5,23,223,368.8387104002759,369.63177390024066,"[90, 0, 164]",164,l,0.26980340015143156,colour,0.4
164,19,1,2,5,24,224,370.1511162002571,371.06373770022765,"[60, 0, 194]",194,l,0.3893590001389384,colour,0.4
164,19,1,2,5,25,225,371.5728658000007,372.3438005000353,"[11, 0, 243]",243,a,0.2476963996887207,colour,0.4
164,19,1,2,5,26,226,372.8539845002815,373.59977660002187,"[71, 0, 183]",183,l,0.22170869959518313,colour,0.4
164,19,1,2,5,27,227,374.1203801003285,374.8157525002025,"[6, 0, 248]",248,a,0.1720532001927495,colour,0.4
164,19,1,2,5,28,228,375.32350160041824,377.9437641999684,"[61, 0, 193]",193,l,2.0970911998301744,colour,0.4
164,19,1,2,5,29,229,378.4638610002585,379.2957767001353,"[7, 0, 247]",247,a,0.3088420000858605,colour,0.4
164,19,1,2,5,30,230,379.80750530026853,381.5677473000251,"[54, 0, 200]",200,a,1.2370183998718858,colour,0.4
164,19,1,2,5,31,231,382.08862230041996,382.8717567999847,"[68, 0, 186]",186,l,0.2600081996060908,colour,0.4
164,19,1,2,5,32,232,383.38537590019405,384.15185260027647,"[83, 0, 171]",171,l,0.2433138000778854,colour,0.4
164,19,1,2,5,33,233,384.6664719004184,385.55183620005846,"[56, 0, 198]",198,a,0.36164249991998076,colour,0.4
164,19,1,2,5,34,234,386.06498680030927,386.82377520017326,"[64, 0, 190]",190,a,0.23548780009150505,colour,0.4
164,19,1,2,5,35,235,387.33350520022213,388.15174760017544,"[50, 0, 204]",204,a,0.2950097997672856,colour,0.4
164,19,1,2,5,36,236,388.661540500354,389.43179170042276,"[1, 0, 253]",253,a,0.24702610028907657,colour,0.4
164,19,1,2,5,37,237,389.94258200004697,390.85574669996276,"[92, 0, 162]",162,l,0.38987409975379705,colour,0.4
164,19,1,2,5,38,238,391.36441490007564,395.39175670035183,"[59, 0, 195]",195,a,3.504550199955702,colour,0.4
164,19,1,2,5,39,239,395.91081390017644,396.687776400242,"[34, 0, 220]",220,a,0.2537010000087321,colour,0.4
164,19,1,2,5,40,240,397.2075469000265,397.9837336000055,"[18, 0, 236]",236,a,0.2529201996512711,colour,0.4
164,19,1,2,5,41,241,398.5043676001951,399.2397865001112,"[42, 0, 212]",212,a,0.21224089991301298,colour,0.4
164,19,1,2,5,42,242,399.7542187999934,400.56773040024564,"[63, 0, 191]",191,l,0.29026929987594485,colour,0.4
164,19,1,2,5,43,243,401.0822393000126,401.8557425001636,"[75, 0, 179]",179,l,0.25017570005729795,colour,0.4
164,19,1,2,5,44,244,402.3635491002351,403.1438241000287,"[26, 0, 228]",228,a,0.25779509963467717,colour,0.4
164,19,1,2,5,45,245,403.66028930014,404.8557656002231,"[82, 0, 172]",172,l,0.6722530000843108,colour,0.4
164,19,1,2,5,46,246,405.3633644003421,406.15171060012653,"[89, 0, 165]",165,l,0.26536699989810586,colour,0.4
164,19,1,2,5,47,247,406.65999660035595,407.4077908000909,"[38, 0, 216]",216,a,0.22451369976624846,colour,0.4
164,19,1,2,5,48,248,407.92554600024596,408.71977990027517,"[99, 0, 155]",155,l,0.27098349994048476,colour,0.4
164,19,1,2,5,49,249,409.2411701004021,410.07974479999393,"[73, 0, 181]",181,l,0.32097529992461205,colour,0.4
164,19,1,2,5,50,250,410.5967549001798,411.44770230026916,"[96, 0, 158]",158,l,0.3278903001919389,colour,0.4
164,19,1,2,6,1,251,425.1679406003095,425.83972869999707,"[31, 0, 223]",223,a,0.1477004997432232,colour,0.28
164,19,1,2,6,2,252,426.35612790007144,427.1437219004147,"[85, 0, 169]",169,l,0.2643571002408862,colour,0.28
164,19,1,2,6,3,253,427.6403817003593,428.3597339000553,"[80, 0, 174]",174,l,0.19284689985215664,colour,0.28
164,19,1,2,6,4,254,428.8778869002126,429.6077428003773,"[88, 0, 166]",166,l,0.20728030009195209,colour,0.28
164,19,1,2,6,5,255,430.1122845001519,430.8797167004086,"[92, 0, 162]",162,l,0.2442240002565086,colour,0.28
164,19,1,2,6,6,256,431.3934001000598,432.1437707999721,"[52, 0, 202]",202,a,0.22705789981409907,colour,0.28
164,19,1,2,6,7,257,432.6591029004194,433.36773560009897,"[64, 0, 190]",190,a,0.18542010011151433,colour,0.28
164,19,1,2,6,8,258,433.8776222001761,434.61575160035864,"[35, 0, 219]",219,a,0.22146640019491315,colour,0.28
164,19,1,2,6,9,259,435.1365561001003,435.8957743002102,"[73, 0, 181]",181,l,0.23603959986940026,colour,0.28
164,19,1,2,6,10,260,436.40256620012224,437.22374540008605,"[51, 0, 203]",203,a,0.29778039967641234,colour,0.28
164,19,1,2,6,11,261,437.73056140029803,438.35170800006017,"[82, 0, 172]",172,l,0.09797449968755245,colour,0.28
164,19,1,2,6,12,262,438.87125230021775,439.6156874001026,"[76, 0, 178]",178,l,0.22135100001469254,colour,0.28
164,19,1,2,6,13,263,440.13665530039,440.927709300071,"[96, 0, 158]",158,l,0.26784069975838065,colour,0.28
164,19,1,2,6,14,264,441.4491508002393,442.18372510001063,"[37, 0, 217]",217,a,0.22366919973865151,colour,0.28
164,19,1,2,6,15,265,442.70231130020693,443.47971400013193,"[87, 0, 167]",167,l,0.2541342000477016,colour,0.28
164,19,1,2,6,16,266,443.99904520018026,444.8396777003072,"[70, 0, 184]",184,l,0.3174176001921296,colour,0.28
164,19,1,2,6,17,267,445.35821270011365,446.13571530021727,"[79, 0, 175]",175,l,0.25423659989610314,colour,0.28
164,19,1,2,6,18,268,446.64577280031517,447.40765660023317,"[97, 0, 157]",157,l,0.23874090006574988,colour,0.28
164,19,1,2,6,19,269,447.9268973004073,448.7036919002421,"[89, 0, 165]",165,l,0.25433290004730225,colour,0.28
164,19,1,2,6,20,270,449.2236589002423,450.15970810037106,"[71, 0, 183]",183,l,0.41281440015882254,colour,0.28
164,19,1,2,6,21,271,450.6772397002205,451.4396923002787,"[83, 0, 171]",171,l,0.2388204000890255,colour,0.28
164,19,1,2,6,22,272,451.95866600004956,452.7517193001695,"[10, 0, 244]",244,a,0.2668086998164654,colour,0.28
164,19,1,2,6,23,273,453.25857509998605,454.03967430023476,"[27, 0, 227]",227,a,0.25787580013275146,colour,0.28
164,19,1,2,6,24,274,454.555358200334,455.7117075002752,"[72, 0, 182]",182,l,0.6332874000072479,colour,0.28
164,19,1,2,6,25,275,456.21575110033154,456.9996847002767,"[15, 0, 239]",239,a,0.258559999987483,colour,0.28
164,19,1,2,6,26,276,457.5146802002564,458.1917222002521,"[21, 0, 233]",233,a,0.15404239995405078,colour,0.28
164,19,1,2,6,27,277,458.70207830006257,459.3996733999811,"[16, 0, 238]",238,a,0.17422839999198914,colour,0.28
164,19,1,2,6,28,278,459.92062610015273,460.75971890008077,"[54, 0, 200]",200,a,0.3157778000459075,colour,0.28
164,19,1,2,6,29,279,461.2675511003472,462.0396843003109,"[81, 0, 173]",173,l,0.24881550017744303,colour,0.28
164,19,1,2,6,30,280,462.55175029998645,463.3357285000384,"[99, 0, 155]",155,l,0.2576907998882234,colour,0.28
164,19,1,2,6,31,281,463.85165400011465,464.4877617000602,"[5, 0, 249]",249,a,0.11285999976098537,colour,0.28
164,19,1,2,6,32,282,465.00887520005926,466.03971450030804,"[95, 0, 159]",159,l,0.5168359000235796,colour,0.28
164,19,1,2,6,33,283,466.54639760032296,467.34364590002224,"[50, 0, 204]",204,a,0.2740540998056531,colour,0.28
164,19,1,2,6,34,284,467.85881760017946,468.61567680025473,"[62, 0, 192]",192,a,0.23362650023773313,colour,0.28
164,19,1,2,6,35,285,469.1243131002411,469.79971200041473,"[90, 0, 164]",164,l,0.15205390006303787,colour,0.28
164,19,1,2,6,36,286,470.31170770013705,471.0557093000971,"[55, 0, 199]",199,a,0.22067449986934662,colour,0.28
164,19,1,2,6,37,287,471.5616545001976,472.29565030010417,"[98, 0, 156]",156,l,0.22318789968267083,colour,0.28
164,19,1,2,6,38,288,472.81485139997676,473.6716762003489,"[30, 0, 224]",224,a,0.3336939001455903,colour,0.28
164,19,1,2,6,39,289,474.18965050019324,475.0076855001971,"[43, 0, 211]",211,a,0.29474700009450316,colour,0.28
164,19,1,2,6,40,290,475.5176897002384,476.3756591002457,"[53, 0, 201]",201,a,0.3346617999486625,colour,0.28
164,19,1,2,6,41,291,476.8925401000306,477.83167440025136,"[61, 0, 193]",193,a,0.4158045002259314,colour,0.28
164,19,1,2,6,42,292,478.34565669996664,479.1516685001552,"[49, 0, 205]",205,a,0.28559229988604784,colour,0.28
164,19,1,2,6,43,293,479.6707947002724,480.45572399999946,"[17, 0, 237]",237,a,0.26166799990460277,colour,0.28
164,19,1,2,6,44,294,480.969587800093,481.63171340012923,"[41, 0, 213]",213,a,0.13891940005123615,colour,0.28
164,19,1,2,6,45,295,482.1334387003444,483.09571140026674,"[66, 0, 188]",188,l,0.4359607002697885,colour,0.28
164,19,1,2,6,46,296,483.6052450002171,486.7196899000555,"[65, 0, 189]",189,l,2.592103899922222,colour,0.28
164,19,1,2,6,47,297,487.22112790029496,488.0476650004275,"[68, 0, 186]",186,l,0.30021380027756095,colour,0.28
164,19,1,2,6,48,298,488.567810700275,489.7436689999886,"[93, 0, 161]",161,l,0.6526889996603131,colour,0.28
164,19,1,2,6,49,299,490.2551208003424,491.0796427000314,"[63, 0, 191]",191,a,0.30127959977835417,colour,0.28
164,19,1,2,6,50,300,491.588932600338,492.3757134000771,"[78, 0, 176]",176,l,0.260317400097847,colour,0.28
164,19,1,2,7,1,301,497.1993027999997,498.943669100292,"[96, 0, 158]",158,l,1.2203172002919018,colour,0.14
164,19,1,2,7,2,302,499.44990890007466,500.2476664003916,"[64, 0, 190]",190,l,0.274471300188452,colour,0.14
164,19,1,2,7,3,303,500.7498502000235,501.96767980000004,"[50, 0, 204]",204,a,0.6946153999306262,colour,0.14
164,19,1,2,7,4,304,502.48405620036647,503.2636520001106,"[98, 0, 156]",156,l,0.25625699991360307,colour,0.14
164,19,1,2,7,5,305,503.7808749000542,504.5517069003545,"[74, 0, 180]",180,l,0.2478188001550734,colour,0.14
164,19,1,2,7,6,306,505.06203450029716,505.8076647003181,"[77, 0, 177]",177,l,0.2224685000255704,colour,0.14
164,19,1,2,7,7,307,506.3275194000453,507.079668099992,"[79, 0, 175]",175,l,0.22886349959298968,colour,0.14
164,19,1,2,7,8,308,507.5931428000331,508.51164440019056,"[58, 0, 196]",196,a,0.3922910001128912,colour,0.14
164,19,1,2,7,9,309,509.01792520005256,509.82365220040083,"[75, 0, 179]",179,l,0.2824543002061546,colour,0.14
164,19,1,2,7,10,310,510.3302677003667,511.3196791000664,"[73, 0, 181]",181,l,0.4663430000655353,colour,0.14
164,19,1,2,7,11,311,511.8302016002126,512.5996446004137,"[53, 0, 201]",201,a,0.24634480010718107,colour,0.14
164,19,1,2,7,12,312,513.1112270001322,513.9036966999993,"[60, 0, 194]",194,a,0.26915029995143414,colour,0.14
164,19,1,2,7,13,313,514.4237386002205,517.4396641002968,"[65, 0, 189]",189,l,2.4926891000941396,colour,0.14
164,19,1,2,7,14,314,517.9453378003091,518.7196476003155,"[3, 0, 251]",251,a,0.25103630032390356,colour,0.14
164,19,1,2,7,15,315,519.226424800232,519.9916801000945,"[94, 0, 160]",160,l,0.24197709979489446,colour,0.14
164,19,1,2,7,16,316,520.5076565002091,521.2796390000731,"[84, 0, 170]",170,l,0.25846169982105494,colour,0.14
164,19,1,2,7,17,317,521.7951444000937,523.0716953002848,"[54, 0, 200]",200,a,0.7536351000890136,colour,0.14
164,19,1,2,7,18,318,523.5918670999818,524.3996469001286,"[55, 0, 199]",199,a,0.2845441000536084,colour,0.14
164,19,1,2,7,19,319,524.9200397999957,525.7196720000356,"[4, 0, 250]",250,a,0.27656110003590584,colour,0.14
164,19,1,2,7,20,320,526.2322704000399,527.151654000394,"[66, 0, 188]",188,l,0.39611060032621026,colour,0.14
164,19,1,2,7,21,321,527.6696745003574,528.9836497004144,"[80, 0, 174]",174,l,0.790754200424999,colour,0.14
164,19,1,2,7,22,322,529.4975641001947,530.3036409001797,"[93, 0, 161]",161,l,0.28313300013542175,colour,0.14
164,19,1,2,7,23,323,530.8100469000638,531.61564250011,"[97, 0, 157]",157,l,0.28250590013340116,colour,0.14
164,19,1,2,7,24,324,532.1224204003811,532.9516185000539,"[63, 0, 191]",191,l,0.30597539991140366,colour,0.14
164,19,1,2,7,25,325,533.4660522001795,534.2876373999752,"[81, 0, 173]",173,l,0.2983447997830808,colour,0.14
164,19,1,2,7,26,326,534.7940601003356,535.5756942001171,"[24, 0, 230]",230,a,0.2583318999968469,colour,0.14
164,19,1,2,7,27,327,536.0908197001554,536.9116966002621,"[62, 0, 192]",192,l,0.2977543999440968,colour,0.14
164,19,1,2,7,28,328,537.4187782001682,538.1516576004215,"[51, 0, 203]",203,a,0.20994400000199676,colour,0.14
164,19,1,2,7,29,329,538.6687137000263,539.4316065004095,"[92, 0, 162]",162,l,0.2395785003900528,colour,0.14
164,19,1,2,7,30,330,539.9498157002963,540.7676613000222,"[43, 0, 211]",211,a,0.30395539989694953,colour,0.14
164,19,1,2,7,31,331,541.2841662000865,542.0956669002771,"[20, 0, 234]",234,a,0.28828620025888085,colour,0.14
164,19,1,2,7,32,332,542.6121316002682,543.6076522003859,"[91, 0, 163]",163,l,0.4721930003724992,colour,0.14
164,19,1,2,7,33,333,544.1277160001919,544.9116200003773,"[85, 0, 169]",169,l,0.26076020020991564,colour,0.14
164,19,1,2,7,34,334,545.4245183002204,546.1036351001821,"[87, 0, 167]",167,l,0.15582330012694,colour,0.14
164,19,1,2,7,35,335,546.6118894000538,547.391693000216,"[83, 0, 171]",171,l,0.25652580009773374,colour,0.14
164,19,1,2,7,36,336,547.9087301003747,548.559610800352,"[88, 0, 166]",166,l,0.1277037002146244,colour,0.14
164,19,1,2,7,37,337,549.0805572001263,549.9436330003664,"[70, 0, 184]",184,l,0.34021740034222603,colour,0.14
164,19,1,2,7,38,338,550.4553773002699,551.2156453002244,"[76, 0, 178]",178,l,0.23403359996154904,colour,0.14
164,19,1,2,7,39,339,551.7238950002939,552.463606600184,"[61, 0, 193]",193,a,0.21650969982147217,colour,0.14
164,19,1,2,7,40,340,552.9737960002385,553.8236243003048,"[69, 0, 185]",185,a,0.32656840002164245,colour,0.14
164,19,1,2,7,41,341,554.3330164002255,555.063662300352,"[47, 0, 207]",207,a,0.20741940010339022,colour,0.14
164,19,1,2,7,42,342,555.5829688003287,556.2076715002768,"[90, 0, 164]",164,l,0.1015075002796948,colour,0.14
164,19,1,2,7,43,343,556.7234919001348,557.4235817003064,"[57, 0, 197]",197,a,0.17686349991708994,colour,0.14
164,19,1,2,7,44,344,557.9421062003821,563.0476328004152,"[68, 0, 186]",186,a,4.582303400151432,colour,0.14
164,19,1,2,7,45,345,563.5666796001606,564.3755769003183,"[56, 0, 198]",198,a,0.2857979000546038,colour,0.14
164,19,1,2,7,46,346,564.894602900371,565.6635898002423,"[67, 0, 187]",187,l,0.24573930026963353,colour,0.14
164,19,1,2,7,47,347,566.1758370003663,566.9516187002882,"[71, 0, 183]",183,l,0.25263800006359816,colour,0.14
164,19,1,2,7,48,348,567.4724900000729,568.7836705003865,"[35, 0, 219]",219,a,0.7878502001985908,colour,0.14
164,19,1,2,7,49,349,569.3005099999718,570.0956516000442,"[78, 0, 176]",176,l,0.27195849968120456,colour,0.14
164,19,1,2,7,50,350,570.6129207001068,571.3996629002504,"[89, 0, 165]",165,l,0.26356530003249645,colour,0.14
164,19,1,2,8,1,351,594.7757845004089,595.3276405003853,"[64, 0, 190]",190,l,0.02782170008867979,colour,0.06
164,19,1,2,8,2,352,595.8391207000241,596.6075639002956,"[98, 0, 156]",156,l,0.24560620030388236,colour,0.06
164,19,1,2,8,3,353,597.1228159000166,597.8316092002206,"[94, 0, 160]",160,l,0.1979133002460003,colour,0.06
164,19,1,2,8,4,354,598.3446712000296,599.0796231003478,"[70, 0, 184]",184,l,0.20904699992388487,colour,0.06
164,19,1,2,8,5,355,599.5972457001917,600.3355354000814,"[52, 0, 202]",202,a,0.21513829985633492,colour,0.06
164,19,1,2,8,6,356,600.8472456000745,601.583580000326,"[97, 0, 157]",157,l,0.2132314001210034,colour,0.06
164,19,1,2,8,7,357,602.0973044000566,602.839574099984,"[53, 0, 201]",201,a,0.2191060995683074,colour,0.06
164,19,1,2,8,8,358,603.347265700344,603.9595901002176,"[80, 0, 174]",174,l,0.0891248001717031,colour,0.06
164,19,1,2,8,9,359,604.4722508001141,605.3515582000837,"[63, 0, 191]",191,a,0.36852109991014004,colour,0.06
164,19,1,2,8,10,360,605.8659157003276,606.6476152003743,"[46, 0, 208]",208,a,0.2563781002536416,colour,0.06
164,19,1,2,8,11,361,607.1524835000746,607.9115675003268,"[99, 0, 155]",155,l,0.23580279992893338,colour,0.06
164,19,1,2,8,12,362,608.4180261003785,609.191574500408,"[95, 0, 159]",159,l,0.2505962001159787,colour,0.06
164,19,1,2,8,13,363,609.7002423000522,610.439562200103,"[79, 0, 175]",175,l,0.22619999991729856,colour,0.06
164,19,1,2,8,14,364,610.9575636000372,611.59960040031,"[89, 0, 165]",165,l,0.11787729989737272,colour,0.06
164,19,1,2,8,15,365,612.1169489002787,612.7115527000278,"[74, 0, 180]",180,l,0.07138990005478263,colour,0.06
164,19,1,2,8,16,366,613.2262025000528,613.8635885003023,"[87, 0, 167]",167,l,0.11412000004202127,colour,0.06
164,19,1,2,8,17,367,614.382412600331,615.1755676004104,"[62, 0, 192]",192,a,0.26998129999265075,colour,0.06
164,19,1,2,8,18,368,615.6947746002115,616.415585800074,"[78, 0, 176]",176,l,0.19763100007548928,colour,0.06
164,19,1,2,8,19,369,616.919655200094,617.6556134000421,"[75, 0, 179]",179,l,0.21273509971797466,colour,0.06
164,19,1,2,8,20,370,618.1695624003187,618.9595608999953,"[69, 0, 185]",185,l,0.2666904996149242,colour,0.06
164,19,1,2,8,21,371,619.4662355002947,620.1595922000706,"[51, 0, 203]",203,a,0.1704226997680962,colour,0.06
164,19,1,2,8,22,372,620.6693027000874,621.3995485999621,"[90, 0, 164]",164,l,0.20698199979960918,colour,0.06
164,19,1,2,8,23,373,621.9192265002057,622.6556053003296,"[77, 0, 177]",177,l,0.2130734003148973,colour,0.06
164,19,1,2,8,24,374,623.1709525003098,623.9196916003712,"[86, 0, 168]",168,l,0.23349450016394258,colour,0.06
164,19,1,2,8,25,375,624.4291020003147,625.0715874000452,"[54, 0, 200]",200,a,0.11901269992813468,colour,0.06
164,19,1,2,8,26,376,625.5854263002984,626.2315682000481,"[84, 0, 170]",170,l,0.12289220001548529,colour,0.06
164,19,1,2,8,27,377,626.741636000108,627.5515866000205,"[65, 0, 189]",189,a,0.28683209978044033,colour,0.06
164,19,1,2,8,28,378,628.0696221003309,628.703583500348,"[85, 0, 169]",169,l,0.11067770002409816,colour,0.06
164,19,1,2,8,29,379,629.2101592002437,629.9995713001117,"[58, 0, 196]",196,a,0.2662252001464367,colour,0.06
164,19,1,2,8,30,380,630.4944808003493,631.1595469000749,"[59, 0, 195]",195,a,0.14172969991341233,colour,0.06
164,19,1,2,8,31,381,631.6662592999637,632.3515527001582,"[81, 0, 173]",173,l,0.16206299979239702,colour,0.06
164,19,1,2,8,32,382,632.8710666000843,633.4636134002358,"[57, 0, 197]",197,a,0.06933980016037822,colour,0.06
164,19,1,2,8,33,383,633.9680723003112,634.5515269003808,"[91, 0, 163]",163,l,0.06024520006030798,colour,0.06
164,19,1,2,8,34,384,635.0616355002858,635.7675658003427,"[76, 0, 178]",178,l,0.18271249998360872,colour,0.06
164,19,1,2,8,35,385,636.2803461002186,636.8475704002194,"[55, 0, 199]",199,a,0.044210600201040506,colour,0.06
164,19,1,2,8,36,386,637.3584160003811,638.0075493999757,"[73, 0, 181]",181,a,0.12600559974089265,colour,0.06
164,19,1,2,8,37,387,638.5144023001194,639.215600900352,"[82, 0, 172]",172,l,0.1780183003284037,colour,0.06
164,19,1,2,8,38,388,639.7331287004054,640.383571700193,"[56, 0, 198]",198,a,0.12718359986320138,colour,0.06
164,19,1,2,8,39,389,640.9050297001377,641.5355344000272,"[1, 0, 253]",253,a,0.10744589986279607,colour,0.06
164,19,1,2,8,40,390,642.0454686000012,643.0315324002877,"[60, 0, 194]",194,a,0.4629420000128448,colour,0.06
164,19,1,2,8,41,391,643.5453860000707,644.5435222000815,"[66, 0, 188]",188,a,0.4748992999084294,colour,0.06
164,19,1,2,8,42,392,645.0607824004255,649.47156190034,"[68, 0, 186]",186,a,3.888620899990201,colour,0.06
164,19,1,2,8,43,393,649.9823883003555,650.7355767004192,"[92, 0, 162]",162,l,0.23006780026480556,colour,0.06
164,19,1,2,8,44,394,651.2476703003049,651.9915106999688,"[67, 0, 187]",187,l,0.22077879961580038,colour,0.06
164,19,1,2,8,45,395,652.4993469002657,653.1675841002725,"[88, 0, 166]",166,l,0.14391339989379048,colour,0.06
164,19,1,2,8,46,396,653.6888508000411,654.4235387002118,"[93, 0, 161]",161,l,0.21159989992156625,colour,0.06
164,19,1,2,8,47,397,654.9293830003589,656.1915416000411,"[18, 0, 236]",236,a,0.7388550997711718,colour,0.06
164,19,1,2,8,48,398,656.7124493001029,657.4795407000929,"[96, 0, 158]",158,l,0.2438523001037538,colour,0.06
164,19,1,2,8,49,399,657.9937189002521,658.7515547000803,"[83, 0, 171]",171,l,0.23464589985087514,colour,0.06
164,19,1,2,8,50,400,659.2592691001482,660.4955694000237,"[61, 0, 193]",193,a,0.7139125997200608,colour,0.06
164,19,1,2,9,1,401,664.8924862002023,665.7115661003627,"[97, 0, 157]",157,l,0.295146900229156,colour,0.06
164,19,1,2,9,2,402,666.2212476003915,666.831537200138,"[50, 0, 204]",204,a,0.08716299990192056,colour,0.06
164,19,1,2,9,3,403,667.3337195003405,667.9915448003449,"[82, 0, 172]",172,l,0.1314312000758946,colour,0.06
164,19,1,2,9,4,404,668.5084734000266,669.1995413000695,"[94, 0, 160]",160,l,0.16799249965697527,colour,0.06
164,19,1,2,9,5,405,669.7116161002778,670.62362139998,"[70, 0, 184]",184,l,0.3886809996329248,colour,0.06
164,19,1,2,9,6,406,671.1335063003935,671.8554990002885,"[55, 0, 199]",199,a,0.19889779994264245,colour,0.06
164,19,1,2,9,7,407,672.3676083004102,673.1835317001678,"[73, 0, 181]",181,l,0.29264270002022386,colour,0.06
164,19,1,2,9,8,408,673.683284800034,674.3195825000294,"[2, 0, 252]",252,a,0.11313800001516938,colour,0.06
164,19,1,2,9,9,409,674.8393820002675,675.5515505000949,"[88, 0, 166]",166,l,0.1888235998339951,colour,0.06
164,19,1,2,9,10,410,676.0593958999962,676.8315261001699,"[75, 0, 179]",179,l,0.25206709979102015,colour,0.06
164,19,1,2,9,11,411,677.3375949002802,678.0715599004179,"[85, 0, 169]",169,l,0.21050530020147562,colour,0.06
164,19,1,2,9,12,412,678.5875331000425,679.3035355000757,"[95, 0, 159]",159,l,0.19261020002886653,colour,0.06
164,19,1,2,9,13,413,679.8218957004137,680.5435792002827,"[58, 0, 196]",196,a,0.19848830020055175,colour,0.06
164,19,1,2,9,14,414,681.0560938999988,681.7595385001041,"[81, 0, 173]",173,l,0.1801499999128282,colour,0.06
164,19,1,2,9,15,415,682.2748099002056,682.9434736003168,"[99, 0, 155]",155,l,0.1454366003163159,colour,0.06
164,19,1,2,9,16,416,683.4621636001393,684.2955619003624,"[61, 0, 193]",193,a,0.31012840010225773,colour,0.06
164,19,1,2,9,17,417,684.805802800227,685.3916013999842,"[59, 0, 195]",195,a,0.0625900998711586,colour,0.06
164,19,1,2,9,18,418,685.8994536004029,686.6394822001457,"[83, 0, 171]",171,l,0.21682790014892817,colour,0.06
164,19,1,2,9,19,419,687.149412299972,687.8635080000386,"[92, 0, 162]",162,l,0.19093699986115098,colour,0.06
164,19,1,2,9,20,420,688.3836044999771,689.1355101000518,"[72, 0, 182]",182,l,0.22925049997866154,colour,0.06
164,19,1,2,9,21,421,689.6492377002724,690.3915173001587,"[63, 0, 191]",191,a,0.2180082001723349,colour,0.06
164,19,1,2,9,22,422,690.9001067001373,691.6234963000752,"[86, 0, 168]",168,l,0.20009119994938374,colour,0.06
164,19,1,2,9,23,423,692.1345852003433,692.7515287999995,"[56, 0, 198]",198,a,0.09381679957732558,colour,0.06
164,19,1,2,9,24,424,693.259316300042,694.9755078000017,"[66, 0, 188]",188,a,1.1928631998598576,colour,0.06
164,19,1,2,9,25,425,695.493534500245,696.5994942001998,"[67, 0, 187]",187,a,0.5830514999106526,colour,0.06
164,19,1,2,9,26,426,697.1183998002671,697.887582000345,"[78, 0, 176]",176,l,0.24589290004223585,colour,0.06
164,19,1,2,9,27,427,698.3995164004155,700.2715038000606,"[68, 0, 186]",186,a,1.3479202999733388,colour,0.06
164,19,1,2,9,28,428,700.7815659004264,701.4395377002656,"[0, 0, 254]",254,a,0.14713700022548437,colour,0.06
164,19,1,2,9,29,429,701.9590695002116,702.6635609003715,"[90, 0, 164]",164,l,0.18124830024316907,colour,0.06
164,19,1,2,9,30,430,703.1776633001864,703.9275213000365,"[43, 0, 211]",211,a,0.22661060001701117,colour,0.06
164,19,1,2,9,31,431,704.4338809000328,705.3195295999758,"[65, 0, 189]",189,l,0.3623333997093141,colour,0.06
164,19,1,2,9,32,432,705.840036700014,706.6075115003623,"[98, 0, 156]",156,l,0.24424610007554293,colour,0.06
164,19,1,2,9,33,433,707.1211960003711,707.9034808003344,"[57, 0, 197]",197,a,0.25899270037189126,colour,0.06
164,19,1,2,9,34,434,708.4179132003337,709.1435266002081,"[84, 0, 170]",170,l,0.20255419984459877,colour,0.06
164,19,1,2,9,35,435,709.6523208003491,710.8795443000272,"[64, 0, 190]",190,a,0.7048448999412358,colour,0.06
164,19,1,2,9,36,436,711.38788270019,712.0794601002708,"[80, 0, 174]",174,l,0.16836250014603138,colour,0.06
164,19,1,2,9,37,437,712.5909967999905,713.3035065000877,"[91, 0, 163]",163,l,0.18930569989606738,colour,0.06
164,19,1,2,9,38,438,713.8095514001325,714.463526500389,"[54, 0, 200]",200,a,0.12897410010918975,colour,0.06
164,19,1,2,9,39,439,714.9831228000112,715.7435192000121,"[96, 0, 158]",158,l,0.24626069981604815,colour,0.06
164,19,1,2,9,40,440,716.2550071002916,717.4315182003193,"[76, 0, 178]",178,l,0.6532545001246035,colour,0.06
164,19,1,2,9,41,441,717.9300097003579,718.6714713000692,"[52, 0, 202]",202,a,0.218378399964422,colour,0.06
164,19,1,2,9,42,442,719.1674206000753,719.9516536002047,"[89, 0, 165]",165,l,0.2609327002428472,colour,0.06
164,19,1,2,9,43,443,720.4642287003808,721.6234895000234,"[51, 0, 203]",203,a,0.6370269996114075,colour,0.06
164,19,1,2,9,44,444,722.1272558001801,722.9355732002296,"[77, 0, 177]",177,l,0.2852282002568245,colour,0.06
164,19,1,2,9,45,445,723.4551366004162,725.3834983003326,"[62, 0, 192]",192,a,1.4058998003602028,colour,0.06
164,19,1,2,9,46,446,725.8831476001069,726.6715003000572,"[74, 0, 180]",180,l,0.26509759994223714,colour,0.06
164,19,1,2,9,47,447,727.1798772001639,727.9515292001888,"[69, 0, 185]",185,l,0.24839190021157265,colour,0.06
164,19,1,2,9,48,448,728.4610044001602,729.423494100105,"[53, 0, 201]",201,a,0.4399216999299824,colour,0.06
164,19,1,2,9,49,449,729.9296523001976,731.7674879003316,"[60, 0, 194]",194,a,1.314560899976641,colour,0.06
164,19,1,2,9,50,450,732.2904528002255,733.0394703000784,"[87, 0, 167]",167,l,0.23030699975788593,colour,0.06
164,19,1,2,10,1,451,737.3814596002921,738.6155115002766,"[66, 0, 188]",188,l,0.7099967002868652,colour,0.06
164,19,1,2,10,2,452,739.1321468004026,739.8794602002017,"[80, 0, 174]",174,l,0.22243240009993315,colour,0.06
164,19,1,2,10,3,453,740.3991837999783,741.1275175004266,"[82, 0, 172]",172,l,0.20503030018880963,colour,0.06
164,19,1,2,10,4,454,741.6335444003344,742.239452500362,"[75, 0, 179]",179,l,0.0826624003238976,colour,0.06
164,19,1,2,10,5,455,742.7584131001495,743.3595059001818,"[56, 0, 198]",198,a,0.07787489984184504,colour,0.06
164,19,1,2,10,6,456,743.8676529000513,744.5995024000295,"[61, 0, 193]",193,a,0.20872189989313483,colour,0.06
164,19,1,2,10,7,457,745.1176019003615,745.8874482000247,"[52, 0, 202]",202,a,0.24655269971117377,colour,0.06
164,19,1,2,10,8,458,746.4015627000481,747.119565800298,"[93, 0, 161]",161,l,0.19324920000508428,colour,0.06
164,19,1,2,10,9,459,747.6373136001639,748.2715254002251,"[25, 0, 229]",229,a,0.11096000019460917,colour,0.06
164,19,1,2,10,10,460,748.7778484001756,749.4955295003019,"[79, 0, 175]",175,l,0.19434679998084903,colour,0.06
164,19,1,2,10,11,461,750.0153572000563,750.7994826002978,"[95, 0, 159]",159,l,0.2609280999749899,colour,0.06
164,19,1,2,10,12,462,751.2996962000616,752.1196060003713,"[78, 0, 176]",176,l,0.29673210019245744,colour,0.06
164,19,1,2,10,13,463,752.627725600265,753.311484800186,"[50, 0, 204]",204,a,0.1605537999421358,colour,0.06
164,19,1,2,10,14,464,753.8307051002048,754.5514575000852,"[83, 0, 171]",171,l,0.19768039975315332,colour,0.06
164,19,1,2,10,15,465,755.066911500413,757.1196087002754,"[62, 0, 192]",192,a,1.5419455002993345,colour,0.06
164,19,1,2,10,16,466,757.6324209002778,758.4315193002112,"[51, 0, 203]",203,a,0.27589969988912344,colour,0.06
164,19,1,2,10,17,467,758.9447747003287,759.663506500423,"[97, 0, 157]",157,l,0.19555300008505583,colour,0.06
164,19,1,2,10,18,468,760.1791159003042,760.7434724001214,"[67, 0, 187]",187,a,0.04153400007635355,colour,0.06
164,19,1,2,10,19,469,761.2598295002244,762.3834903002717,"[71, 0, 183]",183,l,0.6003415999002755,colour,0.06
164,19,1,2,10,20,470,762.900344400201,763.65548520023,"[91, 0, 163]",163,l,0.23190930020064116,colour,0.06
164,19,1,2,10,21,471,764.1636793003418,764.8954593003727,"[89, 0, 165]",165,l,0.2085762000642717,colour,0.06
164,19,1,2,10,22,472,765.4136584000662,766.087466600351,"[99, 0, 155]",155,l,0.15099310036748648,colour,0.06
164,19,1,2,10,23,473,766.6010225000791,767.2074339003302,"[34, 0, 220]",220,a,0.08307339996099472,colour,0.06
164,19,1,2,10,24,474,767.7263934002258,768.8634746000171,"[64, 0, 190]",190,a,0.613895199727267,colour,0.06
164,19,1,2,10,25,475,769.3824346000329,770.5195584003814,"[72, 0, 182]",182,l,0.6114404001273215,colour,0.06
164,19,1,2,10,26,476,771.0408958001062,771.6874925000593,"[60, 0, 194]",194,a,0.12341909995302558,colour,0.06
164,19,1,2,10,27,477,772.1863421001472,774.3914261003956,"[70, 0, 184]",184,a,1.6818773001432419,colour,0.06
164,19,1,2,10,28,478,774.9067436000332,776.1436617001891,"[68, 0, 186]",186,l,0.7136718002147973,colour,0.06
164,19,1,2,10,29,479,776.6565988003276,777.4314974001609,"[74, 0, 180]",180,l,0.2545444001443684,colour,0.06
164,19,1,2,10,30,480,777.9504959001206,778.615459700115,"[84, 0, 170]",170,l,0.14169090008363128,colour,0.06
164,19,1,2,10,31,481,779.1223126002587,779.7274655001238,"[87, 0, 167]",167,l,0.08197809988632798,colour,0.06
164,19,1,2,10,32,482,780.2472153999843,781.0714456001297,"[73, 0, 181]",181,l,0.3012338001281023,colour,0.06
164,19,1,2,10,33,483,781.5908755003475,782.2074447004125,"[88, 0, 166]",166,l,0.09338150033727288,colour,0.06
164,19,1,2,10,34,484,782.7064783000387,783.4474979001097,"[69, 0, 185]",185,a,0.2177301999181509,colour,0.06
164,19,1,2,10,35,485,783.9563176003285,784.6554879001342,"[98, 0, 156]",156,l,0.1758415000513196,colour,0.06
164,19,1,2,10,36,486,785.1749844001606,785.7994315000251,"[54, 0, 200]",200,a,0.1011260999366641,colour,0.06
164,19,1,2,10,37,487,786.3175288001075,787.2714488003403,"[58, 0, 196]",196,a,0.43068130034953356,colour,0.06
164,19,1,2,10,38,488,787.7861786000431,788.4394175000489,"[57, 0, 197]",197,a,0.1299410997889936,colour,0.06
164,19,1,2,10,39,489,788.9592702002265,789.6635052002966,"[86, 0, 168]",168,l,0.18133660033345222,colour,0.06
164,19,1,2,10,40,490,790.1782435001805,790.9994169999845,"[63, 0, 191]",191,a,0.2987215998582542,colour,0.06
164,19,1,2,10,41,491,791.5063964002766,792.1754475003108,"[59, 0, 195]",195,a,0.14600510010495782,colour,0.06
164,19,1,2,10,42,492,792.6937611000612,793.3514837003313,"[65, 0, 189]",189,a,0.1346586002036929,colour,0.06
164,19,1,2,10,43,493,793.8654442001134,794.5114808999933,"[85, 0, 169]",169,l,0.12275259988382459,colour,0.06
164,19,1,2,10,44,494,795.0216040001251,795.6714944001287,"[76, 0, 178]",178,l,0.1267248997464776,colour,0.06
164,19,1,2,10,45,495,796.1680789003149,796.7754827002063,"[46, 0, 208]",208,a,0.0830286000855267,colour,0.06
164,19,1,2,10,46,496,797.2943783001974,798.2954459004104,"[53, 0, 201]",201,a,0.4779000002890825,colour,0.06
164,19,1,2,10,47,497,798.8014098000713,799.4874335001223,"[90, 0, 164]",164,l,0.16278439993038774,colour,0.06
164,19,1,2,10,48,498,800.0043075000867,800.7994627002627,"[55, 0, 199]",199,a,0.2719927001744509,colour,0.06
164,19,1,2,10,49,499,801.3170197000727,802.0554310004227,"[96, 0, 158]",158,l,0.21523100044578314,colour,0.06
164,19,1,2,10,50,500,802.5669319001026,803.3194911000319,"[92, 0, 162]",162,l,0.22928910003975034,colour,0.06
164,19,1,2,11,1,501,807.7408288000152,808.4634459000081,"[55, 0, 199]",199,a,0.19865839974954724,colour,0.06
164,19,1,2,11,2,502,808.9758999003097,809.5994277000427,"[80, 0, 174]",174,l,0.1002271999605,colour,0.06
164,19,1,2,11,3,503,810.1163820000365,811.1034787003882,"[85, 0, 169]",169,l,0.47610490024089813,colour,0.06
164,19,1,2,11,4,504,811.6195655004121,812.9274285002612,"[53, 0, 201]",201,a,0.7846698998473585,colour,0.06
164,19,1,2,11,5,505,813.4475589003414,814.4234186001122,"[99, 0, 155]",155,l,0.4527662000618875,colour,0.06
164,19,1,2,11,6,506,814.9317036001012,815.7194797000848,"[65, 0, 189]",189,l,0.26471609994769096,colour,0.06
164,19,1,2,11,7,507,816.2284384001978,817.5914764003828,"[51, 0, 203]",203,a,0.8397898003458977,colour,0.06
164,19,1,2,11,8,508,818.1033660001121,818.8954060003161,"[97, 0, 157]",157,l,0.2688804999925196,colour,0.06
164,19,1,2,11,9,509,819.4157380000688,820.1914350003935,"[54, 0, 200]",200,a,0.25273470021784306,colour,0.06
164,19,1,2,11,10,510,820.7125167003833,821.4474269002676,"[38, 0, 216]",216,a,0.2144687999971211,colour,0.06
164,19,1,2,11,11,511,821.9596673003398,822.6794187002815,"[84, 0, 170]",170,l,0.20899409987032413,colour,0.06
164,19,1,2,11,12,512,823.1970815001987,823.8314347001724,"[94, 0, 160]",160,l,0.1234923000447452,colour,0.06
164,19,1,2,11,13,513,824.340833300259,824.999397400301,"[61, 0, 193]",193,l,0.1337855001911521,colour,0.06
164,19,1,2,11,14,514,825.5142057002522,826.2555384002626,"[69, 0, 185]",185,l,0.216368000023067,colour,0.06
164,19,1,2,11,15,515,826.7658303002827,827.3833983000368,"[87, 0, 167]",167,l,0.09420739999040961,colour,0.06
164,19,1,2,11,16,516,827.8931783000007,828.9114559004083,"[98, 0, 156]",156,l,0.4949668003246188,colour,0.06
164,19,1,2,11,17,517,829.4152137003839,830.1593988002278,"[52, 0, 202]",202,a,0.2216639998368919,colour,0.06
164,19,1,2,11,18,518,830.6805672002956,831.4154276000336,"[70, 0, 184]",184,l,0.21160769974812865,colour,0.06
164,19,1,2,11,19,519,831.9305899003521,832.6794586000033,"[86, 0, 168]",168,l,0.22610329976305366,colour,0.06
164,19,1,2,11,20,520,833.1961040003225,836.8394695003517,"[62, 0, 192]",192,a,3.1202017003670335,colour,0.06
164,19,1,2,11,21,521,837.3520341003314,838.1114265001379,"[82, 0, 172]",172,l,0.23617389984428883,colour,0.06
164,19,1,2,11,22,522,838.6255145003088,839.3994591003284,"[64, 0, 190]",190,a,0.25372100016102195,colour,0.06
164,19,1,2,11,23,523,839.9209199002944,840.6714050001465,"[91, 0, 163]",163,l,0.22713709995150566,colour,0.06
164,19,1,2,11,24,524,841.1865224000067,841.9754468002357,"[77, 0, 177]",177,l,0.2748024999164045,colour,0.06
164,19,1,2,11,25,525,842.4897352000698,843.351417100057,"[73, 0, 181]",181,l,0.3385179997421801,colour,0.06
164,19,1,2,11,26,526,843.8522777999751,844.6234202003106,"[79, 0, 175]",175,l,0.24784320034086704,colour,0.06
164,19,1,2,11,27,527,845.133359500207,845.9194341003895,"[74, 0, 180]",180,l,0.26285090018063784,colour,0.06
164,19,1,2,11,28,528,846.4180773003027,847.1115469001234,"[56, 0, 198]",198,a,0.18353789998218417,colour,0.06
164,19,1,2,11,29,529,847.6244218000211,848.4073938000947,"[66, 0, 188]",188,a,0.2598170000128448,colour,0.06
164,19,1,2,11,30,530,848.9210891001858,849.5434244000353,"[92, 0, 162]",162,l,0.098845100030303,colour,0.06
164,19,1,2,11,31,531,850.0617117001675,850.6873663002625,"[7, 0, 247]",247,a,0.10241359984502196,colour,0.06
164,19,1,2,11,32,532,851.2023424003273,851.9594363002107,"[50, 0, 204]",204,a,0.23391660023480654,colour,0.06
164,19,1,2,11,33,533,852.4677225002088,853.239444100298,"[63, 0, 191]",191,a,0.2492933003231883,colour,0.06
164,19,1,2,11,34,534,853.7488037999719,854.4793859003112,"[75, 0, 179]",179,l,0.2102089999243617,colour,0.06
164,19,1,2,11,35,535,854.9960329001769,855.7674002000131,"[95, 0, 159]",159,l,0.2482809997163713,colour,0.06
164,19,1,2,11,36,536,856.2677251002751,857.0073991003446,"[81, 0, 173]",173,l,0.21634280029684305,colour,0.06
164,19,1,2,11,37,537,857.5176904001273,858.2633876004256,"[57, 0, 197]",197,a,0.22308140015229583,colour,0.06
164,19,1,2,11,38,538,858.7832120000385,859.5673956000246,"[60, 0, 194]",194,a,0.2610984998755157,colour,0.06
164,19,1,2,11,39,539,860.0799961001612,860.8553562001325,"[76, 0, 178]",178,l,0.25224729999899864,colour,0.06
164,19,1,2,11,40,540,861.3766336003318,862.1514419000596,"[83, 0, 171]",171,l,0.2515169996768236,colour,0.06
164,19,1,2,11,41,541,862.6578568001278,863.4154021004215,"[90, 0, 164]",164,l,0.23368650022894144,colour,0.06
164,19,1,2,11,42,542,863.9113547001034,864.5834525004029,"[96, 0, 158]",158,l,0.14857820002362132,colour,0.06
164,19,1,2,11,43,543,865.0988231003284,865.8793843002059,"[58, 0, 196]",196,a,0.2676740000024438,colour,0.06
164,19,1,2,11,44,544,866.3852056004107,867.0714633003809,"[89, 0, 165]",165,l,0.162797000259161,colour,0.06
164,19,1,2,11,45,545,867.5890787001699,868.5994176999666,"[72, 0, 182]",182,l,0.48744009993970394,colour,0.06
164,19,1,2,11,46,546,869.1204924001358,870.1754215001129,"[59, 0, 195]",195,a,0.544130299706012,colour,0.06
164,19,1,2,11,47,547,870.6816183002666,871.4634316000156,"[71, 0, 183]",183,l,0.26996259996667504,colour,0.06
164,19,1,2,11,48,548,871.983594099991,872.7354904999956,"[93, 0, 161]",161,l,0.2284702998585999,colour,0.06
164,19,1,2,11,49,549,873.2492579002865,873.9434197000228,"[26, 0, 228]",228,a,0.17078869976103306,colour,0.06
164,19,1,2,11,50,550,874.4523708000779,875.1273623001762,"[88, 0, 166]",166,l,0.15192129975184798,colour,0.06
164,19,1,2,12,1,551,879.549214000348,880.1673518000171,"[50, 0, 204]",204,a,0.09411109983921051,colour,0.06
164,19,1,2,12,2,552,880.6750615001656,881.3433872000314,"[96, 0, 158]",158,l,0.14522629976272583,colour,0.06
164,19,1,2,12,3,553,881.8623262001202,882.567406500224,"[78, 0, 176]",176,l,0.18189929984509945,colour,0.06
164,19,1,2,12,4,554,883.0809309002943,883.7834213003516,"[70, 0, 184]",184,l,0.17935959994792938,colour,0.06
164,19,1,2,12,5,555,884.2996660000645,884.967425300274,"[87, 0, 167]",167,l,0.1446004998870194,colour,0.06
164,19,1,2,12,6,556,885.4869405003265,886.1993555002846,"[71, 0, 183]",183,l,0.18943990021944046,colour,0.06
164,19,1,2,12,7,557,886.7056631003506,887.3833659002557,"[63, 0, 191]",191,l,0.15448429994285107,colour,0.06
164,19,1,2,12,8,558,887.8929394003935,888.5433996003121,"[84, 0, 170]",170,l,0.12536780023947358,colour,0.06
164,19,1,2,12,9,559,889.0508753000759,889.7034169002436,"[58, 0, 196]",196,a,0.12617160007357597,colour,0.06
164,19,1,2,12,10,560,890.2007937002927,890.9194760001265,"[76, 0, 178]",178,l,0.19351969985291362,colour,0.06
164,19,1,2,12,11,561,891.4389135004021,892.1834177002311,"[92, 0, 162]",162,l,0.2213671002537012,colour,0.06
164,19,1,2,12,12,562,892.7045198003761,893.471412200015,"[90, 0, 164]",164,l,0.2561448998749256,colour,0.06
164,19,1,2,12,13,563,893.9911955003627,894.6713604000397,"[77, 0, 177]",177,l,0.1537061999551952,colour,0.06
164,19,1,2,12,14,564,895.1817968003452,895.8873849003576,"[88, 0, 166]",166,l,0.1824969002045691,colour,0.06
164,19,1,2,12,15,565,896.4004163001664,897.1913910000585,"[98, 0, 156]",156,l,0.2676907000131905,colour,0.06
164,19,1,2,12,16,566,897.6972786001861,898.3834367999807,"[14, 0, 240]",240,a,0.1635952997021377,colour,0.06
164,19,1,2,12,17,567,898.890339600388,899.5433674002998,"[97, 0, 157]",157,l,0.1298314998857677,colour,0.06
164,19,1,2,12,18,568,900.0621114000678,900.7753775999881,"[53, 0, 201]",201,a,0.19080339977517724,colour,0.06
164,19,1,2,12,19,569,901.296361700166,901.9433286003768,"[51, 0, 203]",203,a,0.12384470039978623,colour,0.06
164,19,1,2,12,20,570,902.4532444002107,903.1674089003354,"[95, 0, 159]",159,l,0.190843699965626,colour,0.06
164,19,1,2,12,21,571,903.6875150999986,904.319396100007,"[57, 0, 197]",197,a,0.11789889959618449,colour,0.06
164,19,1,2,12,22,572,904.8363634003326,905.4553311001509,"[81, 0, 173]",173,l,0.09871189994737506,colour,0.06
164,19,1,2,12,23,573,905.9740334004164,906.8313683001325,"[74, 0, 180]",180,a,0.3340449999086559,colour,0.06
164,19,1,2,12,24,574,907.3489320003428,908.119405400008,"[29, 0, 225]",225,a,0.26245109969750047,colour,0.06
164,19,1,2,12,25,575,908.6305080000311,909.3513963003643,"[83, 0, 171]",171,l,0.2100619999691844,colour,0.06
164,19,1,2,12,26,576,909.8679476003163,910.4953748001717,"[60, 0, 194]",194,a,0.10415770020335913,colour,0.06
164,19,1,2,12,27,577,910.9961526002735,911.7674032002687,"[59, 0, 195]",195,a,0.24813880026340485,colour,0.06
164,19,1,2,12,28,578,912.2771980003454,913.0313780000433,"[66, 0, 188]",188,a,0.24017459992319345,colour,0.06
164,19,1,2,12,29,579,913.5489340000786,914.3194307000376,"[56, 0, 198]",198,a,0.24714790005236864,colour,0.06
164,19,1,2,12,30,580,914.8302351003513,915.5193884000182,"[86, 0, 168]",168,l,0.16673149960115552,colour,0.06
164,19,1,2,12,31,581,916.0332285002805,917.0953868003562,"[61, 0, 193]",193,a,0.5389154003933072,colour,0.06
164,19,1,2,12,32,582,917.611129200086,918.3433636003174,"[85, 0, 169]",169,l,0.20895040035247803,colour,0.06
164,19,1,2,12,33,583,918.8609688002616,919.591316500213,"[52, 0, 202]",202,a,0.20694220019504428,colour,0.06
164,19,1,2,12,34,584,920.1054235002957,920.7913729003631,"[79, 0, 175]",175,l,0.16274100029841065,colour,0.06
164,19,1,2,12,35,585,921.3084200001322,922.1433457001112,"[73, 0, 181]",181,l,0.31745800003409386,colour,0.06
164,19,1,2,12,36,586,922.6618098001927,923.271350200288,"[54, 0, 200]",200,a,0.08630400011315942,colour,0.06
164,19,1,2,12,37,587,923.7742549004033,924.3113367003389,"[67, 0, 187]",187,a,0.013729800004512072,colour,0.06
164,19,1,2,12,38,588,924.8118072999641,925.3753743004054,"[69, 0, 185]",185,a,0.03759730001911521,colour,0.06
164,19,1,2,12,39,589,925.8946332000196,926.4713603002019,"[55, 0, 199]",199,a,0.053443599957972765,colour,0.06
164,19,1,2,12,40,590,926.9846754004247,927.6073301001452,"[80, 0, 174]",174,l,0.09928399976342916,colour,0.06
164,19,1,2,12,41,591,928.1129602002911,928.7753989002667,"[89, 0, 165]",165,l,0.1392784002237022,colour,0.06
164,19,1,2,12,42,592,929.2847464000806,930.6953617003746,"[99, 0, 155]",155,l,0.9009579000994563,colour,0.06
164,19,1,2,12,43,593,931.1973660001531,932.2474080002867,"[64, 0, 190]",190,a,0.5392493000254035,colour,0.06
164,19,1,2,12,44,594,932.7504887003452,933.5273330002092,"[68, 0, 186]",186,a,0.25396949984133244,colour,0.06
164,19,1,2,12,45,595,934.0472344001755,934.8072903002612,"[62, 0, 192]",192,a,0.23748690029606223,colour,0.06
164,19,1,2,12,46,596,935.3283758000471,935.943303400185,"[94, 0, 160]",160,l,0.09162269998341799,colour,0.06
164,19,1,2,12,47,597,936.4532115003094,937.1353327003308,"[91, 0, 163]",163,l,0.15882220026105642,colour,0.06
164,19,1,2,12,48,598,937.6562495003454,938.3513409001753,"[18, 0, 236]",236,a,0.17178770015016198,colour,0.06
164,19,1,2,12,49,599,938.8593193003908,939.5113395000808,"[93, 0, 161]",161,l,0.12930819997563958,colour,0.06
164,19,1,2,12,50,600,940.0166993001476,940.6393522000872,"[65, 0, 189]",189,a,0.09978209994733334,colour,0.06
164,19,1,2,13,1,601,945.1092280000448,945.8393737999722,"[75, 0, 179]",179,l,0.2061586999334395,colour,0.06
164,19,1,2,13,2,602,946.3579545002431,947.0073651000857,"[86, 0, 168]",168,l,0.138627499807626,colour,0.06
164,19,1,2,13,3,603,947.5172417000867,948.127342000138,"[50, 0, 204]",204,a,0.08677659975364804,colour,0.06
164,19,1,2,13,4,604,948.642048700247,949.3753357003443,"[67, 0, 187]",187,a,0.21041270019486547,colour,0.06
164,19,1,2,13,5,605,949.882769100368,950.5433789002709,"[28, 0, 226]",226,a,0.13738569989800453,colour,0.06
164,19,1,2,13,6,606,951.0573726003058,951.7993340003304,"[64, 0, 190]",190,a,0.21867140009999275,colour,0.06
164,19,1,2,13,7,607,952.3073299000971,953.0073207002133,"[53, 0, 201]",201,a,0.17680000001564622,colour,0.06
164,19,1,2,13,8,608,953.5279264003038,954.1353763001971,"[85, 0, 169]",169,l,0.08424089988693595,colour,0.06
164,19,1,2,13,9,609,954.65290010022,955.263319700025,"[80, 0, 174]",174,l,0.08723259996622801,colour,0.06
164,19,1,2,13,10,610,955.7776823001914,956.3673761002719,"[70, 0, 184]",184,l,0.06631969986483455,colour,0.06
164,19,1,2,13,11,611,956.8869945001788,957.5353315002285,"[57, 0, 197]",197,a,0.1251459000632167,colour,0.06
164,19,1,2,13,12,612,958.0437454003841,958.67133080028,"[76, 0, 178]",178,l,0.10497760027647018,colour,0.06
164,19,1,2,13,13,613,959.1836380003951,959.9113758001477,"[79, 0, 175]",175,l,0.20451630000025034,colour,0.06
164,19,1,2,13,14,614,960.4178838999942,961.0633376003243,"[92, 0, 162]",162,l,0.12241930002346635,colour,0.06
164,19,1,2,13,15,615,961.5740602002479,962.1194530003704,"[83, 0, 171]",171,l,0.022004300262778997,colour,0.06
164,19,1,2,13,16,616,962.6367190000601,963.6073340000585,"[73, 0, 181]",181,l,0.4474605997093022,colour,0.06
164,19,1,2,13,17,617,964.1207876000553,964.6713259001262,"[27, 0, 227]",227,a,0.02784649981185794,colour,0.06
164,19,1,2,13,18,618,965.1833484000526,965.7913037003018,"[84, 0, 170]",170,l,0.084689199924469,colour,0.06
164,19,1,2,13,19,619,966.3083186000586,968.5593229001388,"[65, 0, 189]",189,l,1.7283648001030087,colour,0.06
164,19,1,2,13,20,620,969.0739200003445,969.8152944003232,"[99, 0, 155]",155,l,0.2181845000013709,colour,0.06
164,19,1,2,13,21,621,970.3238012003712,971.0793606000952,"[55, 0, 199]",199,a,0.23236140003427863,colour,0.06
164,19,1,2,13,22,622,971.5847706003115,972.9752869000658,"[63, 0, 191]",191,a,0.8672110997140408,colour,0.06
164,19,1,2,13,23,623,973.4910788000561,974.247385900002,"[51, 0, 203]",203,a,0.2453226000070572,colour,0.06
164,19,1,2,13,24,624,974.7597720003687,975.4233039002866,"[52, 0, 202]",202,a,0.14020710019394755,colour,0.06
164,19,1,2,13,25,625,975.9317724001594,976.6073203003034,"[78, 0, 176]",176,l,0.15246940031647682,colour,0.06
164,19,1,2,13,26,626,977.1190903000534,977.7032819003798,"[54, 0, 200]",200,a,0.060971000231802464,colour,0.06
164,19,1,2,13,27,627,978.2128084003925,978.8473194004036,"[97, 0, 157]",157,l,0.11127740005031228,colour,0.06
164,19,1,2,13,28,628,979.3689272003248,980.0953479004093,"[88, 0, 166]",166,l,0.20316890021786094,colour,0.06
164,19,1,2,13,29,629,980.6032347003929,981.231328099966,"[60, 0, 194]",194,a,0.1044662999920547,colour,0.06
164,19,1,2,13,30,630,981.7441960000433,982.3593088001944,"[93, 0, 161]",161,l,0.09191979980096221,colour,0.06
164,19,1,2,13,31,631,982.8690264001489,983.4473500000313,"[98, 0, 156]",156,l,0.05493059987202287,colour,0.06
164,19,1,2,13,32,632,983.9626259002835,984.607378100045,"[72, 0, 182]",182,l,0.12136289989575744,colour,0.06
164,19,1,2,13,33,633,985.1188453002833,985.6793802999891,"[56, 0, 198]",198,a,0.033167199697345495,colour,0.06
164,19,1,2,13,34,634,986.1871477002278,987.0633633001707,"[69, 0, 185]",185,l,0.3538552997633815,colour,0.06
164,19,1,2,13,35,635,987.5776842003688,988.1193280001171,"[96, 0, 158]",158,l,0.018381699919700623,colour,0.06
164,19,1,2,13,36,636,988.6401065001264,989.4953040000983,"[89, 0, 165]",165,l,0.3288338999263942,colour,0.06
164,19,1,2,13,37,637,989.9900817000307,990.5913023003377,"[71, 0, 183]",183,a,0.07805030001327395,colour,0.06
164,19,1,2,13,38,638,991.1044862000272,991.6712685003877,"[61, 0, 193]",193,a,0.043443800415843725,colour,0.06
164,19,1,2,13,39,639,992.1826282003894,992.8233050000854,"[95, 0, 159]",159,l,0.11751069966703653,colour,0.06
164,19,1,2,13,40,640,993.3387482999824,994.0312896003015,"[62, 0, 192]",192,a,0.16933430032804608,colour,0.06
164,19,1,2,13,41,641,994.5418271999806,995.1433011000045,"[59, 0, 195]",195,a,0.07895909994840622,colour,0.06
164,19,1,2,13,42,642,995.6511018001474,996.3112892000936,"[58, 0, 196]",196,a,0.13703579967841506,colour,0.06
164,19,1,2,13,43,643,996.8229184001684,997.4392922003753,"[91, 0, 163]",163,l,0.09326270036399364,colour,0.06
164,19,1,2,13,44,644,997.9477858999744,998.5752461999655,"[25, 0, 229]",229,a,0.10445379978045821,colour,0.06
164,19,1,2,13,45,645,999.0776737001725,999.7433367003687,"[90, 0, 164]",164,l,0.14250370021909475,colour,0.06
164,19,1,2,13,46,646,1000.2504720999859,1001.167261000257,"[81, 0, 173]",173,l,0.40275709982961416,colour,0.06
164,19,1,2,13,47,647,1001.6681930003688,1002.6073090001009,"[74, 0, 180]",180,a,0.4158699996769428,colour,0.06
164,19,1,2,13,48,648,1003.1181529001333,1003.7512504002079,"[82, 0, 172]",172,l,0.10991929983720183,colour,0.06
164,19,1,2,13,49,649,1004.2586902002804,1004.9832884003408,"[68, 0, 186]",186,a,0.20135320024564862,colour,0.06
164,19,1,2,13,50,650,1005.492920299992,1006.1112620001659,"[87, 0, 167]",167,l,0.0950845000334084,colour,0.06
164,19,1,2,14,1,651,1010.5141406003386,1011.5352998003364,"[65, 0, 189]",189,a,0.4958826000802219,colour,0.06
164,19,1,2,14,2,652,1012.0472401003353,1012.7752569001168,"[55, 0, 199]",199,a,0.20167209999635816,colour,0.06
164,19,1,2,14,3,653,1013.2854267000221,1013.9672646000981,"[83, 0, 171]",171,l,0.15862479992210865,colour,0.06
164,19,1,2,14,4,654,1014.4747275002301,1015.0632631001063,"[67, 0, 187]",187,a,0.06604469986632466,colour,0.06
164,19,1,2,14,5,655,1015.5840322002769,1016.2072707000189,"[90, 0, 164]",164,l,0.10041609965264797,colour,0.06
164,19,1,2,14,6,656,1016.7245541000739,1017.3832837999798,"[69, 0, 185]",185,a,0.13544309977442026,colour,0.06
164,19,1,2,14,7,657,1017.8838233002461,1018.4872973002493,"[61, 0, 193]",193,a,0.08036850020289421,colour,0.06
164,19,1,2,14,8,658,1018.9936914001592,1019.6473217001185,"[59, 0, 195]",195,a,0.13034969987347722,colour,0.06
164,19,1,2,14,9,659,1020.1655473001301,1021.343286300078,"[77, 0, 177]",177,l,0.6545428996905684,colour,0.06
164,19,1,2,14,10,660,1021.8528649001382,1023.7512789000757,"[66, 0, 188]",188,a,1.3751242998987436,colour,0.06
164,19,1,2,14,11,661,1024.2588612004183,1024.8633040003479,"[76, 0, 178]",178,l,0.0876923999749124,colour,0.06
164,19,1,2,14,12,662,1025.3772598002106,1026.0872793002054,"[78, 0, 176]",176,l,0.18380350014194846,colour,0.06
164,19,1,2,14,13,663,1026.5988254002295,1027.319371400401,"[91, 0, 163]",163,l,0.19709140015766025,colour,0.06
164,19,1,2,14,14,664,1027.8332541002892,1028.3992689000443,"[86, 0, 168]",168,l,0.04376519983634353,colour,0.06
164,19,1,2,14,15,665,1028.9112874004059,1029.9433007002808,"[34, 0, 220]",220,a,0.5087178000248969,colour,0.06
164,19,1,2,14,16,666,1030.4579850002192,1031.1353140003048,"[64, 0, 190]",190,a,0.15407520020380616,colour,0.06
164,19,1,2,14,17,667,1031.6454645004123,1032.3032623999752,"[95, 0, 159]",159,l,0.1329606999643147,colour,0.06
164,19,1,2,14,18,668,1032.8190497001633,1033.4632254000753,"[51, 0, 203]",203,a,0.11788609996438026,colour,0.06
164,19,1,2,14,19,669,1033.9783273003995,1034.6873143999837,"[88, 0, 166]",166,l,0.1864092997275293,colour,0.06
164,19,1,2,14,20,670,1035.1845038002357,1035.951267900411,"[60, 0, 194]",194,l,0.2435439000837505,colour,0.06
164,19,1,2,14,21,671,1036.4663819000125,1037.1592671000399,"[53, 0, 201]",201,a,0.17026449972763658,colour,0.06
164,19,1,2,14,22,672,1037.6687433002517,1038.559284100309,"[71, 0, 183]",183,l,0.36732499999925494,colour,0.06
164,19,1,2,14,23,673,1039.0748799000867,1040.8313550003804,"[58, 0, 196]",196,a,1.2332590003497899,colour,0.06
164,19,1,2,14,24,674,1041.330968500115,1041.9832492000423,"[89, 0, 165]",165,l,0.12947689974680543,colour,0.06
164,19,1,2,14,25,675,1042.5027927001938,1043.127301900182,"[63, 0, 191]",191,a,0.10199060011655092,colour,0.06
164,19,1,2,14,26,676,1043.6431514001451,1044.2312724003568,"[85, 0, 169]",169,l,0.06472619995474815,colour,0.06
164,19,1,2,14,27,677,1044.7525242003612,1045.3672298002057,"[97, 0, 157]",157,l,0.09065049979835749,colour,0.06
164,19,1,2,14,28,678,1045.8781591001898,1046.6393139003776,"[75, 0, 179]",179,l,0.23845560010522604,colour,0.06
164,19,1,2,14,29,679,1047.1593775004148,1047.735266700387,"[57, 0, 197]",197,a,0.05277710035443306,colour,0.06
164,19,1,2,14,30,680,1048.254783099983,1048.8792565003969,"[99, 0, 155]",155,l,0.11057960009202361,colour,0.06
164,19,1,2,14,31,681,1049.386139200069,1049.9912697002292,"[80, 0, 174]",174,l,0.07984110014513135,colour,0.06
164,19,1,2,14,32,682,1050.4992911000736,1051.2952678003348,"[73, 0, 181]",181,l,0.2746604001149535,colour,0.06
164,19,1,2,14,33,683,1051.8097943002358,1052.3672366002575,"[81, 0, 173]",173,l,0.033031499944627285,colour,0.06
164,19,1,2,14,34,684,1052.8890130002983,1053.4232593001798,"[74, 0, 180]",180,l,0.009261500090360641,colour,0.06
164,19,1,2,14,35,685,1053.939445800148,1054.5032598003745,"[87, 0, 167]",167,l,0.04050370026379824,colour,0.06
164,19,1,2,14,36,686,1055.0174780003726,1055.599282400217,"[52, 0, 202]",202,a,0.058492499869316816,colour,0.06
164,19,1,2,14,37,687,1056.1111902003177,1056.6392580000684,"[56, 0, 198]",198,a,0.0029866998083889484,colour,0.06
164,19,1,2,14,38,688,1057.1598766003735,1057.7272589001805,"[82, 0, 172]",172,l,0.044121399987488985,colour,0.06
164,19,1,2,14,39,689,1058.2377849002369,1058.7512937001884,"[98, 0, 156]",156,l,0.0026064999401569366,colour,0.06
164,19,1,2,14,40,690,1059.2723513003439,1059.8313287002966,"[54, 0, 200]",200,a,0.035808800254017115,colour,0.06
164,19,1,2,14,41,691,1060.3522386001423,1061.0632827002555,"[92, 0, 162]",162,l,0.18774319998919964,colour,0.06
164,19,1,2,14,42,692,1061.5708042001352,1062.143263600301,"[50, 0, 204]",204,a,0.059019300155341625,colour,0.06
164,19,1,2,14,43,693,1062.6545990002342,1064.287237700075,"[42, 0, 212]",212,a,1.1092705996707082,colour,0.06
164,19,1,2,14,44,694,1064.7950681000948,1065.5672695999965,"[10, 0, 244]",244,a,0.2489751996472478,colour,0.06
164,19,1,2,14,45,695,1066.0779485004023,1067.863236500416,"[72, 0, 182]",182,a,1.2618592004291713,colour,0.06
164,19,1,2,14,46,696,1068.3747515003197,1069.1672563003376,"[94, 0, 160]",160,l,0.2723727999255061,colour,0.06
164,19,1,2,14,47,697,1069.6840164000168,1070.3113018004224,"[93, 0, 161]",161,l,0.10382780013605952,colour,0.06
164,19,1,2,14,48,698,1070.8247282002121,1071.4792677001096,"[62, 0, 192]",192,a,0.1312923999503255,colour,0.06
164,19,1,2,14,49,699,1071.9964599004015,1072.6152604003437,"[84, 0, 170]",170,l,0.0955868000164628,colour,0.06
164,19,1,2,14,50,700,1073.1120565002784,1073.8073046002537,"[96, 0, 158]",158,l,0.1718839001841843,colour,0.06
164,19,1,2,15,1,701,1078.14526890032,1079.0472188000567,"[56, 0, 198]",198,a,0.3778943996876478,colour,0.06
164,19,1,2,15,2,702,1079.5540718003176,1080.2632534001023,"[71, 0, 183]",183,l,0.18579099979251623,colour,0.06
164,19,1,2,15,3,703,1080.7728536999784,1081.6472461000085,"[61, 0, 193]",193,a,0.3512367997318506,colour,0.06
164,19,1,2,15,4,704,1082.1632945002057,1082.9992525000125,"[69, 0, 185]",185,a,0.3134105997160077,colour,0.06
164,19,1,2,15,5,705,1083.4945260002278,1084.151296700351,"[82, 0, 172]",172,l,0.13354240031912923,colour,0.06
164,19,1,2,15,6,706,1084.6662645000033,1085.3672310002148,"[79, 0, 175]",175,l,0.17764469981193542,colour,0.06
164,19,1,2,15,7,707,1085.884833900258,1086.5352079002187,"[85, 0, 169]",169,l,0.12705310015007854,colour,0.06
164,19,1,2,15,8,708,1087.0411579003558,1090.3992797001265,"[84, 0, 170]",170,l,2.8349349997006357,colour,0.06
164,19,1,2,15,9,709,1090.9157867003232,1092.223271300085,"[68, 0, 186]",186,l,0.7842624997720122,colour,0.06
164,19,1,2,15,10,710,1092.7437227000482,1093.4392091999762,"[95, 0, 159]",159,l,0.17230149963870645,colour,0.06
164,19,1,2,15,11,711,1093.9468149002641,1094.7432447001338,"[66, 0, 188]",188,a,0.27336749993264675,colour,0.06
164,19,1,2,15,12,712,1095.2591677000746,1095.9912092001177,"[57, 0, 197]",197,a,0.20881380001083016,colour,0.06
164,19,1,2,15,13,713,1096.5102918003686,1097.151260400191,"[63, 0, 191]",191,a,0.11806239979341626,colour,0.06
164,19,1,2,15,14,714,1097.6664857002907,1098.3352401000448,"[91, 0, 163]",163,l,0.14545509964227676,colour,0.06
164,19,1,2,15,15,715,1098.8538258001208,1099.5272117001005,"[58, 0, 196]",196,a,0.16280419984832406,colour,0.06
164,19,1,2,15,16,716,1100.0444741002284,1100.6952300001867,"[88, 0, 166]",166,l,0.1275328998453915,colour,0.06
164,19,1,2,15,17,717,1101.2162315002643,1101.8072338001803,"[0, 0, 254]",254,a,0.07698669983074069,colour,0.06
164,19,1,2,15,18,718,1102.3162291999906,1102.9593557002954,"[97, 0, 157]",157,l,0.1197321000508964,colour,0.06
164,19,1,2,15,19,719,1103.472442700062,1104.247212599963,"[72, 0, 182]",182,l,0.25148839969187975,colour,0.06
164,19,1,2,15,20,720,1104.7535606003366,1105.3592573003843,"[86, 0, 168]",168,l,0.08239820040762424,colour,0.06
164,19,1,2,15,21,721,1105.8785141003318,1106.487259699963,"[78, 0, 176]",176,l,0.08565079979598522,colour,0.06
164,19,1,2,15,22,722,1107.00334090041,1107.5832219002768,"[59, 0, 195]",195,a,0.05661150021478534,colour,0.06
164,19,1,2,15,23,723,1108.0970706003718,1109.0711834002286,"[64, 0, 190]",190,a,0.45100370002910495,colour,0.06
164,19,1,2,15,24,724,1109.569818600081,1110.3432018002495,"[73, 0, 181]",181,l,0.25090070022270083,colour,0.06
164,19,1,2,15,25,725,1110.8509168000892,1111.4472589003853,"[5, 0, 249]",249,a,0.07293440029025078,colour,0.06
164,19,1,2,15,26,726,1111.9603993003257,1112.5512912003323,"[89, 0, 165]",165,l,0.06773720029741526,colour,0.06
164,19,1,2,15,27,727,1113.069691200275,1114.5031761000864,"[67, 0, 187]",187,a,0.910224599763751,colour,0.06
164,19,1,2,15,28,728,1115.0225884001702,1115.5992264002562,"[50, 0, 204]",204,a,0.053536000195890665,colour,0.06
164,19,1,2,15,29,729,1116.1161854001693,1116.855207100045,"[70, 0, 184]",184,l,0.21579049993306398,colour,0.06
164,19,1,2,15,30,730,1117.3661760003306,1118.1671883002855,"[98, 0, 156]",156,l,0.27787450002506375,colour,0.06
164,19,1,2,15,31,731,1118.6785699999891,1119.33522120025,"[60, 0, 194]",194,a,0.13338120002299547,colour,0.06
164,19,1,2,15,32,732,1119.8502743002027,1121.647190300282,"[77, 0, 177]",177,l,1.2736367001198232,colour,0.06
164,19,1,2,15,33,733,1122.1626888001338,1122.8231882001273,"[81, 0, 173]",173,l,0.13736189994961023,colour,0.06
164,19,1,2,15,34,734,1123.3344117002562,1124.1032130001113,"[96, 0, 158]",158,l,0.24566329969093204,colour,0.06
164,19,1,2,15,35,735,1124.6032834001817,1125.271236100234,"[92, 0, 162]",162,l,0.14466080022975802,colour,0.06
164,19,1,2,15,36,736,1125.7906109001487,1128.1352641000412,"[75, 0, 179]",179,l,1.8183156000450253,colour,0.06
164,19,1,2,15,37,737,1128.6531816003844,1129.439167500008,"[90, 0, 164]",164,l,0.26263479981571436,colour,0.06
164,19,1,2,15,38,738,1129.9498201003298,1130.5431662001647,"[55, 0, 199]",199,a,0.06991019984707236,colour,0.06
164,19,1,2,15,39,739,1131.0592225003056,1131.7431932999752,"[93, 0, 161]",161,l,0.16070529958233237,colour,0.06
164,19,1,2,15,40,740,1132.2623311001807,1132.9911621003412,"[80, 0, 174]",174,l,0.20562110003083944,colour,0.06
164,19,1,2,15,41,741,1133.5121766002849,1134.1911734002642,"[94, 0, 160]",160,l,0.155878699850291,colour,0.06
164,19,1,2,15,42,742,1134.699554900173,1135.303158600349,"[51, 0, 203]",203,a,0.0810712999664247,colour,0.06
164,19,1,2,15,43,743,1135.8244172004052,1136.527203200385,"[76, 0, 178]",178,l,0.1795065002515912,colour,0.06
164,19,1,2,15,44,744,1137.04306549998,1137.6711966004223,"[62, 0, 192]",192,a,0.11410470027476549,colour,0.06
164,19,1,2,15,45,745,1138.1899387002923,1138.8551803003065,"[24, 0, 230]",230,a,0.1420672000385821,colour,0.06
164,19,1,2,15,46,746,1139.3617614000104,1140.0552411000244,"[87, 0, 167]",167,l,0.17088939994573593,colour,0.06
164,19,1,2,15,47,747,1140.564800100401,1141.6312008001842,"[52, 0, 202]",202,a,0.5435100002214313,colour,0.06
164,19,1,2,15,48,748,1142.142761700321,1142.8471904001199,"[83, 0, 171]",171,l,0.18119290005415678,colour,0.06
164,19,1,2,15,49,749,1143.3633149000816,1144.1911929002963,"[65, 0, 189]",189,l,0.30465999990701675,colour,0.06
164,19,1,2,15,50,750,1144.7069255001843,1145.3991661001928,"[53, 0, 201]",201,a,0.16988890012726188,colour,0.06
164,19,1,2,16,1,751,1154.5555481002666,1156.175215500407,"[89, 0, 165]",165,l,1.0961648002266884,colour,0.06
164,19,1,2,16,2,752,1156.6995635000058,1158.8712192000821,"[63, 0, 191]",191,l,1.6487619997933507,colour,0.06
164,19,1,2,16,3,753,1159.387134999968,1160.1032430999912,"[92, 0, 162]",162,l,0.20236059976741672,colour,0.06
164,19,1,2,16,4,754,1160.611852100119,1161.6231800001115,"[48, 0, 206]",206,l,0.48798209987580776,colour,0.06
164,19,1,2,16,5,755,1162.1430412000045,1163.1431649001315,"[68, 0, 186]",186,l,0.4768783999606967,colour,0.06
164,19,1,2,16,6,756,1163.6585209001787,1164.3192029003985,"[65, 0, 189]",189,l,0.13743640016764402,colour,0.06
164,19,1,2,16,7,757,1164.8303260002285,1165.8151875999756,"[96, 0, 158]",158,l,0.45864579966291785,colour,0.06
164,19,1,2,16,8,758,1166.3331999001093,1167.9032073002309,"[97, 0, 157]",157,l,1.0467127999290824,colour,0.06
164,19,1,2,16,9,759,1168.4112383001484,1169.3191899000667,"[70, 0, 184]",184,l,0.3851306000724435,colour,0.06
164,19,1,2,16,10,760,1169.8329480001703,1170.959205900319,"[71, 0, 183]",183,l,0.6030939002521336,colour,0.06
164,19,1,2,16,11,761,1171.473512900062,1172.1912424000911,"[94, 0, 160]",160,l,0.1945863999426365,colour,0.06
164,19,1,2,16,12,762,1172.707674600184,1173.5591775001958,"[69, 0, 185]",185,a,0.3282809997908771,colour,0.06
164,19,1,2,16,13,763,1174.066895400174,1174.6152143999934,"[32, 0, 222]",222,a,0.02500149980187416,colour,0.06
164,19,1,2,16,14,764,1175.1293445001356,1175.7031836002134,"[58, 0, 196]",196,a,0.050510100089013577,colour,0.06
164,19,1,2,16,15,765,1176.2230289001018,1176.855145800393,"[95, 0, 159]",159,l,0.10889070015400648,colour,0.06
164,19,1,2,16,16,766,1177.3635760000907,1177.9591943002306,"[56, 0, 198]",198,a,0.07251810003072023,colour,0.06
164,19,1,2,16,17,767,1178.472787800245,1179.727159400005,"[88, 0, 166]",166,l,0.7311305999755859,colour,0.06
164,19,1,2,16,18,768,1180.2382885003462,1181.0311614000238,"[93, 0, 161]",161,l,0.2696640999056399,colour,0.06
164,19,1,2,16,19,769,1181.5506263002753,1182.2551428000443,"[79, 0, 175]",175,l,0.17847449984401464,colour,0.06
164,19,1,2,16,20,770,1182.7721175001934,1183.335200900212,"[64, 0, 190]",190,a,0.039893200155347586,colour,0.06
164,19,1,2,16,21,771,1183.8500059000216,1184.415182000026,"[86, 0, 168]",168,l,0.04177229991182685,colour,0.06
164,19,1,2,16,22,772,1184.9280543001369,1185.5911464001983,"[67, 0, 187]",187,a,0.13979410007596016,colour,0.06
164,19,1,2,16,23,773,1186.1006499002688,1186.7271715002134,"[54, 0, 200]",200,a,0.10336059983819723,colour,0.06
164,19,1,2,16,24,774,1187.2411500001326,1187.8231632001698,"[84, 0, 170]",170,l,0.058804300148040056,colour,0.06
164,19,1,2,16,25,775,1188.328593400307,1188.9751352001913,"[7, 0, 247]",247,a,0.12335090013220906,colour,0.06
164,19,1,2,16,26,776,1189.4846671000123,1190.0711302002892,"[85, 0, 169]",169,l,0.06344980001449585,colour,0.06
164,19,1,2,16,27,777,1190.5699025001377,1191.7911271001212,"[60, 0, 194]",194,a,0.6978989001363516,colour,0.06
164,19,1,2,16,28,778,1192.3041294002905,1193.07916510012,"[53, 0, 201]",201,a,0.2517467001453042,colour,0.06
164,19,1,2,16,29,779,1193.5852830000222,1194.2152209002525,"[73, 0, 181]",181,l,0.10667910007759929,colour,0.06
164,19,1,2,16,30,780,1194.7258979002945,1195.3432281999849,"[59, 0, 195]",195,a,0.09411209961399436,colour,0.06
164,19,1,2,16,31,781,1195.8507765000686,1196.5191691000946,"[72, 0, 182]",182,l,0.14587019989266992,colour,0.06
164,19,1,2,16,32,782,1197.0382652003318,1197.663150000386,"[66, 0, 188]",188,l,0.10170590039342642,colour,0.06
164,19,1,2,16,33,783,1198.1663728002459,1198.8391622002237,"[91, 0, 163]",163,l,0.149554000236094,colour,0.06
164,19,1,2,16,34,784,1199.353646100033,1199.9511550003663,"[98, 0, 156]",156,l,0.07370950002223253,colour,0.06
164,19,1,2,16,35,785,1200.4630231000483,1201.0631060004234,"[61, 0, 193]",193,a,0.07685650000348687,colour,0.06
164,19,1,2,16,36,786,1201.5722841001116,1202.271159000229,"[50, 0, 204]",204,a,0.17565069999545813,colour,0.06
164,19,1,2,16,37,787,1202.790969800204,1204.4952301001176,"[83, 0, 171]",171,a,1.181030800100416,colour,0.06
164,19,1,2,16,38,788,1205.001664900221,1212.9831536002457,"[87, 0, 167]",167,l,7.45660990010947,colour,0.06
164,19,1,2,16,39,789,1213.5045151002705,1214.2791097001173,"[78, 0, 176]",176,l,0.25132180005311966,colour,0.06
164,19,1,2,16,40,790,1214.7858695001341,1215.5671799001284,"[62, 0, 192]",192,a,0.2580371997319162,colour,0.06
164,19,1,2,16,41,791,1216.0853732000105,1216.8231420000084,"[76, 0, 178]",178,l,0.2146564000286162,colour,0.06
164,19,1,2,16,42,792,1217.3351398003288,1218.103147300426,"[57, 0, 197]",197,a,0.24462200002744794,colour,0.06
164,19,1,2,16,43,793,1218.6172464000992,1244.479190400336,"[55, 0, 199]",199,l,25.335533100180328,colour,0.06
164,19,1,2,16,44,794,1244.9932307000272,1246.319134300109,"[75, 0, 179]",179,l,0.802691699936986,colour,0.06
164,19,1,2,16,45,795,1246.8368119001389,1247.7511169002391,"[74, 0, 180]",180,l,0.3921580002643168,colour,0.06
164,19,1,2,16,46,796,1248.2606540000997,1249.047181500122,"[77, 0, 177]",177,l,0.26328569976612926,colour,0.06
164,19,1,2,16,47,797,1249.5573370000347,1250.6071393000893,"[52, 0, 202]",202,a,0.5265428000129759,colour,0.06
164,19,1,2,16,48,798,1251.1198148000985,1251.9430513000116,"[82, 0, 172]",172,l,0.2958933999761939,colour,0.06
164,19,1,2,16,49,799,1252.4525779001415,1253.2790801003575,"[80, 0, 174]",174,l,0.30387490009889007,colour,0.06
164,19,1,2,16,50,800,1253.795552200172,1254.5990880001336,"[90, 0, 164]",164,l,0.2802598001435399,colour,0.06
