id,age,condition,counterbalance,block,trialinblock,trial,tstart,tend,trialstim,trialintensity,response,RT,trialtype,colourfreq
133,21,1,2,Practice,1,NA,6.3015613704919815e-06,0.6431633860338479,"[49, 0, 205]",205,a,0.11876305588521063,colour,0.5
133,21,1,2,Practice,2,NA,1.1571204978972673,2.9472144064493477,"[16, 0, 238]",238,a,1.2667880761437118,colour,0.5
133,21,1,2,Practice,3,NA,3.453857405576855,4.251150817610323,"[56, 0, 198]",198,a,0.27390920417383313,colour,0.5
133,21,1,2,Practice,4,NA,4.766388716408983,5.763143819756806,"[81, 0, 173]",173,l,0.47354221856221557,colour,0.5
133,21,1,2,Practice,5,NA,6.282270553288981,7.027198605472222,"[48, 0, 206]",206,a,0.2217982690781355,colour,0.5
133,21,1,2,Practice,6,NA,7.547707737889141,8.52313805394806,"[97, 0, 157]",157,l,0.45220916043035686,colour,0.5
133,21,1,2,Practice,7,NA,9.031931451754645,10.067153486423194,"[27, 0, 227]",227,a,0.5118850884027779,colour,0.5
133,21,1,2,Practice,8,NA,10.578891670331359,11.435200136620551,"[21, 0, 233]",233,a,0.3329719139728695,colour,0.5
133,21,1,2,Practice,9,NA,11.953855042578653,12.827198132872581,"[65, 0, 189]",189,l,0.34999078419059515,colour,0.5
133,21,1,2,Practice,10,NA,13.344452128745615,14.219217396574095,"[94, 0, 160]",160,l,0.35138618014752865,colour,0.5
133,21,1,2,1,1,1,4.353037576191127,5.119973738444969,"[83, 0, 171]",171,l,0.24274929659441113,colour,0.5
133,21,1,2,1,2,2,5.635180129436776,6.583994338056073,"[69, 0, 185]",185,l,0.4257261729799211,colour,0.5
133,21,1,2,1,3,3,7.103875680128112,7.903929164400324,"[58, 0, 196]",196,a,0.2767697072122246,colour,0.5
133,21,1,2,1,4,4,8.416398326400667,9.199985900428146,"[50, 0, 204]",204,a,0.2709388183429837,colour,0.5
133,21,1,2,1,5,5,9.720227611484006,10.567986470647156,"[76, 0, 178]",178,l,0.3245408544316888,colour,0.5
133,21,1,2,1,6,6,11.067042815731838,11.824015070218593,"[48, 0, 206]",206,a,0.23375464347191155,colour,0.5
133,21,1,2,1,7,7,12.332668652758002,13.128016466042027,"[82, 0, 172]",172,l,0.2720124423503876,colour,0.5
133,21,1,2,1,8,8,13.645196025026962,14.431942243361846,"[43, 0, 211]",211,a,0.2634864659048617,colour,0.5
133,21,1,2,1,9,9,14.942058963468298,15.735941669903696,"[41, 0, 213]",213,a,0.27060956321656704,colour,0.5
133,21,1,2,1,10,10,16.25452804658562,17.088006446603686,"[0, 0, 254]",254,a,0.31019265367649496,colour,0.5
133,21,1,2,1,11,11,17.59826416359283,18.423977497266605,"[47, 0, 207]",207,a,0.30267177196219563,colour,0.5
133,21,1,2,1,12,12,18.941998705035076,19.759989901911467,"[67, 0, 187]",187,l,0.2947058444842696,colour,0.5
133,21,1,2,1,13,13,20.27017357572913,21.111984574003145,"[80, 0, 174]",174,l,0.3183310858439654,colour,0.5
133,21,1,2,1,14,14,21.629703307989985,22.415944615844637,"[53, 0, 201]",201,a,0.2635518442839384,colour,0.5
133,21,1,2,1,15,15,22.926589877344668,23.743946194415912,"[57, 0, 197]",197,a,0.2940563925076276,colour,0.5
133,21,1,2,1,16,16,24.254657621961087,25.08798832958564,"[60, 0, 194]",194,a,0.3099894290789962,colour,0.5
133,21,1,2,1,17,17,25.598472114186734,26.383951724041253,"[54, 0, 200]",200,a,0.26248412812128663,colour,0.5
133,21,1,2,1,18,18,26.89531299727969,27.720008239382878,"[13, 0, 241]",241,a,0.3013669603969902,colour,0.5
133,21,1,2,1,19,19,28.239005003590137,29.031941298162565,"[35, 0, 219]",219,a,0.2702834587544203,colour,0.5
133,21,1,2,1,20,20,29.551561126485467,30.375970830209553,"[90, 0, 164]",164,l,0.30120233283378184,colour,0.5
133,21,1,2,1,21,21,30.895331114297733,31.671954310731962,"[79, 0, 175]",175,l,0.2594452127814293,colour,0.5
133,21,1,2,1,22,22,32.186975594144315,32.983953535789624,"[1, 0, 253]",253,a,0.27363745076581836,colour,0.5
133,21,1,2,1,23,23,33.49945019115694,34.263938994845375,"[33, 0, 221]",221,a,0.2410632420796901,colour,0.5
133,21,1,2,1,24,24,34.78068729280494,35.60799294547178,"[23, 0, 231]",231,a,0.30400966643355787,colour,0.5
133,21,1,2,1,25,25,36.124409231124446,36.911998673575,"[6, 0, 248]",248,a,0.2641674254555255,colour,0.5
133,21,1,2,1,26,26,37.42253523343243,38.2799602530431,"[21, 0, 233]",233,a,0.3318841115105897,colour,0.5
133,21,1,2,1,27,27,38.799662789097056,39.631930506788194,"[8, 0, 246]",246,a,0.30905601428821683,colour,0.5
133,21,1,2,1,28,28,40.143369367579,41.00799310300499,"[36, 0, 218]",218,a,0.34229542850516737,colour,0.5
133,21,1,2,1,29,29,41.518157872371376,42.68792633828707,"[51, 0, 203]",203,l,0.6464413658250123,colour,0.5
133,21,1,2,1,30,30,43.205903829075396,43.999940529232845,"[29, 0, 225]",225,a,0.2706615508068353,colour,0.5
133,21,1,2,1,31,31,44.519075533375144,45.29596418212168,"[59, 0, 195]",195,l,0.2535387056414038,colour,0.5
133,21,1,2,1,32,32,45.815856158034876,46.47997057181783,"[73, 0, 181]",181,l,0.1410917565226555,colour,0.5
133,21,1,2,1,33,33,46.98765332438052,47.776013523107395,"[55, 0, 199]",199,l,0.2653773201163858,colour,0.5
133,21,1,2,1,34,34,48.28469625022262,49.103939483175054,"[87, 0, 167]",167,l,0.2962245140224695,colour,0.5
133,21,1,2,1,35,35,49.61283016111702,50.399983222130686,"[4, 0, 250]",250,a,0.2637987856287509,colour,0.5
133,21,1,2,1,36,36,50.90975611493923,51.727992677595466,"[99, 0, 155]",155,l,0.2949390010908246,colour,0.5
133,21,1,2,1,37,37,52.23796170554124,53.079958599060774,"[93, 0, 161]",161,l,0.3187391101382673,colour,0.5
133,21,1,2,1,38,38,53.597303573274985,54.335988380014896,"[22, 0, 232]",232,a,0.2158153555355966,colour,0.5
133,21,1,2,1,39,39,54.84729569638148,55.59193427185528,"[64, 0, 190]",190,l,0.22133786301128566,colour,0.5
133,21,1,2,1,40,40,56.1127466657199,56.767942832550034,"[39, 0, 215]",215,a,0.1317713928874582,colour,0.5
133,21,1,2,1,41,41,57.285374846775085,58.07196982833557,"[72, 0, 182]",182,l,0.26327142608352005,colour,0.5
133,21,1,2,1,42,42,58.582185009960085,59.37594995647669,"[42, 0, 212]",212,a,0.2703764063771814,colour,0.5
133,21,1,2,1,43,43,59.89471710845828,60.69597379188053,"[18, 0, 236]",236,a,0.28722001472488046,colour,0.5
133,21,1,2,1,44,44,61.213579492410645,62.104019827907905,"[30, 0, 224]",224,a,0.3671601030509919,colour,0.5
133,21,1,2,1,45,45,62.619842981453985,63.471916816663,"[44, 0, 210]",210,a,0.3288857627194375,colour,0.5
133,21,1,2,1,46,46,63.97911395691335,64.77594617544673,"[70, 0, 184]",184,l,0.27352008456364274,colour,0.5
133,21,1,2,1,47,47,65.29163975385018,66.02393362275325,"[32, 0, 222]",222,a,0.2090191503521055,colour,0.5
133,21,1,2,1,48,48,66.5424057841301,67.3599669013638,"[27, 0, 227]",227,a,0.29414815874770284,colour,0.5
133,21,1,2,1,49,49,67.87054205802269,68.72791587770917,"[20, 0, 234]",234,a,0.3340723195578903,colour,0.5
133,21,1,2,1,50,50,69.24557829182595,70.06392631307244,"[92, 0, 162]",162,l,0.29503391799516976,colour,0.5
133,21,1,2,2,1,51,77.33844007086009,77.89593921229243,"[99, 0, 155]",155,l,0.03324492811225355,colour,0.5
133,21,1,2,2,2,52,78.41742587042972,79.1759002530016,"[56, 0, 198]",198,a,0.2353138793259859,colour,0.5
133,21,1,2,2,3,53,79.683608999243,80.52793549117632,"[31, 0, 223]",223,a,0.3200025677215308,colour,0.5
133,21,1,2,2,4,54,81.04427379532717,81.83199163153768,"[8, 0, 246]",246,a,0.26514455722644925,colour,0.5
133,21,1,2,2,5,55,82.34097683243454,83.1359485227149,"[14, 0, 240]",240,a,0.27161308261565864,colour,0.5
133,21,1,2,2,6,56,83.65370900463313,84.53599357884377,"[44, 0, 210]",210,a,0.35905829863622785,colour,0.5
133,21,1,2,2,7,57,85.04486574581824,85.8959199138917,"[98, 0, 156]",156,l,0.3277743295766413,colour,0.5
133,21,1,2,2,8,58,86.40433915820904,87.92791516869329,"[77, 0, 177]",177,l,1.0003107443917543,colour,0.5
133,21,1,2,2,9,59,88.43554002582096,90.01596296904609,"[90, 0, 164]",164,l,1.0571911537554115,colour,0.5
133,21,1,2,2,10,60,90.52925172424875,91.29591613286175,"[34, 0, 220]",220,a,0.2422290260437876,colour,0.5
133,21,1,2,2,11,61,91.8115975020919,93.38395290542394,"[67, 0, 187]",187,l,1.049077927833423,colour,0.5
133,21,1,2,2,12,62,93.9053355883807,94.71193676092662,"[51, 0, 203]",203,a,0.2833418140653521,colour,0.5
133,21,1,2,2,13,63,95.21781294210814,96.0159097998403,"[47, 0, 207]",207,a,0.2867403104901314,colour,0.5
133,21,1,2,2,14,64,96.53382309386507,97.30394428828731,"[19, 0, 235]",235,a,0.24683072208426893,colour,0.5
133,21,1,2,2,15,65,97.8151996168308,98.6479226204101,"[28, 0, 226]",226,a,0.3095428079832345,colour,0.5
133,21,1,2,2,16,66,99.15888256463222,99.91191320912912,"[32, 0, 222]",222,a,0.22988353203982115,colour,0.5
133,21,1,2,2,17,67,100.42431896179914,101.19993903278373,"[54, 0, 200]",200,l,0.25220159883610904,colour,0.5
133,21,1,2,2,18,68,101.72128902631812,102.53592386795208,"[70, 0, 184]",184,l,0.29138060309924185,colour,0.5
133,21,1,2,2,19,69,103.0494343584869,103.79996132431552,"[23, 0, 231]",231,a,0.2272168011404574,colour,0.5
133,21,1,2,2,20,70,104.31513778306544,105.14397155819461,"[61, 0, 193]",193,l,0.3055992287117988,colour,0.5
133,21,1,2,2,21,71,105.65878489078023,106.38393400097266,"[24, 0, 230]",230,a,0.20183343160897493,colour,0.5
133,21,1,2,2,22,72,106.89370531821623,107.64794428180903,"[26, 0, 228]",228,a,0.23084057727828622,colour,0.5
133,21,1,2,2,23,73,108.15943788737059,108.91189981834032,"[17, 0, 237]",237,a,0.22920651081949472,colour,0.5
133,21,1,2,2,24,74,109.42502237041481,110.18392801447771,"[12, 0, 242]",242,a,0.23563407617621124,colour,0.5
133,21,1,2,2,25,75,110.69057652750053,111.43191703711636,"[80, 0, 174]",174,l,0.21794724348001182,colour,0.5
133,21,1,2,2,26,76,111.94055762281641,112.56791045842692,"[18, 0, 236]",236,a,0.10387213551439345,colour,0.5
133,21,1,2,2,27,77,113.07133613014594,113.82394693489186,"[16, 0, 238]",238,a,0.22924156300723553,colour,0.5
133,21,1,2,2,28,78,114.3369308533147,115.1038776494097,"[33, 0, 221]",221,a,0.24367444054223597,colour,0.5
133,21,1,2,2,29,79,115.61820418876596,116.37589836260304,"[76, 0, 178]",178,l,0.2346155906561762,colour,0.5
133,21,1,2,2,30,80,116.88381624105386,117.63990273582749,"[35, 0, 219]",219,a,0.23185433680191636,colour,0.5
133,21,1,2,2,31,81,118.15057596028782,118.84793727146462,"[6, 0, 248]",248,a,0.1740865926258266,colour,0.5
133,21,1,2,2,32,82,119.36927466187626,120.11988630471751,"[53, 0, 201]",201,l,0.22726051812060177,colour,0.5
133,21,1,2,2,33,83,120.63694101455621,121.3039399557747,"[79, 0, 175]",175,l,0.1436454534996301,colour,0.5
133,21,1,2,2,34,84,121.8244030084461,122.56789431069046,"[22, 0, 232]",232,a,0.2200870083179325,colour,0.5
133,21,1,2,2,35,85,123.0744675991591,123.83994928840548,"[30, 0, 224]",224,a,0.24222941999323666,colour,0.5
133,21,1,2,2,36,86,124.35572399920784,125.15989396092482,"[13, 0, 241]",241,a,0.2808117480017245,colour,0.5
133,21,1,2,2,37,87,125.66814424539916,126.46391465514898,"[85, 0, 169]",169,l,0.2726154203992337,colour,0.5
133,21,1,2,2,38,88,126.98070194385946,127.77590600331314,"[97, 0, 157]",157,l,0.27183718094602227,colour,0.5
133,21,1,2,2,39,89,128.29328839294612,129.03188970428891,"[43, 0, 211]",211,a,0.21605087537318468,colour,0.5
133,21,1,2,2,40,90,129.5433238390833,130.27995513309725,"[84, 0, 170]",170,l,0.2133238862734288,colour,0.5
133,21,1,2,2,41,91,130.79321986366995,131.543900429504,"[11, 0, 243]",243,a,0.22750233951956034,colour,0.5
133,21,1,2,2,42,92,132.05883112829179,132.72788043157198,"[42, 0, 212]",212,a,0.14566824631765485,colour,0.5
133,21,1,2,2,43,93,133.2462801253423,133.99190410319716,"[92, 0, 162]",162,l,0.22214682260528207,colour,0.5
133,21,1,2,2,44,94,134.51194377150387,135.2959043176379,"[75, 0, 179]",179,l,0.26057358155958354,colour,0.5
133,21,1,2,2,45,95,135.80890871607699,136.43186544347554,"[82, 0, 172]",172,l,0.09975487040355802,colour,0.5
133,21,1,2,2,46,96,136.94947783905081,137.54390239878558,"[95, 0, 159]",159,l,0.07105571194551885,colour,0.5
133,21,1,2,2,47,97,138.0587499961257,139.42389597115107,"[58, 0, 196]",196,l,0.8417913056910038,colour,0.5
133,21,1,2,2,48,98,139.93392131919973,140.6879389414098,"[55, 0, 199]",199,a,0.23076574690639973,colour,0.5
133,21,1,2,2,49,99,141.19945066375658,141.85587720526382,"[63, 0, 191]",191,l,0.13299979851581156,colour,0.5
133,21,1,2,2,50,100,142.37133408221416,143.3118621665053,"[78, 0, 176]",176,l,0.41715569188818336,colour,0.5
133,21,1,2,3,1,101,149.86757561052218,150.62386690545827,"[63, 0, 191]",191,l,0.2324175366666168,colour,0.5
133,21,1,2,3,2,102,151.1340592438355,152.13590992591344,"[33, 0, 221]",221,a,0.4788449602201581,colour,0.5
133,21,1,2,3,3,103,152.64956456399523,153.3998556160368,"[55, 0, 199]",199,l,0.22699821647256613,colour,0.5
133,21,1,2,3,4,104,153.91522427159362,154.6878487507347,"[87, 0, 167]",167,l,0.24930683127604425,colour,0.5
133,21,1,2,3,5,105,155.19649485009722,155.89589746459387,"[65, 0, 189]",189,l,0.1760920558590442,colour,0.5
133,21,1,2,3,6,106,156.4152195455972,157.16010309313424,"[77, 0, 177]",177,l,0.22155250911600888,colour,0.5
133,21,1,2,3,7,107,157.68079536408186,158.39988948684186,"[93, 0, 161]",161,l,0.19604310882277787,colour,0.5
133,21,1,2,3,8,108,158.91523136082105,159.6558802772779,"[98, 0, 156]",156,l,0.2267552139237523,colour,0.5
133,21,1,2,3,9,109,160.17131628049538,160.9598950636573,"[85, 0, 169]",169,l,0.26522056944668293,colour,0.5
133,21,1,2,3,10,110,161.46823081257753,162.23187836143188,"[58, 0, 196]",196,a,0.24063158687204123,colour,0.5
133,21,1,2,3,11,111,162.74943916336633,163.5198919759132,"[61, 0, 193]",193,a,0.2470528509002179,colour,0.5
133,21,1,2,3,12,112,164.03067272040062,164.80787487048656,"[10, 0, 244]",244,a,0.25388765311799943,colour,0.5
133,21,1,2,3,13,113,165.32752896356396,166.13587802438997,"[60, 0, 194]",194,l,0.28493925323709846,colour,0.5
133,21,1,2,3,14,114,166.65567193273455,167.3998741270043,"[17, 0, 237]",237,a,0.22086327895522118,colour,0.5
133,21,1,2,3,15,115,167.92131943115965,168.7038577995263,"[5, 0, 249]",249,a,0.25921087455935776,colour,0.5
133,21,1,2,3,16,116,169.21815440664068,169.9999232001137,"[12, 0, 242]",242,a,0.25874849944375455,colour,0.5
133,21,1,2,3,17,117,170.51504924660549,171.27986651775427,"[39, 0, 215]",215,a,0.24143700185231864,colour,0.5
133,21,1,2,3,18,118,171.79628713568673,172.5598649738822,"[78, 0, 176]",176,l,0.24020150722935796,colour,0.5
133,21,1,2,3,19,119,173.0775451110676,173.82389258407056,"[13, 0, 241]",241,a,0.22302352357655764,colour,0.5
133,21,1,2,3,20,120,174.34314771112986,175.10386819718406,"[96, 0, 158]",158,l,0.2373949612956494,colour,0.5
133,21,1,2,3,21,121,175.62437220965512,176.37583062099293,"[88, 0, 166]",166,l,0.22803915129043162,colour,0.5
133,21,1,2,3,22,122,176.88999922806397,177.551844695583,"[35, 0, 219]",219,a,0.1384608659427613,colour,0.5
133,21,1,2,3,23,123,178.06188146513887,178.82387919328175,"[15, 0, 239]",239,a,0.23870174190960824,colour,0.5
133,21,1,2,3,24,124,179.3432635019999,180.11185027239844,"[9, 0, 245]",245,a,0.24534946726635098,colour,0.5
133,21,1,2,3,25,125,180.62441277573816,181.29586178227328,"[92, 0, 162]",162,l,0.14797066967003047,colour,0.5
133,21,1,2,3,26,126,181.81197401881218,182.61590806697495,"[26, 0, 228]",228,a,0.28060616040602326,colour,0.5
133,21,1,2,3,27,127,183.12473376025446,183.85586420819163,"[79, 0, 175]",175,l,0.20804201858118176,colour,0.5
133,21,1,2,3,28,128,184.37467704643495,185.19987798668444,"[62, 0, 192]",192,l,0.3019116495270282,colour,0.5
133,21,1,2,3,29,129,185.71840568026528,186.48784630885348,"[66, 0, 188]",188,l,0.2462549190968275,colour,0.5
133,21,1,2,3,30,130,186.9996608986985,187.7438760898076,"[27, 0, 227]",227,a,0.22090187552385032,colour,0.5
133,21,1,2,3,31,131,188.24969161860645,189.00786273996346,"[81, 0, 173]",173,l,0.23488852567970753,colour,0.5
133,21,1,2,3,32,132,189.5153371479828,190.24788307817653,"[1, 0, 253]",253,a,0.20928696542978287,colour,0.5
133,21,1,2,3,33,133,190.75287546915933,191.52784569445066,"[6, 0, 248]",248,a,0.25174788828007877,colour,0.5
133,21,1,2,3,34,134,192.03417519223876,192.8958600491751,"[37, 0, 217]",217,a,0.3386176952626556,colour,0.5
133,21,1,2,3,35,135,193.40913620148785,194.19186952360906,"[18, 0, 236]",236,a,0.2594534836243838,colour,0.5
133,21,1,2,3,36,136,194.70612320140935,195.4718270197045,"[32, 0, 222]",222,a,0.24255709978751838,colour,0.5
133,21,1,2,3,37,137,195.9872354536783,196.6638836201746,"[40, 0, 214]",214,a,0.15335257397964597,colour,0.5
133,21,1,2,3,38,138,197.17471713991836,197.92783443047665,"[68, 0, 186]",186,l,0.229895347263664,colour,0.5
133,21,1,2,3,39,139,198.44039772148244,199.2078809356317,"[59, 0, 195]",195,l,0.24423015723004937,colour,0.5
133,21,1,2,3,40,140,199.7215824413579,200.47988943965174,"[43, 0, 211]",211,l,0.23511301795952022,colour,0.5
133,21,1,2,3,41,141,200.98718307213858,201.73592552216724,"[4, 0, 250]",250,a,0.22541968221776187,colour,0.5
133,21,1,2,3,42,142,202.25279276142828,203.11988354776986,"[31, 0, 223]",223,l,0.34374990151263773,colour,0.5
133,21,1,2,3,43,143,203.61541221500374,204.28782259928994,"[90, 0, 164]",164,l,0.14905729051679373,colour,0.5
133,21,1,2,3,44,144,204.80296124867164,205.5519337048754,"[23, 0, 231]",231,a,0.22567883296869695,colour,0.5
133,21,1,2,3,45,145,206.068518162705,206.83990123914555,"[7, 0, 247]",247,a,0.24824541620910168,colour,0.5
133,21,1,2,3,46,146,207.34971942426637,208.15183075354435,"[50, 0, 204]",204,l,0.27885315218009055,colour,0.5
133,21,1,2,3,47,147,208.66222355957143,209.39984143758193,"[83, 0, 171]",171,l,0.21427620551548898,colour,0.5
133,21,1,2,3,48,148,209.91226373193786,210.6398649266921,"[36, 0, 218]",218,a,0.20432411320507526,colour,0.5
133,21,1,2,3,49,149,211.14656424568966,211.76782625424676,"[22, 0, 232]",232,a,0.09799359133467078,colour,0.5
133,21,1,2,3,50,150,212.28718496276997,212.9438848332502,"[95, 0, 159]",159,l,0.13332196441479027,colour,0.5
133,21,1,2,4,1,151,221.7458764333278,223.03185228887014,"[2, 0, 252]",252,a,0.7619575560092926,colour,0.5
133,21,1,2,4,2,152,223.54584051459096,224.3439149230253,"[85, 0, 169]",169,l,0.2747717269230634,colour,0.5
133,21,1,2,4,3,153,224.85833795461804,227.15187210729346,"[35, 0, 219]",219,l,1.770359864924103,colour,0.5
133,21,1,2,4,4,154,227.67082160990685,228.4958433501888,"[72, 0, 182]",182,l,0.30173166166059673,colour,0.5
133,21,1,2,4,5,155,229.0145281883888,229.75982330506667,"[21, 0, 233]",233,a,0.2220259120222181,colour,0.5
133,21,1,2,4,6,156,230.2813391077798,231.0958510695491,"[52, 0, 202]",202,a,0.2912112495396286,colour,0.5
133,21,1,2,4,7,157,231.6094604153186,232.27986257942393,"[98, 0, 156]",156,l,0.1470833346247673,colour,0.5
133,21,1,2,4,8,158,232.79698187997565,233.4318292096723,"[57, 0, 197]",197,a,0.11147848190739751,colour,0.5
133,21,1,2,4,9,159,233.95324891386554,234.49586146720685,"[33, 0, 221]",221,a,0.017519842134788632,colour,0.5
133,21,1,2,4,10,160,235.00371908699162,236.78381836786866,"[74, 0, 180]",180,l,1.2555595291778445,colour,0.5
133,21,1,2,4,11,161,237.30186517559923,238.0798113006167,"[56, 0, 198]",198,l,0.25477301864884794,colour,0.5
133,21,1,2,4,12,162,238.59874032321386,239.6318426791113,"[14, 0, 240]",240,a,0.5102821355685592,colour,0.5
133,21,1,2,4,13,163,240.1432236446999,240.73584754066542,"[80, 0, 174]",174,l,0.06930034048855305,colour,0.5
133,21,1,2,4,14,164,241.2526171063073,241.8878500110004,"[92, 0, 162]",162,l,0.11190265393815935,colour,0.5
133,21,1,2,4,15,165,242.40896802931093,243.01584560307674,"[45, 0, 209]",209,a,0.0836906828917563,colour,0.5
133,21,1,2,4,16,166,243.53388847224414,244.18385751615278,"[69, 0, 185]",185,l,0.12688691588118672,colour,0.5
133,21,1,2,4,17,167,244.69010982010514,245.3278208032716,"[90, 0, 164]",164,l,0.11430629552341998,colour,0.5
133,21,1,2,4,18,168,245.84634849708527,246.5118295561988,"[93, 0, 161]",161,l,0.1421878298278898,colour,0.5
133,21,1,2,4,19,169,247.0182279769797,247.74381307442673,"[18, 0, 236]",236,a,0.21473188535310328,colour,0.5
133,21,1,2,4,20,170,248.2557438488584,248.96782593918033,"[23, 0, 231]",231,a,0.18881485471501946,colour,0.5
133,21,1,2,4,21,171,249.47443034127355,250.1518248456996,"[49, 0, 205]",205,a,0.15404101670719683,colour,0.5
133,21,1,2,4,22,172,250.66190927056596,251.35984402126633,"[97, 0, 157]",157,l,0.17460134904831648,colour,0.5
133,21,1,2,4,23,173,251.88070485834032,252.5997977994848,"[13, 0, 241]",241,a,0.1961344808805734,colour,0.5
133,21,1,2,4,24,174,253.11503372900188,253.8238071196247,"[95, 0, 159]",159,l,0.1855160011909902,colour,0.5
133,21,1,2,4,25,175,254.32133613014594,255.07184222224168,"[5, 0, 249]",249,a,0.22724240110255778,colour,0.5
133,21,1,2,4,26,176,255.5870210439898,256.1998208789155,"[67, 0, 187]",187,l,0.08982640854083002,colour,0.5
133,21,1,2,4,27,177,256.71198914246634,257.34378416626714,"[3, 0, 251]",251,a,0.10854472359642386,colour,0.5
133,21,1,2,4,28,178,257.85262758261524,258.5837922950741,"[8, 0, 246]",246,a,0.20789865870028734,colour,0.5
133,21,1,2,4,29,179,259.1025842593517,259.7838085216936,"[59, 0, 195]",195,l,0.1579361530020833,colour,0.5
133,21,1,2,4,30,180,260.290045859525,260.839870125521,"[9, 0, 245]",245,a,0.026424304582178593,colour,0.5
133,21,1,2,4,31,181,261.35257913940586,262.06379279936664,"[46, 0, 208]",208,l,0.18784323683939874,colour,0.5
133,21,1,2,4,32,182,262.571240819525,263.22378561552614,"[26, 0, 228]",228,a,0.12918146210722625,colour,0.5
133,21,1,2,4,33,183,263.7431510195602,264.43983570323326,"[62, 0, 192]",192,l,0.17355490056797862,colour,0.5
133,21,1,2,4,34,184,264.94628650555387,265.5118429469876,"[68, 0, 186]",186,l,0.0424932180903852,colour,0.5
133,21,1,2,4,35,185,266.0119217161555,266.7038062058855,"[99, 0, 155]",155,l,0.1685057959984988,colour,0.5
133,21,1,2,4,36,186,267.2150717745535,267.81581795495003,"[6, 0, 248]",248,a,0.07738245278596878,colour,0.5
133,21,1,2,4,37,187,268.3127042092383,269.50384039152414,"[63, 0, 191]",191,l,0.6678071131464094,colour,0.5
133,21,1,2,4,38,188,270.0158054307103,270.903836610727,"[43, 0, 211]",211,a,0.37480504624545574,colour,0.5
133,21,1,2,4,39,189,271.4119695289992,272.19181084050797,"[47, 0, 207]",207,l,0.2565008206292987,colour,0.5
133,21,1,2,4,40,190,272.7088230152149,273.3038143189624,"[88, 0, 166]",166,l,0.0717177668120712,colour,0.5
133,21,1,2,4,41,191,273.81817669817246,274.3438034646679,"[20, 0, 234]",234,a,0.00249658920802176,colour,0.5
133,21,1,2,4,42,192,274.86510698427446,276.7278520746622,"[84, 0, 170]",170,l,1.3394833686761558,colour,0.5
133,21,1,2,4,43,193,277.24013337213546,277.99982158793136,"[16, 0, 238]",238,a,0.2361409559380263,colour,0.5
133,21,1,2,4,44,194,278.5057147042826,279.48777265963145,"[89, 0, 165]",165,l,0.45877929823473096,colour,0.5
133,21,1,2,4,45,195,280.00565168913454,280.8158671858255,"[76, 0, 178]",178,l,0.2867859967518598,colour,0.5
133,21,1,2,4,46,196,281.33379071974196,282.27983185928315,"[77, 0, 177]",177,l,0.4229385314974934,colour,0.5
133,21,1,2,4,47,197,282.78695062431507,283.6558424679097,"[44, 0, 210]",210,a,0.34553126664832234,colour,0.5
133,21,1,2,4,48,198,284.17755676899105,284.90389135526493,"[1, 0, 253]",253,a,0.20299685234203935,colour,0.5
133,21,1,2,4,49,199,285.4118907598313,286.18377480842173,"[11, 0, 243]",243,a,0.2484809362795204,colour,0.5
133,21,1,2,4,50,200,286.69314873521216,287.41580913285725,"[29, 0, 225]",225,a,0.19943333440460265,colour,0.5
133,21,1,2,5,1,201,298.55171236325987,299.36781073664315,"[14, 0, 240]",240,a,0.2919938212726265,colour,0.4
133,21,1,2,5,2,202,299.8805567722302,300.6717888955027,"[33, 0, 221]",221,a,0.2678388571366668,colour,0.4
133,21,1,2,5,3,203,301.193113289075,301.96778655447997,"[71, 0, 183]",183,l,0.2513631007168442,colour,0.4
133,21,1,2,5,4,204,302.46510013146326,303.25579859362915,"[98, 0, 156]",156,l,0.2673875098116696,colour,0.4
133,21,1,2,5,5,205,303.7775353437755,304.55181791400537,"[74, 0, 180]",180,l,0.250882608583197,colour,0.4
133,21,1,2,5,6,206,305.0587653561961,305.8318218840286,"[94, 0, 160]",160,l,0.24970816005952656,colour,0.4
133,21,1,2,5,7,207,306.3400260885246,307.0238048352767,"[84, 0, 170]",170,l,0.16042919759638608,colour,0.4
133,21,1,2,5,8,208,307.5431359745562,308.30377926677465,"[70, 0, 184]",184,l,0.2372326967306435,colour,0.4
133,21,1,2,5,9,209,308.8243143931031,310.27983501018025,"[68, 0, 186]",186,l,0.9320678801741451,colour,0.4
133,21,1,2,5,10,210,310.7931536976248,311.5757688661106,"[23, 0, 231]",231,a,0.2592026039492339,colour,0.4
133,21,1,2,5,11,211,312.0907283157576,312.85580316209234,"[42, 0, 212]",212,a,0.242403106065467,colour,0.4
133,21,1,2,5,12,212,313.3712923345156,314.1197709077969,"[86, 0, 168]",168,l,0.22516131936572492,colour,0.4
133,21,1,2,5,13,213,314.63687366689555,315.41580480057746,"[40, 0, 214]",214,a,0.2556052152067423,colour,0.4
133,21,1,2,5,14,214,315.93380828527734,316.67177196010016,"[29, 0, 225]",225,a,0.21481656236574054,colour,0.4
133,21,1,2,5,15,215,317.1837677191943,318.0237831736449,"[56, 0, 198]",198,l,0.31680493289604783,colour,0.4
133,21,1,2,5,16,216,318.54306665761396,319.2877757316455,"[61, 0, 193]",193,l,0.22133038006722927,colour,0.4
133,21,1,2,5,17,217,319.80878622992896,320.519785243785,"[59, 0, 195]",195,l,0.18783417833037674,colour,0.4
133,21,1,2,5,18,218,321.03001066530123,321.72778433328494,"[27, 0, 227]",227,a,0.17441190942190588,colour,0.4
133,21,1,2,5,19,219,322.24877041298896,322.92778362426907,"[13, 0, 241]",241,a,0.15566956950351596,colour,0.4
133,21,1,2,5,20,220,323.4362599761225,323.9837763051037,"[10, 0, 244]",244,a,0.02418922889046371,colour,0.4
133,21,1,2,5,21,221,324.49868337321095,326.0718323760666,"[73, 0, 181]",181,l,1.0498569551855326,colour,0.4
133,21,1,2,5,22,222,326.592691243859,327.39184163929895,"[91, 0, 163]",163,l,0.27609583688899875,colour,0.4
133,21,1,2,5,23,223,327.90510518848896,328.6957875029184,"[72, 0, 182]",182,l,0.26724887592718005,colour,0.4
133,21,1,2,5,24,224,329.20202050847,329.8958509908989,"[28, 0, 226]",226,a,0.17041634256020188,colour,0.4
133,21,1,2,5,25,225,330.4051768684294,331.0157628953457,"[81, 0, 173]",173,l,0.08729516062885523,colour,0.4
133,21,1,2,5,26,226,331.53076763730496,332.17579942848533,"[79, 0, 175]",175,l,0.12233208771795034,colour,0.4
133,21,1,2,5,27,227,332.68640136695467,333.2957774992101,"[97, 0, 157]",157,l,0.08598995534703135,colour,0.4
133,21,1,2,5,28,228,333.81137261609547,334.35178199526854,"[9, 0, 245]",245,a,0.017078340519219637,colour,0.4
133,21,1,2,5,29,229,334.8600838733837,335.59181729960255,"[46, 0, 208]",208,a,0.20845161844044924,colour,0.4
133,21,1,2,5,30,230,336.11003424879164,336.75178766669706,"[1, 0, 253]",253,a,0.1184570377226919,colour,0.4
133,21,1,2,5,31,231,337.2662957687862,337.8957651325036,"[75, 0, 179]",179,l,0.10612572194077075,colour,0.4
133,21,1,2,5,32,232,338.40674358746037,338.9598525282927,"[19, 0, 235]",235,a,0.029628634685650468,colour,0.4
133,21,1,2,5,33,233,339.46938005508855,340.08779376978055,"[45, 0, 209]",209,a,0.09507283009588718,colour,0.4
133,21,1,2,5,34,234,340.59438202437013,341.6477623251267,"[87, 0, 167]",167,l,0.5302253114059567,colour,0.4
133,21,1,2,5,35,235,342.1568975811824,342.7917965045199,"[11, 0, 243]",243,a,0.11151904799044132,colour,0.4
133,21,1,2,5,36,236,343.3131744612474,344.30373712512664,"[92, 0, 162]",162,l,0.4672473792452365,colour,0.4
133,21,1,2,5,37,237,344.8131878520362,345.6077743610367,"[83, 0, 171]",171,l,0.27136299037374556,colour,0.4
133,21,1,2,5,38,238,346.12753124767914,346.87179488199763,"[50, 0, 204]",204,a,0.22095425729639828,colour,0.4
133,21,1,2,5,39,239,347.3932039523497,348.13581225206144,"[62, 0, 192]",192,l,0.21942219650372863,colour,0.4
133,21,1,2,5,40,240,348.64314211858436,349.4078006700147,"[58, 0, 196]",196,l,0.24132908834144473,colour,0.4
133,21,1,2,5,41,241,349.92428154638037,350.67976939538494,"[51, 0, 203]",203,l,0.2320461398921907,colour,0.4
133,21,1,2,5,42,242,351.19000584469177,351.97584739886224,"[20, 0, 234]",234,a,0.26248924783430994,colour,0.4
133,21,1,2,5,43,243,352.48689123243093,353.63979757903144,"[41, 0, 213]",213,a,0.6300987293943763,colour,0.4
133,21,1,2,5,44,244,354.1587395987008,354.94383520865813,"[67, 0, 187]",187,l,0.2619528297800571,colour,0.4
133,21,1,2,5,45,245,355.4561228074599,356.22379782469943,"[82, 0, 172]",172,l,0.24428884033113718,colour,0.4
133,21,1,2,5,46,246,356.7403428980615,357.5037986440584,"[60, 0, 194]",194,l,0.24017748283222318,colour,0.4
133,21,1,2,5,47,247,358.0215114704333,358.5517812864855,"[95, 0, 159]",159,l,0.006954137468710542,colour,0.4
133,21,1,2,5,48,248,359.0683870119974,359.79978251829743,"[90, 0, 164]",164,l,0.2082157046534121,colour,0.4
133,21,1,2,5,49,249,360.3186414365191,361.0158093692735,"[3, 0, 251]",251,a,0.17421065410599113,colour,0.4
133,21,1,2,5,50,250,361.52154297800735,362.1597580842208,"[0, 0, 254]",254,a,0.11491360608488321,colour,0.4
133,21,1,2,6,1,251,369.4114476831164,370.16776497173123,"[96, 0, 158]",158,l,0.23233561660163105,colour,0.28
133,21,1,2,6,2,252,370.67778244265355,371.3918132823892,"[21, 0, 233]",233,a,0.19080613949336112,colour,0.28
133,21,1,2,6,3,253,371.91218693205155,372.62374914530665,"[76, 0, 178]",178,l,0.1882705595344305,colour,0.28
133,21,1,2,6,4,254,373.1311156395823,373.7437595115043,"[75, 0, 179]",179,l,0.0895637134090066,colour,0.28
133,21,1,2,6,5,255,374.25591320265085,374.9037554785609,"[23, 0, 231]",231,a,0.12452817265875638,colour,0.28
133,21,1,2,6,6,256,375.4050311453175,376.1119774847757,"[8, 0, 246]",246,a,0.18443646957166493,colour,0.28
133,21,1,2,6,7,257,376.62380585912615,377.255739122862,"[72, 0, 182]",182,l,0.10861404053866863,colour,0.28
133,21,1,2,6,8,258,377.7572932387702,378.5117767807096,"[95, 0, 159]",159,l,0.23135494021698833,colour,0.28
133,21,1,2,6,9,259,379.0227536605671,379.7837289648596,"[87, 0, 167]",167,l,0.23751784139312804,colour,0.28
133,21,1,2,6,10,260,380.3040277834516,381.06376995611936,"[4, 0, 250]",250,a,0.236470211064443,colour,0.28
133,21,1,2,6,11,261,381.57072409358807,382.3277447910514,"[20, 0, 234]",234,a,0.2336782373022288,colour,0.28
133,21,1,2,6,12,262,382.8363389028236,383.599761959631,"[94, 0, 160]",160,a,0.2401180120650679,colour,0.28
133,21,1,2,6,13,263,384.1176157828886,384.8717637681402,"[78, 0, 176]",176,l,0.23089768504723907,colour,0.28
133,21,1,2,6,14,264,385.38324831519276,386.03980206884444,"[81, 0, 173]",173,l,0.13324477057904005,colour,0.28
133,21,1,2,6,15,265,386.5551210998092,387.2317775369156,"[36, 0, 218]",218,a,0.15338920173235238,colour,0.28
133,21,1,2,6,16,266,387.74258309369907,388.5037533517461,"[52, 0, 202]",202,a,0.2379506779834628,colour,0.28
133,21,1,2,6,17,267,389.023832798237,389.8157573028002,"[97, 0, 157]",157,l,0.26867774897255003,colour,0.28
133,21,1,2,6,18,268,390.336589389015,391.0957998696249,"[66, 0, 188]",188,l,0.23609960195608437,colour,0.28
133,21,1,2,6,19,269,391.60194780444726,392.2957522929646,"[86, 0, 168]",168,l,0.17074087145738304,colour,0.28
133,21,1,2,6,20,270,392.8050848660059,393.4717447059229,"[88, 0, 166]",166,l,0.1433299828786403,colour,0.28
133,21,1,2,6,21,271,393.99257600447163,394.76775851263665,"[60, 0, 194]",194,l,0.25188022037036717,colour,0.28
133,21,1,2,6,22,272,395.29242193186656,396.01576565229334,"[73, 0, 181]",181,l,0.20043606613762677,colour,0.28
133,21,1,2,6,23,273,396.51746824826114,397.2717970088124,"[2, 0, 252]",252,a,0.23119661421515048,colour,0.28
133,21,1,2,6,24,274,397.7830507620238,398.5118130145129,"[13, 0, 241]",241,a,0.20565216150134802,colour,0.28
133,21,1,2,6,25,275,399.03305036830716,399.68773374753073,"[79, 0, 175]",175,l,0.12954380037263036,colour,0.28
133,21,1,2,6,26,276,400.20695697306655,400.9277363626752,"[59, 0, 195]",195,l,0.19750979100354016,colour,0.28
133,21,1,2,6,27,277,401.4412078624591,402.14374745986424,"[15, 0, 239]",239,a,0.17898721736855805,colour,0.28
133,21,1,2,6,28,278,402.6599435855169,403.34377983398736,"[56, 0, 198]",198,l,0.16038744989782572,colour,0.28
133,21,1,2,6,29,279,403.8632377916947,404.4957330734469,"[77, 0, 177]",177,l,0.10910437861457467,colour,0.28
133,21,1,2,6,30,280,405.0061156395823,405.85576771595515,"[53, 0, 201]",201,l,0.32631473639048636,colour,0.28
133,21,1,2,6,31,281,406.3654449041933,407.1837243961636,"[51, 0, 203]",203,l,0.29545218241401017,colour,0.28
133,21,1,2,6,32,282,407.69355518417433,408.3197516880464,"[65, 0, 189]",189,l,0.10285325604490936,colour,0.28
133,21,1,2,6,33,283,408.83418299024925,409.58371391985565,"[84, 0, 170]",170,l,0.22633970621973276,colour,0.28
133,21,1,2,6,34,284,410.0998056763783,410.8558267930057,"[67, 0, 187]",187,l,0.2326963795349002,colour,0.28
133,21,1,2,6,35,285,411.365561876446,412.07977624842897,"[70, 0, 184]",184,l,0.19097903813235462,colour,0.28
133,21,1,2,6,36,286,412.5997556580696,413.1357271813322,"[50, 0, 204]",204,a,0.012926810653880239,colour,0.28
133,21,1,2,6,37,287,413.64666979643516,414.2637235610746,"[74, 0, 180]",180,l,0.0936671937815845,colour,0.28
133,21,1,2,6,38,288,414.77170169795863,415.3357548294589,"[68, 0, 186]",186,l,0.04074532981030643,colour,0.28
133,21,1,2,6,39,289,415.8497966181021,417.15974429948255,"[57, 0, 197]",197,a,0.7866765074431896,colour,0.28
133,21,1,2,6,40,290,417.6779084734153,418.4637472706381,"[63, 0, 191]",191,l,0.26247270638123155,colour,0.28
133,21,1,2,6,41,291,418.97473714733496,419.74381464975886,"[83, 0, 171]",171,l,0.24560349783860147,colour,0.28
133,21,1,2,6,42,292,420.25601442111656,421.0477191596292,"[44, 0, 210]",210,a,0.268308715429157,colour,0.28
133,21,1,2,6,43,293,421.56850437796675,422.1837566914037,"[46, 0, 208]",208,a,0.09005720214918256,colour,0.28
133,21,1,2,6,44,294,422.69530267850496,423.4077687684912,"[43, 0, 211]",211,a,0.18922642362304032,colour,0.28
133,21,1,2,6,45,295,423.9133401128929,424.63174539920874,"[98, 0, 156]",156,l,0.19135752390138805,colour,0.28
133,21,1,2,6,46,296,425.15156293823384,425.75972760049626,"[62, 0, 192]",192,l,0.08507308200933039,colour,0.28
133,21,1,2,6,47,297,426.27655663667247,426.94373320252635,"[58, 0, 196]",196,l,0.1437848750501871,colour,0.28
133,21,1,2,6,48,298,427.4640194182284,428.2237127539702,"[93, 0, 161]",161,l,0.23632882023230195,colour,0.28
133,21,1,2,6,49,299,428.7453278058674,429.5037127856631,"[11, 0, 243]",243,a,0.23505787970498204,colour,0.28
133,21,1,2,6,50,300,430.0110351690091,430.63972550514154,"[14, 0, 240]",240,a,0.10549556836485863,colour,0.28
133,21,1,2,7,1,301,439.8225728063844,440.5838092304766,"[15, 0, 239]",239,a,0.2360172881744802,colour,0.14
133,21,1,2,7,2,302,441.09005995909683,442.1757234162651,"[70, 0, 184]",184,l,0.5623186340089887,colour,0.14
133,21,1,2,7,3,303,442.68382837134413,443.4237364635337,"[19, 0, 235]",235,a,0.21670781029388309,colour,0.14
133,21,1,2,7,4,304,443.9337767777033,444.66371623566374,"[75, 0, 179]",179,l,0.20670176087878644,colour,0.14
133,21,1,2,7,5,305,445.1838779959362,445.8317108193878,"[59, 0, 195]",195,l,0.12469673855230212,colour,0.14
133,21,1,2,7,6,306,446.340008365456,447.0957364605274,"[26, 0, 228]",228,a,0.23233443521894515,colour,0.14
133,21,1,2,7,7,307,447.6056605898775,448.2877355592791,"[95, 0, 159]",159,l,0.1586978507693857,colour,0.14
133,21,1,2,7,8,308,448.8088090729434,449.447719710879,"[64, 0, 190]",190,l,0.11565403616987169,colour,0.14
133,21,1,2,7,9,309,449.9651493621059,450.5997186366003,"[56, 0, 198]",198,l,0.11127762054093182,colour,0.14
133,21,1,2,7,10,310,451.1057381776627,452.07171146548353,"[54, 0, 200]",200,a,0.4425823846831918,colour,0.14
133,21,1,2,7,11,311,452.5902048945427,453.2877024761401,"[69, 0, 185]",185,l,0.1744225430302322,colour,0.14
133,21,1,2,7,12,312,453.80890162684955,454.5277614113875,"[97, 0, 157]",157,l,0.19568077055737376,colour,0.14
133,21,1,2,7,13,313,455.0432190760039,455.7436779853888,"[60, 0, 194]",194,a,0.17707470152527094,colour,0.14
133,21,1,2,7,14,314,456.26205601752736,456.8637159205973,"[72, 0, 182]",182,l,0.07845647050999105,colour,0.14
133,21,1,2,7,15,315,457.37129075918347,458.12772777699865,"[61, 0, 193]",193,a,0.2330394193995744,colour,0.14
133,21,1,2,7,16,316,458.6369540113956,459.3436935816426,"[28, 0, 226]",226,a,0.1838307345751673,colour,0.14
133,21,1,2,7,17,317,459.85566098382697,460.51972695463337,"[91, 0, 163]",163,l,0.1406687661074102,colour,0.14
133,21,1,2,7,18,318,461.0276026914362,461.767706918763,"[94, 0, 160]",160,l,0.21686968114227057,colour,0.14
133,21,1,2,7,19,319,462.2775786668062,463.015712877037,"[86, 0, 168]",168,l,0.2148106547538191,colour,0.14
133,21,1,2,7,20,320,463.5299090531189,464.1837047038134,"[80, 0, 174]",174,l,0.13048784900456667,colour,0.14
133,21,1,2,7,21,321,464.7018101946451,465.58372967364267,"[82, 0, 172]",172,l,0.3588357756379992,colour,0.14
133,21,1,2,7,22,322,466.0923978285864,466.8557236052584,"[57, 0, 197]",197,a,0.2400494827888906,colour,0.14
133,21,1,2,7,23,323,467.37367037613876,467.9437072086148,"[76, 0, 178]",178,l,0.04678495693951845,colour,0.14
133,21,1,2,7,24,324,468.4517869576812,468.9837176220026,"[3, 0, 251]",251,a,0.008834357839077711,colour,0.14
133,21,1,2,7,25,325,469.49873811774887,470.15966434869915,"[6, 0, 248]",248,a,0.13771019550040364,colour,0.14
133,21,1,2,7,26,326,470.6705266193021,471.30372609756887,"[51, 0, 203]",203,a,0.10989955347031355,colour,0.14
133,21,1,2,7,27,327,471.8111441854853,472.50377028714865,"[66, 0, 188]",188,l,0.16934783849865198,colour,0.14
133,21,1,2,7,28,328,473.0142851853743,473.7437083115801,"[96, 0, 158]",158,l,0.20615470898337662,colour,0.14
133,21,1,2,7,29,329,474.26423989329487,474.8797135481145,"[74, 0, 180]",180,l,0.0922469855286181,colour,0.14
133,21,1,2,7,30,330,475.3892339854501,475.94369106111117,"[78, 0, 176]",176,l,0.031053175684064627,colour,0.14
133,21,1,2,7,31,331,476.45189447770827,477.1196862307843,"[53, 0, 201]",201,a,0.14491600054316223,colour,0.14
133,21,1,2,7,32,332,477.6392580100801,478.60769244097173,"[55, 0, 199]",199,a,0.4451605000067502,colour,0.14
133,21,1,2,7,33,333,479.12361011770554,479.7116543734446,"[88, 0, 166]",166,l,0.06475693406537175,colour,0.14
133,21,1,2,7,34,334,480.2330232716631,480.84763676696457,"[85, 0, 169]",169,l,0.09130096761509776,colour,0.14
133,21,1,2,7,35,335,481.35795789328404,481.97571191587485,"[98, 0, 156]",156,l,0.09443873795680702,colour,0.14
133,21,1,2,7,36,336,482.48298821924254,483.5357104034629,"[81, 0, 173]",173,l,0.5293966594617814,colour,0.14
133,21,1,2,7,37,337,484.0454773886595,484.7037045934703,"[79, 0, 175]",175,l,0.1348689910955727,colour,0.14
133,21,1,2,7,38,338,485.217973631341,485.88770704483613,"[93, 0, 161]",161,l,0.14528503408655524,colour,0.14
133,21,1,2,7,39,339,486.4066864796914,486.99169142660685,"[68, 0, 186]",186,l,0.061761341989040375,colour,0.14
133,21,1,2,7,40,340,487.5004430767149,488.08770830510184,"[84, 0, 170]",170,l,0.0641374143306166,colour,0.14
133,21,1,2,7,41,341,488.5958857280202,489.1996617652476,"[50, 0, 204]",204,a,0.0807297492865473,colour,0.14
133,21,1,2,7,42,342,489.70527643267997,490.56774622458033,"[65, 0, 189]",189,a,0.33983625448308885,colour,0.14
133,21,1,2,7,43,343,491.0802425618749,491.7676793495193,"[92, 0, 162]",162,l,0.16407187841832638,colour,0.14
133,21,1,2,7,44,344,492.2833276358433,493.25571746123023,"[71, 0, 183]",183,a,0.44900128548033535,colour,0.14
133,21,1,2,7,45,345,493.7566650544759,494.4956901441328,"[52, 0, 202]",202,a,0.21607883856631815,colour,0.14
133,21,1,2,7,46,346,495.00671782996505,495.7036986858584,"[58, 0, 196]",196,a,0.17373134358786047,colour,0.14
133,21,1,2,7,47,347,496.20972767914645,496.92771548894234,"[62, 0, 192]",192,a,0.19474617415107787,colour,0.14
133,21,1,2,7,48,348,497.4441298053134,498.19966806680895,"[83, 0, 171]",171,l,0.23221706901676953,colour,0.14
133,21,1,2,7,49,349,498.7096855377313,499.36771542578936,"[89, 0, 165]",165,l,0.1347453233320266,colour,0.14
133,21,1,2,7,50,350,499.8815937684849,500.52766570681706,"[49, 0, 205]",205,a,0.12270151521079242,colour,0.14
133,21,1,2,8,1,351,506.83383522438817,507.62365462235175,"[59, 0, 195]",195,a,0.26588026131503284,colour,0.06
133,21,1,2,8,2,352,508.13162448839284,508.7356825193856,"[87, 0, 167]",167,l,0.0808451462071389,colour,0.06
133,21,1,2,8,3,353,509.2565992823802,510.11967441556044,"[79, 0, 175]",175,l,0.3398086854722351,colour,0.06
133,21,1,2,8,4,354,510.6315496577881,511.4716714506503,"[94, 0, 160]",160,l,0.3176587908528745,colour,0.06
133,21,1,2,8,5,355,511.99085568543524,512.8717610111926,"[70, 0, 184]",184,l,0.3575033948291093,colour,0.06
133,21,1,2,8,6,356,513.3815453255083,514.1756982100196,"[83, 0, 171]",171,l,0.270876984577626,colour,0.06
133,21,1,2,8,7,357,514.6940258301329,515.5037072717678,"[74, 0, 180]",180,l,0.2864138123113662,colour,0.06
133,21,1,2,8,8,358,516.0220939684659,516.8156678997912,"[99, 0, 155]",155,l,0.2701861788518727,colour,0.06
133,21,1,2,8,9,359,517.3345815623179,518.1116765863262,"[89, 0, 165]",165,l,0.2539451546035707,colour,0.06
133,21,1,2,8,10,360,518.6315201192629,519.3917140332051,"[46, 0, 208]",208,a,0.2372326967306435,colour,0.06
133,21,1,2,8,11,361,519.912807633169,520.679641001625,"[67, 0, 187]",187,a,0.24352517304942012,colour,0.06
133,21,1,2,8,12,362,521.193986839382,521.9116611476056,"[77, 0, 177]",177,l,0.19444685126654804,colour,0.06
133,21,1,2,8,13,363,522.4190567862242,523.1037023880053,"[75, 0, 179]",179,l,0.16026811441406608,colour,0.06
133,21,1,2,8,14,364,523.6232158781495,524.4237029866781,"[98, 0, 156]",156,l,0.27707808860577643,colour,0.06
133,21,1,2,8,15,365,524.9356983518228,525.6637166293804,"[57, 0, 197]",197,a,0.20465415599755943,colour,0.06
133,21,1,2,8,16,366,526.170064638136,526.8717377742287,"[88, 0, 166]",166,l,0.1784637961536646,colour,0.06
133,21,1,2,8,17,367,527.3888086318038,528.135685039917,"[69, 0, 185]",185,l,0.22349613881669939,colour,0.06
133,21,1,2,8,18,368,528.6543832689058,529.3996208838653,"[73, 0, 181]",181,l,0.22189830569550395,colour,0.06
133,21,1,2,8,19,369,529.9200484903995,530.6476595313288,"[85, 0, 169]",169,l,0.20435522706247866,colour,0.06
133,21,1,2,8,20,370,531.1543816935737,531.8876712049823,"[58, 0, 196]",196,a,0.20996241155080497,colour,0.06
133,21,1,2,8,21,371,532.4043572749943,533.1276474322658,"[68, 0, 186]",186,a,0.1999500603415072,colour,0.06
133,21,1,2,8,22,372,533.6387767302804,534.2636337643489,"[71, 0, 183]",183,l,0.10154686938039958,colour,0.06
133,21,1,2,8,23,373,534.7793734227307,535.5036273209844,"[66, 0, 188]",188,l,0.20093940128572285,colour,0.06
133,21,1,2,8,24,374,536.0137716103345,536.727694142377,"[86, 0, 168]",168,l,0.19063284737057984,colour,0.06
133,21,1,2,8,25,375,537.248908652924,537.9436898794957,"[93, 0, 161]",161,l,0.17151044635102153,colour,0.06
133,21,1,2,8,26,376,538.4519677329808,539.19966727891,"[63, 0, 191]",191,a,0.22452880255877972,colour,0.06
133,21,1,2,8,27,377,539.7176203515846,540.4236541497521,"[76, 0, 178]",178,l,0.18282957817427814,colour,0.06
133,21,1,2,8,28,378,540.9364261792507,541.5916703951079,"[62, 0, 192]",192,a,0.1320399958640337,colour,0.06
133,21,1,2,8,29,379,542.1082954192534,542.8156509643886,"[50, 0, 204]",204,a,0.18401741748675704,colour,0.06
133,21,1,2,8,30,380,543.3270146006253,544.0716953177471,"[82, 0, 172]",172,l,0.22137094615027308,colour,0.06
133,21,1,2,8,31,381,544.5926451638807,545.3116817851551,"[54, 0, 200]",200,a,0.19607225339859724,colour,0.06
133,21,1,2,8,32,382,545.8272182191722,546.5436597897206,"[95, 0, 159]",159,l,0.19308020593598485,colour,0.06
133,21,1,2,8,33,383,547.0616916313302,547.7916377848014,"[72, 0, 182]",182,l,0.20670136716216803,colour,0.06
133,21,1,2,8,34,384,548.3116999021731,548.911633578362,"[51, 0, 203]",203,a,0.07679404690861702,colour,0.06
133,21,1,2,8,35,385,549.421040982008,550.1516212273855,"[45, 0, 209]",209,a,0.2073783881496638,colour,0.06
133,21,1,2,8,36,386,550.6710461021867,551.2796924379654,"[81, 0, 173]",173,l,0.08535074349492788,colour,0.06
133,21,1,2,8,37,387,551.7959834805224,552.511720854789,"[97, 0, 157]",157,l,0.19244414498098195,colour,0.06
133,21,1,2,8,38,388,553.0303576437291,553.6636185618117,"[96, 0, 158]",158,l,0.10994523949921131,colour,0.06
133,21,1,2,8,39,389,554.1712422373239,554.9036156630609,"[78, 0, 176]",176,l,0.2092814517673105,colour,0.06
133,21,1,2,8,40,390,555.421009474434,556.207652898971,"[60, 0, 194]",194,a,0.26348961680196226,colour,0.06
133,21,1,2,8,41,391,556.7178141237237,557.4956995963585,"[52, 0, 202]",202,a,0.2547048833221197,colour,0.06
133,21,1,2,8,42,392,558.0146321638022,558.7676545372233,"[20, 0, 234]",234,a,0.2296027196571231,colour,0.06
133,21,1,2,8,43,393,559.2803296805359,559.9436319840606,"[90, 0, 164]",164,l,0.13994527119211853,colour,0.06
133,21,1,2,8,44,394,560.4522556343582,561.2076721973717,"[55, 0, 199]",199,a,0.23227890278212726,colour,0.06
133,21,1,2,8,45,395,561.717933852924,562.3516331214923,"[61, 0, 193]",193,a,0.11068685143254697,colour,0.06
133,21,1,2,8,46,396,562.8584710743744,563.6636441617738,"[53, 0, 201]",201,a,0.28183889808133245,colour,0.06
133,21,1,2,8,47,397,564.1709866314195,564.8556448360905,"[84, 0, 170]",170,l,0.16145910462364554,colour,0.06
133,21,1,2,8,48,398,565.3741008497309,565.9916563741863,"[65, 0, 189]",189,a,0.09426583955064416,colour,0.06
133,21,1,2,8,49,399,566.499079975998,567.07166814222,"[92, 0, 162]",162,l,0.0491980507504195,colour,0.06
133,21,1,2,8,50,400,567.5928377544042,568.8076259598602,"[56, 0, 198]",198,a,0.6917844528798014,colour,0.06
133,21,1,2,9,1,401,585.482639271766,586.3196339281276,"[74, 0, 180]",180,l,0.3129672980867326,colour,0.06
133,21,1,2,9,2,402,586.8271808037534,588.0556579118129,"[77, 0, 177]",177,l,0.7055221924092621,colour,0.06
133,21,1,2,9,3,403,588.577066982165,589.3275978865568,"[71, 0, 183]",183,l,0.22718411195091903,colour,0.06
133,21,1,2,9,4,404,589.8427341729403,590.471634429181,"[52, 0, 202]",202,a,0.10559324221685529,colour,0.06
133,21,1,2,9,5,405,590.98334386223,591.5836564183701,"[92, 0, 162]",162,l,0.0769807300530374,colour,0.06
133,21,1,2,9,6,406,592.0927176314872,592.9116087660659,"[90, 0, 164]",164,l,0.2955396161414683,colour,0.06
133,21,1,2,9,7,407,593.4209370068274,594.1436509673949,"[50, 0, 204]",204,a,0.1994412112981081,colour,0.06
133,21,1,2,9,8,408,594.6555600804277,595.3516409983858,"[93, 0, 161]",161,l,0.17284912848845124,colour,0.06
133,21,1,2,9,9,409,595.8585514191072,596.5036257456522,"[59, 0, 195]",195,a,0.12165939901024103,colour,0.06
133,21,1,2,9,10,410,597.0147727667354,597.7916271509603,"[60, 0, 194]",194,a,0.25349301961250603,colour,0.06
133,21,1,2,9,11,411,598.3117381050251,599.0476104579866,"[76, 0, 178]",178,l,0.2125736097805202,colour,0.06
133,21,1,2,9,12,412,599.5616999021731,600.2476609491277,"[96, 0, 158]",158,l,0.16275013145059347,colour,0.06
133,21,1,2,9,13,413,600.7647983666975,601.479650768917,"[83, 0, 171]",171,l,0.19153002835810184,colour,0.06
133,21,1,2,9,14,414,601.9991737112869,602.7036025875714,"[57, 0, 197]",197,a,0.18113367771729827,colour,0.06
133,21,1,2,9,15,415,603.2179771759547,603.8875806203578,"[82, 0, 172]",172,l,0.1465863010380417,colour,0.06
133,21,1,2,9,16,416,604.4055065175053,605.0636262025218,"[75, 0, 179]",179,l,0.13483827118761837,colour,0.06
133,21,1,2,9,17,417,605.5773312528618,606.2556319967844,"[53, 0, 201]",201,a,0.1549460745882243,colour,0.06
133,21,1,2,9,18,418,606.7647688281722,607.495629491983,"[70, 0, 184]",184,l,0.20749063440598547,colour,0.06
133,21,1,2,9,19,419,608.0147581943311,608.6155992918648,"[6, 0, 248]",248,a,0.07753644650802016,colour,0.06
133,21,1,2,9,20,420,609.1241914343555,609.7116331057623,"[67, 0, 187]",187,l,0.06422051577828825,colour,0.06
133,21,1,2,9,21,421,610.2178539021406,610.7836147493217,"[84, 0, 170]",170,l,0.042547962395474315,colour,0.06
133,21,1,2,9,22,422,611.2960027789231,611.9356388810556,"[3, 0, 251]",251,a,0.11624874360859394,colour,0.06
133,21,1,2,9,23,423,612.4523025020026,613.0236654137261,"[68, 0, 186]",186,l,0.0480429008603096,colour,0.06
133,21,1,2,9,24,424,613.5303777297959,614.111634444911,"[63, 0, 191]",191,l,0.058627903927117586,colour,0.06
133,21,1,2,9,25,425,614.6148667384405,615.7355568823405,"[51, 0, 203]",203,a,0.5973031793255359,colour,0.06
133,21,1,2,9,26,426,616.2555047844071,616.7919418336824,"[80, 0, 174]",174,l,0.013059536926448345,colour,0.06
133,21,1,2,9,27,427,617.3023775690235,618.0156608892139,"[81, 0, 173]",173,l,0.18996094609610736,colour,0.06
133,21,1,2,9,28,428,618.523025414208,619.2395819877274,"[94, 0, 160]",160,l,0.19312786124646664,colour,0.06
133,21,1,2,9,29,429,619.7574444757774,620.3756427566987,"[65, 0, 189]",189,l,0.09483494726009667,colour,0.06
133,21,1,2,9,30,430,620.8824204511475,621.4875753428787,"[78, 0, 176]",176,l,0.07988455588929355,colour,0.06
133,21,1,2,9,31,431,621.9939190191217,622.7675816759001,"[99, 0, 155]",155,l,0.250282387714833,colour,0.06
133,21,1,2,9,32,432,623.2751151605044,624.0556311302353,"[85, 0, 169]",169,l,0.25714790960773826,colour,0.06
133,21,1,2,9,33,433,624.5721009790432,625.3196311711799,"[88, 0, 166]",166,l,0.22342997253872454,colour,0.06
133,21,1,2,9,34,434,625.8389268645551,626.5917704319581,"[95, 0, 159]",159,l,0.22842354490421712,colour,0.06
133,21,1,2,9,35,435,627.1007599651348,627.8556066330057,"[69, 0, 185]",185,l,0.23182952450588346,colour,0.06
133,21,1,2,9,36,436,628.3661554022692,629.1115812757052,"[73, 0, 181]",181,l,0.22212909953668714,colour,0.06
133,21,1,2,9,37,437,629.6317280698568,630.4715836229734,"[66, 0, 188]",188,a,0.31654263148084283,colour,0.06
133,21,1,2,9,38,438,630.9910317345057,631.7196080917493,"[72, 0, 182]",182,l,0.20504878950305283,colour,0.06
133,21,1,2,9,39,439,632.2410837223288,633.2156578171998,"[61, 0, 193]",193,a,0.451294650323689,colour,0.06
133,21,1,2,9,40,440,633.7262176140212,634.2636487304699,"[8, 0, 246]",246,a,0.014187511522322893,colour,0.06
133,21,1,2,9,41,441,634.7730624356773,635.399642545497,"[91, 0, 163]",163,l,0.10319865914061666,colour,0.06
133,21,1,2,9,42,442,635.9137154479977,636.5356028836686,"[98, 0, 156]",156,l,0.09858002793043852,colour,0.06
133,21,1,2,9,43,443,637.0543385278434,637.7436145760585,"[54, 0, 200]",200,a,0.16595643106848001,colour,0.06
133,21,1,2,9,44,444,638.2574157249182,639.0635876054876,"[55, 0, 199]",199,a,0.2829109465237707,colour,0.06
133,21,1,2,9,45,445,639.5701207218226,640.4076277716085,"[64, 0, 190]",190,l,0.3142563558649272,colour,0.06
133,21,1,2,9,46,446,640.9293999678921,641.7115941150114,"[86, 0, 168]",168,l,0.2590001670178026,colour,0.06
133,21,1,2,9,47,447,642.2261455403641,643.0875763667282,"[62, 0, 192]",192,a,0.3381076648365706,colour,0.06
133,21,1,2,9,48,448,643.6011100942269,644.7756058925297,"[97, 0, 157]",157,l,0.6516582488548011,colour,0.06
133,21,1,2,9,49,449,645.2886709433515,646.0956021589227,"[87, 0, 167]",167,l,0.2836564970202744,colour,0.06
133,21,1,2,9,50,450,646.61676428793,647.4316173205152,"[56, 0, 198]",198,a,0.29181501525454223,colour,0.06
133,21,1,2,10,1,451,653.084719802253,653.7995737800375,"[66, 0, 188]",188,l,0.19087781966663897,colour,0.06
133,21,1,2,10,2,452,654.3199328572955,655.0635746086482,"[57, 0, 197]",197,a,0.2203300113324076,colour,0.06
133,21,1,2,10,3,453,655.5699352202937,657.8636076129042,"[87, 0, 167]",167,l,1.7704354831948876,colour,0.06
133,21,1,2,10,4,454,658.3823798848316,659.1916355791036,"[80, 0, 174]",174,l,0.28589984332211316,colour,0.06
133,21,1,2,10,5,455,659.7104322696105,660.3915553132538,"[90, 0, 164]",164,l,0.15809881105087698,colour,0.06
133,21,1,2,10,6,456,660.8980009956285,661.5675567847211,"[77, 0, 177]",177,l,0.1468651439063251,colour,0.06
133,21,1,2,10,7,457,662.0854661404155,662.8475737515837,"[82, 0, 172]",172,l,0.2389408063609153,colour,0.06
133,21,1,2,10,8,458,663.3667453834787,664.1355495569296,"[56, 0, 198]",198,a,0.24552591028623283,colour,0.06
133,21,1,2,10,9,459,664.6480238388758,665.4876292997506,"[88, 0, 166]",166,l,0.31626851484179497,colour,0.06
133,21,1,2,10,10,460,666.0073483772576,666.7357069377322,"[59, 0, 195]",195,a,0.2050105866510421,colour,0.06
133,21,1,2,10,11,461,667.2573129311204,667.9036109370645,"[68, 0, 186]",186,l,0.12302565039135516,colour,0.06
133,21,1,2,10,12,462,668.4136410111096,669.1595867611468,"[93, 0, 161]",161,l,0.22265212680213153,colour,0.06
133,21,1,2,10,13,463,669.6792585772928,670.4075805100147,"[79, 0, 175]",175,l,0.20503776194527745,colour,0.06
133,21,1,2,10,14,464,670.9136327402666,671.5676020770334,"[74, 0, 180]",180,l,0.1315346914343536,colour,0.06
133,21,1,2,10,15,465,672.0855370326899,672.7675997926854,"[50, 0, 204]",204,a,0.15903025679290295,colour,0.06
133,21,1,2,10,16,466,673.2885299464688,673.983570717508,"[60, 0, 194]",194,a,0.17175541864708066,colour,0.06
133,21,1,2,10,17,467,674.4916504665744,675.2635683859698,"[14, 0, 240]",240,a,0.24848211789503694,colour,0.06
133,21,1,2,10,18,468,675.7729316789191,676.5515485233627,"[83, 0, 171]",171,l,0.25527280918322504,colour,0.06
133,21,1,2,10,19,469,677.0706000321079,677.695561041357,"[94, 0, 160]",160,l,0.10161500447429717,colour,0.06
133,21,1,2,10,20,470,678.2112502874807,678.9515947608743,"[63, 0, 191]",191,l,0.21699019777588546,colour,0.06
133,21,1,2,10,21,471,679.4612817952875,680.2395772614982,"[91, 0, 163]",163,l,0.2550498922355473,colour,0.06
133,21,1,2,10,22,472,680.7580569060519,681.5115715870634,"[67, 0, 187]",187,l,0.2301155070308596,colour,0.06
133,21,1,2,10,23,473,682.0237749030348,682.7916740186047,"[70, 0, 184]",184,l,0.24457949865609407,colour,0.06
133,21,1,2,10,24,474,683.3049698630348,684.0075913802721,"[71, 0, 183]",183,l,0.17960870638489723,colour,0.06
133,21,1,2,10,25,475,684.5237158259843,685.2715626703575,"[72, 0, 182]",182,l,0.22450320282950997,colour,0.06
133,21,1,2,10,26,476,685.789429884404,686.5755876968615,"[81, 0, 173]",173,l,0.26277242321521044,colour,0.06
133,21,1,2,10,27,477,687.0862105090637,687.8475670563057,"[97, 0, 157]",157,l,0.23801329941488802,colour,0.06
133,21,1,2,10,28,478,688.3674771490041,689.0635423131753,"[86, 0, 168]",168,l,0.17284479620866477,colour,0.06
133,21,1,2,10,29,479,689.5706354782451,690.3835440934636,"[89, 0, 165]",165,l,0.289668554905802,colour,0.06
133,21,1,2,10,30,480,690.8987394568976,691.6715911848005,"[55, 0, 199]",199,a,0.24958803714253008,colour,0.06
133,21,1,2,10,31,481,692.1799300846178,692.9355494780466,"[96, 0, 158]",158,l,0.23215484130196273,colour,0.06
133,21,1,2,10,32,482,693.445667773718,694.2555815845262,"[65, 0, 189]",189,l,0.28667375072836876,colour,0.06
133,21,1,2,10,33,483,694.7736961338669,695.4955298488494,"[54, 0, 200]",200,l,0.19852709490805864,colour,0.06
133,21,1,2,10,34,484,696.0080395769328,696.7275925301947,"[62, 0, 192]",192,l,0.19618095480836928,colour,0.06
133,21,1,2,10,35,485,697.242429099977,698.1675538702402,"[46, 0, 208]",208,a,0.4018484763801098,colour,0.06
133,21,1,2,10,36,486,698.6799521399662,699.3515779832378,"[99, 0, 155]",155,l,0.14831922319717705,colour,0.06
133,21,1,2,10,37,487,699.872892530635,700.5915912319906,"[34, 0, 220]",220,a,0.2009740595240146,colour,0.06
133,21,1,2,10,38,488,701.101780025987,701.6475500420202,"[78, 0, 176]",176,l,0.022674497216939926,colour,0.06
133,21,1,2,10,39,489,702.1643349674996,702.7515470269136,"[84, 0, 170]",170,l,0.06344070099294186,colour,0.06
133,21,1,2,10,40,490,703.2585054966621,703.9275670091156,"[95, 0, 159]",159,l,0.1457915201317519,colour,0.06
133,21,1,2,10,41,491,704.4460084503517,705.1275328232441,"[85, 0, 169]",169,l,0.15815079887397587,colour,0.06
133,21,1,2,10,42,492,705.6491230628453,706.3275557449088,"[53, 0, 201]",201,a,0.1550929790828377,colour,0.06
133,21,1,2,10,43,493,706.8365941150114,707.4955534795299,"[98, 0, 156]",156,l,0.13552435068413615,colour,0.06
133,21,1,2,10,44,494,708.0084495705087,708.7595523390919,"[76, 0, 178]",178,l,0.2277764561586082,colour,0.06
133,21,1,2,10,45,495,709.2741616596468,710.0396315336693,"[64, 0, 190]",190,l,0.2421435615979135,colour,0.06
133,21,1,2,10,46,496,710.5553778873291,711.2075784620829,"[58, 0, 196]",196,a,0.12955207121558487,colour,0.06
133,21,1,2,10,47,497,711.7272006536368,712.4715556600131,"[52, 0, 202]",202,a,0.22097434336319566,colour,0.06
133,21,1,2,10,48,498,712.9928891118616,713.6395407915115,"[61, 0, 193]",193,a,0.12339271488599479,colour,0.06
133,21,1,2,10,49,499,714.1490604411811,714.8795678250026,"[92, 0, 162]",162,l,0.2071743761189282,colour,0.06
133,21,1,2,10,50,500,715.3991329087876,716.1516098058783,"[51, 0, 203]",203,a,0.22914192010648549,colour,0.06
133,21,1,2,11,1,501,724.7139091414865,725.4555643340573,"[0, 0, 254]",254,a,0.21747699147090316,colour,0.06
133,21,1,2,11,2,502,725.9647590608802,726.6076321825385,"[51, 0, 203]",203,l,0.11959800915792584,colour,0.06
133,21,1,2,11,3,503,727.1209492946509,728.6155508486554,"[73, 0, 181]",181,l,0.9713099000509828,colour,0.06
133,21,1,2,11,4,504,729.1365711931139,729.8155343858525,"[68, 0, 186]",186,l,0.1556160063482821,colour,0.06
133,21,1,2,11,5,505,730.3240765100345,731.0155490371399,"[55, 0, 199]",199,l,0.16814857767894864,colour,0.06
133,21,1,2,11,6,506,731.5271509501617,732.0795942915138,"[52, 0, 202]",202,l,0.027209633262827992,colour,0.06
133,21,1,2,11,7,507,732.5914695337415,733.1515408828855,"[74, 0, 180]",180,l,0.037024667486548424,colour,0.06
133,21,1,2,11,8,508,733.6726805625949,734.2555433814414,"[71, 0, 183]",183,l,0.05950381723232567,colour,0.06
133,21,1,2,11,9,509,734.7664560640696,735.3036012484226,"[82, 0, 172]",172,l,0.013885431922972202,colour,0.06
133,21,1,2,11,10,510,735.8132756797131,736.3515669554472,"[56, 0, 198]",198,l,0.014947634190320969,colour,0.06
133,21,1,2,11,11,511,736.8601271966472,737.5115113286301,"[80, 0, 174]",174,l,0.12806136440485716,colour,0.06
133,21,1,2,11,12,512,738.0320381841157,738.5755128662568,"[92, 0, 162]",162,l,0.017423743614926934,colour,0.06
133,21,1,2,11,13,513,739.0819045917597,740.1115647342522,"[97, 0, 157]",157,l,0.5062558487989008,colour,0.06
133,21,1,2,11,14,514,740.6289002562407,741.3835031334311,"[93, 0, 161]",161,l,0.23135257721878588,colour,0.06
133,21,1,2,11,15,515,741.8944264501333,742.5835229046643,"[75, 0, 179]",179,l,0.16576029593124986,colour,0.06
133,21,1,2,11,16,516,743.0975717823021,743.9115433876868,"[58, 0, 196]",196,l,0.2906929482705891,colour,0.06
133,21,1,2,11,17,517,744.425697816303,745.0795513621997,"[98, 0, 156]",156,l,0.1305961566977203,colour,0.06
133,21,1,2,11,18,518,745.5975481516216,746.3195130175445,"[53, 0, 201]",201,a,0.19900404242798686,colour,0.06
133,21,1,2,11,19,519,746.8319451578427,747.5195430284366,"[84, 0, 170]",170,l,0.1642751027829945,colour,0.06
133,21,1,2,11,20,520,748.035042834701,748.7915030894801,"[95, 0, 159]",159,l,0.23341632983647287,colour,0.06
133,21,1,2,11,21,521,749.3006485854276,749.9995210834313,"[88, 0, 166]",166,l,0.17567379167303443,colour,0.06
133,21,1,2,11,22,522,750.5193815517705,751.1595473766793,"[76, 0, 178]",178,l,0.11681036790832877,colour,0.06
133,21,1,2,11,23,523,751.6756867885124,752.3995318748057,"[63, 0, 191]",191,a,0.2005561892874539,colour,0.06
133,21,1,2,11,24,524,752.9099999056198,753.6395443361253,"[70, 0, 184]",184,a,0.20620669657364488,colour,0.06
133,21,1,2,11,25,525,754.1600085701793,754.8395243287086,"[96, 0, 158]",158,l,0.15618314454331994,colour,0.06
133,21,1,2,11,26,526,755.3475320038851,756.2955270132516,"[77, 0, 177]",177,l,0.42467696755193174,colour,0.06
133,21,1,2,11,27,527,756.8162669392768,757.5595093311276,"[86, 0, 168]",168,l,0.21992119937203825,colour,0.06
133,21,1,2,11,28,528,758.0662492162082,758.6555234529078,"[72, 0, 182]",182,l,0.06598061346448958,colour,0.06
133,21,1,2,11,29,529,759.1756745793391,759.7835722139571,"[67, 0, 187]",187,a,0.08468041755259037,colour,0.06
133,21,1,2,11,30,530,760.3006115639582,760.943533916492,"[99, 0, 155]",155,l,0.11977681540884078,colour,0.06
133,21,1,2,11,31,531,761.4568912009709,762.4315027112607,"[25, 0, 229]",229,a,0.4513694809284061,colour,0.06
133,21,1,2,11,32,532,762.9411885640584,763.759520043619,"[94, 0, 160]",160,l,0.2948956780601293,colour,0.06
133,21,1,2,11,33,533,764.2694122716784,764.8635426284745,"[81, 0, 173]",173,l,0.07081782910972834,colour,0.06
133,21,1,2,11,34,534,765.3787182993256,766.0715236009564,"[83, 0, 171]",171,l,0.16945457062684,colour,0.06
133,21,1,2,11,35,535,766.5818904133048,767.2715764550958,"[60, 0, 194]",194,a,0.16647985251620412,colour,0.06
133,21,1,2,11,36,536,767.7849880901631,768.5514961420558,"[66, 0, 188]",188,a,0.24342080391943455,colour,0.06
133,21,1,2,11,37,537,769.0662425209302,769.767531263642,"[69, 0, 185]",185,a,0.17788247973658144,colour,0.06
133,21,1,2,11,38,538,770.2849774563219,770.9035101125482,"[87, 0, 167]",167,l,0.09544225758872926,colour,0.06
133,21,1,2,11,39,539,771.4097809272353,772.0474852151237,"[59, 0, 195]",195,a,0.11419365555047989,colour,0.06
133,21,1,2,11,40,540,772.5662563054357,773.1755312194582,"[78, 0, 176]",176,l,0.0867469273507595,colour,0.06
133,21,1,2,11,41,541,773.6913059300277,774.471560779959,"[61, 0, 193]",193,a,0.2571077374741435,colour,0.06
133,21,1,2,11,42,542,774.9881582348607,775.7675513497088,"[79, 0, 175]",175,l,0.25620386097580194,colour,0.06
133,21,1,2,11,43,543,776.2849561886396,776.9834789512679,"[65, 0, 189]",189,a,0.17544299783185124,colour,0.06
133,21,1,2,11,44,544,777.5037131793797,778.2314841218758,"[36, 0, 218]",218,a,0.20450922078453004,colour,0.06
133,21,1,2,11,45,545,778.7380873425864,779.4715064291377,"[90, 0, 164]",164,l,0.21009041112847626,colour,0.06
133,21,1,2,11,46,546,779.9880849793553,780.671568341786,"[50, 0, 204]",204,a,0.1601854069158435,colour,0.06
133,21,1,2,11,47,547,781.1911279116757,781.8874778265599,"[62, 0, 192]",192,a,0.1729531039018184,colour,0.06
133,21,1,2,11,48,548,782.3943114471622,783.0635025347583,"[91, 0, 163]",163,l,0.14586950140073895,colour,0.06
133,21,1,2,11,49,549,783.5818317302037,784.2715047751553,"[57, 0, 197]",197,a,0.16637587710283697,colour,0.06
133,21,1,2,11,50,550,784.7849550070241,785.4955589934252,"[64, 0, 190]",190,a,0.18759471992962062,colour,0.06
133,21,1,2,12,1,551,789.9411046749447,790.5595053925645,"[71, 0, 183]",183,l,0.0943631196860224,colour,0.06
133,21,1,2,12,2,552,791.0544838570058,791.6874998030253,"[57, 0, 197]",197,a,0.10969160287640989,colour,0.06
133,21,1,2,12,3,553,792.195045103319,792.8075038676616,"[62, 0, 192]",192,a,0.08906313520856202,colour,0.06
133,21,1,2,12,4,554,793.3202333615627,793.9595236671157,"[55, 0, 199]",199,a,0.11489824601449072,colour,0.06
133,21,1,2,12,5,555,794.4775476318318,795.1275726016611,"[99, 0, 155]",155,l,0.12668802356347442,colour,0.06
133,21,1,2,12,6,556,795.6338252995629,796.3114718652796,"[73, 0, 181]",181,l,0.15439705341123044,colour,0.06
133,21,1,2,12,7,557,796.8213077732362,797.4635302615352,"[7, 0, 247]",247,a,0.11887608980759978,colour,0.06
133,21,1,2,12,8,558,797.9776409731712,798.695513779996,"[69, 0, 185]",185,l,0.19467252516187727,colour,0.06
133,21,1,2,12,9,559,799.2147539409343,799.8315048380755,"[54, 0, 200]",200,l,0.09354037558659911,colour,0.06
133,21,1,2,12,10,560,800.3395826178603,800.9194852907676,"[50, 0, 204]",204,a,0.05650861910544336,colour,0.06
133,21,1,2,12,11,561,801.420920859091,802.087494446896,"[91, 0, 163]",163,l,0.14330005086958408,colour,0.06
133,21,1,2,12,12,562,802.608441536082,803.2475601246115,"[65, 0, 189]",189,l,0.11645945115014911,colour,0.06
133,21,1,2,12,13,563,803.7647069944069,804.3594903477933,"[93, 0, 161]",161,l,0.07152084400877357,colour,0.06
133,21,1,2,12,14,564,804.8741067575756,805.4635282924864,"[52, 0, 202]",202,a,0.06615154258906841,colour,0.06
133,21,1,2,12,15,565,805.983351345174,806.5835154214874,"[98, 0, 156]",156,l,0.07677120389416814,colour,0.06
133,21,1,2,12,16,566,807.0928027022164,807.6236018470954,"[51, 0, 203]",203,a,0.0074937064200639725,colour,0.06
133,21,1,2,12,17,567,808.1552587882616,808.6954728199635,"[79, 0, 175]",175,l,0.015168975573033094,colour,0.06
133,21,1,2,12,18,568,809.2038680396508,809.7435121762101,"[63, 0, 191]",191,a,0.016635264037176967,colour,0.06
133,21,1,2,12,19,569,810.2507676058449,810.7995032814797,"[85, 0, 169]",169,l,0.03797777439467609,colour,0.06
133,21,1,2,12,20,570,811.3165453884285,811.9114697384648,"[74, 0, 180]",180,l,0.07172485603950918,colour,0.06
133,21,1,2,12,21,571,812.4258155762218,813.3995397516992,"[88, 0, 166]",166,l,0.45077989366836846,colour,0.06
133,21,1,2,12,22,572,813.910186982248,814.5514599080198,"[47, 0, 207]",207,a,0.11795173329301178,colour,0.06
133,21,1,2,12,23,573,815.0664292038418,815.8154926383868,"[83, 0, 171]",171,l,0.22576508508063853,colour,0.06
133,21,1,2,12,24,574,816.3334374399856,817.0474785196129,"[60, 0, 194]",194,a,0.19073052098974586,colour,0.06
133,21,1,2,12,25,575,817.5677879722789,818.3034897900652,"[90, 0, 164]",164,l,0.21245663752779365,colour,0.06
133,21,1,2,12,26,576,818.8179860769305,819.4794688122347,"[70, 0, 184]",184,l,0.13831868767738342,colour,0.06
133,21,1,2,12,27,577,819.9899502336048,820.719469852047,"[72, 0, 182]",182,l,0.2063673858065158,colour,0.06
133,21,1,2,12,28,578,821.2399837106932,822.9274720922112,"[75, 0, 179]",179,l,1.164280222961679,colour,0.06
133,21,1,2,12,29,579,823.442967565963,824.1915253023617,"[67, 0, 187]",187,a,0.22519400855526328,colour,0.06
133,21,1,2,12,30,580,824.6993242392782,825.3995054871775,"[56, 0, 198]",198,a,0.1769258277490735,colour,0.06
133,21,1,2,12,31,581,825.9180753224064,826.6875167384278,"[87, 0, 167]",167,l,0.2466365557629615,colour,0.06
133,21,1,2,12,32,582,827.1992852485273,827.9115260585677,"[53, 0, 201]",201,a,0.18894679308868945,colour,0.06
133,21,1,2,12,33,583,828.418157636188,829.143491853727,"[97, 0, 157]",157,l,0.20224854513071477,colour,0.06
133,21,1,2,12,34,584,829.6524160085246,830.4154479762074,"[58, 0, 196]",196,a,0.23987185838632286,colour,0.06
133,21,1,2,12,35,585,830.9337200638838,831.6954795152415,"[77, 0, 177]",177,l,0.23848906508646905,colour,0.06
133,21,1,2,12,36,586,832.2155475404579,833.0314541107509,"[66, 0, 188]",188,l,0.2931820545345545,colour,0.06
133,21,1,2,12,37,587,833.5430831992999,834.3834779274184,"[96, 0, 158]",158,l,0.3171152835711837,colour,0.06
133,21,1,2,12,38,588,834.9023821377195,835.7434928778093,"[78, 0, 176]",176,l,0.3178876154124737,colour,0.06
133,21,1,2,12,39,589,836.2617838699371,837.1515054367483,"[59, 0, 195]",195,a,0.36646142043173313,colour,0.06
133,21,1,2,12,40,590,837.6680158516392,838.2794541611802,"[82, 0, 172]",172,l,0.08827583724632859,colour,0.06
133,21,1,2,12,41,591,838.7930512977764,839.6475075066555,"[64, 0, 190]",190,a,0.3310960258822888,colour,0.06
133,21,1,2,12,42,592,840.1680166393053,840.8714821683243,"[81, 0, 173]",173,l,0.1802518565673381,colour,0.06
133,21,1,2,12,43,593,841.3870603498071,842.8474670194555,"[68, 0, 186]",186,a,0.9373288739006966,colour,0.06
133,21,1,2,12,44,594,843.355612146901,844.7674725805409,"[76, 0, 178]",178,l,0.8887164718471467,colour,0.06
133,21,1,2,12,45,595,845.2774841438513,846.3035153900273,"[80, 0, 174]",174,l,0.5028412044048309,colour,0.06
133,21,1,2,12,46,596,846.8242435008287,847.7274901303463,"[89, 0, 165]",165,l,0.37977735116146505,colour,0.06
133,21,1,2,12,47,597,848.2461473993026,849.1514739289414,"[31, 0, 223]",223,a,0.3819659526925534,colour,0.06
133,21,1,2,12,48,598,849.6679717409424,850.487483182922,"[94, 0, 160]",160,l,0.29633321589790285,colour,0.06
133,21,1,2,12,49,599,850.9960694178008,851.759497594554,"[86, 0, 168]",168,l,0.2525596048217267,colour,0.06
133,21,1,2,12,50,600,852.2805860743392,853.0954903066158,"[61, 0, 193]",193,a,0.2916763813700527,colour,0.06
133,21,1,2,13,1,601,860.5330164975021,861.1994384545833,"[61, 0, 193]",193,a,0.14231976820155978,colour,0.06
133,21,1,2,13,2,602,861.7057065123226,862.3994633455295,"[52, 0, 202]",202,a,0.17037144396454096,colour,0.06
133,21,1,2,13,3,603,862.9086828848813,863.6714494002517,"[65, 0, 189]",189,a,0.23935316316783428,colour,0.06
133,21,1,2,13,4,604,864.1901377830654,864.9834442930296,"[73, 0, 181]",181,l,0.26989040058106184,colour,0.06
133,21,1,2,13,5,605,865.5025607862044,866.2634915858507,"[56, 0, 198]",198,a,0.23760094260796905,colour,0.06
133,21,1,2,13,6,606,866.7838687801268,867.4634538555983,"[90, 0, 164]",164,l,0.15637652319855988,colour,0.06
133,21,1,2,13,7,607,867.9712374324445,868.7434731854592,"[8, 0, 246]",246,a,0.24891259148716927,colour,0.06
133,21,1,2,13,8,608,869.2537624102551,869.9594460793305,"[97, 0, 157]",157,l,0.18237232300452888,colour,0.06
133,21,1,2,13,9,609,870.4731739729177,871.6074510135222,"[53, 0, 201]",201,a,0.6108873190823942,colour,0.06
133,21,1,2,13,10,610,872.1138541605324,872.8954705356155,"[62, 0, 192]",192,a,0.2582876996602863,colour,0.06
133,21,1,2,13,11,611,873.405501791276,874.143443016801,"[57, 0, 197]",197,a,0.22697497974149883,colour,0.06
133,21,1,2,13,12,612,874.658749444643,875.4154759391677,"[59, 0, 195]",195,a,0.23347422503866255,colour,0.06
133,21,1,2,13,13,613,875.92424216168,876.6634310912341,"[82, 0, 172]",172,l,0.21572122653014958,colour,0.06
133,21,1,2,13,14,614,877.1742815463804,877.8154426198453,"[86, 0, 168]",168,l,0.11778907501138747,colour,0.06
133,21,1,2,13,15,615,878.3212983210105,879.0474600088783,"[85, 0, 169]",169,l,0.20275227399542928,colour,0.06
133,21,1,2,13,16,616,879.555690207053,880.2954860532191,"[75, 0, 179]",179,l,0.21639706613495946,colour,0.06
133,21,1,2,13,17,617,880.8057441641577,881.4634487354197,"[80, 0, 174]",174,l,0.13436526199802756,colour,0.06
133,21,1,2,13,18,618,881.9775606286712,883.6234959024005,"[83, 0, 171]",171,l,1.121516432845965,colour,0.06
133,21,1,2,13,19,619,884.1370780728757,884.9034388263244,"[58, 0, 196]",196,a,0.24311439180746675,colour,0.06
133,21,1,2,13,20,620,885.418253734475,886.063441488659,"[89, 0, 165]",165,l,0.12214028462767601,colour,0.06
133,21,1,2,13,21,621,886.5743474762421,887.287483891705,"[64, 0, 190]",190,l,0.18966516782529652,colour,0.06
133,21,1,2,13,22,622,887.8088716946077,888.6154464795254,"[68, 0, 186]",186,a,0.2833819864317775,colour,0.06
133,21,1,2,13,23,623,889.1369449528866,889.9434642058332,"[92, 0, 162]",162,l,0.2832390205003321,colour,0.06
133,21,1,2,13,24,624,890.4650335714687,891.1834475223441,"[88, 0, 166]",166,l,0.19502422935329378,colour,0.06
133,21,1,2,13,25,625,891.6994636605959,892.439452491235,"[69, 0, 185]",185,a,0.21745099779218435,colour,0.06
133,21,1,2,13,26,626,892.9494144299533,893.5114250762854,"[95, 0, 159]",159,l,0.038771373918280005,colour,0.06
133,21,1,2,13,27,627,894.0275282545481,894.7036789935082,"[84, 0, 170]",170,l,0.15117421210743487,colour,0.06
133,21,1,2,13,28,628,895.2167393181007,895.8634114777669,"[77, 0, 177]",177,l,0.12343682558275759,colour,0.06
133,21,1,2,13,29,629,896.3748192247003,897.0954855806194,"[87, 0, 167]",167,l,0.19726009271107614,colour,0.06
133,21,1,2,13,30,630,897.609288698528,898.3594860152807,"[55, 0, 199]",199,a,0.22703878278844059,colour,0.06
133,21,1,2,13,31,631,898.8748121354729,899.5834413785487,"[94, 0, 160]",160,l,0.18521982920356095,colour,0.06
133,21,1,2,13,32,632,900.0935935447924,900.7994249062613,"[98, 0, 156]",156,l,0.1825302552897483,colour,0.06
133,21,1,2,13,33,633,901.3123209970072,901.9995128125884,"[76, 0, 178]",178,l,0.16384502314031124,colour,0.06
133,21,1,2,13,34,634,902.5154651477933,903.0874168591108,"[66, 0, 188]",188,a,0.04865414975211024,colour,0.06
133,21,1,2,13,35,635,903.6092469508294,904.3114088498987,"[71, 0, 183]",183,a,0.17893680511042476,colour,0.06
133,21,1,2,13,36,636,904.8279633754864,905.5594325310085,"[70, 0, 184]",184,a,0.20826414762996137,colour,0.06
133,21,1,2,13,37,637,906.068678851705,906.767393023707,"[51, 0, 203]",203,a,0.1756753670051694,colour,0.06
133,21,1,2,13,38,638,907.2874551410787,907.9594547441229,"[93, 0, 161]",161,l,0.14875009073875844,colour,0.06
133,21,1,2,13,39,639,908.4748805072159,909.1114934480283,"[72, 0, 182]",182,l,0.11328938533551991,colour,0.06
133,21,1,2,13,40,640,909.6310774364974,910.2474679646548,"[54, 0, 200]",200,a,0.09301656042225659,colour,0.06
133,21,1,2,13,41,641,910.7561806240119,911.4474259018898,"[74, 0, 180]",180,l,0.16796543914824724,colour,0.06
133,21,1,2,13,42,642,911.9592385226861,912.5994429443963,"[22, 0, 232]",232,a,0.11696002935059369,colour,0.06
133,21,1,2,13,43,643,913.1154917718377,913.775433388073,"[63, 0, 191]",191,l,0.13661333452910185,colour,0.06
133,21,1,2,13,44,644,914.2874283595011,914.9754185008351,"[17, 0, 237]",237,a,0.16469336743466556,colour,0.06
133,21,1,2,13,45,645,915.4905559686013,916.1354203755036,"[96, 0, 158]",158,l,0.1215664513874799,colour,0.06
133,21,1,2,13,46,646,916.6467402949929,917.3755064858124,"[67, 0, 187]",187,l,0.2054832016583532,colour,0.06
133,21,1,2,13,47,647,917.8967867686879,918.6074368350673,"[60, 0, 194]",194,l,0.18741867085918784,colour,0.06
133,21,1,2,13,48,648,919.118649628479,919.7914302279241,"[91, 0, 163]",163,l,0.14981701923534274,colour,0.06
133,21,1,2,13,49,649,920.3061009885278,921.0554456289392,"[99, 0, 155]",155,l,0.22602856811136007,colour,0.06
133,21,1,2,13,50,650,921.57169216685,922.2234981080983,"[79, 0, 175]",175,l,0.12846584408544004,colour,0.06
133,21,1,2,14,1,651,936.6333373242524,937.3114257853013,"[64, 0, 190]",190,a,0.1540646473877132,colour,0.06
133,21,1,2,14,2,652,937.8216535700485,938.6074104474392,"[70, 0, 184]",184,l,0.26247152499854565,colour,0.06
133,21,1,2,14,3,653,939.1185795238707,939.7994095461909,"[92, 0, 162]",162,l,0.15792591287754476,colour,0.06
133,21,1,2,14,4,654,940.3062132345513,940.919489229098,"[90, 0, 164]",164,l,0.09029114665463567,colour,0.06
133,21,1,2,14,5,655,941.4309146993328,942.1034530836623,"[53, 0, 201]",201,a,0.14975282247178257,colour,0.06
133,21,1,2,14,6,656,942.6185145392083,943.2634778013453,"[78, 0, 176]",176,l,0.12193706026300788,colour,0.06
133,21,1,2,14,7,657,943.775093892822,944.5754321278073,"[60, 0, 194]",194,l,0.27737819915637374,colour,0.06
133,21,1,2,14,8,658,945.0872526254971,945.7354021009523,"[58, 0, 196]",196,a,0.12498936615884304,colour,0.06
133,21,1,2,14,9,659,946.2434983917046,946.8714274237864,"[84, 0, 170]",170,l,0.11709984485059977,colour,0.06
133,21,1,2,14,10,660,947.3872627867386,948.1353857170325,"[72, 0, 182]",182,l,0.22478480264544487,colour,0.06
133,21,1,2,14,11,661,948.6529536081944,949.3593812524341,"[21, 0, 233]",233,a,0.18315450102090836,colour,0.06
133,21,1,2,14,12,662,949.8716771220788,950.4954132705461,"[91, 0, 163]",163,l,0.10034721461124718,colour,0.06
133,21,1,2,14,13,663,951.0123088667169,951.6794625893235,"[85, 0, 169]",169,l,0.14383765030652285,colour,0.06
133,21,1,2,14,14,664,952.1998374203686,952.8474268470891,"[82, 0, 172]",172,l,0.1243678773753345,colour,0.06
133,21,1,2,14,15,665,953.356065857457,954.0554357827641,"[52, 0, 202]",202,a,0.1759494838770479,colour,0.06
133,21,1,2,14,16,666,954.5747586512007,955.207386265276,"[96, 0, 158]",158,l,0.10677162930369377,colour,0.06
133,21,1,2,14,17,667,955.7179208558518,956.4154188316315,"[88, 0, 166]",166,l,0.17433510930277407,colour,0.06
133,21,1,2,14,18,668,956.9365573299583,957.591397853801,"[56, 0, 198]",198,a,0.1314830977935344,colour,0.06
133,21,1,2,14,19,669,958.1084139668383,958.7834284603596,"[77, 0, 177]",177,l,0.15163579978980124,colour,0.06
133,21,1,2,14,20,670,959.2960516158491,960.007419269532,"[69, 0, 185]",185,l,0.18801967962644994,colour,0.06
133,21,1,2,14,21,671,960.5147428344935,961.191439837683,"[55, 0, 199]",199,a,0.15097335074096918,colour,0.06
133,21,1,2,14,22,672,961.7046990545932,962.4235387528315,"[50, 0, 204]",204,a,0.19557482586242259,colour,0.06
133,21,1,2,14,23,673,962.9390535252169,963.5114136547782,"[86, 0, 168]",168,l,0.04898064793087542,colour,0.06
133,21,1,2,14,24,674,964.0328428114299,964.5753978632856,"[67, 0, 187]",187,l,0.017553318990394473,colour,0.06
133,21,1,2,14,25,675,965.097109801136,965.6714588527102,"[66, 0, 188]",188,l,0.05087110842578113,colour,0.06
133,21,1,2,14,26,676,966.19094634871,966.7994012755807,"[59, 0, 195]",195,a,0.08516484824940562,colour,0.06
133,21,1,2,14,27,677,967.3159577702172,967.9273819015361,"[93, 0, 161]",161,l,0.08821242791600525,colour,0.06
133,21,1,2,14,28,678,968.441013302654,969.503436305793,"[54, 0, 200]",200,a,0.5392049984075129,colour,0.06
133,21,1,2,14,29,679,970.020116468193,970.7833839557134,"[75, 0, 179]",179,l,0.23994235671125352,colour,0.06
133,21,1,2,14,30,680,971.3013689296786,972.1114394911565,"[74, 0, 180]",180,l,0.28679663059301674,colour,0.06
133,21,1,2,14,31,681,972.6294721204322,973.4153916561045,"[61, 0, 193]",193,a,0.26257825712673366,colour,0.06
133,21,1,2,14,32,682,973.9263319082092,974.6473783252295,"[79, 0, 175]",175,l,0.1977110463194549,colour,0.06
133,21,1,2,14,33,683,975.1608470680658,975.9433783474378,"[89, 0, 165]",165,l,0.2592742838896811,colour,0.06
133,21,1,2,14,34,684,976.4576655020937,977.0874066192191,"[68, 0, 186]",186,l,0.1072655119933188,colour,0.06
133,21,1,2,14,35,685,977.5982653449755,978.3354618081357,"[95, 0, 159]",159,l,0.21451369486749172,colour,0.06
133,21,1,2,14,36,686,978.8482468342409,979.56739373249,"[63, 0, 191]",191,a,0.1947355403099209,colour,0.06
133,21,1,2,14,37,687,980.0836642952636,980.7994457799941,"[97, 0, 157]",157,l,0.19254024303518236,colour,0.06
133,21,1,2,14,38,688,981.3180364891887,982.0554456289392,"[87, 0, 167]",167,l,0.2150040331762284,colour,0.06
133,21,1,2,14,39,689,982.5678246000316,983.3833964013029,"[17, 0, 237]",237,a,0.292542842682451,colour,0.06
133,21,1,2,14,40,690,983.8961696121842,984.5193823394366,"[73, 0, 181]",181,l,0.0998466364108026,colour,0.06
133,21,1,2,14,41,691,985.0275286484975,985.7913613049313,"[71, 0, 183]",183,l,0.24047247343696654,colour,0.06
133,21,1,2,14,42,692,986.3088283713441,987.0874141021632,"[98, 0, 156]",156,l,0.2553184952121228,colour,0.06
133,21,1,2,14,43,693,987.6056495623197,988.3433674771804,"[99, 0, 155]",155,l,0.21436639642342925,colour,0.06
133,21,1,2,14,44,694,988.8433588126209,989.55940220505,"[83, 0, 171]",171,l,0.19290061225183308,colour,0.06
133,21,1,2,14,45,695,990.0775711049791,990.815382361412,"[23, 0, 231]",231,a,0.21453417488373816,colour,0.06
133,21,1,2,14,46,696,991.3275234496687,992.023454312468,"[76, 0, 178]",178,l,0.17264590435661376,colour,0.06
133,21,1,2,14,47,697,992.5307703942526,993.2793568812776,"[94, 0, 160]",160,l,0.22540432238020003,colour,0.06
133,21,1,2,14,48,698,993.7963080096524,994.5993708705064,"[57, 0, 197]",197,a,0.279745606938377,colour,0.06
133,21,1,2,14,49,699,995.1087987541687,995.783411524957,"[65, 0, 189]",189,l,0.15135223069228232,colour,0.06
133,21,1,2,14,50,700,996.2962186066434,996.9193620169535,"[51, 0, 203]",203,a,0.09986120881512761,colour,0.06
133,21,1,2,15,1,701,1001.7016120902263,1002.4633427909575,"[76, 0, 178]",178,l,0.23775139194913208,colour,0.06
133,21,1,2,15,2,702,1002.9845513938926,1003.9113858493511,"[99, 0, 155]",155,l,0.40368891856633127,colour,0.06
133,21,1,2,15,3,703,1004.4220712829847,1005.1993837100454,"[77, 0, 177]",177,l,0.25402983161620796,colour,0.06
133,21,1,2,15,4,704,1005.7188775076065,1006.4793951630127,"[95, 0, 159]",159,l,0.23725002608262002,colour,0.06
133,21,1,2,15,5,705,1007.0001189415343,1007.7273459825665,"[56, 0, 198]",198,a,0.20390506088733673,colour,0.06
133,21,1,2,15,6,706,1008.2344970430713,1008.9194132168777,"[96, 0, 158]",158,l,0.16172691993415356,colour,0.06
133,21,1,2,15,7,707,1009.4376159876119,1010.0793859469704,"[62, 0, 192]",192,a,0.11843380075879395,colour,0.06
133,21,1,2,15,8,708,1010.593860572204,1011.3113923084456,"[4, 0, 250]",250,a,0.19452601438388228,colour,0.06
133,21,1,2,15,9,709,1011.828490341315,1012.4313920405693,"[88, 0, 166]",166,l,0.07962894975207746,colour,0.06
133,21,1,2,15,10,710,1012.9378597782925,1013.6153732242528,"[64, 0, 190]",190,l,0.15416035195812583,colour,0.06
133,21,1,2,15,11,711,1014.1258266826626,1014.8873844849877,"[63, 0, 191]",191,l,0.2382929299492389,colour,0.06
133,21,1,2,15,12,712,1015.4071587009821,1016.1755784810521,"[89, 0, 165]",165,l,0.24512576288543642,colour,0.06
133,21,1,2,15,13,713,1016.688409981085,1017.4553670173045,"[59, 0, 195]",195,l,0.2437193391378969,colour,0.06
133,21,1,2,15,14,714,1017.9696431441698,1018.6793637340888,"[68, 0, 186]",186,l,0.18643838842399418,colour,0.06
133,21,1,2,15,15,715,1019.1883241226897,1019.85538844252,"[74, 0, 180]",180,l,0.14375100447796285,colour,0.06
133,21,1,2,15,16,716,1020.3759145103395,1021.0793312024325,"[73, 0, 181]",181,l,0.1801490627694875,colour,0.06
133,21,1,2,15,17,717,1021.5945765841752,1022.3593828277662,"[53, 0, 201]",201,l,0.24181273090653121,colour,0.06
133,21,1,2,15,18,718,1022.8758034456987,1023.5040085639339,"[72, 0, 182]",182,l,0.10499420273117721,colour,0.06
133,21,1,2,15,19,719,1024.0077658540104,1024.6313487964217,"[81, 0, 173]",173,l,0.1003673009108752,colour,0.06
133,21,1,2,15,20,720,1025.1483223738614,1025.8153488845564,"[97, 0, 157]",157,l,0.14369901665486395,colour,0.06
133,21,1,2,15,21,721,1026.3358213894535,1027.0314663199242,"[51, 0, 203]",203,a,0.17255925806239247,colour,0.06
133,21,1,2,15,22,722,1027.5389159154147,1028.1993486576248,"[85, 0, 169]",169,l,0.13716432498767972,colour,0.06
133,21,1,2,15,23,723,1028.7107977585401,1029.4233591591474,"[98, 0, 156]",156,l,0.18927092803642154,colour,0.06
133,21,1,2,15,24,724,1029.929520091042,1030.6474149529822,"[70, 0, 184]",184,l,0.19458272820338607,colour,0.06
133,21,1,2,15,25,725,1031.1638820448425,1031.8153547921684,"[94, 0, 160]",160,l,0.12809917354024947,colour,0.06
133,21,1,2,15,26,726,1032.3357583740726,1032.9993726036046,"[82, 0, 172]",172,l,0.1404860217589885,colour,0.06
133,21,1,2,15,27,727,1033.507676844718,1034.1593890504446,"[78, 0, 176]",176,a,0.1284489086829126,colour,0.06
133,21,1,2,15,28,728,1034.6794992170762,1035.3113631638698,"[87, 0, 167]",167,l,0.10851754830218852,colour,0.06
133,21,1,2,15,29,729,1035.8201392325573,1036.4793939813972,"[67, 0, 187]",187,a,0.13587684277445078,colour,0.06
133,21,1,2,15,30,730,1036.9920387985185,1037.583331101574,"[38, 0, 216]",216,a,0.067912821425125,colour,0.06
133,21,1,2,15,31,731,1038.1024219950195,1038.7834028603975,"[58, 0, 196]",196,a,0.15774710685946047,colour,0.06
133,21,1,2,15,32,732,1039.2919178090524,1039.9033872324508,"[55, 0, 199]",199,a,0.08813759707845747,colour,0.06
133,21,1,2,15,33,733,1040.4169103261083,1041.0553479550872,"[92, 0, 162]",162,l,0.11506326752714813,colour,0.06
133,21,1,2,15,34,734,1041.5731706644874,1042.2153604635969,"[57, 0, 197]",197,a,0.11879968363791704,colour,0.06
133,21,1,2,15,35,735,1042.7294183999766,1043.2793718473986,"[75, 0, 179]",179,l,0.026713781291618943,colour,0.06
133,21,1,2,15,36,736,1043.791895753704,1044.3273513389286,"[91, 0, 163]",163,a,0.012890576850622892,colour,0.06
133,21,1,2,15,37,737,1044.8387256092392,1045.4553693803027,"[69, 0, 185]",185,a,0.09332179115153849,colour,0.06
133,21,1,2,15,38,738,1045.9638319476508,1046.6233978348318,"[79, 0, 175]",175,l,0.13630416570231318,colour,0.06
133,21,1,2,15,39,739,1047.135626356816,1047.8553774147294,"[84, 0, 170]",170,l,0.196633483748883,colour,0.06
133,21,1,2,15,40,740,1048.3700552645605,1048.9993387327995,"[50, 0, 204]",204,a,0.10482839355245233,colour,0.06
133,21,1,2,15,41,741,1049.5118945406284,1050.1193754863925,"[54, 0, 200]",200,a,0.08418850414454937,colour,0.06
133,21,1,2,15,42,742,1050.6368858760688,1051.3593513199594,"[60, 0, 194]",194,a,0.19916158076375723,colour,0.06
133,21,1,2,15,43,743,1051.873304099543,1052.4633502741344,"[86, 0, 168]",168,l,0.06664345622994006,colour,0.06
133,21,1,2,15,44,744,1052.9827322193887,1053.6073190751486,"[93, 0, 161]",161,l,0.1013353739399463,colour,0.06
133,21,1,2,15,45,745,1054.1233186717145,1054.8313732934184,"[65, 0, 189]",189,a,0.1846420569345355,colour,0.06
133,21,1,2,15,46,746,1055.3420540010557,1055.9113141694106,"[80, 0, 174]",174,l,0.04588935128413141,colour,0.06
133,21,1,2,15,47,747,1056.4202064226847,1057.0633721719496,"[20, 0, 234]",234,a,0.11989299999549985,colour,0.06
133,21,1,2,15,48,748,1057.57638287195,1058.1753551703878,"[71, 0, 183]",183,l,0.07559124147519469,colour,0.06
133,21,1,2,15,49,749,1058.6870019820053,1059.2873594365083,"[52, 0, 202]",202,a,0.07748682191595435,colour,0.06
133,21,1,2,15,50,750,1059.7963060403708,1060.4233575838152,"[83, 0, 171]",171,l,0.10427819075994194,colour,0.06
133,21,1,2,16,1,751,1064.8970297717024,1065.615341716446,"[64, 0, 190]",190,a,0.19427907280623913,colour,0.06
133,21,1,2,16,2,752,1066.132187294308,1066.9353364075068,"[90, 0, 164]",164,l,0.2798405238427222,colour,0.06
133,21,1,2,16,3,753,1067.4446977311745,1068.1033148437273,"[50, 0, 204]",204,a,0.1352620495017618,colour,0.06
133,21,1,2,16,4,754,1068.61660359893,1069.327351732878,"[96, 0, 158]",158,l,0.18751870770938694,colour,0.06
133,21,1,2,16,5,755,1069.835293635726,1070.5113081040327,"[70, 0, 184]",184,a,0.15291501116007566,colour,0.06
133,21,1,2,16,6,756,1071.0228576357476,1071.8073368768673,"[87, 0, 167]",167,l,0.2612915625795722,colour,0.06
133,21,1,2,16,7,757,1072.3197284510825,1072.9513076473959,"[89, 0, 165]",165,l,0.10834937612526119,colour,0.06
133,21,1,2,16,8,758,1073.4604149402585,1074.0793304147664,"[74, 0, 180]",180,l,0.09573173429816961,colour,0.06
133,21,1,2,16,9,759,1074.6008832389489,1075.3673361523543,"[58, 0, 196]",196,a,0.24358858237974346,colour,0.06
133,21,1,2,16,10,760,1075.8821869003586,1076.5913608323317,"[66, 0, 188]",188,a,0.1859559272415936,colour,0.06
133,21,1,2,16,11,761,1077.100917109754,1077.7833335434552,"[51, 0, 203]",203,a,0.15921457670629025,colour,0.06
133,21,1,2,16,12,762,1078.3040301466826,1078.9593228055164,"[72, 0, 182]",182,l,0.13194586662575603,colour,0.06
133,21,1,2,16,13,763,1079.4759297126438,1080.1513427782338,"[77, 0, 177]",177,l,0.15218088240362704,colour,0.06
133,21,1,2,16,14,764,1080.6633389312774,1081.3833554412704,"[80, 0, 174]",174,l,0.1966342714149505,colour,0.06
133,21,1,2,16,15,765,1081.8977473590057,1082.551343723666,"[10, 0, 244]",244,a,0.1286442563869059,colour,0.06
133,21,1,2,16,16,766,1083.071314468747,1083.7673189805355,"[63, 0, 191]",191,l,0.17279162700287998,colour,0.06
133,21,1,2,16,17,767,1084.2744180532172,1084.9592920856085,"[85, 0, 169]",169,l,0.161604433786124,colour,0.06
133,21,1,2,16,18,768,1085.47750194557,1086.167388455011,"[94, 0, 160]",160,l,0.16657555708661675,colour,0.06
133,21,1,2,16,19,769,1086.680642945692,1087.4073505040724,"[59, 0, 195]",195,a,0.2037262551020831,colour,0.06
133,21,1,2,16,20,770,1087.91496393946,1088.551310640527,"[79, 0, 175]",175,l,0.11303377943113446,colour,0.06
133,21,1,2,16,21,771,1089.0712183702271,1089.703311535297,"[61, 0, 193]",193,a,0.10883735097013414,colour,0.06
133,21,1,2,16,22,772,1090.211861930322,1090.975325946929,"[68, 0, 186]",186,l,0.24020426417700946,colour,0.06
133,21,1,2,16,23,773,1091.4930738257244,1092.1592972844373,"[92, 0, 162]",162,l,0.14293850027024746,colour,0.06
133,21,1,2,16,24,774,1092.6805818995927,1093.3593395047355,"[84, 0, 170]",170,l,0.1554824928753078,colour,0.06
133,21,1,2,16,25,775,1093.8701430922374,1094.423321350012,"[73, 0, 181]",181,l,0.029845250071957707,colour,0.06
133,21,1,2,16,26,776,1094.932655104436,1095.5513224559836,"[95, 0, 159]",159,l,0.0954005098901689,colour,0.06
133,21,1,2,16,27,777,1096.0577023660298,1096.6792987494264,"[55, 0, 199]",199,a,0.09827755414880812,colour,0.06
133,21,1,2,16,28,778,1097.198203353677,1097.8553151870146,"[52, 0, 202]",202,a,0.13381072715856135,colour,0.06
133,21,1,2,16,29,779,1098.3701308828313,1099.0153225755785,"[91, 0, 163]",163,l,0.12184686958789825,colour,0.06
133,21,1,2,16,30,780,1099.5263041814324,1100.2633537398651,"[76, 0, 178]",178,l,0.213795319898054,colour,0.06
133,21,1,2,16,31,781,1100.7764439966995,1101.4714115122333,"[69, 0, 185]",185,l,0.17191807669587433,colour,0.06
133,21,1,2,16,32,782,1101.9795015014242,1102.6472865592223,"[54, 0, 200]",200,a,0.14461273909546435,colour,0.06
133,21,1,2,16,33,783,1103.1669989414513,1103.9195971428417,"[53, 0, 201]",201,a,0.22937153209932148,colour,0.06
133,21,1,2,16,34,784,1104.4325727906544,1104.9993257357273,"[98, 0, 156]",156,l,0.0434006389696151,colour,0.06
133,21,1,2,16,35,785,1105.5014186331537,1106.1753319334239,"[82, 0, 172]",172,l,0.15068741864524782,colour,0.06
133,21,1,2,16,36,786,1106.6889562453143,1107.303324374603,"[93, 0, 161]",161,l,0.0910812015645206,colour,0.06
133,21,1,2,16,37,787,1107.8139117406681,1108.5673003911506,"[86, 0, 168]",168,l,0.23085869452916086,colour,0.06
133,21,1,2,16,38,788,1109.0795304884668,1109.6713253387716,"[14, 0, 240]",240,a,0.06854533799923956,colour,0.06
133,21,1,2,16,39,789,1110.1888558147475,1110.823310086038,"[75, 0, 179]",179,l,0.11110393446870148,colour,0.06
133,21,1,2,16,40,790,1111.3295210362412,1111.9993320372887,"[83, 0, 171]",171,l,0.14645711961202323,colour,0.06
133,21,1,2,16,41,791,1112.5169849991798,1113.3113229915034,"[78, 0, 176]",176,l,0.2709778090938926,colour,0.06
133,21,1,2,16,42,792,1113.8295324577484,1114.455335115781,"[60, 0, 194]",194,l,0.10253345337696373,colour,0.06
133,21,1,2,16,43,793,1114.970187045401,1115.663348383503,"[65, 0, 189]",189,l,0.17049353616312146,colour,0.06
133,21,1,2,16,44,794,1116.1732421868946,1116.823349864455,"[81, 0, 173]",173,l,0.12675773445516825,colour,0.06
133,21,1,2,16,45,795,1117.3294718053658,1117.967382468516,"[62, 0, 192]",192,a,0.11459183390252292,colour,0.06
133,21,1,2,16,46,796,1118.4860393437557,1119.2553310983349,"[67, 0, 187]",187,a,0.24657629732973874,colour,0.06
133,21,1,2,16,47,797,1119.7545697942842,1120.479311273899,"[33, 0, 221]",221,a,0.2014155611395836,colour,0.06
133,21,1,2,16,48,798,1120.9889427758753,1121.6473003437277,"[88, 0, 166]",166,l,0.13502456014975905,colour,0.06
133,21,1,2,16,49,799,1122.160655658925,1122.815372515237,"[99, 0, 155]",155,l,0.1313613993115723,colour,0.06
133,21,1,2,16,50,800,1123.3325820066966,1123.9833103853744,"[57, 0, 197]",197,a,0.12769351224415004,colour,0.06
