id,age,condition,counterbalance,block,trialinblock,trial,tstart,tend,trialstim,trialintensity,response,RT,trialtype,colourfreq
060,78,0,1,Practice,1,NA,5.907611921429634e-06,9.125729402527213,"[47, 0, 207]",207,a,8.601395632373169,colour,0.5
060,78,0,1,Practice,2,NA,9.64141510403715,18.013724348740652,"[84, 0, 170]",170,l,7.8489707231055945,colour,0.5
060,78,0,1,Practice,3,NA,18.53200431331061,25.973739141598344,"[53, 0, 201]",201,a,6.918458140455186,colour,0.5
060,78,0,1,Practice,4,NA,26.485137436306104,32.11783948726952,"[28, 0, 226]",226,l,5.1100819043349475,colour,0.5
060,78,0,1,Practice,5,NA,32.62570537789725,34.733688871143386,"[72, 0, 182]",182,a,1.5846619070507586,colour,0.5
060,78,0,1,Practice,6,NA,35.25107480539009,35.80573392380029,"[29, 0, 225]",225,l,0.03169396263547242,colour,0.5
060,78,0,1,Practice,7,NA,36.313172098016366,36.941721831215546,"[64, 0, 190]",190,a,0.1051391379442066,colour,0.5
060,78,0,1,Practice,8,NA,37.4537498857826,38.35768574546091,"[49, 0, 205]",205,a,0.38050951063632965,colour,0.5
060,78,0,1,Practice,9,NA,38.87562660872936,40.149732735939324,"[24, 0, 230]",230,a,0.7507101041264832,colour,0.5
060,78,0,1,Practice,10,NA,40.656996042467654,42.2379313793499,"[98, 0, 156]",156,l,1.0578126427717507,colour,0.5
060,78,0,1,1,1,1,5.218884203117341,7.704015731811523,"[63, 0, 191]",191,l,1.9611313459463418,colour,0.5
060,78,0,1,1,2,2,8.219699070323259,8.92003037338145,"[77, 0, 177]",177,a,0.1770384677220136,colour,0.5
060,78,0,1,1,3,3,9.438474178081378,10.48000916885212,"[70, 0, 184]",184,a,0.5183630660176277,colour,0.5
060,78,0,1,1,4,4,11.000915298005566,12.672037806129083,"[31, 0, 223]",223,a,1.1478915065526962,colour,0.5
060,78,0,1,1,5,5,13.18846039334312,14.024031296605244,"[29, 0, 225]",225,a,0.312220566207543,colour,0.5
060,78,0,1,1,6,6,14.532187845790759,15.472037333529443,"[74, 0, 180]",180,l,0.4166212431155145,colour,0.5
060,78,0,1,1,7,7,15.98536074720323,17.144206290366128,"[69, 0, 185]",185,l,0.6359520675614476,colour,0.5
060,78,0,1,1,8,8,17.657212264137343,18.456049946136773,"[8, 0, 246]",246,a,0.27559840958565474,colour,0.5
060,78,0,1,1,9,9,18.969694344094023,19.503970360849053,"[24, 0, 230]",230,l,0.011594036361202598,colour,0.5
060,78,0,1,1,10,10,20.01650923350826,20.976007694145665,"[37, 0, 217]",217,a,0.4363151143770665,colour,0.5
060,78,0,1,1,11,11,21.485236685723066,22.199996140319854,"[38, 0, 216]",216,a,0.1913693391252309,colour,0.5
060,78,0,1,1,12,12,22.719623845769092,23.28000239469111,"[34, 0, 220]",220,a,0.03695023059844971,colour,0.5
060,78,0,1,1,13,13,23.79771797801368,24.33601988782175,"[9, 0, 245]",245,a,0.014908249722793698,colour,0.5
060,78,0,1,1,14,14,24.844542319653556,25.608016970101744,"[86, 0, 168]",168,l,0.24000419047661126,colour,0.5
060,78,0,1,1,15,15,26.12583731650375,27.111977484775707,"[66, 0, 188]",188,l,0.4628166127949953,colour,0.5
060,78,0,1,1,16,16,27.625906239496544,28.43206630484201,"[88, 0, 166]",166,l,0.2828995252493769,colour,0.5
060,78,0,1,1,17,17,28.938421008875594,29.888048115419224,"[90, 0, 164]",164,l,0.4263728680089116,colour,0.5
060,78,0,1,1,18,18,30.407117347232997,31.288040002109483,"[97, 0, 157]",157,l,0.3576692040078342,colour,0.5
060,78,0,1,1,19,19,31.79763763351366,33.2880923836492,"[82, 0, 172]",172,l,0.9670922039076686,colour,0.5
060,78,0,1,1,20,20,33.797719553345814,46.096035783411935,"[87, 0, 167]",167,l,11.77511397912167,colour,0.5
060,78,0,1,1,21,21,46.610482051735744,47.37598185800016,"[52, 0, 202]",202,a,0.24245391227304935,colour,0.5
060,78,0,1,1,22,22,47.891439522616565,48.80795127665624,"[45, 0, 209]",209,a,0.39311454934068024,colour,0.5
060,78,0,1,1,23,23,49.32888812571764,50.199986688094214,"[65, 0, 189]",189,l,0.3477178991306573,colour,0.5
060,78,0,1,1,24,24,50.71952814119868,51.50398690230213,"[95, 0, 159]",159,l,0.2610883379820734,colour,0.5
060,78,0,1,1,25,25,52.016349725890905,52.75202121725306,"[94, 0, 160]",160,l,0.2124609698075801,colour,0.5
060,78,0,1,1,26,26,53.26644227956422,54.128033401444554,"[54, 0, 200]",200,l,0.33846448943950236,colour,0.5
060,78,0,1,1,27,27,54.64149663038552,55.495975682511926,"[76, 0, 178]",178,l,0.33122520754113793,colour,0.5
060,78,0,1,1,28,28,56.016414316603914,57.00000433227979,"[49, 0, 205]",205,a,0.46054963557980955,colour,0.5
060,78,0,1,1,29,29,57.516397774918005,58.26399334566668,"[78, 0, 176]",176,l,0.2244181321002543,colour,0.5
060,78,0,1,1,30,30,58.78202597494237,59.4160718282219,"[36, 0, 218]",218,a,0.11074317153543234,colour,0.5
060,78,0,1,1,31,31,59.922610458219424,60.91216527041979,"[41, 0, 213]",213,a,0.46605757088400424,colour,0.5
060,78,0,1,1,32,32,61.42262187972665,62.160001480951905,"[71, 0, 183]",183,l,0.21391583676449955,colour,0.5
060,78,0,1,1,33,33,62.672506876522675,63.591954751871526,"[73, 0, 181]",181,l,0.3960246767383069,colour,0.5
060,78,0,1,1,34,34,64.11009883973747,64.83998552220874,"[4, 0, 250]",250,a,0.2064942040015012,colour,0.5
060,78,0,1,1,35,35,65.36007796577178,70.4719991304446,"[51, 0, 203]",203,l,4.588542076991871,colour,0.5
060,78,0,1,1,36,36,70.99397415737621,71.79196191998199,"[19, 0, 235]",235,a,0.2834958080202341,colour,0.5
060,78,0,1,1,37,37,72.31335759954527,73.1199595599901,"[89, 0, 165]",165,l,0.28339537722058594,colour,0.5
060,78,0,1,1,38,38,73.64138438436203,74.63996141892858,"[56, 0, 198]",198,l,0.47527553467079997,colour,0.5
060,78,0,1,1,39,39,75.15691294125281,75.87997703091241,"[1, 0, 253]",253,a,0.19969012192450464,colour,0.5
060,78,0,1,1,40,40,76.39130010129884,77.04002262256108,"[25, 0, 229]",229,a,0.12543874443508685,colour,0.5
060,78,0,1,1,41,41,77.54784637177363,78.69598718266934,"[40, 0, 214]",214,a,0.6251039751805365,colour,0.5
060,78,0,1,1,42,42,79.20381014421582,80.27194745792076,"[47, 0, 207]",207,a,0.5448019427713007,colour,0.5
060,78,0,1,1,43,43,80.78195429500192,81.77597610792145,"[22, 0, 232]",232,a,0.47076481743715703,colour,0.5
060,78,0,1,1,44,44,82.29752105497755,82.96801774203777,"[72, 0, 182]",182,l,0.14708530390635133,colour,0.5
060,78,0,1,1,45,45,83.48496965807863,84.17594712064601,"[15, 0, 239]",239,a,0.16754914401099086,colour,0.5
060,78,0,1,1,46,46,84.68816461507231,85.37600391334854,"[0, 0, 254]",254,a,0.16446139197796583,colour,0.5
060,78,0,1,1,47,47,85.89119100593962,86.56011506612413,"[26, 0, 228]",228,a,0.14543666481040418,colour,0.5
060,78,0,1,1,48,48,87.07874122122303,87.65607089875266,"[13, 0, 241]",241,a,0.05488794296979904,colour,0.5
060,78,0,1,1,49,49,88.18810159969144,89.03198974113911,"[3, 0, 251]",251,a,0.32102302252314985,colour,0.5
060,78,0,1,1,50,50,89.54736430430785,90.3040254204534,"[14, 0, 240]",240,a,0.2331524530891329,colour,0.5
060,78,0,1,2,1,51,97.68734502163716,98.77598004625179,"[7, 0, 247]",247,a,0.5645159003324807,colour,0.5
060,78,0,1,2,2,52,99.28200352587737,100.11197394016199,"[89, 0, 165]",165,a,0.30646017589606345,colour,0.5
060,78,0,1,2,3,53,100.62555492902175,101.27997364383191,"[34, 0, 220]",220,a,0.1312377315480262,colour,0.5
060,78,0,1,2,4,54,101.7974269259721,102.59194687497802,"[83, 0, 171]",171,l,0.27223417768254876,colour,0.5
060,78,0,1,2,5,55,103.10995114734396,103.69605728727765,"[5, 0, 249]",249,a,0.06296493508853018,colour,0.5
060,78,0,1,2,6,56,104.20369041524827,104.8640668373555,"[99, 0, 155]",155,l,0.13754517422057688,colour,0.5
060,78,0,1,2,7,57,105.37557698437013,106.08804031740874,"[17, 0, 237]",237,a,0.18950014654546976,colour,0.5
060,78,0,1,2,8,58,106.59431270742789,107.49601034098305,"[25, 0, 229]",229,l,0.37746114330366254,colour,0.5
060,78,0,1,2,9,59,108.0162697751075,108.71214549941942,"[59, 0, 195]",195,a,0.17244071047753096,colour,0.5
060,78,0,1,2,10,60,109.21941865189001,110.33599783224054,"[91, 0, 163]",163,l,0.5934064676985145,colour,0.5
060,78,0,1,2,11,61,110.84432688588277,111.7599426403176,"[1, 0, 253]",253,a,0.39222957752645016,colour,0.5
060,78,0,1,2,12,62,112.2662307843566,112.8639459265396,"[80, 0, 174]",174,l,0.07458772207610309,colour,0.5
060,78,0,1,2,13,63,113.37561085517518,113.9279884241987,"[30, 0, 224]",224,a,0.02898548450320959,colour,0.5
060,78,0,1,2,14,64,114.43812247365713,115.20796167408116,"[77, 0, 177]",177,l,0.24646680825389922,colour,0.5
060,78,0,1,2,15,65,115.71943007363006,116.48003161791712,"[57, 0, 197]",197,a,0.23733037034980953,colour,0.5
060,78,0,1,2,16,66,117.000591162825,117.94399117166176,"[97, 0, 157]",157,l,0.4202406872063875,colour,0.5
060,78,0,1,2,17,67,118.45375343039632,121.9039752446115,"[73, 0, 181]",181,l,2.926861237268895,colour,0.5
060,78,0,1,2,18,68,122.42252184287645,123.03195508266799,"[74, 0, 180]",180,a,0.08605887833982706,colour,0.5
060,78,0,1,2,19,69,123.54743559053168,124.6159230330959,"[63, 0, 191]",191,l,0.5451603424735367,colour,0.5
060,78,0,1,2,20,70,125.12558998120949,126.11991544929333,"[87, 0, 167]",167,l,0.4710188480094075,colour,0.5
060,78,0,1,2,21,71,126.64118864294142,127.35994642134756,"[12, 0, 242]",242,a,0.19536333088763058,colour,0.5
060,78,0,1,2,22,72,127.8756289719604,128.45597314601764,"[28, 0, 226]",226,a,0.057038735365495086,colour,0.5
060,78,0,1,2,23,73,128.96932294755243,129.59192403196357,"[82, 0, 172]",172,l,0.09990610717795789,colour,0.5
060,78,0,1,2,24,74,130.109969264362,131.12797038606368,"[66, 0, 188]",188,l,0.4947319170460105,colour,0.5
060,78,0,1,2,25,75,131.64125717198476,132.67198424320668,"[56, 0, 198]",198,l,0.507365706609562,colour,0.5
060,78,0,1,2,26,76,133.18813428888097,134.1279353336431,"[41, 0, 213]",213,a,0.41679611057043076,colour,0.5
060,78,0,1,2,27,77,134.64102440909483,135.80000307201408,"[21, 0, 233]",233,a,0.6358500611968338,colour,0.5
060,78,0,1,2,28,78,136.3128920737654,137.13605840597302,"[4, 0, 250]",250,a,0.30035477643832564,colour,0.5
060,78,0,1,2,29,79,137.65666915057227,138.3280027601868,"[81, 0, 173]",173,l,0.14850078616291285,colour,0.5
060,78,0,1,2,30,80,138.84411932900548,139.52792564523406,"[3, 0, 251]",251,a,0.16140475403517485,colour,0.5
060,78,0,1,2,31,81,140.04725639056414,140.80798160284758,"[0, 0, 254]",254,a,0.2383220747578889,colour,0.5
060,78,0,1,2,32,82,141.32850176282227,141.87993134488352,"[69, 0, 185]",185,l,0.028942161472514272,colour,0.5
060,78,0,1,2,33,83,142.3911275966093,142.92788563040085,"[33, 0, 221]",221,a,0.013446293538436294,colour,0.5
060,78,0,1,2,34,84,143.43806182127446,144.911943141371,"[19, 0, 235]",235,l,0.9505254693794996,colour,0.5
060,78,0,1,2,35,85,145.4224292889703,146.64792222646065,"[96, 0, 158]",158,l,0.7020953390747309,colour,0.5
060,78,0,1,2,36,86,147.1568251135759,147.73594048828818,"[94, 0, 160]",160,a,0.055882797576487064,colour,0.5
060,78,0,1,2,37,87,148.25052302749828,149.22394945542328,"[45, 0, 209]",209,a,0.45011114329099655,colour,0.5
060,78,0,1,2,38,88,149.73474674136378,150.60795395472087,"[10, 0, 244]",244,a,0.3498273380100727,colour,0.5
060,78,0,1,2,39,89,151.12550254748203,152.01591649535112,"[2, 0, 252]",252,a,0.3670935432892293,colour,0.5
060,78,0,1,2,40,90,152.53174004284665,153.18395597767085,"[78, 0, 176]",176,l,0.12888765311799943,colour,0.5
060,78,0,1,2,41,91,153.70364866754971,154.48812081944197,"[44, 0, 210]",210,a,0.26108951959758997,colour,0.5
060,78,0,1,2,42,92,155.0004533168394,155.68800195679069,"[39, 0, 215]",215,l,0.16415222315117717,colour,0.5
060,78,0,1,2,43,93,156.203667572001,157.09595031873323,"[61, 0, 193]",193,l,0.36891626194119453,colour,0.5
060,78,0,1,2,44,94,157.60988222435117,158.38391982251778,"[75, 0, 179]",179,l,0.25083337794058025,colour,0.5
060,78,0,1,2,45,95,158.89115674141794,159.59189488738775,"[15, 0, 239]",239,a,0.17740001832135022,colour,0.5
060,78,0,1,2,46,96,160.10985504905693,161.15989396092482,"[79, 0, 175]",175,l,0.5268673810642213,colour,0.5
060,78,0,1,2,47,97,161.6723056214396,162.21591736166738,"[64, 0, 190]",190,a,0.020233440212905407,colour,0.5
060,78,0,1,2,48,98,162.7347892767284,164.70391254429705,"[13, 0, 241]",241,a,1.4459174720104784,colour,0.5
060,78,0,1,2,49,99,165.21925284294412,166.07997829141095,"[9, 0, 245]",245,a,0.33748853928409517,colour,0.5
060,78,0,1,2,50,100,166.5942414214369,167.50405385624617,"[29, 0, 225]",225,a,0.3865215687546879,colour,0.5
060,78,0,1,3,1,101,175.18716109567322,176.51190478075296,"[88, 0, 166]",166,l,0.80077816080302,colour,0.5
060,78,0,1,3,2,102,177.0317995136138,178.16794614098035,"[90, 0, 164]",164,l,0.6129431950394064,colour,0.5
060,78,0,1,3,3,103,178.6879822644405,179.28798092529178,"[48, 0, 206]",206,a,0.0766416285187006,colour,0.5
060,78,0,1,3,4,104,179.7973371290136,180.39191253157333,"[59, 0, 195]",195,a,0.07130107772536576,colour,0.5
060,78,0,1,3,5,105,180.90670695970766,181.62392992060632,"[41, 0, 213]",213,a,0.19401283306069672,colour,0.5
060,78,0,1,3,6,106,182.14102952904068,182.8959077047184,"[13, 0, 241]",241,a,0.23162590619176626,colour,0.5
060,78,0,1,3,7,107,183.40663331071846,184.25600339355879,"[93, 0, 161]",161,l,0.326050465926528,colour,0.5
060,78,0,1,3,8,108,184.76607048907317,185.54389688489027,"[30, 0, 224]",224,a,0.2546276894863695,colour,0.5
060,78,0,1,3,9,109,186.05056745326146,187.15188904269598,"[68, 0, 186]",186,l,0.5778798800893128,colour,0.5
060,78,0,1,3,10,110,187.65997430565767,188.48792704730295,"[14, 0, 240]",240,a,0.304636275395751,colour,0.5
060,78,0,1,3,11,111,189.00373917329125,189.95991869457066,"[47, 0, 207]",207,l,0.4328153997194022,colour,0.5
060,78,0,1,3,12,112,190.4724280287046,191.06392867607065,"[8, 0, 246]",246,a,0.06807075347751379,colour,0.5
060,78,0,1,3,13,113,191.58191246865317,192.77590245869942,"[15, 0, 239]",239,a,0.6706999114248902,colour,0.5
060,78,0,1,3,14,114,193.28509245929308,194.04789993492886,"[76, 0, 178]",178,l,0.24004003056325018,colour,0.5
060,78,0,1,3,15,115,194.56619447167031,195.51993136061355,"[54, 0, 200]",200,l,0.4305582686793059,colour,0.5
060,78,0,1,3,16,116,196.0349368902389,196.79189654137008,"[39, 0, 215]",215,a,0.23362467414699495,colour,0.5
060,78,0,1,3,17,117,197.30052609951235,198.40792354987934,"[32, 0, 222]",222,a,0.5838446766138077,colour,0.5
060,78,0,1,3,18,118,198.92563243792392,199.79198633832857,"[33, 0, 221]",221,a,0.3429929297417402,colour,0.5
060,78,0,1,3,19,119,200.3005387026351,201.46393946744502,"[11, 0, 243]",243,l,0.6400110432878137,colour,0.5
060,78,0,1,3,20,120,201.97242527175695,202.64790450339206,"[52, 0, 202]",202,a,0.1529394295066595,colour,0.5
060,78,0,1,3,21,121,203.160011327127,204.16786500858143,"[25, 0, 229]",229,a,0.4852319594938308,colour,0.5
060,78,0,1,3,22,122,204.67554618557915,212.3917931963224,"[43, 0, 211]",211,l,7.192943935282528,colour,0.5
060,78,0,1,3,23,123,212.90998848411255,214.47991425194778,"[38, 0, 216]",216,a,1.0466463232878596,colour,0.5
060,78,0,1,3,24,124,214.98816965636797,215.91990788746625,"[24, 0, 230]",230,a,0.4085572478361428,colour,0.5
060,78,0,1,3,25,125,216.4411330318544,217.11185578629375,"[10, 0, 244]",244,a,0.14732003607787192,colour,0.5
060,78,0,1,3,26,126,217.6287076654844,218.57587165990844,"[31, 0, 223]",223,a,0.42385973734781146,colour,0.5
060,78,0,1,3,27,127,219.09744732710533,219.83991108532064,"[86, 0, 168]",168,l,0.21919967350549996,colour,0.5
060,78,0,1,3,28,128,220.34739100723527,220.96789722517133,"[18, 0, 236]",236,a,0.09712476725690067,colour,0.5
060,78,0,1,3,29,129,221.4881279086694,222.31194251123816,"[62, 0, 192]",192,l,0.30055130552500486,colour,0.5
060,78,0,1,3,30,130,222.83173799491487,229.26392442267388,"[57, 0, 197]",197,l,5.908867992460728,colour,0.5
060,78,0,1,3,31,131,229.78486166568473,230.87188389105722,"[4, 0, 250]",250,a,0.5637010331265628,colour,0.5
060,78,0,1,3,32,132,231.37856666883454,231.95186297013424,"[21, 0, 233]",233,a,0.04990500444546342,colour,0.5
060,78,0,1,3,33,133,232.47229175805114,233.27987715159543,"[65, 0, 189]",189,l,0.2839361275546253,colour,0.5
060,78,0,1,3,34,134,233.80045363190584,234.56789943063632,"[73, 0, 181]",181,l,0.24424315406940877,colour,0.5
060,78,0,1,3,35,135,235.0817860441748,235.8798899911344,"[58, 0, 196]",196,l,0.27534359134733677,colour,0.5
060,78,0,1,3,36,136,236.3942070780322,236.97586748516187,"[9, 0, 245]",245,a,0.058229331858456135,colour,0.5
060,78,0,1,3,37,137,237.48797470261343,238.24789095507003,"[87, 0, 167]",167,l,0.23655606945976615,colour,0.5
060,78,0,1,3,38,138,238.76928348396905,239.48792035179213,"[71, 0, 183]",183,l,0.19526802003383636,colour,0.5
060,78,0,1,3,39,139,240.0036730072461,240.71985700260848,"[78, 0, 176]",176,l,0.19293802767060697,colour,0.5
060,78,0,1,3,40,140,241.23804323165677,242.0798510790337,"[83, 0, 171]",171,l,0.31851698108948767,colour,0.5
060,78,0,1,3,41,141,242.59730081656016,243.23992305831052,"[29, 0, 225]",225,a,0.1192632403690368,colour,0.5
060,78,0,1,3,42,142,243.75362929026596,245.24786850600503,"[94, 0, 160]",160,l,0.9708211373072118,colour,0.5
060,78,0,1,3,43,143,245.76920235180296,246.47988392575644,"[0, 0, 254]",254,a,0.1873588061425835,colour,0.5
060,78,0,1,3,44,144,246.9880034532398,247.74384340061806,"[85, 0, 169]",169,l,0.23253096407279372,colour,0.5
060,78,0,1,3,45,145,248.25357060716487,249.27191949472763,"[66, 0, 188]",188,l,0.49495719675906,colour,0.5
060,78,0,1,3,46,146,249.78477501962334,250.50385732692666,"[36, 0, 218]",218,a,0.1957059765700251,colour,0.5
060,78,0,1,3,47,147,251.0191094041802,251.71183987497352,"[81, 0, 173]",173,l,0.1693001831881702,colour,0.5
060,78,0,1,3,48,148,252.2222846688237,253.151898101205,"[97, 0, 157]",157,l,0.4062623076606542,colour,0.5
060,78,0,1,3,49,149,253.65973878582008,254.65585310175084,"[91, 0, 163]",163,l,0.4726958437822759,colour,0.5
060,78,0,1,3,50,150,255.17543393955566,255.83190301642753,"[80, 0, 174]",174,l,0.13368469662964344,colour,0.5
060,78,0,1,4,1,151,260.5339877214283,271.23987658461556,"[30, 0, 224]",224,l,10.18174453265965,colour,0.5
060,78,0,1,4,2,152,271.75356115493923,272.9039134106133,"[71, 0, 183]",183,l,0.6273236908018589,colour,0.5
060,78,0,1,4,3,153,273.42538904119283,274.2479236444924,"[24, 0, 230]",230,a,0.2991783586330712,colour,0.5
060,78,0,1,4,4,154,274.76914563798346,275.5438724665437,"[83, 0, 171]",171,l,0.2513977591879666,colour,0.5
060,78,0,1,4,5,155,276.0503256318625,276.9038484261837,"[78, 0, 176]",176,l,0.3302232634741813,colour,0.5
060,78,0,1,4,6,156,277.4253122410737,278.03985957033,"[99, 0, 155]",155,l,0.09117651218548417,colour,0.5
060,78,0,1,4,7,157,278.5503189365845,279.40790700842626,"[40, 0, 214]",214,a,0.33439803030341864,colour,0.5
060,78,0,1,4,8,158,279.9253059395123,281.1518736826256,"[52, 0, 202]",202,a,0.7031622675713152,colour,0.5
060,78,0,1,4,9,159,281.659695856506,282.5198474714998,"[31, 0, 223]",223,a,0.33681900100782514,colour,0.5
060,78,0,1,4,10,160,283.03464071801864,283.8318474839907,"[82, 0, 172]",172,l,0.27381468121893704,colour,0.5
060,78,0,1,4,11,161,284.3471680902876,285.02378356759436,"[29, 0, 225]",225,a,0.15327892475761473,colour,0.5
060,78,0,1,4,12,162,285.534695856506,286.1598203117028,"[92, 0, 162]",162,l,0.10201869648881257,colour,0.5
060,78,0,1,4,13,163,286.67532248119824,287.57591616455466,"[65, 0, 189]",189,l,0.3771775742061436,colour,0.5
060,78,0,1,4,14,164,288.0972649764735,288.9038618169725,"[98, 0, 156]",156,l,0.28337214048951864,colour,0.5
060,78,0,1,4,15,165,289.42523268423975,290.23185788164847,"[73, 0, 181]",181,l,0.2831921528559178,colour,0.5
060,78,0,1,4,16,166,290.73782701045275,291.35182886291295,"[56, 0, 198]",198,a,0.0909969185013324,colour,0.5
060,78,0,1,4,17,167,291.86277817352675,292.7678589434363,"[93, 0, 161]",161,l,0.3817832083441317,colour,0.5
060,78,0,1,4,18,168,293.28464308124967,294.15987190557644,"[75, 0, 179]",179,l,0.3519005428534001,colour,0.5
060,78,0,1,4,19,169,294.67524489341304,295.4878108627163,"[18, 0, 236]",236,a,0.2892144506331533,colour,0.5
060,78,0,1,4,20,170,296.00335556734353,296.77587488945574,"[68, 0, 186]",186,l,0.24909336678683758,colour,0.5
060,78,0,1,4,21,171,297.2846103918273,298.17585496092215,"[53, 0, 201]",201,l,0.36786036123521626,colour,0.5
060,78,0,1,4,22,172,298.69087348738685,303.5918165119365,"[96, 0, 158]",158,l,4.377535186242312,colour,0.5
060,78,0,1,4,23,173,304.1128077118192,305.04787433496676,"[45, 0, 209]",209,a,0.41231178119778633,colour,0.5
060,78,0,1,4,24,174,305.56587466876954,307.183738180669,"[76, 0, 178]",178,l,1.0946659869514406,colour,0.5
060,78,0,1,4,25,175,307.69086600420997,308.8638360435143,"[11, 0, 243]",243,l,0.649959591217339,colour,0.5
060,78,0,1,4,26,176,309.3783453274518,310.6878633229062,"[88, 0, 166]",166,l,0.7861491478979588,colour,0.5
060,78,0,1,4,27,177,311.20648672105744,312.3598479598295,"[8, 0, 246]",246,a,0.6299817571416497,colour,0.5
060,78,0,1,4,28,178,312.8783662011847,313.895796246361,"[67, 0, 187]",187,l,0.49407931440509856,colour,0.5
060,78,0,1,4,29,179,314.40958754881285,315.50386717310175,"[37, 0, 217]",217,a,0.5709588257595897,colour,0.5
060,78,0,1,4,30,180,316.01901212427765,317.0478270733729,"[61, 0, 193]",193,l,0.5055327476002276,colour,0.5
060,78,0,1,4,31,181,317.56585143203847,318.4159394958988,"[44, 0, 210]",210,l,0.32690904987975955,colour,0.5
060,78,0,1,4,32,182,318.9252744319383,319.46383391693234,"[69, 0, 185]",185,a,0.015187486540526152,colour,0.5
060,78,0,1,4,33,183,319.97219999181107,320.8798419418745,"[28, 0, 226]",226,l,0.3850631571840495,colour,0.5
060,78,0,1,4,34,184,321.393992037978,323.60000063013285,"[89, 0, 165]",165,l,1.6827177258674055,colour,0.5
060,78,0,1,4,35,185,324.1126812873408,325.65582198812626,"[35, 0, 219]",219,l,1.0197769729420543,colour,0.5
060,78,0,1,4,36,186,326.1751708504744,326.97581510362215,"[22, 0, 232]",232,a,0.2772667407989502,colour,0.5
060,78,0,1,4,37,187,327.48775375494733,328.1118443647865,"[41, 0, 213]",213,a,0.10080643882974982,colour,0.5
060,78,0,1,4,38,188,328.62835162878036,329.3598416582681,"[25, 0, 229]",229,a,0.20830589532852173,colour,0.5
060,78,0,1,4,39,189,329.87830357975326,331.1118955647107,"[46, 0, 208]",208,a,0.7110529707279056,colour,0.5
060,78,0,1,4,40,190,331.6283051550854,332.6478714204859,"[39, 0, 215]",215,a,0.49645971902646124,colour,0.5
060,78,0,1,4,41,191,333.1595044473652,334.0318471689243,"[49, 0, 205]",205,l,0.3490156214684248,colour,0.5
060,78,0,1,4,42,192,334.5501121673733,335.5278764143586,"[47, 0, 207]",207,a,0.4544639284722507,colour,0.5
060,78,0,1,4,43,193,336.0345170504879,337.00784816779196,"[14, 0, 240]",240,l,0.45003946335054934,colour,0.5
060,78,0,1,4,44,194,337.51887427805923,338.5118665776681,"[94, 0, 160]",160,a,0.46953719947487116,colour,0.5
060,78,0,1,4,45,195,339.01888136728667,340.19183171447366,"[3, 0, 251]",251,l,0.6495558994356543,colour,0.5
060,78,0,1,4,46,196,340.7063496627379,343.23182794917375,"[81, 0, 173]",173,a,2.0020023125689477,colour,0.5
060,78,0,1,4,47,197,343.7532271735836,347.54383859573863,"[0, 0, 254]",254,l,3.267180740600452,colour,0.5
060,78,0,1,4,48,198,348.0500999582,348.9918044602964,"[9, 0, 245]",245,a,0.4184821650851518,colour,0.5
060,78,0,1,4,49,199,349.5033906195313,350.40786132216454,"[4, 0, 250]",250,a,0.3811991347465664,colour,0.5
060,78,0,1,4,50,200,350.925066875061,351.6798426506575,"[80, 0, 174]",174,l,0.23142425692640245,colour,0.5
060,78,0,1,5,1,201,357.45554976165295,358.3758503133431,"[80, 0, 174]",174,a,0.39608493517152965,colour,0.5
060,78,0,1,5,2,202,358.8938707334455,361.3438026770018,"[93, 0, 161]",161,l,1.9265725479926914,colour,0.5
060,78,0,1,5,3,203,361.86258243210614,362.5518482401967,"[73, 0, 181]",181,l,0.16593083110637963,colour,0.5
060,78,0,1,5,4,204,363.06568562285975,363.85580394999124,"[23, 0, 231]",231,a,0.2669558546040207,colour,0.5
060,78,0,1,5,5,205,364.3625599828083,365.76778529421426,"[38, 0, 216]",216,a,0.8819372020661831,colour,0.5
060,78,0,1,5,6,206,366.2843823551666,371.4558337246999,"[77, 0, 177]",177,l,4.648030928103253,colour,0.5
060,78,0,1,5,7,207,371.9719514751341,372.89582460327074,"[99, 0, 155]",155,l,0.40135971386916935,colour,0.5
060,78,0,1,5,8,208,373.40941307507455,374.1678413779009,"[4, 0, 250]",250,a,0.23612323286943138,colour,0.5
060,78,0,1,5,9,209,374.67495069047436,375.94383993488736,"[62, 0, 192]",192,l,0.745483768871054,colour,0.5
060,78,0,1,5,10,210,376.45617321971804,377.4397860786412,"[98, 0, 156]",156,l,0.4600671741645783,colour,0.5
060,78,0,1,5,11,211,377.9561838535592,378.99982592021115,"[54, 0, 200]",200,l,0.5201901174150407,colour,0.5
060,78,0,1,5,12,212,379.5187415520195,380.31977571267635,"[27, 0, 227]",227,a,0.2776389252394438,colour,0.5
060,78,0,1,5,13,213,380.8312606536783,382.11181246326305,"[52, 0, 202]",202,a,0.7572916634380817,colour,0.5
060,78,0,1,5,14,214,382.6282263859175,383.5278204882052,"[17, 0, 237]",237,a,0.3764190268702805,colour,0.5
060,78,0,1,5,15,215,384.03437605360523,384.9438084270805,"[32, 0, 222]",222,a,0.3865034517366439,colour,0.5
060,78,0,1,5,16,216,385.45632327510975,386.33577215857804,"[29, 0, 225]",225,a,0.3560079620219767,colour,0.5
060,78,0,1,5,17,217,386.84707632428035,387.73582863621414,"[53, 0, 201]",201,l,0.3653637720271945,colour,0.5
060,78,0,1,5,18,218,388.25317479204386,388.83987760846503,"[15, 0, 239]",239,a,0.06322132865898311,colour,0.5
060,78,0,1,5,19,219,389.3470010997262,390.11177189718,"[71, 0, 183]",183,l,0.24145039287395775,colour,0.5
060,78,0,1,5,20,220,390.6282626197208,391.35178869077936,"[83, 0, 171]",171,l,0.20019542635418475,colour,0.5
060,78,0,1,5,21,221,391.8625922782812,392.89582145237364,"[51, 0, 203]",203,l,0.5098685971461236,colour,0.5
060,78,0,1,5,22,222,393.40949302585796,394.19180414523,"[49, 0, 205]",205,a,0.2590375824365765,colour,0.5
060,78,0,1,5,23,223,394.70629413053393,395.567855713889,"[76, 0, 178]",178,l,0.3381163296289742,colour,0.5
060,78,0,1,5,24,224,396.0813480874058,396.959809205262,"[56, 0, 198]",198,l,0.3551533161662519,colour,0.5
060,78,0,1,5,25,225,397.47198061970994,398.75176403601654,"[92, 0, 162]",162,l,0.7565020024776459,colour,0.5
060,78,0,1,5,26,226,399.26875966903754,400.22376671107486,"[63, 0, 191]",191,l,0.4316992403473705,colour,0.5
060,78,0,1,5,27,227,400.7375402904581,402.35179341677576,"[0, 0, 254]",254,l,1.0911985675338656,colour,0.5
060,78,0,1,5,28,228,402.8625619520899,403.6318013253622,"[65, 0, 189]",189,a,0.24584689480252564,colour,0.5
060,78,0,1,5,29,229,404.1438337119762,405.04782077181153,"[22, 0, 232]",232,l,0.3806268766056746,colour,0.5
060,78,0,1,5,30,230,405.5657789641991,407.44778430159204,"[36, 0, 218]",218,l,1.3588046617805958,colour,0.5
060,78,0,1,5,31,231,407.956303976709,409.21579211880453,"[82, 0, 172]",172,l,0.7360503713134676,colour,0.5
060,78,0,1,5,32,232,409.7219660473056,411.4958342916798,"[35, 0, 219]",219,l,1.250463556498289,colour,0.5
060,78,0,1,5,33,233,412.00316888443194,413.0637994946446,"[41, 0, 213]",213,a,0.5372263165190816,colour,0.5
060,78,0,1,5,34,234,413.58133312128484,414.31977374339476,"[64, 0, 190]",190,l,0.21519938041456044,colour,0.5
060,78,0,1,5,35,235,414.8312425366603,415.79982899222523,"[16, 0, 238]",238,a,0.44513962627388537,colour,0.5
060,78,0,1,5,36,236,416.3156281213742,417.39177704858594,"[44, 0, 210]",210,l,0.5528738149441779,colour,0.5
060,78,0,1,5,37,237,417.9094567920547,418.9997632987797,"[34, 0, 220]",220,l,0.567035726737231,colour,0.5
060,78,0,1,5,38,238,419.51883883192204,420.4077711314894,"[25, 0, 229]",229,a,0.3656902702059597,colour,0.5
060,78,0,1,5,39,239,420.9249597489834,421.5678537446074,"[74, 0, 180]",180,l,0.11961573245935142,colour,0.5
060,78,0,1,5,40,240,422.08122126897797,423.0877579296939,"[55, 0, 199]",199,l,0.48320522834546864,colour,0.5
060,78,0,1,5,41,241,423.59699755511247,424.4878285857849,"[30, 0, 224]",224,a,0.3675500105600804,colour,0.5
060,78,0,1,5,42,242,425.0031149275601,425.7597870712634,"[3, 0, 251]",251,l,0.23322177003137767,colour,0.5
060,78,0,1,5,43,243,426.26893099187873,427.16779608558863,"[94, 0, 160]",160,l,0.37570459046401083,colour,0.5
060,78,0,1,5,44,244,427.67501291818917,428.503789979266,"[18, 0, 236]",236,a,0.30549564701505005,colour,0.5
060,78,0,1,5,45,245,429.01875573047437,430.135782713769,"[6, 0, 248]",248,l,0.5937298154458404,colour,0.5
060,78,0,1,5,46,246,430.64374982286245,431.7998211153317,"[33, 0, 221]",221,l,0.6327457677107304,colour,0.5
060,78,0,1,5,47,247,432.3156230014283,433.4077829469461,"[43, 0, 211]",211,a,0.5689498179126531,colour,0.5
060,78,0,1,5,48,248,433.92497944133356,435.703774304362,"[85, 0, 169]",169,l,1.255437043029815,colour,0.5
060,78,0,1,5,49,249,436.2218301706016,437.1197906001471,"[28, 0, 226]",226,a,0.37462427094578743,colour,0.5
060,78,0,1,5,50,250,437.6281031121034,438.4637291538529,"[88, 0, 166]",166,l,0.3122615262400359,colour,0.5
060,78,0,1,6,1,251,445.26785421720706,446.0718032314908,"[84, 0, 170]",170,l,0.27987872692756355,colour,0.5
060,78,0,1,6,2,252,446.58125868439674,447.247746019857,"[11, 0, 243]",243,a,0.1432264014147222,colour,0.5
060,78,0,1,6,3,253,447.7686304876115,448.4797665597871,"[70, 0, 184]",184,l,0.18777273828163743,colour,0.5
060,78,0,1,6,4,254,448.9874244998209,449.65582868340425,"[74, 0, 180]",180,a,0.14500658516772091,colour,0.5
060,78,0,1,6,5,255,450.1749888935592,450.93573655490763,"[75, 0, 179]",179,l,0.23743119509890676,colour,0.5
060,78,0,1,6,6,256,451.45623308443464,452.2397706399206,"[14, 0, 240]",240,a,0.26026874454692006,colour,0.5
060,78,0,1,6,7,257,452.7532208720222,453.367735512089,"[98, 0, 156]",156,l,0.09119384153746068,colour,0.5
060,78,0,1,6,8,258,453.8781665212009,455.1837673254777,"[43, 0, 211]",211,l,0.7822949718683958,colour,0.5
060,78,0,1,6,9,259,455.6906529336702,456.80776892602444,"[6, 0, 248]",248,a,0.59383615385741,colour,0.5
060,78,0,1,6,10,260,457.3157553335186,458.06376641173847,"[3, 0, 251]",251,a,0.2248426980804652,colour,0.5
060,78,0,1,6,11,261,458.5812960998155,459.35971956606954,"[8, 0, 246]",246,a,0.2550707662012428,colour,0.5
060,78,0,1,6,12,262,459.8781625828706,460.53573560970835,"[4, 0, 250]",250,a,0.1342975206207484,colour,0.5
060,78,0,1,6,13,263,461.04995069047436,461.80777365202084,"[93, 0, 161]",161,l,0.2346726981922984,colour,0.5
060,78,0,1,6,14,264,462.31562654604204,463.07973056216724,"[40, 0, 214]",214,a,0.24086277466267347,colour,0.5
060,78,0,1,6,15,265,463.5969113027677,464.4397325157188,"[89, 0, 165]",165,l,0.3195417681708932,colour,0.5
060,78,0,1,6,16,266,464.9562539581675,465.711742595071,"[27, 0, 227]",227,a,0.23217177670449018,colour,0.5
060,78,0,1,6,17,267,466.22185261989944,467.19966609752737,"[77, 0, 177]",177,l,0.4544383285101503,colour,0.5
060,78,0,1,6,18,268,467.7062515951693,468.47979609807953,"[72, 0, 182]",182,l,0.25021346448920667,colour,0.5
060,78,0,1,6,19,269,468.98752808128484,470.3357438016683,"[42, 0, 212]",212,a,0.8248779864516109,colour,0.5
060,78,0,1,6,20,270,470.8468266259879,471.6957221245393,"[28, 0, 226]",226,l,0.3255656415130943,colour,0.5
060,78,0,1,6,21,271,472.20619409368373,473.5118027746212,"[90, 0, 164]",164,a,0.7822630701120943,colour,0.5
060,78,0,1,6,22,272,474.0186092199292,478.1517460765317,"[9, 0, 245]",245,l,3.6099602058529854,colour,0.5
060,78,0,1,6,23,273,478.6593532105908,479.9917465648614,"[45, 0, 209]",209,a,0.8088988696690649,colour,0.5
060,78,0,1,6,24,274,480.5032007859554,482.27973064105026,"[38, 0, 216]",216,l,1.253132650628686,colour,0.5
060,78,0,1,6,25,275,482.80005584750324,488.40776482992806,"[95, 0, 159]",159,a,5.084568565478548,colour,0.5
060,78,0,1,6,26,276,488.9251078350935,492.97572845756076,"[91, 0, 163]",163,l,3.527273830026388,colour,0.5
060,78,0,1,6,27,277,493.4875580135267,494.59973596571945,"[22, 0, 232]",232,a,0.588771688984707,colour,0.5
060,78,0,1,6,28,278,495.1125268996693,498.0077351338696,"[0, 0, 254]",254,l,2.3725443705916405,colour,0.5
060,78,0,1,6,29,279,498.5187470659148,501.4157256374601,"[62, 0, 192]",192,l,2.3736034221947193,colour,0.5
060,78,0,1,6,30,280,501.9249542350881,502.6957622966729,"[1, 0, 253]",253,a,0.24738289369270205,colour,0.5
060,78,0,1,6,31,281,503.20626104739495,504.13573663379066,"[37, 0, 217]",217,l,0.40611776639707386,colour,0.5
060,78,0,1,6,32,282,504.64374233968556,505.59975132578984,"[68, 0, 186]",186,l,0.4326271414756775,colour,0.5
060,78,0,1,6,33,283,506.11247254908085,506.94373320252635,"[94, 0, 160]",160,l,0.3078937749378383,colour,0.5
060,78,0,1,6,34,284,507.4562795581296,508.1117273925338,"[17, 0, 237]",237,a,0.13209237740375102,colour,0.5
060,78,0,1,6,35,285,508.6280932659283,509.3277219480369,"[2, 0, 252]",252,a,0.1762247821316123,colour,0.5
060,78,0,1,6,36,286,509.84683725982904,510.45574747235514,"[26, 0, 228]",228,a,0.08553191251121461,colour,0.5
060,78,0,1,6,37,287,510.9719365090132,511.75173410377465,"[54, 0, 200]",200,l,0.25648427940905094,colour,0.5
060,78,0,1,6,38,288,512.2687139827758,513.0237110999878,"[53, 0, 201]",201,l,0.23160621407441795,colour,0.5
060,78,0,1,6,39,289,513.5343134321738,514.5678143599071,"[48, 0, 206]",206,l,0.5100694585125893,colour,0.5
060,78,0,1,6,40,290,515.0812850720249,515.8397110116202,"[71, 0, 183]",183,l,0.23509293189272285,colour,0.5
060,78,0,1,6,41,291,516.3468553766143,517.0876712836325,"[92, 0, 162]",162,l,0.2174726591911167,colour,0.5
060,78,0,1,6,42,292,517.5969069704879,518.5437216234859,"[7, 0, 247]",247,a,0.423558838898316,colour,0.5
060,78,0,1,6,43,293,519.0499298167415,519.70372467977,"[73, 0, 181]",181,l,0.13069107360206544,colour,0.5
060,78,0,1,6,44,294,520.2219144536648,521.1917297083419,"[63, 0, 191]",191,l,0.4465019393246621,colour,0.5
060,78,0,1,6,45,295,521.7061503767036,522.6077613641974,"[65, 0, 189]",189,l,0.3781755797099322,colour,0.5
060,78,0,1,6,46,296,523.1280901152641,523.7437445453834,"[58, 0, 196]",196,l,0.09230251773260534,colour,0.5
060,78,0,1,6,47,297,524.2533059427515,524.9997692063916,"[76, 0, 178]",178,l,0.22331260656937957,colour,0.5
060,78,0,1,6,48,298,525.518653330626,526.1596978257876,"[78, 0, 176]",176,l,0.1180572840385139,colour,0.5
060,78,0,1,6,49,299,526.674986530561,527.6157032670453,"[25, 0, 229]",229,a,0.41747391945682466,colour,0.5
060,78,0,1,6,50,300,528.1280621520709,528.9437115411274,"[20, 0, 234]",234,a,0.29264248558320105,colour,0.5
060,78,0,1,7,1,301,536.4241314909887,537.2076989789493,"[92, 0, 162]",162,l,0.259425520664081,colour,0.5
060,78,0,1,7,2,302,537.7218585275114,539.4476570894476,"[66, 0, 188]",188,a,1.2025136034935713,colour,0.5
060,78,0,1,7,3,303,539.9561062660068,540.9276954028755,"[41, 0, 213]",213,a,0.4482502213213593,colour,0.5
060,78,0,1,7,4,304,541.440551321255,544.1116950970609,"[57, 0, 197]",197,l,2.1478269156068563,colour,0.5
060,78,0,1,7,5,305,544.6280542751774,545.6077259180602,"[27, 0, 227]",227,a,0.4563925920519978,colour,0.5
060,78,0,1,7,6,306,546.1279786566738,547.0076603032649,"[20, 0, 234]",234,a,0.35635021422058344,colour,0.5
060,78,0,1,7,7,307,547.518629305996,548.1596726195421,"[86, 0, 168]",168,l,0.11768903816118836,colour,0.5
060,78,0,1,7,8,308,548.6748715275899,549.4556529494002,"[50, 0, 204]",204,a,0.25743856793269515,colour,0.5
060,78,0,1,7,9,309,549.971803389024,550.5277133621275,"[68, 0, 186]",186,l,0.03257145150564611,colour,0.5
060,78,0,1,7,10,310,551.0342007922009,551.7196947380435,"[8, 0, 246]",246,a,0.162116433493793,colour,0.5
060,78,0,1,7,11,311,552.2375603767578,557.5196993853897,"[76, 0, 178]",178,l,4.758902887115255,colour,0.5
060,78,0,1,7,12,312,558.0342126076575,561.1276560970582,"[78, 0, 176]",176,l,2.570097878575325,colour,0.5
060,78,0,1,7,13,313,561.6435694415122,562.4876915274654,"[25, 0, 229]",229,a,0.3207461491692811,colour,0.5
060,78,0,1,7,14,314,563.0029605398886,564.0556705149356,"[47, 0, 207]",207,a,0.5293364012613893,colour,0.5
060,78,0,1,7,15,315,564.5655146937352,565.1996810636483,"[73, 0, 181]",181,l,0.11096923914738,colour,0.5
060,78,0,1,7,16,316,565.7059002846945,566.2956896715332,"[33, 0, 221]",221,a,0.06710819411091506,colour,0.5
060,78,0,1,7,17,317,566.8154268660583,567.4876749857794,"[64, 0, 190]",190,l,0.14894858887419105,colour,0.5
060,78,0,1,7,18,318,568.0029018567875,568.6476800113451,"[21, 0, 233]",233,a,0.1214160022791475,colour,0.5
060,78,0,1,7,19,319,569.1591704660095,569.9837290435098,"[87, 0, 167]",167,l,0.30122635746374726,colour,0.5
060,78,0,1,7,20,320,570.5028715305962,571.2397434646264,"[93, 0, 161]",161,l,0.2134510986506939,colour,0.5
060,78,0,1,7,21,321,571.7529514813796,572.7756976587698,"[51, 0, 203]",203,l,0.4998562461696565,colour,0.5
060,78,0,1,7,22,322,573.2841440783814,573.9997302156407,"[2, 0, 252]",252,a,0.19220783724449575,colour,0.5
060,78,0,1,7,23,323,574.5185623522848,575.3676583182532,"[5, 0, 249]",249,a,0.32570545678026974,colour,0.5
060,78,0,1,7,24,324,575.8778955552261,576.7277236809023,"[72, 0, 182]",182,l,0.32651559775695205,colour,0.5
060,78,0,1,7,25,325,577.2372445121873,578.0797112637665,"[6, 0, 248]",248,a,0.3190262238495052,colour,0.5
060,78,0,1,7,26,326,578.5966450630222,579.3917148208711,"[89, 0, 165]",165,l,0.2716969717293978,colour,0.5
060,78,0,1,7,27,327,579.9091306875926,580.9196648844518,"[53, 0, 201]",201,l,0.4879534346982837,colour,0.5
060,78,0,1,7,28,328,581.4403654260095,582.1756509486586,"[34, 0, 220]",220,a,0.21199505007825792,colour,0.5
060,78,0,1,7,29,329,582.6903217092622,583.5679297568277,"[95, 0, 159]",159,l,0.3541580676101148,colour,0.5
060,78,0,1,7,30,330,584.0809491213877,585.151733473409,"[37, 0, 217]",217,a,0.5473859657067806,colour,0.5
060,78,0,1,7,31,331,585.6592074874789,586.6236845545936,"[54, 0, 200]",200,a,0.4411905331071466,colour,0.5
060,78,0,1,7,32,332,587.1434402598534,587.8476781209465,"[85, 0, 169]",169,l,0.18123607756569982,colour,0.5
060,78,0,1,7,33,333,588.362263022922,589.5442056602333,"[40, 0, 214]",214,a,0.6586352295707911,colour,0.5
060,78,0,1,7,34,334,590.0653752721846,591.0077091401909,"[15, 0, 239]",239,a,0.41908238641917706,colour,0.5
060,78,0,1,7,35,335,591.5185430536512,592.6157119318377,"[49, 0, 205]",205,a,0.5739181840326637,colour,0.5
060,78,0,1,7,36,336,593.1278014262207,593.767675411189,"[94, 0, 160]",160,l,0.1164527558721602,colour,0.5
060,78,0,1,7,37,337,594.2844075611793,595.8796918864828,"[4, 0, 250]",250,a,1.072396757081151,colour,0.5
060,78,0,1,7,38,338,596.3934477430303,598.3437243015505,"[26, 0, 228]",228,l,1.426923070801422,colour,0.5
060,78,0,1,7,39,339,598.8622468754184,600.7276846901514,"[9, 0, 245]",245,l,1.3421843638643622,colour,0.5
060,78,0,1,7,40,340,601.2371913429815,604.3596545814071,"[48, 0, 206]",206,a,2.5990026246290654,colour,0.5
060,78,0,1,7,41,341,604.8778018199373,605.6636740942486,"[96, 0, 158]",158,l,0.2625069711357355,colour,0.5
060,78,0,1,7,42,342,606.1747112323064,606.7996367954183,"[59, 0, 195]",195,l,0.10171189066022635,colour,0.5
060,78,0,1,7,43,343,607.3153106814716,608.087629535934,"[97, 0, 157]",157,l,0.24899687431752682,colour,0.5
060,78,0,1,7,44,344,608.5965257277712,609.4316823049448,"[38, 0, 216]",216,a,0.31171014183200896,colour,0.5
060,78,0,1,7,45,345,609.9402811429463,610.5677328340244,"[63, 0, 191]",191,a,0.10411947080865502,colour,0.5
060,78,0,1,7,46,346,611.0808798046783,611.7516474574804,"[70, 0, 184]",184,l,0.1473932913504541,colour,0.5
060,78,0,1,7,47,347,612.2684174168389,613.047659688862,"[19, 0, 235]",235,l,0.2559080827049911,colour,0.5
060,78,0,1,7,48,348,613.565333524486,614.3836732748896,"[13, 0, 241]",241,l,0.2950764533597976,colour,0.5
060,78,0,1,7,49,349,614.8933347093407,615.5676674554124,"[35, 0, 219]",219,l,0.1509008831344545,colour,0.5
060,78,0,1,7,50,350,616.0809014660772,616.8396869869903,"[7, 0, 247]",247,l,0.23578570666722953,colour,0.5
060,78,0,1,8,1,351,631.5018321713433,639.67969889706,"[36, 0, 218]",218,l,7.653948856750503,colour,0.5
060,78,0,1,8,2,352,640.1902354569174,641.351676444523,"[9, 0, 245]",245,a,0.6380059737712145,colour,0.5
060,78,0,1,8,3,353,641.862054284662,642.895683606388,"[41, 0, 213]",213,l,0.5102683508303016,colour,0.5
060,78,0,1,8,4,354,643.4089451862965,644.2636467611883,"[3, 0, 251]",251,a,0.33138353331014514,colour,0.5
060,78,0,1,8,5,355,644.7839243123308,645.4796228059568,"[74, 0, 180]",180,l,0.17249506106600165,colour,0.5
060,78,0,1,8,6,356,645.9870586169418,647.0316281905398,"[90, 0, 164]",164,l,0.5213444796390831,colour,0.5
060,78,0,1,8,7,357,647.5437873958144,648.1916304591578,"[2, 0, 252]",252,a,0.12448760634288192,colour,0.5
060,78,0,1,8,8,358,648.6999744789209,649.5996414427646,"[60, 0, 194]",194,l,0.3765013406518847,colour,0.5
060,78,0,1,8,9,359,650.106372269569,651.0956958942115,"[39, 0, 215]",215,l,0.46606899215839803,colour,0.5
060,78,0,1,8,10,360,651.6062478141394,652.3996137948707,"[48, 0, 206]",206,l,0.269979803590104,colour,0.5
060,78,0,1,8,11,361,652.9187523433939,653.6236896747723,"[78, 0, 176]",176,l,0.18154012667946517,colour,0.5
060,78,0,1,8,12,362,654.1374746758956,654.8956576124765,"[6, 0, 248]",248,a,0.23477431060746312,colour,0.5
060,78,0,1,8,13,363,655.4031261126511,656.1676361840218,"[10, 0, 244]",244,a,0.24119951273314655,colour,0.5
060,78,0,1,8,14,364,656.684433712624,657.4876296934672,"[77, 0, 177]",177,l,0.2799019638914615,colour,0.5
060,78,0,1,8,15,365,657.9968641989399,658.8876026757061,"[72, 0, 182]",182,l,0.36739837983623147,colour,0.5
060,78,0,1,8,16,366,659.4030993310735,660.1516302858945,"[0, 0, 254]",254,a,0.22516998392529786,colour,0.5
060,78,0,1,8,17,367,660.6687570696231,661.3916305380408,"[75, 0, 179]",179,l,0.1995644853450358,colour,0.5
060,78,0,1,8,18,368,661.9031422603875,662.8796450188383,"[89, 0, 165]",165,l,0.45388182415626943,colour,0.5
060,78,0,1,8,19,369,663.3875136666466,664.2876067718025,"[88, 0, 166]",166,l,0.3767344974912703,colour,0.5
060,78,0,1,8,20,370,664.793715715874,665.3995984348003,"[64, 0, 190]",190,a,0.08250323752872646,colour,0.5
060,78,0,1,8,21,371,665.9187901527621,666.5516154773068,"[18, 0, 236]",236,a,0.10956636001355946,colour,0.5
060,78,0,1,8,22,372,667.0593545497395,667.7436515977606,"[91, 0, 163]",163,l,0.160966009600088,colour,0.5
060,78,0,1,8,23,373,668.2624731003307,669.5436393097043,"[52, 0, 202]",202,a,0.7578796753659844,colour,0.5
060,78,0,1,8,24,374,670.0593513988424,670.8157084658742,"[30, 0, 224]",224,l,0.2330571422353387,colour,0.5
060,78,0,1,8,25,375,671.3249473033939,672.5356410867535,"[27, 0, 227]",227,a,0.6873481725342572,colour,0.5
060,78,0,1,8,26,376,673.0437035064679,673.8955725417472,"[1, 0, 253]",253,a,0.32852696906775236,colour,0.5
060,78,0,1,8,27,377,674.4030804266222,676.0236339061521,"[37, 0, 217]",217,l,1.0972058994229883,colour,0.5
060,78,0,1,8,28,378,676.5436727865599,677.5915868997108,"[95, 0, 159]",159,l,0.5245665330439806,colour,0.5
060,78,0,1,8,29,379,678.1061206019949,678.9676475268789,"[81, 0, 173]",173,l,0.3381561078131199,colour,0.5
060,78,0,1,8,30,380,679.4812044911087,680.3756234580651,"[25, 0, 229]",229,a,0.3711741806473583,colour,0.5
060,78,0,1,8,31,381,680.8874864911195,681.7196096673142,"[61, 0, 193]",193,l,0.30881458683870733,colour,0.5
060,78,0,1,8,32,382,682.2311406880617,682.9036093617324,"[73, 0, 181]",181,l,0.14902538899332285,colour,0.5
060,78,0,1,8,33,383,683.4186881466303,684.087623628322,"[34, 0, 220]",220,a,0.14564067707397044,colour,0.5
060,78,0,1,8,34,384,684.6060942143667,685.3276226988528,"[55, 0, 199]",199,a,0.19810331682674587,colour,0.5
060,78,0,1,8,35,385,685.8404888573568,686.511656264076,"[17, 0, 237]",237,a,0.14783006673678756,colour,0.5
060,78,0,1,8,36,386,687.0280410419218,687.9756256637629,"[56, 0, 198]",198,l,0.4242748508695513,colour,0.5
060,78,0,1,8,37,387,688.4968007896096,689.2077115820721,"[85, 0, 169]",169,a,0.18759865849278867,colour,0.5
060,78,0,1,8,38,388,689.7155369066168,690.6397436221596,"[84, 0, 170]",170,l,0.4009406615514308,colour,0.5
060,78,0,1,8,39,389,691.1530150482431,692.0876263852697,"[24, 0, 230]",230,l,0.41125824325717986,colour,0.5
060,78,0,1,8,40,390,692.6061024849769,693.3836039581802,"[63, 0, 191]",191,a,0.25414640991948545,colour,0.5
060,78,0,1,8,41,391,693.9030150482431,694.6316410300788,"[76, 0, 178]",178,l,0.20605112751945853,colour,0.5
060,78,0,1,8,42,392,695.1530469497666,697.0316281905398,"[22, 0, 232]",232,l,1.355261230142787,colour,0.5
060,78,0,1,8,43,393,697.5435664481483,698.3195850912016,"[21, 0, 233]",233,l,0.25258165993727744,colour,0.5
060,78,0,1,8,44,394,698.84049279592,699.7916326646227,"[8, 0, 246]",246,a,0.42858864506706595,colour,0.5
060,78,0,1,8,45,395,700.3092245804146,701.0156120522879,"[82, 0, 172]",172,l,0.18294379324652255,colour,0.5
060,78,0,1,8,46,396,701.5279307651799,702.2715981164947,"[99, 0, 155]",155,l,0.22027841745875776,colour,0.5
060,78,0,1,8,47,397,702.7779862973839,703.4395879742224,"[67, 0, 187]",187,l,0.13823204138316214,colour,0.5
060,78,0,1,8,48,398,703.9498248174787,704.8476174685638,"[26, 0, 228]",228,a,0.3746687755919993,colour,0.5
060,78,0,1,8,49,399,705.3560457713902,706.1916032838635,"[19, 0, 235]",235,l,0.31212171097286046,colour,0.5
060,78,0,1,8,50,400,706.6999224910978,707.479625168955,"[7, 0, 247]",247,a,0.2566559959668666,colour,0.5
060,78,0,1,9,1,401,714.5115270824172,718.1516665196978,"[25, 0, 229]",229,l,3.1160478822421283,colour,0.5
060,78,0,1,9,2,402,718.6687358019408,719.8076870059595,"[49, 0, 205]",205,l,0.615744227077812,colour,0.5
060,78,0,1,9,3,403,720.3247830697801,721.6636209250428,"[95, 0, 159]",159,l,0.8154808229301125,colour,0.5
060,78,0,1,9,4,404,722.1841745621059,722.8315710041206,"[80, 0, 174]",174,l,0.12426390196196735,colour,0.5
060,78,0,1,9,5,405,723.3404431713279,723.9996081234422,"[47, 0, 207]",207,a,0.13592686131596565,colour,0.5
060,78,0,1,9,6,406,724.5122706636321,725.0556015919428,"[88, 0, 166]",166,l,0.019951052963733673,colour,0.5
060,78,0,1,9,7,407,725.5747247806285,726.1595899120439,"[15, 0, 239]",239,a,0.06147028994746506,colour,0.5
060,78,0,1,9,8,408,726.6685538450256,727.4155905484222,"[65, 0, 189]",189,l,0.2237375662662089,colour,0.5
060,78,0,1,9,9,409,727.9341442359146,728.5996134798042,"[81, 0, 173]",173,a,0.14220358384773135,colour,0.5
060,78,0,1,9,10,410,729.106032774318,729.7356529808603,"[94, 0, 160]",160,l,0.10623324173502624,colour,0.5
060,78,0,1,9,11,411,730.2466318297666,731.4075683008414,"[44, 0, 210]",210,l,0.637500669574365,colour,0.5
060,78,0,1,9,12,412,731.9184821650852,732.775571628008,"[98, 0, 156]",156,l,0.3337466090451926,colour,0.5
060,78,0,1,9,13,413,733.293707445031,733.9836337328888,"[20, 0, 234]",234,a,0.1668035937473178,colour,0.5
060,78,0,1,9,14,414,734.4966676698532,735.2075796436984,"[45, 0, 209]",209,a,0.18756872625090182,colour,0.5
060,78,0,1,9,15,415,735.7153301374055,736.7035190921742,"[41, 0, 213]",213,a,0.4648275899235159,colour,0.5
060,78,0,1,9,16,416,737.2154419897124,738.151565301232,"[23, 0, 231]",231,a,0.41289664222858846,colour,0.5
060,78,0,1,9,17,417,738.6684605036862,739.5676233447157,"[34, 0, 220]",220,a,0.3758247133810073,colour,0.5
060,78,0,1,9,18,418,740.0747070575599,740.6476059681736,"[26, 0, 228]",228,a,0.04947571223601699,colour,0.5
060,78,0,1,9,19,419,741.1684719251934,742.6875407630578,"[35, 0, 219]",219,a,0.995738587109372,colour,0.5
060,78,0,1,9,20,420,743.1997314759064,743.9275933967438,"[91, 0, 163]",163,l,0.204630131367594,colour,0.5
060,78,0,1,9,21,421,744.4341395096853,745.2555544089992,"[62, 0, 192]",192,l,0.2987577309831977,colour,0.5
060,78,0,1,9,22,422,745.7622560912278,746.3995878009591,"[11, 0, 243]",243,a,0.114045963389799,colour,0.5
060,78,0,1,9,23,423,746.9184435682837,748.7195998211391,"[5, 0, 249]",249,a,1.278229694114998,colour,0.5
060,78,0,1,9,24,424,749.2309638513252,751.3355555434246,"[67, 0, 187]",187,l,1.581179127562791,colour,0.5
060,78,0,1,9,25,425,751.8560071743559,753.0316494582221,"[22, 0, 232]",232,a,0.6524258544668555,colour,0.5
060,78,0,1,9,26,426,753.5433990636375,754.4635913076345,"[59, 0, 195]",195,l,0.39673990081064403,colour,0.5
060,78,0,1,9,27,427,754.9816550510004,755.7835926939733,"[32, 0, 222]",222,l,0.27930410555563867,colour,0.5
060,78,0,1,9,28,428,756.2934262389317,757.4555907216854,"[64, 0, 190]",190,l,0.6387983919121325,colour,0.5
060,78,0,1,9,29,429,757.9653411651962,758.6235482839402,"[85, 0, 169]",169,l,0.1348351202905178,colour,0.5
060,78,0,1,9,30,430,759.137205285253,759.9836557882372,"[40, 0, 214]",214,a,0.3233632552437484,colour,0.5
060,78,0,1,9,31,431,760.4964872882701,761.095639180392,"[31, 0, 223]",223,a,0.07560581364668906,colour,0.5
060,78,0,1,9,32,432,761.6060394698288,762.3516161860898,"[57, 0, 197]",197,l,0.2223023916594684,colour,0.5
060,78,0,1,9,33,433,762.871380556142,763.9195912352297,"[33, 0, 221]",221,a,0.5245952839031816,colour,0.5
060,78,0,1,9,34,434,764.434007177595,765.7835812724661,"[51, 0, 203]",203,a,0.8267873513977975,colour,0.5
060,78,0,1,9,35,435,766.2939587186556,767.7675159035716,"[2, 0, 252]",252,a,0.9511406566016376,colour,0.5
060,78,0,1,9,36,436,768.2778059160337,769.0475631966256,"[87, 0, 167]",167,l,0.24647901742719114,colour,0.5
060,78,0,1,9,37,437,769.5589236821979,770.2155873188749,"[77, 0, 177]",177,l,0.1332097181584686,colour,0.5
060,78,0,1,9,38,438,770.7312556912657,771.4155684930738,"[72, 0, 182]",182,l,0.16139884619042277,colour,0.5
060,78,0,1,9,39,439,771.9340237190481,772.5835760738701,"[82, 0, 172]",172,l,0.12633868237026036,colour,0.5
060,78,0,1,9,40,440,773.0902742112521,773.8155588044319,"[69, 0, 185]",185,l,0.20193819445557892,colour,0.5
060,78,0,1,9,41,441,774.3246137159877,774.975544531364,"[79, 0, 175]",175,l,0.12775534600950778,colour,0.5
060,78,0,1,9,42,442,775.4965589682106,776.1835400762502,"[24, 0, 230]",230,a,0.1636961493641138,colour,0.5
060,78,0,1,9,43,443,776.6996215928812,777.5595754971728,"[30, 0, 224]",224,a,0.337120293173939,colour,0.5
060,78,0,1,9,44,444,778.0745932359714,778.6875502155162,"[84, 0, 170]",170,l,0.08960112859494984,colour,0.5
060,78,0,1,9,45,445,779.1996141099371,780.3036012484226,"[39, 0, 215]",215,a,0.5808333307504654,colour,0.5
060,78,0,1,9,46,446,780.8245865406934,781.6155823564623,"[68, 0, 186]",186,l,0.26762578659690917,colour,0.5
060,78,0,1,9,47,447,782.137082799105,782.9755145991221,"[0, 0, 254]",254,a,0.3151373891159892,colour,0.5
060,78,0,1,9,48,448,783.4964506607503,784.2395559940487,"[38, 0, 216]",216,a,0.21976366103626788,colour,0.5
060,78,0,1,9,49,449,784.7464652329218,785.719565162668,"[54, 0, 200]",200,l,0.45006073103286326,colour,0.5
060,78,0,1,9,50,450,786.2308468790725,786.975578402169,"[93, 0, 161]",161,a,0.22137252148240805,colour,0.5
060,78,0,1,10,1,451,792.3237972734496,796.279547896469,"[81, 0, 173]",173,l,3.431696877349168,colour,0.5
060,78,0,1,10,2,452,796.7933009960689,798.1435426599346,"[28, 0, 226]",226,a,0.8268452468328178,colour,0.5
060,78,0,1,10,3,453,798.6527035159525,799.3515578969382,"[88, 0, 166]",166,l,0.1755847823806107,colour,0.5
060,78,0,1,10,4,454,799.8714179713279,800.6875573047437,"[45, 0, 209]",209,a,0.29279293469153345,colour,0.5
060,78,0,1,10,5,455,801.199641678948,802.0715432933066,"[16, 0, 238]",238,a,0.34860641579143703,colour,0.5
060,78,0,1,10,6,456,802.5901261253748,803.7195324734785,"[89, 0, 165]",165,a,0.605937069747597,colour,0.5
060,78,0,1,10,7,457,804.230799223762,805.1275170694571,"[70, 0, 184]",184,a,0.37333639501594007,colour,0.5
060,78,0,1,10,8,458,805.6370312052313,806.3355653895997,"[27, 0, 227]",227,l,0.17515824735164642,colour,0.5
060,78,0,1,10,9,459,806.8557559007313,815.1835956084542,"[91, 0, 163]",163,a,7.804452349198982,colour,0.5
060,78,0,1,10,10,460,815.6996373466682,816.7115500043146,"[38, 0, 216]",216,a,0.4888494343031198,colour,0.5
060,78,0,1,10,11,461,817.2306976115797,817.9115351168439,"[64, 0, 190]",190,l,0.15745999291539192,colour,0.5
060,78,0,1,10,12,462,818.4182478268631,819.16755820252,"[41, 0, 213]",213,a,0.2258694542106241,colour,0.5
060,78,0,1,10,13,463,819.6838764206041,820.6395494560711,"[10, 0, 244]",244,a,0.43251883378252387,colour,0.5
060,78,0,1,10,14,464,821.1526676760986,821.7515466329642,"[50, 0, 204]",204,l,0.07563535217195749,colour,0.5
060,78,0,1,10,15,465,822.262003242271,822.8315981796477,"[65, 0, 189]",189,a,0.04624814516864717,colour,0.5
060,78,0,1,10,16,466,823.3400745315012,824.1275777216069,"[21, 0, 233]",233,l,0.26405754243023694,colour,0.5
060,78,0,1,10,17,467,824.637051291531,825.1675522949081,"[36, 0, 218]",218,l,0.007965533761307597,colour,0.5
060,78,0,1,10,18,468,825.6838468823116,826.4315306744538,"[74, 0, 180]",180,a,0.22464223043061793,colour,0.5
060,78,0,1,10,19,469,826.9494798083324,827.7195383810904,"[54, 0, 200]",200,l,0.24688231572508812,colour,0.5
060,78,0,1,10,20,470,828.2307216359768,829.1035007389728,"[17, 0, 237]",237,l,0.3494409751147032,colour,0.5
060,78,0,1,10,21,471,829.6213009990752,830.5915530291386,"[59, 0, 195]",195,a,0.446908388286829,colour,0.5
060,78,0,1,10,22,472,831.1058957159985,831.9755614667665,"[84, 0, 170]",170,a,0.34648476750589907,colour,0.5
060,78,0,1,10,23,473,832.4962974544615,833.1675361471716,"[80, 0, 174]",174,a,0.1482739308848977,colour,0.5
060,78,0,1,10,24,474,833.6838862667792,834.2875087040011,"[7, 0, 247]",247,l,0.08052494935691357,colour,0.5
060,78,0,1,10,25,475,834.8088457006961,835.5595695895609,"[82, 0, 172]",172,a,0.2273975764401257,colour,0.5
060,78,0,1,10,26,476,836.0751068110112,839.0875180775765,"[83, 0, 171]",171,l,2.4898297167383134,colour,0.5
060,78,0,1,10,27,477,839.605732269818,840.7915369600523,"[19, 0, 235]",235,l,0.6625492700841278,colour,0.5
060,78,0,1,10,28,478,841.3087815039326,842.7435562869068,"[20, 0, 234]",234,a,0.9112995970062912,colour,0.5
060,78,0,1,10,29,479,843.2620839807205,843.9195254629012,"[3, 0, 251]",251,a,0.1342920067254454,colour,0.5
060,78,0,1,10,30,480,844.4337783530354,845.7355111963116,"[32, 0, 222]",222,a,0.7785806108731776,colour,0.5
060,78,0,1,10,31,481,846.2463013930246,846.7995320323389,"[67, 0, 187]",187,l,0.029859428526833653,colour,0.5
060,78,0,1,10,32,482,847.3087696884759,848.0475182982627,"[99, 0, 155]",155,l,0.2153647958766669,colour,0.5
060,78,0,1,10,33,483,848.5587653561961,849.3594994060695,"[44, 0, 210]",210,a,0.2773604760877788,colour,0.5
060,78,0,1,10,34,484,849.871276187012,850.3995503855404,"[60, 0, 194]",194,l,0.004906138638034463,colour,0.5
060,78,0,1,10,35,485,850.9181533039082,851.9595283931121,"[5, 0, 249]",249,a,0.5180873738136142,colour,0.5
060,78,0,1,10,36,486,852.4806444423739,853.1675105472095,"[63, 0, 191]",191,l,0.16351773706264794,colour,0.5
060,78,0,1,10,37,487,853.6837574793026,854.3355397896376,"[15, 0, 239]",239,a,0.12865922250784934,colour,0.5
060,78,0,1,10,38,488,854.8556487746537,856.2315270509571,"[34, 0, 220]",220,a,0.8525417239870876,colour,0.5
060,78,0,1,10,39,489,856.7462549193297,857.423523392994,"[94, 0, 160]",160,l,0.15428992733359337,colour,0.5
060,78,0,1,10,40,490,857.933706673095,858.6235179579817,"[35, 0, 219]",219,a,0.16660115704871714,colour,0.5
060,78,0,1,10,41,491,859.1368291622493,859.7994666539598,"[49, 0, 205]",205,l,0.13924383162520826,colour,0.5
060,78,0,1,10,42,492,860.3087511777412,863.0714215948246,"[58, 0, 196]",196,a,2.239432720001787,colour,0.5
060,78,0,1,10,43,493,863.5898992700968,864.4555647277739,"[30, 0, 224]",224,a,0.3421737300232053,colour,0.5
060,78,0,1,10,44,494,864.9649748883676,865.5115109349135,"[93, 0, 161]",161,l,0.023206189507618546,colour,0.5
060,78,0,1,10,45,495,866.0274857191835,866.6954783338588,"[98, 0, 156]",156,l,0.14455287461169064,colour,0.5
060,78,0,1,10,46,496,867.214917386882,867.9675084992778,"[6, 0, 248]",248,a,0.2291135631967336,colour,0.5
060,78,0,1,10,47,497,868.4805826083757,869.831521773478,"[55, 0, 199]",199,l,0.8276278187986463,colour,0.5
060,78,0,1,10,48,498,870.3399095099885,871.407497408567,"[48, 0, 206]",206,l,0.5441079861484468,colour,0.5
060,78,0,1,10,49,499,871.9180457838811,872.6474909652025,"[97, 0, 157]",157,a,0.2060684566386044,colour,0.5
060,78,0,1,10,50,500,873.1680107316934,873.8954984988086,"[23, 0, 231]",231,a,0.20411222404800355,colour,0.5
060,78,0,1,11,1,501,882.0578795967158,883.2475494907703,"[54, 0, 200]",200,l,0.6655633728951216,colour,0.5
060,78,0,1,11,2,502,883.7619126576465,884.3435762156732,"[27, 0, 227]",227,a,0.05844555329531431,colour,0.5
060,78,0,1,11,3,503,884.8555270761717,885.7754688342102,"[39, 0, 215]",215,a,0.3965429780073464,colour,0.5
060,78,0,1,11,4,504,886.2930186085869,886.8315520996694,"[96, 0, 158]",158,l,0.015143375843763351,colour,0.5
060,78,0,1,11,5,505,887.3398650053423,887.9035266540013,"[97, 0, 157]",157,l,0.04019118845462799,colour,0.5
060,78,0,1,11,6,506,888.4180256978143,888.9515136287082,"[8, 0, 246]",246,a,0.010084030916914344,colour,0.5
060,78,0,1,11,7,507,889.4648992700968,890.2154861004092,"[4, 0, 250]",250,a,0.22725973022170365,colour,0.5
060,78,0,1,11,8,508,890.7305093531031,891.4875103582162,"[70, 0, 184]",184,l,0.2331351237371564,colour,0.5
060,78,0,1,11,9,509,891.9960804453585,892.8555266824551,"[90, 0, 164]",164,l,0.3360348539426923,colour,0.5
060,78,0,1,11,10,510,893.3711485809181,894.0234897586051,"[85, 0, 169]",169,l,0.12935869279317558,colour,0.5
060,78,0,1,11,11,511,894.54310289165,895.1754851394799,"[3, 0, 251]",251,a,0.10913273552432656,colour,0.5
060,78,0,1,11,12,512,895.6836125438567,896.6315086977556,"[63, 0, 191]",191,a,0.4248061489779502,colour,0.5
060,78,0,1,11,13,513,897.1523329070769,900.239486283157,"[23, 0, 231]",231,l,2.563730177702382,colour,0.5
060,78,0,1,11,14,514,900.746921306476,901.6237625360955,"[25, 0, 229]",229,a,0.35470118117518723,colour,0.5
060,78,0,1,11,15,515,902.1367070700508,902.9435039842501,"[10, 0, 244]",244,a,0.28343318635597825,colour,0.5
060,78,0,1,11,16,516,903.464877608465,904.6954948753119,"[7, 0, 247]",247,a,0.7073346714023501,colour,0.5
060,78,0,1,11,17,517,905.2148693378549,905.8555412546266,"[95, 0, 159]",159,l,0.1174042874481529,colour,0.5
060,78,0,1,11,18,518,906.3710489377845,907.46346409549,"[50, 0, 204]",204,l,0.5690604883711785,colour,0.5
060,78,0,1,11,19,519,907.9804640607908,908.8474524470512,"[73, 0, 181]",181,l,0.3436329292599112,colour,0.5
060,78,0,1,11,20,520,909.3554739069659,910.0795100084506,"[89, 0, 165]",165,l,0.20067631220445037,colour,0.5
060,78,0,1,11,21,521,910.5898264085408,911.2955234686378,"[30, 0, 224]",224,a,0.18230300629511476,colour,0.5
060,78,0,1,11,22,522,911.808561737882,912.575509321643,"[69, 0, 185]",185,l,0.24356022546999156,colour,0.5
060,78,0,1,11,23,523,913.0898362547159,913.8395101502538,"[65, 0, 189]",189,l,0.22629598947241902,colour,0.5
060,78,0,1,11,24,524,914.3554546085652,914.9914322758559,"[77, 0, 177]",177,l,0.11261236411519349,colour,0.5
060,78,0,1,11,25,525,915.5117047070526,916.3434797232039,"[11, 0, 243]",243,a,0.3084231037646532,colour,0.5
060,78,0,1,11,26,526,916.8556424730923,917.9275295936968,"[53, 0, 201]",201,a,0.5487514296546578,colour,0.5
060,78,0,1,11,27,527,918.4492580732331,919.3274789450224,"[19, 0, 235]",235,a,0.3550532793160528,colour,0.5
060,78,0,1,11,28,528,919.8397673317231,920.6154894088395,"[1, 0, 253]",253,a,0.2523725279606879,colour,0.5
060,78,0,1,11,29,529,921.1367243994027,921.9595075193793,"[14, 0, 240]",240,a,0.29950997699052095,colour,0.5
060,78,0,1,11,30,530,922.4803498454858,923.1834628824145,"[64, 0, 190]",190,l,0.17968550603836775,colour,0.5
060,78,0,1,11,31,531,923.6991580363829,924.3594568707049,"[72, 0, 182]",182,l,0.13701505749486387,colour,0.5
060,78,0,1,11,32,532,924.8710485440679,925.9594551378395,"[29, 0, 225]",225,a,0.5658695488236845,colour,0.5
060,78,0,1,11,33,533,926.4803892301861,927.5514705420937,"[28, 0, 226]",226,a,0.5477345196995884,colour,0.5
060,78,0,1,11,34,534,928.0586007286329,929.5594557679724,"[81, 0, 173]",173,l,0.9775724438950419,colour,0.5
060,78,0,1,11,35,535,930.0740922640543,930.783493445022,"[20, 0, 234]",234,a,0.18603312107734382,colour,0.5
060,78,0,1,11,36,536,931.2929181777872,932.0554968288634,"[16, 0, 238]",238,l,0.23926297249272466,colour,0.5
060,78,0,1,11,37,537,932.5740824178793,933.279483305756,"[91, 0, 163]",163,l,0.18206079094670713,colour,0.5
060,78,0,1,11,38,538,933.7928571316879,934.4075159193017,"[94, 0, 160]",160,l,0.09128285059705377,colour,0.5
060,78,0,1,11,39,539,934.9178433471825,935.6234947210178,"[61, 0, 193]",193,l,0.1822273877914995,colour,0.5
060,78,0,1,11,40,540,936.1366684732493,937.1594567920547,"[22, 0, 232]",232,l,0.49944270798005164,colour,0.5
060,78,0,1,11,41,541,937.667849648511,938.5994338858873,"[87, 0, 167]",167,l,0.4082283864263445,colour,0.5
060,78,0,1,11,42,542,939.1209914362989,939.9274669722654,"[92, 0, 162]",162,l,0.2831307128071785,colour,0.5
060,78,0,1,11,43,543,940.4491328301374,941.2954639978707,"[18, 0, 236]",236,a,0.3231139506679028,colour,0.5
060,78,0,1,11,44,544,941.8084010486491,942.5434668052476,"[56, 0, 198]",198,a,0.21167839807458222,colour,0.5
060,78,0,1,11,45,545,943.0585428331979,943.7595046837814,"[0, 0, 254]",254,a,0.1777619628701359,colour,0.5
060,78,0,1,11,46,546,944.2772139655426,945.3194783590734,"[52, 0, 202]",202,a,0.5188833365682513,colour,0.5
060,78,0,1,11,47,547,945.8396637502592,946.6314531655516,"[9, 0, 245]",245,a,0.2684193861205131,colour,0.5
060,78,0,1,11,48,548,947.1522285379469,947.791477489518,"[26, 0, 228]",228,a,0.11602819012477994,colour,0.5
060,78,0,1,11,49,549,948.3084861193784,948.9994864249602,"[13, 0, 241]",241,a,0.1676917162258178,colour,0.5
060,78,0,1,11,50,550,949.511556226993,950.2314104726538,"[49, 0, 205]",205,l,0.19646294857375324,colour,0.5
060,78,0,1,12,1,551,961.2451041014865,962.0634852056392,"[5, 0, 249]",249,a,0.2942631614860147,colour,0.5
060,78,0,1,12,2,552,962.5740383071825,963.5434542021248,"[6, 0, 248]",248,a,0.4462207332253456,colour,0.5
060,78,0,1,12,3,553,964.0585243224632,964.6634708696511,"[26, 0, 228]",228,a,0.08170176087878644,colour,0.5
060,78,0,1,12,4,554,965.1834014425986,965.7514891314786,"[2, 0, 252]",252,a,0.044880317989736795,colour,0.5
060,78,0,1,12,5,555,966.2615054210182,967.0634249472059,"[23, 0, 231]",231,a,0.2785656447522342,colour,0.5
060,78,0,1,12,6,556,967.5740513040219,968.1514845627826,"[91, 0, 163]",163,l,0.05412427568808198,colour,0.5
060,78,0,1,12,7,557,968.6678071131464,969.231453401735,"[90, 0, 164]",164,l,0.04047436360269785,colour,0.5
060,78,0,1,12,8,558,969.7458748579957,970.3194819036871,"[21, 0, 233]",233,a,0.05059344717301428,colour,0.5
060,78,0,1,12,9,559,970.8395688333549,976.9274697289802,"[40, 0, 214]",214,a,5.564557254081592,colour,0.5
060,78,0,1,12,10,560,977.4489709595218,978.271481931908,"[73, 0, 181]",181,l,0.299216955434531,colour,0.5
060,78,0,1,12,11,561,978.792728737928,981.0154533325695,"[57, 0, 197]",197,l,1.6993907992728055,colour,0.5
060,78,0,1,12,12,562,981.5271111717448,982.2795108749997,"[11, 0, 243]",243,a,0.2290666955523193,colour,0.5
060,78,0,1,12,13,563,982.7927082579117,983.5114431933034,"[71, 0, 183]",183,l,0.19536884455010295,colour,0.5
060,78,0,1,12,14,564,984.0270796641707,984.6714206496254,"[72, 0, 182]",182,l,0.12099734391085804,colour,0.5
060,78,0,1,12,15,565,985.1833659964614,985.9194813522045,"[77, 0, 177]",177,l,0.21338768932037055,colour,0.5
060,78,0,1,12,16,566,986.4333297626581,987.199490836123,"[39, 0, 215]",215,a,0.24290644121356308,colour,0.5
060,78,0,1,12,17,567,987.7145948272664,991.2314333156683,"[12, 0, 242]",242,l,2.993518083821982,colour,0.5
060,78,0,1,12,18,568,991.7458299594,992.9354328997433,"[46, 0, 208]",208,l,0.6666027323808521,colour,0.5
060,78,0,1,12,19,569,993.4489552057348,993.9834411421325,"[15, 0, 239]",239,a,0.011153716361150146,colour,0.5
060,78,0,1,12,20,570,994.4958106609993,995.1513703474775,"[66, 0, 188]",188,a,0.13217469095252454,colour,0.5
060,78,0,1,12,21,571,995.6676625718828,996.4394639127422,"[92, 0, 162]",162,l,0.24853607476688921,colour,0.5
060,78,0,1,12,22,572,996.9489024302457,997.4874335583299,"[56, 0, 198]",198,l,0.015185910975560546,colour,0.5
060,78,0,1,12,23,573,997.9957862426527,998.7994796507992,"[0, 0, 254]",254,a,0.2803938772995025,colour,0.5
060,78,0,1,12,24,574,999.3082502055913,1000.0954442268703,"[61, 0, 193]",193,l,0.26377515494823456,colour,0.5
060,78,0,1,12,25,575,1000.6052025472745,1001.2954758133274,"[10, 0, 244]",244,a,0.16687645530328155,colour,0.5
060,78,0,1,12,26,576,1001.8083187348675,1002.3514287155122,"[76, 0, 178]",178,l,0.0197919390629977,colour,0.5
060,78,0,1,12,27,577,1002.8707610364072,1005.3114096375648,"[95, 0, 159]",159,l,1.9173254396300763,colour,0.5
060,78,0,1,12,28,578,1005.8239166087005,1007.1754166102037,"[97, 0, 157]",157,l,0.8281417875550687,colour,0.5
060,78,0,1,12,29,579,1007.6832628087141,1008.5754136170726,"[82, 0, 172]",172,l,0.3689095666632056,colour,0.5
060,78,0,1,12,30,580,1009.0895897070877,1009.8794161945116,"[70, 0, 184]",184,l,0.2665813071653247,colour,0.5
060,78,0,1,12,31,581,1010.3863506396301,1011.5994791781995,"[18, 0, 236]",236,a,0.6896494140382856,colour,0.5
060,78,0,1,12,32,582,1012.104958756594,1012.8154122936539,"[9, 0, 245]",245,a,0.18694723723456264,colour,0.5
060,78,0,1,12,33,583,1013.3238799809478,1014.2796361178625,"[30, 0, 224]",224,a,0.4324057998601347,colour,0.5
060,78,0,1,12,34,584,1014.7926019195002,1015.7914006893989,"[53, 0, 201]",201,a,0.47539841453544796,colour,0.5
060,78,0,1,12,35,585,1016.3082667472772,1017.863421323942,"[50, 0, 204]",204,a,1.0319003381300718,colour,0.5
060,78,0,1,12,36,586,1018.3707574917935,1019.255512267584,"[99, 0, 155]",155,a,0.3613721434958279,colour,0.5
060,78,0,1,12,37,587,1019.7613522149622,1020.8794410065748,"[51, 0, 203]",203,a,0.5947762639261782,colour,0.5
060,78,0,1,12,38,588,1021.3864242886193,1022.2714118275326,"[19, 0, 235]",235,a,0.36165216797962785,colour,0.5
060,78,0,1,12,39,589,1022.7926369719207,1024.535450071562,"[4, 0, 250]",250,l,1.219491119729355,colour,0.5
060,78,0,1,12,40,590,1025.04273031326,1026.2474124324508,"[65, 0, 189]",189,l,0.6814798682462424,colour,0.5
060,78,0,1,12,41,591,1026.7613915994298,1029.0554192410782,"[38, 0, 216]",216,a,1.7707048738375306,colour,0.5
060,78,0,1,12,42,592,1029.573954417836,1030.463380600093,"[45, 0, 209]",209,l,0.3661282267421484,colour,0.5
060,78,0,1,12,43,593,1030.9800426457077,1031.6794046941213,"[89, 0, 165]",165,l,0.1759597237687558,colour,0.5
060,78,0,1,12,44,594,1032.1988063319586,1033.0954280791339,"[20, 0, 234]",234,a,0.37328243791125715,colour,0.5
060,78,0,1,12,45,595,1033.6050627317745,1034.2233945266344,"[22, 0, 232]",232,a,0.09495861479081213,colour,0.5
060,78,0,1,12,46,596,1034.7301265348215,1035.559372272808,"[8, 0, 246]",246,l,0.3059139116667211,colour,0.5
060,78,0,1,12,47,597,1036.0737385903485,1037.1114245250355,"[47, 0, 207]",207,a,0.5142690376378596,colour,0.5
060,78,0,1,12,48,598,1037.6207023533061,1038.2394035756588,"[96, 0, 158]",158,l,0.095375697594136,colour,0.5
060,78,0,1,12,49,599,1038.7456952640787,1039.3114411453716,"[84, 0, 170]",170,l,0.04276300244964659,colour,0.5
060,78,0,1,12,50,600,1039.8237173226662,1040.5114266518503,"[78, 0, 176]",176,l,0.16421445063315332,colour,0.5
060,78,0,1,13,1,601,1046.4323589324486,1047.4394520972855,"[68, 0, 186]",186,l,0.48317411448806524,colour,0.5
060,78,0,1,13,2,602,1047.9487941225525,1048.6713942619972,"[19, 0, 235]",235,a,0.1992592546157539,colour,0.5
060,78,0,1,13,3,603,1049.183116298169,1049.8073837447446,"[31, 0, 223]",223,a,0.10089466045610607,colour,0.5
060,78,0,1,13,4,604,1050.3236873904243,1050.9993859943934,"[10, 0, 244]",244,a,0.15211668564006686,colour,0.5
060,78,0,1,13,5,605,1051.5112592673395,1052.279369878117,"[74, 0, 180]",180,l,0.24471064936369658,colour,0.5
060,78,0,1,13,6,606,1052.7925215750001,1053.4874118966982,"[61, 0, 193]",193,l,0.17153486469760537,colour,0.5
060,78,0,1,13,7,607,1053.9956263410859,1055.2314108663704,"[42, 0, 212]",212,l,0.7125023235566914,colour,0.5
060,78,0,1,13,8,608,1055.7456090119667,1056.5034209457226,"[83, 0, 171]",171,l,0.23488104273565114,colour,0.5
060,78,0,1,13,9,609,1057.0112411503214,1057.6713777203113,"[82, 0, 172]",172,l,0.1367992297746241,colour,0.5
060,78,0,1,13,10,610,1058.1831222057808,1058.9434590858873,"[99, 0, 155]",155,l,0.23715195851400495,colour,0.5
060,78,0,1,13,11,611,1059.4643971165642,1060.0793536517303,"[91, 0, 163]",163,l,0.09170820424333215,colour,0.5
060,78,0,1,13,12,612,1060.5894349256996,1061.3993739425205,"[17, 0, 237]",237,a,0.28658159053884447,colour,0.5
060,78,0,1,13,13,613,1061.9175038519315,1062.50340401032,"[8, 0, 246]",246,a,0.0627018460072577,colour,0.5
060,78,0,1,13,14,614,1063.011233273428,1063.783409949625,"[23, 0, 231]",231,a,0.24884209292940795,colour,0.5
060,78,0,1,13,15,615,1064.2924160242546,1064.9994320743717,"[33, 0, 221]",221,a,0.1836842237971723,colour,0.5
060,78,0,1,13,16,616,1065.5112261842005,1066.2874090611003,"[15, 0, 239]",239,a,0.252816392108798,colour,0.5
060,78,0,1,13,17,617,1066.8083403964993,1067.6473956545815,"[72, 0, 182]",182,l,0.31603811495006084,colour,0.5
060,78,0,1,13,18,618,1068.1674534396734,1068.8473634379916,"[1, 0, 253]",253,a,0.1569743810687214,colour,0.5
060,78,0,1,13,19,619,1069.3549461534712,1070.0633713842835,"[58, 0, 196]",196,l,0.18497918918728828,colour,0.5
060,78,0,1,13,20,620,1070.5736283136066,1071.1273859187495,"[65, 0, 189]",189,a,0.030191046884283423,colour,0.5
060,78,0,1,13,21,621,1071.6361804981716,1072.6554265667219,"[37, 0, 217]",217,l,0.4950603845063597,colour,0.5
060,78,0,1,13,22,622,1073.1674404426012,1075.5834094770253,"[81, 0, 173]",173,a,1.8928105002269149,colour,0.5
060,78,0,1,13,23,623,1076.0893116518855,1077.1033475329168,"[64, 0, 190]",190,l,0.49067609175108373,colour,0.5
060,78,0,1,13,24,624,1077.620517639676,1079.1353581477888,"[44, 0, 210]",210,l,0.9913535066880286,colour,0.5
060,78,0,1,13,25,625,1079.65181618114,1080.815454435302,"[75, 0, 179]",179,l,0.6402319909539074,colour,0.5
060,78,0,1,13,26,626,1081.3235719935037,1082.1753768317867,"[30, 0, 224]",224,a,0.3283268951345235,colour,0.5
060,78,0,1,13,27,627,1082.683068248909,1083.407360743964,"[32, 0, 222]",222,a,0.20116783189587295,colour,0.5
060,78,0,1,13,28,628,1083.917380972067,1085.1033246899024,"[54, 0, 200]",200,a,0.6627229561563581,colour,0.5
060,78,0,1,13,29,629,1085.6206137379631,1086.215403392911,"[87, 0, 167]",167,l,0.07146176719106734,colour,0.5
060,78,0,1,13,30,630,1086.7298961349297,1087.3193696576636,"[85, 0, 169]",169,l,0.06608065031468868,colour,0.5
060,78,0,1,13,31,631,1087.8392762057483,1088.5674094865099,"[0, 0, 254]",254,a,0.20471008215099573,colour,0.5
060,78,0,1,13,32,632,1089.073584202677,1089.903386051068,"[79, 0, 175]",175,l,0.30634911148808897,colour,0.5
060,78,0,1,13,33,633,1090.4173998765182,1091.1434044199996,"[25, 0, 229]",229,a,0.20288500026799738,colour,0.5
060,78,0,1,13,34,634,1091.6517330796923,1092.4713863062207,"[60, 0, 194]",194,l,0.2963525140658021,colour,0.5
060,78,0,1,13,35,635,1092.9798283935525,1094.359395430889,"[27, 0, 227]",227,l,0.8561800727620721,colour,0.5
060,78,0,1,13,36,636,1094.8704857381526,1097.1674006641842,"[78, 0, 176]",176,l,1.773557893699035,colour,0.5
060,78,0,1,13,37,637,1097.6829784519505,1100.367398380069,"[18, 0, 236]",236,a,2.161169627914205,colour,0.5
060,78,0,1,13,38,638,1100.8861745903268,1101.7033280769829,"[47, 0, 207]",207,a,0.2939059433992952,colour,0.5
060,78,0,1,13,39,639,1102.2142112213187,1103.0713314041495,"[55, 0, 199]",199,a,0.33370683062821627,colour,0.5
060,78,0,1,13,40,640,1103.589248242788,1104.2554110491183,"[76, 0, 178]",178,l,0.14284594636410475,colour,0.5
060,78,0,1,13,41,641,1104.7767630119342,1105.7193741474766,"[56, 0, 198]",198,l,0.41932105692103505,colour,0.5
060,78,0,1,13,42,642,1106.2298559627961,1107.2073642099276,"[14, 0, 240]",240,a,0.45418744860216975,colour,0.5
060,78,0,1,13,43,643,1107.714239184279,1108.7033517076634,"[88, 0, 166]",166,a,0.4657519464381039,colour,0.5
060,78,0,1,13,44,644,1109.2141907413024,1110.0953296176158,"[51, 0, 203]",203,l,0.35781729011796415,colour,0.5
060,78,0,1,13,45,645,1110.6048516305164,1111.4313613206614,"[43, 0, 211]",211,a,0.30317550082691014,colour,0.5
060,78,0,1,13,46,646,1111.9485908981878,1112.7673729374073,"[28, 0, 226]",226,l,0.29546872386708856,colour,0.5
060,78,0,1,13,47,647,1113.276672033593,1115.1113453619182,"[41, 0, 213]",213,a,1.3113190529402345,colour,0.5
060,78,0,1,13,48,648,1115.6205038549379,1116.367339696968,"[45, 0, 209]",209,a,0.22359735728241503,colour,0.5
060,78,0,1,13,49,649,1116.886089125881,1117.5833819077816,"[24, 0, 230]",230,a,0.17402003263123333,colour,0.5
060,78,0,1,13,50,650,1118.1048421780579,1118.7433428224176,"[96, 0, 158]",158,l,0.11514124879613519,colour,0.5
060,78,0,1,14,1,651,1130.5726299141534,1131.3353405036032,"[22, 0, 232]",232,a,0.2384823700413108,colour,0.5
060,78,0,1,14,2,652,1131.8548346951138,1135.4793321476318,"[41, 0, 213]",213,a,3.1012014662846923,colour,0.5
060,78,0,1,14,3,653,1135.995335682761,1136.6313503717538,"[84, 0, 170]",170,l,0.11264347820542753,colour,0.5
060,78,0,1,14,4,654,1137.1515849935822,1137.9673556871712,"[42, 0, 212]",212,a,0.2923979074694216,colour,0.5
060,78,0,1,14,5,655,1138.4797878274694,1144.775328231277,"[87, 0, 167]",167,l,5.772278288379312,colour,0.5
060,78,0,1,14,6,656,1145.2922628181987,1145.9513789333869,"[18, 0, 236]",236,a,0.13577483664266765,colour,0.5
060,78,0,1,14,7,657,1146.4641206366941,1147.0873672345188,"[77, 0, 177]",177,l,0.0999423407483846,colour,0.5
060,78,0,1,14,8,658,1147.6047200858593,1148.271271618316,"[13, 0, 241]",241,a,0.14315511542372406,colour,0.5
060,78,0,1,14,9,659,1148.7922612428665,1149.6633586236276,"[35, 0, 219]",219,a,0.347802969859913,colour,0.5
060,78,0,1,14,10,660,1150.1828169750515,1150.7673296143766,"[86, 0, 168]",168,l,0.061294634360820055,colour,0.5
060,78,0,1,14,11,661,1151.2774219161365,1153.9433751965407,"[21, 0, 233]",233,a,2.143415053607896,colour,0.5
060,78,0,1,14,12,662,1154.4641797135118,1155.1193589449394,"[61, 0, 193]",193,l,0.13195807579904795,colour,0.5
060,78,0,1,14,13,663,1155.63598239352,1156.6873150893953,"[36, 0, 218]",218,a,0.5280264695174992,colour,0.5
060,78,0,1,14,14,664,1157.1984365105163,1158.2153466790915,"[17, 0, 237]",237,l,0.49353935150429606,colour,0.5
060,78,0,1,14,15,665,1158.7297842828557,1161.9994604312815,"[58, 0, 196]",196,a,2.746443571522832,colour,0.5
060,78,0,1,14,16,666,1162.5109477350488,1163.4953534058295,"[48, 0, 206]",206,l,0.4611577335745096,colour,0.5
060,78,0,1,14,17,667,1164.010887870565,1165.2873491963837,"[38, 0, 216]",216,l,0.7530590011738241,colour,0.5
060,78,0,1,14,18,668,1165.8077748336364,1166.5194737117272,"[89, 0, 165]",165,l,0.1883784735109657,colour,0.5
060,78,0,1,14,19,669,1167.0265475781634,1167.7993410171475,"[81, 0, 173]",173,l,0.24950493569485843,colour,0.5
060,78,0,1,14,20,670,1168.307752778288,1170.6633353866637,"[90, 0, 164]",164,l,1.832313009770587,colour,0.5
060,78,0,1,14,21,671,1171.1827413567808,1171.9913290883414,"[67, 0, 187]",187,l,0.28527953615412116,colour,0.5
060,78,0,1,14,22,672,1172.510870541446,1173.9673970409203,"[51, 0, 203]",203,l,0.9331564703024924,colour,0.5
060,78,0,1,14,23,673,1174.4795972059947,1175.2553539415821,"[29, 0, 225]",225,a,0.2524296354968101,colour,0.5
060,78,0,1,14,24,674,1175.7765282797627,1177.4555060449056,"[20, 0, 234]",234,a,1.1560027631931007,colour,0.5
060,78,0,1,14,25,675,1177.9639571905136,1179.5913553184364,"[49, 0, 205]",205,a,1.104001710889861,colour,0.5
060,78,0,1,14,26,676,1180.104595236713,1180.679368460318,"[95, 0, 159]",159,l,0.05135632655583322,colour,0.5
060,78,0,1,14,27,677,1181.1983360799495,1181.919335235376,"[62, 0, 192]",192,l,0.1977094707544893,colour,0.5
060,78,0,1,14,28,678,1182.4327141814865,1183.0794103655498,"[8, 0, 246]",246,a,0.12343800719827414,colour,0.5
060,78,0,1,14,29,679,1183.5890052397735,1184.2153384082485,"[80, 0, 174]",174,l,0.1035413050558418,colour,0.5
060,78,0,1,14,30,680,1184.729575544363,1185.5673248094972,"[98, 0, 156]",156,l,0.31437726644799113,colour,0.5
060,78,0,1,14,31,681,1186.0889859413728,1186.8313516320195,"[14, 0, 240]",240,a,0.2190098399296403,colour,0.5
060,78,0,1,14,32,682,1187.3390351720154,1188.0313410770614,"[25, 0, 229]",229,l,0.16918911854736507,colour,0.5
060,78,0,1,14,33,683,1188.5420591998845,1189.2392550955992,"[74, 0, 180]",180,a,0.17383216810412705,colour,0.5
060,78,0,1,14,34,684,1189.7608524244279,1192.0793926424813,"[79, 0, 175]",175,l,1.7952367486432195,colour,0.5
060,78,0,1,14,35,685,1192.5890005135443,1194.6873123324476,"[97, 0, 157]",157,l,1.5753750200383365,colour,0.5
060,78,0,1,14,36,686,1195.198310873704,1196.0232944109011,"[56, 0, 198]",198,a,0.3016595880035311,colour,0.5
060,78,0,1,14,37,687,1196.5420229660813,1197.3593229632825,"[57, 0, 197]",197,a,0.2938618327025324,colour,0.5
060,78,0,1,14,38,688,1197.870142698288,1198.6472814392764,"[11, 0, 243]",243,a,0.2537147547118366,colour,0.5
060,78,0,1,14,39,689,1199.16701666452,1199.8313142166007,"[82, 0, 172]",172,l,0.14105079672299325,colour,0.5
060,78,0,1,14,40,690,1200.3389804274775,1201.3592686124612,"[15, 0, 239]",239,a,0.4969480880536139,colour,0.5
060,78,0,1,14,41,691,1201.87013600301,1202.9913290883414,"[32, 0, 222]",222,a,0.5978002131450921,colour,0.5
060,78,0,1,14,42,692,1203.510783501435,1205.335278669605,"[47, 0, 207]",207,a,1.3010873296298087,colour,0.5
060,78,0,1,14,43,693,1205.8545089846011,1206.5753187001683,"[88, 0, 166]",166,l,0.19742708327248693,colour,0.5
060,78,0,1,14,44,694,1207.0889449813403,1207.9753480022773,"[28, 0, 226]",226,a,0.36302550858817995,colour,0.5
060,78,0,1,14,45,695,1208.4951411229558,1209.3673452108633,"[70, 0, 184]",184,l,0.34885375085286796,colour,0.5
060,78,0,1,14,46,696,1209.8857063075993,1210.583322043065,"[27, 0, 227]",227,a,0.17425791546702385,colour,0.5
060,78,0,1,14,47,697,1211.1045172552112,1211.671355664963,"[64, 0, 190]",190,l,0.04339670040644705,colour,0.5
060,78,0,1,14,48,698,1212.1826511661056,1212.999321797397,"[78, 0, 176]",176,a,0.29341836203821003,colour,0.5
060,78,0,1,14,49,699,1213.51074963063,1214.6073620044626,"[7, 0, 247]",247,a,0.5732549475505948,colour,0.5
060,78,0,1,14,50,700,1215.1201545137446,1216.2153025681619,"[46, 0, 208]",208,a,0.5718855450395495,colour,0.5
060,78,0,1,15,1,701,1221.0568315726705,1228.759271526942,"[84, 0, 170]",170,a,7.178724915953353,colour,0.5
060,78,0,1,15,2,702,1229.2763297813945,1230.0872601084411,"[19, 0, 235]",235,a,0.28761701146140695,colour,0.5
060,78,0,1,15,3,703,1230.6044778707437,1231.5353216775693,"[59, 0, 195]",195,a,0.40816261409781873,colour,0.5
060,78,0,1,15,4,704,1232.0418106829748,1232.6793385280762,"[5, 0, 249]",249,a,0.11401445581577718,colour,0.5
060,78,0,1,15,5,705,1233.198126160074,1233.9272877722979,"[45, 0, 209]",209,a,0.20578528149053454,colour,0.5
060,78,0,1,15,6,706,1234.4481935075019,1235.04730955977,"[80, 0, 174]",174,l,0.07579525373876095,colour,0.5
060,78,0,1,15,7,707,1235.5576027228963,1236.2953501762822,"[20, 0, 234]",234,a,0.21447076555341482,colour,0.5
060,78,0,1,15,8,708,1236.8075141075533,1237.871348260669,"[23, 0, 231]",231,a,0.5405129606369883,colour,0.5
060,78,0,1,15,9,709,1238.385646049166,1239.0152788588312,"[73, 0, 181]",181,l,0.10628719883970916,colour,0.5
060,78,0,1,15,10,710,1239.5262707045767,1240.143265786115,"[65, 0, 189]",189,l,0.09361599385738373,colour,0.5
060,78,0,1,15,11,711,1240.6512998491526,1241.3593095724937,"[4, 0, 250]",250,a,0.18478974932804704,colour,0.5
060,78,0,1,15,12,712,1241.8700020953547,1242.4873933859635,"[28, 0, 226]",226,a,0.0939696675632149,colour,0.5
060,78,0,1,15,13,713,1242.9950911044143,1243.9912810390815,"[9, 0, 245]",245,a,0.47284826217219234,colour,0.5
060,78,0,1,15,14,714,1244.5106716491282,1245.303322799271,"[56, 0, 198]",198,l,0.2692444932181388,colour,0.5
060,78,0,1,15,15,715,1245.8230702339206,1246.7273613426369,"[53, 0, 201]",201,l,0.3809301380533725,colour,0.5
060,78,0,1,15,16,716,1247.2450513259973,1248.3512609372847,"[41, 0, 213]",213,a,0.5828990526497364,colour,0.5
060,78,0,1,15,17,717,1248.8700651107356,1249.8792976466939,"[89, 0, 165]",165,l,0.48589322669431567,colour,0.5
060,78,0,1,15,18,718,1250.3855952429585,1251.055456656497,"[67, 0, 187]",187,l,0.1464744487311691,colour,0.5
060,78,0,1,15,19,719,1251.5730828368105,1252.143292173976,"[74, 0, 180]",180,l,0.04679362173192203,colour,0.5
060,78,0,1,15,20,720,1252.6512395907193,1253.3752615137491,"[25, 0, 229]",229,a,0.20052113686688244,colour,0.5
060,78,0,1,15,21,721,1253.8856499877293,1254.8153035922442,"[42, 0, 212]",212,a,0.40642890450544655,colour,0.5
060,78,0,1,15,22,722,1255.323179329047,1256.0312422215939,"[26, 0, 228]",228,a,0.18479211232624948,colour,0.5
060,78,0,1,15,23,723,1256.5418756676372,1257.3432351450901,"[8, 0, 246]",246,a,0.27802922669798136,colour,0.5
060,78,0,1,15,24,724,1257.8543597168755,1258.7672799897846,"[31, 0, 223]",223,a,0.3895581206306815,colour,0.5
060,78,0,1,15,25,725,1259.276236440055,1259.8792885884177,"[71, 0, 183]",183,l,0.07966675912030041,colour,0.5
060,78,0,1,15,26,726,1260.3856239938177,1261.0152638927102,"[92, 0, 162]",162,l,0.106320675695315,colour,0.5
060,78,0,1,15,27,727,1261.5262805507518,1262.3272997452877,"[15, 0, 239]",239,a,0.27774959593079984,colour,0.5
060,78,0,1,15,28,728,1262.8387110368349,1263.4472782097291,"[97, 0, 157]",157,l,0.08518808521330357,colour,0.5
060,78,0,1,15,29,729,1263.9638106799684,1266.1992624055129,"[58, 0, 196]",196,l,1.7121655854862183,colour,0.5
060,78,0,1,15,30,730,1266.7136732276995,1268.7432987117209,"[47, 0, 207]",207,a,1.5062719963025302,colour,0.5
060,78,0,1,15,31,731,1269.2605688553303,1270.151325055398,"[40, 0, 214]",214,a,0.3674972353037447,colour,0.5
060,78,0,1,15,32,732,1270.6668228923809,1271.415281773312,"[63, 0, 191]",191,l,0.2252396948169917,colour,0.5
060,78,0,1,15,33,733,1271.9324416399468,1272.6872839755379,"[6, 0, 248]",248,a,0.23153414018452168,colour,0.5
060,78,0,1,15,34,734,1273.198077323148,1273.9592400980182,"[69, 0, 185]",185,l,0.2378553671296686,colour,0.5
060,78,0,1,15,35,735,1274.4793226954062,1275.3032940486446,"[81, 0, 173]",173,l,0.3006596132181585,colour,0.5
060,78,0,1,15,36,736,1275.823092289269,1278.05528848432,"[51, 0, 203]",203,a,1.7089911873918027,colour,0.5
060,78,0,1,15,37,737,1278.5731060737744,1279.1512872460298,"[14, 0, 240]",240,l,0.05494780745357275,colour,0.5
060,78,0,1,15,38,738,1279.6667925661895,1280.4632829264738,"[13, 0, 241]",241,a,0.27331882948055863,colour,0.5
060,78,0,1,15,39,739,1280.979288036935,1281.6152507381048,"[86, 0, 168]",168,l,0.1126088195014745,colour,0.5
060,78,0,1,15,40,740,1282.1356169045903,1282.7352788271382,"[88, 0, 166]",166,l,0.07648684713058174,colour,0.5
060,78,0,1,15,41,741,1283.244894181611,1284.4472167696804,"[54, 0, 200]",200,a,0.6789537402801216,colour,0.5
060,78,0,1,15,42,742,1284.9636830738746,1285.9912530761212,"[17, 0, 237]",237,a,0.5042566868942231,colour,0.5
060,78,0,1,15,43,743,1286.5105432553682,1287.2552791107446,"[90, 0, 164]",164,l,0.22138866921886802,colour,0.5
060,78,0,1,15,44,744,1287.7761714553926,1288.519251976395,"[37, 0, 217]",217,a,0.2197668117005378,colour,0.5
060,78,0,1,15,45,745,1289.0261293139774,1289.7832591065671,"[21, 0, 233]",233,l,0.23380190483294427,colour,0.5
060,78,0,1,15,46,746,1290.2917768124025,1290.9832442190964,"[33, 0, 221]",221,a,0.16822458966635168,colour,0.5
060,78,0,1,15,47,747,1291.4948756708764,1292.1752645857632,"[62, 0, 192]",192,l,0.1570468486752361,colour,0.5
060,78,0,1,15,48,748,1292.6823935906868,1293.6152428612113,"[30, 0, 224]",224,a,0.4096001519355923,colour,0.5
060,78,0,1,15,49,749,1294.1354999323376,1295.1193042004015,"[79, 0, 175]",175,l,0.4604243927169591,colour,0.5
060,78,0,1,15,50,750,1295.6354644862004,1296.6072414875962,"[55, 0, 199]",199,l,0.448469593655318,colour,0.5
060,78,0,1,16,1,751,1303.025384551147,1303.815236638533,"[6, 0, 248]",248,a,0.2658148829359561,colour,0.5
060,78,0,1,16,2,752,1304.3230576307978,1304.8632180993445,"[79, 0, 175]",175,l,0.016907805344089866,colour,0.5
060,78,0,1,16,3,753,1305.369826440001,1306.1752338658553,"[14, 0, 240]",240,a,0.2821346763521433,colour,0.5
060,78,0,1,16,4,754,1306.682366809342,1307.559263965115,"[50, 0, 204]",204,l,0.3535999881569296,colour,0.5
060,78,0,1,16,5,755,1308.0729910708033,1309.4392799867783,"[53, 0, 201]",201,a,0.8430606711190194,colour,0.5
060,78,0,1,16,6,756,1309.9479233291931,1310.6152601905633,"[70, 0, 184]",184,l,0.14391523809172213,colour,0.5
060,78,0,1,16,7,757,1311.1354136799928,1311.8072982800659,"[67, 0, 187]",187,l,0.14853190002031624,colour,0.5
060,78,0,1,16,8,758,1312.3230627507437,1313.023243210977,"[29, 0, 225]",225,a,0.17695457860827446,colour,0.5
060,78,0,1,16,9,759,1313.5416200617328,1314.1992486207746,"[15, 0, 239]",239,a,0.13433572370558977,colour,0.5
060,78,0,1,16,10,760,1314.7135755538475,1315.471273272531,"[32, 0, 222]",222,a,0.2343398986849934,colour,0.5
060,78,0,1,16,11,761,1315.979183667805,1316.7592341115233,"[16, 0, 238]",238,a,0.2567457929253578,colour,0.5
060,78,0,1,16,12,762,1317.2761450677644,1318.0792449500877,"[38, 0, 216]",216,a,0.27988227154128253,colour,0.5
060,78,0,1,16,13,763,1318.5885420769919,1319.1672557289712,"[25, 0, 229]",229,a,0.0553333826828748,colour,0.5
060,78,0,1,16,14,764,1319.6822817386128,1320.4232480947394,"[26, 0, 228]",228,a,0.21767588378861547,colour,0.5
060,78,0,1,16,15,765,1320.9322876462247,1322.8632125854492,"[96, 0, 158]",158,l,1.407458417583257,colour,0.5
060,78,0,1,16,16,766,1323.3697925694287,1324.4152864993084,"[40, 0, 214]",214,a,0.5222361467313021,colour,0.5
060,78,0,1,16,17,767,1324.9322561386507,1325.5912997862324,"[0, 0, 254]",254,a,0.1357476613484323,colour,0.5
060,78,0,1,16,18,768,1326.1041470400523,1326.8472311056685,"[44, 0, 210]",210,a,0.2197483009658754,colour,0.5
060,78,0,1,16,19,769,1327.3541876061354,1328.0952622699551,"[12, 0, 242]",242,a,0.21776016685180366,colour,0.5
060,78,0,1,16,20,770,1328.6041245909873,1329.4872484507505,"[42, 0, 212]",212,a,0.35970026766881347,colour,0.5
060,78,0,1,16,21,771,1329.9947453078348,1330.7272136504762,"[91, 0, 163]",163,l,0.20913691027089953,colour,0.5
060,78,0,1,16,22,772,1331.2447945384774,1331.8312606536783,"[99, 0, 155]",155,l,0.06308545195497572,colour,0.5
060,78,0,1,16,23,773,1332.3385074185207,1332.9832576098852,"[89, 0, 165]",165,l,0.12139709736220539,colour,0.5
060,78,0,1,16,24,774,1333.4947413692717,1334.2472958539147,"[64, 0, 190]",190,l,0.22957751364447176,colour,0.5
060,78,0,1,16,25,775,1334.7603676000144,1335.7192548119929,"[97, 0, 157]",157,l,0.43555577960796654,colour,0.5
060,78,0,1,16,26,776,1336.2291289232671,1337.0472327598836,"[39, 0, 215]",215,a,0.29471096443012357,colour,0.5
060,78,0,1,16,27,777,1337.5571702802554,1339.0712006471585,"[86, 0, 168]",168,l,0.9906115008052438,colour,0.5
060,78,0,1,16,28,778,1339.5884365262464,1340.271257439861,"[24, 0, 230]",230,a,0.15931461355648935,colour,0.5
060,78,0,1,16,29,779,1340.7916543262545,1341.4392862883396,"[3, 0, 251]",251,l,0.12440489884465933,colour,0.5
060,78,0,1,16,30,780,1341.9479260861408,1343.5832243694458,"[72, 0, 182]",182,l,1.1119814231060445,colour,0.5
060,78,0,1,16,31,781,1344.104054486379,1344.89523659111,"[87, 0, 167]",167,l,0.267756937071681,colour,0.5
060,78,0,1,16,32,782,1345.4166243940126,1346.3432091511786,"[88, 0, 166]",166,l,0.4034565493930131,colour,0.5
060,78,0,1,16,33,783,1346.8540816616733,1347.6072426689789,"[34, 0, 220]",220,a,0.2298299688845873,colour,0.5
060,78,0,1,16,34,784,1348.1196866247337,1348.7352705565281,"[55, 0, 199]",199,a,0.09230173006653786,colour,0.5
060,78,0,1,16,35,785,1349.2446870186832,1350.0072491280735,"[68, 0, 186]",186,a,0.23918853560462594,colour,0.5
060,78,0,1,16,36,786,1350.5260430616327,1351.1672391875181,"[8, 0, 246]",246,a,0.11793243512511253,colour,0.5
060,78,0,1,16,37,787,1351.6823372708168,1352.471244521672,"[77, 0, 177]",177,l,0.2656435598619282,colour,0.5
060,78,0,1,16,38,788,1352.9791667324025,1354.0152142681181,"[80, 0, 174]",174,a,0.5127940848469734,colour,0.5
060,78,0,1,16,39,789,1354.5260367600713,1355.4072303811554,"[66, 0, 188]",188,a,0.3579027547966689,colour,0.5
060,78,0,1,16,40,790,1355.9167004062328,1356.9512359674554,"[31, 0, 223]",223,a,0.5114286211319268,colour,0.5
060,78,0,1,16,41,791,1357.4635322308168,1358.6872067817021,"[46, 0, 208]",208,a,0.700374232372269,colour,0.5
060,78,0,1,16,42,792,1359.1978433786426,1359.879203123739,"[73, 0, 181]",181,l,0.15798223274759948,colour,0.5
060,78,0,1,16,43,793,1360.3854337662924,1361.1991769408341,"[36, 0, 218]",218,a,0.2905125666875392,colour,0.5
060,78,0,1,16,44,794,1361.7134778802283,1363.6792006818578,"[11, 0, 243]",243,a,1.4424252400640398,colour,0.5
060,78,0,1,16,45,795,1364.197896941565,1365.2152438852936,"[82, 0, 172]",172,l,0.49407025589607656,colour,0.5
060,78,0,1,16,46,796,1365.7291777599603,1366.5592182788532,"[61, 0, 193]",193,l,0.30682920943945646,colour,0.5
060,78,0,1,16,47,797,1367.0728930032346,1369.0072050173767,"[37, 0, 217]",217,l,1.4110262680333108,colour,0.5
060,78,0,1,16,48,798,1369.5259879231453,1370.2871920519974,"[7, 0, 247]",247,a,0.23786600097082555,colour,0.5
060,78,0,1,16,49,799,1370.8071080525406,1371.4872220631223,"[98, 0, 156]",156,l,0.15670853527262807,colour,0.5
060,78,0,1,16,50,800,1371.9947492461652,1372.6072422752623,"[51, 0, 203]",203,a,0.08914544899016619,colour,0.5
