id,age,condition,counterbalance,block,trialinblock,trial,tstart,tend,trialstim,trialintensity,response,RT,trialtype,colourfreq
130,20,0,2,Practice,1,NA,5.119945853948593e-06,3.5815804563462734,"[89, 0, 165]",165,l,3.0696083281654865,colour,0.5
130,20,0,2,Practice,2,NA,4.09988917177543,5.4775629916694015,"[14, 0, 240]",240,a,0.8628041672054678,colour,0.5
130,20,0,2,Practice,3,NA,5.997794856783003,7.085609894013032,"[70, 0, 184]",184,l,0.564560798695311,colour,0.5
130,20,0,2,Practice,4,NA,7.591446690494195,8.525586200179532,"[38, 0, 216]",216,a,0.4108671541325748,colour,0.5
130,20,0,2,Practice,5,NA,9.04459281056188,10.093629384646192,"[31, 0, 223]",223,a,0.5257476770784706,colour,0.5
130,20,0,2,Practice,6,NA,10.607514816569164,11.58964917785488,"[81, 0, 173]",173,l,0.4592723932582885,colour,0.5
130,20,0,2,Practice,7,NA,12.107089068973437,13.085612650960684,"[78, 0, 176]",176,l,0.45521262963302433,colour,0.5
130,20,0,2,Practice,8,NA,13.607067407574505,14.493559831520543,"[13, 0, 241]",241,a,0.3631424808409065,colour,0.5
130,20,0,2,Practice,9,NA,15.013289542868733,15.885572005994618,"[17, 0, 237]",237,a,0.34891519066877663,colour,0.5
130,20,0,2,Practice,10,NA,16.40395003836602,17.40560064651072,"[50, 0, 204]",204,a,0.49091594386845827,colour,0.5
130,20,0,2,1,1,1,4.363646209938452,5.1839079284109175,"[19, 0, 235]",235,a,0.29644900653511286,colour,0.5
130,20,0,2,1,2,2,5.69253157870844,6.53592347423546,"[89, 0, 165]",165,l,0.3200939402449876,colour,0.5
130,20,0,2,1,3,3,7.051901015453041,8.031931845704094,"[64, 0, 190]",190,a,0.4691606827545911,colour,0.5
130,20,0,2,1,4,4,8.539473995100707,9.551910467911512,"[10, 0, 244]",244,a,0.4891207942273468,colour,0.5
130,20,0,2,1,5,5,10.070867453468964,10.95189290237613,"[37, 0, 217]",217,a,0.35778263164684176,colour,0.5
130,20,0,2,1,6,6,11.461356625892222,12.31191297271289,"[56, 0, 198]",198,a,0.32723436667583883,colour,0.5
130,20,0,2,1,7,7,12.820641779806465,13.647899383446202,"[35, 0, 219]",219,a,0.3038828482385725,colour,0.5
130,20,0,2,1,8,8,14.16444721375592,15.03989147185348,"[70, 0, 184]",184,l,0.35214590886607766,colour,0.5
130,20,0,2,1,9,9,15.556172274518758,16.503877019276842,"[88, 0, 166]",166,l,0.4244182107504457,colour,0.5
130,20,0,2,1,10,10,17.02064382797107,17.600003387080505,"[8, 0, 246]",246,a,0.0558800408616662,colour,0.5
130,20,0,2,1,11,11,18.114524486241862,18.983928329544142,"[4, 0, 250]",250,a,0.34623152459971607,colour,0.5
130,20,0,2,1,12,12,19.493293591775,20.311910609714687,"[26, 0, 228]",228,a,0.2954781763255596,colour,0.5
130,20,0,2,1,13,13,20.82134440098889,21.65591926802881,"[41, 0, 213]",213,a,0.3113375639077276,colour,0.5
130,20,0,2,1,14,14,22.165037194965407,22.999938166234642,"[90, 0, 164]",164,l,0.31170344655402005,colour,0.5
130,20,0,2,1,15,15,23.50872762571089,24.343941310653463,"[2, 0, 252]",252,a,0.3117893049493432,colour,0.5
130,20,0,2,1,16,16,24.85291075776331,25.703877885825932,"[67, 0, 187]",187,l,0.32753920345567167,colour,0.5
130,20,0,2,1,17,17,26.212349117733538,26.999904295429587,"[73, 0, 181]",181,l,0.2641965700313449,colour,0.5
130,20,0,2,1,18,18,27.51137623959221,28.29591613286175,"[46, 0, 208]",208,a,0.2613868732005358,colour,0.5
130,20,0,2,1,19,19,28.808076125802472,29.695877299644053,"[61, 0, 193]",193,a,0.3645682029891759,colour,0.5
130,20,0,2,1,20,20,30.214407356455922,31.00789385382086,"[11, 0, 243]",243,a,0.27020902186632156,colour,0.5
130,20,0,2,1,21,21,31.526953239459544,32.39989263773896,"[40, 0, 214]",214,a,0.3495926058385521,colour,0.5
130,20,0,2,1,22,22,32.91757868253626,33.51995577896014,"[52, 0, 202]",202,a,0.07896374398842454,colour,0.5
130,20,0,2,1,23,23,34.02690676576458,34.791891421424225,"[77, 0, 177]",177,l,0.24149371567182243,colour,0.5
130,20,0,2,1,24,24,35.308074944186956,37.40793142677285,"[62, 0, 192]",192,a,1.5763864163309336,colour,0.5
130,20,0,2,1,25,25,37.91867987578735,38.66391394636594,"[80, 0, 174]",174,l,0.22184946900233626,colour,0.5
130,20,0,2,1,26,26,39.18436400196515,40.119894969277084,"[71, 0, 183]",183,l,0.41236810106784105,colour,0.5
130,20,0,2,1,27,27,40.63747231266461,41.28787773777731,"[6, 0, 248]",248,a,0.1270416972693056,colour,0.5
130,20,0,2,1,28,28,41.80929665430449,42.71184932719916,"[49, 0, 205]",205,a,0.379259837558493,colour,0.5
130,20,0,2,1,29,29,43.23122654645704,44.01592397829518,"[5, 0, 249]",249,a,0.2615511070471257,colour,0.5
130,20,0,2,1,30,30,44.52975387778133,45.32795234792866,"[72, 0, 182]",182,l,0.2748359239194542,colour,0.5
130,20,0,2,1,31,31,45.842299367068335,46.63184898067266,"[22, 0, 232]",232,a,0.2662831658963114,colour,0.5
130,20,0,2,1,32,32,47.139074084116146,47.9678858036641,"[18, 0, 236]",236,a,0.3054464163724333,colour,0.5
130,20,0,2,1,33,33,48.48291772091761,49.271877747029066,"[9, 0, 245]",245,a,0.2660330734215677,colour,0.5
130,20,0,2,1,34,34,49.77972276415676,50.47987959347665,"[38, 0, 216]",216,a,0.18608510843478143,colour,0.5
130,20,0,2,1,35,35,50.99197460175492,51.86386794503778,"[33, 0, 221]",221,a,0.3486615540459752,colour,0.5
130,20,0,2,1,36,36,52.3825007956475,53.135901655070484,"[32, 0, 222]",222,a,0.2303155807312578,colour,0.5
130,20,0,2,1,37,37,53.63846716750413,54.44789694156498,"[16, 0, 238]",238,a,0.28612709254957736,colour,0.5
130,20,0,2,1,38,38,54.96657469053753,55.63990312977694,"[98, 0, 156]",156,l,0.15009468072094023,colour,0.5
130,20,0,2,1,39,39,56.1540666166693,56.799871921306476,"[47, 0, 207]",207,a,0.12238328764215112,colour,0.5
130,20,0,2,1,40,40,57.310369490645826,58.93593347794376,"[68, 0, 186]",186,l,1.1148123876191676,colour,0.5
130,20,0,2,1,41,41,59.45413231034763,61.8963200612925,"[44, 0, 210]",210,a,1.9196763059590012,colour,0.5
130,20,0,2,1,42,42,62.39488764363341,63.33590646018274,"[43, 0, 211]",211,a,0.417796085588634,colour,0.5
130,20,0,2,1,43,43,63.84791324683465,64.79986404441297,"[99, 0, 155]",155,l,0.4286642635706812,colour,0.5
130,20,0,2,1,44,44,65.31665842211805,66.21591421100311,"[92, 0, 162]",162,l,0.3788549639284611,colour,0.5
130,20,0,2,1,45,45,66.73566676536575,67.3038942697458,"[91, 0, 163]",163,l,0.04485550569370389,colour,0.5
130,20,0,2,1,46,46,67.81383021455258,68.41585363750346,"[60, 0, 194]",194,a,0.0787770610768348,colour,0.5
130,20,0,2,1,47,47,68.91341179283336,69.95987970381975,"[76, 0, 178]",178,l,0.5230443186592311,colour,0.5
130,20,0,2,1,48,48,70.47589426650666,71.38390485639684,"[51, 0, 203]",203,a,0.3846649790648371,colour,0.5
130,20,0,2,1,49,49,71.89784070034511,72.7438760898076,"[94, 0, 160]",160,l,0.3227524000685662,colour,0.5
130,20,0,2,1,50,50,73.25782059854828,75.7999010658823,"[66, 0, 188]",188,l,2.0187549425754696,colour,0.5
130,20,0,2,2,1,51,80.58513334044255,81.51986322528683,"[92, 0, 162]",162,l,0.41081162192858756,colour,0.5
130,20,0,2,2,2,52,82.03901043860242,83.23187678609975,"[33, 0, 221]",221,a,0.6693903736304492,colour,0.5
130,20,0,2,2,3,53,83.74217979540117,85.54386577103287,"[65, 0, 189]",189,a,1.278330912347883,colour,0.5
130,20,0,2,2,4,54,86.05475915549323,87.1198563722428,"[37, 0, 217]",217,a,0.5417988675180823,colour,0.5
130,20,0,2,2,5,55,87.63278987864032,88.70386173808947,"[62, 0, 192]",192,a,0.5481492392718792,colour,0.5
130,20,0,2,2,6,56,89.21091473079287,90.11983431689441,"[2, 0, 252]",252,a,0.38559012301266193,colour,0.5
130,20,0,2,2,7,57,90.63472011731938,91.47987880581059,"[50, 0, 204]",204,a,0.322543267859146,colour,0.5
130,20,0,2,2,8,58,91.99412578810006,92.85610287892632,"[7, 0, 247]",247,a,0.338672440033406,colour,0.5
130,20,0,2,2,9,59,93.36907813278958,94.2078710894566,"[15, 0, 239]",239,a,0.3154961827676743,colour,0.5
130,20,0,2,2,10,60,94.72846096055582,95.70389915350825,"[71, 0, 183]",183,l,0.45207210211083293,colour,0.5
130,20,0,2,2,11,61,96.212832366582,97.03987808106467,"[5, 0, 249]",249,a,0.3037962019443512,colour,0.5
130,20,0,2,2,12,62,97.5565751788672,98.39988554851152,"[24, 0, 230]",230,a,0.3200730662792921,colour,0.5
130,20,0,2,2,13,63,98.91593437595293,99.96786217298359,"[44, 0, 210]",210,a,0.5286806477233768,colour,0.5
130,20,0,2,2,14,64,100.47848577285185,101.31187713262625,"[48, 0, 206]",206,a,0.3101217614021152,colour,0.5
130,20,0,2,2,15,65,101.80979605088942,102.67982492758892,"[38, 0, 216]",216,a,0.34672934585250914,colour,0.5
130,20,0,2,2,16,66,103.2004045585636,103.98384207719937,"[26, 0, 228]",228,a,0.26013916940428317,colour,0.5
130,20,0,2,2,17,67,104.49795751506463,105.27983382856473,"[88, 0, 166]",166,l,0.25867051794193685,colour,0.5
130,20,0,2,2,18,68,105.7947684659157,106.59985727025196,"[31, 0, 223]",223,a,0.2817577659152448,colour,0.5
130,20,0,2,2,19,69,107.09888525865972,107.91185570741072,"[43, 0, 211]",211,a,0.28976150252856314,colour,0.5
130,20,0,2,2,20,70,108.42984816455282,109.27190964855254,"[32, 0, 222]",222,a,0.3187044516671449,colour,0.5
130,20,0,2,2,21,71,109.79085481911898,110.4318674125243,"[68, 0, 186]",186,l,0.11767092114314437,colour,0.5
130,20,0,2,2,22,72,110.94997172197327,111.83985240245238,"[72, 0, 182]",182,l,0.3665961157530546,colour,0.5
130,20,0,2,2,23,73,112.35633918642998,113.07185482536443,"[87, 0, 167]",167,l,0.19235119712539017,colour,0.5
130,20,0,2,2,24,74,113.59247029619291,116.70391451334581,"[63, 0, 191]",191,l,2.588345547672361,colour,0.5
130,20,0,2,2,25,75,117.21741752093658,118.335845020134,"[64, 0, 190]",190,l,0.5950539254117757,colour,0.5
130,20,0,2,2,26,76,118.84247659775428,119.60783501318656,"[61, 0, 193]",193,a,0.24203879851847887,colour,0.5
130,20,0,2,2,27,77,120.11132527585141,120.87183505413122,"[78, 0, 176]",176,l,0.2372831089887768,colour,0.5
130,20,0,2,2,28,78,121.39253283897415,121.95185154839419,"[60, 0, 194]",194,a,0.035991215612739325,colour,0.5
130,20,0,2,2,29,79,122.47071401122957,123.2958476038184,"[11, 0, 243]",243,a,0.30178680014796555,colour,0.5
130,20,0,2,2,30,80,123.81439617136493,124.5838167136535,"[52, 0, 202]",202,a,0.24617496854625642,colour,0.5
130,20,0,2,2,31,81,125.09568250342272,125.88791972165927,"[46, 0, 208]",208,a,0.2689030289184302,colour,0.5
130,20,0,2,2,32,82,126.4088845339138,127.71186862559989,"[74, 0, 180]",180,l,0.7797515145502985,colour,0.5
130,20,0,2,2,33,83,128.21201789332554,129.0238595798146,"[86, 0, 168]",168,l,0.2885630296077579,colour,0.5
130,20,0,2,2,34,84,129.5418445537798,130.32781883399002,"[28, 0, 226]",226,a,0.26260661403648555,colour,0.5
130,20,0,2,2,35,85,130.83887960296124,131.95986670674756,"[73, 0, 181]",181,l,0.5978888282552361,colour,0.5
130,20,0,2,2,36,86,132.47939161839895,134.5838655505795,"[99, 0, 155]",155,l,1.5812913735862821,colour,0.5
130,20,0,2,2,37,87,135.10443730442785,136.03180345194414,"[36, 0, 218]",218,a,0.4041757117956877,colour,0.5
130,20,0,2,2,38,88,136.54189811693504,137.4158276435919,"[20, 0, 234]",234,a,0.35079383570700884,colour,0.5
130,20,0,2,2,39,89,137.9324117077049,138.6078117764555,"[79, 0, 175]",175,l,0.15225610695779324,colour,0.5
130,20,0,2,2,40,90,139.12000682158396,139.84781675459817,"[14, 0, 240]",240,a,0.20510983583517373,colour,0.5
130,20,0,2,2,41,91,140.35439161839895,141.19185849605128,"[18, 0, 236]",236,a,0.3142520235851407,colour,0.5
130,20,0,2,2,42,92,141.68657387141138,142.4958764333278,"[69, 0, 185]",185,l,0.2859872772824019,colour,0.5
130,20,0,2,2,43,93,143.01463767746463,143.7758378679864,"[47, 0, 207]",207,a,0.23789790272712708,colour,0.5
130,20,0,2,2,44,94,144.2957798622083,145.15981440409087,"[84, 0, 170]",170,l,0.3406649064272642,colour,0.5
130,20,0,2,2,45,95,145.67080152384005,146.4238097188063,"[16, 0, 238]",238,a,0.22954797511920333,colour,0.5
130,20,0,2,2,46,96,146.93648840673268,147.74383000982925,"[58, 0, 196]",196,a,0.2839959922712296,colour,0.5
130,20,0,2,2,47,97,148.26468218211085,148.97586000198498,"[82, 0, 172]",172,l,0.18787789507769048,colour,0.5
130,20,0,2,2,48,98,149.48337024985813,150.2718033103738,"[0, 0, 254]",254,a,0.2653292710892856,colour,0.5
130,20,0,2,2,49,99,150.7803025052417,151.5598567032721,"[21, 0, 233]",233,a,0.2563539163675159,colour,0.5
130,20,0,2,2,50,100,152.0771040036343,153.3758656734135,"[70, 0, 184]",184,l,0.7754991604015231,colour,0.5
130,20,0,2,3,1,101,160.86178922629915,161.99983497872017,"[2, 0, 252]",252,a,0.6138833051081747,colour,0.5
130,20,0,2,3,2,102,162.51914642564952,163.36779340729117,"[49, 0, 205]",205,a,0.32526277378201485,colour,0.5
130,20,0,2,3,3,103,163.8785773026757,164.6958643028047,"[31, 0, 223]",223,a,0.29414421995170414,colour,0.5
130,20,0,2,3,4,104,165.20661905338056,166.1037984865252,"[39, 0, 215]",215,a,0.3738956560846418,colour,0.5
130,20,0,2,3,5,105,166.61340872081928,167.42381562665105,"[11, 0, 243]",243,a,0.2855103297624737,colour,0.5
130,20,0,2,3,6,106,167.94324404583313,168.8078130367212,"[84, 0, 170]",170,l,0.3412470107432455,colour,0.5
130,20,0,2,3,7,107,169.31954570673406,170.15186265506782,"[77, 0, 177]",177,l,0.32217187131755054,colour,0.5
130,20,0,2,3,8,108,170.65522176679224,171.42381680803373,"[83, 0, 171]",171,l,0.24536561500281096,colour,0.5
130,20,0,2,3,9,109,171.936623102054,173.08785639121197,"[67, 0, 187]",187,l,0.6269688357133418,colour,0.5
130,20,0,2,3,10,110,173.5937046094332,174.28786080237478,"[22, 0, 232]",232,a,0.18355701165273786,colour,0.5
130,20,0,2,3,11,111,174.8001121673733,176.4558305738028,"[64, 0, 190]",190,l,1.132603983161971,colour,0.5
130,20,0,2,3,12,112,176.95949176559225,177.52782560815103,"[52, 0, 202]",202,a,0.04503155476413667,colour,0.5
130,20,0,2,3,13,113,178.03760480252095,178.6878664738033,"[27, 0, 227]",227,a,0.12685304507613182,colour,0.5
130,20,0,2,3,14,114,179.20944726094604,179.7998163891025,"[14, 0, 240]",240,a,0.06569980108179152,colour,0.5
130,20,0,2,3,15,115,180.32023060461506,181.07980302977376,"[74, 0, 180]",180,l,0.23913930472917855,colour,0.5
130,20,0,2,3,16,116,181.59865564643405,182.4478437723592,"[66, 0, 188]",188,l,0.3260087182279676,colour,0.5
130,20,0,2,3,17,117,182.95804162486456,183.6478603926953,"[29, 0, 225]",225,a,0.16658855392597616,colour,0.5
130,20,0,2,3,18,118,184.16113024344668,185.0398383026477,"[85, 0, 169]",169,l,0.3553715068846941,colour,0.5
130,20,0,2,3,19,119,185.55242443666793,186.15181224257685,"[46, 0, 208]",208,a,0.08454375294968486,colour,0.5
130,20,0,2,3,20,120,186.6689461155329,187.23980451072566,"[6, 0, 248]",248,a,0.047511996468529105,colour,0.5
130,20,0,2,3,21,121,187.7470445802901,188.44784574164078,"[19, 0, 235]",235,a,0.17751935357227921,colour,0.5
130,20,0,2,3,22,122,188.96582677727565,189.64777886657976,"[80, 0, 174]",174,l,0.15884317993186414,colour,0.5
130,20,0,2,3,23,123,190.168958324939,190.83177383476868,"[41, 0, 213]",213,a,0.13957348046824336,colour,0.5
130,20,0,2,3,24,124,191.34078187868,192.17579627782106,"[68, 0, 186]",186,l,0.3117227451875806,colour,0.5
130,20,0,2,3,25,125,192.68448254955,193.5677734001074,"[50, 0, 204]",204,a,0.3599499659612775,colour,0.5
130,20,0,2,3,26,126,194.0751788849011,194.94378991634585,"[53, 0, 201]",201,a,0.3452693591825664,colour,0.5
130,20,0,2,3,27,127,195.45015170960687,196.91187461209483,"[70, 0, 184]",184,l,0.9383308179676533,colour,0.5
130,20,0,2,3,28,128,197.41887561720796,198.27980586560443,"[3, 0, 251]",251,a,0.337644896004349,colour,0.5
130,20,0,2,3,29,129,198.79385553114116,199.59978125803173,"[94, 0, 160]",160,l,0.28286407911218703,colour,0.5
130,20,0,2,3,30,130,200.10640889708884,201.26383068738505,"[73, 0, 181]",181,l,0.6341210778336972,colour,0.5
130,20,0,2,3,31,131,201.77853965084068,202.53587424359284,"[81, 0, 173]",173,l,0.23393738805316389,colour,0.5
130,20,0,2,3,32,132,203.04421314317733,203.63177257450297,"[0, 0, 254]",254,a,0.06416695285588503,colour,0.5
130,20,0,2,3,33,133,204.1379520171322,204.83978190389462,"[63, 0, 191]",191,a,0.17847364209592342,colour,0.5
130,20,0,2,3,34,134,205.3566459924914,205.92778913816437,"[47, 0, 207]",207,a,0.047854248667135835,colour,0.5
130,20,0,2,3,35,135,206.43475745408796,208.25579111045226,"[42, 0, 212]",212,a,1.297697497997433,colour,0.5
130,20,0,2,3,36,136,208.76294492790475,209.61580487922765,"[1, 0, 253]",253,a,0.329630131367594,colour,0.5
130,20,0,2,3,37,137,210.11296367482282,210.94379739952274,"[10, 0, 244]",244,a,0.3061860592570156,colour,0.5
130,20,0,2,3,38,138,211.45796128036454,212.29578616376966,"[8, 0, 246]",246,a,0.31450132792815566,colour,0.5
130,20,0,2,3,39,139,212.8173523787409,213.42381602036767,"[90, 0, 164]",164,l,0.08307431382127106,colour,0.5
130,20,0,2,3,40,140,213.942426815629,214.5998033133801,"[9, 0, 245]",245,a,0.13410374848172069,colour,0.5
130,20,0,2,3,41,141,215.1142936926335,215.85607727896422,"[15, 0, 239]",239,a,0.21857070177793503,colour,0.5
130,20,0,2,3,42,142,216.35231093037874,217.0318318088539,"[93, 0, 161]",161,l,0.15608035074546933,colour,0.5
130,20,0,2,3,43,143,217.5408075575251,218.08780519128777,"[12, 0, 242]",242,a,0.02368234912864864,colour,0.5
130,20,0,2,3,44,144,218.6032541913446,219.3757857226301,"[21, 0, 233]",233,a,0.2492056128103286,colour,0.5
130,20,0,2,3,45,145,219.88447947753593,222.24780391529202,"[59, 0, 195]",195,a,1.8399957623332739,colour,0.5
130,20,0,2,3,46,146,222.75960747757927,223.34379401244223,"[87, 0, 167]",167,l,0.07265433249995112,colour,0.5
130,20,0,2,3,47,147,223.85720328451134,224.38378827786073,"[51, 0, 203]",203,a,0.003308305749669671,colour,0.5
130,20,0,2,3,48,148,224.9040599213913,225.91978815826587,"[75, 0, 179]",179,l,0.4920600662007928,colour,0.5
130,20,0,2,3,49,149,226.4364663513843,227.02380247204565,"[78, 0, 176]",176,l,0.06392552517354488,colour,0.5
130,20,0,2,3,50,150,227.53023752057925,228.15979195479304,"[45, 0, 209]",209,a,0.10620330949313939,colour,0.5
130,20,0,2,4,1,151,234.85757783195004,235.56779427384026,"[26, 0, 228]",228,a,0.1861508807633072,colour,0.5
130,20,0,2,4,2,152,236.07908229180612,236.81578250881284,"[70, 0, 184]",184,l,0.21338572003878653,colour,0.5
130,20,0,2,4,3,153,237.32903345488012,238.1117608693894,"[55, 0, 199]",199,a,0.2593723514582962,colour,0.5
130,20,0,2,4,4,154,238.62592159956694,239.43180557875894,"[90, 0, 164]",164,l,0.2825655438937247,colour,0.5
130,20,0,2,4,5,155,239.93843321804889,240.73578452528454,"[76, 0, 178]",178,l,0.27402026881463826,colour,0.5
130,20,0,2,4,6,156,241.25093341479078,242.0637782269623,"[71, 0, 183]",183,l,0.28951731813140213,colour,0.5
130,20,0,2,4,7,157,242.57905275328085,243.37577193812467,"[41, 0, 213]",213,a,0.27375324140302837,colour,0.5
130,20,0,2,4,8,158,243.891511202557,244.69574181665666,"[64, 0, 190]",190,a,0.2848407917190343,colour,0.5
130,20,0,2,4,9,159,245.20203744387254,245.927767082816,"[10, 0, 244]",244,a,0.20223042834550142,colour,0.5
130,20,0,2,4,10,160,246.4365596929565,247.0637868915219,"[96, 0, 158]",158,l,0.10389340319670737,colour,0.5
130,20,0,2,4,11,161,247.57803781237453,248.30378556833602,"[82, 0, 172]",172,l,0.20280229253694415,colour,0.5
130,20,0,2,4,12,162,248.81236038170755,249.76783610018902,"[54, 0, 200]",200,a,0.43207024317234755,colour,0.5
130,20,0,2,4,13,163,250.28187670744956,250.82377521810122,"[93, 0, 161]",161,l,0.018731705844402313,colour,0.5
130,20,0,2,4,14,164,251.34425323666073,252.0477679965552,"[62, 0, 192]",192,a,0.18007501983083785,colour,0.5
130,20,0,2,4,15,165,252.56312956265174,253.1198228953872,"[21, 0, 233]",233,a,0.033352841855958104,colour,0.5
130,20,0,2,4,16,166,253.6412229074631,254.17575846845284,"[99, 0, 155]",155,l,0.011207279516384006,colour,0.5
130,20,0,2,4,17,167,254.68806536588818,255.27173399343155,"[25, 0, 229]",229,a,0.06028757058084011,colour,0.5
130,20,0,2,4,18,168,255.78180463355966,258.1758033670485,"[19, 0, 235]",235,a,1.8707484332844615,colour,0.5
130,20,0,2,4,19,169,258.6880882089026,259.62378892395645,"[58, 0, 196]",196,a,0.41243072249926627,colour,0.5
130,20,0,2,4,20,170,260.14125914126635,260.79985616751947,"[18, 0, 236]",236,a,0.13532624626532197,colour,0.5
130,20,0,2,4,21,171,261.31305512599647,262.10380912036635,"[1, 0, 253]",253,a,0.26731661753728986,colour,0.5
130,20,0,2,4,22,172,262.62556319963187,263.4637248215731,"[59, 0, 195]",195,a,0.3148278263397515,colour,0.5
130,20,0,2,4,23,173,263.98493421194144,264.8477438930422,"[75, 0, 179]",179,l,0.3394632823765278,colour,0.5
130,20,0,2,4,24,174,265.3599093996454,265.9837877266109,"[24, 0, 230]",230,a,0.1009005680680275,colour,0.5
130,20,0,2,4,25,175,266.5004812797997,267.36775520443916,"[42, 0, 212]",212,a,0.34457894740626216,colour,0.5
130,20,0,2,4,26,176,267.87555492902175,268.6557806341443,"[15, 0, 239]",239,a,0.2569557128008455,colour,0.5
130,20,0,2,4,27,177,269.17243440891616,269.93577554565854,"[4, 0, 250]",250,a,0.23995023360475898,colour,0.5
130,20,0,2,4,28,178,270.4543808270246,271.23978875693865,"[52, 0, 202]",202,a,0.2627795124426484,colour,0.5
130,20,0,2,4,29,179,271.7504757659044,272.51978918211535,"[7, 0, 247]",247,a,0.24591109156608582,colour,0.5
130,20,0,2,4,30,180,273.031777064316,273.8477206560783,"[17, 0, 237]",237,a,0.29274646076373756,colour,0.5
130,20,0,2,4,31,181,274.35987159051,275.1757470469456,"[14, 0, 240]",240,a,0.292508183978498,colour,0.5
130,20,0,2,4,32,182,275.68802716280334,276.3920011469163,"[28, 0, 226]",226,a,0.18022231804206967,colour,0.5
130,20,0,2,4,33,183,276.90675540291704,277.51976870233193,"[81, 0, 173]",173,l,0.10206674598157406,colour,0.5
130,20,0,2,4,34,184,278.0349416162353,278.5837789045181,"[44, 0, 210]",210,a,0.025456231320276856,colour,0.5
130,20,0,2,4,35,185,279.0974650501739,279.72775125014596,"[27, 0, 227]",227,a,0.10701305675320327,colour,0.5
130,20,0,2,4,36,186,280.2380656809546,280.8237665533088,"[84, 0, 170]",170,l,0.062356049194931984,colour,0.5
130,20,0,2,4,37,187,281.33179116412066,281.93578696716577,"[40, 0, 214]",214,a,0.08073289995081723,colour,0.5
130,20,0,2,4,38,188,282.4567986470647,283.0157372953836,"[11, 0, 243]",243,a,0.035473308293148875,colour,0.5
130,20,0,2,4,39,189,283.53498336393386,284.2637192287948,"[65, 0, 189]",189,l,0.20545051246881485,colour,0.5
130,20,0,2,4,40,190,284.78683680295944,285.5357426989358,"[53, 0, 201]",201,a,0.22558076516725123,colour,0.5
130,20,0,2,4,41,191,286.05247012292966,286.6717593569774,"[34, 0, 220]",220,a,0.09517601761035621,colour,0.5
130,20,0,2,4,42,192,287.1801010137424,287.86375097278506,"[97, 0, 157]",157,l,0.16023857612162828,colour,0.5
130,20,0,2,4,43,193,288.38318136148155,288.911747793667,"[35, 0, 219]",219,a,0.005398052046075463,colour,0.5
130,20,0,2,4,44,194,289.4301722997334,290.15176891954616,"[67, 0, 187]",187,l,0.19827463966794312,colour,0.5
130,20,0,2,4,45,195,290.6520717870444,292.8957942770794,"[87, 0, 167]",167,l,1.7204355620779097,colour,0.5
130,20,0,2,4,46,196,293.40204461175017,294.06375971622765,"[43, 0, 211]",211,a,0.13836673670448363,colour,0.5
130,20,0,2,4,47,197,294.5739540241193,295.3197292389814,"[61, 0, 193]",193,a,0.2225359424483031,colour,0.5
130,20,0,2,4,48,198,295.8395467780065,296.6397770990152,"[72, 0, 182]",182,l,0.2769118857104331,colour,0.5
130,20,0,2,4,49,199,297.17465806310065,298.62377356388606,"[33, 0, 221]",221,a,0.9328323351219296,colour,0.5
130,20,0,2,4,50,200,299.136403020937,300.0397681980394,"[3, 0, 251]",251,a,0.38001917232759297,colour,0.5
130,20,0,2,5,1,201,304.79252748261206,306.62378892395645,"[84, 0, 170]",170,l,1.3071206556633115,colour,0.5
130,20,0,2,5,2,202,307.1371174575761,307.767764814198,"[97, 0, 157]",157,l,0.10732380114495754,colour,0.5
130,20,0,2,5,3,203,308.27912175515667,309.13581776595674,"[73, 0, 181]",181,l,0.3334004182834178,colour,0.5
130,20,0,2,5,4,204,309.65408827830106,310.2237072403077,"[79, 0, 175]",175,l,0.04626783728599548,colour,0.5
130,20,0,2,5,5,205,310.73217295832,311.30374815291725,"[12, 0, 242]",242,a,0.04837530688382685,colour,0.5
130,20,0,2,5,6,206,311.8103604321368,312.3517378845718,"[50, 0, 204]",204,a,0.018161023035645485,colour,0.5
130,20,0,2,5,7,207,312.8727873736061,314.11975436634384,"[20, 0, 234]",234,a,0.7235508833546191,colour,0.5
130,20,0,2,5,8,208,314.63839391223155,315.2717367503792,"[14, 0, 240]",240,a,0.11001967662014067,colour,0.5
130,20,0,2,5,9,209,315.7790252629202,316.56771629233845,"[42, 0, 212]",212,a,0.2681830783840269,colour,0.5
130,20,0,2,5,10,210,317.0886759846471,317.66374538023956,"[29, 0, 225]",225,a,0.051712363259866834,colour,0.5
130,20,0,2,5,11,211,318.1824447908439,318.7997210784815,"[70, 0, 184]",184,l,0.09408309520222247,colour,0.5
130,20,0,2,5,12,212,319.3075444337446,320.08779495116323,"[63, 0, 191]",191,l,0.2666313254740089,colour,0.5
130,20,0,2,5,13,213,320.5946872548666,321.2557666921057,"[36, 0, 218]",218,a,0.137650724966079,colour,0.5
130,20,0,2,5,14,214,321.7690692318138,322.423741977429,"[90, 0, 164]",164,l,0.13152642082422972,colour,0.5
130,20,0,2,5,15,215,322.9408285887912,323.6237471762579,"[2, 0, 252]",252,a,0.15959188109263778,colour,0.5
130,20,0,2,5,16,216,324.14394753356464,324.95971546997316,"[6, 0, 248]",248,a,0.2924443809315562,colour,0.5
130,20,0,2,5,17,217,325.4720070073381,326.3917565685697,"[66, 0, 188]",188,a,0.3963267565704882,colour,0.5
130,20,0,2,5,18,218,326.9095623428002,327.7117800102569,"[52, 0, 202]",202,a,0.2789197121746838,colour,0.5
130,20,0,2,5,19,219,328.2238541448023,328.9997408494819,"[61, 0, 193]",193,a,0.2527009954210371,colour,0.5
130,20,0,2,5,20,220,329.5213354213629,330.11170139862224,"[86, 0, 168]",168,l,0.06701997271738946,colour,0.5
130,20,0,2,5,21,221,330.63068634737283,331.38371856720187,"[3, 0, 251]",251,a,0.2297547443304211,colour,0.5
130,20,0,2,5,22,222,331.89633935969323,332.48782267794013,"[81, 0, 173]",173,l,0.06819048267789185,colour,0.5
130,20,0,2,5,23,223,333.0055571659468,333.66378752165474,"[8, 0, 246]",246,a,0.1407561998348683,colour,0.5
130,20,0,2,5,24,224,334.17199960304424,334.871719263494,"[87, 0, 167]",167,l,0.17641776660457253,colour,0.5
130,20,0,2,5,25,225,335.390784163028,336.1277518016286,"[0, 0, 254]",254,a,0.21360194170847535,colour,0.5
130,20,0,2,5,26,226,336.640719572315,337.41571815451607,"[47, 0, 207]",207,a,0.24855931173078716,colour,0.5
130,20,0,2,5,27,227,337.9134468450211,338.7517482819967,"[9, 0, 245]",245,a,0.314946373924613,colour,0.5
130,20,0,2,5,28,228,339.27281667571515,340.0557512533851,"[34, 0, 220]",220,a,0.25960787129588425,colour,0.5
130,20,0,2,5,29,229,340.57113290578127,341.33567999862134,"[99, 0, 155]",155,l,0.2413499620743096,colour,0.5
130,20,0,2,5,30,230,341.8523337733932,342.6237038532272,"[41, 0, 213]",213,a,0.24811544734984636,colour,0.5
130,20,0,2,5,31,231,343.1335066780448,343.92773084901273,"[85, 0, 169]",169,l,0.27107548294588923,colour,0.5
130,20,0,2,5,32,232,344.44601396424696,344.983732982073,"[65, 0, 189]",189,a,0.014363560825586319,colour,0.5
130,20,0,2,5,33,233,345.49421558505856,346.3037178267259,"[32, 0, 222]",222,a,0.2863570984918624,colour,0.5
130,20,0,2,5,34,234,346.82206986518577,348.1356874029152,"[88, 0, 166]",166,l,0.7903534530196339,colour,0.5
130,20,0,2,5,35,235,348.65026285289787,349.21572674042545,"[48, 0, 206]",206,a,0.039195152232423425,colour,0.5
130,20,0,2,5,36,236,349.73138881102204,350.6077499424573,"[96, 0, 158]",158,l,0.3531029543373734,colour,0.5
130,20,0,2,5,37,237,351.122132407967,351.74371185619384,"[21, 0, 233]",233,a,0.09835080965422094,colour,0.5
130,20,0,2,5,38,238,352.26276178937405,353.04771207040176,"[26, 0, 228]",228,a,0.2617413345724344,colour,0.5
130,20,0,2,5,39,239,353.5595392633695,354.1596946748905,"[91, 0, 163]",163,l,0.07676135771907866,colour,0.5
130,20,0,2,5,40,240,354.6691773030907,355.2157165003009,"[31, 0, 223]",223,a,0.02324675559066236,colour,0.5
130,20,0,2,5,41,241,355.7316207862459,356.35976525209844,"[39, 0, 215]",215,a,0.10486580873839557,colour,0.5
130,20,0,2,5,42,242,356.86342408065684,357.62371566845104,"[89, 0, 165]",165,l,0.2369806352071464,colour,0.5
130,20,0,2,5,43,243,358.14546462800354,358.7117221150547,"[10, 0, 244]",244,a,0.04373186337761581,colour,0.5
130,20,0,2,5,44,244,359.2110269770492,359.9597044424154,"[64, 0, 190]",190,a,0.22526371921412647,colour,0.5
130,20,0,2,5,45,245,360.47662091231905,361.2237485940568,"[44, 0, 210]",210,a,0.22376749850809574,colour,0.5
130,20,0,2,5,46,246,361.7422369031701,362.56771511072293,"[11, 0, 243]",243,a,0.30208060913719237,colour,0.5
130,20,0,2,5,47,247,363.0860439122189,363.69569928129204,"[56, 0, 198]",198,a,0.08706003474071622,colour,0.5
130,20,0,2,5,48,248,364.207984123379,364.9518259484321,"[59, 0, 195]",195,a,0.23142110626213253,colour,0.5
130,20,0,2,5,49,249,365.46345188631676,365.9917142696213,"[23, 0, 231]",231,a,0.003950668498873711,colour,0.5
130,20,0,2,5,50,250,366.5033973150421,367.2877446177881,"[98, 0, 156]",156,l,0.2610603750217706,colour,0.5
130,20,0,2,6,1,251,371.9563027950935,372.49569171946496,"[24, 0, 230]",230,a,0.015357234049588442,colour,0.5
130,20,0,2,6,2,252,373.00390931474976,374.0796935406979,"[82, 0, 172]",172,l,0.5524850890506059,colour,0.5
130,20,0,2,6,3,253,374.5977293208707,375.5756908846088,"[25, 0, 229]",229,a,0.4547140207141638,colour,0.5
130,20,0,2,6,4,254,376.0820404684637,376.9597190145869,"[42, 0, 212]",212,a,0.35444990755058825,colour,0.5
130,20,0,2,6,5,255,377.46020659594797,378.3757313720416,"[1, 0, 253]",253,a,0.39213190390728414,colour,0.5
130,20,0,2,6,6,256,378.8820781989489,379.67973197996616,"[44, 0, 210]",210,a,0.28672140603885055,colour,0.5
130,20,0,2,6,7,257,380.18533640750684,381.05571423168294,"[71, 0, 183]",183,l,0.3470519057009369,colour,0.5
130,20,0,2,6,8,258,381.57594058290124,382.53577460045926,"[76, 0, 178]",178,l,0.4364919513463974,colour,0.5
130,20,0,2,6,9,259,383.04470033058897,383.8237098394893,"[40, 0, 214]",214,a,0.25569895026274025,colour,0.5
130,20,0,2,6,10,260,384.3415951705538,385.1436895644292,"[60, 0, 194]",194,a,0.2787802906241268,colour,0.5
130,20,0,2,6,11,261,385.65605868934654,386.54371098964475,"[58, 0, 196]",196,a,0.3728846535086632,colour,0.5
130,20,0,2,6,12,262,387.0540667742025,387.91169777535833,"[93, 0, 161]",161,l,0.33435431332327425,colour,0.5
130,20,0,2,6,13,263,388.42897737119347,389.1437238289509,"[8, 0, 246]",246,a,0.19140990544110537,colour,0.5
130,20,0,2,6,14,264,389.663414549781,390.4876690781675,"[2, 0, 252]",252,a,0.30096641927957535,colour,0.5
130,20,0,2,6,15,265,391.0072416451294,391.79972265381366,"[47, 0, 207]",207,a,0.2693000256549567,colour,0.5
130,20,0,2,6,16,266,392.31969891279005,393.18367477157153,"[50, 0, 204]",204,a,0.34093547868542373,colour,0.5
130,20,0,2,6,17,267,393.6946882789489,394.5676867538132,"[59, 0, 195]",195,a,0.34977850085124373,colour,0.5
130,20,0,2,6,18,268,395.08528969739564,395.8876991679426,"[89, 0, 165]",165,l,0.2790886720176786,colour,0.5
130,20,0,2,6,19,269,396.397767839022,397.1517070857808,"[43, 0, 211]",211,a,0.23060781438834965,colour,0.5
130,20,0,2,6,20,270,397.66344763268717,398.5036706440151,"[38, 0, 216]",216,a,0.3169971297029406,colour,0.5
130,20,0,2,6,21,271,399.02275523589924,399.7837143924553,"[72, 0, 182]",182,l,0.23766041337512434,colour,0.5
130,20,0,2,6,22,272,400.30405180808157,401.1276915431954,"[33, 0, 221]",221,a,0.3003622596152127,colour,0.5
130,20,0,2,6,23,273,401.64771978976205,402.4876923151314,"[54, 0, 200]",200,a,0.3166477885097265,colour,0.5
130,20,0,2,6,24,274,403.00712034036405,403.81571358582005,"[55, 0, 199]",199,a,0.2853358560241759,colour,0.5
130,20,0,2,6,25,275,404.33524991897866,405.0236984968651,"[68, 0, 186]",186,l,0.1651332932524383,colour,0.5
130,20,0,2,6,26,276,405.53836728818715,406.34366443706676,"[80, 0, 174]",174,l,0.28196729184128344,colour,0.5
130,20,0,2,6,27,277,406.8509009620175,407.68770184600726,"[51, 0, 203]",203,a,0.31359390704892576,colour,0.5
130,20,0,2,6,28,278,408.19457760825753,408.9996601110324,"[35, 0, 219]",219,a,0.2817093227058649,colour,0.5
130,20,0,2,6,29,279,409.50712349126115,410.5437058696989,"[63, 0, 191]",191,l,0.5133466506376863,colour,0.5
130,20,0,2,6,30,280,411.0539431066718,411.80782563984394,"[75, 0, 179]",179,l,0.2304510639514774,colour,0.5
130,20,0,2,6,31,281,412.3195886358153,413.1116978540085,"[14, 0, 240]",240,a,0.2688171702902764,colour,0.5
130,20,0,2,6,32,282,413.63321680761874,414.43172129569575,"[90, 0, 164]",164,l,0.27533689560368657,colour,0.5
130,20,0,2,6,33,283,414.9457552074455,415.8556661037728,"[70, 0, 184]",184,l,0.386614122428,colour,0.5
130,20,0,2,6,34,284,416.3690482005477,417.12769351224415,"[12, 0, 242]",242,a,0.2354643284343183,colour,0.5
130,20,0,2,6,35,285,417.6345944805071,418.41566577297635,"[21, 0, 233]",233,a,0.257737890817225,colour,0.5
130,20,0,2,6,36,286,418.9314373328816,419.73564667929895,"[20, 0, 234]",234,a,0.2809653477743268,colour,0.5
130,20,0,2,6,37,287,420.2439879421145,421.0076819646638,"[32, 0, 222]",222,a,0.24032911332324147,colour,0.5
130,20,0,2,6,38,288,421.5133970628958,422.3277896894142,"[49, 0, 205]",205,a,0.29099620948545635,colour,0.5
130,20,0,2,6,39,289,422.84163731196895,423.67167192324996,"[16, 0, 238]",238,a,0.30673192953690886,colour,0.5
130,20,0,2,6,40,290,424.1854963088408,424.9197192352731,"[94, 0, 160]",160,l,0.21106675546616316,colour,0.5
130,20,0,2,6,41,291,425.4352836322505,426.255681227427,"[99, 0, 155]",155,l,0.29709767061285675,colour,0.5
130,20,0,2,6,42,292,426.7554157753475,427.5676721816417,"[30, 0, 224]",224,a,0.28892182325944304,colour,0.5
130,20,0,2,6,43,293,428.086783161154,428.95967963011935,"[52, 0, 202]",202,a,0.34960048273205757,colour,0.5
130,20,0,2,6,44,294,429.4790344000794,430.2636755120475,"[22, 0, 232]",232,a,0.2612714765127748,colour,0.5
130,20,0,2,6,45,295,430.77592727099545,431.551749384962,"[31, 0, 223]",223,a,0.25188612821511924,colour,0.5
130,20,0,2,6,46,296,432.0585889131762,432.8156592352316,"[83, 0, 171]",171,l,0.23376173269934952,colour,0.5
130,20,0,2,6,47,297,433.3242679191753,434.04769119643606,"[27, 0, 227]",227,a,0.20014225714839995,colour,0.5
130,20,0,2,6,48,298,434.5590871281456,435.3836531888228,"[62, 0, 192]",192,a,0.3011594037525356,colour,0.5
130,20,0,2,6,49,299,435.9028216698207,436.69566265377216,"[39, 0, 215]",215,a,0.26944181020371616,colour,0.5
130,20,0,2,6,50,300,437.2153309250716,437.9676999084186,"[87, 0, 167]",167,l,0.22915019071660936,colour,0.5
130,20,0,2,7,1,301,446.18697913875803,446.9276583811734,"[11, 0, 243]",243,a,0.21657153964042664,colour,0.5
130,20,0,2,7,2,302,447.43796729831956,448.0236441460438,"[16, 0, 238]",238,a,0.06243284931406379,colour,0.5
130,20,0,2,7,3,303,448.53153642453253,449.2876701809,"[19, 0, 235]",235,a,0.2328968469519168,colour,0.5
130,20,0,2,7,4,304,449.79712090757675,450.9996801970992,"[55, 0, 199]",199,a,0.6791160048451275,colour,0.5
130,20,0,2,7,5,305,451.51899676420726,452.2636680288706,"[48, 0, 206]",206,a,0.22688360745087266,colour,0.5
130,20,0,2,7,6,306,452.779118998209,453.61564379627816,"[32, 0, 222]",222,a,0.3131902148015797,colour,0.5
130,20,0,2,7,7,307,454.11348591465503,455.01565222465433,"[63, 0, 191]",191,l,0.3789108900818974,colour,0.5
130,20,0,2,7,8,308,455.5353819360025,456.295663283905,"[7, 0, 247]",247,a,0.2369471585843712,colour,0.5
130,20,0,2,7,9,309,456.8165158499032,457.55963614955544,"[9, 0, 245]",245,a,0.21924181515350938,colour,0.5
130,20,0,2,7,10,310,458.06652254541405,458.7836509833578,"[64, 0, 190]",190,l,0.19398644543252885,colour,0.5
130,20,0,2,7,11,311,459.30092073301785,460.15960290888324,"[92, 0, 162]",162,l,0.3354444787837565,colour,0.5
130,20,0,2,7,12,312,460.67588843777776,462.50364937633276,"[61, 0, 193]",193,l,1.3044165093451738,colour,0.5
130,20,0,2,7,13,313,463.01963991462253,463.76770928199403,"[77, 0, 177]",177,l,0.22471391037106514,colour,0.5
130,20,0,2,7,14,314,464.28685019374825,465.3276719294954,"[58, 0, 196]",196,a,0.5175115710590035,colour,0.5
130,20,0,2,7,15,315,465.84930903674103,466.73564077168703,"[66, 0, 188]",188,a,0.36317398864775896,colour,0.5
130,20,0,2,7,16,316,467.2555020276923,467.9516369025223,"[98, 0, 156]",156,l,0.17269198410212994,colour,0.5
130,20,0,2,7,17,317,468.4586654768791,469.21563891274855,"[36, 0, 218]",218,a,0.23369950498454273,colour,0.5
130,20,0,2,7,18,318,469.7242743782699,470.48764505353756,"[84, 0, 170]",170,l,0.23999316291883588,colour,0.5
130,20,0,2,7,19,319,471.0054531907663,471.8076740091201,"[82, 0, 172]",172,l,0.2788114044815302,colour,0.5
130,20,0,2,7,20,320,472.3190159839578,473.13564919983037,"[69, 0, 185]",185,l,0.29337385739199817,colour,0.5
130,20,0,2,7,21,321,473.6471479253378,474.46366180619225,"[30, 0, 224]",224,a,0.2930950145237148,colour,0.5
130,20,0,2,7,22,322,474.9753212206997,475.83171318261884,"[17, 0, 237]",237,a,0.333146387943998,colour,0.5
130,20,0,2,7,23,323,476.3502680514939,477.1515960213728,"[26, 0, 228]",228,a,0.2781379281077534,colour,0.5
130,20,0,2,7,24,324,477.6627198054921,478.47165727219544,"[24, 0, 230]",230,a,0.285548138897866,colour,0.5
130,20,0,2,7,25,325,478.99088916229084,479.86359855439514,"[59, 0, 195]",195,a,0.34935117815621197,colour,0.5
130,20,0,2,7,26,326,480.38154020532966,481.13565904600546,"[47, 0, 207]",207,a,0.23091422650031745,colour,0.5
130,20,0,2,7,27,327,481.6384447182063,483.6956756506115,"[94, 0, 160]",160,l,1.5339310076087713,colour,0.5
130,20,0,2,7,28,328,484.2171946039889,485.1356070584152,"[72, 0, 182]",182,l,0.3957147200126201,colour,0.5
130,20,0,2,7,29,329,485.6547345793806,486.4636043047067,"[4, 0, 250]",250,a,0.2854819728527218,colour,0.5
130,20,0,2,7,30,330,486.98283265018836,487.6796677832026,"[68, 0, 186]",186,l,0.17375497426837683,colour,0.5
130,20,0,2,7,31,331,488.18594529340044,488.9996254525613,"[78, 0, 176]",176,l,0.2903948067687452,colour,0.5
130,20,0,2,7,32,332,489.51402406557463,491.1996286821086,"[74, 0, 180]",180,l,1.1605902805458754,colour,0.5
130,20,0,2,7,33,333,491.71891098469496,492.59160698601045,"[1, 0, 253]",253,a,0.34933266742154956,colour,0.5
130,20,0,2,7,34,334,493.109469080111,494.00764258019626,"[23, 0, 231]",231,a,0.3735065362416208,colour,0.5
130,20,0,2,7,35,335,494.51730598369613,495.3197698050644,"[76, 0, 178]",178,l,0.2791138782631606,colour,0.5
130,20,0,2,7,36,336,495.8298309929669,496.6156418272294,"[25, 0, 229]",229,a,0.26256407890468836,colour,0.5
130,20,0,2,7,37,337,497.1266482451465,497.9516215424519,"[33, 0, 221]",221,a,0.30168400635011494,colour,0.5
130,20,0,2,7,38,338,498.4704052361194,499.3916352640372,"[22, 0, 232]",232,a,0.3979238017927855,colour,0.5
130,20,0,2,7,39,339,499.90792906377465,500.6316185807809,"[8, 0, 246]",246,a,0.20036635547876358,colour,0.5
130,20,0,2,7,40,340,501.1430302662775,501.96762389619835,"[13, 0, 241]",241,a,0.3013961052056402,colour,0.5
130,20,0,2,7,41,341,502.48665689420886,503.2795892502181,"[44, 0, 210]",210,a,0.269442597636953,colour,0.5
130,20,0,2,7,42,342,503.79936898010783,504.60762036731467,"[2, 0, 252]",252,a,0.28514562849886715,colour,0.5
130,20,0,2,7,43,343,505.12107493169606,505.9516723486595,"[50, 0, 204]",204,a,0.3061037454754114,colour,0.5
130,20,0,2,7,44,344,506.46604024176486,507.2795931887813,"[56, 0, 198]",198,a,0.2904085915070027,colour,0.5
130,20,0,2,7,45,345,507.7941741524264,508.5916444011964,"[89, 0, 165]",165,l,0.27420222549699247,colour,0.5
130,20,0,2,7,46,346,509.1066538693849,509.9116331846453,"[34, 0, 220]",220,a,0.28176367352716625,colour,0.5
130,20,0,2,7,47,347,510.41910326015204,511.2156381250825,"[20, 0, 234]",234,a,0.2730297464877367,colour,0.5
130,20,0,2,7,48,348,511.7316282694228,512.62364438246,"[62, 0, 192]",192,l,0.3687366684898734,colour,0.5
130,20,0,2,7,49,349,513.1379012109246,513.9676439822651,"[96, 0, 158]",158,l,0.30645348061807454,colour,0.5
130,20,0,2,7,50,350,514.4816582016647,515.2956522561144,"[60, 0, 194]",194,a,0.2907839266117662,colour,0.5
130,20,0,2,8,1,351,526.1126529304311,527.2076572312508,"[80, 0, 174]",174,l,0.5707339397631586,colour,0.5
130,20,0,2,8,2,352,527.7134381015785,528.5596054294147,"[74, 0, 180]",180,l,0.32282880623824894,colour,0.5
130,20,0,2,8,3,353,529.0727811509278,530.0315974706318,"[91, 0, 163]",163,l,0.4353840628173202,colour,0.5
130,20,0,2,8,4,354,530.5415881602094,531.3275963112246,"[38, 0, 216]",216,a,0.26266214647330344,colour,0.5
130,20,0,2,8,5,355,531.8384908770677,532.6636441617738,"[15, 0, 239]",239,a,0.301912043010816,colour,0.5
130,20,0,2,8,6,356,533.1821344401687,534.0475978550967,"[19, 0, 235]",235,a,0.3421934226062149,colour,0.5
130,20,0,2,8,7,357,534.5571411354467,535.5036399241071,"[72, 0, 182]",182,l,0.42318429145962,colour,0.5
130,20,0,2,8,8,358,536.0102573232725,536.8315643088426,"[63, 0, 191]",191,l,0.2979200209956616,colour,0.5
130,20,0,2,8,9,359,537.3390135106165,538.0875976344105,"[29, 0, 225]",225,a,0.22511523915454745,colour,0.5
130,20,0,2,8,10,360,538.6048346951138,539.4315850250423,"[67, 0, 187]",187,l,0.3022227876354009,colour,0.5
130,20,0,2,8,11,361,539.9498275744263,540.7755814741831,"[7, 0, 247]",247,a,0.302700916538015,colour,0.5
130,20,0,2,8,12,362,541.2945108907297,542.0796183161438,"[59, 0, 195]",195,l,0.26189296529628336,colour,0.5
130,20,0,2,8,13,363,542.5914478721097,543.3755746213719,"[27, 0, 227]",227,a,0.261113150510937,colour,0.5
130,20,0,2,8,14,364,543.8883289275691,544.5835945846047,"[65, 0, 189]",189,l,0.17197518469765782,colour,0.5
130,20,0,2,8,15,365,545.0913691029418,545.9276111198124,"[97, 0, 157]",157,l,0.31292594433762133,colour,0.5
130,20,0,2,8,16,366,546.4352210105862,547.3436321415938,"[88, 0, 166]",166,l,0.3851643754169345,colour,0.5
130,20,0,2,8,17,367,547.8570744968019,548.6636110788677,"[52, 0, 202]",202,a,0.2833370880689472,colour,0.5
130,20,0,2,8,18,368,549.1695884782821,550.0075523895212,"[50, 0, 204]",204,a,0.31465059565380216,colour,0.5
130,20,0,2,8,19,369,550.5133163244464,551.21562118968,"[89, 0, 165]",165,l,0.17894389433786273,colour,0.5
130,20,0,2,8,20,370,551.7320299921557,552.5596093679778,"[23, 0, 231]",231,a,0.30433025723323226,colour,0.5
130,20,0,2,8,21,371,553.0758102198597,554.127609229181,"[48, 0, 206]",206,a,0.5284998721908778,colour,0.5
130,20,0,2,8,22,372,554.6383387737442,555.5195851700846,"[24, 0, 230]",230,a,0.35784564702771604,colour,0.5
130,20,0,2,8,23,373,556.0289445244707,556.8796473818365,"[33, 0, 221]",221,a,0.3273367665242404,colour,0.5
130,20,0,2,8,24,374,557.3883576784283,558.2235875111073,"[43, 0, 211]",211,a,0.3119247881695628,colour,0.5
130,20,0,2,8,25,375,558.7320796167478,559.527591269929,"[26, 0, 228]",228,a,0.27229758678004146,colour,0.5
130,20,0,2,8,26,376,560.0446101399139,560.6635846910067,"[94, 0, 160]",160,l,0.09568407875485718,colour,0.5
130,20,0,2,8,27,377,561.1695762691088,561.791564529296,"[16, 0, 238]",238,a,0.09877025545574725,colour,0.5
130,20,0,2,8,28,378,562.3102119520772,562.9836660281289,"[2, 0, 252]",252,a,0.1501596651505679,colour,0.5
130,20,0,2,8,29,379,563.4852288088296,564.1756328316405,"[11, 0, 243]",243,a,0.1672191012185067,colour,0.5
130,20,0,2,8,30,380,564.6883642948233,565.6556179758627,"[69, 0, 185]",185,l,0.4438328454270959,colour,0.5
130,20,0,2,8,31,381,566.172732550418,568.1836066362448,"[13, 0, 241]",241,a,1.4874564013443887,colour,0.5
130,20,0,2,8,32,382,568.7039704394992,569.255609941436,"[3, 0, 251]",251,a,0.0283702970482409,colour,0.5
130,20,0,2,8,33,383,569.7664903288241,570.6235849116929,"[54, 0, 200]",200,l,0.33402663352899253,colour,0.5
130,20,0,2,8,34,384,571.1414777257014,571.8315903025214,"[45, 0, 209]",209,a,0.16676854132674634,colour,0.5
130,20,0,2,8,35,385,572.3446573226247,573.1115958478767,"[40, 0, 214]",214,a,0.2437350929249078,colour,0.5
130,20,0,2,8,36,386,573.6258160488214,574.4315799050964,"[51, 0, 203]",203,a,0.28240406699478626,colour,0.5
130,20,0,2,8,37,387,574.9383446027059,575.6555703205522,"[75, 0, 179]",179,l,0.19396005780436099,colour,0.5
130,20,0,2,8,38,388,576.17266638414,576.9356120997109,"[5, 0, 249]",249,a,0.23955717543140054,colour,0.5
130,20,0,2,8,39,389,577.4540397564415,578.223606021842,"[55, 0, 199]",199,a,0.24576261173933744,colour,0.5
130,20,0,2,8,40,390,578.7351819411851,579.463607455371,"[21, 0, 233]",233,a,0.20500940503552556,colour,0.5
130,20,0,2,8,41,391,579.9695738272276,580.7195624057204,"[64, 0, 190]",190,l,0.2297862519044429,colour,0.5
130,20,0,2,8,42,392,581.2324498319067,582.0635557039641,"[61, 0, 193]",193,l,0.3080379224848002,colour,0.5
130,20,0,2,8,43,393,582.5780515971128,583.5355627113022,"[20, 0, 234]",234,a,0.434519964735955,colour,0.5
130,20,0,2,8,44,394,584.0467526616994,584.8075885444414,"[99, 0, 155]",155,l,0.2374296197667718,colour,0.5
130,20,0,2,8,45,395,585.3279964586254,586.1035885666497,"[36, 0, 218]",218,a,0.2522744603920728,colour,0.5
130,20,0,2,8,46,396,586.6189367421903,587.4075907501392,"[90, 0, 164]",164,l,0.2653072157409042,colour,0.5
130,20,0,2,8,47,397,587.9034104694147,588.6795575062279,"[35, 0, 219]",219,a,0.2523638631682843,colour,0.5
130,20,0,2,8,48,398,589.2007696537767,590.3275837081019,"[79, 0, 175]",175,l,0.6034964066930115,colour,0.5
130,20,0,2,8,49,399,590.8413891892415,591.5835969476029,"[30, 0, 224]",224,a,0.2189035015180707,colour,0.5
130,20,0,2,8,50,400,592.0913750107866,592.895552061731,"[68, 0, 186]",186,l,0.280803871108219,colour,0.5
130,20,0,2,9,1,401,597.3567633584607,599.5595821924508,"[60, 0, 194]",194,l,1.689173648133874,colour,0.5
130,20,0,2,9,2,402,600.0666655113455,600.9115575661417,"[14, 0, 240]",240,a,0.3219544682651758,colour,0.5
130,20,0,2,9,3,403,601.4259187637363,602.3275691356976,"[26, 0, 228]",228,a,0.3783894379157573,colour,0.5
130,20,0,2,9,4,404,602.8477840654086,603.8155922812875,"[19, 0, 235]",235,a,0.4444196759723127,colour,0.5
130,20,0,2,9,5,405,604.3328612435143,605.1675889226608,"[80, 0, 174]",174,l,0.31159277609549463,colour,0.5
130,20,0,2,9,6,406,605.6765910587274,606.4795491567347,"[15, 0, 239]",239,a,0.2782840447034687,colour,0.5
130,20,0,2,9,7,407,606.9905161901843,607.7116019919049,"[73, 0, 181]",181,l,0.19853891036473215,colour,0.5
130,20,0,2,9,8,408,608.224890353391,609.0555818995927,"[42, 0, 212]",212,a,0.30742037226445973,colour,0.5
130,20,0,2,9,9,409,609.5687194180209,610.3915667349938,"[76, 0, 178]",178,l,0.29965648776851594,colour,0.5
130,20,0,2,9,10,410,610.9130596944597,611.6955504075158,"[38, 0, 216]",216,a,0.2591766098048538,colour,0.5
130,20,0,2,9,11,411,612.2099702882115,613.031593138352,"[4, 0, 250]",250,a,0.29817168856970966,colour,0.5
130,20,0,2,9,12,412,613.5381999036763,614.3115699328482,"[66, 0, 188]",188,l,0.24988499702885747,colour,0.5
130,20,0,2,9,13,413,614.8212353056297,615.6716246616561,"[53, 0, 201]",201,a,0.32710597291588783,colour,0.5
130,20,0,2,9,14,414,616.1805503917858,616.9195337337442,"[21, 0, 233]",233,a,0.2157436755951494,colour,0.5
130,20,0,2,9,15,415,617.4305976533797,618.1835963961203,"[83, 0, 171]",171,l,0.23005524859763682,colour,0.5
130,20,0,2,9,16,416,618.6962014348246,619.5195422407705,"[89, 0, 165]",165,l,0.2977565748151392,colour,0.5
130,20,0,2,9,17,417,620.0266519472934,620.6475271990057,"[79, 0, 175]",175,l,0.09612833708524704,colour,0.5
130,20,0,2,9,18,418,621.1690587555058,621.9995462896768,"[6, 0, 248]",248,a,0.3072514124214649,colour,0.5
130,20,0,2,9,19,419,622.512736189412,623.2075327758212,"[87, 0, 167]",167,l,0.1713993817102164,colour,0.5
130,20,0,2,9,20,420,623.7159016078804,624.5355713758618,"[28, 0, 226]",226,a,0.2964336462318897,colour,0.5
130,20,0,2,9,21,421,625.04402961093,625.9035400447901,"[13, 0, 241]",241,a,0.336214053677395,colour,0.5
130,20,0,2,9,22,422,626.4189677771647,627.191608797526,"[44, 0, 210]",210,a,0.24921545875258744,colour,0.5
130,20,0,2,9,23,423,627.7005471307784,628.231574312551,"[90, 0, 164]",164,l,0.008199084550142288,colour,0.5
130,20,0,2,9,24,424,628.7378380380105,629.5835567752365,"[50, 0, 204]",204,a,0.32224867097102106,colour,0.5
130,20,0,2,9,25,425,630.0972129888833,630.839529842604,"[47, 0, 207]",207,a,0.21897990768775344,colour,0.5
130,20,0,2,9,26,426,631.3472153518815,632.3595309138764,"[64, 0, 190]",190,l,0.48899043118581176,colour,0.5
130,20,0,2,9,27,427,632.8790597638581,633.5755597339012,"[81, 0, 173]",173,l,0.17319925758056343,colour,0.5
130,20,0,2,9,28,428,634.0821861915756,634.8315253180917,"[95, 0, 159]",159,l,0.22608646331354976,colour,0.5
130,20,0,2,9,29,429,635.3477336531505,636.1595079919789,"[84, 0, 170]",170,l,0.28840746032074094,colour,0.5
130,20,0,2,9,30,430,636.6759108868428,637.8155741645023,"[71, 0, 183]",183,l,0.6163251497782767,colour,0.5
130,20,0,2,9,31,431,638.3322696867399,639.199531402206,"[1, 0, 253]",253,a,0.34409648599103093,colour,0.5
130,20,0,2,9,32,432,639.6947934357449,640.4875458043534,"[49, 0, 205]",205,a,0.2694918285124004,colour,0.5
130,20,0,2,9,33,433,641.0072581865825,641.831641108729,"[61, 0, 193]",193,a,0.3010629112832248,colour,0.5
130,20,0,2,9,34,434,642.3510384142864,642.9115343291778,"[27, 0, 227]",227,a,0.037201897939667106,colour,0.5
130,20,0,2,9,35,435,643.4297686077189,644.1115978171583,"[58, 0, 196]",196,a,0.15845169709064066,colour,0.5
130,20,0,2,9,36,436,644.6328765247017,645.5035264964681,"[2, 0, 252]",252,a,0.3475895053707063,colour,0.5
130,20,0,2,9,37,437,646.0250419052318,646.9035522539634,"[5, 0, 249]",249,a,0.35515922401100397,colour,0.5
130,20,0,2,9,38,438,647.4035392571241,649.055555118015,"[17, 0, 237]",237,a,1.1286986069753766,colour,0.5
130,20,0,2,9,39,439,649.5755069586448,650.2076213911641,"[96, 0, 158]",158,l,0.12132266047410667,colour,0.5
130,20,0,2,9,40,440,650.7213043861557,651.2955833331216,"[91, 0, 163]",163,l,0.050977840553969145,colour,0.5
130,20,0,2,9,41,441,651.8156749890186,652.3515551399905,"[31, 0, 223]",223,a,0.013296238146722317,colour,0.5
130,20,0,2,9,42,442,652.8618546046782,653.9195384599734,"[74, 0, 180]",180,l,0.5332197218667716,colour,0.5
130,20,0,2,9,43,443,654.4411562685855,655.2875390301924,"[70, 0, 184]",184,l,0.3230670830234885,colour,0.5
130,20,0,2,9,44,444,655.8004579641856,656.3915852457285,"[36, 0, 218]",218,a,0.06790533848106861,colour,0.5
130,20,0,2,9,45,445,656.9098569394555,657.6235274102073,"[24, 0, 230]",230,a,0.1903772414661944,colour,0.5
130,20,0,2,9,46,446,658.1449104866479,658.7595137420576,"[52, 0, 202]",202,a,0.09133405052125454,colour,0.5
130,20,0,2,9,47,447,659.2712980059441,660.0474919104017,"[10, 0, 244]",244,a,0.2513260792475194,colour,0.5
130,20,0,2,9,48,448,660.5540577159263,661.3035551684443,"[97, 0, 157]",157,l,0.22624518326483667,colour,0.5
130,20,0,2,9,49,449,661.8196394420229,662.6075246627443,"[8, 0, 246]",246,a,0.26457544998265803,colour,0.5
130,20,0,2,9,50,450,663.1165204974823,663.8875101218,"[12, 0, 242]",242,a,0.2479244319256395,colour,0.5
130,20,0,2,10,1,451,669.2876682116184,670.5675032217987,"[36, 0, 218]",218,a,0.7558501875028014,colour,0.5
130,20,0,2,10,2,452,671.0852885157801,672.2875055533368,"[59, 0, 195]",195,a,0.6788958450779319,colour,0.5
130,20,0,2,10,3,453,672.8039419250563,673.4555391278118,"[51, 0, 203]",203,a,0.12823189957998693,colour,0.5
130,20,0,2,10,4,454,673.9766862906981,674.7115184967406,"[46, 0, 208]",208,a,0.21149525977671146,colour,0.5
130,20,0,2,10,5,455,675.2291194708087,675.9675628500991,"[94, 0, 160]",160,l,0.21513597154989839,colour,0.5
130,20,0,2,10,6,456,676.4790729971137,677.2075414406136,"[83, 0, 171]",171,l,0.20520199579186738,colour,0.5
130,20,0,2,10,7,457,677.7290080124512,678.5435558143072,"[67, 0, 187]",187,l,0.29117659106850624,colour,0.5
130,20,0,2,10,8,458,679.0571710679214,679.7594869607128,"[56, 0, 198]",198,a,0.17891514371149242,colour,0.5
130,20,0,2,10,9,459,680.2635041889735,681.0795553007629,"[31, 0, 223]",223,a,0.2928098700940609,colour,0.5
130,20,0,2,10,10,460,681.5915376690682,682.4395828542765,"[47, 0, 207]",207,a,0.32505679270252585,colour,0.5
130,20,0,2,10,11,461,682.9509417645168,683.8395117255859,"[95, 0, 159]",159,l,0.3653109965380281,colour,0.5
130,20,0,2,10,12,462,684.3572942628525,685.1435485675465,"[49, 0, 205]",205,a,0.26312767225317657,colour,0.5
130,20,0,2,10,13,463,685.6541402658913,686.7275228195358,"[38, 0, 216]",216,a,0.5500070105772465,colour,0.5
130,20,0,2,10,14,464,687.2478956812993,688.023535444634,"[41, 0, 213]",213,a,0.25220908178016543,colour,0.5
130,20,0,2,10,15,465,688.5450922073796,689.3435427385848,"[33, 0, 221]",221,a,0.27514194208197296,colour,0.5
130,20,0,2,10,16,466,689.8451193037909,690.7195316858124,"[19, 0, 235]",235,a,0.35140154021792114,colour,0.5
130,20,0,2,10,17,467,691.2357349006925,691.9195286137983,"[99, 0, 155]",155,l,0.17292002099566162,colour,0.5
130,20,0,2,10,18,468,692.4265217420179,693.1756009301171,"[54, 0, 200]",200,a,0.2258848142810166,colour,0.5
130,20,0,2,10,19,469,693.6935386427213,694.4475732003339,"[23, 0, 231]",231,a,0.2307023375760764,colour,0.5
130,20,0,2,10,20,470,694.9591652671807,695.831552493386,"[2, 0, 252]",252,a,0.34908218146301806,colour,0.5
130,20,0,2,10,21,471,696.3498013440985,696.9755216883495,"[4, 0, 250]",250,a,0.10269493004307151,colour,0.5
130,20,0,2,10,22,472,697.4904764117673,698.2075174159836,"[35, 0, 219]",219,a,0.19382221181876957,colour,0.5
130,20,0,2,10,23,473,698.7248466364108,699.455558820162,"[32, 0, 222]",222,a,0.20746227749623358,colour,0.5
130,20,0,2,10,24,474,699.9747741688043,700.6155878701247,"[96, 0, 158]",158,l,0.11749723507091403,colour,0.5
130,20,0,2,10,25,475,701.1336208933499,701.8075081999414,"[92, 0, 162]",162,l,0.15070080943405628,colour,0.5
130,20,0,2,10,26,476,702.3211904072668,702.9674982591532,"[78, 0, 176]",176,l,0.12306739785708487,colour,0.5
130,20,0,2,10,27,477,703.4773089610972,704.2555079353042,"[53, 0, 201]",201,a,0.25477932021021843,colour,0.5
130,20,0,2,10,28,478,704.7746547546703,705.4475074280053,"[71, 0, 183]",183,l,0.1465016242582351,colour,0.5
130,20,0,2,10,29,479,705.9651521190535,706.7115058936179,"[91, 0, 163]",163,l,0.22151981992647052,colour,0.5
130,20,0,2,10,30,480,707.2228451115079,707.8955252801534,"[79, 0, 175]",175,l,0.149322742363438,colour,0.5
130,20,0,2,10,31,481,708.4103236468509,709.1115174726583,"[24, 0, 230]",230,a,0.17787302727811038,colour,0.5
130,20,0,2,10,32,482,709.6289845393039,710.391575005604,"[70, 0, 184]",184,l,0.2399222704116255,colour,0.5
130,20,0,2,10,33,483,710.9103130130097,711.5995232888963,"[17, 0, 237]",237,a,0.1663010462652892,colour,0.5
130,20,0,2,10,34,484,712.1133271947037,713.1835558300372,"[45, 0, 209]",209,a,0.5474631595425308,colour,0.5
130,20,0,2,10,35,485,713.691570594674,714.559498303337,"[55, 0, 199]",199,a,0.3446466885507107,colour,0.5
130,20,0,2,10,36,486,715.0665103362408,715.7995320323389,"[62, 0, 192]",192,a,0.2098797035869211,colour,0.5
130,20,0,2,10,37,487,716.3165631114971,717.079612408299,"[76, 0, 178]",178,l,0.24006484262645245,colour,0.5
130,20,0,2,10,38,488,717.5978100590874,718.2874791657086,"[1, 0, 253]",253,a,0.1662935633212328,colour,0.5
130,20,0,2,10,39,489,718.801642652601,719.4314885328058,"[82, 0, 172]",172,l,0.10650145099498332,colour,0.5
130,20,0,2,10,40,490,719.9422850310802,720.9354888258968,"[26, 0, 228]",228,a,0.4698629102203995,colour,0.5
130,20,0,2,10,41,491,721.4422759725712,722.2554839106742,"[22, 0, 232]",232,a,0.28984657349064946,colour,0.5
130,20,0,2,10,42,492,722.77036498487,723.4395032974426,"[13, 0, 241]",241,a,0.14579900330863893,colour,0.5
130,20,0,2,10,43,493,723.9579183510505,724.7355383716058,"[43, 0, 211]",211,a,0.2543701143004,colour,0.5
130,20,0,2,10,44,494,725.255107393954,726.071588585386,"[18, 0, 236]",236,a,0.2931859928648919,colour,0.5
130,20,0,2,10,45,495,726.583064467879,727.3355929588433,"[89, 0, 165]",165,l,0.2297720736823976,colour,0.5
130,20,0,2,10,46,496,727.8487127539702,728.80750189838,"[64, 0, 190]",190,l,0.4355608995538205,colour,0.5
130,20,0,2,10,47,497,729.3174279972445,730.135458184639,"[21, 0, 233]",233,a,0.29728474747389555,colour,0.5
130,20,0,2,10,48,498,730.642911324976,731.367516139755,"[16, 0, 238]",238,a,0.20119737018831074,colour,0.5
130,20,0,2,10,49,499,731.8773532293271,732.5594790049363,"[86, 0, 168]",168,l,0.15882348781451583,colour,0.5
130,20,0,2,10,50,500,733.0804843832739,733.8555176239461,"[98, 0, 156]",156,l,0.2517821528017521,colour,0.5
130,20,0,2,11,1,501,739.1273445647676,740.1914666192606,"[22, 0, 232]",232,a,0.5399410964455456,colour,0.5
130,20,0,2,11,2,502,740.7062382043805,743.0394995952956,"[26, 0, 228]",228,a,1.8095270541962236,colour,0.5
130,20,0,2,11,3,503,743.5505044378806,744.1354416431859,"[9, 0, 245]",245,a,0.061854289611801505,colour,0.5
130,20,0,2,11,4,504,744.6441381548066,745.8074881138746,"[95, 0, 159]",159,l,0.6403284834232181,colour,0.5
130,20,0,2,11,5,505,746.3199155279435,747.1914851299953,"[71, 0, 183]",183,l,0.3490203476976603,colour,0.5
130,20,0,2,11,6,506,747.6974625296425,748.5115172362421,"[27, 0, 227]",227,a,0.2916980430018157,colour,0.5
130,20,0,2,11,7,507,749.0255074312445,749.8554802085273,"[2, 0, 252]",252,a,0.30654800357297063,colour,0.5
130,20,0,2,11,8,508,750.3713403837755,751.1355499506462,"[88, 0, 166]",166,l,0.24083599308505654,colour,0.5
130,20,0,2,11,9,509,751.6525794544723,752.463494815398,"[60, 0, 194]",194,l,0.287599288392812,colour,0.5
130,20,0,2,11,10,510,752.9806779192295,754.287476408761,"[62, 0, 192]",192,a,0.7833914388902485,colour,0.5
130,20,0,2,11,11,511,754.8088311282918,755.6794740110636,"[34, 0, 220]",220,a,0.34758477937430143,colour,0.5
130,20,0,2,11,12,512,756.1994104913902,757.1114363404922,"[17, 0, 237]",237,a,0.38879681657999754,colour,0.5
130,20,0,2,11,13,513,757.621412851382,758.4395438635256,"[92, 0, 162]",162,l,0.2931556669063866,colour,0.5
130,20,0,2,11,14,514,758.9512241519988,759.9514584902208,"[75, 0, 179]",179,l,0.47697537345811725,colour,0.5
130,20,0,2,11,15,515,760.4668011520989,761.2474443339743,"[39, 0, 215]",215,a,0.2576067401096225,colour,0.5
130,20,0,2,11,16,516,761.7668633009307,762.5594569495879,"[25, 0, 229]",229,a,0.2694288131315261,colour,0.5
130,20,0,2,11,17,517,763.0793367163278,763.7836151432712,"[33, 0, 221]",221,a,0.18094187462702394,colour,0.5
130,20,0,2,11,18,518,764.2981480576564,764.9514387978707,"[91, 0, 163]",163,l,0.12997584929689765,colour,0.5
130,20,0,2,11,19,519,765.4700614085887,766.2714693290181,"[41, 0, 213]",213,a,0.27811350976116955,colour,0.5
130,20,0,2,11,20,520,766.7825190699659,767.5834551630542,"[81, 0, 173]",173,l,0.2777299035806209,colour,0.5
130,20,0,2,11,21,521,768.0869406994898,769.1994187622331,"[70, 0, 184]",184,l,0.589148205704987,colour,0.5
130,20,0,2,11,22,522,769.7036297628656,770.4234233561438,"[6, 0, 248]",248,a,0.1964680685196072,colour,0.5
130,20,0,2,11,23,523,770.9396561095491,771.7274637427181,"[10, 0, 244]",244,a,0.26431275461800396,colour,0.5
130,20,0,2,11,24,524,772.2366529556457,773.6794243864715,"[53, 0, 201]",201,l,0.9194715060293674,colour,0.5
130,20,0,2,11,25,525,774.189688405022,774.8074664522428,"[98, 0, 156]",156,l,0.09437729814089835,colour,0.5
130,20,0,2,11,26,526,775.3146458696574,776.0314474152401,"[29, 0, 225]",225,a,0.19341851957142353,colour,0.5
130,20,0,2,11,27,527,776.5490716265049,777.383446025895,"[76, 0, 178]",178,l,0.31111425324343145,colour,0.5
130,20,0,2,11,28,528,777.8928668203298,778.7114369706251,"[96, 0, 158]",158,l,0.2953230009879917,colour,0.5
130,20,0,2,11,29,529,779.2212043493055,779.919449450681,"[37, 0, 217]",217,a,0.17483017360791564,colour,0.5
130,20,0,2,11,30,530,780.4398947802838,781.2874610486906,"[50, 0, 204]",204,a,0.32446956820786,colour,0.5
130,20,0,2,11,31,531,781.7992898169905,782.5514547880739,"[40, 0, 214]",214,a,0.22886268328875303,colour,0.5
130,20,0,2,11,32,532,783.0649002939463,783.8794516404159,"[51, 0, 203]",203,a,0.291209673974663,colour,0.5
130,20,0,2,11,33,533,784.393096038606,785.2074713360053,"[7, 0, 247]",247,a,0.2910619820468128,colour,0.5
130,20,0,2,11,34,534,785.7211728417315,786.4715469952207,"[14, 0, 240]",240,a,0.22598170023411512,colour,0.5
130,20,0,2,11,35,535,786.9893830956426,787.7914566155523,"[59, 0, 195]",195,a,0.2786928568966687,colour,0.5
130,20,0,2,11,36,536,788.3046760538127,788.9914952912368,"[42, 0, 212]",212,a,0.1634795342106372,colour,0.5
130,20,0,2,11,37,537,789.5077359215356,790.2954498194158,"[38, 0, 216]",216,a,0.26438758545555174,colour,0.5
130,20,0,2,11,38,538,790.8062640407588,791.5994409751147,"[43, 0, 211]",211,a,0.26971632055938244,colour,0.5
130,20,0,2,11,39,539,792.1187922006939,792.7595038958825,"[97, 0, 157]",157,l,0.11731015820987523,colour,0.5
130,20,0,2,11,40,540,793.2633876106702,793.9754181068856,"[83, 0, 171]",171,l,0.188645894639194,colour,0.5
130,20,0,2,11,41,541,794.482164687477,795.2874693195336,"[84, 0, 170]",170,l,0.28202243032865226,colour,0.5
130,20,0,2,11,42,542,795.7946869398002,796.4715103677008,"[15, 0, 239]",239,a,0.15348057402297854,colour,0.5
130,20,0,2,11,43,543,796.9821493276395,797.8794335236307,"[18, 0, 236]",236,a,0.37401971756480634,colour,0.5
130,20,0,2,11,44,544,798.388463228941,799.2394669847563,"[85, 0, 169]",169,l,0.32770146802067757,colour,0.5
130,20,0,2,11,45,545,799.7478610228281,800.6954633677378,"[57, 0, 197]",197,a,0.4244371154345572,colour,0.5
130,20,0,2,11,46,546,801.20466282079,801.7994422353804,"[90, 0, 164]",164,l,0.0714684622362256,colour,0.5
130,20,0,2,11,47,547,802.3059414809104,803.119425504934,"[58, 0, 196]",196,a,0.29023529938422143,colour,0.5
130,20,0,2,11,48,548,803.6340304932091,804.4474341727328,"[67, 0, 187]",187,a,0.2900765794329345,colour,0.5
130,20,0,2,11,49,549,804.9622553824447,805.6555549604818,"[49, 0, 205]",205,a,0.16884410940110683,colour,0.5
130,20,0,2,11,50,550,806.1666755939368,806.8554254639894,"[19, 0, 235]",235,a,0.1657406035810709,colour,0.5
130,20,0,2,12,1,551,812.1501462743618,813.3994598009158,"[57, 0, 197]",197,a,0.7252381192520261,colour,0.5
130,20,0,2,12,2,552,813.9165605909657,815.8635063944384,"[31, 0, 223]",223,a,1.4238806110806763,colour,0.5
130,20,0,2,12,3,553,816.3696070678998,817.1194455910008,"[41, 0, 213]",213,a,0.2264003586024046,colour,0.5
130,20,0,2,12,4,554,817.6374679803848,820.0234684909228,"[69, 0, 185]",185,l,1.8626875889021903,colour,0.5
130,20,0,2,12,5,555,820.5437523433939,821.415410167072,"[60, 0, 194]",194,a,0.3484484835062176,colour,0.5
130,20,0,2,12,6,556,821.9342726296745,822.5754340970889,"[25, 0, 229]",229,a,0.11766146891750395,colour,0.5
130,20,0,2,12,7,557,823.090646001976,823.8875042141881,"[23, 0, 231]",231,a,0.2736406014300883,colour,0.5
130,20,0,2,12,8,558,824.4032198479399,825.1914339300711,"[32, 0, 222]",222,a,0.26542221871204674,colour,0.5
130,20,0,2,12,9,559,825.70078186295,826.6394340591505,"[72, 0, 182]",182,l,0.4133180573116988,colour,0.5
130,20,0,2,12,10,560,827.1558826402761,827.871436876012,"[24, 0, 230]",230,a,0.19216096960008144,colour,0.5
130,20,0,2,12,11,561,828.3902824034449,829.095411537448,"[64, 0, 190]",190,l,0.18184456950984895,colour,0.5
130,20,0,2,12,12,562,829.6089976464864,830.1754099149257,"[19, 0, 235]",235,a,0.04307374684140086,colour,0.5
130,20,0,2,12,13,563,830.6871784247924,831.4794530584477,"[3, 0, 251]",251,a,0.2688971213065088,colour,0.5
130,20,0,2,12,14,564,831.9998085908592,832.9434315166436,"[56, 0, 198]",198,a,0.4204194932244718,colour,0.5
130,20,0,2,12,15,565,833.4528948464431,834.1914343237877,"[17, 0, 237]",237,a,0.21526160812936723,colour,0.5
130,20,0,2,12,16,566,834.7029291109648,835.5753947123885,"[6, 0, 248]",248,a,0.3492003350984305,colour,0.5
130,20,0,2,12,17,567,836.0877780159935,836.8874467127025,"[22, 0, 232]",232,a,0.27391905058175325,colour,0.5
130,20,0,2,12,18,568,837.4025971775409,838.1594520658255,"[29, 0, 225]",225,a,0.23356284038163722,colour,0.5
130,20,0,2,12,19,569,838.6681970206555,839.351475977106,"[93, 0, 161]",161,l,0.16000857017934322,colour,0.5
130,20,0,2,12,20,570,839.8713238423225,840.6874828678556,"[26, 0, 228]",228,a,0.2927381901536137,colour,0.5
130,20,0,2,12,21,571,841.1890862144064,841.9434260027483,"[74, 0, 180]",180,l,0.2311272972729057,colour,0.5
130,20,0,2,12,22,572,842.4547128390986,843.071388117969,"[28, 0, 226]",226,a,0.09331903420388699,colour,0.5
130,20,0,2,12,23,573,843.5797029929236,844.4634318000171,"[59, 0, 195]",195,l,0.360793583560735,colour,0.5
130,20,0,2,12,24,574,844.9702843253035,845.7994083648082,"[67, 0, 187]",187,l,0.3058741332497448,colour,0.5
130,20,0,2,12,25,575,846.3140361960977,847.0633871380705,"[53, 0, 201]",201,a,0.2260124203749001,colour,0.5
130,20,0,2,12,26,576,847.5813303643372,848.37545292289,"[0, 0, 254]",254,a,0.2711207752581686,colour,0.5
130,20,0,2,12,27,577,848.8894911669195,849.6634090358857,"[1, 0, 253]",253,a,0.2504895506426692,colour,0.5
130,20,0,2,12,28,578,850.1713855972048,850.8714833499398,"[65, 0, 189]",189,l,0.17548238253220916,colour,0.5
130,20,0,2,12,29,579,851.391439916566,852.0634363687132,"[34, 0, 220]",220,a,0.1487745090853423,colour,0.5
130,20,0,2,12,30,580,852.5788865503855,853.3034141715616,"[4, 0, 250]",250,a,0.2015167793724686,colour,0.5
130,20,0,2,12,31,581,853.8133166395128,854.5833905723412,"[20, 0, 234]",234,a,0.24677243269979954,colour,0.5
130,20,0,2,12,32,582,855.0945127811283,855.8954252433032,"[45, 0, 209]",209,a,0.27748099295422435,colour,0.5
130,20,0,2,12,33,583,856.4070342457853,857.1595469827298,"[50, 0, 204]",204,a,0.22916200617328286,colour,0.5
130,20,0,2,12,34,584,857.6725958858151,858.447430628119,"[52, 0, 202]",202,a,0.2514521100092679,colour,0.5
130,20,0,2,12,35,585,858.9539271164685,859.7274306595791,"[38, 0, 216]",216,a,0.25021661538630724,colour,0.5
130,20,0,2,12,36,586,860.2351480703801,860.9034396139905,"[73, 0, 181]",181,l,0.14527203724719584,colour,0.5
130,20,0,2,12,37,587,861.4227065565065,862.1914276285097,"[80, 0, 174]",174,l,0.24545935029163957,colour,0.5
130,20,0,2,12,38,588,862.703912544297,863.3754734029062,"[46, 0, 208]",208,a,0.14827314321883023,colour,0.5
130,20,0,2,12,39,589,863.89139107964,864.5994586981833,"[68, 0, 186]",186,l,0.18476336146704853,colour,0.5
130,20,0,2,12,40,590,865.1101086856797,865.8313977119979,"[11, 0, 243]",243,a,0.19861492258496583,colour,0.5
130,20,0,2,12,41,591,866.3445222333539,867.0314237845596,"[79, 0, 175]",175,l,0.16355318343266845,colour,0.5
130,20,0,2,12,42,592,867.5476785935462,868.2713822890073,"[86, 0, 168]",168,l,0.20045772776938975,colour,0.5
130,20,0,2,12,43,593,868.7820232179947,869.3994278993923,"[98, 0, 156]",156,l,0.09417761815711856,colour,0.5
130,20,0,2,12,44,594,869.9070401533972,870.6634039159399,"[87, 0, 167]",167,l,0.23304808395914733,colour,0.5
130,20,0,2,12,45,595,871.1731642053928,871.8794670004863,"[95, 0, 159]",159,l,0.18149089580401778,colour,0.5
130,20,0,2,12,46,596,872.3933756691404,873.1834270425607,"[37, 0, 217]",217,a,0.26673215022310615,colour,0.5
130,20,0,2,12,47,597,873.6902736600023,874.3353727988433,"[85, 0, 169]",169,l,0.12186892493627965,colour,0.5
130,20,0,2,12,48,598,874.8468266259879,875.4874028381892,"[9, 0, 245]",245,a,0.11759609053842723,colour,0.5
130,20,0,2,12,49,599,876.0027443184517,876.6473708422855,"[83, 0, 171]",171,l,0.12130454368889332,colour,0.5
130,20,0,2,12,50,600,877.1590042631142,877.8393982979469,"[54, 0, 200]",200,a,0.1570779625326395,colour,0.5
130,20,0,2,13,1,601,882.6626426116563,884.5674685633276,"[86, 0, 168]",168,l,1.3806930428836495,colour,0.5
130,20,0,2,13,2,602,885.0853471988812,885.6634228203911,"[38, 0, 216]",216,a,0.05487258289940655,colour,0.5
130,20,0,2,13,3,603,886.1790470820852,887.5194642592687,"[35, 0, 219]",219,a,0.8174614738672972,colour,0.5
130,20,0,2,13,4,604,888.0386063526385,888.8954260309692,"[32, 0, 222]",222,a,0.3336264858953655,colour,0.5
130,20,0,2,13,5,605,889.413430303568,890.1913590992335,"[48, 0, 206]",206,a,0.2546489571686834,colour,0.5
130,20,0,2,13,6,606,890.7102900911123,891.5113786025904,"[36, 0, 218]",218,a,0.2781320202630013,colour,0.5
130,20,0,2,13,7,607,892.0227418451104,892.7993811892811,"[30, 0, 224]",224,a,0.2532362318597734,colour,0.5
130,20,0,2,13,8,608,893.3196189620066,894.1593851121143,"[31, 0, 223]",223,a,0.31644535157829523,colour,0.5
130,20,0,2,13,9,609,894.6819316095207,895.6313539163675,"[74, 0, 180]",180,l,0.4262968560215086,colour,0.5
130,20,0,2,13,10,610,896.1507078986615,896.8393719103187,"[19, 0, 235]",235,a,0.16530343471094966,colour,0.5
130,20,0,2,13,11,611,897.3538548063952,899.4793786215596,"[91, 0, 163]",163,l,1.6021502413786948,colour,0.5
130,20,0,2,13,12,612,899.99241334619,900.7993851278443,"[99, 0, 155]",155,l,0.2836592539679259,colour,0.5
130,20,0,2,13,13,613,901.3205547400285,902.0153690495063,"[17, 0, 237]",237,a,0.17149508651345968,colour,0.5
130,20,0,2,13,14,614,902.5237099183723,904.0633654764388,"[29, 0, 225]",225,a,1.0164497625082731,colour,0.5
130,20,0,2,13,15,615,904.5705401676241,905.7513445899822,"[70, 0, 184]",184,l,0.6561354892328382,colour,0.5
130,20,0,2,13,16,616,906.2595401299186,907.1193475234322,"[85, 0, 169]",169,l,0.3365637888200581,colour,0.5
130,20,0,2,13,17,617,907.634447182063,908.383407035144,"[95, 0, 159]",159,l,0.22562330053187907,colour,0.5
130,20,0,2,13,18,618,908.9000990130007,909.6394289392047,"[10, 0, 244]",244,a,0.2165227027144283,colour,0.5
130,20,0,2,13,19,619,910.1501604528166,911.0873695977498,"[63, 0, 191]",191,a,0.41419790918007493,colour,0.5
130,20,0,2,13,20,620,911.6033116928302,912.23939018487,"[49, 0, 205]",205,a,0.1127947149798274,colour,0.5
130,20,0,2,13,21,621,912.7595637605991,913.5114215316717,"[34, 0, 220]",220,a,0.2285176741424948,colour,0.5
130,20,0,2,13,22,622,914.0252344959881,914.8714321497828,"[80, 0, 174]",174,l,0.3229276614729315,colour,0.5
130,20,0,2,13,23,623,915.38452240685,916.1514475413132,"[43, 0, 211]",211,a,0.24326405324973166,colour,0.5
130,20,0,2,13,24,624,916.6564761660993,917.3833463827614,"[84, 0, 170]",170,l,0.2043705869000405,colour,0.5
130,20,0,2,13,25,625,917.8901295911055,918.6393903424032,"[39, 0, 215]",215,a,0.2258745743893087,colour,0.5
130,20,0,2,13,26,626,919.1557881173212,919.9273929290939,"[41, 0, 213]",213,a,0.2484813299961388,colour,0.5
130,20,0,2,13,27,627,920.4388262762222,921.2555162061471,"[37, 0, 217]",217,a,0.2934565651230514,colour,0.5
130,20,0,2,13,28,628,921.7669259223621,922.6074017828796,"[26, 0, 228]",228,a,0.3174961325712502,colour,0.5
130,20,0,2,13,29,629,923.126554116141,923.9114102676976,"[73, 0, 181]",181,l,0.26151566090993583,colour,0.5
130,20,0,2,13,30,630,924.4234111467376,925.2713653536048,"[77, 0, 177]",177,l,0.32451052824035287,colour,0.5
130,20,0,2,13,31,631,925.7827821590472,926.5273640209343,"[22, 0, 232]",232,a,0.22131344466470182,colour,0.5
130,20,0,2,13,32,632,927.0484651038423,927.8473898256198,"[98, 0, 156]",156,l,0.2757193201687187,colour,0.5
130,20,0,2,13,33,633,928.3609889314976,929.1273831618018,"[16, 0, 238]",238,a,0.24315101956017315,colour,0.5
130,20,0,2,13,34,634,929.6421708944254,930.8233880675398,"[64, 0, 190]",190,a,0.6667165539693087,colour,0.5
130,20,0,2,13,35,635,931.3359919246286,932.335351531161,"[72, 0, 182]",182,l,0.476013601757586,colour,0.5
130,20,0,2,13,36,636,932.8515752262902,933.5993547230028,"[82, 0, 172]",172,l,0.22444255067966878,colour,0.5
130,20,0,2,13,37,637,934.1172223307658,935.0553778873291,"[78, 0, 176]",176,l,0.4134677187539637,colour,0.5
130,20,0,2,13,38,638,935.5718753053807,936.2794230473228,"[7, 0, 247]",247,a,0.1842915341258049,colour,0.5
130,20,0,2,13,39,639,936.7905074469745,937.8393888457213,"[68, 0, 186]",186,l,0.5256350371055305,colour,0.5
130,20,0,2,13,40,640,938.3411698169075,939.6314224454109,"[61, 0, 193]",193,a,0.7669302544090897,colour,0.5
130,20,0,2,13,41,641,940.1379760415293,941.1754055826459,"[89, 0, 165]",165,l,0.5140792040619999,colour,0.5
130,20,0,2,13,42,642,941.6848929370753,942.4873925982974,"[79, 0, 175]",175,l,0.27984367473982275,colour,0.5
130,20,0,2,13,43,643,942.9973368139472,943.7513571931049,"[18, 0, 236]",236,a,0.23052510689012706,colour,0.5
130,20,0,2,13,44,644,944.2630020354409,945.1353876863141,"[5, 0, 249]",249,a,0.34905461221933365,colour,0.5
130,20,0,2,13,45,645,945.6536322047468,946.4073512917385,"[87, 0, 167]",167,l,0.23049990087747574,colour,0.5
130,20,0,2,13,46,646,946.9192718262784,947.9273610275704,"[81, 0, 173]",173,l,0.4878427640069276,colour,0.5
130,20,0,2,13,47,647,948.4476610280108,949.1673805781174,"[9, 0, 245]",245,a,0.19644680083729327,colour,0.5
130,20,0,2,13,48,648,949.6850150292739,950.2953379671089,"[13, 0, 241]",241,a,0.08698677946813405,colour,0.5
130,20,0,2,13,49,649,950.8106530595105,951.4793451444712,"[56, 0, 198]",198,a,0.14534647413529456,colour,0.5
130,20,0,2,13,50,650,951.9981851580087,952.8073715353385,"[69, 0, 185]",185,l,0.2858305263798684,colour,0.5
130,20,0,2,14,1,651,961.0943205843214,963.4953644336201,"[47, 0, 207]",207,a,1.876919211121276,colour,0.5
130,20,0,2,14,2,652,964.0169936639722,964.8233892489225,"[15, 0, 239]",239,a,0.2833713525906205,colour,0.5
130,20,0,2,14,3,653,965.3295029192232,966.0233373402152,"[12, 0, 242]",242,a,0.1705467056017369,colour,0.5
130,20,0,2,14,4,654,966.5325848422945,967.3193696574308,"[7, 0, 247]",247,a,0.26353215193375945,colour,0.5
130,20,0,2,14,5,655,967.8294903161004,968.6233616010286,"[32, 0, 222]",222,a,0.27061625849455595,colour,0.5
130,20,0,2,14,6,656,969.1438167765737,969.8633835145738,"[8, 0, 246]",246,a,0.1962802039925009,colour,0.5
130,20,0,2,14,7,657,970.3790491300169,971.0713034409564,"[78, 0, 176]",176,l,0.16893114941194654,colour,0.5
130,20,0,2,14,8,658,971.5855894142296,972.8793716898654,"[56, 0, 198]",198,a,0.7706457970198244,colour,0.5
130,20,0,2,14,9,659,973.3980805526953,974.095317014493,"[91, 0, 163]",163,l,0.17393417423591018,colour,0.5
130,20,0,2,14,10,660,974.6013105616439,975.5993310920894,"[75, 0, 179]",179,l,0.4747741688042879,colour,0.5
130,20,0,2,14,11,661,976.1168284849264,976.8793606620748,"[11, 0, 243]",243,a,0.23946934775449336,colour,0.5
130,20,0,2,14,12,662,977.3980868540239,978.2233397818636,"[70, 0, 184]",184,l,0.30224996292963624,colour,0.5
130,20,0,2,14,13,663,978.7418190327007,979.5673263848294,"[21, 0, 233]",233,a,0.3028954763431102,colour,0.5
130,20,0,2,14,14,664,980.086434607394,980.847320902627,"[68, 0, 186]",186,l,0.2374753060285002,colour,0.5
130,20,0,2,14,15,665,981.3676374445204,982.1593599058688,"[71, 0, 183]",183,l,0.26439073611982167,colour,0.5
130,20,0,2,14,16,666,982.6684128483757,983.4554595709778,"[29, 0, 225]",225,a,0.26368260104209185,colour,0.5
130,20,0,2,14,17,667,983.965337226633,984.6713879604358,"[31, 0, 223]",223,a,0.1828335167374462,colour,0.5
130,20,0,2,14,18,668,985.1841481742449,985.8233226891607,"[46, 0, 208]",208,a,0.11601637466810644,colour,0.5
130,20,0,2,14,19,669,986.342284794664,987.1113237005193,"[53, 0, 201]",201,a,0.2536836408544332,colour,0.5
130,20,0,2,14,20,670,987.6174830568489,989.031301692361,"[54, 0, 200]",200,a,0.8906274123582989,colour,0.5
130,20,0,2,14,21,671,989.539358598413,990.3433497541118,"[9, 0, 245]",245,a,0.2806892618536949,colour,0.5
130,20,0,2,14,22,672,990.8518674599472,991.6473369714804,"[84, 0, 170]",170,l,0.2721766761969775,colour,0.5
130,20,0,2,14,23,673,992.1643227583263,994.4633112833835,"[36, 0, 218]",218,l,1.7755976219195873,colour,0.5
130,20,0,2,14,24,674,994.976862733718,995.7752845142968,"[3, 0, 251]",251,a,0.2751966866198927,colour,0.5
130,20,0,2,14,25,675,996.2893416630104,997.0953099252656,"[1, 0, 253]",253,a,0.28261595615185797,colour,0.5
130,20,0,2,14,26,676,997.6018993614707,998.903319097124,"[55, 0, 199]",199,a,0.7781308386474848,colour,0.5
130,20,0,2,14,27,677,999.4123310795985,1000.1754579641856,"[62, 0, 192]",192,a,0.23986358754336834,colour,0.5
130,20,0,2,14,28,678,1000.693509891862,1001.487354001496,"[94, 0, 160]",160,l,0.27053315727971494,colour,0.5
130,20,0,2,14,29,679,1002.0059872458223,1002.8553273961879,"[64, 0, 190]",190,a,0.3259492472279817,colour,0.5
130,20,0,2,14,30,680,1003.3537275942508,1004.5433529836591,"[6, 0, 248]",248,a,0.6662915940396488,colour,0.5
130,20,0,2,14,31,681,1005.056922157295,1005.607421474997,"[97, 0, 157]",157,l,0.027303762268275023,colour,0.5
130,20,0,2,14,32,682,1006.1069890323561,1006.6713643295225,"[10, 0, 244]",244,a,0.0411104247905314,colour,0.5
130,20,0,2,14,33,683,1007.1850374783389,1008.6232903148048,"[14, 0, 240]",240,a,0.9148812317289412,colour,0.5
130,20,0,2,14,34,684,1009.1382367676124,1009.6793471926358,"[20, 0, 234]",234,a,0.017742364900186658,colour,0.5
130,20,0,2,14,35,685,1010.2007948597893,1010.7913325540721,"[93, 0, 161]",161,l,0.06731614470481873,colour,0.5
130,20,0,2,14,36,686,1011.3101721736602,1011.8713427467737,"[25, 0, 229]",229,a,0.035075917607173324,colour,0.5
130,20,0,2,14,37,687,1012.3911429566797,1013.0313532862347,"[77, 0, 177]",177,l,0.11692025093361735,colour,0.5
130,20,0,2,14,38,688,1013.5473572150804,1014.103349108249,"[83, 0, 171]",171,l,0.03270181454718113,colour,0.5
130,20,0,2,14,39,689,1014.6098593813367,1015.1833439408801,"[41, 0, 213]",213,a,0.050284671830013394,colour,0.5
130,20,0,2,14,40,690,1015.7036841136869,1016.3673070077784,"[90, 0, 164]",164,l,0.14063765248283744,colour,0.5
130,20,0,2,14,41,691,1016.8754863997456,1017.5673693141434,"[85, 0, 169]",169,l,0.16859480505809188,colour,0.5
130,20,0,2,14,42,692,1018.0786088888999,1018.8153158014175,"[48, 0, 206]",206,a,0.2133589384611696,colour,0.5
130,20,0,2,14,43,693,1019.3286084951833,1020.0153320280369,"[57, 0, 197]",197,a,0.16340430965647101,colour,0.5
130,20,0,2,14,44,694,1020.5319054580759,1021.3193314545788,"[28, 0, 226]",226,a,0.26433362858369946,colour,0.5
130,20,0,2,14,45,695,1021.8285817136057,1022.6073430997785,"[98, 0, 156]",156,l,0.25543704302981496,colour,0.5
130,20,0,2,14,46,696,1023.1254560735542,1023.8073053692933,"[4, 0, 250]",250,a,0.15847926633432508,colour,0.5
130,20,0,2,14,47,697,1024.3285750183277,1025.02330780169,"[88, 0, 166]",166,l,0.17139465571381152,colour,0.5
130,20,0,2,14,48,698,1025.5317585535813,1026.3113147206604,"[23, 0, 231]",231,a,0.25632240856066346,colour,0.5
130,20,0,2,14,49,699,1026.8286147967447,1027.5512913421262,"[89, 0, 165]",165,l,0.19936992530710995,colour,0.5
130,20,0,2,14,50,700,1028.0629440613557,1028.775337289786,"[76, 0, 178]",178,l,0.18892001151107252,colour,0.5
130,20,0,2,15,1,701,1033.1402969756164,1034.9272830460686,"[61, 0, 193]",193,a,1.2630394506268203,colour,0.5
130,20,0,2,15,2,702,1035.437981082825,1035.9673064562958,"[31, 0, 223]",223,a,0.006035688798874617,colour,0.5
130,20,0,2,15,3,703,1036.4848022735678,1038.2072838651948,"[96, 0, 158]",158,l,1.1994995004497468,colour,0.5
130,20,0,2,15,4,704,1038.7191898275632,1039.3593146924395,"[49, 0, 205]",205,a,0.11683124187402427,colour,0.5
130,20,0,2,15,5,705,1039.8757380673196,1041.0553676474374,"[19, 0, 235]",235,a,0.6562953907996416,colour,0.5
130,20,0,2,15,6,706,1041.563336331863,1042.3752985352185,"[65, 0, 189]",189,a,0.288765860022977,colour,0.5
130,20,0,2,15,7,707,1042.8913442119956,1043.607309622923,"[6, 0, 248]",248,a,0.1926528832409531,colour,0.5
130,20,0,2,15,8,708,1044.1264265100472,1044.823268732056,"[4, 0, 250]",250,a,0.17353796516545117,colour,0.5
130,20,0,2,15,9,709,1045.3295864146203,1045.9992867452092,"[80, 0, 174]",174,l,0.14668830740265548,colour,0.5
130,20,0,2,15,10,710,1046.5170877929777,1047.4073249041103,"[29, 0, 225]",225,a,0.3671809770166874,colour,0.5
130,20,0,2,15,11,711,1047.9232886608224,1048.7593034284655,"[70, 0, 184]",184,l,0.31263686157763004,colour,0.5
130,20,0,2,15,12,712,1049.267036987003,1050.415321551729,"[26, 0, 228]",228,a,0.6252280368935317,colour,0.5
130,20,0,2,15,13,713,1050.9232441561762,1051.5832850215957,"[17, 0, 237]",237,a,0.13661333452910185,colour,0.5
130,20,0,2,15,14,714,1052.0951035500038,1053.1513514430262,"[30, 0, 224]",224,a,0.5327691622078419,colour,0.5
130,20,0,2,15,15,715,1053.6577226885129,1054.383314481238,"[34, 0, 220]",220,a,0.20241868658922613,colour,0.5
130,20,0,2,15,16,716,1054.893853798043,1055.5112683256157,"[95, 0, 159]",159,l,0.09402716904878616,colour,0.5
130,20,0,2,15,17,717,1056.0188916074112,1056.7032768768258,"[77, 0, 177]",177,l,0.16105659399181604,colour,0.5
130,20,0,2,15,18,718,1057.2220223674085,1057.9033155525103,"[62, 0, 192]",192,a,0.1580539126880467,colour,0.5
130,20,0,2,15,19,719,1058.409459942719,1059.0712530286983,"[79, 0, 175]",175,l,0.13847228744998574,colour,0.5
130,20,0,2,15,20,720,1059.5814087395556,1060.5673114187084,"[53, 0, 201]",201,a,0.46293831104412675,colour,0.5
130,20,0,2,15,21,721,1061.081313822884,1061.8393341011833,"[1, 0, 253]",253,a,0.2347557998728007,colour,0.5
130,20,0,2,15,22,722,1062.3371754316613,1063.0472800214775,"[75, 0, 179]",179,l,0.1868657113518566,colour,0.5
130,20,0,2,15,23,723,1063.5559280901216,1064.3112706099637,"[50, 0, 204]",204,a,0.23207292123697698,colour,0.5
130,20,0,2,15,24,724,1064.8215846470557,1065.5512740127742,"[92, 0, 162]",162,l,0.20629216101951897,colour,0.5
130,20,0,2,15,25,725,1066.071578739211,1066.8632870223373,"[44, 0, 210]",210,a,0.26839811843819916,colour,0.5
130,20,0,2,15,26,726,1067.3840403393842,1068.1352770156227,"[55, 0, 199]",199,a,0.2280131576117128,colour,0.5
130,20,0,2,15,27,727,1068.6496346686035,1069.3593182370532,"[98, 0, 156]",156,l,0.18651873292401433,colour,0.5
130,20,0,2,15,28,728,1069.8703522244468,1070.5113037717529,"[48, 0, 206]",206,a,0.1177225150167942,colour,0.5
130,20,0,2,15,29,729,1071.02653970127,1071.7512713347096,"[33, 0, 221]",221,a,0.2013856286648661,colour,0.5
130,20,0,2,15,30,730,1072.2609044120181,1073.0312890892383,"[63, 0, 191]",191,a,0.2470934169832617,colour,0.5
130,20,0,2,15,31,731,1073.5421868059784,1074.1832903779577,"[2, 0, 252]",252,a,0.11783357965759933,colour,0.5
130,20,0,2,15,32,732,1074.6984270582907,1075.407264645677,"[22, 0, 232]",232,a,0.1855404197704047,colour,0.5
130,20,0,2,15,33,733,1075.9171403320506,1076.4632998616435,"[99, 0, 155]",155,l,0.023069130955263972,colour,0.5
130,20,0,2,15,34,734,1076.9796795197763,1077.6472881345544,"[9, 0, 245]",245,a,0.14435555785894394,colour,0.5
130,20,0,2,15,35,735,1078.1670769229531,1078.943298790371,"[45, 0, 209]",209,a,0.25310271815396845,colour,0.5
130,20,0,2,15,36,736,1079.4640237505082,1080.0952945651952,"[24, 0, 230]",230,a,0.1079196899663657,colour,0.5
130,20,0,2,15,37,737,1080.60462674452,1081.287296814844,"[90, 0, 164]",164,l,0.15933588123880327,colour,0.5
130,20,0,2,15,38,738,1081.807787436759,1082.4632392094936,"[35, 0, 219]",219,a,0.13288321997970343,colour,0.5
130,20,0,2,15,39,739,1082.979973722715,1083.6312991718296,"[10, 0, 244]",244,a,0.12801370909437537,colour,0.5
130,20,0,2,15,40,740,1084.1518669873476,1084.807265196927,"[94, 0, 160]",160,l,0.1321124634705484,colour,0.5
130,20,0,2,15,41,741,1085.3237098394893,1086.063265045872,"[60, 0, 194]",194,a,0.21630884474143386,colour,0.5
130,20,0,2,15,42,742,1086.5737251995597,1087.3672443861142,"[66, 0, 188]",188,a,0.27022910793311894,colour,0.5
130,20,0,2,15,43,743,1087.8861533226445,1088.567279517185,"[11, 0, 243]",243,a,0.1567309843376279,colour,0.5
130,20,0,2,15,44,744,1089.0747795251664,1089.8392596642952,"[0, 0, 254]",254,a,0.239427600055933,colour,0.5
130,20,0,2,15,45,745,1090.3454009036068,1091.0873026438057,"[73, 0, 181]",181,l,0.21860890462994576,colour,0.5
130,20,0,2,15,46,746,1091.5953666390851,1092.367292435374,"[40, 0, 214]",214,a,0.24861641926690936,colour,0.5
130,20,0,2,15,47,747,1092.8766151622403,1093.615256252,"[46, 0, 208]",208,a,0.215607798891142,colour,0.5
130,20,0,2,15,48,748,1094.1266474574804,1094.8072711047716,"[89, 0, 165]",165,l,0.15739028248935938,colour,0.5
130,20,0,2,15,49,749,1095.3141307190526,1095.9272472062148,"[52, 0, 202]",202,a,0.0896676885895431,colour,0.5
130,20,0,2,15,50,750,1096.439209094504,1097.007281029597,"[58, 0, 196]",196,a,0.044841721188277006,colour,0.5
130,20,0,2,16,1,751,1101.955795521615,1103.6792688171845,"[58, 0, 196]",196,a,1.1993124238215387,colour,0.5
130,20,0,2,16,2,752,1104.1917060776614,1106.0073243526276,"[28, 0, 226]",226,a,1.2923108672257513,colour,0.5
130,20,0,2,16,3,753,1106.519800997572,1107.2712601968087,"[75, 0, 179]",179,l,0.22815179149620235,colour,0.5
130,20,0,2,16,4,754,1107.7853571237065,1108.423251639353,"[93, 0, 161]",161,l,0.11455205548554659,colour,0.5
130,20,0,2,16,5,755,1108.9416312468238,1109.6232525056694,"[27, 0, 227]",227,a,0.15826107561588287,colour,0.5
130,20,0,2,16,6,756,1110.1447624007706,1111.0872656223364,"[62, 0, 192]",192,a,0.4192600108217448,colour,0.5
130,20,0,2,16,7,757,1111.5984500588384,1112.2472702539526,"[0, 0, 254]",254,a,0.1255167257040739,colour,0.5
130,20,0,2,16,8,758,1112.7546729820315,1113.4712779985275,"[2, 0, 252]",252,a,0.19324601511470973,colour,0.5
130,20,0,2,16,9,759,1113.9909340608865,1114.7672378483694,"[90, 0, 164]",164,l,0.25301095214672387,colour,0.5
130,20,0,2,16,10,760,1115.2878159037791,1115.9832438253798,"[32, 0, 222]",222,a,0.17207010136917233,colour,0.5
130,20,0,2,16,11,761,1116.490987623809,1117.3032578148413,"[63, 0, 191]",191,l,0.28903131233528256,colour,0.5
130,20,0,2,16,12,762,1117.8196910358965,1118.4632959233131,"[71, 0, 183]",183,l,0.12023013201542199,colour,0.5
130,20,0,2,16,13,763,1118.9758879651781,1119.751247704029,"[47, 0, 207]",207,a,0.25195583887398243,colour,0.5
130,20,0,2,16,14,764,1120.2696737854276,1120.823318356648,"[66, 0, 188]",188,a,0.030014997581019998,colour,0.5
130,20,0,2,16,15,765,1121.33203692385,1121.8792807112914,"[17, 0, 237]",237,a,0.023964342661201954,colour,0.5
130,20,0,2,16,16,766,1122.3946095884312,1123.1352447201498,"[55, 0, 199]",199,a,0.21733678225427866,colour,0.5
130,20,0,2,16,17,767,1123.645253920462,1124.375268996926,"[7, 0, 247]",247,a,0.20669624721631408,colour,0.5
130,20,0,2,16,18,768,1124.8951806649566,1125.6152231688611,"[11, 0, 243]",243,a,0.19671894842758775,colour,0.5
130,20,0,2,16,19,769,1126.1296107543167,1126.7672386360355,"[4, 0, 250]",250,a,0.11175496177747846,colour,0.5
130,20,0,2,16,20,770,1127.2884622050915,1127.8872659374028,"[99, 0, 155]",155,l,0.07544827531091869,colour,0.5
130,20,0,2,16,21,771,1128.3978048604913,1128.9832678500097,"[95, 0, 159]",159,l,0.06218708958476782,colour,0.5
130,20,0,2,16,22,772,1129.4916047803126,1130.1192049512174,"[57, 0, 197]",197,a,0.10428055375814438,colour,0.5
130,20,0,2,16,23,773,1130.6322109249886,1131.2392424924765,"[60, 0, 194]",194,a,0.08381435042247176,colour,0.5
130,20,0,2,16,24,774,1131.7571699649561,1133.1192770248745,"[68, 0, 186]",186,l,0.838773264316842,colour,0.5
130,20,0,2,16,25,775,1133.6321963528171,1134.1833187348675,"[12, 0, 242]",242,a,0.027834666660055518,colour,0.5
130,20,0,2,16,26,776,1134.6946477128658,1135.2792292751838,"[24, 0, 230]",230,a,0.060034327674657106,colour,0.5
130,20,0,2,16,27,777,1135.7895519766025,1136.359249707777,"[84, 0, 170]",170,l,0.046221363358199596,colour,0.5
130,20,0,2,16,28,778,1136.8695810739882,1137.5832862032112,"[61, 0, 193]",193,a,0.19054856430739164,colour,0.5
130,20,0,2,16,29,779,1138.1039335755631,1138.799363072496,"[78, 0, 176]",176,l,0.17210948606953025,colour,0.5
130,20,0,2,16,30,780,1139.3070757570677,1140.071266419487,"[96, 0, 158]",158,l,0.24091476225294173,colour,0.5
130,20,0,2,16,31,781,1140.5883983231615,1141.6472444175743,"[85, 0, 169]",169,l,0.535940409405157,colour,0.5
130,20,0,2,16,32,782,1142.167196258204,1142.9672548624221,"[52, 0, 202]",202,a,0.27756448835134506,colour,0.5
130,20,0,2,16,33,783,1143.4789217601065,1144.1992238084786,"[19, 0, 235]",235,a,0.19704780960455537,colour,0.5
130,20,0,2,16,34,784,1144.7132443294395,1145.4472419759259,"[3, 0, 251]",251,a,0.21073001716285944,colour,0.5
130,20,0,2,16,35,785,1145.9651639345102,1146.6152625535615,"[36, 0, 218]",218,a,0.1268042081501335,colour,0.5
130,20,0,2,16,36,786,1147.121378192911,1147.7832606818993,"[14, 0, 240]",240,a,0.1384076967369765,colour,0.5
130,20,0,2,16,37,787,1148.293345500715,1148.999223335879,"[70, 0, 184]",184,l,0.18257397203706205,colour,0.5
130,20,0,2,16,38,788,1149.512034749845,1150.1912417332642,"[76, 0, 178]",178,l,0.15581883722916245,colour,0.5
130,20,0,2,16,39,789,1150.6995172237512,1151.383243982913,"[18, 0, 236]",236,a,0.16054853284731507,colour,0.5
130,20,0,2,16,40,790,1151.9026460144669,1152.8232514029369,"[83, 0, 171]",171,l,0.3973235806915909,colour,0.5
130,20,0,2,16,41,791,1153.3401536943857,1154.0552873027045,"[97, 0, 157]",157,l,0.19174585584551096,colour,0.5
130,20,0,2,16,42,792,1154.574463660596,1155.2392334342003,"[48, 0, 206]",206,a,0.14146787952631712,colour,0.5
130,20,0,2,16,43,793,1155.7464002482593,1156.3672483246773,"[81, 0, 173]",173,l,0.09750404092483222,colour,0.5
130,20,0,2,16,44,794,1156.8869985160418,1157.5031984227244,"[26, 0, 228]",228,a,0.09284129901789129,colour,0.5
130,20,0,2,16,45,795,1158.0119977283757,1158.5832220062148,"[6, 0, 248]",248,a,0.047861731611192226,colour,0.5
130,20,0,2,16,46,796,1159.0900276638567,1160.1192309448961,"[49, 0, 205]",205,a,0.5057005258277059,colour,0.5
130,20,0,2,16,47,797,1160.6369697654154,1161.351239275653,"[23, 0, 231]",231,a,0.19091917341575027,colour,0.5
130,20,0,2,16,48,798,1161.8713829191402,1162.6232540810015,"[20, 0, 234]",234,a,0.22852161270566285,colour,0.5
130,20,0,2,16,49,799,1163.136961100623,1163.9832079852931,"[33, 0, 221]",221,a,0.3228524369187653,colour,0.5
130,20,0,2,16,50,800,1164.496341565391,1165.2952300533652,"[1, 0, 253]",253,a,0.2755633571650833,colour,0.5
