id,age,condition,counterbalance,block,trialinblock,trial,tstart,tend,trialstim,trialintensity,response,RT,trialtype,colourfreq
008,78,0,2,Practice,1,NA,5.907611921429634e-06,6.510054878424853,"[32, 0, 222]",222,a,5.980860284995288,colour,0.5
008,78,0,2,Practice,2,NA,7.026995359687135,8.974076687823981,"[16, 0, 238]",238,a,1.4239940985571593,colour,0.5
008,78,0,2,Practice,3,NA,9.493820168310776,10.88601202168502,"[26, 0, 228]",228,a,0.8690648451447487,colour,0.5
008,78,0,2,Practice,4,NA,11.400221577379853,12.862007919233292,"[50, 0, 204]",204,a,0.9382690326310694,colour,0.5
008,78,0,2,Practice,5,NA,13.375873647863045,14.678087926702574,"[72, 0, 182]",182,a,0.771550641162321,colour,0.5
008,78,0,2,Practice,6,NA,15.194424642715603,20.55000578938052,"[93, 0, 161]",161,l,4.824039233382791,colour,0.5
008,78,0,2,Practice,7,NA,21.06398809631355,22.541980003472418,"[20, 0, 234]",234,a,0.9600408179685473,colour,0.5
008,78,0,2,Practice,8,NA,23.05307108978741,25.00599039159715,"[60, 0, 194]",194,a,1.4338756848592311,colour,0.5
008,78,0,2,Practice,9,NA,25.52321522939019,26.989943152293563,"[33, 0, 221]",221,a,0.9434969394933432,colour,0.5
008,78,0,2,Practice,10,NA,27.507712284568697,28.949979637982324,"[84, 0, 170]",170,l,0.9308765504974872,colour,0.5
008,78,0,2,1,1,1,5.013293864671141,6.183957801666111,"[10, 0, 244]",244,a,0.6470245358068496,colour,0.5
008,78,0,2,1,2,2,6.701428005238995,7.84796850476414,"[59, 0, 195]",195,a,0.6231720638461411,colour,0.5
008,78,0,2,1,3,3,8.368216501548886,9.543987040873617,"[68, 0, 186]",186,a,0.6525895742233843,colour,0.5
008,78,0,2,1,4,4,10.05948644108139,11.039992264704779,"[35, 0, 219]",219,a,0.4485283170361072,colour,0.5
008,78,0,2,1,5,5,11.55893348180689,12.67994451499544,"[76, 0, 178]",178,l,0.6020347638987005,colour,0.5
008,78,0,2,1,6,6,13.20137483626604,14.151962572010234,"[48, 0, 206]",206,a,0.43296550773084164,colour,0.5
008,78,0,2,1,7,7,14.67158041568473,16.10397996730171,"[29, 0, 225]",225,a,0.9112071131821722,colour,0.5
008,78,0,2,1,8,8,16.620784965809435,17.655947501771152,"[66, 0, 188]",188,a,0.5180259195622057,colour,0.5
008,78,0,2,1,9,9,18.16190362907946,19.43996375030838,"[75, 0, 179]",179,a,0.7493700438644737,colour,0.5
008,78,0,2,1,10,10,19.94932861137204,20.919955999590456,"[42, 0, 212]",212,a,0.447328663431108,colour,0.5
008,78,0,2,1,11,11,21.43913667462766,22.351919563952833,"[99, 0, 155]",155,l,0.3897161395289004,colour,0.5
008,78,0,2,1,12,12,22.861148548312485,23.72796965483576,"[72, 0, 182]",182,a,0.3452178870793432,colour,0.5
008,78,0,2,1,13,13,24.2345748397056,25.23991341679357,"[49, 0, 205]",205,a,0.4820000738836825,colour,0.5
008,78,0,2,1,14,14,25.747160963946953,26.83195395465009,"[13, 0, 241]",241,a,0.5717933287378401,colour,0.5
008,78,0,2,1,15,15,27.346365159377456,28.44798362860456,"[1, 0, 253]",253,a,0.5782957198098302,colour,0.5
008,78,0,2,1,16,16,28.974641856504604,30.143999013816938,"[8, 0, 246]",246,a,0.63984354888089,colour,0.5
008,78,0,2,1,17,17,30.66320962109603,31.535942350281402,"[85, 0, 169]",169,l,0.340917486930266,colour,0.5
008,78,0,2,1,18,18,32.051238920073956,32.848053969442844,"[62, 0, 192]",192,a,0.26459926599636674,colour,0.5
008,78,0,2,1,19,19,33.36371051403694,34.05595561512746,"[88, 0, 166]",166,l,0.17450944567099214,colour,0.5
008,78,0,2,1,20,20,34.569276655092835,35.207940636435524,"[26, 0, 228]",228,a,0.12119259615428746,colour,0.5
008,78,0,2,1,21,21,35.72823392529972,36.58392692427151,"[32, 0, 222]",222,a,0.3337691891938448,colour,0.5
008,78,0,2,1,22,22,37.10493858763948,37.76797097828239,"[51, 0, 203]",203,a,0.13786014239303768,colour,0.5
008,78,0,2,1,23,23,38.28010260453448,39.07995735434815,"[90, 0, 164]",164,l,0.28149012266658247,colour,0.5
008,78,0,2,1,24,24,39.60144005692564,40.59190426697023,"[52, 0, 202]",202,a,0.4735331810079515,colour,0.5
008,78,0,2,1,25,25,41.101492832414806,41.68792303930968,"[81, 0, 173]",173,l,0.06823296449147165,colour,0.5
008,78,0,2,1,26,26,42.197839284082875,42.80791637557559,"[19, 0, 235]",235,a,0.0785631409380585,colour,0.5
008,78,0,2,1,27,27,43.32491829665378,44.087925244821236,"[38, 0, 216]",216,a,0.24566119979135692,colour,0.5
008,78,0,2,1,28,28,44.60806099558249,45.343953248811886,"[20, 0, 234]",234,a,0.2122784520033747,colour,0.5
008,78,0,2,1,29,29,45.862338355742395,46.55193011905067,"[36, 0, 218]",218,a,0.1568501959554851,colour,0.5
008,78,0,2,1,30,30,47.06741100852378,47.83991672517732,"[4, 0, 250]",250,a,0.25019790744408965,colour,0.5
008,78,0,2,1,31,31,48.3553271163255,49.05593513511121,"[97, 0, 157]",157,l,0.17658186121843755,colour,0.5
008,78,0,2,1,32,32,49.57526980387047,50.328118292149156,"[50, 0, 204]",204,a,0.22948320349678397,colour,0.5
008,78,0,2,1,33,33,50.84097183751874,51.47990520927124,"[82, 0, 172]",172,l,0.1155992008280009,colour,0.5
008,78,0,2,1,34,34,51.997328938916326,52.66393075231463,"[84, 0, 170]",170,l,0.14326527924276888,colour,0.5
008,78,0,2,1,35,35,53.177302598487586,53.75986996782012,"[25, 0, 229]",229,a,0.05934544443152845,colour,0.5
008,78,0,2,1,36,36,54.28049487480894,54.943914415780455,"[46, 0, 208]",208,a,0.14018658827990294,colour,0.5
008,78,0,2,1,37,37,55.46718005742878,56.111912411870435,"[23, 0, 231]",231,a,0.12197713647037745,colour,0.5
008,78,0,2,1,38,38,56.62355842650868,57.22387287276797,"[67, 0, 187]",187,l,0.07705904450267553,colour,0.5
008,78,0,2,1,39,39,57.73301245411858,58.80791007401422,"[64, 0, 190]",190,a,0.554738238453865,colour,0.5
008,78,0,2,1,40,40,59.31860180082731,60.06391799170524,"[33, 0, 221]",221,a,0.21312128147110343,colour,0.5
008,78,0,2,1,41,41,60.586838230956346,61.30392356868833,"[77, 0, 177]",177,l,0.19249322381801903,colour,0.5
008,78,0,2,1,42,42,61.814650741638616,64.32790364627726,"[71, 0, 183]",183,a,1.99549125530757,colour,0.5
008,78,0,2,1,43,43,64.84364329231903,65.50390734220855,"[74, 0, 180]",180,l,0.14146304200403392,colour,0.5
008,78,0,2,1,44,44,66.0226299748756,66.73589264694601,"[55, 0, 199]",199,a,0.1950666110496968,colour,0.5
008,78,0,2,1,45,45,67.24577423348092,67.93591265450232,"[30, 0, 224]",224,a,0.15897735627368093,colour,0.5
008,78,0,2,1,46,46,68.44547995203175,69.13783139153384,"[86, 0, 168]",168,l,0.17088961065746844,colour,0.5
008,78,0,2,1,47,47,69.6512256867718,70.30385346408002,"[18, 0, 236]",236,a,0.138320941478014,colour,0.5
008,78,0,2,1,48,48,70.81416119146161,71.47993356594816,"[37, 0, 217]",217,a,0.14271113858558238,colour,0.5
008,78,0,2,1,49,49,71.98610197589733,72.60788612812757,"[44, 0, 210]",210,a,0.0984231997281313,colour,0.5
008,78,0,2,1,50,50,73.12683207122609,73.83988324832171,"[7, 0, 247]",247,a,0.19181896024383605,colour,0.5
008,78,0,2,2,1,51,81.6358204158023,84.37586852791719,"[68, 0, 186]",186,a,2.2157368103507906,colour,0.5
008,78,0,2,2,2,52,84.88550553610548,85.69587872060947,"[9, 0, 245]",245,a,0.2916158933658153,colour,0.5
008,78,0,2,2,3,53,86.21748312166892,87.12788639590144,"[64, 0, 190]",190,a,0.3779121928382665,colour,0.5
008,78,0,2,2,4,54,87.64831319847144,92.03182587609626,"[98, 0, 156]",156,l,3.852871095063165,colour,0.5
008,78,0,2,2,5,55,92.5462177824229,93.55987477279268,"[62, 0, 192]",192,a,0.5020917139481753,colour,0.5
008,78,0,2,2,6,56,94.05664326949045,94.71987100760452,"[26, 0, 228]",228,a,0.14019170822575688,colour,0.5
008,78,0,2,2,7,57,95.22859547566622,96.09586674766615,"[70, 0, 184]",184,a,0.3439000796061009,colour,0.5
008,78,0,2,2,8,58,96.60970333172008,97.17588475439698,"[91, 0, 163]",163,l,0.04288269788958132,colour,0.5
008,78,0,2,2,9,59,97.6878088240046,100.2958095613867,"[39, 0, 215]",215,a,2.084548018872738,colour,0.5
008,78,0,2,2,10,60,100.80785966175608,101.52780392463319,"[12, 0, 242]",242,a,0.19661836279556155,colour,0.5
008,78,0,2,2,11,61,102.04234903701581,102.72783338441513,"[55, 0, 199]",199,a,0.1621828656643629,colour,0.5
008,78,0,2,2,12,62,103.24559345841408,103.84783617267385,"[72, 0, 182]",182,l,0.08940374129451811,colour,0.5
008,78,0,2,2,13,63,104.35997252515517,105.11986809317023,"[42, 0, 212]",212,a,0.23639204329811037,colour,0.5
008,78,0,2,2,14,64,105.63710829103366,107.71183655713685,"[25, 0, 229]",229,a,1.5514645937364548,colour,0.5
008,78,0,2,2,15,65,108.2207295910921,109.26379621471278,"[44, 0, 210]",210,a,0.5302437981590629,colour,0.5
008,78,0,2,2,16,66,109.77255376568064,110.42383695417084,"[47, 0, 207]",207,a,0.1227545877918601,colour,0.5
008,78,0,2,2,17,67,110.93224870879203,111.54381059808657,"[15, 0, 239]",239,a,0.08073283638805151,colour,0.5
008,78,0,2,2,18,68,112.05626557162032,112.60782586969435,"[40, 0, 214]",214,a,0.02220816630870104,colour,0.5
008,78,0,2,2,19,69,113.11801504949108,114.9198862889316,"[11, 0, 243]",243,a,1.270504193380475,colour,0.5
008,78,0,2,2,20,70,115.43013493926264,116.55986020038836,"[7, 0, 247]",247,a,0.6125362631864846,colour,0.5
008,78,0,2,2,21,71,117.07497678278014,117.86386096291244,"[56, 0, 198]",198,a,0.25643839105032384,colour,0.5
008,78,0,2,2,22,72,118.37757506105117,118.91993039962836,"[2, 0, 252]",252,a,0.018385500879958272,colour,0.5
008,78,0,2,2,23,73,119.43570982385427,121.13581332657486,"[27, 0, 227]",227,a,1.1833441904745996,colour,0.5
008,78,0,2,2,24,74,121.65550993941724,122.42384561873041,"[94, 0, 160]",160,l,0.2512313583865762,colour,0.5
008,78,0,2,2,25,75,122.93745495378971,123.87180758593604,"[77, 0, 177]",177,l,0.4021207010373473,colour,0.5
008,78,0,2,2,26,76,124.39306461508386,124.98376962239854,"[41, 0, 213]",213,a,0.07310798554681242,colour,0.5
008,78,0,2,2,27,77,125.49496468389407,127.17583197914064,"[30, 0, 224]",224,a,1.151316665345803,colour,0.5
008,78,0,2,2,28,78,127.69080441375263,128.4718168019317,"[60, 0, 194]",194,a,0.2633881908841431,colour,0.5
008,78,0,2,2,29,79,128.98118363204412,129.51180630968884,"[19, 0, 235]",235,a,0.0031696693040430546,colour,0.5
008,78,0,2,2,30,80,130.04137820750475,130.84782711439766,"[88, 0, 166]",166,l,0.28879202040843666,colour,0.5
008,78,0,2,2,31,81,131.37133339582942,132.07983920071274,"[93, 0, 161]",161,l,0.18853704491630197,colour,0.5
008,78,0,2,2,32,82,132.59423543931916,133.18385579576716,"[45, 0, 209]",209,a,0.07241481705568731,colour,0.5
008,78,0,2,2,33,83,133.7049631634727,134.59179280884564,"[23, 0, 231]",231,a,0.36853630444966257,colour,0.5
008,78,0,2,2,34,84,135.1011001681909,135.74381209467538,"[54, 0, 200]",200,a,0.12464780360460281,colour,0.5
008,78,0,2,2,35,85,136.26091523421928,136.80782618490048,"[43, 0, 211]",211,a,0.029056353960186243,colour,0.5
008,78,0,2,2,36,86,137.3280651231762,138.04780261707492,"[78, 0, 176]",176,l,0.18734329869039357,colour,0.5
008,78,0,2,2,37,87,138.56538112834096,139.18379986961372,"[76, 0, 178]",178,l,0.10279961209744215,colour,0.5
008,78,0,2,2,38,88,139.70600803592242,140.2878247355111,"[33, 0, 221]",221,a,0.0634481341112405,colour,0.5
008,78,0,2,2,39,89,140.79281594092026,141.76783588924445,"[69, 0, 185]",185,a,0.4516719928942621,colour,0.5
008,78,0,2,2,40,90,142.28479527495801,142.83975249156356,"[1, 0, 253]",253,a,0.031726626912131906,colour,0.5
008,78,0,2,2,41,91,143.34726312733255,144.21577540715225,"[79, 0, 175]",175,l,0.35498013836331666,colour,0.5
008,78,0,2,2,42,92,144.73713798681274,145.31180599471554,"[46, 0, 208]",208,a,0.05146774440072477,colour,0.5
008,78,0,2,2,43,93,145.820732899243,146.8078990462236,"[71, 0, 183]",183,a,0.4638197666499764,colour,0.5
008,78,0,2,2,44,94,147.32088571134955,147.871767019853,"[65, 0, 189]",189,a,0.03249620134010911,colour,0.5
008,78,0,2,2,45,95,148.3785766104702,150.11177574726753,"[48, 0, 206]",206,a,1.209889778168872,colour,0.5
008,78,0,2,2,46,96,150.6187361809425,151.3917432629969,"[86, 0, 168]",168,l,0.24970756960101426,colour,0.5
008,78,0,2,2,47,97,151.90000023622997,153.4398069998715,"[52, 0, 202]",202,a,1.0163044205401093,colour,0.5
008,78,0,2,2,48,98,153.9555025352165,154.5198183110915,"[49, 0, 205]",205,a,0.0462268409319222,colour,0.5
008,78,0,2,2,49,99,155.02834546240047,155.88779732375406,"[67, 0, 187]",187,a,0.33615510584786534,colour,0.5
008,78,0,2,2,50,100,156.40342196682468,157.0797419208102,"[89, 0, 165]",165,l,0.16148694045841694,colour,0.5
008,78,0,2,3,1,101,162.4910884553101,163.73580206255428,"[92, 0, 162]",162,l,0.7171515037771314,colour,0.5
008,78,0,2,3,2,102,164.2496886649169,180.9117581031751,"[95, 0, 159]",159,a,16.143311359453946,colour,0.5
008,78,0,2,3,3,103,181.423487219261,183.58372960751876,"[80, 0, 174]",174,l,1.6287764869630337,colour,0.5
008,78,0,2,3,4,104,184.10500947968103,184.72771995677613,"[4, 0, 250]",250,a,0.10527099343016744,colour,0.5
008,78,0,2,3,5,105,185.24971072026528,187.28773415088654,"[27, 0, 227]",227,a,1.5203433071728796,colour,0.5
008,78,0,2,3,6,106,187.8048246873077,188.5997646378819,"[72, 0, 182]",182,a,0.2775240975897759,colour,0.5
008,78,0,2,3,7,107,189.11332159140147,191.28774636029266,"[67, 0, 187]",187,a,1.6521370457485318,colour,0.5
008,78,0,2,3,8,108,191.79635346215218,192.45573254092596,"[54, 0, 200]",200,a,0.13595944340340793,colour,0.5
008,78,0,2,3,9,109,192.95791641483083,194.64768225792795,"[59, 0, 195]",195,a,1.1664367921184748,colour,0.5
008,78,0,2,3,10,110,195.168220912572,196.1996809062548,"[91, 0, 163]",163,a,0.5080064875073731,colour,0.5
008,78,0,2,3,11,111,196.71973906923085,197.25571410893463,"[69, 0, 185]",185,a,0.012616844149306417,colour,0.5
008,78,0,2,3,12,112,197.76654486334883,198.41570364846848,"[99, 0, 155]",155,l,0.1256958267185837,colour,0.5
008,78,0,2,3,13,113,198.9229165369179,199.47972088935785,"[48, 0, 206]",206,a,0.03349381219595671,colour,0.5
008,78,0,2,3,14,114,199.99688704428263,200.7997574696783,"[88, 0, 166]",166,l,0.27512282063253224,colour,0.5
008,78,0,2,3,15,115,201.30846894090064,202.9837014870718,"[26, 0, 228]",228,a,1.145790617680177,colour,0.5
008,78,0,2,3,16,116,203.5019652894698,204.70370285748504,"[55, 0, 199]",199,a,0.6701483931392431,colour,0.5
008,78,0,2,3,17,117,205.22665499825962,205.9436757452786,"[12, 0, 242]",242,a,0.19951982353813946,colour,0.5
008,78,0,2,3,18,118,206.46370830829255,207.46368822222576,"[94, 0, 160]",160,l,0.4734650456812233,colour,0.5
008,78,0,2,3,19,119,207.97993789822794,208.5756731017027,"[22, 0, 232]",232,a,0.06508810725063086,colour,0.5
008,78,0,2,3,20,120,209.0865928651765,210.63972893962637,"[45, 0, 209]",209,a,1.0387634665239602,colour,0.5
008,78,0,2,3,21,121,211.15912426053546,211.85568512184545,"[74, 0, 180]",180,a,0.17320621036924422,colour,0.5
008,78,0,2,3,22,122,212.36233993130736,212.97568633500487,"[79, 0, 175]",175,a,0.09009848511777818,colour,0.5
008,78,0,2,3,23,123,213.48727169749327,215.1597166042775,"[19, 0, 235]",235,a,1.1489500468596816,colour,0.5
008,78,0,2,3,24,124,215.66732333856635,216.45570930396207,"[36, 0, 218]",218,a,0.27123871515505016,colour,0.5
008,78,0,2,3,25,125,216.97414915566333,218.51972772646695,"[86, 0, 168]",168,l,1.0222459754440933,colour,0.5
008,78,0,2,3,26,126,219.0284604653716,219.83969223313034,"[33, 0, 221]",221,a,0.28778101853094995,colour,0.5
008,78,0,2,3,27,127,220.36387080908753,221.25568535830826,"[29, 0, 225]",225,a,0.36181729822419584,colour,0.5
008,78,0,2,3,28,128,221.76751648029312,222.62369115254842,"[71, 0, 183]",183,a,0.3242050423286855,colour,0.5
008,78,0,2,3,29,129,223.14738490455784,223.75969194970094,"[83, 0, 171]",171,l,0.09535120404325426,colour,0.5
008,78,0,2,3,30,130,224.27490344876423,225.75168624985963,"[49, 0, 205]",205,a,0.9601975686382502,colour,0.5
008,78,0,2,3,31,131,226.26990239717998,226.84764082543552,"[5, 0, 249]",249,a,0.05993700050748885,colour,0.5
008,78,0,2,3,32,132,227.36737130885012,228.34386896598153,"[73, 0, 181]",181,a,0.459353951504454,colour,0.5
008,78,0,2,3,33,133,228.8530471441336,230.80763989593834,"[34, 0, 220]",220,a,1.4296745338942856,colour,0.5
008,78,0,2,3,34,134,231.3170319320634,232.11167374136858,"[53, 0, 201]",201,a,0.27891437243670225,colour,0.5
008,78,0,2,3,35,135,232.6219755609054,234.27966228523292,"[39, 0, 215]",215,a,1.1344277777243406,colour,0.5
008,78,0,2,3,36,136,234.79340001405217,235.9356944640167,"[76, 0, 178]",178,a,0.6192946541123092,colour,0.5
008,78,0,2,3,37,137,236.45086539699696,237.06364348134957,"[93, 0, 161]",161,l,0.08937656600028276,colour,0.5
008,78,0,2,3,38,138,237.57592279999517,238.12763591017574,"[23, 0, 231]",231,a,0.027688134228810668,colour,0.5
008,78,0,2,3,39,139,238.63917164807208,239.17568428697996,"[2, 0, 252]",252,a,0.013232818571850657,colour,0.5
008,78,0,2,3,40,140,239.68615546030924,240.4396581260953,"[25, 0, 229]",229,a,0.23285727901384234,colour,0.5
008,78,0,2,3,41,141,240.95194295840338,241.83980566076934,"[24, 0, 230]",230,a,0.37076743971556425,colour,0.5
008,78,0,2,3,42,142,242.3580934877973,243.2796709497925,"[7, 0, 247]",247,a,0.39861665666103363,colour,0.5
008,78,0,2,3,43,143,243.78888890636154,244.60768605466,"[66, 0, 188]",188,a,0.28818471054546535,colour,0.5
008,78,0,2,3,44,144,245.11720412154682,246.71168689569458,"[32, 0, 222]",222,a,1.0764324360061437,colour,0.5
008,78,0,2,3,45,145,247.2235959994141,248.3516296937596,"[14, 0, 240]",240,a,0.6104228878393769,colour,0.5
008,78,0,2,3,46,146,248.86164597515017,249.53563003079034,"[21, 0, 233]",233,a,0.14156741090118885,colour,0.5
008,78,0,2,3,47,147,250.04344707843848,250.8876496318262,"[0, 0, 254]",254,a,0.326635857578367,colour,0.5
008,78,0,2,3,48,148,251.40478664194234,252.20763343689032,"[11, 0, 243]",243,a,0.2794649687130004,colour,0.5
008,78,0,2,3,49,149,252.71730746654794,253.54365463508293,"[68, 0, 186]",186,a,0.30292713921517134,colour,0.5
008,78,0,2,3,50,150,254.0612189678941,254.84761522547342,"[90, 0, 164]",164,l,0.2748069567605853,colour,0.5
008,78,0,2,4,1,151,259.4536656392738,261.575604966376,"[30, 0, 224]",224,a,1.5976808005943894,colour,0.5
008,78,0,2,4,2,152,262.0966367160436,262.89564390992746,"[69, 0, 185]",185,a,0.27637091744691133,colour,0.5
008,78,0,2,4,3,153,263.4090523838531,264.91167303244583,"[41, 0, 213]",213,a,0.9793030193541199,colour,0.5
008,78,0,2,4,4,154,265.42374597582966,266.22359993774444,"[76, 0, 178]",178,a,0.2856239262036979,colour,0.5
008,78,0,2,4,5,155,266.74317879090086,267.2876400218811,"[20, 0, 234]",234,a,0.025148223852738738,colour,0.5
008,78,0,2,4,6,156,267.8011272647418,268.3276838804595,"[46, 0, 208]",208,a,0.0031385556794703007,colour,0.5
008,78,0,2,4,7,157,268.8482914583292,270.4075979120098,"[35, 0, 219]",219,a,1.0361774764023721,colour,0.5
008,78,0,2,4,8,158,270.92525676754303,271.6235899340827,"[42, 0, 212]",212,a,0.17135277297347784,colour,0.5
008,78,0,2,4,9,159,272.13209227332845,272.6563555258326,"[21, 0, 233]",233,a,0.0011445153504610062,colour,0.5
008,78,0,2,4,10,160,273.1790906577371,273.7435876026284,"[43, 0, 211]",211,a,0.04125335859134793,colour,0.5
008,78,0,2,4,11,161,274.25721820537,275.5996567241382,"[45, 0, 209]",209,a,0.8191074987407774,colour,0.5
008,78,0,2,4,12,162,276.1212520666886,276.89563170075417,"[12, 0, 242]",242,a,0.2509111617691815,colour,0.5
008,78,0,2,4,13,163,277.402586620301,278.103593604872,"[56, 0, 198]",198,a,0.17748928163200617,colour,0.5
008,78,0,2,4,14,164,278.6213946386706,279.3996056029573,"[3, 0, 251]",251,a,0.2548255934379995,colour,0.5
008,78,0,2,4,15,165,279.91836604475975,280.93562908563763,"[90, 0, 164]",164,l,0.5060719179455191,colour,0.5
008,78,0,2,4,16,166,281.4557671993971,282.07155741518363,"[77, 0, 177]",177,l,0.09242138639092445,colour,0.5
008,78,0,2,4,17,167,282.58088328526355,284.03960275137797,"[48, 0, 206]",206,a,0.9354376764968038,colour,0.5
008,78,0,2,4,18,168,284.54975254670717,285.6555985547602,"[96, 0, 158]",158,l,0.5808978579007089,colour,0.5
008,78,0,2,4,19,169,286.17622740007937,287.4395825078245,"[11, 0, 243]",243,a,0.7400288137141615,colour,0.5
008,78,0,2,4,20,170,287.95696960994974,288.81555934343487,"[58, 0, 196]",196,a,0.3352882517501712,colour,0.5
008,78,0,2,4,21,171,289.3259186644573,289.8715760046616,"[31, 0, 223]",223,a,0.022242824779823422,colour,0.5
008,78,0,2,4,22,172,290.3901954498142,291.5676016297657,"[98, 0, 156]",156,l,0.6465424688067287,colour,0.5
008,78,0,2,4,23,173,292.0772106749937,292.6795888724737,"[73, 0, 181]",181,a,0.07907356484793127,colour,0.5
008,78,0,2,4,24,174,293.18669502879493,295.0796217978932,"[79, 0, 175]",175,a,1.3697339887730777,colour,0.5
008,78,0,2,4,25,175,295.5851762024686,296.3676103730686,"[66, 0, 188]",188,a,0.2598522447515279,colour,0.5
008,78,0,2,4,26,176,296.87489691074006,297.7755387215875,"[81, 0, 173]",173,a,0.3773958613164723,colour,0.5
008,78,0,2,4,27,177,298.29682292602956,298.8395626579877,"[24, 0, 230]",230,a,0.019467000849545002,colour,0.5
008,78,0,2,4,28,178,299.35943728894927,300.85558390361257,"[27, 0, 227]",227,a,0.9728376497514546,colour,0.5
008,78,0,2,4,29,179,301.37122902669944,302.4155634394847,"[28, 0, 226]",226,a,0.5261478039901704,colour,0.5
008,78,0,2,4,30,180,302.937476221472,303.71156834834255,"[72, 0, 182]",182,a,0.25687083369120955,colour,0.5
008,78,0,2,4,31,181,304.22257160698064,304.93553495639935,"[40, 0, 214]",214,a,0.1946763100568205,colour,0.5
008,78,0,2,4,32,182,305.4449474727735,306.1835359930992,"[65, 0, 189]",189,a,0.21027850406244397,colour,0.5
008,78,0,2,4,33,183,306.6931793028489,307.4235230591148,"[49, 0, 205]",205,a,0.20990316895768046,colour,0.5
008,78,0,2,4,34,184,307.93282411713153,308.783579867566,"[44, 0, 210]",210,a,0.31888773292303085,colour,0.5
008,78,0,2,4,35,185,309.2935953612905,310.79155405960046,"[85, 0, 169]",169,l,0.9793806069064885,colour,0.5
008,78,0,2,4,36,186,311.3098304651212,313.21555288438685,"[23, 0, 231]",231,a,1.3786675888113678,colour,0.5
008,78,0,2,4,37,187,313.7345772027038,314.4235624438152,"[6, 0, 248]",248,a,0.1567395254969597,colour,0.5
008,78,0,2,4,38,188,314.9376459689811,315.9115737832617,"[10, 0, 244]",244,a,0.444090464618057,colour,0.5
008,78,0,2,4,39,189,316.4238298649434,317.1835671069566,"[71, 0, 183]",183,a,0.24196771578863263,colour,0.5
008,78,0,2,4,40,190,317.7068500779569,318.42355456692167,"[52, 0, 202]",202,a,0.19909210712648928,colour,0.5
008,78,0,2,4,41,191,318.9448108084034,319.72758368612267,"[59, 0, 195]",195,a,0.25069494056515396,colour,0.5
008,78,0,2,4,42,192,320.24479316407815,320.991526017664,"[61, 0, 193]",193,a,0.23143628402613103,colour,0.5
008,78,0,2,4,43,193,321.5107232343871,322.5994956411887,"[88, 0, 166]",166,l,0.5631543251220137,colour,0.5
008,78,0,2,4,44,194,323.1120790084824,324.12754571950063,"[50, 0, 204]",204,a,0.48333954298868775,colour,0.5
008,78,0,2,4,45,195,324.649035905255,325.3915597309824,"[87, 0, 167]",167,l,0.21322565083391964,colour,0.5
008,78,0,2,4,46,196,325.9136717990041,327.6155507576186,"[39, 0, 215]",215,a,1.1829164740629494,colour,0.5
008,78,0,2,4,47,197,328.12872765026987,329.1196010657586,"[60, 0, 194]",194,a,0.47308734781108797,colour,0.5
008,78,0,2,4,48,198,329.6305007431656,330.4555604304187,"[0, 0, 254]",254,a,0.3064961682539433,colour,0.5
008,78,0,2,4,49,199,330.96490520518273,331.71151281613857,"[63, 0, 191]",191,a,0.2292248411104083,colour,0.5
008,78,0,2,4,50,200,332.2206531849224,332.99151420244016,"[55, 0, 199]",199,a,0.24740475439466536,colour,0.5
008,78,0,2,5,1,201,338.95917632686906,339.527528232662,"[60, 0, 194]",194,a,0.044189477572217584,colour,0.5
008,78,0,2,5,2,202,340.03612942714244,340.6075434824452,"[28, 0, 226]",226,a,0.04807397676631808,colour,0.5
008,78,0,2,5,3,203,341.1152561609633,342.5915521690622,"[48, 0, 206]",206,a,0.9589668011758476,colour,0.5
008,78,0,2,5,4,204,343.1064836438745,343.87147833104245,"[65, 0, 189]",189,a,0.24245253973640501,colour,0.5
008,78,0,2,5,5,205,344.3877831452992,345.48777975840494,"[18, 0, 236]",236,a,0.5765616176649928,colour,0.5
008,78,0,2,5,6,206,345.9847487225197,346.75152595480904,"[71, 0, 183]",183,a,0.24318312341347337,colour,0.5
008,78,0,2,5,7,207,347.2662624758668,348.19151884969324,"[47, 0, 207]",207,a,0.40184619068168104,colour,0.5
008,78,0,2,5,8,208,348.7038623651024,349.7674912742805,"[51, 0, 203]",203,a,0.5402778028510511,colour,0.5
008,78,0,2,5,9,209,350.2820446572732,351.3035246031359,"[24, 0, 230]",230,a,0.49316205247305334,colour,0.5
008,78,0,2,5,10,210,351.85131776798517,352.7115364468191,"[15, 0, 239]",239,a,0.3415716646704823,colour,0.5
008,78,0,2,5,11,211,353.2267885119654,354.70370600838214,"[79, 0, 175]",175,l,0.9448647652752697,colour,0.5
008,78,0,2,5,12,212,355.2120429321658,356.0954756590072,"[97, 0, 157]",157,l,0.3655296869110316,colour,0.5
008,78,0,2,5,13,213,356.6194848814048,357.183533630101,"[4, 0, 250]",250,a,0.03695256449282169,colour,0.5
008,78,0,2,5,14,214,357.6947527159937,358.41549727343954,"[7, 0, 247]",247,a,0.1992224701680243,colour,0.5
008,78,0,2,5,15,215,358.9362222170457,359.71951615274884,"[11, 0, 243]",243,a,0.26641056197695434,colour,0.5
008,78,0,2,5,16,216,360.23910603346303,361.04750447603874,"[6, 0, 248]",248,a,0.29919190774671733,colour,0.5
008,78,0,2,5,17,217,361.5592977888882,362.5035217674449,"[0, 0, 254]",254,a,0.4163007184397429,colour,0.5
008,78,0,2,5,18,218,363.0224598336499,363.8794714275282,"[1, 0, 253]",253,a,0.3264267253689468,colour,0.5
008,78,0,2,5,19,219,364.39542453782633,365.31946786725894,"[84, 0, 170]",170,l,0.3924005914013833,colour,0.5
008,78,0,2,5,20,220,365.83931847382337,366.6075545102358,"[88, 0, 166]",166,l,0.2511644046753645,colour,0.5
008,78,0,2,5,21,221,367.1226998430211,367.663594014477,"[52, 0, 202]",202,a,0.021848979173228145,colour,0.5
008,78,0,2,5,22,222,368.17471070052125,368.95950676337816,"[73, 0, 181]",181,a,0.2669914842117578,colour,0.5
008,78,0,2,5,23,223,369.4740944111254,370.0075129987672,"[45, 0, 209]",209,a,0.015917270444333553,colour,0.5
008,78,0,2,5,24,224,370.5222251014784,371.055492058862,"[59, 0, 195]",195,a,0.017548972740769386,colour,0.5
008,78,0,2,5,25,225,371.5704948196653,372.39949020626955,"[74, 0, 180]",180,a,0.29760864842683077,colour,0.5
008,78,0,2,5,26,226,372.90863136271946,374.71948306960985,"[31, 0, 223]",223,a,1.2926658857613802,colour,0.5
008,78,0,2,5,27,227,375.23206998151727,376.14346968522295,"[64, 0, 190]",190,a,0.39413154288195074,colour,0.5
008,78,0,2,5,28,228,376.6529026813805,377.4715411099605,"[92, 0, 162]",162,l,0.2946370830759406,colour,0.5
008,78,0,2,5,29,229,377.9854753676336,378.6394634877797,"[38, 0, 216]",216,a,0.1358058436308056,colour,0.5
008,78,0,2,5,30,230,379.1634108761791,379.7194755866658,"[37, 0, 217]",217,a,0.03812504280358553,colour,0.5
008,78,0,2,5,31,231,380.230921133887,381.1114201047458,"[99, 0, 155]",155,l,0.3494879612699151,colour,0.5
008,78,0,2,5,32,232,381.62907935422845,382.1994650787674,"[22, 0, 232]",232,a,0.039818185148760676,colour,0.5
008,78,0,2,5,33,233,382.7223317550961,384.71947401133366,"[40, 0, 214]",214,a,1.465319924755022,colour,0.5
008,78,0,2,5,34,234,385.2322302768007,386.7754953985568,"[78, 0, 176]",176,a,1.0229099991265684,colour,0.5
008,78,0,2,5,35,235,387.29377377335913,387.9995281728916,"[63, 0, 191]",191,a,0.17989095207303762,colour,0.5
008,78,0,2,5,36,236,388.51021320419386,389.28743246523663,"[41, 0, 213]",213,a,0.2594989654608071,colour,0.5
008,78,0,2,5,37,237,389.8008830805775,390.5914355907589,"[44, 0, 210]",210,a,0.25815161946229637,colour,0.5
008,78,0,2,5,38,238,391.1054761868436,391.7834723475389,"[35, 0, 219]",219,a,0.15011149761267006,colour,0.5
008,78,0,2,5,39,239,392.30331862182356,393.0714491074905,"[30, 0, 224]",224,a,0.2359568439424038,colour,0.5
008,78,0,2,5,40,240,393.5844924864359,394.36740045342594,"[62, 0, 192]",192,a,0.25802558893337846,colour,0.5
008,78,0,2,5,41,241,394.88980317953974,395.68740316317417,"[85, 0, 169]",169,l,0.28084421600215137,colour,0.5
008,78,0,2,5,42,242,396.20012673945166,396.7834546244703,"[49, 0, 205]",205,a,0.05154651356860995,colour,0.5
008,78,0,2,5,43,243,397.29557207250036,398.06344498321414,"[42, 0, 212]",212,a,0.2497284433338791,colour,0.5
008,78,0,2,5,44,244,398.5791235831566,399.57540686219,"[54, 0, 200]",200,a,0.463479878148064,colour,0.5
008,78,0,2,5,45,245,400.09586871694773,401.0794370842632,"[83, 0, 171]",171,l,0.46550542605109513,colour,0.5
008,78,0,2,5,46,246,401.5915202675387,402.50343787833117,"[70, 0, 184]",184,a,0.38989258254878223,colour,0.5
008,78,0,2,5,47,247,403.0117019407917,403.59143480309285,"[57, 0, 197]",197,a,0.05643807607702911,colour,0.5
008,78,0,2,5,48,248,404.1055884328671,404.8394244182855,"[86, 0, 168]",168,l,0.21070070657879114,colour,0.5
008,78,0,2,5,49,249,405.356992689427,405.9434898500331,"[33, 0, 221]",221,a,0.06318031903356314,colour,0.5
008,78,0,2,5,50,250,406.44433740596287,407.5594131858088,"[89, 0, 165]",165,l,0.5918365258257836,colour,0.5
008,78,0,2,6,1,251,413.41769296256825,415.2713962534908,"[3, 0, 251]",251,a,1.3279398803133518,colour,0.5
008,78,0,2,6,2,252,415.7945031754207,416.4154102334287,"[4, 0, 250]",250,a,0.08919382165186107,colour,0.5
008,78,0,2,6,3,253,416.9377972057555,417.7194007560611,"[63, 0, 191]",191,a,0.24981863424181938,colour,0.5
008,78,0,2,6,4,254,418.2287545891013,418.9033632839564,"[5, 0, 249]",249,a,0.15726885409094393,colour,0.5
008,78,0,2,6,5,255,419.41921950830147,420.18343319930136,"[49, 0, 205]",205,a,0.2379953886847943,colour,0.5
008,78,0,2,6,6,256,420.6949740573764,421.78341012005694,"[80, 0, 174]",174,l,0.5715550521854311,colour,0.5
008,78,0,2,6,7,257,422.2958997520618,422.89541154098697,"[21, 0, 233]",233,a,0.09478721697814763,colour,0.5
008,78,0,2,6,8,258,423.403180539608,424.04739577462897,"[94, 0, 160]",160,l,0.1208743688184768,colour,0.5
008,78,0,2,6,9,259,424.547011381248,425.2073475047946,"[91, 0, 163]",163,l,0.13707599556073546,colour,0.5
008,78,0,2,6,10,260,425.711886969395,426.2713706535287,"[74, 0, 180]",180,a,0.034731275169178843,colour,0.5
008,78,0,2,6,11,261,426.7957875060383,427.3434081664309,"[59, 0, 195]",195,a,0.024297910975292325,colour,0.5
008,78,0,2,6,12,262,427.8583593335934,428.5434675584547,"[7, 0, 247]",247,a,0.16177917388267815,colour,0.5
008,78,0,2,6,13,263,429.061600998044,429.88736409367993,"[95, 0, 159]",159,l,0.3025151768233627,colour,0.5
008,78,0,2,6,14,264,430.40546563174576,432.13541160407476,"[64, 0, 190]",190,a,1.2067126259207726,colour,0.5
008,78,0,2,6,15,265,432.6575992903672,433.7673683944158,"[56, 0, 198]",198,a,0.5921862605027854,colour,0.5
008,78,0,2,6,16,266,434.28103995718993,435.31938791647553,"[19, 0, 235]",235,a,0.5151425758376718,colour,0.5
008,78,0,2,6,17,267,435.82895718328655,436.9114237281028,"[38, 0, 216]",216,a,0.5495729530230165,colour,0.5
008,78,0,2,6,18,268,437.4224076883402,438.25535137718543,"[73, 0, 181]",181,a,0.31539589748717844,colour,0.5
008,78,0,2,6,19,269,438.7683864852879,439.5193898070138,"[41, 0, 213]",213,a,0.23350042896345258,colour,0.5
008,78,0,2,6,20,270,440.0364504111931,440.75941822701134,"[28, 0, 226]",226,a,0.2043306475970894,colour,0.5
008,78,0,2,6,21,271,441.2787209942471,442.9113685898483,"[8, 0, 246]",246,a,1.1217758813872933,colour,0.5
008,78,0,2,6,22,272,443.4187650103122,444.54338682000525,"[0, 0, 254]",254,a,0.601439269259572,colour,0.5
008,78,0,2,6,23,273,445.06088813743554,446.1193612138741,"[82, 0, 172]",172,l,0.5350585610140115,colour,0.5
008,78,0,2,6,24,274,446.62677023746073,447.23936990997754,"[66, 0, 188]",188,a,0.09240248193964362,colour,0.5
008,78,0,2,6,25,275,447.74869341705926,448.4394029141404,"[27, 0, 227]",227,a,0.16749111679382622,colour,0.5
008,78,0,2,6,26,276,448.9519244476687,449.8713345772121,"[75, 0, 179]",179,a,0.39602475869469345,colour,0.5
008,78,0,2,6,27,277,450.3894991306588,451.1433633468114,"[46, 0, 208]",208,a,0.23048632824793458,colour,0.5
008,78,0,2,6,28,278,451.6553937548306,452.54568569688126,"[50, 0, 204]",204,a,0.3620768424589187,colour,0.5
008,78,0,2,6,29,279,453.0468077631667,454.63938038633205,"[85, 0, 169]",169,a,1.0693290368653834,colour,0.5
008,78,0,2,6,30,280,455.14829311240464,456.7273469849024,"[84, 0, 170]",170,a,1.0560166612267494,colour,0.5
008,78,0,2,6,31,281,457.23604979156516,457.9993080131244,"[93, 0, 161]",161,l,0.23987127537839115,colour,0.5
008,78,0,2,6,32,282,458.51741388370283,459.07938233972527,"[24, 0, 230]",230,a,0.03857520828023553,colour,0.5
008,78,0,2,6,33,283,459.5956587973051,460.3673685519025,"[89, 0, 165]",165,l,0.24742956645786762,colour,0.5
008,78,0,2,6,34,284,460.8686765132006,462.4473436293192,"[61, 0, 193]",193,a,1.0552344836760312,colour,0.5
008,78,0,2,6,35,285,462.96971878618933,463.95935198199004,"[32, 0, 222]",222,a,0.45767183671705425,colour,0.5
008,78,0,2,6,36,286,464.4817610096652,465.67931278655306,"[25, 0, 229]",229,a,0.680708575528115,colour,0.5
008,78,0,2,6,37,287,466.19713705731556,467.20737034780905,"[18, 0, 236]",236,a,0.47886112448759377,colour,0.5
008,78,0,2,6,38,288,467.7259551344905,468.5192941024434,"[36, 0, 218]",218,a,0.2723237599711865,colour,0.5
008,78,0,2,6,39,289,469.02892244630493,469.83937282441184,"[45, 0, 209]",209,a,0.2898664311505854,colour,0.5
008,78,0,2,6,40,290,470.36328555457294,471.1833355256822,"[62, 0, 192]",192,a,0.29153476119972765,colour,0.5
008,78,0,2,6,41,291,471.696120148059,472.94336618250236,"[90, 0, 164]",164,l,0.7215743898414075,colour,0.5
008,78,0,2,6,42,292,473.4543930720538,474.0313666521106,"[2, 0, 252]",252,a,0.05357481841929257,colour,0.5
008,78,0,2,6,43,293,474.5507544898428,475.27936650719494,"[15, 0, 239]",239,a,0.21548553695902228,colour,0.5
008,78,0,2,6,44,294,475.79307627282105,476.46331406896934,"[23, 0, 231]",231,a,0.14500174485147,colour,0.5
008,78,0,2,6,45,295,476.97405069414526,477.58332434040494,"[99, 0, 155]",155,l,0.08598949364386499,colour,0.5
008,78,0,2,6,46,296,478.09907619562,478.64733173535205,"[44, 0, 210]",210,a,0.024955239612609148,colour,0.5
008,78,0,2,6,47,297,479.1617362445686,479.73530227248557,"[52, 0, 202]",202,a,0.050334256840869784,colour,0.5
008,78,0,2,6,48,298,480.2371431067586,481.03929949039593,"[77, 0, 177]",177,a,0.28515918855555356,colour,0.5
008,78,0,2,6,49,299,481.5592115367763,482.2393348577898,"[79, 0, 175]",175,a,0.15772098884917796,colour,0.5
008,78,0,2,6,50,300,482.7544608921744,483.439396612579,"[29, 0, 225]",225,a,0.15463757142424583,colour,0.5
008,78,0,2,7,1,301,487.50199600937776,488.2473165327683,"[32, 0, 222]",222,a,0.2212163843214512,colour,0.5
008,78,0,2,7,2,302,488.7686129466165,489.3352847069036,"[7, 0, 247]",247,a,0.04129668138921261,colour,0.5
008,78,0,2,7,3,303,489.8487900667824,490.60728827049024,"[65, 0, 189]",189,a,0.23507935600355268,colour,0.5
008,78,0,2,7,4,304,491.11454290663823,491.70335115352646,"[66, 0, 188]",188,a,0.06570250634104013,colour,0.5
008,78,0,2,7,5,305,492.21125012100674,492.90465115895495,"[19, 0, 235]",235,a,0.1755149334203452,colour,0.5
008,78,0,2,7,6,306,493.42710075271316,494.01533674192615,"[50, 0, 204]",204,a,0.07133922469802201,colour,0.5
008,78,0,2,7,7,307,494.5382554056123,495.07932877680287,"[11, 0, 243]",243,a,0.022165631176903844,colour,0.5
008,78,0,2,7,8,308,495.59080622554757,497.22328722453676,"[76, 0, 178]",178,l,1.1086446749977767,colour,0.5
008,78,0,2,7,9,309,497.7469923978206,498.4872929651756,"[94, 0, 160]",160,l,0.22346721193753183,colour,0.5
008,78,0,2,7,10,310,498.9979051351547,499.68735432624817,"[86, 0, 168]",168,l,0.1726611282210797,colour,0.5
008,78,0,2,7,11,311,500.20197820756584,500.743316242937,"[22, 0, 232]",232,a,0.024023794569075108,colour,0.5
008,78,0,2,7,12,312,501.2574092205614,503.0072892943863,"[54, 0, 200]",200,a,1.231001872336492,colour,0.5
008,78,0,2,7,13,313,503.52227315073833,504.5752666532062,"[40, 0, 214]",214,a,0.5393979519139975,colour,0.5
008,78,0,2,7,14,314,505.0908397024032,506.0873139963951,"[69, 0, 185]",185,a,0.4735079749953002,colour,0.5
008,78,0,2,7,15,315,506.6065135761164,507.3512779895682,"[18, 0, 236]",236,a,0.2212037811987102,colour,0.5
008,78,0,2,7,16,316,507.8573274582159,508.455283556832,"[59, 0, 195]",195,a,0.07460341695696115,colour,0.5
008,78,0,2,7,17,317,508.9668066918384,509.7192920546513,"[53, 0, 201]",201,a,0.22924729017540812,colour,0.5
008,78,0,2,7,18,318,510.2325611070264,511.2952589651104,"[98, 0, 156]",156,l,0.5518978238105774,colour,0.5
008,78,0,2,7,19,319,511.8106536024716,513.2552812725771,"[75, 0, 179]",179,a,0.9189264869783074,colour,0.5
008,78,0,2,7,20,320,513.7672537853941,514.6072697597556,"[49, 0, 205]",205,a,0.3165608928538859,colour,0.5
008,78,0,2,7,21,321,515.1267473944463,516.159254623577,"[5, 0, 249]",249,a,0.5091297351755202,colour,0.5
008,78,0,2,7,22,322,516.6783466832712,517.535290536005,"[25, 0, 229]",229,a,0.33680888963863254,colour,0.5
008,78,0,2,7,23,323,518.0509226620197,518.7992608305067,"[36, 0, 218]",218,a,0.22496264381334186,colour,0.5
008,78,0,2,7,24,324,519.3155900633428,520.111224363558,"[0, 0, 254]",254,a,0.27222490473650396,colour,0.5
008,78,0,2,7,25,325,520.6281920201145,521.4392398621421,"[34, 0, 220]",220,a,0.3001115371007472,colour,0.5
008,78,0,2,7,26,326,521.959658394102,522.5432509433012,"[60, 0, 194]",194,a,0.06238317536190152,colour,0.5
008,78,0,2,7,27,327,523.0640077886637,523.9032900286838,"[84, 0, 170]",170,l,0.31570309726521373,colour,0.5
008,78,0,2,7,28,328,524.4239968555048,526.2553151433822,"[31, 0, 223]",223,a,1.3079522154293954,colour,0.5
008,78,0,2,7,29,329,526.7678295876831,527.4472207496874,"[46, 0, 208]",208,a,0.1559356867801398,colour,0.5
008,78,0,2,7,30,330,527.9561118143611,529.0472988886759,"[57, 0, 197]",197,a,0.5678111559245735,colour,0.5
008,78,0,2,7,31,331,529.5656398849096,530.5273620299995,"[56, 0, 198]",198,a,0.4385080970823765,colour,0.5
008,78,0,2,7,32,332,531.0345091461204,531.7992545289453,"[37, 0, 217]",217,a,0.24147698399610817,colour,0.5
008,78,0,2,7,33,333,532.315850001527,533.0552612652536,"[13, 0, 241]",241,a,0.21747800172306597,colour,0.5
008,78,0,2,7,34,334,533.569369996665,534.5032712814864,"[79, 0, 175]",175,l,0.4137289065402001,colour,0.5
008,78,0,2,7,35,335,535.0166372200474,535.5752540500835,"[58, 0, 196]",196,a,0.04079767921939492,colour,0.5
008,78,0,2,7,36,336,536.0983495505061,536.6552815090399,"[42, 0, 212]",212,a,0.03993870201520622,colour,0.5
008,78,0,2,7,37,337,537.1790654514916,537.7993667749688,"[85, 0, 169]",169,l,0.10218600067310035,colour,0.5
008,78,0,2,7,38,338,538.3232050682418,539.0392313550692,"[83, 0, 171]",171,l,0.19788851495832205,colour,0.5
008,78,0,2,7,39,339,539.5598302681465,541.0392215088941,"[30, 0, 224]",224,a,0.9586958354339004,colour,0.5
008,78,0,2,7,40,340,541.5566881678533,542.319283941295,"[81, 0, 173]",173,l,0.2364318217150867,colour,0.5
008,78,0,2,7,41,341,542.8276763975155,543.5753103699535,"[43, 0, 211]",211,a,0.21647645230405033,colour,0.5
008,78,0,2,7,42,342,544.0836807708256,545.159228235716,"[4, 0, 250]",250,a,0.5522345616482198,colour,0.5
008,78,0,2,7,43,343,545.6781158896629,546.2872024592943,"[88, 0, 166]",166,l,0.09111342509277165,colour,0.5
008,78,0,2,7,44,344,546.7979603523854,547.5352027083281,"[82, 0, 172]",172,l,0.214287064736709,colour,0.5
008,78,0,2,7,45,345,548.0545503739268,548.5832652635872,"[39, 0, 215]",215,a,0.00524484203197062,colour,0.5
008,78,0,2,7,46,346,549.1015428507235,549.8632587729953,"[41, 0, 213]",213,a,0.23832070524804294,colour,0.5
008,78,0,2,7,47,347,550.3770926001016,551.3271829090081,"[70, 0, 184]",184,a,0.4338745034765452,colour,0.5
008,78,0,2,7,48,348,551.8388060806319,552.4312404638622,"[8, 0, 246]",246,a,0.06911084614694118,colour,0.5
008,78,0,2,7,49,349,552.9451054048259,553.6312061205972,"[23, 0, 231]",231,a,0.16819688817486167,colour,0.5
008,78,0,2,7,50,350,554.1382630462758,554.9672182605136,"[71, 0, 183]",183,a,0.30575416306965053,colour,0.5
008,78,0,2,8,1,351,560.0804689598735,561.2791731290054,"[86, 0, 168]",168,l,0.6747611130122095,colour,0.5
008,78,0,2,8,2,352,561.773568311939,562.943224004237,"[78, 0, 176]",176,a,0.6504927400965244,colour,0.5
008,78,0,2,8,3,353,563.4521576042753,563.9912010950502,"[6, 0, 248]",248,a,0.011948487954214215,colour,0.5
008,78,0,2,8,4,354,564.5028510482516,565.0552199115045,"[35, 0, 219]",219,a,0.029306445736438036,colour,0.5
008,78,0,2,8,5,355,565.5654122419655,566.8471764812712,"[80, 0, 174]",174,l,0.7643881647381932,colour,0.5
008,78,0,2,8,6,356,567.3639814797789,567.8951736581512,"[54, 0, 200]",200,a,0.007971828803420067,colour,0.5
008,78,0,2,8,7,357,568.4108687997796,570.055193917593,"[53, 0, 201]",201,a,1.1209846455603838,colour,0.5
008,78,0,2,8,8,358,570.5759038953111,571.3112038047984,"[73, 0, 181]",181,a,0.2102934701833874,colour,0.5
008,78,0,2,8,9,359,571.8277004221454,572.4871563008055,"[43, 0, 211]",211,a,0.14874445972964168,colour,0.5
008,78,0,2,8,10,360,573.0020294864662,573.5351570222992,"[40, 0, 214]",214,a,0.00995050952769816,colour,0.5
008,78,0,2,8,11,361,574.0570060012396,574.7192160424311,"[16, 0, 238]",238,a,0.1446500406600535,colour,0.5
008,78,0,2,8,12,362,575.231987274019,576.0151965327095,"[67, 0, 187]",187,a,0.264654798200354,colour,0.5
008,78,0,2,8,13,363,576.5310614216141,578.1512119022664,"[56, 0, 198]",198,a,1.1026850030757487,colour,0.5
008,78,0,2,8,14,364,578.6667936162557,579.7111882872414,"[42, 0, 212]",212,a,0.5269516427069902,colour,0.5
008,78,0,2,8,15,365,580.2290775426663,581.0311909969896,"[66, 0, 188]",188,a,0.2700823845807463,colour,0.5
008,78,0,2,8,16,366,581.5421186373569,582.3672452783212,"[2, 0, 252]",252,a,0.3073795640375465,colour,0.5
008,78,0,2,8,17,367,582.8766751238145,583.7591519872658,"[13, 0, 241]",241,a,0.3654607639182359,colour,0.5
008,78,0,2,8,18,368,584.2715207086876,584.8951968951151,"[81, 0, 173]",173,l,0.10340455896221101,colour,0.5
008,78,0,2,8,19,369,585.4092276450247,585.9751763048116,"[58, 0, 196]",196,a,0.0382955779787153,colour,0.5
008,78,0,2,8,20,370,586.4919033218175,587.2071982373018,"[63, 0, 191]",191,a,0.19237940246239305,colour,0.5
008,78,0,2,8,21,371,587.7263548879419,588.3352665901184,"[15, 0, 239]",239,a,0.08454565587453544,colour,0.5
008,78,0,2,8,22,372,588.8530502947979,589.471179559594,"[8, 0, 246]",246,a,0.09479351853951812,colour,0.5
008,78,0,2,8,23,373,589.9781907992437,590.6791509159375,"[46, 0, 208]",208,a,0.177612948929891,colour,0.5
008,78,0,2,8,24,374,591.1970192976296,592.13517608447,"[69, 0, 185]",185,a,0.41494667739607394,colour,0.5
008,78,0,2,8,25,375,592.6528294261079,593.2071651543956,"[47, 0, 207]",207,a,0.030061841709539294,colour,0.5
008,78,0,2,8,26,376,593.7253958738875,594.3351744301617,"[82, 0, 172]",172,l,0.09142535086721182,colour,0.5
008,78,0,2,8,27,377,594.8458842739929,596.3591328463517,"[25, 0, 229]",229,a,0.9898383894469589,colour,0.5
008,78,0,2,8,28,378,596.8699376068544,597.5671794272494,"[94, 0, 160]",160,l,0.17384345270693302,colour,0.5
008,78,0,2,8,29,379,598.084614972584,598.6711716039572,"[72, 0, 182]",182,a,0.0632000113837421,colour,0.5
008,78,0,2,8,30,380,599.1784274217207,599.8472091704607,"[23, 0, 231]",231,a,0.1453715655952692,colour,0.5
008,78,0,2,8,31,381,600.3558391155675,600.911179149989,"[96, 0, 158]",158,l,0.03220475558191538,colour,0.5
008,78,0,2,8,32,382,601.4183695893735,602.0711734157521,"[55, 0, 199]",199,a,0.1406048524659127,colour,0.5
008,78,0,2,8,33,383,602.5792267706711,603.4151321784593,"[28, 0, 226]",226,a,0.31688857241533697,colour,0.5
008,78,0,2,8,34,384,603.9338370880578,604.711143782828,"[24, 0, 230]",230,a,0.25006203074008226,colour,0.5
008,78,0,2,8,35,385,605.2189726457,605.8231302376371,"[89, 0, 165]",165,l,0.08070881199091673,colour,0.5
008,78,0,2,8,36,386,606.3426070846617,606.9511233656667,"[21, 0, 233]",233,a,0.08513839333318174,colour,0.5
008,78,0,2,8,37,387,607.4676593674812,608.2631341603119,"[74, 0, 180]",180,a,0.27208863431587815,colour,0.5
008,78,0,2,8,38,388,608.7701513075735,610.8071302596945,"[0, 0, 254]",254,a,1.5164068206213415,colour,0.5
008,78,0,2,8,39,389,611.3145136833191,612.415101852268,"[17, 0, 237]",237,a,0.5774906992446631,colour,0.5
008,78,0,2,8,40,390,612.9240500247106,613.7351880571805,"[9, 0, 245]",245,a,0.28306865599006414,colour,0.5
008,78,0,2,8,41,391,614.2579570596572,614.9271751896013,"[10, 0, 244]",244,a,0.15044035878963768,colour,0.5
008,78,0,2,8,42,392,615.4374246278312,616.1432140793186,"[59, 0, 195]",195,a,0.1810031719505787,colour,0.5
008,78,0,2,8,43,393,616.6562322522514,617.1831212737598,"[18, 0, 236]",236,a,0.010117500089108944,colour,0.5
008,78,0,2,8,44,394,617.7056358519476,618.287173708668,"[52, 0, 202]",202,a,0.0642783606890589,colour,0.5
008,78,0,2,8,45,395,618.7965941019356,619.3511444758624,"[93, 0, 161]",161,l,0.021683957893401384,colour,0.5
008,78,0,2,8,46,396,619.8633336036,620.399135351181,"[65, 0, 189]",189,a,0.003651342587545514,colour,0.5
008,78,0,2,8,47,397,620.9115206142887,621.5031594294123,"[97, 0, 157]",157,l,0.07334192958660424,colour,0.5
008,78,0,2,8,48,398,622.0115581869613,623.5831156023778,"[1, 0, 253]",253,a,1.0405440425965935,colour,0.5
008,78,0,2,8,49,399,624.0919074178673,624.9192935512401,"[49, 0, 205]",205,a,0.3030641977675259,colour,0.5
008,78,0,2,8,50,400,625.4299766132608,626.1831271813717,"[38, 0, 216]",216,a,0.23418178176507354,colour,0.5
008,78,0,2,9,1,401,631.3894743183628,632.0391309245024,"[64, 0, 190]",190,a,0.1308555982541293,colour,0.5
008,78,0,2,9,2,402,632.5492062829435,633.1190886728,"[14, 0, 240]",240,a,0.04657381889410317,colour,0.5
008,78,0,2,9,3,403,633.6367853374686,634.4631919767708,"[16, 0, 238]",238,a,0.29530543903820217,colour,0.5
008,78,0,2,9,4,404,634.9718750910833,635.98308078642,"[4, 0, 250]",250,a,0.487871918361634,colour,0.5
008,78,0,2,9,5,405,636.4909663631115,637.3270619981922,"[86, 0, 168]",168,l,0.3229837268590927,colour,0.5
008,78,0,2,9,6,406,637.840400761459,639.4310809564777,"[28, 0, 226]",226,a,1.067418097751215,colour,0.5
008,78,0,2,9,7,407,639.9371717788745,640.759068098152,"[90, 0, 164]",164,l,0.2974806483834982,colour,0.5
008,78,0,2,9,8,408,641.2670800995547,643.1190910357982,"[6, 0, 248]",248,a,1.3286204454489052,colour,0.5
008,78,0,2,9,9,409,643.6205648060422,644.3271033521742,"[85, 0, 169]",169,l,0.18737795716151595,colour,0.5
008,78,0,2,9,10,410,644.8318531301338,645.5671022336464,"[83, 0, 171]",171,l,0.2119917324744165,colour,0.5
008,78,0,2,9,11,411,646.0805445781443,647.807055428857,"[58, 0, 196]",196,a,1.2024059239774942,colour,0.5
008,78,0,2,9,12,412,648.3294656381477,649.663073744392,"[9, 0, 245]",245,a,0.8090155986137688,colour,0.5
008,78,0,2,9,13,413,650.1786523074843,651.319061812479,"[65, 0, 189]",189,a,0.6169548172038049,colour,0.5
008,78,0,2,9,14,414,651.8330051286612,652.527089882642,"[95, 0, 159]",159,l,0.1708443183451891,colour,0.5
008,78,0,2,9,15,415,653.0256673123222,653.7591007873416,"[48, 0, 206]",206,a,0.21161876060068607,colour,0.5
008,78,0,2,9,16,416,654.2675779203419,654.9995482589584,"[91, 0, 163]",163,l,0.2140653294045478,colour,0.5
008,78,0,2,9,17,417,655.5122891645879,656.183091341285,"[39, 0, 215]",215,a,0.1475814334116876,colour,0.5
008,78,0,2,9,18,418,656.6998187522404,657.4230685613584,"[70, 0, 184]",184,a,0.19990697363391519,colour,0.5
008,78,0,2,9,19,419,657.9343652350362,658.9190462161787,"[26, 0, 228]",228,a,0.4614287300501019,colour,0.5
008,78,0,2,9,20,420,659.4374864613637,660.407073309645,"[43, 0, 211]",211,a,0.446542153833434,colour,0.5
008,78,0,2,9,21,421,660.9201934884768,662.6070602338295,"[11, 0, 243]",243,a,1.1634545931592584,colour,0.5
008,78,0,2,9,22,422,663.1269238372333,663.9990827334113,"[72, 0, 182]",182,a,0.3602041064295918,colour,0.5
008,78,0,2,9,23,423,664.5094105468597,665.5670573352836,"[25, 0, 229]",229,a,0.5360514458734542,colour,0.5
008,78,0,2,9,24,424,666.0774052347988,667.1030969654676,"[40, 0, 214]",214,a,0.5003583994694054,colour,0.5
008,78,0,2,9,25,425,667.6107454472221,668.5590228848159,"[92, 0, 162]",162,l,0.42534065688960254,colour,0.5
008,78,0,2,9,26,426,669.0627455133945,670.087049726164,"[84, 0, 170]",170,a,0.500918447971344,colour,0.5
008,78,0,2,9,27,427,670.5960030183196,671.5670561536681,"[66, 0, 188]",188,a,0.44769848440773785,colour,0.5
008,78,0,2,9,28,428,672.0804461166263,672.7671439023688,"[97, 0, 157]",157,l,0.16345380549319088,colour,0.5
008,78,0,2,9,29,429,673.2837161379866,674.0070675595198,"[59, 0, 195]",195,a,0.2013862580060959,colour,0.5
008,78,0,2,9,30,430,674.5247051473707,675.3034363817424,"[18, 0, 236]",236,a,0.26089396653696895,colour,0.5
008,78,0,2,9,31,431,675.8172579994425,676.4790458381176,"[96, 0, 158]",158,l,0.13852180307731032,colour,0.5
008,78,0,2,9,32,432,676.9851102726534,678.1590124084614,"[0, 0, 254]",254,a,0.6505656016524881,colour,0.5
008,78,0,2,9,33,433,678.6727005126886,679.4710507721175,"[32, 0, 222]",222,a,0.2838756456039846,colour,0.5
008,78,0,2,9,34,434,679.9922333643772,680.7990729662124,"[68, 0, 186]",186,a,0.282191168051213,colour,0.5
008,78,0,2,9,35,435,681.3183410749771,682.3110183035024,"[56, 0, 198]",198,a,0.4817389543168247,colour,0.5
008,78,0,2,9,36,436,682.81942218123,683.5910496220458,"[22, 0, 232]",232,a,0.24823064845986664,colour,0.5
008,78,0,2,9,37,437,684.1031930637546,684.8630283733364,"[31, 0, 223]",223,a,0.24141475651413202,colour,0.5
008,78,0,2,9,38,438,685.3737945370376,686.3270297029521,"[2, 0, 252]",252,a,0.4298777582589537,colour,0.5
008,78,0,2,9,39,439,686.8251786285546,687.7430255848449,"[47, 0, 207]",207,a,0.39447812689468265,colour,0.5
008,78,0,2,9,40,440,688.2494941053446,688.92702789139,"[5, 0, 249]",249,a,0.15422324603423476,colour,0.5
008,78,0,2,9,41,441,689.4404245496262,690.0870178246405,"[49, 0, 205]",205,a,0.12345051299780607,colour,0.5
008,78,0,2,9,42,442,690.5967761373613,691.4790352042764,"[87, 0, 167]",167,l,0.3589973635971546,colour,0.5
008,78,0,2,9,43,443,691.9874985525385,692.7270173362922,"[74, 0, 180]",180,a,0.21615034830756485,colour,0.5
008,78,0,2,9,44,444,693.2389366796706,693.9670099162031,"[1, 0, 253]",253,a,0.20476190862245858,colour,0.5
008,78,0,2,9,45,445,694.4857656317763,695.0950164350215,"[61, 0, 193]",193,a,0.07988724973984063,colour,0.5
008,78,0,2,9,46,446,695.6105973613448,696.3830136749893,"[75, 0, 179]",179,a,0.2484137867577374,colour,0.5
008,78,0,2,9,47,447,696.9003751771525,697.5110761199612,"[63, 0, 191]",191,a,0.0788159896619618,colour,0.5
008,78,0,2,9,48,448,698.0256688876543,698.7190691379365,"[46, 0, 208]",208,a,0.17544404114596546,colour,0.5
008,78,0,2,9,49,449,699.2305863650981,699.9750353081618,"[54, 0, 200]",200,a,0.2148762575816363,colour,0.5
008,78,0,2,9,50,450,700.4948169917334,701.3270151307806,"[38, 0, 216]",216,a,0.31511075352318585,colour,0.5
008,78,0,2,10,1,451,706.5445407878142,707.6709868903272,"[23, 0, 231]",231,a,0.6022880065720528,colour,0.5
008,78,0,2,10,2,452,708.1736693729181,708.8789921174757,"[41, 0, 213]",213,a,0.1820685244165361,colour,0.5
008,78,0,2,10,3,453,709.3857926495839,710.1669692713767,"[20, 0, 234]",234,a,0.257802672451362,colour,0.5
008,78,0,2,10,4,454,710.6827534218319,711.4629911156371,"[75, 0, 179]",179,a,0.2512805890291929,colour,0.5
008,78,0,2,10,5,455,711.961739474209,712.5190262875985,"[10, 0, 244]",244,a,0.03394870413467288,colour,0.5
008,78,0,2,10,6,456,713.0399847817607,713.8149807841983,"[74, 0, 180]",180,a,0.25164174544624984,colour,0.5
008,78,0,2,10,7,457,714.3391396678053,715.039011195302,"[72, 0, 182]",182,a,0.15221739001572132,colour,0.5
008,78,0,2,10,8,458,715.5515937749296,716.1269900032785,"[25, 0, 229]",229,a,0.05205811886116862,colour,0.5
008,78,0,2,10,9,459,716.6453979534563,717.4550106220413,"[73, 0, 181]",181,a,0.28190011624246836,colour,0.5
008,78,0,2,10,10,460,717.9623983779456,720.7349623837508,"[97, 0, 157]",157,l,2.249253071844578,colour,0.5
008,78,0,2,10,11,461,721.2456253597047,721.822969548637,"[13, 0, 241]",241,a,0.054815432289615273,colour,0.5
008,78,0,2,10,12,462,722.3394543505274,723.0949577521533,"[63, 0, 191]",191,a,0.23286436824128032,colour,0.5
008,78,0,2,10,13,463,723.5982467567082,724.407014626544,"[45, 0, 209]",209,a,0.28367596585303545,colour,0.5
008,78,0,2,10,14,464,724.9284358893055,725.7109763983171,"[54, 0, 200]",200,a,0.21970598632469773,colour,0.5
008,78,0,2,10,15,465,726.2150826326106,727.0709792496637,"[48, 0, 206]",206,a,0.3327444028109312,colour,0.5
008,78,0,2,10,16,466,727.5902808355168,728.5510089141317,"[80, 0, 174]",174,a,0.4377664856147021,colour,0.5
008,78,0,2,10,17,467,729.0471515902318,729.7589944491629,"[31, 0, 223]",223,a,0.18560368265025318,colour,0.5
008,78,0,2,10,18,468,730.2689441707917,731.7750101808924,"[98, 0, 156]",156,l,0.9826321962755173,colour,0.5
008,78,0,2,10,19,469,732.2846814536024,733.8869678850751,"[44, 0, 210]",210,a,1.0782740584108979,colour,0.5
008,78,0,2,10,20,470,734.3909350917675,735.6149824382737,"[62, 0, 192]",192,a,0.697992883855477,colour,0.5
008,78,0,2,10,21,471,736.1222437699325,737.4149703078438,"[55, 0, 199]",199,a,0.7695325762033463,colour,0.5
008,78,0,2,10,22,472,737.9348575419281,738.7749483471271,"[2, 0, 252]",252,a,0.31679011113010347,colour,0.5
008,78,0,2,10,23,473,739.2829497144558,740.3189586249646,"[14, 0, 240]",240,a,0.512712548719719,colour,0.5
008,78,0,2,10,24,474,740.8299307697453,741.7830851974431,"[37, 0, 217]",217,a,0.43319787667132914,colour,0.5
008,78,0,2,10,25,475,742.2953357652295,743.1189205006231,"[71, 0, 183]",183,a,0.30021472461521626,colour,0.5
008,78,0,2,10,26,476,743.6392275742255,744.246959708631,"[32, 0, 222]",222,a,0.08009362476877868,colour,0.5
008,78,0,2,10,27,477,744.7683128362987,745.8069802045356,"[4, 0, 250]",250,a,0.5204342857468873,colour,0.5
008,78,0,2,10,28,478,746.324320045067,747.1830039075576,"[59, 0, 195]",195,a,0.3327132889535278,colour,0.5
008,78,0,2,10,29,479,747.6922068980057,748.4310187287629,"[65, 0, 189]",189,a,0.22109586745500565,colour,0.5
008,78,0,2,10,30,480,748.9502194900997,749.9030218196567,"[81, 0, 173]",173,l,0.42111193644814193,colour,0.5
008,78,0,2,10,31,481,750.4188284194097,752.2789923537057,"[12, 0, 242]",242,a,1.3427567458711565,colour,0.5
008,78,0,2,10,32,482,752.8004254319239,753.9669772270136,"[1, 0, 253]",253,a,0.6484699491411448,colour,0.5
008,78,0,2,10,33,483,754.4866344551556,755.5109248834196,"[53, 0, 201]",201,a,0.5073164699133486,colour,0.5
008,78,0,2,10,34,484,756.023444841383,757.1589367899578,"[76, 0, 178]",178,a,0.6121613222640008,colour,0.5
008,78,0,2,10,35,485,757.6745854576584,758.2069264838938,"[96, 0, 158]",158,l,0.009016701485961676,colour,0.5
008,78,0,2,10,36,486,758.7215617867187,760.2709204880521,"[85, 0, 169]",169,a,1.038492500782013,colour,0.5
008,78,0,2,10,37,487,760.7908754635137,761.9109247257002,"[67, 0, 187]",187,a,0.5967324203811586,colour,0.5
008,78,0,2,10,38,488,762.4252654321026,763.4470821160357,"[7, 0, 247]",247,a,0.5063460343517363,colour,0.5
008,78,0,2,10,39,489,763.9642463014461,764.4950320313219,"[87, 0, 167]",167,l,0.00774182309396565,colour,0.5
008,78,0,2,10,40,490,765.0094704115763,765.6548998726066,"[35, 0, 219]",219,a,0.11361855105496943,colour,0.5
008,78,0,2,10,41,491,766.1641229491215,767.1989188150037,"[64, 0, 190]",190,a,0.5166683339048177,colour,0.5
008,78,0,2,10,42,492,767.7121008276008,768.5109229141381,"[50, 0, 204]",204,a,0.2765820187050849,colour,0.5
008,78,0,2,10,43,493,769.0262179083657,769.9989362228662,"[43, 0, 211]",211,a,0.45533160609193146,colour,0.5
008,78,0,2,10,44,494,770.5112312952988,771.4149636125658,"[3, 0, 251]",251,a,0.3807266135700047,colour,0.5
008,78,0,2,10,45,495,771.9388306564651,772.7109586752485,"[21, 0, 233]",233,a,0.25438645551912487,colour,0.5
008,78,0,2,10,46,496,773.2220615767874,774.2309463401325,"[89, 0, 165]",165,l,0.4908978343009949,colour,0.5
008,78,0,2,10,47,497,774.7486221310683,775.4788938136771,"[29, 0, 225]",225,a,0.21176724042743444,colour,0.5
008,78,0,2,10,48,498,775.9961556729395,776.8069297922775,"[11, 0, 243]",243,a,0.2881146059371531,colour,0.5
008,78,0,2,10,49,499,777.3277181449812,778.0228981836699,"[40, 0, 214]",214,a,0.17177379387430847,colour,0.5
008,78,0,2,10,50,500,778.5309562650509,779.5989032974467,"[61, 0, 193]",193,a,0.5447676428593695,colour,0.5
008,78,0,2,11,1,501,786.0947064785287,786.7588798399083,"[39, 0, 215]",215,a,0.14461971446871758,colour,0.5
008,78,0,2,11,2,502,787.2706128945574,788.1029252489097,"[62, 0, 192]",192,a,0.30033405986614525,colour,0.5
008,78,0,2,11,3,503,788.6150986228604,789.6069523200858,"[41, 0, 213]",213,a,0.47052813903428614,colour,0.5
008,78,0,2,11,4,504,790.1180512832943,791.0309105787892,"[23, 0, 231]",231,a,0.3949885508045554,colour,0.5
008,78,0,2,11,5,505,791.5447577966843,792.7349060638808,"[40, 0, 214]",214,a,0.671896280022338,colour,0.5
008,78,0,2,11,6,506,793.2463590942789,794.3108950299211,"[11, 0, 243]",243,a,0.5316628240980208,colour,0.5
008,78,0,2,11,7,507,794.8260628120042,795.7749010855332,"[44, 0, 210]",210,a,0.4302078008186072,colour,0.5
008,78,0,2,11,8,508,796.2870827303268,797.3188731602859,"[15, 0, 239]",239,a,0.5085692927241325,colour,0.5
008,78,0,2,11,9,509,797.83634139481,798.910867618164,"[48, 0, 206]",206,a,0.5511404587887228,colour,0.5
008,78,0,2,11,10,510,799.4272669556085,800.4868869103957,"[59, 0, 195]",195,a,0.5443241728935391,colour,0.5
008,78,0,2,11,11,511,800.9974900218658,802.3668786080088,"[88, 0, 166]",166,l,0.8461792643647641,colour,0.5
008,78,0,2,11,12,512,802.8757432850543,804.6868391761091,"[80, 0, 174]",174,a,1.2876754680182785,colour,0.5
008,78,0,2,11,13,513,805.201893530786,805.7428790742997,"[55, 0, 199]",199,l,0.02413643430918455,colour,0.5
008,78,0,2,11,14,514,806.2594725775998,807.0468471476343,"[83, 0, 171]",171,l,0.26966569595970213,colour,0.5
008,78,0,2,11,15,515,807.5584691378754,808.2469368656166,"[9, 0, 245]",245,a,0.16506345244124532,colour,0.5
008,78,0,2,11,16,516,808.7702639473137,809.7029584893025,"[66, 0, 188]",188,a,0.41439608088694513,colour,0.5
008,78,0,2,11,17,517,810.2232316921,810.8548257506918,"[46, 0, 208]",208,a,0.11460158950649202,colour,0.5
008,78,0,2,11,18,518,811.3666068546008,811.9029977952596,"[85, 0, 169]",169,l,0.018578485352918506,colour,0.5
008,78,0,2,11,19,519,812.4173908829689,813.1030493101571,"[47, 0, 207]",207,a,0.1633584948722273,colour,0.5
008,78,0,2,11,20,520,813.6140884088818,814.2308569371235,"[89, 0, 165]",165,l,0.08798235259018838,colour,0.5
008,78,0,2,11,21,521,814.74908214272,815.3508538177703,"[33, 0, 221]",221,a,0.08780669746920466,colour,0.5
008,78,0,2,11,22,522,815.85995440837,816.5908408840187,"[38, 0, 216]",216,a,0.20993192004971206,colour,0.5
008,78,0,2,11,23,523,817.0979537356179,817.6388372732326,"[87, 0, 167]",167,l,0.02570984768681228,colour,0.5
008,78,0,2,11,24,524,818.1527223002631,818.8469393863343,"[29, 0, 225]",225,a,0.1709534137044102,colour,0.5
008,78,0,2,11,25,525,819.360226949444,820.174844214227,"[68, 0, 186]",186,a,0.29125828156247735,colour,0.5
008,78,0,2,11,26,526,820.6901525992434,821.4388389273081,"[27, 0, 227]",227,a,0.225382877048105,colour,0.5
008,78,0,2,11,27,527,821.9445122734178,822.6948752021417,"[63, 0, 191]",191,a,0.22776485537178814,colour,0.5
008,78,0,2,11,28,528,823.2051474833861,823.9508315261919,"[73, 0, 181]",181,a,0.22239673952572048,colour,0.5
008,78,0,2,11,29,529,824.4708955970127,825.0711738094687,"[7, 0, 247]",247,a,0.0744880202692002,colour,0.5
008,78,0,2,11,30,530,825.5949451490305,826.6868269669358,"[90, 0, 164]",164,l,0.5628412179648876,colour,0.5
008,78,0,2,11,31,531,827.1989278735127,828.42283776775,"[82, 0, 172]",172,a,0.7068394441157579,colour,0.5
008,78,0,2,11,32,532,828.9359339221846,829.7988417786546,"[19, 0, 235]",235,a,0.3447842630557716,colour,0.5
008,78,0,2,11,33,533,830.3113247153815,831.3908519903198,"[18, 0, 236]",236,a,0.5617215149104595,colour,0.5
008,78,0,2,11,34,534,831.906176129356,832.9108672242146,"[24, 0, 230]",230,a,0.4875800786539912,colour,0.5
008,78,0,2,11,35,535,833.4229779769666,834.3188806434628,"[99, 0, 155]",155,l,0.37902323133312166,colour,0.5
008,78,0,2,11,36,536,834.8308700914495,835.646833126666,"[81, 0, 173]",173,a,0.2927639533299953,colour,0.5
008,78,0,2,11,37,537,836.1625270866789,836.8148673565593,"[30, 0, 224]",224,a,0.12041199393570423,colour,0.5
008,78,0,2,11,38,538,837.3371972213499,838.0548493028618,"[51, 0, 203]",203,a,0.1865461552515626,colour,0.5
008,78,0,2,11,39,539,838.5718890330754,839.3508160086349,"[75, 0, 179]",179,a,0.2471030685119331,colour,0.5
008,78,0,2,11,40,540,839.873672444839,840.6548037743196,"[1, 0, 253]",253,a,0.26389034395106137,colour,0.5
008,78,0,2,11,41,541,841.1706596047152,841.7908408052754,"[97, 0, 157]",157,l,0.10316155641339719,colour,0.5
008,78,0,2,11,42,542,842.3137681335211,843.0548800227698,"[54, 0, 200]",200,a,0.2237259685061872,colour,0.5
008,78,0,2,11,43,543,843.5664720805362,844.278788341675,"[32, 0, 222]",222,a,0.1946633132174611,colour,0.5
008,78,0,2,11,44,544,844.7852541052271,845.6068432249594,"[42, 0, 212]",212,a,0.3008783545810729,colour,0.5
008,78,0,2,11,45,545,846.1196916503832,847.038813091116,"[67, 0, 187]",187,a,0.40366575750522316,colour,0.5
008,78,0,2,11,46,546,847.5371648471337,848.5508446805179,"[28, 0, 226]",226,a,0.49046105914749205,colour,0.5
008,78,0,2,11,47,547,849.0610744263977,850.0628132547718,"[6, 0, 248]",248,a,0.4783774819225073,colour,0.5
008,78,0,2,11,48,548,850.5705625610426,851.326796152629,"[86, 0, 168]",168,l,0.2328714574687183,colour,0.5
008,78,0,2,11,49,549,851.8364449760411,852.3987927054986,"[95, 0, 159]",159,l,0.039148647570982575,colour,0.5
008,78,0,2,11,50,550,852.9061584062874,853.5107807358727,"[79, 0, 175]",175,a,0.08135747560299933,colour,0.5
008,78,0,2,12,1,551,857.7970348151866,858.366784085054,"[61, 0, 193]",193,a,0.05202936823479831,colour,0.5
008,78,0,2,12,2,552,858.8825501187239,860.9907954342198,"[87, 0, 167]",167,l,1.5760933351702988,colour,0.5
008,78,0,2,12,3,553,861.504459513817,862.0707835084759,"[27, 0, 227]",227,a,0.034166894387453794,colour,0.5
008,78,0,2,12,4,554,862.586504643783,863.5187982509378,"[84, 0, 170]",170,a,0.4144350718706846,colour,0.5
008,78,0,2,12,5,555,864.0408571497537,864.6787870028056,"[25, 0, 229]",229,a,0.1191776820924133,colour,0.5
008,78,0,2,12,6,556,865.1909517121967,865.7987641911022,"[81, 0, 173]",173,l,0.08280840259976685,colour,0.5
008,78,0,2,12,7,557,866.3116279765964,868.0627632364631,"[54, 0, 200]",200,a,1.2271378529258072,colour,0.5
008,78,0,2,12,8,558,868.5780456278007,869.7267530658282,"[36, 0, 218]",218,a,0.6256918883882463,colour,0.5
008,78,0,2,12,9,559,870.2361714898143,870.8868134974036,"[22, 0, 232]",232,a,0.12848858581855893,colour,0.5
008,78,0,2,12,10,560,871.4069130143616,872.1828440062236,"[86, 0, 168]",168,l,0.25099780783057213,colour,0.5
008,78,0,2,12,11,561,872.6898308275267,873.2947709904984,"[42, 0, 212]",212,a,0.08169224439188838,colour,0.5
008,78,0,2,12,12,562,873.7988295694813,874.4307599721942,"[44, 0, 210]",210,a,0.10861198557540774,colour,0.5
008,78,0,2,12,13,563,874.9395557262469,875.4868101105094,"[45, 0, 209]",209,a,0.024081690004095435,colour,0.5
008,78,0,2,12,14,564,875.9997503017075,877.694752322277,"[33, 0, 221]",221,a,1.1629425939172506,colour,0.5
008,78,0,2,12,15,565,878.213296148926,879.4308344090823,"[9, 0, 245]",245,a,0.685626131715253,colour,0.5
008,78,0,2,12,16,566,879.9452582169324,881.0387670111377,"[53, 0, 201]",201,a,0.5743194546084851,colour,0.5
008,78,0,2,12,17,567,881.5496383314021,882.6307492596097,"[37, 0, 217]",217,a,0.560799916042015,colour,0.5
008,78,0,2,12,18,568,883.147891783854,884.2147561346646,"[46, 0, 208]",208,a,0.5488738771528006,colour,0.5
008,78,0,2,12,19,569,884.725891725393,885.4147899264935,"[90, 0, 164]",164,l,0.16053856001235545,colour,0.5
008,78,0,2,12,20,570,885.9224470730405,887.6707710630726,"[43, 0, 211]",211,a,1.224953979253769,colour,0.5
008,78,0,2,12,21,571,888.1798216351308,889.310746943811,"[10, 0, 244]",244,a,0.6080243680626154,colour,0.5
008,78,0,2,12,22,572,889.8310512604658,890.4149155633058,"[82, 0, 172]",172,l,0.06074162689037621,colour,0.5
008,78,0,2,12,23,573,890.9302712099161,892.6547604512889,"[0, 0, 254]",254,a,1.201249199686572,colour,0.5
008,78,0,2,12,24,574,893.1647735820152,893.7027997695841,"[85, 0, 169]",169,l,0.01493462547659874,colour,0.5
008,78,0,2,12,25,575,894.2135088255163,894.8227580534294,"[57, 0, 197]",197,a,0.08602572744712234,colour,0.5
008,78,0,2,12,26,576,895.338616247056,896.3347648307681,"[58, 0, 196]",196,a,0.4702402378898114,colour,0.5
008,78,0,2,12,27,577,896.8441710455809,897.5826949751936,"[56, 0, 198]",198,a,0.2204680775757879,colour,0.5
008,78,0,2,12,28,578,898.1002982985228,899.9187260195613,"[91, 0, 163]",163,a,1.2863044913392514,colour,0.5
008,78,0,2,12,29,579,900.4332494703121,901.5747581983451,"[29, 0, 225]",225,a,0.6100865434855223,colour,0.5
008,78,0,2,12,30,580,902.0968230050057,902.9827724052593,"[7, 0, 247]",247,a,0.3526666893158108,colour,0.5
008,78,0,2,12,31,581,903.504019588232,904.3267465280369,"[16, 0, 238]",238,a,0.30493220733478665,colour,0.5
008,78,0,2,12,32,582,904.8503733261023,905.4947283763904,"[77, 0, 177]",177,l,0.12019498506560922,colour,0.5
008,78,0,2,12,33,583,905.9950028867461,906.7586970955599,"[71, 0, 183]",183,a,0.24257069313898683,colour,0.5
008,78,0,2,12,34,584,907.2644988354295,908.2947083690669,"[72, 0, 182]",182,a,0.506980913458392,colour,0.5
008,78,0,2,12,35,585,908.813622410642,909.5510376649909,"[69, 0, 185]",185,a,0.2142000247258693,colour,0.5
008,78,0,2,12,36,586,910.0620523451362,910.9107447382994,"[67, 0, 187]",187,a,0.3253889421466738,colour,0.5
008,78,0,2,12,37,587,911.4200729716104,912.3507037626114,"[39, 0, 215]",215,a,0.4188024257309735,colour,0.5
008,78,0,2,12,38,588,912.8621252854355,913.614698869409,"[66, 0, 188]",188,a,0.23307428788393736,colour,0.5
008,78,0,2,12,39,589,914.1241432873067,914.7747309443075,"[19, 0, 235]",235,a,0.1272582123056054,colour,0.5
008,78,0,2,12,40,590,915.2961778070312,916.0871753627434,"[6, 0, 248]",248,a,0.27763476804830134,colour,0.5
008,78,0,2,12,41,591,916.6105875151698,917.1667057885788,"[92, 0, 162]",162,l,0.028873215662315488,colour,0.5
008,78,0,2,12,42,592,917.6776952627115,918.5266987939831,"[8, 0, 246]",246,a,0.32571150199510157,colour,0.5
008,78,0,2,12,43,593,919.0318735314067,919.7506847004406,"[60, 0, 194]",194,a,0.19563296111300588,colour,0.5
008,78,0,2,12,44,594,920.2663384880871,921.0227445838973,"[64, 0, 190]",190,a,0.23301757406443357,colour,0.5
008,78,0,2,12,45,595,921.5297180144116,922.214730928652,"[73, 0, 181]",181,a,0.16169843566603959,colour,0.5
008,78,0,2,12,46,596,922.7335984962992,923.3586744100321,"[26, 0, 228]",228,a,0.10180121334269643,colour,0.5
008,78,0,2,12,47,597,923.8618736180943,924.5346603828948,"[88, 0, 166]",166,l,0.1495183662045747,colour,0.5
008,78,0,2,12,48,598,925.0494051747955,925.7187591814436,"[15, 0, 239]",239,a,0.14598990348167717,colour,0.5
008,78,0,2,12,49,599,926.2346402180847,927.2627273178659,"[1, 0, 253]",253,a,0.4843666923698038,colour,0.5
008,78,0,2,12,50,600,927.7715073178988,928.6147323464975,"[23, 0, 231]",231,a,0.322050706949085,colour,0.5
008,78,0,2,13,1,601,935.0970711277332,936.494712228654,"[81, 0, 173]",173,a,0.8737212817650288,colour,0.5
008,78,0,2,13,2,602,937.0077300076373,937.8387237668503,"[24, 0, 230]",230,a,0.30721848108805716,colour,0.5
008,78,0,2,13,3,603,938.3588681821711,939.1426701785531,"[8, 0, 246]",246,a,0.2517910129390657,colour,0.5
008,78,0,2,13,4,604,939.6554126595147,940.5747235401068,"[11, 0, 243]",243,a,0.40049333102069795,colour,0.5
008,78,0,2,13,5,605,941.0956162619404,942.6626944709569,"[92, 0, 162]",162,a,1.0379206368234009,colour,0.5
008,78,0,2,13,6,606,943.1817530540284,945.3827269554604,"[77, 0, 177]",177,a,1.683597039198503,colour,0.5
008,78,0,2,13,7,607,945.8898023918737,947.4707045818213,"[52, 0, 202]",202,a,1.0605844827368855,colour,0.5
008,78,0,2,13,8,608,947.9813781918492,948.9506586280186,"[48, 0, 206]",206,a,0.4538731959182769,colour,0.5
008,78,0,2,13,9,609,949.4695084728301,950.1827057665214,"[97, 0, 157]",157,l,0.1898355537559837,colour,0.5
008,78,0,2,13,10,610,950.6883050696924,951.2786749142688,"[91, 0, 163]",163,l,0.0668474156409502,colour,0.5
008,78,0,2,13,11,611,951.7979272692464,952.4146843759809,"[95, 0, 159]",159,l,0.09375061537139118,colour,0.5
008,78,0,2,13,12,612,952.923148511909,953.5026686978526,"[75, 0, 179]",179,a,0.05621909792535007,colour,0.5
008,78,0,2,13,13,613,954.0169026718941,954.5507273145486,"[76, 0, 178]",178,a,0.010393979493528605,colour,0.5
008,78,0,2,13,14,614,955.0638368595392,955.6066608743276,"[43, 0, 211]",211,a,0.019599332939833403,colour,0.5
008,78,0,2,13,15,615,956.1263783611357,956.9106628184672,"[79, 0, 175]",175,a,0.2623456814326346,colour,0.5
008,78,0,2,13,16,616,957.4243544673081,957.9907032742631,"[80, 0, 174]",174,a,0.04433204955421388,colour,0.5
008,78,0,2,13,17,617,958.5090040983632,960.7506539805327,"[30, 0, 224]",224,a,1.7233061289880425,colour,0.5
008,78,0,2,13,18,618,961.2604552223347,962.4626401991118,"[50, 0, 204]",204,a,0.6843477089423686,colour,0.5
008,78,0,2,13,19,619,962.9796795356087,963.9426793158054,"[70, 0, 184]",184,a,0.4302684529684484,colour,0.5
008,78,0,2,13,20,620,964.463541317964,965.3106685685925,"[12, 0, 242]",242,a,0.3296810716856271,colour,0.5
008,78,0,2,13,21,621,965.8268800417427,966.5426747472957,"[89, 0, 165]",165,l,0.20462878863327205,colour,0.5
008,78,0,2,13,22,622,967.0612878908869,967.7106802263297,"[19, 0, 235]",235,a,0.12256120936945081,colour,0.5
008,78,0,2,13,23,623,968.2218776510563,968.990669403458,"[18, 0, 236]",236,a,0.24606213462539017,colour,0.5
008,78,0,2,13,24,624,969.5026620023418,970.2546810519416,"[88, 0, 166]",166,l,0.2286261955741793,colour,0.5
008,78,0,2,13,25,625,970.7684302022681,971.3026128504425,"[34, 0, 220]",220,a,0.016103559406474233,colour,0.5
008,78,0,2,13,26,626,971.8164159576409,972.5106606129557,"[22, 0, 232]",232,a,0.17084510601125658,colour,0.5
008,78,0,2,13,27,627,973.0198647847865,973.8386481485795,"[40, 0, 214]",214,a,0.29552205419167876,colour,0.5
008,78,0,2,13,28,628,974.3479787448887,975.0545972415712,"[17, 0, 237]",237,a,0.19260231917724013,colour,0.5
008,78,0,2,13,29,629,975.5731765143573,976.3586622008588,"[5, 0, 249]",249,a,0.26208613719791174,colour,0.5
008,78,0,2,13,30,630,976.8688694976736,978.774626969127,"[78, 0, 176]",176,l,1.3463943041861057,colour,0.5
008,78,0,2,13,31,631,979.2939714838285,980.9346373823937,"[53, 0, 201]",201,a,1.1085347919724882,colour,0.5
008,78,0,2,13,32,632,981.4438632158563,982.3106169747189,"[57, 0, 197]",197,a,0.3500933018513024,colour,0.5
008,78,0,2,13,33,633,982.8201039279811,983.6706249462441,"[4, 0, 250]",250,a,0.3328893380239606,colour,0.5
008,78,0,2,13,34,634,984.1806703724433,984.9666491535027,"[35, 0, 219]",219,a,0.26886146306060255,colour,0.5
008,78,0,2,13,35,635,985.4791502070148,986.1986387907527,"[21, 0, 233]",233,a,0.18796045472845435,colour,0.5
008,78,0,2,13,36,636,986.7156292903237,987.6706383370329,"[66, 0, 188]",188,a,0.4331368305720389,colour,0.5
008,78,0,2,13,37,637,988.1898217690177,988.8306908917148,"[6, 0, 248]",248,a,0.11759048397652805,colour,0.5
008,78,0,2,13,38,638,989.3492993093096,989.9506204249337,"[46, 0, 208]",208,a,0.08520613494329154,colour,0.5
008,78,0,2,13,39,639,990.4671138913836,991.0706082473043,"[87, 0, 167]",167,l,0.08008535439148545,colour,0.5
008,78,0,2,13,40,640,991.5800432127435,992.1105804259423,"[28, 0, 226]",226,a,0.007281417725607753,colour,0.5
008,78,0,2,13,41,641,992.626999455737,993.358623997774,"[9, 0, 245]",245,a,0.20831794035620987,colour,0.5
008,78,0,2,13,42,642,993.8777211776469,994.5265916679054,"[51, 0, 203]",203,a,0.12551741464994848,colour,0.5
008,78,0,2,13,43,643,995.0340014791582,995.6065872253384,"[47, 0, 207]",207,a,0.0491889538243413,colour,0.5
008,78,0,2,13,44,644,996.1277493375819,996.8066233803984,"[14, 0, 240]",240,a,0.16653367830440402,colour,0.5
008,78,0,2,13,45,645,997.3267752786633,998.1426260678563,"[54, 0, 200]",200,a,0.28906928771175444,colour,0.5
008,78,0,2,13,46,646,998.666684914846,999.4306154309306,"[63, 0, 191]",191,a,0.2315564069431275,colour,0.5
008,78,0,2,13,47,647,999.94896587939,1001.8065993557684,"[83, 0, 171]",171,l,1.3397993592079729,colour,0.5
008,78,0,2,13,48,648,1002.3162922901101,1003.8866339039523,"[3, 0, 251]",251,a,1.0532101173885167,colour,0.5
008,78,0,2,13,49,649,1004.4063253968488,1005.6705670510419,"[49, 0, 205]",205,a,0.746793505968526,colour,0.5
008,78,0,2,13,50,650,1006.1890584961511,1007.3266803619917,"[60, 0, 194]",194,a,0.6113472434226424,colour,0.5
008,78,0,2,14,1,651,1012.8529368671589,1013.4305973141454,"[40, 0, 214]",214,a,0.060494686011224985,colour,0.5
008,78,0,2,14,2,652,1013.9499170165509,1015.9106009847019,"[81, 0, 173]",173,l,1.4436918930150568,colour,0.5
008,78,0,2,14,3,653,1016.4317205618136,1018.1666073272936,"[10, 0, 244]",244,a,1.2205460590776056,colour,0.5
008,78,0,2,14,4,654,1018.6773955461103,1019.6705556295346,"[34, 0, 220]",220,a,0.4719845801591873,colour,0.5
008,78,0,2,14,5,655,1020.19096392137,1020.7825416903943,"[84, 0, 170]",170,l,0.06831212737597525,colour,0.5
008,78,0,2,14,6,656,1021.2926481626928,1021.8785667642951,"[48, 0, 206]",206,a,0.0651085872668773,colour,0.5
008,78,0,2,14,7,657,1022.399559522979,1022.9585816201288,"[37, 0, 217]",217,a,0.0400588249322027,colour,0.5
008,78,0,2,14,8,658,1023.4734973411541,1024.078560777707,"[23, 0, 231]",231,a,0.08186159795150161,colour,0.5
008,78,0,2,14,9,659,1024.5987536360044,1025.3105389934499,"[99, 0, 155]",155,l,0.1884366141166538,colour,0.5
008,78,0,2,14,10,660,1025.8078616310377,1026.3745562343393,"[13, 0, 241]",241,a,0.043629429070279,colour,0.5
008,78,0,2,14,11,661,1026.8750300307292,1027.5985720732715,"[14, 0, 240]",240,a,0.20401990343816578,colour,0.5
008,78,0,2,14,12,662,1028.1118163135834,1028.750588208437,"[62, 0, 192]",192,a,0.11554366862401366,colour,0.5
008,78,0,2,14,13,663,1029.2680718027987,1029.8146109632216,"[9, 0, 245]",245,a,0.02321641123853624,colour,0.5
008,78,0,2,14,14,664,1030.3306148794945,1030.926546612056,"[4, 0, 250]",250,a,0.07275155512616038,colour,0.5
008,78,0,2,14,15,665,1031.4345078070182,1031.9905386466999,"[6, 0, 248]",248,a,0.038939909311011434,colour,0.5
008,78,0,2,14,16,666,1032.4944865552243,1033.0385200697929,"[18, 0, 236]",236,a,0.02661136002279818,colour,0.5
008,78,0,2,14,17,667,1033.551278698491,1034.14254926797,"[45, 0, 209]",209,a,0.06792537099681795,colour,0.5
008,78,0,2,14,18,668,1034.660711064469,1035.7025366807356,"[74, 0, 180]",180,a,0.5247047536540776,colour,0.5
008,78,0,2,14,19,669,1036.2148699560203,1036.878525410546,"[88, 0, 166]",166,l,0.1405020586680621,colour,0.5
008,78,0,2,14,20,670,1037.3955934976693,1039.0705767394975,"[95, 0, 159]",159,a,1.1032355991192162,colour,0.5
008,78,0,2,14,21,671,1039.58615097031,1041.2065334259532,"[22, 0, 232]",232,a,1.0889193112961948,colour,0.5
008,78,0,2,14,22,672,1041.72909369017,1044.4945665057749,"[21, 0, 233]",233,a,2.2409992492757738,colour,0.5
008,78,0,2,14,23,673,1045.0067863536533,1046.4785275373142,"[91, 0, 163]",163,l,0.9528933081310242,colour,0.5
008,78,0,2,14,24,674,1046.985362333944,1047.662503849715,"[43, 0, 211]",211,a,0.15052858018316329,colour,0.5
008,78,0,2,14,25,675,1048.1734070717357,1048.8865346547682,"[92, 0, 162]",162,l,0.19566249940544367,colour,0.5
008,78,0,2,14,26,676,1049.4086065504234,1050.1665427365806,"[79, 0, 175]",175,a,0.2361155638936907,colour,0.5
008,78,0,2,14,27,677,1050.6805616710335,1051.3105023656972,"[97, 0, 157]",157,l,0.10338210966438055,colour,0.5
008,78,0,2,14,28,678,1051.834570270963,1052.5745443401393,"[80, 0, 174]",174,a,0.20724943722598255,colour,0.5
008,78,0,2,14,29,679,1053.089330486022,1053.8145778800827,"[73, 0, 181]",181,a,0.19334196113049984,colour,0.5
008,78,0,2,14,30,680,1054.3245697433595,1055.038540549809,"[2, 0, 252]",252,a,0.19697124836966395,colour,0.5
008,78,0,2,14,31,681,1055.5614820567425,1056.3584841827396,"[47, 0, 207]",207,a,0.2776103497017175,colour,0.5
008,78,0,2,14,32,682,1056.8633434497751,1057.694511288777,"[64, 0, 190]",190,a,0.3098430682439357,colour,0.5
008,78,0,2,14,33,683,1058.2173511832952,1059.2945031754207,"[71, 0, 183]",183,a,0.5600685446988791,colour,0.5
008,78,0,2,14,34,684,1059.8150611286983,1060.678510129219,"[66, 0, 188]",188,a,0.34638485172763467,colour,0.5
008,78,0,2,14,35,685,1061.1932411366142,1062.0705408996437,"[83, 0, 171]",171,a,0.34486066922545433,colour,0.5
008,78,0,2,14,36,686,1062.5838532750495,1063.2305225620512,"[56, 0, 198]",198,a,0.1284641674719751,colour,0.5
008,78,0,2,14,37,687,1063.744045251282,1064.6065442960244,"[69, 0, 185]",185,a,0.3298224622849375,colour,0.5
008,78,0,2,14,38,688,1065.1201910465024,1065.8545366681647,"[75, 0, 179]",179,a,0.20159735903143883,colour,0.5
008,78,0,2,14,39,689,1066.3645482235588,1066.9905414036475,"[68, 0, 186]",186,a,0.10800585709512234,colour,0.5
008,78,0,2,14,40,690,1067.496666490566,1068.1985084277112,"[32, 0, 222]",222,a,0.15923138661310077,colour,0.5
008,78,0,2,14,41,691,1068.7197938137688,1069.4386569706257,"[89, 0, 165]",165,l,0.19493270362727344,colour,0.5
008,78,0,2,14,42,692,1069.954170155339,1072.0065134186298,"[15, 0, 239]",239,a,1.5290047600865364,colour,0.5
008,78,0,2,14,43,693,1072.5054732724093,1073.8464825253468,"[31, 0, 223]",223,a,0.8176924113649875,colour,0.5
008,78,0,2,14,44,694,1074.3494013152085,1075.102472720202,"[55, 0, 199]",199,a,0.2335843180771917,colour,0.5
008,78,0,2,14,45,695,1075.6118052857928,1076.3425180753693,"[24, 0, 230]",230,a,0.20443856110796332,colour,0.5
008,78,0,2,14,46,696,1076.8496722809505,1077.7344862243626,"[29, 0, 225]",225,a,0.3705271938815713,colour,0.5
008,78,0,2,14,47,697,1078.2534195643384,1078.9985116573516,"[90, 0, 164]",164,l,0.22377126081846654,colour,0.5
008,78,0,2,14,48,698,1079.5077457616571,1080.8706666151993,"[82, 0, 172]",172,l,0.8450642875395715,colour,0.5
008,78,0,2,14,49,699,1081.3800255684182,1082.2465237216093,"[16, 0, 238]",238,a,0.3406414012424648,colour,0.5
008,78,0,2,14,50,700,1082.7634177291766,1083.4384773769416,"[41, 0, 213]",213,a,0.15752564114518464,colour,0.5
008,78,0,2,15,1,701,1089.539626776008,1090.3024895768613,"[7, 0, 247]",247,a,0.24660249100998044,colour,0.5
008,78,0,2,15,2,702,1090.8140194071457,1092.014451376861,"[84, 0, 170]",170,l,0.6776137365959585,colour,0.5
008,78,0,2,15,3,703,1092.5299228141084,1093.086505431449,"[17, 0, 237]",237,a,0.033353209495544434,colour,0.5
008,78,0,2,15,4,704,1093.6080775370356,1094.2544671937358,"[64, 0, 190]",190,a,0.12305824272334576,colour,0.5
008,78,0,2,15,5,705,1094.7673983266577,1095.4464661413804,"[87, 0, 167]",167,l,0.15572891756892204,colour,0.5
008,78,0,2,15,6,706,1095.9550094404258,1097.4544623887632,"[0, 0, 254]",254,a,0.9761372881475836,colour,0.5
008,78,0,2,15,7,707,1097.968975205673,1099.1425114588346,"[47, 0, 207]",207,a,0.6468445484060794,colour,0.5
008,78,0,2,15,8,708,1099.6514497851022,1100.382465441944,"[52, 0, 202]",202,a,0.2122122859582305,colour,0.5
008,78,0,2,15,9,709,1100.9034148775972,1102.1025684247725,"[91, 0, 163]",163,l,0.6812095472123474,colour,0.5
008,78,0,2,15,10,710,1102.6197550594807,1103.2704573255032,"[67, 0, 187]",187,a,0.13322379160672426,colour,0.5
008,78,0,2,15,11,711,1103.7795913929585,1104.326483045239,"[59, 0, 195]",195,a,0.014308410929515958,colour,0.5
008,78,0,2,15,12,712,1104.8457523356192,1105.5104707793798,"[16, 0, 238]",238,a,0.145558642456308,colour,0.5
008,78,0,2,15,13,713,1106.024094292894,1106.6064584378619,"[22, 0, 232]",232,a,0.06335794343613088,colour,0.5
008,78,0,2,15,14,714,1107.1249034092762,1108.0304568686988,"[42, 0, 212]",212,a,0.38254657411016524,colour,0.5
008,78,0,2,15,15,715,1108.5437727887183,1109.1184348890092,"[74, 0, 180]",180,l,0.052266857121139765,colour,0.5
008,78,0,2,15,16,716,1109.6309099486098,1110.9984907836188,"[14, 0, 240]",240,a,0.8508368826005608,colour,0.5
008,78,0,2,15,17,717,1111.5204071102198,1112.7584879635833,"[53, 0, 201]",201,a,0.7194082390051335,colour,0.5
008,78,0,2,15,18,718,1113.2697933018208,1114.5903997768182,"[19, 0, 235]",235,a,0.8034832493867725,colour,0.5
008,78,0,2,15,19,719,1115.1091732156929,1116.2064353583846,"[57, 0, 197]",197,a,0.5796084071043879,colour,0.5
008,78,0,2,15,20,720,1116.721952481661,1117.9264591783285,"[55, 0, 199]",199,a,0.6754361644852906,colour,0.5
008,78,0,2,15,21,721,1118.4844009568915,1119.6545056330506,"[51, 0, 203]",203,a,0.6402980466373265,colour,0.5
008,78,0,2,15,22,722,1120.1699723440688,1120.8544614436105,"[86, 0, 168]",168,l,0.1674438554327935,colour,0.5
008,78,0,2,15,23,723,1121.3745806529187,1123.1744562764652,"[20, 0, 234]",234,a,1.268455802462995,colour,0.5
008,78,0,2,15,24,724,1123.695143410936,1125.1664316719398,"[44, 0, 210]",210,a,0.9522253456525505,colour,0.5
008,78,0,2,15,25,725,1125.6780099452008,1126.9024247499183,"[24, 0, 230]",230,a,0.6953210355713964,colour,0.5
008,78,0,2,15,26,726,1127.4127927355003,1128.030421028845,"[88, 0, 166]",166,l,0.10145384166389704,colour,0.5
008,78,0,2,15,27,727,1128.5702691462357,1129.366417808691,"[90, 0, 164]",164,l,0.2759652566164732,colour,0.5
008,78,0,2,15,28,728,1129.879659685772,1130.4064203135204,"[38, 0, 216]",216,a,0.003306727623566985,colour,0.5
008,78,0,2,15,29,729,1130.91793596535,1131.4704497638159,"[40, 0, 214]",214,a,0.02919223066419363,colour,0.5
008,78,0,2,15,30,730,1131.9805125191342,1132.6065017608926,"[58, 0, 196]",196,a,0.10274132317863405,colour,0.5
008,78,0,2,15,31,731,1133.1236734294798,1133.8224039862398,"[98, 0, 156]",156,l,0.17540820129215717,colour,0.5
008,78,0,2,15,32,732,1134.342520832317,1136.3503894738387,"[50, 0, 204]",204,a,1.4846037873066962,colour,0.5
008,78,0,2,15,33,733,1136.8591182741802,1138.2783885884564,"[49, 0, 205]",205,a,0.8958624943625182,colour,0.5
008,78,0,2,15,34,734,1138.7920534557197,1140.0064275602344,"[31, 0, 223]",223,a,0.6872038773726672,colour,0.5
008,78,0,2,15,35,735,1140.520907294238,1141.7263934847433,"[23, 0, 231]",231,a,0.6879155563656241,colour,0.5
008,78,0,2,15,36,736,1142.238545984961,1143.3504060152918,"[27, 0, 227]",227,a,0.5933898526709527,colour,0.5
008,78,0,2,15,37,737,1143.8635651848745,1145.0704231397249,"[41, 0, 213]",213,a,0.689410594291985,colour,0.5
008,78,0,2,15,38,738,1145.5805859318934,1146.702419708483,"[39, 0, 215]",215,a,0.6040496779605746,colour,0.5
008,78,0,2,15,39,739,1147.2120051230304,1148.2864179189783,"[2, 0, 252]",252,a,0.5513346246443689,colour,0.5
008,78,0,2,15,40,740,1148.799080843106,1149.8223772046622,"[25, 0, 229]",229,a,0.5021933261305094,colour,0.5
008,78,0,2,15,41,741,1150.3288910172414,1151.022420055233,"[83, 0, 171]",171,l,0.17021101457066834,colour,0.5
008,78,0,2,15,42,742,1151.5321055063978,1152.4143925362732,"[79, 0, 175]",175,l,0.3589697943534702,colour,0.5
008,78,0,2,15,43,743,1152.9228287094738,1153.582418101607,"[63, 0, 191]",191,a,0.13313911482691765,colour,0.5
008,78,0,2,15,44,744,1154.100702384254,1154.9183400508482,"[29, 0, 225]",225,a,0.29427671432495117,colour,0.5
008,78,0,2,15,45,745,1155.4393367480952,1156.1823418531567,"[30, 0, 224]",224,a,0.22045035450719297,colour,0.5
008,78,0,2,15,46,746,1156.6894334373064,1157.718388572801,"[71, 0, 183]",183,a,0.5056658629328012,colour,0.5
008,78,0,2,15,47,747,1158.2289125213865,1161.5024095473345,"[76, 0, 178]",178,l,2.7561138623859733,colour,0.5
008,78,0,2,15,48,748,1162.0186816726346,1162.7343452277128,"[82, 0, 172]",172,l,0.19216357520781457,colour,0.5
008,78,0,2,15,49,749,1163.2517027913127,1164.3183276841883,"[85, 0, 169]",169,l,0.5432962356135249,colour,0.5
008,78,0,2,15,50,750,1164.817700681975,1165.446355470689,"[1, 0, 253]",253,a,0.10537457466125488,colour,0.5
008,78,0,2,16,1,751,1170.9259688404854,1171.526358511299,"[44, 0, 210]",210,a,0.07625638716854155,colour,0.5
008,78,0,2,16,2,752,1172.0375665696338,1172.7263418911025,"[21, 0, 233]",233,a,0.16534190136007965,colour,0.5
008,78,0,2,16,3,753,1173.23331610905,1174.094359894516,"[70, 0, 184]",184,a,0.3376867715269327,colour,0.5
008,78,0,2,16,4,754,1174.6083674074616,1175.1903349498753,"[1, 0, 253]",253,a,0.05859004845842719,colour,0.5
008,78,0,2,16,5,755,1175.7022263302933,1176.438378521707,"[33, 0, 221]",221,a,0.21310631535016,colour,0.5
008,78,0,2,16,6,756,1176.937762153335,1177.6543898424134,"[0, 0, 254]",254,a,0.19316473067738116,colour,0.5
008,78,0,2,16,7,757,1178.1718856459484,1179.8463564948179,"[89, 0, 165]",165,l,1.1506750907283276,colour,0.5
008,78,0,2,16,8,758,1180.3486415869556,1181.0143993892707,"[61, 0, 193]",193,a,0.1424988559447229,colour,0.5
008,78,0,2,16,9,759,1181.5231108602602,1182.3423231218476,"[77, 0, 177]",177,a,0.3021284204442054,colour,0.5
008,78,0,2,16,10,760,1182.8607759703882,1183.5263577236328,"[69, 0, 185]",185,a,0.14734748913906515,colour,0.5
008,78,0,2,16,11,761,1184.0432363711298,1184.630353051005,"[5, 0, 249]",249,a,0.06377148139290512,colour,0.5
008,78,0,2,16,12,762,1185.137118924642,1185.7903433782049,"[48, 0, 206]",206,a,0.12995172245427966,colour,0.5
008,78,0,2,16,13,763,1186.2997090267017,1186.9103544373065,"[27, 0, 227]",227,a,0.08151973993517458,colour,0.5
008,78,0,2,16,14,764,1187.4318647091277,1188.2383494558744,"[15, 0, 239]",239,a,0.2806500499136746,colour,0.5
008,78,0,2,16,15,765,1188.760612366721,1189.4304003913421,"[6, 0, 248]",248,a,0.11263354332186282,colour,0.5
008,78,0,2,16,16,766,1189.9439136281144,1190.6303345402703,"[86, 0, 168]",168,l,0.15472106682136655,colour,0.5
008,78,0,2,16,17,767,1191.1484695551917,1191.8223346695304,"[88, 0, 166]",166,l,0.15161362499929965,colour,0.5
008,78,0,2,16,18,768,1192.3335100386757,1194.21435559378,"[22, 0, 232]",232,a,1.3626979370601475,colour,0.5
008,78,0,2,16,19,769,1194.7375968170818,1195.9263697753195,"[28, 0, 226]",226,a,0.6707702754065394,colour,0.5
008,78,0,2,16,20,770,1196.4406049309764,1197.8942993211094,"[29, 0, 225]",225,a,0.9283303387928754,colour,0.5
008,78,0,2,16,21,771,1198.4032711239997,1198.9503549728543,"[94, 0, 160]",160,l,0.027691284893080592,colour,0.5
008,78,0,2,16,22,772,1199.462266439572,1200.2463248295244,"[96, 0, 158]",158,l,0.26115035987459123,colour,0.5
008,78,0,2,16,23,773,1200.7659678794444,1201.30235488154,"[18, 0, 236]",236,a,0.01801843661814928,colour,0.5
008,78,0,2,16,24,774,1201.816891329363,1203.0703439768404,"[26, 0, 228]",228,a,0.7214751408901066,colour,0.5
008,78,0,2,16,25,775,1203.5947096294258,1204.8223397894762,"[54, 0, 200]",200,a,0.708412857260555,colour,0.5
008,78,0,2,16,26,776,1205.3443352791946,1206.59034109395,"[31, 0, 223]",223,a,0.7281008057761937,colour,0.5
008,78,0,2,16,27,777,1207.104369874578,1207.8143096712884,"[49, 0, 205]",205,a,0.19168229587376118,colour,0.5
008,78,0,2,16,28,778,1208.3192232891452,1209.494295540033,"[52, 0, 202]",202,a,0.6634171777404845,colour,0.5
008,78,0,2,16,29,779,1210.0083916683216,1210.8702873417642,"[41, 0, 213]",213,a,0.33860206860117614,colour,0.5
008,78,0,2,16,30,780,1211.383496923605,1212.134307260858,"[30, 0, 224]",224,a,0.2262678479310125,colour,0.5
008,78,0,2,16,31,781,1212.6504186971579,1213.4303090190515,"[45, 0, 209]",209,a,0.25657269242219627,colour,0.5
008,78,0,2,16,32,782,1213.9516412727535,1214.726261940319,"[20, 0, 234]",234,a,0.25132588134147227,colour,0.5
008,78,0,2,16,33,783,1215.2330010326114,1215.910289452877,"[90, 0, 164]",164,l,0.15637561213225126,colour,0.5
008,78,0,2,16,34,784,1216.4183695893735,1216.9742913339287,"[63, 0, 191]",191,a,0.03251549997366965,colour,0.5
008,78,0,2,16,35,785,1217.4810308199376,1218.0782586981077,"[51, 0, 203]",203,a,0.07091387128457427,colour,0.5
008,78,0,2,16,36,786,1218.5834436756559,1219.4382729711942,"[50, 0, 204]",204,a,0.3266149836126715,colour,0.5
008,78,0,2,16,37,787,1219.9495735832024,1220.590274140006,"[80, 0, 174]",174,l,0.12345799594186246,colour,0.5
008,78,0,2,16,38,788,1221.1024593294133,1222.3823067222256,"[71, 0, 183]",183,a,0.7544888553675264,colour,0.5
008,78,0,2,16,39,789,1222.8968262344133,1223.5423092585988,"[59, 0, 195]",195,a,0.12821919564157724,colour,0.5
008,78,0,2,16,40,790,1224.0558752706274,1224.7102938639,"[3, 0, 251]",251,a,0.12281839060597122,colour,0.5
008,78,0,2,16,41,791,1225.2286360417493,1225.9743118137121,"[64, 0, 190]",190,a,0.22780108894221485,colour,0.5
008,78,0,2,16,42,792,1226.496117863804,1227.0863959423732,"[39, 0, 215]",215,a,0.06783360498957336,colour,0.5
008,78,0,2,16,43,793,1227.5990171188023,1228.38228584826,"[7, 0, 247]",247,a,0.2525271102786064,colour,0.5
008,78,0,2,16,44,794,1228.892248566961,1229.8942662379704,"[53, 0, 201]",201,a,0.4837629268877208,colour,0.5
008,78,0,2,16,45,795,1230.4036803296767,1232.7023173086345,"[23, 0, 231]",231,a,1.775421749567613,colour,0.5
008,78,0,2,16,46,796,1233.2173980509397,1234.7263678847812,"[65, 0, 189]",189,a,0.9896536758169532,colour,0.5
008,78,0,2,16,47,797,1235.2338308652397,1236.2942499327473,"[55, 0, 199]",199,a,0.5372101394459605,colour,0.5
008,78,0,2,16,48,798,1236.8120316681452,1237.8062689192593,"[74, 0, 180]",180,a,0.47091135079972446,colour,0.5
008,78,0,2,16,49,799,1238.3277169635985,1239.4302708159667,"[84, 0, 170]",170,a,0.5785209992900491,colour,0.5
008,78,0,2,16,50,800,1239.9506231818814,1240.550292902859,"[98, 0, 156]",156,l,0.08154415828175843,colour,0.5
