id,age,condition,counterbalance,block,trialinblock,trial,tstart,tend,trialstim,trialintensity,response,RT,trialtype,colourfreq
143,22,1,1,Practice,1,NA,5.699926987290382e-06,0.6697661001235247,"[34, 0, 220]",220,a,0.13003730005584657,colour,0.5
143,22,1,1,Practice,2,NA,1.1882583000697196,1.981823500012979,"[68, 0, 186]",186,l,0.2686995998956263,colour,0.5
143,22,1,1,Practice,3,NA,2.5022740999702364,5.461798200150952,"[59, 0, 195]",195,l,2.441917800111696,colour,0.5
143,22,1,1,Practice,4,NA,5.981121100019664,7.917782600037754,"[40, 0, 214]",214,a,1.413563200039789,colour,0.5
143,22,1,1,Practice,5,NA,8.433971000136808,9.3737677000463,"[57, 0, 197]",197,l,0.42739100009202957,colour,0.5
143,22,1,1,Practice,6,NA,9.89196790009737,11.701828600140288,"[56, 0, 198]",198,a,1.2872535001952201,colour,0.5
143,22,1,1,Practice,7,NA,12.22070370009169,13.869770700111985,"[48, 0, 206]",206,a,1.1261699001770467,colour,0.5
143,22,1,1,Practice,8,NA,14.376669900026172,14.941907700151205,"[26, 0, 228]",228,a,0.042038500076159835,colour,0.5
143,22,1,1,Practice,9,NA,15.454734100028872,15.997782899998128,"[24, 0, 230]",230,a,0.0202460999134928,colour,0.5
143,22,1,1,Practice,10,NA,16.51721079996787,18.68574280012399,"[99, 0, 155]",155,l,1.6452797001693398,colour,0.5
143,22,1,1,1,1,1,4.133804699871689,5.119987600017339,"[72, 0, 182]",182,l,0.4610806000418961,colour,0.5
143,22,1,1,1,2,2,5.635242899879813,6.816007999936119,"[85, 0, 169]",169,l,0.6576914999168366,colour,0.5
143,22,1,1,1,3,3,7.310291499830782,8.584003099938855,"[26, 0, 228]",228,a,0.7505729000549763,colour,0.5
143,22,1,1,1,4,4,9.091397600015625,10.024022199911997,"[39, 0, 215]",215,a,0.40979709988459945,colour,0.5
143,22,1,1,1,5,5,10.54096439993009,11.559989499859512,"[13, 0, 241]",241,a,0.5018807000014931,colour,0.5
143,22,1,1,1,6,6,12.066241099964827,12.631975899916142,"[66, 0, 188]",188,l,0.04858599998988211,colour,0.5
143,22,1,1,1,7,7,13.129638599930331,13.856013200012967,"[58, 0, 196]",196,l,0.20312199997715652,colour,0.5
143,22,1,1,1,8,8,14.365843799896538,15.759972699917853,"[24, 0, 230]",230,a,0.8713859000708908,colour,0.5
143,22,1,1,1,9,9,16.2718778999988,16.911936199991032,"[60, 0, 194]",194,l,0.11702270014211535,colour,0.5
143,22,1,1,1,10,10,17.42925970000215,19.52811239985749,"[23, 0, 231]",231,a,1.576482499949634,colour,0.5
143,22,1,1,1,11,11,20.03868309990503,21.071970500051975,"[11, 0, 243]",243,a,0.50802670000121,colour,0.5
143,22,1,1,1,12,12,21.588668499840423,22.49602079996839,"[36, 0, 218]",218,a,0.39624059991911054,colour,0.5
143,22,1,1,1,13,13,23.002638699952513,23.85601249989122,"[34, 0, 220]",220,a,0.3301142998971045,colour,0.5
143,22,1,1,1,14,14,24.37765649985522,25.36811919999309,"[86, 0, 168]",168,l,0.4674964000005275,colour,0.5
143,22,1,1,1,15,15,25.877440799959004,27.016032899962738,"[47, 0, 207]",207,l,0.6127017999533564,colour,0.5
143,22,1,1,1,16,16,27.534280200023204,28.415961799910292,"[4, 0, 250]",250,a,0.35861500003375113,colour,0.5
143,22,1,1,1,17,17,28.91250630002469,29.96000749990344,"[59, 0, 195]",195,l,0.5247005000710487,colour,0.5
143,22,1,1,1,18,18,30.47476979997009,31.328293199883774,"[80, 0, 174]",174,l,0.3302028998732567,colour,0.5
143,22,1,1,1,19,19,31.85270609986037,32.896025700028986,"[92, 0, 162]",162,l,0.5256928000599146,colour,0.5
143,22,1,1,1,20,20,33.40965609997511,34.904003700008616,"[79, 0, 175]",175,l,0.9685778000857681,colour,0.5
143,22,1,1,1,21,21,35.41189679992385,36.58395909983665,"[87, 0, 167]",167,l,0.6491098999977112,colour,0.5
143,22,1,1,1,22,22,37.099212100030854,38.135969299823046,"[63, 0, 191]",191,l,0.5195066998712718,colour,0.5
143,22,1,1,1,23,23,38.65549909998663,39.311964799882844,"[98, 0, 156]",156,l,0.1335668999236077,colour,0.5
143,22,1,1,1,24,24,39.82723469985649,40.45597409992479,"[12, 0, 242]",242,a,0.10487379995174706,colour,0.5
143,22,1,1,1,25,25,40.962601999985054,42.23195909988135,"[32, 0, 222]",222,a,0.7464484998490661,colour,0.5
143,22,1,1,1,26,26,42.73472910001874,43.61596019985154,"[74, 0, 180]",180,l,0.3698743998538703,colour,0.5
143,22,1,1,1,27,27,44.12875699996948,44.97594609996304,"[82, 0, 172]",172,l,0.3244624000508338,colour,0.5
143,22,1,1,1,28,28,45.48889999999665,46.2959626999218,"[8, 0, 246]",246,a,0.28308199997991323,colour,0.5
143,22,1,1,1,29,29,46.79288209998049,47.71196929994039,"[91, 0, 163]",163,l,0.39604689995758235,colour,0.5
143,22,1,1,1,30,30,48.23026750003919,49.67995479982346,"[51, 0, 203]",203,l,0.9269280999433249,colour,0.5
143,22,1,1,1,31,31,50.19897669996135,51.3520040998701,"[40, 0, 214]",214,a,0.6297620998229831,colour,0.5
143,22,1,1,1,32,32,51.87065499997698,52.863975799875334,"[25, 0, 229]",229,a,0.4701089998707175,colour,0.5
143,22,1,1,1,33,33,53.37079429998994,54.4239209999796,"[94, 0, 160]",160,l,0.5420928001403809,colour,0.5
143,22,1,1,1,34,34,54.936292099999264,55.98396330000833,"[78, 0, 176]",176,l,0.5246060001663864,colour,0.5
143,22,1,1,1,35,35,56.49877529987134,57.44796779984608,"[15, 0, 239]",239,a,0.4383017998188734,colour,0.5
143,22,1,1,1,36,36,57.95644770003855,59.015983999939635,"[18, 0, 236]",236,a,0.5365013999398798,colour,0.5
143,22,1,1,1,37,37,59.53516700002365,60.584004799835384,"[29, 0, 225]",225,a,0.5262679997831583,colour,0.5
143,22,1,1,1,38,38,61.09735159995034,62.02397420001216,"[70, 0, 184]",184,l,0.41436529997736216,colour,0.5
143,22,1,1,1,39,39,62.52740629995242,63.44000760000199,"[20, 0, 234]",234,a,0.38816710002720356,colour,0.5
143,22,1,1,1,40,40,63.95047429995611,64.89594529988244,"[7, 0, 247]",247,a,0.4341910998336971,colour,0.5
143,22,1,1,1,41,41,65.40685270004906,66.99196849996224,"[49, 0, 205]",205,a,1.0621380999218673,colour,0.5
143,22,1,1,1,42,42,67.50060679996386,68.64001099998131,"[57, 0, 197]",197,l,0.6160091001074761,colour,0.5
143,22,1,1,1,43,43,69.1568060000427,70.21600529993884,"[62, 0, 192]",192,l,0.5364314999897033,colour,0.5
143,22,1,1,1,44,44,70.72185459989123,71.6159808000084,"[5, 0, 249]",249,a,0.38081420003436506,colour,0.5
143,22,1,1,1,45,45,72.13112549996004,73.11193499993533,"[52, 0, 202]",202,l,0.47095529991202056,colour,0.5
143,22,1,1,1,46,46,73.60731310001574,74.83995880000293,"[69, 0, 185]",185,l,0.7090736001264304,colour,0.5
143,22,1,1,1,47,47,75.3595236998517,76.47199879982509,"[30, 0, 224]",224,a,0.5890823998488486,colour,0.5
143,22,1,1,1,48,48,76.97194119985215,78.02395249996334,"[38, 0, 216]",216,a,0.5253552999347448,colour,0.5
143,22,1,1,1,49,49,78.53794109984301,79.55194929987192,"[81, 0, 173]",173,l,0.4910944998264313,colour,0.5
143,22,1,1,1,50,50,80.06906899996102,80.96789909992367,"[2, 0, 252]",252,a,0.38501000008545816,colour,0.5
143,22,1,1,2,1,51,85.41317479987629,86.22389389993623,"[48, 0, 206]",206,l,0.297480900073424,colour,0.5
143,22,1,1,2,2,52,86.73114990000613,87.7119191000238,"[1, 0, 253]",253,a,0.4574883000459522,colour,0.5
143,22,1,1,2,3,53,88.23114119982347,89.12819970003329,"[56, 0, 198]",198,l,0.37428780016489327,colour,0.5
143,22,1,1,2,4,54,89.63734909985214,90.58394229994155,"[77, 0, 177]",177,l,0.4232361000031233,colour,0.5
143,22,1,1,2,5,55,91.09090199996717,92.05598039994948,"[60, 0, 194]",194,l,0.4407723001204431,colour,0.5
143,22,1,1,2,6,56,92.5759236998856,93.47191139985807,"[71, 0, 183]",183,l,0.37283769994974136,colour,0.5
143,22,1,1,2,7,57,93.98213299992494,94.78402010002173,"[18, 0, 236]",236,a,0.2789627001620829,colour,0.5
143,22,1,1,2,8,58,95.29446460003965,96.20797619991936,"[95, 0, 159]",159,l,0.39030069997534156,colour,0.5
143,22,1,1,2,9,59,96.71626090002246,97.57593729998916,"[5, 0, 249]",249,a,0.33661999995820224,colour,0.5
143,22,1,1,2,10,60,98.09112180001102,99.14393169991672,"[68, 0, 186]",186,l,0.5293296999298036,colour,0.5
143,22,1,1,2,11,61,99.65346669987775,100.63190859998576,"[35, 0, 219]",219,a,0.4550489999819547,colour,0.5
143,22,1,1,2,12,62,101.12861180002801,102.02392279985361,"[87, 0, 167]",167,l,0.3724187999032438,colour,0.5
143,22,1,1,2,13,63,102.5346539998427,103.60792750003748,"[64, 0, 190]",190,l,0.5465122000314295,colour,0.5
143,22,1,1,2,14,64,104.11667719995603,105.19987239991315,"[99, 0, 155]",155,l,0.5603275999892503,colour,0.5
143,22,1,1,2,15,65,105.71041399985552,106.75994869996794,"[16, 0, 238]",238,a,0.523170700063929,colour,0.5
143,22,1,1,2,16,66,107.27597599988803,108.27997469995171,"[27, 0, 227]",227,a,0.4930410000961274,colour,0.5
143,22,1,1,2,17,67,108.79480669996701,110.11994670005515,"[37, 0, 217]",217,a,0.8109089001081884,colour,0.5
143,22,1,1,2,18,68,110.61672209994867,111.71994179999456,"[17, 0, 237]",237,a,0.5864632001612335,colour,0.5
143,22,1,1,2,19,69,112.23582950001583,113.35997250000946,"[58, 0, 196]",196,l,0.598742000060156,colour,0.5
143,22,1,1,2,20,70,113.8765406999737,115.29594659991562,"[94, 0, 160]",160,l,0.8965715998783708,colour,0.5
143,22,1,1,2,21,71,115.80130649986677,116.92800279986113,"[55, 0, 199]",199,l,0.6033228999003768,colour,0.5
143,22,1,1,2,22,72,117.44582879985683,118.503940399969,"[84, 0, 170]",170,l,0.5347873999271542,colour,0.5
143,22,1,1,2,23,73,119.01198019995354,120.0559316999279,"[76, 0, 178]",178,l,0.5209629000164568,colour,0.5
143,22,1,1,2,24,74,120.57432959997095,121.5439152000472,"[39, 0, 215]",215,a,0.4555219002068043,colour,0.5
143,22,1,1,2,25,75,122.06483909999952,123.33589340001345,"[9, 0, 245]",245,a,0.7477285000495613,colour,0.5
143,22,1,1,2,26,76,123.84605539985932,125.07992059993558,"[46, 0, 208]",208,a,0.7107446000445634,colour,0.5
143,22,1,1,2,27,77,125.58327859989367,126.623914900003,"[57, 0, 197]",197,l,0.5269349999725819,colour,0.5
143,22,1,1,2,28,78,127.12393520004116,128.31992979999632,"[45, 0, 209]",209,a,0.6729145999997854,colour,0.5
143,22,1,1,2,29,79,128.82695849984884,129.77589499996975,"[86, 0, 168]",168,l,0.42482830001972616,colour,0.5
143,22,1,1,2,30,80,130.29561379994266,131.11994030000642,"[42, 0, 212]",212,a,0.30118210008367896,colour,0.5
143,22,1,1,2,31,81,131.63913589995354,132.5599483998958,"[11, 0, 243]",243,a,0.39738440001383424,colour,0.5
143,22,1,1,2,32,82,133.06772960000671,134.15988759999163,"[12, 0, 242]",242,a,0.5630296000745147,colour,0.5
143,22,1,1,2,33,83,134.66743259993382,135.64793320000172,"[85, 0, 169]",169,l,0.4575049001723528,colour,0.5
143,22,1,1,2,34,84,136.16735580004752,137.16793819982558,"[91, 0, 163]",163,l,0.4844066998921335,colour,0.5
143,22,1,1,2,35,85,137.6762230999302,138.6239101998508,"[81, 0, 173]",173,l,0.4238654999062419,colour,0.5
143,22,1,1,2,36,86,139.1297126999125,139.95993219991215,"[93, 0, 161]",161,l,0.3175589998718351,colour,0.5
143,22,1,1,2,37,87,140.478926199954,141.32798930001445,"[21, 0, 233]",233,a,0.3382032001391053,colour,0.5
143,22,1,1,2,38,88,141.84141019987874,142.64793380000629,"[97, 0, 157]",157,l,0.2816695000510663,colour,0.5
143,22,1,1,2,39,89,143.1556732999161,144.04787219990976,"[70, 0, 184]",184,l,0.3693013000302017,colour,0.5
143,22,1,1,2,40,90,144.56165829999372,145.37593770003878,"[49, 0, 205]",205,a,0.29129720013588667,colour,0.5
143,22,1,1,2,41,91,145.87820359994657,146.92796859983355,"[47, 0, 207]",207,a,0.5265532999765128,colour,0.5
143,22,1,1,2,42,92,147.44026049994864,148.39990509999916,"[14, 0, 240]",240,a,0.44801430008374155,colour,0.5
143,22,1,1,2,43,93,148.91560039995238,149.87189469998702,"[69, 0, 185]",185,l,0.43346279999241233,colour,0.5
143,22,1,1,2,44,94,150.3862886999268,151.13595709996298,"[44, 0, 210]",210,a,0.22723870002664626,colour,0.5
143,22,1,1,2,45,95,151.65171439992264,152.4078643999528,"[29, 0, 225]",225,a,0.24341270001605153,colour,0.5
143,22,1,1,2,46,96,152.92251829989254,153.76785369985737,"[90, 0, 164]",164,l,0.3202565999235958,colour,0.5
143,22,1,1,2,47,97,154.28665749984793,154.86393169988878,"[38, 0, 216]",216,a,0.05535959987901151,colour,0.5
143,22,1,1,2,48,98,155.3796424998436,156.67987959994934,"[2, 0, 252]",252,a,0.7779477001167834,colour,0.5
143,22,1,1,2,49,99,157.19219289999455,158.0158670998644,"[4, 0, 250]",250,a,0.3008496998809278,colour,0.5
143,22,1,1,2,50,100,158.53569859988056,159.2879129999783,"[73, 0, 181]",181,l,0.228904000017792,colour,0.5
143,22,1,1,3,1,101,169.442535799928,170.60790820000693,"[30, 0, 224]",224,a,0.6416658000089228,colour,0.5
143,22,1,1,3,2,102,171.11517419992015,171.71984949987382,"[55, 0, 199]",199,l,0.08219429990276694,colour,0.5
143,22,1,1,3,3,103,172.2426611999981,173.0559157000389,"[29, 0, 225]",225,a,0.2896385001949966,colour,0.5
143,22,1,1,3,4,104,173.57065070001408,174.1519051999785,"[80, 0, 174]",174,l,0.05786529998295009,colour,0.5
143,22,1,1,3,5,105,174.6597463998478,175.20794470002875,"[3, 0, 251]",251,a,0.03328740014694631,colour,0.5
143,22,1,1,3,6,106,175.73202869994566,176.7998942998238,"[75, 0, 179]",179,l,0.5424137997906655,colour,0.5
143,22,1,1,3,7,107,177.31234129983932,177.9521214000415,"[76, 0, 178]",178,l,0.11701150005683303,colour,0.5
143,22,1,1,3,8,108,178.46855299989693,179.39184219995514,"[82, 0, 172]",172,l,0.4006473000627011,colour,0.5
143,22,1,1,3,9,109,179.89348599989899,180.775883999886,"[7, 0, 247]",247,a,0.35673479991964996,colour,0.5
143,22,1,1,3,10,110,181.28691749996506,182.07185339997523,"[32, 0, 222]",222,a,0.26231110002845526,colour,0.5
143,22,1,1,3,11,111,182.57696449989453,183.40789059991948,"[97, 0, 157]",157,l,0.30854319990612566,colour,0.5
143,22,1,1,3,12,112,183.9234782999847,184.71183119993657,"[40, 0, 214]",214,a,0.2659175998996943,colour,0.5
143,22,1,1,3,13,113,185.21075229998678,186.07186349993572,"[27, 0, 227]",227,a,0.3377149999141693,colour,0.5
143,22,1,1,3,14,114,186.5889758998528,187.42384999990463,"[83, 0, 171]",171,l,0.3117569999303669,colour,0.5
143,22,1,1,3,15,115,187.9326317999512,188.7838820000179,"[34, 0, 220]",220,a,0.3280003000982106,colour,0.5
143,22,1,1,3,16,116,189.27939089993015,190.19180739996955,"[62, 0, 192]",192,l,0.389889300102368,colour,0.5
143,22,1,1,3,17,117,190.7011650998611,191.71183229982853,"[61, 0, 193]",193,l,0.48740659980103374,colour,0.5
143,22,1,1,3,18,118,192.232312399894,193.47188570001163,"[90, 0, 164]",164,l,0.7163057001307607,colour,0.5
143,22,1,1,3,19,119,193.984100200003,194.90386980003677,"[65, 0, 189]",189,l,0.3923751001711935,colour,0.5
143,22,1,1,3,20,120,195.4100205998402,196.2398190998938,"[13, 0, 241]",241,a,0.3064705999568105,colour,0.5
143,22,1,1,3,21,121,196.75368910003453,197.6238448000513,"[0, 0, 254]",254,a,0.3593271002173424,colour,0.5
143,22,1,1,3,22,122,198.13374479999766,199.0958308998961,"[51, 0, 203]",203,l,0.448219700017944,colour,0.5
143,22,1,1,3,23,123,199.60870480001904,200.5118207000196,"[74, 0, 180]",180,l,0.37986770016141236,colour,0.5
143,22,1,1,3,24,124,201.03043819987215,201.9759158999659,"[20, 0, 234]",234,a,0.4222343999426812,colour,0.5
143,22,1,1,3,25,125,202.48339760000817,203.27982159983367,"[46, 0, 208]",208,a,0.27312059979885817,colour,0.5
143,22,1,1,3,26,126,203.7938081000466,204.64783299993724,"[78, 0, 176]",176,l,0.33100060001015663,colour,0.5
143,22,1,1,3,27,127,205.1692708998453,205.7038775999099,"[71, 0, 183]",183,l,0.011261699954047799,colour,0.5
143,22,1,1,3,28,128,206.21811899985187,207.3598547000438,"[33, 0, 221]",221,a,0.6185285001993179,colour,0.5
143,22,1,1,3,29,129,207.87492670002393,209.04778549983166,"[64, 0, 190]",190,l,0.6502423000056297,colour,0.5
143,22,1,1,3,30,130,209.56159569998272,210.45582599984482,"[26, 0, 228]",228,a,0.3709368999116123,colour,0.5
143,22,1,1,3,31,131,210.9677038998343,211.94378899992444,"[37, 0, 217]",217,a,0.45277959993109107,colour,0.5
143,22,1,1,3,32,132,212.45191790000536,213.22379689989612,"[6, 0, 248]",248,a,0.26123579987324774,colour,0.5
143,22,1,1,3,33,133,213.72649839986116,214.52783989999443,"[31, 0, 223]",223,a,0.2779643000103533,colour,0.5
143,22,1,1,3,34,134,215.03894590004347,215.91988940001465,"[52, 0, 202]",202,l,0.3688762001693249,colour,0.5
143,22,1,1,3,35,135,216.4338976999279,217.33584179985337,"[12, 0, 242]",242,a,0.3788071998860687,colour,0.5
143,22,1,1,3,36,136,217.85561480000615,218.67180239991285,"[10, 0, 244]",244,a,0.29310110001824796,colour,0.5
143,22,1,1,3,37,137,219.18359029991552,219.97580679995008,"[22, 0, 232]",232,a,0.26886390009894967,colour,0.5
143,22,1,1,3,38,138,220.4959650998935,221.2958332998678,"[60, 0, 194]",194,l,0.2765342998318374,colour,0.5
143,22,1,1,3,39,139,221.80843420000747,222.64780569984578,"[5, 0, 249]",249,a,0.31614549993537366,colour,0.5
143,22,1,1,3,40,140,223.16769180004485,223.919874999905,"[39, 0, 215]",215,a,0.22896800003945827,colour,0.5
143,22,1,1,3,41,141,224.4331938000396,225.23980390001088,"[77, 0, 177]",177,l,0.28333690017461777,colour,0.5
143,22,1,1,3,42,142,225.761299100006,226.51982509996742,"[67, 0, 187]",187,l,0.24282080004923046,colour,0.5
143,22,1,1,3,43,143,227.0255918998737,227.77585490001366,"[96, 0, 158]",158,l,0.22690420015715063,colour,0.5
143,22,1,1,3,44,144,228.2940205000341,229.37578559992835,"[47, 0, 207]",207,a,0.558522199979052,colour,0.5
143,22,1,1,3,45,145,229.88760719983838,230.4558365000412,"[4, 0, 250]",250,a,0.044902400113642216,colour,0.5
143,22,1,1,3,46,146,230.9599470999092,231.6798113998957,"[92, 0, 162]",162,l,0.19662739988416433,colour,0.5
143,22,1,1,3,47,147,232.1960554998368,233.08778860000893,"[1, 0, 253]",253,a,0.3799162001814693,colour,0.5
143,22,1,1,3,48,148,233.60787039995193,234.22383089992218,"[72, 0, 182]",182,l,0.09267259994521737,colour,0.5
143,22,1,1,3,49,149,234.73478569998406,235.48781299986877,"[73, 0, 181]",181,l,0.23008119990117848,colour,0.5
143,22,1,1,3,50,150,236.0003265000414,236.99980810005218,"[79, 0, 175]",175,l,0.4762458000332117,colour,0.5
143,22,1,1,4,1,151,241.56632269988768,242.52779399999417,"[85, 0, 169]",169,l,0.43727420014329255,colour,0.5
143,22,1,1,4,2,152,243.03584889997728,243.79977589985356,"[84, 0, 170]",170,l,0.24063359992578626,colour,0.5
143,22,1,1,4,3,153,244.31699239998125,245.20783749991097,"[49, 0, 205]",205,a,0.36761409998871386,colour,0.5
143,22,1,1,4,4,154,245.72315540001728,246.48775359988213,"[42, 0, 212]",212,a,0.24160019983537495,colour,0.5
143,22,1,1,4,5,155,247.00434209988452,247.80778789985925,"[82, 0, 172]",172,l,0.2802446000277996,colour,0.5
143,22,1,1,4,6,156,248.31658730003983,249.10378709994256,"[9, 0, 245]",245,a,0.2763040999416262,colour,0.5
143,22,1,1,4,7,157,249.6166892000474,250.41584929986857,"[27, 0, 227]",227,a,0.275969399837777,colour,0.5
143,22,1,1,4,8,158,250.91971779987216,251.71175749995746,"[44, 0, 210]",210,a,0.2658937999513,colour,0.5
143,22,1,1,4,9,159,252.21959979995154,252.97579959989525,"[54, 0, 200]",200,a,0.24534039990976453,colour,0.5
143,22,1,1,4,10,160,253.488287899876,254.25578600005247,"[89, 0, 165]",165,l,0.24424030003137887,colour,0.5
143,22,1,1,4,11,161,254.76944419997744,255.51984909991734,"[51, 0, 203]",203,a,0.23977129999548197,colour,0.5
143,22,1,1,4,12,162,256.0385054999497,256.8877760998439,"[66, 0, 188]",188,l,0.3261404999066144,colour,0.5
143,22,1,1,4,13,163,257.39773389999755,258.4237706998829,"[18, 0, 236]",236,a,0.5028601998928934,colour,0.5
143,22,1,1,4,14,164,258.9445199999027,259.7117606999818,"[80, 0, 174]",174,l,0.24400880001485348,colour,0.5
143,22,1,1,4,15,165,260.22548919986,261.4717568999622,"[60, 0, 194]",194,l,0.7229373001027852,colour,0.5
143,22,1,1,4,16,166,261.9911030998919,263.4398051998578,"[62, 0, 192]",192,l,0.9254749999381602,colour,0.5
143,22,1,1,4,17,167,263.95977179985493,264.5917680999264,"[13, 0, 241]",241,a,0.10863939998671412,colour,0.5
143,22,1,1,4,18,168,265.10031590005383,265.7757472000085,"[87, 0, 167]",167,l,0.15214280015788972,colour,0.5
143,22,1,1,4,19,169,266.2876484999433,267.0637650999706,"[36, 0, 218]",218,a,0.2527865001466125,colour,0.5
143,22,1,1,4,20,170,267.58448249986395,268.21577939996496,"[5, 0, 249]",249,a,0.10880089993588626,colour,0.5
143,22,1,1,4,21,171,268.7250707000494,269.5038224000018,"[92, 0, 162]",162,l,0.25559810013510287,colour,0.5
143,22,1,1,4,22,172,270.0218235999346,270.9677673999686,"[73, 0, 181]",181,l,0.4228775999508798,colour,0.5
143,22,1,1,4,23,173,271.4748056998942,272.09576299996115,"[4, 0, 250]",250,a,0.09780779993161559,colour,0.5
143,22,1,1,4,24,174,272.6152975000441,273.8398017999716,"[48, 0, 206]",206,a,0.701213699998334,colour,0.5
143,22,1,1,4,25,175,274.3495048000477,276.3757557000499,"[15, 0, 239]",239,a,1.5026878002099693,colour,0.5
143,22,1,1,4,26,176,276.8965292999055,277.51177969994023,"[1, 0, 253]",253,a,0.0919794999063015,colour,0.5
143,22,1,1,4,27,177,278.0214433998335,278.6718299998902,"[64, 0, 190]",190,l,0.12713190005160868,colour,0.5
143,22,1,1,4,28,178,279.19321789988317,279.7357914999593,"[29, 0, 225]",225,a,0.019347599940374494,colour,0.5
143,22,1,1,4,29,179,280.25562539999373,280.9117977998685,"[52, 0, 202]",202,l,0.13313460000790656,colour,0.5
143,22,1,1,4,30,180,281.4273881998379,282.03978660004213,"[79, 0, 175]",175,l,0.08816120005212724,colour,0.5
143,22,1,1,4,31,181,282.5532274998259,284.071750999894,"[20, 0, 234]",234,a,0.9956640000455081,colour,0.5
143,22,1,1,4,32,182,284.57152420002967,285.16787909995764,"[26, 0, 228]",228,a,0.07312529999762774,colour,0.5
143,22,1,1,4,33,183,285.6766953000333,286.71981729986146,"[22, 0, 232]",232,a,0.5200056999456137,colour,0.5
143,22,1,1,4,34,184,287.2407660000026,288.17580750002526,"[74, 0, 180]",180,l,0.4118272000923753,colour,0.5
143,22,1,1,4,35,185,288.6937434000429,289.33577260002494,"[71, 0, 183]",183,l,0.11873500002548099,colour,0.5
143,22,1,1,4,36,186,289.84339899988845,290.6077892999165,"[43, 0, 211]",211,a,0.24113059998489916,colour,0.5
143,22,1,1,4,37,187,291.12442500004545,291.78378179995343,"[67, 0, 187]",187,l,0.13608180009759963,colour,0.5
143,22,1,1,4,38,188,292.29609039984643,292.9597421998624,"[11, 0, 243]",243,a,0.1398545999545604,colour,0.5
143,22,1,1,4,39,189,293.45894379983656,294.3118161999155,"[53, 0, 201]",201,l,0.3356935998890549,colour,0.5
143,22,1,1,4,40,190,294.827620399883,295.4158232000191,"[93, 0, 161]",161,l,0.06485770014114678,colour,0.5
143,22,1,1,4,41,191,295.9373027998954,296.8077461000066,"[88, 0, 166]",166,l,0.34720010007731616,colour,0.5
143,22,1,1,4,42,192,297.3278326999862,297.9358208000194,"[47, 0, 207]",207,a,0.08168870001100004,colour,0.5
143,22,1,1,4,43,193,298.4558379999362,299.02377779991366,"[83, 0, 171]",171,l,0.04487530002370477,colour,0.5
143,22,1,1,4,44,194,299.52876250003465,300.43183819996193,"[76, 0, 178]",178,l,0.3799014000687748,colour,0.5
143,22,1,1,4,45,195,300.950477699982,301.79969340004027,"[14, 0, 240]",240,a,0.3259412001352757,colour,0.5
143,22,1,1,4,46,196,302.3096775000449,303.08777430001646,"[25, 0, 229]",229,a,0.25445970008149743,colour,0.5
143,22,1,1,4,47,197,303.6068243999034,304.46373309986666,"[2, 0, 252]",252,a,0.3337909998372197,colour,0.5
143,22,1,1,4,48,198,304.9816880999133,305.9277431999799,"[30, 0, 224]",224,a,0.4228107000235468,colour,0.5
143,22,1,1,4,49,199,306.4346781000495,307.2157590999268,"[72, 0, 182]",182,l,0.2578141998965293,colour,0.5
143,22,1,1,4,50,200,307.7314487998374,308.4797445998993,"[12, 0, 242]",242,a,0.2258361999411136,colour,0.5
143,22,1,1,5,1,201,313.9643912999891,315.71989990002476,"[55, 0, 199]",199,a,1.2320273001678288,colour,0.4
143,22,1,1,5,2,202,316.23094599996693,317.09596219984815,"[68, 0, 186]",186,l,0.3427705999929458,colour,0.4
143,22,1,1,5,3,203,317.6056523998268,318.52795989997685,"[54, 0, 200]",200,l,0.39973610010929406,colour,0.4
143,22,1,1,5,4,204,319.04294770001434,319.9438835999463,"[80, 0, 174]",174,l,0.3777421999257058,colour,0.4
143,22,1,1,5,5,205,320.46986029995605,321.31187630002387,"[59, 0, 195]",195,l,0.310325900092721,colour,0.4
143,22,1,1,5,6,206,321.8285171999596,322.663764399942,"[26, 0, 228]",228,a,0.3041914999485016,colour,0.4
143,22,1,1,5,7,207,323.1726438999176,324.0398424998857,"[28, 0, 226]",226,a,0.3475899000186473,colour,0.4
143,22,1,1,5,8,208,324.5421054000035,325.3837234999519,"[82, 0, 172]",172,l,0.3265813000034541,colour,0.4
143,22,1,1,5,9,209,325.8935260998551,326.68773430003785,"[20, 0, 234]",234,a,0.27472210000269115,colour,0.4
143,22,1,1,5,10,210,327.1982114999555,327.98372879996896,"[37, 0, 217]",217,a,0.26589039992541075,colour,0.4
143,22,1,1,5,11,211,328.49367760005407,329.27171789994463,"[65, 0, 189]",189,a,0.24636349990032613,colour,0.4
143,22,1,1,5,12,212,329.7784810999874,330.33577979984693,"[42, 0, 212]",212,a,0.02578549995087087,colour,0.4
143,22,1,1,5,13,213,330.83431930001825,331.70380599983037,"[3, 0, 251]",251,l,0.36079119984060526,colour,0.4
143,22,1,1,5,14,214,332.21646400005557,333.27173849986866,"[93, 0, 161]",161,l,0.5353546999394894,colour,0.4
143,22,1,1,5,15,215,333.78368859994225,335.0317595000379,"[70, 0, 184]",184,l,0.7292750000488013,colour,0.4
143,22,1,1,5,16,216,335.53995779994875,336.47181480005383,"[96, 0, 158]",158,l,0.41222570021636784,colour,0.4
143,22,1,1,5,17,217,336.9867322000209,337.9357524998486,"[78, 0, 176]",176,l,0.4257141000125557,colour,0.4
143,22,1,1,5,18,218,338.44611699995585,339.3757608998567,"[51, 0, 203]",203,a,0.40621989988721907,colour,0.4
143,22,1,1,5,19,219,339.88350789994,340.7837139000185,"[0, 0, 254]",254,a,0.3738451001700014,colour,0.4
143,22,1,1,5,20,220,341.2926175999455,342.1837214999832,"[39, 0, 215]",215,a,0.3677485000807792,colour,0.4
143,22,1,1,5,21,221,342.7004863000475,343.50371489999816,"[97, 0, 157]",157,l,0.29234080016613007,colour,0.4
143,22,1,1,5,22,222,344.00364020001143,344.9357715998776,"[67, 0, 187]",187,l,0.408842199947685,colour,0.4
143,22,1,1,5,23,223,345.4496251998935,346.2877897999715,"[63, 0, 191]",191,l,0.3137839001137763,colour,0.4
143,22,1,1,5,24,224,346.7962078000419,347.6157278998289,"[61, 0, 193]",193,l,0.2960897998418659,colour,0.4
143,22,1,1,5,25,225,348.12431259988807,349.31972419982776,"[56, 0, 198]",198,l,0.6721144998446107,colour,0.4
143,22,1,1,5,26,226,349.8273014998995,350.82372109987773,"[66, 0, 188]",188,l,0.47396390000358224,colour,0.4
143,22,1,1,5,27,227,351.3428064000327,352.25573970004916,"[69, 0, 185]",185,l,0.3897414000239223,colour,0.4
143,22,1,1,5,28,228,352.764643299859,353.77574079995975,"[57, 0, 197]",197,l,0.4879016000777483,colour,0.4
143,22,1,1,5,29,229,354.29388859984465,355.2077956998255,"[10, 0, 244]",244,a,0.39132739999331534,colour,0.4
143,22,1,1,5,30,230,355.71573199983686,356.83975219982676,"[48, 0, 206]",206,a,0.6007309998385608,colour,0.4
143,22,1,1,5,31,231,357.3579279000405,358.15970069984905,"[81, 0, 173]",173,l,0.27835689997300506,colour,0.4
143,22,1,1,5,32,232,358.661679700017,359.51969769992866,"[15, 0, 239]",239,a,0.33162819989956915,colour,0.4
143,22,1,1,5,33,233,360.03957539983094,360.89569119992666,"[35, 0, 219]",219,a,0.33571540005505085,colour,0.4
143,22,1,1,5,34,234,361.4117761000525,362.231775799999,"[1, 0, 253]",253,a,0.296731699956581,colour,0.4
143,22,1,1,5,35,235,362.7398049000185,363.58371019992046,"[24, 0, 230]",230,a,0.3209082998801023,colour,0.4
143,22,1,1,5,36,236,364.0990625999402,365.03168759983964,"[62, 0, 192]",192,l,0.4094127998687327,colour,0.4
143,22,1,1,5,37,237,365.55204109987244,366.8956837998703,"[36, 0, 218]",218,a,0.8203618000261486,colour,0.4
143,22,1,1,5,38,238,367.41125570004806,368.4877820999827,"[83, 0, 171]",171,l,0.5531425001099706,colour,0.4
143,22,1,1,5,39,239,369.00486440001987,369.97569509991445,"[89, 0, 165]",165,l,0.4475771998986602,colour,0.4
143,22,1,1,5,40,240,370.48914660001174,371.39171330002137,"[21, 0, 233]",233,a,0.3795284000225365,colour,0.4
143,22,1,1,5,41,241,371.91088779992424,372.9676878999453,"[73, 0, 181]",181,l,0.533446199959144,colour,0.4
143,22,1,1,5,42,242,373.4910442000255,374.9997083998751,"[87, 0, 167]",167,l,0.9853320999536663,colour,0.4
143,22,1,1,5,43,243,375.506500700023,376.3676785000134,"[2, 0, 252]",252,a,0.3381903001572937,colour,0.4
143,22,1,1,5,44,244,376.8815549998544,377.6636989999097,"[5, 0, 249]",249,a,0.2558134999126196,colour,0.4
143,22,1,1,5,45,245,378.1766983999405,379.1036614999175,"[46, 0, 208]",208,l,0.4005237999372184,colour,0.4
143,22,1,1,5,46,246,379.6078530000523,380.61570560000837,"[91, 0, 163]",163,l,0.48459120001643896,colour,0.4
143,22,1,1,5,47,247,381.12334039993584,382.0076939999126,"[16, 0, 238]",238,a,0.36008209991268814,colour,0.4
143,22,1,1,5,48,248,382.51562429987825,383.44766099983826,"[94, 0, 160]",160,l,0.4087385998573154,colour,0.4
143,22,1,1,5,49,249,383.9550125999376,384.7757341999095,"[98, 0, 156]",156,l,0.29824809986166656,colour,0.4
143,22,1,1,5,50,250,385.28301609982736,386.31969779985957,"[84, 0, 170]",170,l,0.5134166998323053,colour,0.4
143,22,1,1,6,1,251,394.97301539988257,395.599741499871,"[72, 0, 182]",182,l,0.10288119991309941,colour,0.28
143,22,1,1,6,2,252,396.11434990004636,396.86370949982665,"[92, 0, 162]",162,l,0.22521509998477995,colour,0.28
143,22,1,1,6,3,253,397.38271759985946,397.96769249998033,"[94, 0, 160]",160,l,0.06163370003923774,colour,0.28
143,22,1,1,6,4,254,398.477299900027,399.23968159989454,"[58, 0, 196]",196,l,0.23912180005572736,colour,0.28
143,22,1,1,6,5,255,399.75840559997596,400.5837073000148,"[75, 0, 179]",179,l,0.3002890001516789,colour,0.28
143,22,1,1,6,6,256,401.10476919985376,401.82368639996275,"[81, 0, 173]",173,l,0.19604920013807714,colour,0.28
143,22,1,1,6,7,257,402.33900459995493,403.16766489995643,"[34, 0, 220]",220,a,0.3008224999066442,colour,0.28
143,22,1,1,6,8,258,403.68739499989897,404.5436436999589,"[60, 0, 194]",194,l,0.33299800008535385,colour,0.28
143,22,1,1,6,9,259,405.0625477998983,405.7996904000174,"[16, 0, 238]",238,a,0.21515020006336272,colour,0.28
143,22,1,1,6,10,260,406.31104870000854,407.11169329984114,"[10, 0, 244]",244,a,0.27727099996991456,colour,0.28
143,22,1,1,6,11,261,407.6234460999258,408.23166619986296,"[14, 0, 240]",240,a,0.08523409999907017,colour,0.28
143,22,1,1,6,12,262,408.75019879988395,409.3917121000122,"[74, 0, 180]",180,l,0.11822260008193552,colour,0.28
143,22,1,1,6,13,263,409.9001923999749,410.6077216998674,"[4, 0, 250]",250,a,0.19673109985888004,colour,0.28
143,22,1,1,6,14,264,411.1100224999245,411.67988219996914,"[70, 0, 184]",184,l,0.046483000041916966,colour,0.28
143,22,1,1,6,15,265,412.188042699825,413.071692999918,"[52, 0, 202]",202,l,0.3603908000513911,colour,0.28
143,22,1,1,6,16,266,413.5661528999917,414.37564169988036,"[89, 0, 165]",165,l,0.28627689997665584,colour,0.28
143,22,1,1,6,17,267,414.8942096999381,415.50364560005255,"[83, 0, 171]",171,l,0.08612770005129278,colour,0.28
143,22,1,1,6,18,268,416.0195255000144,416.7517291000113,"[37, 0, 217]",217,a,0.2182271999772638,colour,0.28
143,22,1,1,6,19,269,417.2527012999635,417.99971610005014,"[87, 0, 167]",167,l,0.22373460000380874,colour,0.28
143,22,1,1,6,20,270,418.51823619985953,419.3037292000372,"[50, 0, 204]",204,a,0.26230540010146797,colour,0.28
143,22,1,1,6,21,271,419.8153728998732,420.583668399835,"[55, 0, 199]",199,a,0.25442319991998374,colour,0.28
143,22,1,1,6,22,272,421.10453849984333,421.9356857999228,"[65, 0, 189]",189,a,0.30826590000651777,colour,0.28
143,22,1,1,6,23,273,422.44828719994985,423.0476702998858,"[63, 0, 191]",191,a,0.07603630004450679,colour,0.28
143,22,1,1,6,24,274,423.5554565000348,424.2637048999313,"[77, 0, 177]",177,a,0.1850141000468284,colour,0.28
143,22,1,1,6,25,275,424.7741789999418,425.7516767999623,"[67, 0, 187]",187,a,0.45426460006274283,colour,0.28
143,22,1,1,6,26,276,426.2602838999592,427.2076961998828,"[76, 0, 178]",178,a,0.42261200002394617,colour,0.28
143,22,1,1,6,27,277,427.7133414000273,428.6877407999709,"[88, 0, 166]",166,l,0.4511659999843687,colour,0.28
143,22,1,1,6,28,278,429.19757830002345,430.0236914998386,"[78, 0, 176]",176,l,0.3030852999072522,colour,0.28
143,22,1,1,6,29,279,430.54122220003046,431.2956737000495,"[31, 0, 223]",223,a,0.2435214000288397,colour,0.28
143,22,1,1,6,30,280,431.80989629984833,432.79165859986097,"[51, 0, 203]",203,a,0.4583934999536723,colour,0.28
143,22,1,1,6,31,281,433.309871400008,434.05564210005105,"[57, 0, 197]",197,a,0.22253870009444654,colour,0.28
143,22,1,1,6,32,282,434.57532469998114,435.3916750999633,"[9, 0, 245]",245,a,0.30736550013534725,colour,0.28
143,22,1,1,6,33,283,435.9046785000246,436.67165409983136,"[71, 0, 183]",183,l,0.24366459995508194,colour,0.28
143,22,1,1,6,34,284,437.17666359990835,438.0156836998649,"[97, 0, 157]",157,l,0.3156597998458892,colour,0.28
143,22,1,1,6,35,285,438.5359914000146,439.34362900000997,"[86, 0, 168]",168,l,0.28435089997947216,colour,0.28
143,22,1,1,6,36,286,439.86406509997323,440.7117019998841,"[3, 0, 251]",251,a,0.32443809998221695,colour,0.28
143,22,1,1,6,37,287,441.22324369987473,442.2317139999941,"[64, 0, 190]",190,l,0.4853370999917388,colour,0.28
143,22,1,1,6,38,288,442.7388001999352,443.4877128000371,"[80, 0, 174]",174,l,0.22661360003985465,colour,0.28
143,22,1,1,6,39,289,444.0049188998528,444.8156625998672,"[22, 0, 232]",232,a,0.2875769999809563,colour,0.28
143,22,1,1,6,40,290,445.32234569988213,446.1276318000164,"[68, 0, 186]",186,l,0.2790087000466883,colour,0.28
143,22,1,1,6,41,291,446.6252568999771,447.40767290000804,"[5, 0, 249]",249,a,0.25909540010616183,colour,0.28
143,22,1,1,6,42,292,447.91171699995175,448.59966149996035,"[91, 0, 163]",163,l,0.16458579991012812,colour,0.28
143,22,1,1,6,43,293,449.1146930998657,449.6556235998869,"[20, 0, 234]",234,a,0.018435699865221977,colour,0.28
143,22,1,1,6,44,294,450.17711769999005,450.71961779985577,"[41, 0, 213]",213,a,0.019949099980294704,colour,0.28
143,22,1,1,6,45,295,451.2394937998615,451.7836549000349,"[79, 0, 175]",175,l,0.01793080009520054,colour,0.28
143,22,1,1,6,46,296,452.3048252998851,453.5916724000126,"[95, 0, 159]",159,l,0.7635851001832634,colour,0.28
143,22,1,1,6,47,297,454.1015901998617,454.8076412000228,"[15, 0, 239]",239,a,0.18277960014529526,colour,0.28
143,22,1,1,6,48,298,455.32016390003264,456.09562100004405,"[53, 0, 201]",201,l,0.26452060020528734,colour,0.28
143,22,1,1,6,49,299,456.6064531998709,457.23965749982744,"[66, 0, 188]",188,l,0.1102204998023808,colour,0.28
143,22,1,1,6,50,300,457.7469182999339,458.32763949991204,"[61, 0, 193]",193,l,0.05745820002630353,colour,0.28
143,22,1,1,7,1,301,463.3272069999948,464.05564030003734,"[88, 0, 166]",166,l,0.2042456001508981,colour,0.14
143,22,1,1,7,2,302,464.56234589987434,465.67962970002554,"[85, 0, 169]",169,l,0.5938975000753999,colour,0.14
143,22,1,1,7,3,303,466.1830133998301,466.71966209984384,"[76, 0, 178]",178,l,0.013309499947354198,colour,0.14
143,22,1,1,7,4,304,467.22979739983566,468.1836104998365,"[97, 0, 157]",157,l,0.4288381999358535,colour,0.14
143,22,1,1,7,5,305,468.70020830002613,469.4476018999703,"[99, 0, 155]",155,l,0.22403610008768737,colour,0.14
143,22,1,1,7,6,306,469.95322320004925,470.92763719987124,"[86, 0, 168]",168,l,0.4510251998435706,colour,0.14
143,22,1,1,7,7,307,471.4283632999286,472.3435913999565,"[33, 0, 221]",221,a,0.3919190999586135,colour,0.14
143,22,1,1,7,8,308,472.85016469983384,473.63963909982704,"[43, 0, 211]",211,a,0.2747874998021871,colour,0.14
143,22,1,1,7,9,309,474.15797219984233,474.9596293999348,"[71, 0, 183]",183,l,0.27613039989955723,colour,0.14
143,22,1,1,7,10,310,475.4726157998666,476.4796368998941,"[81, 0, 173]",173,l,0.4839737999718636,colour,0.14
143,22,1,1,7,11,311,476.9881182999816,477.8716694000177,"[70, 0, 184]",184,l,0.36001190007664263,colour,0.14
143,22,1,1,7,12,312,478.378506799927,479.2236108998768,"[80, 0, 174]",174,l,0.3218006999231875,colour,0.14
143,22,1,1,7,13,313,479.7377926998306,480.6476451000199,"[62, 0, 192]",192,l,0.3866363000124693,colour,0.14
143,22,1,1,7,14,314,481.1575054998975,481.98360130004585,"[92, 0, 162]",162,a,0.3028665001038462,colour,0.14
143,22,1,1,7,15,315,482.50302099995315,483.3676753998734,"[14, 0, 240]",240,a,0.3413670000154525,colour,0.14
143,22,1,1,7,16,316,483.87813739990816,484.95160249993205,"[53, 0, 201]",201,a,0.5503020999021828,colour,0.14
143,22,1,1,7,17,317,485.4728347999044,486.54365139990114,"[54, 0, 200]",200,a,0.5591068998910487,colour,0.14
143,22,1,1,7,18,318,487.0548645998351,487.9196667999495,"[84, 0, 170]",170,l,0.34169399994425476,colour,0.14
143,22,1,1,7,19,319,488.4296778999269,489.4556243000552,"[57, 0, 197]",197,a,0.5024429000914097,colour,0.14
143,22,1,1,7,20,320,489.97657820000313,490.75960859982297,"[74, 0, 180]",180,l,0.269059999845922,colour,0.14
143,22,1,1,7,21,321,491.2810623999685,492.095656799851,"[26, 0, 228]",228,a,0.2913245998788625,colour,0.14
143,22,1,1,7,22,322,492.6091157000046,493.4236472998746,"[69, 0, 185]",185,l,0.29128340003080666,colour,0.14
143,22,1,1,7,23,323,493.9370780000463,494.83156979992054,"[77, 0, 177]",177,l,0.3711145999841392,colour,0.14
143,22,1,1,7,24,324,495.34401739994064,496.6316949999891,"[96, 0, 158]",158,l,0.761414899956435,colour,0.14
143,22,1,1,7,25,325,497.1437733999919,498.23960909992456,"[67, 0, 187]",187,l,0.5714282998815179,colour,0.14
143,22,1,1,7,26,326,498.7545270000119,499.3196302000433,"[68, 0, 186]",186,l,0.041947000194340944,colour,0.14
143,22,1,1,7,27,327,499.8267774998676,500.895660799928,"[64, 0, 190]",190,l,0.5454114000312984,colour,0.14
143,22,1,1,7,28,328,501.4064603999723,502.2396299999673,"[83, 0, 171]",171,l,0.3100568000227213,colour,0.14
143,22,1,1,7,29,329,502.75005879998207,503.6076259999536,"[91, 0, 163]",163,l,0.3342500999569893,colour,0.14
143,22,1,1,7,30,330,504.12498670001514,504.9195786998607,"[79, 0, 175]",175,l,0.27133819996379316,colour,0.14
143,22,1,1,7,31,331,505.4373480998911,506.2396604998503,"[98, 0, 156]",156,l,0.27903689979575574,colour,0.14
143,22,1,1,7,32,332,506.73737039999105,507.5116413999349,"[93, 0, 161]",161,l,0.25090890005230904,colour,0.14
143,22,1,1,7,33,333,508.0185304998886,508.8796249998268,"[63, 0, 191]",191,l,0.3502339997794479,colour,0.14
143,22,1,1,7,34,334,509.38431889982894,510.63962479983456,"[75, 0, 179]",179,l,0.7321949999313802,colour,0.14
143,22,1,1,7,35,335,511.1497367999982,511.98360639996827,"[87, 0, 167]",167,l,0.3105089000891894,colour,0.14
143,22,1,1,7,36,336,512.4935055000242,513.4956938000396,"[60, 0, 194]",194,a,0.47903070016764104,colour,0.14
143,22,1,1,7,37,337,514.0089141000062,515.0876285999548,"[65, 0, 189]",189,a,0.5563833999913186,colour,0.14
143,22,1,1,7,38,338,515.6025785999373,516.7676178999245,"[59, 0, 195]",195,a,0.6416642998810858,colour,0.14
143,22,1,1,7,39,339,517.2744970999192,518.2075930999126,"[29, 0, 225]",225,a,0.4099260999355465,colour,0.14
143,22,1,1,7,40,340,518.7275014999323,519.5995983998291,"[51, 0, 203]",203,a,0.3488331998232752,colour,0.14
143,22,1,1,7,41,341,520.1179881000426,520.9516749000177,"[78, 0, 176]",176,l,0.3108246000483632,colour,0.14
143,22,1,1,7,42,342,521.4616195999552,522.6236172998324,"[61, 0, 193]",193,a,0.6387633997946978,colour,0.14
143,22,1,1,7,43,343,523.1332292000297,524.2956500998698,"[50, 0, 204]",204,a,0.6390946998726577,colour,0.14
143,22,1,1,7,44,344,524.8088022000156,525.5836022999138,"[55, 0, 199]",199,a,0.2514998000115156,colour,0.14
143,22,1,1,7,45,345,526.0824162999634,527.3676483999006,"[12, 0, 242]",242,a,0.7619612000416964,colour,0.14
143,22,1,1,7,46,346,527.8791753000114,529.2955980000552,"[66, 0, 188]",188,a,0.8931479000020772,colour,0.14
143,22,1,1,7,47,347,529.8165247999132,530.8316285999026,"[2, 0, 252]",252,a,0.49180749990046024,colour,0.14
143,22,1,1,7,48,348,531.347681599902,532.3596065999009,"[90, 0, 164]",164,l,0.4887117000762373,colour,0.14
143,22,1,1,7,49,349,532.878790799994,533.9036558000371,"[95, 0, 159]",159,l,0.5015234001912177,colour,0.14
143,22,1,1,7,50,350,534.4110318999738,535.3996462000068,"[52, 0, 202]",202,a,0.4622409001458436,colour,0.14
143,22,1,1,8,1,351,539.5411777999252,540.3036101998296,"[81, 0, 173]",173,l,0.23837979999370873,colour,0.06
143,22,1,1,8,2,352,540.8248178998474,541.6236388999969,"[66, 0, 188]",188,l,0.2734746001660824,colour,0.06
143,22,1,1,8,3,353,542.1393224999774,542.9276208998635,"[90, 0, 164]",164,l,0.27739679999649525,colour,0.06
143,22,1,1,8,4,354,543.4413188998587,544.2315934000071,"[58, 0, 196]",196,a,0.2668091000523418,colour,0.06
143,22,1,1,8,5,355,544.7383005998563,545.2955885999836,"[38, 0, 216]",216,a,0.03401289996691048,colour,0.06
143,22,1,1,8,6,356,545.8163429000415,546.8875664998777,"[62, 0, 192]",192,a,0.5539812999777496,colour,0.06
143,22,1,1,8,7,357,547.4058751000557,548.0555761998985,"[74, 0, 180]",180,l,0.12657830002717674,colour,0.06
143,22,1,1,8,8,358,548.5620891998988,552.1035896998364,"[94, 0, 160]",160,l,3.0276430998928845,colour,0.06
143,22,1,1,8,9,359,552.6148999000434,553.6155872000381,"[88, 0, 166]",166,l,0.47742480016313493,colour,0.06
143,22,1,1,8,10,360,554.1303967998829,555.0235875998624,"[89, 0, 165]",165,l,0.37235469999723136,colour,0.06
143,22,1,1,8,11,361,555.5360625998583,556.3276339999866,"[20, 0, 234]",234,a,0.26829000003635883,colour,0.06
143,22,1,1,8,12,362,556.8485262000468,557.6395723000169,"[85, 0, 169]",169,l,0.26786530017852783,colour,0.06
143,22,1,1,8,13,363,558.1608783998527,558.9756068999413,"[63, 0, 191]",191,a,0.28734509996138513,colour,0.06
143,22,1,1,8,14,364,559.4936067999806,560.3035861998796,"[53, 0, 201]",201,a,0.2866428999695927,colour,0.06
143,22,1,1,8,15,365,560.8216486000456,561.6635530998465,"[50, 0, 204]",204,a,0.31869479990564287,colour,0.06
143,22,1,1,8,16,366,562.1815992000047,562.9515954998787,"[87, 0, 167]",167,l,0.24683429999276996,colour,0.06
143,22,1,1,8,17,367,563.4532963000238,564.4155280999839,"[96, 0, 158]",158,l,0.43877300014719367,colour,0.06
143,22,1,1,8,18,368,564.9222881998867,565.8075496000238,"[75, 0, 179]",179,l,0.37290100008249283,colour,0.06
143,22,1,1,8,19,369,566.3174681998789,567.3357054998633,"[82, 0, 172]",172,l,0.4949896999169141,colour,0.06
143,22,1,1,8,20,370,567.8485987000167,568.7116149999201,"[57, 0, 197]",197,a,0.33982179989106953,colour,0.06
143,22,1,1,8,21,371,569.2234942999203,570.0715695999097,"[55, 0, 199]",199,a,0.3250811998732388,colour,0.06
143,22,1,1,8,22,372,570.57027619984,571.3275607000105,"[54, 0, 200]",200,a,0.23406320018693805,colour,0.06
143,22,1,1,8,23,373,571.8356508000288,573.0955701998901,"[72, 0, 182]",182,a,0.7365259998477995,colour,0.06
143,22,1,1,8,24,374,573.6168493998703,574.6956098999362,"[79, 0, 175]",175,l,0.5555241000838578,colour,0.06
143,22,1,1,8,25,375,575.2104551000521,576.0476031999569,"[71, 0, 183]",183,l,0.31161580001935363,colour,0.06
143,22,1,1,8,26,376,576.5625042999163,577.3595248998608,"[92, 0, 162]",162,l,0.2706491998396814,colour,0.06
143,22,1,1,8,27,377,577.8779859999195,578.7035421000328,"[93, 0, 161]",161,l,0.30226470017805696,colour,0.06
143,22,1,1,8,28,378,579.2215823000297,580.0156177999452,"[98, 0, 156]",156,l,0.27071979991160333,colour,0.06
143,22,1,1,8,29,379,580.5340356999077,581.4076180998236,"[65, 0, 189]",189,a,0.3503017998300493,colour,0.06
143,22,1,1,8,30,380,581.9245160999708,582.743543199962,"[60, 0, 194]",194,a,0.29573230003006756,colour,0.06
143,22,1,1,8,31,381,583.2504518998321,584.0395969999954,"[61, 0, 193]",193,a,0.265855300007388,colour,0.06
143,22,1,1,8,32,382,584.5472240999807,585.3035925999284,"[51, 0, 203]",203,a,0.22998169995844364,colour,0.06
143,22,1,1,8,33,383,585.815829299856,586.7995591999497,"[52, 0, 202]",202,a,0.46048310003243387,colour,0.06
143,22,1,1,8,34,384,587.3163626999594,588.2075753998943,"[91, 0, 163]",163,l,0.3679438999388367,colour,0.06
143,22,1,1,8,35,385,588.7117714998312,589.2796062999405,"[69, 0, 185]",185,l,0.04449680005200207,colour,0.06
143,22,1,1,8,36,386,589.7897590999492,590.6475499998778,"[64, 0, 190]",190,l,0.33476040000095963,colour,0.06
143,22,1,1,8,37,387,591.1646404999774,591.8875581999309,"[59, 0, 195]",195,l,0.19959710002876818,colour,0.06
143,22,1,1,8,38,388,592.3989515998401,593.4155772000086,"[99, 0, 155]",155,l,0.49333099997602403,colour,0.06
143,22,1,1,8,39,389,593.9300329999533,594.7436041999608,"[86, 0, 168]",168,l,0.2902613999322057,colour,0.06
143,22,1,1,8,40,390,595.2580613999162,596.1355301998556,"[83, 0, 171]",171,l,0.3541749999858439,colour,0.06
143,22,1,1,8,41,391,596.6510200998746,597.5195346998516,"[97, 0, 157]",157,l,0.3450277999509126,colour,0.06
143,22,1,1,8,42,392,598.0267820998561,598.8635088000447,"[95, 0, 159]",159,l,0.3134289002045989,colour,0.06
143,22,1,1,8,43,393,599.3703648999799,600.1435606998857,"[70, 0, 184]",184,a,0.2498520000372082,colour,0.06
143,22,1,1,8,44,394,600.643532600021,601.5435216999613,"[84, 0, 170]",170,l,0.3767363999504596,colour,0.06
143,22,1,1,8,45,395,602.0496707998682,603.0875853998587,"[78, 0, 176]",176,l,0.5195770999416709,colour,0.06
143,22,1,1,8,46,396,603.6069789000321,604.4075998000335,"[15, 0, 239]",239,a,0.28739860001951456,colour,0.06
143,22,1,1,8,47,397,604.9258329998702,605.7035729999188,"[77, 0, 177]",177,l,0.25450089992955327,colour,0.06
143,22,1,1,8,48,398,606.2226175998803,607.255555300042,"[67, 0, 187]",187,a,0.5098191001452506,colour,0.06
143,22,1,1,8,49,399,607.7693651998416,608.5595599999651,"[80, 0, 174]",174,l,0.2669468999374658,colour,0.06
143,22,1,1,8,50,400,609.066136599984,610.0235184000339,"[73, 0, 181]",181,l,0.43088330002501607,colour,0.06
143,22,1,1,9,1,401,616.1913480998483,619.0715597998351,"[51, 0, 203]",203,a,2.3543517999351025,colour,0.06
143,22,1,1,9,2,402,619.5842559998855,620.7755141998641,"[65, 0, 189]",189,a,0.6680393000133336,colour,0.06
143,22,1,1,9,3,403,621.2769338998478,622.1115836000536,"[87, 0, 167]",167,l,0.31140440003946424,colour,0.06
143,22,1,1,9,4,404,622.6081119000446,623.4715288998559,"[59, 0, 195]",195,a,0.34014629991725087,colour,0.06
143,22,1,1,9,5,405,623.9829804999754,624.8795805999544,"[63, 0, 191]",191,a,0.3733107000589371,colour,0.06
143,22,1,1,9,6,406,625.3890780999791,626.2075175999198,"[54, 0, 200]",200,a,0.2953780998941511,colour,0.06
143,22,1,1,9,7,407,626.7077881998848,627.3035464999266,"[7, 0, 247]",247,a,0.07245239987969398,colour,0.06
143,22,1,1,9,8,408,627.8171257998329,628.511560499901,"[73, 0, 181]",181,l,0.17115779989399016,colour,0.06
143,22,1,1,9,9,409,629.0231152998749,629.791584599996,"[67, 0, 187]",187,l,0.24242489994503558,colour,0.06
143,22,1,1,9,10,410,630.294541799929,631.1594904998783,"[84, 0, 170]",170,l,0.34159029996953905,colour,0.06
143,22,1,1,9,11,411,631.671499799937,632.5595257999375,"[78, 0, 176]",176,l,0.3648000000976026,colour,0.06
143,22,1,1,9,12,412,633.077673799824,634.0555769999046,"[79, 0, 175]",175,l,0.4547145999968052,colour,0.06
143,22,1,1,9,13,413,634.5618634999264,635.327570399968,"[81, 0, 173]",173,l,0.24251789995469153,colour,0.06
143,22,1,1,9,14,414,635.842964899959,636.6474967999384,"[62, 0, 192]",192,a,0.2812421000562608,colour,0.06
143,22,1,1,9,15,415,637.1553831000347,638.0554959999863,"[19, 0, 235]",235,a,0.3768569999374449,colour,0.06
143,22,1,1,9,16,416,638.5614725998603,639.4635278000496,"[60, 0, 194]",194,a,0.37868449999950826,colour,0.06
143,22,1,1,9,17,417,639.9832643000409,640.8715460998937,"[5, 0, 249]",249,a,0.3650332000106573,colour,0.06
143,22,1,1,9,18,418,641.3902072999626,642.2234818998259,"[97, 0, 157]",157,l,0.31034119985997677,colour,0.06
143,22,1,1,9,19,419,642.7337272998411,643.5755368999671,"[99, 0, 155]",155,l,0.3184887000825256,colour,0.06
143,22,1,1,9,20,420,644.0931057999842,644.8955540999305,"[53, 0, 201]",201,a,0.2792060999199748,colour,0.06
143,22,1,1,9,21,421,645.4055069999304,646.2155352998525,"[74, 0, 180]",180,l,0.28688229992985725,colour,0.06
143,22,1,1,9,22,422,646.7334086999763,647.5435720998794,"[57, 0, 197]",197,a,0.2868094998411834,colour,0.06
143,22,1,1,9,23,423,648.0615226000082,648.8394887999166,"[72, 0, 182]",182,l,0.25451999995857477,colour,0.06
143,22,1,1,9,24,424,649.3582686998416,650.1355103000533,"[56, 0, 198]",198,a,0.2539990001823753,colour,0.06
143,22,1,1,9,25,425,650.6550290999003,651.4634906998836,"[50, 0, 204]",204,a,0.28797289985232055,colour,0.06
143,22,1,1,9,26,426,651.980354799889,652.8075033000205,"[92, 0, 162]",162,l,0.30404240009374917,colour,0.06
143,22,1,1,9,27,427,653.3238740998786,654.1195205999538,"[52, 0, 202]",202,a,0.27255650004372,colour,0.06
143,22,1,1,9,28,428,654.6388528000098,655.5995161000174,"[76, 0, 178]",178,l,0.4373761999886483,colour,0.06
143,22,1,1,9,29,429,656.1076613999903,656.9514993999619,"[96, 0, 158]",158,l,0.32119520008563995,colour,0.06
143,22,1,1,9,30,430,657.4669470000081,658.2474864998367,"[91, 0, 163]",163,l,0.2572949999012053,colour,0.06
143,22,1,1,9,31,431,658.7637747998815,660.023467999883,"[95, 0, 159]",159,l,0.736486200010404,colour,0.06
143,22,1,1,9,32,432,660.5448871999979,661.495472199982,"[68, 0, 186]",186,a,0.42735840007662773,colour,0.06
143,22,1,1,9,33,433,662.013418099843,662.7994804000482,"[82, 0, 172]",172,l,0.26278550014831126,colour,0.06
143,22,1,1,9,34,434,663.3101902999915,664.0315246998798,"[83, 0, 171]",171,l,0.1979022000450641,colour,0.06
143,22,1,1,9,35,435,664.5444964999333,665.3034951000009,"[80, 0, 174]",174,l,0.23571799998171628,colour,0.06
143,22,1,1,9,36,436,665.8109132999089,666.8795536998659,"[85, 0, 169]",169,l,0.542440399993211,colour,0.06
143,22,1,1,9,37,437,667.3926081999671,668.1755339999218,"[98, 0, 156]",156,l,0.25972660002298653,colour,0.06
143,22,1,1,9,38,438,668.6892545998562,669.567512099864,"[55, 0, 199]",199,a,0.35509740002453327,colour,0.06
143,22,1,1,9,39,439,670.0797198000364,670.90351990005,"[75, 0, 179]",179,l,0.30032510007731616,colour,0.06
143,22,1,1,9,40,440,671.4234118999448,672.24750269996,"[94, 0, 160]",160,l,0.30110609997063875,colour,0.06
143,22,1,1,9,41,441,672.7671099000145,673.6395208998583,"[70, 0, 184]",184,l,0.349451299989596,colour,0.06
143,22,1,1,9,42,442,674.1581755999941,674.9194968999363,"[71, 0, 183]",183,a,0.24946369999088347,colour,0.06
143,22,1,1,9,43,443,675.4268548998516,676.2714974000119,"[69, 0, 185]",185,a,0.32121590012684464,colour,0.06
143,22,1,1,9,44,444,676.7861609000247,677.7435200999025,"[66, 0, 188]",188,a,0.4341154000721872,colour,0.06
143,22,1,1,9,45,445,678.2547861998901,679.1275313999504,"[90, 0, 164]",164,l,0.3494339999742806,colour,0.06
143,22,1,1,9,46,446,679.6471361999866,680.5835338998586,"[64, 0, 190]",190,a,0.41326109995134175,colour,0.06
143,22,1,1,9,47,447,681.0976185000036,681.8635235000402,"[88, 0, 166]",166,l,0.24545190017670393,colour,0.06
143,22,1,1,9,48,448,682.3774375000503,683.1435411998536,"[61, 0, 193]",193,a,0.24280250002630055,colour,0.06
143,22,1,1,9,49,449,683.665096799843,684.4554895998444,"[77, 0, 177]",177,l,0.27943409979343414,colour,0.06
143,22,1,1,9,50,450,684.9651484000497,685.7274871999398,"[89, 0, 165]",165,l,0.2521756000351161,colour,0.06
143,22,1,1,10,1,451,693.0939809998963,694.1514795999974,"[75, 0, 179]",179,l,0.5333273999858648,colour,0.06
143,22,1,1,10,2,452,694.6728179999627,695.5034906999208,"[82, 0, 172]",172,l,0.3074642999563366,colour,0.06
143,22,1,1,10,3,453,696.0071894999128,696.8714758998249,"[83, 0, 171]",171,l,0.3412726998794824,colour,0.06
143,22,1,1,10,4,454,697.3820730999578,698.1354149000254,"[63, 0, 191]",191,a,0.23014260013587773,colour,0.06
143,22,1,1,10,5,455,698.635196399875,699.4235257999972,"[61, 0, 193]",193,a,0.26510840002447367,colour,0.06
143,22,1,1,10,6,456,699.9324800998438,700.6314429999329,"[78, 0, 176]",176,l,0.17558009992353618,colour,0.06
143,22,1,1,10,7,457,701.1511317999102,701.9514706998598,"[93, 0, 161]",161,l,0.2834681998938322,colour,0.06
143,22,1,1,10,8,458,702.4726793000009,703.3194841998629,"[84, 0, 170]",170,l,0.3204488998744637,colour,0.06
143,22,1,1,10,9,459,703.8349899000023,704.7754428000189,"[70, 0, 184]",184,a,0.41717470018193126,colour,0.06
143,22,1,1,10,10,460,705.2879578999709,706.143441400025,"[88, 0, 166]",166,l,0.33226910000666976,colour,0.06
143,22,1,1,10,11,461,706.6628180998378,707.4874334998894,"[94, 0, 160]",160,l,0.30131939984858036,colour,0.06
143,22,1,1,10,12,462,708.0064966999926,708.8234593998641,"[56, 0, 198]",198,a,0.29392259987071157,colour,0.06
143,22,1,1,10,13,463,709.3344788998365,710.151457299944,"[58, 0, 196]",196,a,0.2936714000534266,colour,0.06
143,22,1,1,10,14,464,710.6624873999972,711.4634527999442,"[72, 0, 182]",182,l,0.2821909000631422,colour,0.06
143,22,1,1,10,15,465,711.9704454999883,712.6954081000295,"[32, 0, 222]",222,a,0.2014835001900792,colour,0.06
143,22,1,1,10,16,466,713.2048798999749,713.9034120000433,"[87, 0, 167]",167,l,0.17519149999134243,colour,0.06
143,22,1,1,10,17,467,714.4235777999274,715.2795076998882,"[73, 0, 181]",181,l,0.3351512998342514,colour,0.06
143,22,1,1,10,18,468,715.7959082999732,716.6954336999916,"[66, 0, 188]",188,a,0.3761836001649499,colour,0.06
143,22,1,1,10,19,469,717.2019950998947,717.9834857999813,"[76, 0, 178]",178,l,0.2585583000909537,colour,0.06
143,22,1,1,10,20,470,718.4992845999077,719.2954507998656,"[81, 0, 173]",173,l,0.27290549990721047,colour,0.06
143,22,1,1,10,21,471,719.8124424999114,720.5514817000367,"[33, 0, 221]",221,a,0.21564290020614862,colour,0.06
143,22,1,1,10,22,472,721.0623445999809,721.6154600000009,"[86, 0, 168]",168,l,0.028215200174599886,colour,0.06
143,22,1,1,10,23,473,722.1265368999448,722.7514372000005,"[55, 0, 199]",199,a,0.10156610002741218,colour,0.06
143,22,1,1,10,24,474,723.2671272999141,723.839477499947,"[77, 0, 177]",177,l,0.049219399923458695,colour,0.06
143,22,1,1,10,25,475,724.3607163999695,725.0794932998251,"[90, 0, 164]",164,l,0.19558279984630644,colour,0.06
143,22,1,1,10,26,476,725.5952633998822,726.2074539000168,"[54, 0, 200]",200,a,0.08892570016905665,colour,0.06
143,22,1,1,10,27,477,726.7201714999974,727.3674430998508,"[51, 0, 203]",203,a,0.1240185999777168,colour,0.06
143,22,1,1,10,28,478,727.8761583999731,728.4235004000366,"[9, 0, 245]",245,a,0.020966700045391917,colour,0.06
143,22,1,1,10,29,479,728.9416463000234,729.5754607999697,"[64, 0, 190]",190,l,0.1105277999304235,colour,0.06
143,22,1,1,10,30,480,730.0821704999544,730.6315033999272,"[92, 0, 162]",162,l,0.025973499985411763,colour,0.06
143,22,1,1,10,31,481,731.1446144999936,731.9034669999965,"[80, 0, 174]",174,l,0.23527209996245801,colour,0.06
143,22,1,1,10,32,482,732.4109785000328,734.4634416999761,"[85, 0, 169]",169,l,1.5261643999256194,colour,0.06
143,22,1,1,10,33,483,734.9792912998237,735.7834912999533,"[65, 0, 189]",189,a,0.2779177001211792,colour,0.06
143,22,1,1,10,34,484,736.2946176000405,736.8634625000414,"[71, 0, 183]",183,l,0.0455079001840204,colour,0.06
143,22,1,1,10,35,485,737.3726013000123,738.3995079998858,"[74, 0, 180]",180,l,0.5037115998566151,colour,0.06
143,22,1,1,10,36,486,738.9070064998232,739.7194619998336,"[99, 0, 155]",155,l,0.3013067999854684,colour,0.06
143,22,1,1,10,37,487,740.233462800039,741.0474719998892,"[59, 0, 195]",195,a,0.2999572998378426,colour,0.06
143,22,1,1,10,38,488,741.5677666000556,742.3754896000028,"[69, 0, 185]",185,l,0.2843981001060456,colour,0.06
143,22,1,1,10,39,489,742.8968036000151,743.7194147999398,"[52, 0, 202]",202,a,0.29940750007517636,colour,0.06
143,22,1,1,10,40,490,744.2404801999219,744.9994449999649,"[98, 0, 156]",156,l,0.23595819994807243,colour,0.06
143,22,1,1,10,41,491,745.5060032999609,746.4874350000173,"[68, 0, 186]",186,l,0.4583768001757562,colour,0.06
143,22,1,1,10,42,492,747.0058712998871,747.8154110999312,"[91, 0, 163]",163,l,0.2867538998834789,colour,0.06
143,22,1,1,10,43,493,748.3338520999532,749.1194553000387,"[62, 0, 192]",192,a,0.26237770006991923,colour,0.06
143,22,1,1,10,44,494,749.6306157000363,750.4154890000354,"[89, 0, 165]",165,l,0.26168720005080104,colour,0.06
143,22,1,1,10,45,495,750.9273204000201,752.031411799835,"[60, 0, 194]",194,a,0.58063879981637,colour,0.06
143,22,1,1,10,46,496,752.5522679998539,753.399392100051,"[53, 0, 201]",201,a,0.32387010008096695,colour,0.06
143,22,1,1,10,47,497,753.9115482999478,754.663437299896,"[79, 0, 175]",175,l,0.22859379998408258,colour,0.06
143,22,1,1,10,48,498,755.1774007999338,755.7434131999034,"[95, 0, 159]",159,l,0.042473099892959,colour,0.06
143,22,1,1,10,49,499,756.2554810999427,758.3275129999965,"[97, 0, 157]",157,l,1.5491103001404554,colour,0.06
143,22,1,1,10,50,500,758.8490774999373,759.4714065999724,"[50, 0, 204]",204,a,0.10925310011953115,colour,0.06
143,22,1,1,11,1,501,766.9497284998652,767.7513770998921,"[65, 0, 189]",189,l,0.27760450006462634,colour,0.06
143,22,1,1,11,2,502,768.2629040000029,768.8154276998248,"[33, 0, 221]",221,a,0.027472599875181913,colour,0.06
143,22,1,1,11,3,503,769.327135700034,770.7754559998866,"[99, 0, 155]",155,l,0.9239948999602348,colour,0.06
143,22,1,1,11,4,504,771.296831100015,772.0554162999615,"[92, 0, 162]",162,l,0.24773090006783605,colour,0.06
143,22,1,1,11,5,505,772.5654976998921,773.3354201999027,"[61, 0, 193]",193,l,0.24664609995670617,colour,0.06
143,22,1,1,11,6,506,773.8467317000031,774.6313837999478,"[51, 0, 203]",203,a,0.26123209996148944,colour,0.06
143,22,1,1,11,7,507,775.1434822999872,775.823409399949,"[86, 0, 168]",168,l,0.1567053000908345,colour,0.06
143,22,1,1,11,8,508,776.330863500014,777.0714229999576,"[71, 0, 183]",183,l,0.21592410001903772,colour,0.06
143,22,1,1,11,9,509,777.5821356000379,778.3753823000006,"[77, 0, 177]",177,l,0.27004000009037554,colour,0.06
143,22,1,1,11,10,510,778.9010230000131,779.7513725999743,"[18, 0, 236]",236,a,0.33147340011782944,colour,0.06
143,22,1,1,11,11,511,780.2721633999608,780.9594159999397,"[66, 0, 188]",188,l,0.16079939994961023,colour,0.06
143,22,1,1,11,12,512,781.4782765998971,782.3033914999105,"[81, 0, 173]",173,l,0.30138189997524023,colour,0.06
143,22,1,1,11,13,513,782.8222976999823,783.6553752999753,"[89, 0, 165]",165,l,0.3099249000661075,colour,0.06
143,22,1,1,11,14,514,784.161891900003,785.0473872998264,"[68, 0, 186]",186,l,0.3591481999028474,colour,0.06
143,22,1,1,11,15,515,785.5554418000393,786.4074719999917,"[93, 0, 161]",161,l,0.3288924000225961,colour,0.06
143,22,1,1,11,16,516,786.9147699999157,788.0474640999455,"[76, 0, 178]",178,l,0.6094392000231892,colour,0.06
143,22,1,1,11,17,517,788.5553101999685,789.5434587998316,"[95, 0, 159]",159,l,0.4649613997898996,colour,0.06
143,22,1,1,11,18,518,790.055220299866,791.0074630999006,"[97, 0, 157]",157,l,0.4291002999525517,colour,0.06
143,22,1,1,11,19,519,791.5245520998724,792.4073985998984,"[60, 0, 194]",194,l,0.3606304998975247,colour,0.06
143,22,1,1,11,20,520,792.9142279999796,793.8074300999288,"[73, 0, 181]",181,l,0.3699980000965297,colour,0.06
143,22,1,1,11,21,521,794.3204844000284,795.3594374998938,"[59, 0, 195]",195,a,0.5157516000326723,colour,0.06
143,22,1,1,11,22,522,795.8671250999905,796.8633993999101,"[50, 0, 204]",204,a,0.47278740000911057,colour,0.06
143,22,1,1,11,23,523,797.3826087999623,798.0714393998496,"[84, 0, 170]",170,l,0.16556629980914295,colour,0.06
143,22,1,1,11,24,524,798.5856693000533,799.4873822999652,"[70, 0, 184]",184,l,0.3785379999317229,colour,0.06
143,22,1,1,11,25,525,800.0074360000435,800.9034134999383,"[63, 0, 191]",191,a,0.3730164000298828,colour,0.06
143,22,1,1,11,26,526,801.4135047998279,802.2074237999041,"[58, 0, 196]",196,a,0.2706400998868048,colour,0.06
143,22,1,1,11,27,527,802.7259331999812,803.3113631999586,"[67, 0, 187]",187,a,0.06226089992560446,colour,0.06
143,22,1,1,11,28,528,803.8196090999991,804.8554167998955,"[56, 0, 198]",198,a,0.5125788999721408,colour,0.06
143,22,1,1,11,29,529,805.3667800000403,805.9594560000114,"[52, 0, 202]",202,a,0.06945030018687248,colour,0.06
143,22,1,1,11,30,530,806.4773420998827,807.1754117999226,"[91, 0, 163]",163,l,0.17467119987122715,colour,0.06
143,22,1,1,11,31,531,807.6824107000139,808.5513677999843,"[72, 0, 182]",182,a,0.34570419997908175,colour,0.06
143,22,1,1,11,32,532,809.0448535999749,810.023404999869,"[69, 0, 185]",185,a,0.4520639998372644,colour,0.06
143,22,1,1,11,33,533,810.5323003998492,811.3353752000257,"[80, 0, 174]",174,l,0.2797654999885708,colour,0.06
143,22,1,1,11,34,534,811.8446334998589,812.6873757999856,"[64, 0, 190]",190,a,0.31649360014125705,colour,0.06
143,22,1,1,11,35,535,813.2069590999745,814.0633773000445,"[62, 0, 192]",192,a,0.33330760011449456,colour,0.06
143,22,1,1,11,36,536,814.5824921999592,815.3433956999797,"[87, 0, 167]",167,l,0.23760009999386966,colour,0.06
143,22,1,1,11,37,537,815.8635988000315,816.7034010000061,"[75, 0, 179]",179,l,0.3165553000289947,colour,0.06
143,22,1,1,11,38,538,817.2229676998686,818.0633696999867,"[85, 0, 169]",169,l,0.3179138000123203,colour,0.06
143,22,1,1,11,39,539,818.5821577999741,819.447358999867,"[57, 0, 197]",197,a,0.3418345998506993,colour,0.06
143,22,1,1,11,40,540,819.9595315998886,820.7353916999418,"[53, 0, 201]",201,a,0.25255160010419786,colour,0.06
143,22,1,1,11,41,541,821.2562909000553,821.999412599951,"[79, 0, 175]",175,l,0.22003480000421405,colour,0.06
143,22,1,1,11,42,542,822.4952840998303,823.2474046999123,"[3, 0, 251]",251,a,0.2288142000325024,colour,0.06
143,22,1,1,11,43,543,823.7608105000108,824.5433850998525,"[98, 0, 156]",156,l,0.2592178999911994,colour,0.06
143,22,1,1,11,44,544,825.0574975998607,826.0634779999964,"[88, 0, 166]",166,l,0.4826215000357479,colour,0.06
143,22,1,1,11,45,545,826.577587199863,827.4714102998842,"[78, 0, 176]",176,l,0.37047720002010465,colour,0.06
143,22,1,1,11,46,546,827.9836992998607,828.7993397999089,"[96, 0, 158]",158,l,0.2922944000456482,colour,0.06
143,22,1,1,11,47,547,829.3024527998641,830.1513272998855,"[82, 0, 172]",172,l,0.3257039999589324,colour,0.06
143,22,1,1,11,48,548,830.6544582999777,831.4233809998259,"[54, 0, 200]",200,a,0.24391429987736046,colour,0.06
143,22,1,1,11,49,549,831.937364900019,832.7273913000245,"[55, 0, 199]",199,a,0.2789696999825537,colour,0.06
143,22,1,1,11,50,550,833.2250687999185,833.8553563000169,"[74, 0, 180]",180,l,0.1069682000670582,colour,0.06
143,22,1,1,12,1,551,838.5875905998982,839.3353334998246,"[84, 0, 170]",170,l,0.2236686998512596,colour,0.06
143,22,1,1,12,2,552,839.8544325998519,840.6073513999581,"[70, 0, 184]",184,l,0.22963680000975728,colour,0.06
143,22,1,1,12,3,553,841.1101458999328,841.6873735999689,"[62, 0, 192]",192,a,0.053735299967229366,colour,0.06
143,22,1,1,12,4,554,842.2064253999852,842.9433812999632,"[59, 0, 195]",195,a,0.2232318001333624,colour,0.06
143,22,1,1,12,5,555,843.4624667998869,844.23940890003,"[75, 0, 179]",179,l,0.25353260012343526,colour,0.06
143,22,1,1,12,6,556,844.7607308998704,845.5593451999594,"[54, 0, 200]",200,a,0.27535329991951585,colour,0.06
143,22,1,1,12,7,557,846.073099900037,847.0713231000118,"[89, 0, 165]",165,l,0.4750889001879841,colour,0.06
143,22,1,1,12,8,558,847.5886556999758,848.3593220999464,"[95, 0, 159]",159,l,0.24745930009521544,colour,0.06
143,22,1,1,12,9,559,848.8697627999354,849.6554023998324,"[77, 0, 177]",177,l,0.2623396997805685,colour,0.06
143,22,1,1,12,10,560,850.1665570000187,850.9033575998619,"[65, 0, 189]",189,a,0.2134910998865962,colour,0.06
143,22,1,1,12,11,561,851.4070578999817,852.1433143999893,"[64, 0, 190]",190,a,0.21065489994361997,colour,0.06
143,22,1,1,12,12,562,852.6592414998449,853.1993809998967,"[98, 0, 156]",156,l,0.016812499845400453,colour,0.06
143,22,1,1,12,13,563,853.7060142999981,855.0633699998725,"[96, 0, 158]",158,l,0.834539899835363,colour,0.06
143,22,1,1,12,14,564,855.5809209998697,856.4153813999146,"[55, 0, 199]",199,a,0.31121150008402765,colour,0.06
143,22,1,1,12,15,565,856.924514999846,857.7673702999018,"[93, 0, 161]",161,l,0.3194869998842478,colour,0.06
143,22,1,1,12,16,566,858.2838141999673,859.0393621998373,"[60, 0, 194]",194,a,0.2321501998230815,colour,0.06
143,22,1,1,12,17,567,859.5453714998439,860.3514320999384,"[91, 0, 163]",163,l,0.28285129996947944,colour,0.06
143,22,1,1,12,18,568,860.8593907998875,861.4713761999737,"[58, 0, 196]",196,a,0.08866040012799203,colour,0.06
143,22,1,1,12,19,569,861.9814561000094,862.743354300037,"[85, 0, 169]",169,l,0.2387765001039952,colour,0.06
143,22,1,1,12,20,570,863.262447200017,864.0554003999569,"[76, 0, 178]",178,l,0.2696968999225646,colour,0.06
143,22,1,1,12,21,571,864.5748947998509,865.21536679985,"[61, 0, 193]",193,a,0.11717669991776347,colour,0.06
143,22,1,1,12,22,572,865.7309693999123,866.591364899883,"[67, 0, 187]",187,l,0.3371874999720603,colour,0.06
143,22,1,1,12,23,573,867.1059336999897,867.9273567998316,"[79, 0, 175]",175,l,0.2991169998422265,colour,0.06
143,22,1,1,12,24,574,868.4338924998883,869.351303299889,"[51, 0, 203]",203,l,0.39412609999999404,colour,0.06
143,22,1,1,12,25,575,869.8719715999905,870.5353190999012,"[56, 0, 198]",198,a,0.14086629985831678,colour,0.06
143,22,1,1,12,26,576,871.0430344999768,871.823366999859,"[86, 0, 168]",168,l,0.25707029993645847,colour,0.06
143,22,1,1,12,27,577,872.3398132999428,873.1673619998619,"[71, 0, 183]",183,l,0.30441909981891513,colour,0.06
143,22,1,1,12,28,578,873.6834080999251,874.4153994000517,"[50, 0, 204]",204,a,0.20863960008136928,colour,0.06
143,22,1,1,12,29,579,874.9333760999143,875.7512937998399,"[42, 0, 212]",212,a,0.29526179982349277,colour,0.06
143,22,1,1,12,30,580,876.2611644999124,877.0553133999929,"[73, 0, 181]",181,l,0.27161259995773435,colour,0.06
143,22,1,1,12,31,581,877.5735754999332,878.599329299992,"[63, 0, 191]",191,a,0.5033563000615686,colour,0.06
143,22,1,1,12,32,582,879.1132038000505,879.7753475999925,"[88, 0, 166]",166,l,0.14144770009443164,colour,0.06
143,22,1,1,12,33,583,880.2832066998817,881.4073234000243,"[68, 0, 186]",186,a,0.5977651001885533,colour,0.06
143,22,1,1,12,34,584,881.9267124000471,882.7113101000432,"[8, 0, 246]",246,a,0.2610239000059664,colour,0.06
143,22,1,1,12,35,585,883.2255374998786,884.0153636999894,"[69, 0, 185]",185,l,0.26650999998673797,colour,0.06
143,22,1,1,12,36,586,884.5223947998602,885.439333899878,"[97, 0, 157]",157,l,0.3938292998354882,colour,0.06
143,22,1,1,12,37,587,885.960832899902,886.6873349000234,"[99, 0, 155]",155,l,0.20395730016753078,colour,0.06
143,22,1,1,12,38,588,887.1937732999213,888.0793238000479,"[78, 0, 176]",176,a,0.36232580011710525,colour,0.06
143,22,1,1,12,39,589,888.6000069000293,889.407313699834,"[33, 0, 221]",221,a,0.2840306998696178,colour,0.06
143,22,1,1,12,40,590,889.9280107000377,890.6873365000356,"[72, 0, 182]",182,l,0.23644620017148554,colour,0.06
143,22,1,1,12,41,591,891.181134399958,891.8953358000144,"[81, 0, 173]",173,l,0.1904239000286907,colour,0.06
143,22,1,1,12,42,592,892.416002499871,893.0393375998829,"[92, 0, 162]",162,l,0.10011340002529323,colour,0.06
143,22,1,1,12,43,593,893.5565434999298,894.3593681999482,"[94, 0, 160]",160,l,0.2797590000554919,colour,0.06
143,22,1,1,12,44,594,894.8689496000297,895.5753555998672,"[87, 0, 167]",167,l,0.19056089990772307,colour,0.06
143,22,1,1,12,45,595,896.0964217998553,896.8073074999265,"[66, 0, 188]",188,l,0.18913569999858737,colour,0.06
143,22,1,1,12,46,596,897.301717299968,898.0233036000282,"[74, 0, 180]",180,l,0.21088170004077256,colour,0.06
143,22,1,1,12,47,597,898.5412783999927,899.2552910998929,"[57, 0, 197]",197,a,0.19076250004582107,colour,0.06
143,22,1,1,12,48,598,899.7734604999423,900.311327900039,"[52, 0, 202]",202,a,0.014856800204142928,colour,0.06
143,22,1,1,12,49,599,900.8201643000357,902.1753302998841,"[80, 0, 174]",174,l,0.8325441998895258,colour,0.06
143,22,1,1,12,50,600,902.6951726998668,903.4473380998243,"[90, 0, 164]",164,l,0.2288385999854654,colour,0.06
143,22,1,1,13,1,601,914.260571599938,915.9032848998904,"[65, 0, 189]",189,l,1.1184959998354316,colour,0.06
143,22,1,1,13,2,602,916.4051037000027,917.0713167998474,"[63, 0, 191]",191,l,0.13991409982554615,colour,0.06
143,22,1,1,13,3,603,917.5806936998852,918.4152569000144,"[54, 0, 200]",200,a,0.31284240004606545,colour,0.06
143,22,1,1,13,4,604,918.9235443000216,919.4480118998326,"[89, 0, 165]",165,l,0.0011557999532669783,colour,0.06
143,22,1,1,13,5,605,919.9718847998884,921.199301399989,"[88, 0, 166]",166,l,0.7050577001646161,colour,0.06
143,22,1,1,13,6,606,921.6938078999519,922.4393452999648,"[50, 0, 204]",204,a,0.2222241999115795,colour,0.06
143,22,1,1,13,7,607,922.9591882999521,923.7193044000305,"[52, 0, 202]",202,a,0.23664580006152391,colour,0.06
143,22,1,1,13,8,608,924.2248016998637,924.9192951000296,"[76, 0, 178]",178,a,0.17220770008862019,colour,0.06
143,22,1,1,13,9,609,925.4279066999443,926.2233096000273,"[80, 0, 174]",174,l,0.26907830010168254,colour,0.06
143,22,1,1,13,10,610,926.7434229999781,927.591277499916,"[69, 0, 185]",185,l,0.3245290999766439,colour,0.06
143,22,1,1,13,11,611,928.1027690998744,928.8552844999358,"[61, 0, 193]",193,a,0.22932050004601479,colour,0.06
143,22,1,1,13,12,612,929.3681465999689,930.1913584999274,"[58, 0, 196]",196,a,0.2998615999240428,colour,0.06
143,22,1,1,13,13,613,930.7118728000205,931.5112657998689,"[97, 0, 157]",157,l,0.27618729998357594,colour,0.06
143,22,1,1,13,14,614,932.0273642998654,932.8712734000292,"[51, 0, 203]",203,a,0.3205965000670403,colour,0.06
143,22,1,1,13,15,615,933.3866395000368,934.263272000011,"[53, 0, 201]",201,a,0.35334810009226203,colour,0.06
143,22,1,1,13,16,616,934.7771341998596,935.5993424998596,"[6, 0, 248]",248,a,0.31133229983970523,colour,0.06
143,22,1,1,13,17,617,936.1032418999821,936.8952979999594,"[86, 0, 168]",168,l,0.26912100007757545,colour,0.06
143,22,1,1,13,18,618,937.415638800012,938.1913207999896,"[94, 0, 160]",160,l,0.25238450011238456,colour,0.06
143,22,1,1,13,19,619,938.7124804998748,939.6312812999822,"[99, 0, 155]",155,l,0.40491700009442866,colour,0.06
143,22,1,1,13,20,620,940.1412197998725,940.9273220000323,"[36, 0, 218]",218,a,0.26290830015204847,colour,0.06
143,22,1,1,13,21,621,941.4379010000266,941.9832557998598,"[25, 0, 229]",229,l,0.02203579992055893,colour,0.06
143,22,1,1,13,22,622,942.499027099926,943.439293100033,"[70, 0, 184]",184,l,0.4170713000930846,colour,0.06
143,22,1,1,13,23,623,943.9519925999921,944.7832516999915,"[71, 0, 183]",183,l,0.32021300005726516,colour,0.06
143,22,1,1,13,24,624,945.2869355999865,946.0872822999954,"[90, 0, 164]",164,l,0.2770654000341892,colour,0.06
143,22,1,1,13,25,625,946.5992942999583,947.4232355998829,"[98, 0, 156]",156,l,0.30064340005628765,colour,0.06
143,22,1,1,13,26,626,947.9429500000551,948.8953382999171,"[68, 0, 186]",186,l,0.4291254000272602,colour,0.06
143,22,1,1,13,27,627,949.4115217998624,950.2152886998374,"[87, 0, 167]",167,l,0.28048620000481606,colour,0.06
143,22,1,1,13,28,628,950.7114073999692,951.7513476000167,"[79, 0, 175]",175,l,0.5159112000837922,colour,0.06
143,22,1,1,13,29,629,952.290841900045,953.1032702999655,"[56, 0, 198]",198,a,0.29018300003372133,colour,0.06
143,22,1,1,13,30,630,953.6057481998578,954.6392642999999,"[75, 0, 179]",179,l,0.5103609000798315,colour,0.06
143,22,1,1,13,31,631,955.1542880998459,955.9912447000388,"[77, 0, 177]",177,l,0.31361170019954443,colour,0.06
143,22,1,1,13,32,632,956.4854689999484,957.2953095999546,"[93, 0, 161]",161,l,0.28656759997829795,colour,0.06
143,22,1,1,13,33,633,957.8145279998425,958.9032933998387,"[60, 0, 194]",194,a,0.5653964998200536,colour,0.06
143,22,1,1,13,34,634,959.4238797998987,960.2472800000105,"[81, 0, 173]",173,l,0.30041050002910197,colour,0.06
143,22,1,1,13,35,635,960.7675014999695,961.7273736000061,"[92, 0, 162]",162,l,0.43345430004410446,colour,0.06
143,22,1,1,13,36,636,962.2393411998637,963.2152622998692,"[74, 0, 180]",180,l,0.4527794998139143,colour,0.06
143,22,1,1,13,37,637,963.7235701000318,964.6553114999551,"[66, 0, 188]",188,a,0.408674200065434,colour,0.06
143,22,1,1,13,38,638,965.1765788998455,966.0633044999558,"[96, 0, 158]",158,l,0.3751407000236213,colour,0.06
143,22,1,1,13,39,639,966.5604623998515,967.359237199882,"[62, 0, 192]",192,a,0.2755350999068469,colour,0.06
143,22,1,1,13,40,640,967.8746904998552,968.7752763000317,"[84, 0, 170]",170,l,0.3772228001616895,colour,0.06
143,22,1,1,13,41,641,969.2815332999453,970.1832735999487,"[55, 0, 199]",199,a,0.37840720009990036,colour,0.06
143,22,1,1,13,42,642,970.7043305998668,971.4792610998265,"[82, 0, 172]",172,l,0.2516865998040885,colour,0.06
143,22,1,1,13,43,643,971.9853489999659,973.0792326999363,"[78, 0, 176]",176,l,0.5797651000320911,colour,0.06
143,22,1,1,13,44,644,973.5761976998765,974.5192495998926,"[59, 0, 195]",195,a,0.41985820000991225,colour,0.06
143,22,1,1,13,45,645,975.020325700054,975.5832450999878,"[91, 0, 163]",163,l,0.03960909997113049,colour,0.06
143,22,1,1,13,46,646,976.0983982998878,976.9993290998973,"[83, 0, 171]",171,l,0.37355199991725385,colour,0.06
143,22,1,1,13,47,647,977.5086095000152,978.4632327998988,"[57, 0, 197]",197,a,0.431271200068295,colour,0.06
143,22,1,1,13,48,648,978.977695700014,979.807271800004,"[85, 0, 169]",169,l,0.30342180002480745,colour,0.06
143,22,1,1,13,49,649,980.3243503000122,981.2712649998721,"[95, 0, 159]",159,l,0.42366519989445806,colour,0.06
143,22,1,1,13,50,650,981.7909192999359,982.615306599997,"[72, 0, 182]",182,l,0.30131080001592636,colour,0.06
143,22,1,1,14,1,651,993.2161556999199,994.0552262999117,"[95, 0, 159]",159,l,0.3150525998789817,colour,0.06
143,22,1,1,14,2,652,994.5762467000168,995.4152518999763,"[84, 0, 170]",170,l,0.3156886000651866,colour,0.06
143,22,1,1,14,3,653,995.9355847998522,996.8232899999712,"[76, 0, 178]",178,l,0.3645087000913918,colour,0.06
143,22,1,1,14,4,654,997.3415762998629,998.2632826999761,"[79, 0, 175]",175,l,0.39840329997241497,colour,0.06
143,22,1,1,14,5,655,998.7791697999928,999.7432609999087,"[89, 0, 165]",165,l,0.4410560999531299,colour,0.06
143,22,1,1,14,6,656,1000.2632597000338,1001.1032342999242,"[59, 0, 195]",195,a,0.31667539989575744,colour,0.06
143,22,1,1,14,7,657,1001.6225391000044,1002.439260999905,"[99, 0, 155]",155,l,0.3028074000030756,colour,0.06
143,22,1,1,14,8,658,1002.9525734998751,1003.7672792999074,"[88, 0, 166]",166,l,0.291458300082013,colour,0.06
143,22,1,1,14,9,659,1004.2804673998617,1005.1352311000228,"[83, 0, 171]",171,l,0.340670500183478,colour,0.06
143,22,1,1,14,10,660,1005.6459896999877,1006.6552764999215,"[86, 0, 168]",168,l,0.4857820998877287,colour,0.06
143,22,1,1,14,11,661,1007.1622122998815,1008.0552564000245,"[66, 0, 188]",188,a,0.36984700011089444,colour,0.06
143,22,1,1,14,12,662,1008.5703691998497,1009.3992522999179,"[97, 0, 157]",157,l,0.3056888000573963,colour,0.06
143,22,1,1,14,13,663,1009.9103949998971,1010.8712108000182,"[57, 0, 197]",197,a,0.43723769998177886,colour,0.06
143,22,1,1,14,14,664,1011.3792985000182,1012.5672617000528,"[74, 0, 180]",180,a,0.6645692000165582,colour,0.06
143,22,1,1,14,15,665,1013.0822516998742,1014.5673306998797,"[50, 0, 204]",204,a,0.9617518000304699,colour,0.06
143,22,1,1,14,16,666,1015.0721741998568,1015.9592573998962,"[58, 0, 196]",196,a,0.36383190006017685,colour,0.06
143,22,1,1,14,17,667,1016.4783955998719,1017.4792520999908,"[68, 0, 186]",186,l,0.47765070013701916,colour,0.06
143,22,1,1,14,18,668,1017.9937556998339,1019.0152286000084,"[73, 0, 181]",181,l,0.4981784999836236,colour,0.06
143,22,1,1,14,19,669,1019.527127499925,1020.455265800003,"[11, 0, 243]",243,a,0.40483370004221797,colour,0.06
143,22,1,1,14,20,670,1020.9663499000017,1021.9592166999355,"[96, 0, 158]",158,l,0.46957230009138584,colour,0.06
143,22,1,1,14,21,671,1022.4664654999506,1023.5031874999404,"[77, 0, 177]",177,l,0.5104674999602139,colour,0.06
143,22,1,1,14,22,672,1024.0141793000512,1025.1032463000156,"[61, 0, 193]",193,a,0.565903700189665,colour,0.06
143,22,1,1,14,23,673,1025.624143099878,1026.6152087999508,"[94, 0, 160]",160,l,0.4686761999037117,colour,0.06
143,22,1,1,14,24,674,1027.114021099871,1028.1992420998868,"[63, 0, 191]",191,a,0.562894499860704,colour,0.06
143,22,1,1,14,25,675,1028.707588299876,1029.631232699845,"[78, 0, 176]",176,l,0.3964406999293715,colour,0.06
143,22,1,1,14,26,676,1030.150887900032,1031.143254699884,"[85, 0, 169]",169,l,0.46904630004428327,colour,0.06
143,22,1,1,14,27,677,1031.6515199998394,1032.6072557999287,"[55, 0, 199]",199,a,0.429752100026235,colour,0.06
143,22,1,1,14,28,678,1033.1248520999216,1034.5352241999935,"[60, 0, 194]",194,a,0.8870882999617606,colour,0.06
143,22,1,1,14,29,679,1035.046484200051,1036.2151774000376,"[72, 0, 182]",182,a,0.6481781001202762,colour,0.06
143,22,1,1,14,30,680,1036.7186063998379,1037.719247999834,"[81, 0, 173]",173,l,0.4743786999024451,colour,0.06
143,22,1,1,14,31,681,1038.2246373998933,1039.2471981998533,"[80, 0, 174]",174,l,0.5115139000117779,colour,0.06
143,22,1,1,14,32,682,1039.7590864000376,1040.7673450999428,"[53, 0, 201]",201,a,0.48497310001403093,colour,0.06
143,22,1,1,14,33,683,1041.2745980999898,1042.367229099851,"[56, 0, 198]",198,a,0.567670299904421,colour,0.06
143,22,1,1,14,34,684,1042.886474599829,1043.9592470999341,"[67, 0, 187]",187,a,0.5495062000118196,colour,0.06
143,22,1,1,14,35,685,1044.4800231999252,1045.4072318000253,"[70, 0, 184]",184,l,0.403843300184235,colour,0.06
143,22,1,1,14,36,686,1045.9104915000498,1047.0952906999737,"[90, 0, 164]",164,l,0.6584904999472201,colour,0.06
143,22,1,1,14,37,687,1047.6110572000034,1048.5911586999428,"[71, 0, 183]",183,l,0.4568451000377536,colour,0.06
143,22,1,1,14,38,688,1049.1109338998795,1050.1031912998296,"[51, 0, 203]",203,a,0.46941409981809556,colour,0.06
143,22,1,1,14,39,689,1050.6107781999744,1051.5752492998727,"[69, 0, 185]",185,a,0.44166160002350807,colour,0.06
143,22,1,1,14,40,690,1052.09503820003,1053.167249500053,"[82, 0, 172]",172,l,0.5488013001158834,colour,0.06
143,22,1,1,14,41,691,1053.663721299963,1054.6232055998407,"[28, 0, 226]",226,a,0.43729969998821616,colour,0.06
143,22,1,1,14,42,692,1055.1323384998832,1056.1671974000055,"[62, 0, 192]",192,a,0.5115148001350462,colour,0.06
143,22,1,1,14,43,693,1056.6791638999712,1057.7192740999162,"[93, 0, 161]",161,l,0.5176893000025302,colour,0.06
143,22,1,1,14,44,694,1058.2250514999032,1059.1991552999243,"[52, 0, 202]",202,a,0.46293519996106625,colour,0.06
143,22,1,1,14,45,695,1059.7137239000294,1060.7752059998456,"[54, 0, 200]",200,a,0.5382521999999881,colour,0.06
143,22,1,1,14,46,696,1061.29169299989,1062.5753339999355,"[87, 0, 167]",167,l,0.7604308999143541,colour,0.06
143,22,1,1,14,47,697,1063.088436999824,1064.1111967999022,"[92, 0, 162]",162,l,0.49949739989824593,colour,0.06
143,22,1,1,14,48,698,1064.6195501999464,1065.439233199926,"[65, 0, 189]",189,a,0.29670109995640814,colour,0.06
143,22,1,1,14,49,699,1065.9473848999478,1066.9832666998263,"[64, 0, 190]",190,l,0.5125228997785598,colour,0.06
143,22,1,1,14,50,700,1067.48197730002,1068.2871909998357,"[14, 0, 240]",240,a,0.2820161997806281,colour,0.06
143,22,1,1,15,1,701,1074.543210899923,1075.6232047998346,"[58, 0, 196]",196,a,0.5543268998153508,colour,0.06
143,22,1,1,15,2,702,1076.139231499983,1077.1432465000544,"[50, 0, 204]",204,a,0.4809014000929892,colour,0.06
143,22,1,1,15,3,703,1077.6546769998968,1078.4072386999615,"[97, 0, 157]",157,l,0.23029619990848005,colour,0.06
143,22,1,1,15,4,704,1078.9201676000375,1083.1271816999651,"[71, 0, 183]",183,l,3.6838155000004917,colour,0.06
143,22,1,1,15,5,705,1083.6261618998833,1084.4871904999018,"[75, 0, 179]",179,l,0.33777379989624023,colour,0.06
143,22,1,1,15,6,706,1085.0010452999268,1086.287169399904,"[92, 0, 162]",162,l,0.7628599999006838,colour,0.06
143,22,1,1,15,7,707,1086.7977231999394,1087.7592129998375,"[62, 0, 192]",192,a,0.43829069985076785,colour,0.06
143,22,1,1,15,8,708,1088.266361600021,1089.0472206999548,"[64, 0, 190]",190,a,0.25763959996402264,colour,0.06
143,22,1,1,15,9,709,1089.563049599994,1090.4791895998642,"[5, 0, 249]",249,a,0.3928069998510182,colour,0.06
143,22,1,1,15,10,710,1090.9944714999292,1092.00732590002,"[33, 0, 221]",221,a,0.48958970000967383,colour,0.06
143,22,1,1,15,11,711,1092.5255799998995,1093.5432132999413,"[99, 0, 155]",155,l,0.4952724000904709,colour,0.06
143,22,1,1,15,12,712,1094.0567174998578,1095.1991355000064,"[72, 0, 182]",182,l,0.6193345000501722,colour,0.06
143,22,1,1,15,13,713,1095.7104819999076,1097.191195399966,"[78, 0, 176]",176,l,0.9574561000335962,colour,0.06
143,22,1,1,15,14,714,1097.710503499955,1098.6471686998848,"[91, 0, 163]",163,l,0.4133077999576926,colour,0.06
143,22,1,1,15,15,715,1099.1545655999798,1099.9351921000052,"[86, 0, 168]",168,l,0.257311400026083,colour,0.06
143,22,1,1,15,16,716,1100.4532967999112,1101.1511570999864,"[54, 0, 200]",200,a,0.17459250008687377,colour,0.06
143,22,1,1,15,17,717,1101.659323999891,1102.4952440999914,"[90, 0, 164]",164,l,0.3126748001668602,colour,0.06
143,22,1,1,15,18,718,1102.9918682998978,1103.8231589000206,"[85, 0, 169]",169,l,0.307990700006485,colour,0.06
143,22,1,1,15,19,719,1104.3354348998982,1105.1432121999096,"[87, 0, 167]",167,l,0.284472799859941,colour,0.06
143,22,1,1,15,20,720,1105.6634193998761,1106.4712151000276,"[98, 0, 156]",156,l,0.28430820000357926,colour,0.06
143,22,1,1,15,21,721,1106.9914690000005,1107.7592831999063,"[52, 0, 202]",202,a,0.2444489998742938,colour,0.06
143,22,1,1,15,22,722,1108.2726314999163,1109.1111437999643,"[94, 0, 160]",160,l,0.3153470999095589,colour,0.06
143,22,1,1,15,23,723,1109.6302354999352,1110.4071835000068,"[61, 0, 193]",193,a,0.25353460013866425,colour,0.06
143,22,1,1,15,24,724,1110.927776800003,1111.8071365000214,"[74, 0, 180]",180,l,0.35300890007056296,colour,0.06
143,22,1,1,15,25,725,1112.321450599935,1113.743207299849,"[70, 0, 184]",184,l,0.8984446998219937,colour,0.06
143,22,1,1,15,26,726,1114.2587488000281,1115.2231552999,"[68, 0, 186]",186,l,0.441197199979797,colour,0.06
143,22,1,1,15,27,727,1115.7429808999877,1116.583124900004,"[93, 0, 161]",161,l,0.31689639994874597,colour,0.06
143,22,1,1,15,28,728,1117.1022492998745,1117.8631525998935,"[65, 0, 189]",189,l,0.23771449993364513,colour,0.06
143,22,1,1,15,29,729,1118.383330399869,1119.1831316000316,"[67, 0, 187]",187,l,0.2763775000348687,colour,0.06
143,22,1,1,15,30,730,1119.6864362999331,1120.5751495999284,"[80, 0, 174]",174,l,0.36082589998841286,colour,0.06
143,22,1,1,15,31,731,1121.0835446999408,1121.951207399834,"[60, 0, 194]",194,a,0.3443484997842461,colour,0.06
143,22,1,1,15,32,732,1122.458404300036,1123.2711320999078,"[83, 0, 171]",171,l,0.2897586999461055,colour,0.06
143,22,1,1,15,33,733,1123.7864132998511,1124.6231463998556,"[95, 0, 159]",159,l,0.3134424998424947,colour,0.06
143,22,1,1,15,34,734,1125.1299831999931,1125.9031429998577,"[59, 0, 195]",195,a,0.2498814999125898,colour,0.06
143,22,1,1,15,35,735,1126.411255999934,1127.1350979998242,"[63, 0, 191]",191,a,0.20063839992508292,colour,0.06
143,22,1,1,15,36,736,1127.6455139999744,1128.3272022998426,"[84, 0, 170]",170,l,0.15856189979240298,colour,0.06
143,22,1,1,15,37,737,1128.848540799925,1129.7271531999577,"[79, 0, 175]",175,l,0.355380899971351,colour,0.06
143,22,1,1,15,38,738,1130.2389980000444,1131.1031885999255,"[82, 0, 172]",172,l,0.3409440000541508,colour,0.06
143,22,1,1,15,39,739,1131.6138975999784,1132.143139799824,"[73, 0, 181]",181,l,0.00678089982829988,colour,0.06
143,22,1,1,15,40,740,1132.6608058998827,1133.8711506000254,"[66, 0, 188]",188,l,0.6870193001814187,colour,0.06
143,22,1,1,15,41,741,1134.3794342000037,1135.375160699943,"[96, 0, 158]",158,l,0.47246109996922314,colour,0.06
143,22,1,1,15,42,742,1135.895342899952,1136.727215099847,"[57, 0, 197]",197,a,0.308599199866876,colour,0.06
143,22,1,1,15,43,743,1137.238922599936,1138.407153399894,"[81, 0, 173]",173,l,0.6450400999747217,colour,0.06
143,22,1,1,15,44,744,1138.927243199898,1139.7351273999084,"[76, 0, 178]",178,l,0.28462609997950494,colour,0.06
143,22,1,1,15,45,745,1140.2552191999275,1141.1271820999682,"[10, 0, 244]",244,a,0.3485743999481201,colour,0.06
143,22,1,1,15,46,746,1141.6458330999594,1142.4391570000444,"[89, 0, 165]",165,l,0.27030840003862977,colour,0.06
143,22,1,1,15,47,747,1142.9581907999236,1143.7831331999041,"[53, 0, 201]",201,a,0.30160999996587634,colour,0.06
143,22,1,1,15,48,748,1144.301829899894,1145.1031602998264,"[88, 0, 166]",166,l,0.27802419988438487,colour,0.06
143,22,1,1,15,49,749,1145.6146281999536,1146.3991276999004,"[55, 0, 199]",199,a,0.2612197999842465,colour,0.06
143,22,1,1,15,50,750,1146.9114180998877,1147.9271148999687,"[77, 0, 177]",177,l,0.49222030001692474,colour,0.06
143,22,1,1,16,1,751,1152.7070247998927,1153.6870905999094,"[29, 0, 225]",225,a,0.45595309999771416,colour,0.06
143,22,1,1,16,2,752,1154.2077669999562,1154.7991396000143,"[78, 0, 176]",176,l,0.06807780009694397,colour,0.06
143,22,1,1,16,3,753,1155.3170327998232,1155.8631797998678,"[38, 0, 216]",216,a,0.022808699868619442,colour,0.06
143,22,1,1,16,4,754,1156.3794519999065,1157.6231474999804,"[64, 0, 190]",190,a,0.7205104001332074,colour,0.06
143,22,1,1,16,5,755,1158.1292550999206,1158.9510842999443,"[97, 0, 157]",157,l,0.2988330000080168,colour,0.06
143,22,1,1,16,6,756,1159.4572663998697,1160.4391761999577,"[58, 0, 196]",196,a,0.45888429996557534,colour,0.06
143,22,1,1,16,7,757,1160.9571310998872,1161.7431051000021,"[98, 0, 156]",156,l,0.26307920017279685,colour,0.06
143,22,1,1,16,8,758,1162.2539158998989,1163.0711437000427,"[68, 0, 186]",186,l,0.29401230020448565,colour,0.06
143,22,1,1,16,9,759,1163.5695458999835,1164.4951990998816,"[95, 0, 159]",159,l,0.41505869990214705,colour,0.06
143,22,1,1,16,10,760,1165.0101870999206,1165.791144900024,"[53, 0, 201]",201,a,0.2578204001765698,colour,0.06
143,22,1,1,16,11,761,1166.3068709999789,1167.0631013000384,"[61, 0, 193]",193,a,0.23139440012164414,colour,0.06
143,22,1,1,16,12,762,1167.5738305998966,1168.39113610005,"[88, 0, 166]",166,l,0.2942451999988407,colour,0.06
143,22,1,1,16,13,763,1168.893891699845,1169.7511352999136,"[72, 0, 182]",182,a,0.3338886999990791,colour,0.06
143,22,1,1,16,14,764,1170.2687380998395,1171.0471516000107,"[84, 0, 170]",170,l,0.25208830018527806,colour,0.06
143,22,1,1,16,15,765,1171.5535587000195,1172.4151367999148,"[96, 0, 158]",158,l,0.3386897000018507,colour,0.06
143,22,1,1,16,16,766,1172.916112100007,1173.7030930998735,"[60, 0, 194]",194,a,0.2637702999636531,colour,0.06
143,22,1,1,16,17,767,1174.2127006999217,1175.0871394998394,"[83, 0, 171]",171,l,0.3510563999880105,colour,0.06
143,22,1,1,16,18,768,1175.6033411999233,1176.3750938999,"[57, 0, 197]",197,a,0.24848449998535216,colour,0.06
143,22,1,1,16,19,769,1176.8861090999562,1177.6230945999268,"[63, 0, 191]",191,a,0.22280019987374544,colour,0.06
143,22,1,1,16,20,770,1178.1426772000268,1179.0790766000282,"[9, 0, 245]",245,a,0.4130528001114726,colour,0.06
143,22,1,1,16,21,771,1179.5956724998541,1180.2311619999819,"[81, 0, 173]",173,l,0.11211990006268024,colour,0.06
143,22,1,1,16,22,772,1180.7518137998413,1181.4951261999086,"[79, 0, 175]",175,l,0.2200237000361085,colour,0.06
143,22,1,1,16,23,773,1182.001667500008,1183.3831477998756,"[90, 0, 164]",164,l,0.8582313999067992,colour,0.06
143,22,1,1,16,24,774,1183.894512400031,1184.7351198999677,"[50, 0, 204]",204,a,0.3143873999360949,colour,0.06
143,22,1,1,16,25,775,1185.2290067998692,1185.999193900032,"[66, 0, 188]",188,a,0.2470051001291722,colour,0.06
143,22,1,1,16,26,776,1186.50998039986,1187.311130899936,"[94, 0, 160]",160,l,0.27787350001744926,colour,0.06
143,22,1,1,16,27,777,1187.8099650000222,1188.5831418000162,"[55, 0, 199]",199,a,0.24681070004589856,colour,0.06
143,22,1,1,16,28,778,1189.0960827998351,1189.9671326999087,"[71, 0, 183]",183,l,0.3477433999069035,colour,0.06
143,22,1,1,16,29,779,1190.4866304998286,1191.3351493999362,"[52, 0, 202]",202,a,0.32507780008018017,colour,0.06
143,22,1,1,16,30,780,1191.8459341998678,1192.6870901999064,"[86, 0, 168]",168,l,0.33041399996727705,colour,0.06
143,22,1,1,16,31,781,1193.2100940998644,1194.1911217998713,"[76, 0, 178]",178,l,0.45449090003967285,colour,0.06
143,22,1,1,16,32,782,1194.6851170998998,1195.6310725999065,"[74, 0, 180]",180,l,0.4227919999975711,colour,0.06
143,22,1,1,16,33,783,1196.1380721998867,1196.9751385999843,"[89, 0, 165]",165,l,0.31380779994651675,colour,0.06
143,22,1,1,16,34,784,1197.4724305998534,1198.311086999951,"[73, 0, 181]",181,l,0.31547080003656447,colour,0.06
143,22,1,1,16,35,785,1198.8317660999019,1199.70313719986,"[87, 0, 167]",167,l,0.348209299845621,colour,0.06
143,22,1,1,16,36,786,1200.2221423999872,1201.079130299855,"[85, 0, 169]",169,l,0.3337805999908596,colour,0.06
143,22,1,1,16,37,787,1201.5970985000022,1202.535099199973,"[91, 0, 163]",163,l,0.41472000000067055,colour,0.06
143,22,1,1,16,38,788,1203.0501043000259,1203.97514460003,"[59, 0, 195]",195,a,0.40779820014722645,colour,0.06
143,22,1,1,16,39,789,1204.4814261000138,1205.359091799939,"[51, 0, 203]",203,a,0.3543801000341773,colour,0.06
143,22,1,1,16,40,790,1205.8719631000422,1206.8470782998484,"[82, 0, 172]",172,l,0.45183719997294247,colour,0.06
143,22,1,1,16,41,791,1207.3562457999215,1208.8790785998572,"[75, 0, 179]",179,l,0.9997956999577582,colour,0.06
143,22,1,1,16,42,792,1209.3872803000268,1210.1670812999364,"[93, 0, 161]",161,l,0.25728289992548525,colour,0.06
143,22,1,1,16,43,793,1210.6848168999422,1211.6390841000248,"[62, 0, 192]",192,a,0.4307651000563055,colour,0.06
143,22,1,1,16,44,794,1212.1536279998254,1212.9350836998783,"[56, 0, 198]",198,a,0.2706408998928964,colour,0.06
143,22,1,1,16,45,795,1213.4535602000542,1214.367036700016,"[99, 0, 155]",155,l,0.39018900017254055,colour,0.06
143,22,1,1,16,46,796,1214.8773447999265,1215.863097799942,"[54, 0, 200]",200,a,0.4624900999478996,colour,0.06
143,22,1,1,16,47,797,1216.377199599985,1217.2070867000148,"[80, 0, 174]",174,l,0.30658089998178184,colour,0.06
143,22,1,1,16,48,798,1217.7207611999474,1218.623063399922,"[70, 0, 184]",184,l,0.37901700008660555,colour,0.06
143,22,1,1,16,49,799,1219.1426142000128,1220.0230912000407,"[92, 0, 162]",162,l,0.3573046000674367,colour,0.06
143,22,1,1,16,50,800,1220.5330562999006,1221.367045899853,"[69, 0, 185]",185,a,0.31081089982762933,colour,0.06
