id,age,condition,counterbalance,block,trialinblock,trial,tstart,tend,trialstim,trialintensity,response,RT,trialtype,colourfreq
141,22,0,2,Practice,1,NA,5.9076701290905476e-06,1.6874118768027984,"[58, 0, 196]",196,a,1.1629378588986583,colour,0.5
141,22,0,2,Practice,2,NA,2.204165321018081,2.791383425355889,"[18, 0, 236]",236,a,0.062311642919667065,colour,0.5
141,22,0,2,Practice,3,NA,3.2996392365312204,4.079428607423324,"[57, 0, 197]",197,a,0.25711405009496957,colour,0.5
141,22,0,2,Practice,4,NA,4.596148574666586,5.351428875233978,"[4, 0, 250]",250,a,0.23184603749541566,colour,0.5
141,22,0,2,Practice,5,NA,5.862210030492861,6.775388529582415,"[11, 0, 243]",243,a,0.38771553250262514,colour,0.5
141,22,0,2,Practice,6,NA,7.286388269683812,8.143399131949991,"[15, 0, 239]",239,a,0.3340196766075678,colour,0.5
141,22,0,2,Practice,7,NA,8.661390435823705,9.439385835663415,"[43, 0, 211]",211,a,0.25462021376006305,colour,0.5
141,22,0,2,Practice,8,NA,9.958343245147262,10.727385725418571,"[67, 0, 187]",187,a,0.24575669737532735,colour,0.5
141,22,0,2,Practice,9,NA,11.239750143722631,12.159411356959026,"[88, 0, 166]",166,l,0.3962887840461917,colour,0.5
141,22,0,2,Practice,10,NA,12.677395571547095,13.631461643264629,"[68, 0, 186]",186,a,0.43082479340955615,colour,0.5
141,22,0,2,1,1,1,4.43992107314989,5.160000157542527,"[75, 0, 179]",179,a,0.19602569454582408,colour,0.5
141,22,0,2,1,2,2,5.675196332507767,6.415987806511112,"[52, 0, 202]",202,a,0.21754822647199035,colour,0.5
141,22,0,2,1,3,3,6.92528061568737,7.728012729145121,"[19, 0, 235]",235,a,0.27964010305004194,colour,0.5
141,22,0,2,1,4,4,8.237933329655789,9.02404314983869,"[26, 0, 228]",228,a,0.26270745863439515,colour,0.5
141,22,0,2,1,5,5,9.534945215971675,10.32800327683799,"[87, 0, 167]",167,l,0.27110820543020964,colour,0.5
141,22,0,2,1,6,6,10.846050113032106,11.600013390823733,"[62, 0, 192]",192,a,0.23854418564587831,colour,0.5
141,22,0,2,1,7,7,12.119452868413646,12.87999495875556,"[11, 0, 243]",243,a,0.2371188550023362,colour,0.5
141,22,0,2,1,8,8,13.400838499306701,14.192023032170255,"[36, 0, 218]",218,a,0.2682201287243515,colour,0.5
141,22,0,2,1,9,9,14.714118217001669,15.512011925689876,"[8, 0, 246]",246,a,0.27846801572013646,colour,0.5
141,22,0,2,1,10,10,16.011286066495813,16.744039132609032,"[91, 0, 163]",163,l,0.2094078123336658,colour,0.5
141,22,0,2,1,11,11,17.261406583536882,18.06408040772658,"[80, 0, 174]",174,l,0.2792832780396566,colour,0.5
141,22,0,2,1,12,12,18.5740336975432,19.335990090854466,"[66, 0, 188]",188,a,0.24258938350249082,colour,0.5
141,22,0,2,1,13,13,19.85205154668074,20.672042015590705,"[68, 0, 186]",186,a,0.2968350492301397,colour,0.5
141,22,0,2,1,14,14,21.1802663190756,22.03203429619316,"[61, 0, 193]",193,a,0.3285932589205913,colour,0.5
141,22,0,2,1,15,15,22.53978243918391,23.328028483025264,"[7, 0, 247]",247,a,0.2648149315500632,colour,0.5
141,22,0,2,1,16,16,23.836793143942486,24.575997416395694,"[84, 0, 170]",170,l,0.21579679095884785,colour,0.5
141,22,0,2,1,17,17,25.086878214788157,25.824121919169556,"[39, 0, 215]",215,a,0.21391696139471605,colour,0.5
141,22,0,2,1,18,18,26.33700424566632,27.056025852099992,"[90, 0, 164]",164,l,0.1956952572800219,colour,0.5
141,22,0,2,1,19,19,27.571432734956034,28.34399620332988,"[55, 0, 199]",199,a,0.24992910760920495,colour,0.5
141,22,0,2,1,20,20,28.852811670454685,29.68001031881431,"[3, 0, 251]",251,a,0.3037253944785334,colour,0.5
141,22,0,2,1,21,21,30.19870030641323,30.96802871930413,"[54, 0, 200]",200,a,0.2465751104755327,colour,0.5
141,22,0,2,1,22,22,31.47931675502332,32.21601892041508,"[28, 0, 226]",226,a,0.2131836191401817,colour,0.5
141,22,0,2,1,23,23,32.7293675612309,33.4160330988816,"[43, 0, 211]",211,a,0.16352587175788358,colour,0.5
141,22,0,2,1,24,24,33.9326703583356,34.632039022340905,"[51, 0, 203]",203,a,0.17587059776997194,colour,0.5
141,22,0,2,1,25,25,35.15152103535365,35.71201547031524,"[20, 0, 234]",234,a,0.03720274433726445,colour,0.5
141,22,0,2,1,26,26,36.22965940152062,36.864103644678835,"[5, 0, 249]",249,a,0.11095917387865484,colour,0.5
141,22,0,2,1,27,27,37.37200184323592,38.05611879989738,"[65, 0, 189]",189,a,0.16076933982549235,colour,0.5
141,22,0,2,1,28,28,38.57536726194667,39.29600836534519,"[44, 0, 210]",210,a,0.1979094625567086,colour,0.5
141,22,0,2,1,29,29,39.80955196020659,40.51200838107616,"[49, 0, 205]",205,a,0.17922735185129568,colour,0.5
141,22,0,2,1,30,30,41.028389246435836,41.77601435180986,"[46, 0, 208]",208,a,0.22425070696044713,colour,0.5
141,22,0,2,1,31,31,42.29418564355001,43.16801217774628,"[72, 0, 182]",182,l,0.34924499614862725,colour,0.5
141,22,0,2,1,32,32,43.68650799902389,44.408044315641746,"[78, 0, 176]",176,l,0.19831591221736744,colour,0.5
141,22,0,2,1,33,33,44.92087229131721,45.64806581963785,"[12, 0, 242]",242,a,0.20379313605371863,colour,0.5
141,22,0,2,1,34,34,46.15529841755051,46.78402361506596,"[35, 0, 219]",219,a,0.10523067595204338,colour,0.5
141,22,0,2,1,35,35,47.296042629983276,48.008054555626586,"[76, 0, 178]",178,l,0.1885780564043671,colour,0.5
141,22,0,2,1,36,36,48.51489448855864,49.04872511874419,"[29, 0, 225]",225,a,0.010495222639292479,colour,0.5
141,22,0,2,1,37,37,49.5618484793813,50.248064638115466,"[22, 0, 232]",232,a,0.16284530493430793,colour,0.5
141,22,0,2,1,38,38,50.765058722521644,51.36000882217195,"[47, 0, 207]",207,a,0.07185296918032691,colour,0.5
141,22,0,2,1,39,39,51.874541759549174,52.496059171506204,"[79, 0, 175]",175,l,0.09824305056827143,colour,0.5
141,22,0,2,1,40,40,53.015210353478324,53.70402038551401,"[41, 0, 213]",213,a,0.16531275352463126,colour,0.5
141,22,0,2,1,41,41,54.218498578236904,55.80004489852581,"[63, 0, 191]",191,l,1.0585043283645064,colour,0.5
141,22,0,2,1,42,42,56.31406859232811,56.98408544895938,"[96, 0, 158]",158,l,0.1466751474654302,colour,0.5
141,22,0,2,1,43,43,57.49053389840992,58.24096122186165,"[99, 0, 155]",155,l,0.2270478050922975,colour,0.5
141,22,0,2,1,44,44,58.75205666664988,59.36016990541248,"[48, 0, 206]",206,a,0.08508581918431446,colour,0.5
141,22,0,2,1,45,45,59.87718565139221,60.544111206545494,"[13, 0, 241]",241,a,0.14362401835387573,colour,0.5
141,22,0,2,1,46,46,61.05586910119746,61.65605775365839,"[98, 0, 156]",156,l,0.07677408173913136,colour,0.5
141,22,0,2,1,47,47,62.16526391659863,62.79204784450121,"[23, 0, 231]",231,a,0.10337762796552852,colour,0.5
141,22,0,2,1,48,48,63.30597347050207,64.01606578816427,"[50, 0, 204]",204,a,0.18661591300042346,colour,0.5
141,22,0,2,1,49,49,64.52484738448402,65.18411341204774,"[10, 0, 244]",244,a,0.1417973580537364,colour,0.5
141,22,0,2,1,50,50,65.69102344964631,66.95204130664933,"[70, 0, 184]",184,l,0.7378080864436924,colour,0.5
141,22,0,2,2,1,51,71.95659417269053,72.74405409878818,"[48, 0, 206]",206,a,0.26328877615742385,colour,0.5
141,22,0,2,2,2,52,73.26290792657528,73.93609170324635,"[91, 0, 163]",163,l,0.14999684924259782,colour,0.5
141,22,0,2,2,3,53,74.45038675732212,75.11213007965125,"[99, 0, 155]",155,l,0.14591974980430678,colour,0.5
141,22,0,2,2,4,54,75.6303257898544,76.89613636542344,"[72, 0, 182]",182,l,0.7423865525051951,colour,0.5
141,22,0,2,2,5,55,77.41160586988553,78.11208203039132,"[71, 0, 183]",183,l,0.17725181760033593,colour,0.5
141,22,0,2,2,6,56,78.63054043625016,79.34410451113945,"[58, 0, 196]",196,a,0.19028971350053325,colour,0.5
141,22,0,2,2,7,57,79.86502957792254,80.52805565838935,"[4, 0, 250]",250,a,0.1395319527364336,colour,0.5
141,22,0,2,2,8,58,81.03697785799159,81.68812670832267,"[41, 0, 213]",213,a,0.12775987962959334,colour,0.5
141,22,0,2,2,9,59,82.20896631036885,82.80012721248204,"[23, 0, 231]",231,a,0.06787945149699226,colour,0.5
141,22,0,2,2,10,60,83.31839696579846,83.87211093871156,"[16, 0, 238]",238,a,0.030190700490493327,colour,0.5
141,22,0,2,2,11,61,84.38101620285306,85.52808559074765,"[65, 0, 189]",189,a,0.6355860042385757,colour,0.5
141,22,0,2,2,12,62,86.03954298049212,86.72005387820536,"[67, 0, 187]",187,a,0.1575315273948945,colour,0.5
141,22,0,2,2,13,63,87.22678865410853,87.936090127856,"[1, 0, 253]",253,a,0.18560333352070302,colour,0.5
141,22,0,2,2,14,64,88.44556174334139,89.12815608928213,"[10, 0, 244]",244,a,0.15918253210838884,colour,0.5
141,22,0,2,2,15,65,89.64891770971008,90.35207399592036,"[80, 0, 174]",174,l,0.1801934574614279,colour,0.5
141,22,0,2,2,16,66,90.86773766670376,91.64814419508912,"[97, 0, 157]",157,l,0.25710065924795344,colour,0.5
141,22,0,2,2,17,67,92.16469559603138,92.78416618751362,"[32, 0, 222]",222,a,0.09623994707362726,colour,0.5
141,22,0,2,2,18,68,93.3053417406627,93.9600856222678,"[55, 0, 199]",199,a,0.1312946523539722,colour,0.5
141,22,0,2,2,19,69,94.4773195591988,95.0961076146341,"[20, 0, 234]",234,a,0.09533803845988587,colour,0.5
141,22,0,2,2,20,70,95.60233432846144,96.18406851356849,"[37, 0, 217]",217,a,0.058262112783268094,colour,0.5
141,22,0,2,2,21,71,96.69621986092534,97.47210069868015,"[95, 0, 159]",159,l,0.25100864097476006,colour,0.5
141,22,0,2,2,22,72,97.97907178249443,98.69611706695287,"[47, 0, 207]",207,a,0.1937287814798765,colour,0.5
141,22,0,2,2,23,73,99.21351326868171,99.89608989155386,"[29, 0, 225]",225,a,0.15911833511199802,colour,0.5
141,22,0,2,2,24,74,100.41673965955852,101.03209691779921,"[25, 0, 229]",229,a,0.09205060143722221,colour,0.5
141,22,0,2,2,25,75,101.54193284129724,102.1761447149911,"[78, 0, 176]",176,l,0.11107378319138661,colour,0.5
141,22,0,2,2,26,76,102.68261403829092,103.43209416087484,"[6, 0, 248]",248,a,0.22483005526009947,colour,0.5
141,22,0,2,2,27,77,103.94959315651795,104.67206919100136,"[77, 0, 177]",177,l,0.1991067560738884,colour,0.5
141,22,0,2,2,28,78,105.18579434911953,105.816072089714,"[86, 0, 168]",168,l,0.10713728703558445,colour,0.5
141,22,0,2,2,29,79,106.32689814345213,106.96012697613332,"[94, 0, 160]",160,l,0.10990366514306515,colour,0.5
141,22,0,2,2,30,80,107.46760297118453,108.26420289400266,"[2, 0, 252]",252,a,0.27314045355888084,colour,0.5
141,22,0,2,2,31,81,108.78015092201531,109.41614061896689,"[66, 0, 188]",188,l,0.11250265844864771,colour,0.5
141,22,0,2,2,32,82,109.93649933440611,110.50410703173839,"[31, 0, 223]",223,a,0.04418328043539077,colour,0.5
141,22,0,2,2,33,83,111.01482595922425,111.77607421646826,"[46, 0, 208]",208,a,0.2379152126959525,colour,0.5
141,22,0,2,2,34,84,112.29763258848106,113.73612439254066,"[70, 0, 184]",184,l,0.9152217750088312,colour,0.5
141,22,0,2,2,35,85,114.25080935464939,115.01613510516472,"[83, 0, 171]",171,l,0.24190290895057842,colour,0.5
141,22,0,2,2,36,86,115.53214851167286,116.28009932814166,"[19, 0, 235]",235,a,0.2248115444672294,colour,0.5
141,22,0,2,2,37,87,116.7982395059662,117.72818090161309,"[61, 0, 193]",193,a,0.40688483137637377,colour,0.5
141,22,0,2,2,38,88,118.23798256047303,118.95215473446297,"[52, 0, 202]",202,a,0.19118689594324678,colour,0.5
141,22,0,2,2,39,89,119.47237245284487,120.0241829653969,"[56, 0, 198]",198,a,0.028328200220130384,colour,0.5
141,22,0,2,2,40,90,120.53502437914722,121.15214370674221,"[8, 0, 246]",246,a,0.09374689846299589,colour,0.5
141,22,0,2,2,41,91,121.66007656377042,123.10412042256212,"[7, 0, 247]",247,a,0.9212708640261553,colour,0.5
141,22,0,2,2,42,92,123.61340535478666,124.30408418865409,"[42, 0, 212]",212,a,0.16601025575073436,colour,0.5
141,22,0,2,2,43,93,124.81803580856649,125.49613518390106,"[17, 0, 237]",237,a,0.15480138320708647,colour,0.5
141,22,0,2,2,44,94,126.00557135319104,126.6881204067613,"[45, 0, 209]",209,a,0.15920025517698377,colour,0.5
141,22,0,2,2,45,95,127.2087827778887,127.94413798808819,"[63, 0, 191]",191,a,0.21211275039240718,colour,0.5
141,22,0,2,2,46,96,128.45886115333997,129.09613400237868,"[11, 0, 243]",243,a,0.11408631544327363,colour,0.5
141,22,0,2,2,47,97,129.6151934180525,130.23215560091194,"[13, 0, 241]",241,a,0.0934826274169609,colour,0.5
141,22,0,2,2,48,98,130.7403464274248,131.71209739038022,"[68, 0, 186]",186,l,0.44844942615600303,colour,0.5
141,22,0,2,2,49,99,132.22489858453628,133.13611651555402,"[62, 0, 192]",192,l,0.3883535639033653,colour,0.5
141,22,0,2,2,50,100,133.6469429631834,134.40016147709684,"[76, 0, 178]",178,l,0.23052074387669563,colour,0.5
141,22,0,2,3,1,101,139.25865753472317,139.94413286808413,"[48, 0, 206]",206,a,0.16144911898300052,colour,0.5
141,22,0,2,3,2,102,140.46280592033872,141.02415382070467,"[60, 0, 194]",194,a,0.038114892900921404,colour,0.5
141,22,0,2,3,3,103,141.5408934802981,142.4881397052668,"[90, 0, 164]",164,l,0.4239305097144097,colour,0.5
141,22,0,2,3,4,104,143.0097689696122,143.74416043737438,"[40, 0, 214]",214,a,0.2111312848282978,colour,0.5
141,22,0,2,3,5,105,144.25995801598765,144.92011216754327,"[99, 0, 155]",155,l,0.1368301655165851,colour,0.5
141,22,0,2,3,6,106,145.43177829589695,146.08813222218305,"[29, 0, 225]",225,a,0.13283222925383598,colour,0.5
141,22,0,2,3,7,107,146.6038419730612,147.2081341126468,"[74, 0, 180]",180,l,0.08095633814809844,colour,0.5
141,22,0,2,3,8,108,147.72884925920516,148.40814750344725,"[53, 0, 201]",201,a,0.15410151792457327,colour,0.5
141,22,0,2,3,9,109,148.91842217202066,149.58415043365676,"[10, 0, 244]",244,l,0.1424767433782108,colour,0.5
141,22,0,2,3,10,110,150.09038659976795,150.73615196178434,"[11, 0, 243]",243,a,0.12251660064794123,colour,0.5
141,22,0,2,3,11,111,151.24549518327694,151.89619859319646,"[76, 0, 178]",178,l,0.1276267595239915,colour,0.5
141,22,0,2,3,12,112,152.4175033280044,153.16820358717814,"[70, 0, 184]",184,l,0.2271104266983457,colour,0.5
141,22,0,2,3,13,113,153.68789000657853,154.40012051706435,"[24, 0, 230]",230,a,0.18958197126630694,colour,0.5
141,22,0,2,3,14,114,154.90674816665705,155.51216001197463,"[28, 0, 226]",226,a,0.08203468995634466,colour,0.5
141,22,0,2,3,15,115,156.03179011133034,156.73611769714626,"[49, 0, 205]",205,a,0.18097445514285937,colour,0.5
141,22,0,2,3,16,116,157.25070656073513,157.8401518672472,"[0, 0, 254]",254,a,0.06608863122528419,colour,0.5
141,22,0,2,3,17,117,158.36017423775047,158.99219278001692,"[98, 0, 156]",156,l,0.10873157781315967,colour,0.5
141,22,0,2,3,18,118,159.5008625239716,160.20014966168674,"[22, 0, 232]",232,a,0.17602419789182022,colour,0.5
141,22,0,2,3,19,119,160.71967775479425,161.38419808907202,"[58, 0, 196]",196,a,0.1420769891119562,colour,0.5
141,22,0,2,3,20,120,161.89163430564804,162.55214764521224,"[32, 0, 222]",222,a,0.13731774751795456,colour,0.5
141,22,0,2,3,21,121,163.0652095657424,163.66420486324932,"[45, 0, 209]",209,a,0.0755787575035356,colour,0.5
141,22,0,2,3,22,122,164.17472962435568,164.81614061899018,"[68, 0, 186]",186,l,0.11810315627371892,colour,0.5
141,22,0,2,3,23,123,165.3312056430732,165.98412955977255,"[18, 0, 236]",236,a,0.12962907529436052,colour,0.5
141,22,0,2,3,24,124,166.50312084000325,167.49619504855946,"[50, 0, 204]",204,a,0.4697604625253007,colour,0.5
141,22,0,2,3,25,125,168.00320472934982,168.71220097201876,"[64, 0, 190]",190,a,0.18562105658929795,colour,0.5
141,22,0,2,3,26,126,169.22342599229887,169.88817554531852,"[26, 0, 228]",228,a,0.14137672999640927,colour,0.5
141,22,0,2,3,27,127,170.395384118543,171.11216473818058,"[23, 0, 231]",231,a,0.19329043035395443,colour,0.5
141,22,0,2,3,28,128,171.62992406642297,172.23217765631853,"[66, 0, 188]",188,l,0.07929903193144128,colour,0.5
141,22,0,2,3,29,129,172.73938307882054,173.64013453799998,"[77, 0, 177]",177,l,0.3773786362144165,colour,0.5
141,22,0,2,3,30,130,174.16139673738508,174.8881597914151,"[8, 0, 246]",246,a,0.2035131111042574,colour,0.5
141,22,0,2,3,31,131,175.3958342851256,176.04012981185224,"[71, 0, 183]",183,l,0.12088174367090687,colour,0.5
141,22,0,2,3,32,132,176.55209998978535,177.20814277726458,"[65, 0, 189]",189,l,0.13265972444787621,colour,0.5
141,22,0,2,3,33,133,177.72405811602948,178.3681582948193,"[52, 0, 202]",202,l,0.12070096808020025,colour,0.5
141,22,0,2,3,34,134,178.88049396238057,179.59217860153876,"[97, 0, 157]",157,l,0.18823934841202572,colour,0.5
141,22,0,2,3,35,135,180.09926390083274,180.78417879057815,"[21, 0, 233]",233,a,0.16143021429888904,colour,0.5
141,22,0,2,3,36,136,181.3040046316455,182.68816215451807,"[67, 0, 187]",187,l,0.8607673706137575,colour,0.5
141,22,0,2,3,37,137,183.19483470264822,183.92017439525807,"[92, 0, 162]",162,l,0.2020483958767727,colour,0.5
141,22,0,2,3,38,138,184.42933841660852,185.22418138996,"[14, 0, 240]",240,a,0.27150008268654346,colour,0.5
141,22,0,2,3,39,139,185.74262640508823,186.3361878017895,"[72, 0, 182]",182,l,0.07091915904311463,colour,0.5
141,22,0,2,3,40,140,186.8516852693865,187.52818877855316,"[46, 0, 208]",208,a,0.1529593628947623,colour,0.5
141,22,0,2,3,41,141,188.0392956448486,188.68818893609568,"[19, 0, 235]",235,a,0.12551810510922223,colour,0.5
141,22,0,2,3,42,142,189.19572676502867,189.80815656192135,"[16, 0, 238]",238,a,0.08914362010546029,colour,0.5
141,22,0,2,3,43,143,190.32222121575614,190.9522260206868,"[54, 0, 200]",200,a,0.10664182808250189,colour,0.5
141,22,0,2,3,44,144,191.46290162502555,192.0322020748281,"[34, 0, 220]",220,a,0.04588312213309109,colour,0.5
141,22,0,2,3,45,145,192.54114239127375,193.28822044382105,"[55, 0, 199]",199,a,0.22374855261296034,colour,0.5
141,22,0,2,3,46,146,193.80689782835543,194.37620064121438,"[25, 0, 229]",229,a,0.04591266060015187,colour,0.5
141,22,0,2,3,47,147,194.88504800992087,195.48819563147845,"[43, 0, 211]",211,a,0.07976180163677782,colour,0.5
141,22,0,2,3,48,148,195.9945377423428,196.6322229486541,"[91, 0, 163]",163,l,0.11433286330429837,colour,0.5
141,22,0,2,3,49,149,197.15091805631528,197.73617441102397,"[81, 0, 173]",173,l,0.06185044860467315,colour,0.5
141,22,0,2,3,50,150,198.2447460871772,198.936209857231,"[27, 0, 227]",227,a,0.1680913409218192,colour,0.5
141,22,0,2,4,1,151,203.79217387537938,204.39218569081277,"[45, 0, 209]",209,a,0.07601553335553035,colour,0.5
141,22,0,2,4,2,152,204.89891731587704,205.42423180234618,"[0, 0, 254]",254,a,0.0021271651494316757,colour,0.5
141,22,0,2,4,3,153,205.94605168845737,206.56819413485937,"[6, 0, 248]",248,a,0.09887241735123098,colour,0.5
141,22,0,2,4,4,154,207.08674470079131,208.08815860992763,"[17, 0, 237]",237,a,0.4778504643472843,colour,0.5
141,22,0,2,4,5,155,208.60243279009592,209.78423432295676,"[38, 0, 216]",216,l,0.658449977519922,colour,0.5
141,22,0,2,4,6,156,210.30609004909638,210.96022071159678,"[57, 0, 197]",197,a,0.13120446144603193,colour,0.5
141,22,0,2,4,7,157,211.47762242722092,212.20819673425285,"[50, 0, 204]",204,a,0.2071766717126593,colour,0.5
141,22,0,2,4,8,158,212.7276763842092,213.4322422471596,"[81, 0, 173]",173,l,0.18102250440279022,colour,0.5
141,22,0,2,4,9,159,213.94653848279268,214.57620615506312,"[8, 0, 246]",246,a,0.1062211999669671,colour,0.5
141,22,0,2,4,10,160,215.08729963056976,215.8243365655071,"[80, 0, 174]",174,l,0.2136621426907368,colour,0.5
141,22,0,2,4,11,161,216.33765881863656,217.0402038549655,"[54, 0, 200]",200,a,0.17934668733505532,colour,0.5
141,22,0,2,4,12,162,217.5562499507796,218.25625585846137,"[72, 0, 182]",182,a,0.17654525686521083,colour,0.5
141,22,0,2,4,13,163,218.7752010586555,219.46423085709102,"[69, 0, 185]",185,a,0.16598623112076893,colour,0.5
141,22,0,2,4,14,164,219.97825612628367,220.56822682410711,"[18, 0, 236]",236,a,0.06656636705156416,colour,0.5
141,22,0,2,4,15,165,221.08801603747997,221.78425086452626,"[1, 0, 253]",253,l,0.17314084741519764,colour,0.5
141,22,0,2,4,16,166,222.2910687419935,222.87222082191147,"[23, 0, 231]",231,l,0.055886036599986255,colour,0.5
141,22,0,2,4,17,167,223.38705465802923,224.69623128249077,"[43, 0, 211]",211,l,0.7858258568448946,colour,0.5
141,22,0,2,4,18,168,225.2152950304444,226.33625633112388,"[89, 0, 165]",165,l,0.597643616143614,colour,0.5
141,22,0,2,4,19,169,226.8554752546479,227.51224980899133,"[4, 0, 250]",250,a,0.1327633060864173,colour,0.5
141,22,0,2,4,20,170,228.02741605165647,228.61620402830886,"[34, 0, 220]",220,a,0.06542421213816851,colour,0.5
141,22,0,2,4,21,171,229.12273873010417,230.4885067702271,"[62, 0, 192]",192,a,0.8423727678600699,colour,0.5
141,22,0,2,4,22,172,230.99798350571655,231.7923227493884,"[71, 0, 183]",183,l,0.27105306688463315,colour,0.5
141,22,0,2,4,23,173,232.31052279192954,233.0003591880668,"[97, 0, 157]",157,l,0.16639977000886574,colour,0.5
141,22,0,2,4,24,174,233.51374681969173,234.76027703168802,"[66, 0, 188]",188,a,0.7231262751156464,colour,0.5
141,22,0,2,4,25,175,235.279437665944,235.96819649793906,"[30, 0, 224]",224,a,0.16521311039105058,colour,0.5
141,22,0,2,4,26,176,236.4827294353163,237.13621340185637,"[88, 0, 166]",166,l,0.1302517467411235,colour,0.5
141,22,0,2,4,27,177,237.65460485377116,238.29634274105774,"[92, 0, 162]",162,l,0.11838396888924763,colour,0.5
141,22,0,2,4,28,178,238.81103203550447,239.35254543024348,"[79, 0, 175]",175,l,0.017509629600681365,colour,0.5
141,22,0,2,4,29,179,239.87358746939572,240.55236977466848,"[83, 0, 171]",171,l,0.156424424785655,colour,0.5
141,22,0,2,4,30,180,241.06211708270712,241.7202362291864,"[94, 0, 160]",160,l,0.13615983870113268,colour,0.5
141,22,0,2,4,31,181,242.233169755782,242.89626160863554,"[3, 0, 251]",251,a,0.14058352302527055,colour,0.5
141,22,0,2,4,32,182,243.4050333588384,244.06426394020673,"[68, 0, 186]",186,l,0.1365591990761459,colour,0.5
141,22,0,2,4,33,183,244.57703795895213,245.17626917047892,"[14, 0, 240]",240,a,0.07655864767730236,colour,0.5
141,22,0,2,4,34,184,245.68667498999275,246.34424314514035,"[98, 0, 156]",156,l,0.1332796389469877,colour,0.5
141,22,0,2,4,35,185,246.86140146356774,247.52026182919508,"[47, 0, 207]",207,a,0.13596803543623537,colour,0.5
141,22,0,2,4,36,186,248.03342102986062,248.75227918993914,"[51, 0, 203]",203,a,0.19777476700255647,colour,0.5
141,22,0,2,4,37,187,249.26649271778297,249.93626657110872,"[16, 0, 238]",238,a,0.1593774861539714,colour,0.5
141,22,0,2,4,38,188,250.45747166278306,251.16826030105585,"[35, 0, 219]",219,a,0.18804636358981952,colour,0.5
141,22,0,2,4,39,189,251.67634163826006,252.41625995450886,"[33, 0, 221]",221,a,0.21707876143045723,colour,0.5
141,22,0,2,4,40,190,252.9264408876188,253.58425992296543,"[44, 0, 210]",210,a,0.13494560978142545,colour,0.5
141,22,0,2,4,41,191,254.0985305585782,254.69631792872678,"[41, 0, 213]",213,a,0.07470087357796729,colour,0.5
141,22,0,2,4,42,192,255.207894653955,255.77626405050978,"[48, 0, 206]",206,a,0.045024930499494076,colour,0.5
141,22,0,2,4,43,193,256.2862386080087,256.92842272337293,"[13, 0, 241]",241,a,0.11917008657474071,colour,0.5
141,22,0,2,4,44,194,257.44250076799653,258.0322556379251,"[19, 0, 235]",235,a,0.0666971241007559,colour,0.5
141,22,0,2,4,45,195,258.5518810111098,259.36038337025093,"[93, 0, 161]",161,l,0.28437965229386464,colour,0.5
141,22,0,2,4,46,196,259.8658361756243,260.64027395966696,"[90, 0, 164]",164,l,0.2512622781796381,colour,0.5
141,22,0,2,4,47,197,261.14736162201734,261.80026584642474,"[9, 0, 245]",245,a,0.130163918947801,colour,0.5
141,22,0,2,4,48,198,262.3191811143188,263.7923329893965,"[61, 0, 193]",193,l,0.9508806408848614,colour,0.5
141,22,0,2,4,49,199,264.303699400567,264.9602573393495,"[60, 0, 194]",194,a,0.13423314137617126,colour,0.5
141,22,0,2,4,50,200,265.47586626547854,266.68827400694136,"[76, 0, 178]",178,l,0.6892846171394922,colour,0.5
141,22,0,2,5,1,201,271.6941572865471,272.5442585051642,"[60, 0, 194]",194,a,0.3268749064882286,colour,0.5
141,22,0,2,5,2,202,273.05437327199616,273.6722850188962,"[79, 0, 175]",175,l,0.09448378533124924,colour,0.5
141,22,0,2,5,3,203,274.17974486621097,275.5122494151583,"[68, 0, 186]",186,l,0.8100781391258352,colour,0.5
141,22,0,2,5,4,204,276.0236461525201,276.79260828811675,"[30, 0, 224]",224,a,0.24562278954545036,colour,0.5
141,22,0,2,5,5,205,277.3074184934958,277.9282860586536,"[12, 0, 242]",242,a,0.09773617010796443,colour,0.5
141,22,0,2,5,6,206,278.44836277992,279.17631406901637,"[82, 0, 172]",172,l,0.20473009697161615,colour,0.5
141,22,0,2,5,7,207,279.682470678119,280.44026411353843,"[93, 0, 161]",161,l,0.23396296269493178,colour,0.5
141,22,0,2,5,8,208,280.9484238261357,281.70434137043776,"[16, 0, 238]",238,a,0.23288146004779264,colour,0.5
141,22,0,2,5,9,209,282.21395477070473,283.03228241950274,"[83, 0, 171]",171,l,0.29548809403786436,colour,0.5
141,22,0,2,5,10,210,283.54234677401837,284.2883649854921,"[52, 0, 202]",202,a,0.22251069295452908,colour,0.5
141,22,0,2,5,11,211,284.8083633313072,285.48833859775914,"[89, 0, 165]",165,l,0.1565520310541615,colour,0.5
141,22,0,2,5,12,212,285.99767866852926,287.0723716650973,"[72, 0, 182]",182,l,0.5519589926698245,colour,0.5
141,22,0,2,5,13,213,287.5913208037964,288.30436224432196,"[27, 0, 227]",227,a,0.18980961455963552,colour,0.5
141,22,0,2,5,14,214,288.8100486006588,289.5764208014007,"[48, 0, 206]",206,a,0.24330460879718885,colour,0.5
141,22,0,2,5,15,215,290.0913018991705,290.7925188849331,"[58, 0, 196]",196,a,0.17794459365541115,colour,0.5
141,22,0,2,5,16,216,291.3103817948722,292.01639701309614,"[98, 0, 156]",156,l,0.18267469061538577,colour,0.5
141,22,0,2,5,17,217,292.52923089649994,293.23225997021655,"[64, 0, 190]",190,a,0.18025371589465067,colour,0.5
141,22,0,2,5,18,218,293.748134742782,294.6882570715388,"[77, 0, 177]",177,l,0.41862224601209164,colour,0.5
141,22,0,2,5,19,219,295.20284081512364,295.8962458547903,"[24, 0, 230]",230,a,0.16891566169215366,colour,0.5
141,22,0,2,5,20,220,296.4072058163583,297.1762691704789,"[13, 0, 241]",241,a,0.24581813742406666,colour,0.5
141,22,0,2,5,21,221,297.6884831394418,299.30430434888694,"[95, 0, 159]",159,l,1.0931549470988102,colour,0.5
141,22,0,2,5,22,222,299.81346561328974,300.52034335542703,"[86, 0, 168]",168,l,0.1833513189922087,colour,0.5
141,22,0,2,5,23,223,301.03253645054065,301.752321725362,"[81, 0, 173]",173,l,0.19652351655531675,colour,0.5
141,22,0,2,5,24,224,302.26696021365933,302.9442931636586,"[11, 0, 243]",243,a,0.15441580745391548,colour,0.5
141,22,0,2,5,25,225,303.454621395329,304.09632895642426,"[7, 0, 247]",247,a,0.1182807810837403,colour,0.5
141,22,0,2,5,26,226,304.61095129698515,305.3604373272392,"[84, 0, 170]",170,l,0.2265460446360521,colour,0.5
141,22,0,2,5,27,227,305.87666616780916,306.56027900089975,"[19, 0, 235]",235,a,0.16041842254344374,colour,0.5
141,22,0,2,5,28,228,307.0815947634401,307.8803458760376,"[76, 0, 178]",178,l,0.27562129287980497,colour,0.5
141,22,0,2,5,29,229,308.3941442896612,309.0162745268317,"[9, 0, 245]",245,a,0.09871566644869745,colour,0.5
141,22,0,2,5,30,230,309.53494403441437,310.2083058297285,"[34, 0, 220]",220,a,0.15015123708872125,colour,0.5
141,22,0,2,5,31,231,310.72262530232547,311.3203248446225,"[18, 0, 236]",236,a,0.07446062716189772,colour,0.5
141,22,0,2,5,32,232,311.8319074775791,312.4163336037891,"[10, 0, 244]",244,a,0.06112065096385777,colour,0.5
141,22,0,2,5,33,233,312.92571305920137,313.5202720692032,"[45, 0, 209]",209,a,0.07137641491135582,colour,0.5
141,22,0,2,5,34,234,314.0352402070421,314.6323308626306,"[87, 0, 167]",167,l,0.07374973414698616,colour,0.5
141,22,0,2,5,35,235,315.1467192583368,315.80830425437307,"[63, 0, 191]",191,a,0.1381176498834975,colour,0.5
141,22,0,2,5,36,236,316.3187277968973,316.88029861444375,"[85, 0, 169]",169,l,0.03849298559362069,colour,0.5
141,22,0,2,5,37,237,317.39695359702455,318.08029388828436,"[20, 0, 234]",234,a,0.15993202204117551,colour,0.5
141,22,0,2,5,38,238,318.60004804929486,319.23231668415247,"[2, 0, 252]",252,a,0.10887769487453625,colour,0.5
141,22,0,2,5,39,239,319.7408332217601,320.3282986617414,"[44, 0, 210]",210,a,0.06404929386917502,colour,0.5
141,22,0,2,5,40,240,320.8347376588499,321.6563043016358,"[3, 0, 251]",251,a,0.29811780742602423,colour,0.5
141,22,0,2,5,41,241,322.1628417603788,322.77629477053415,"[96, 0, 158]",158,l,0.09005340561270714,colour,0.5
141,22,0,2,5,42,242,323.28808732365724,324.41644191159867,"[39, 0, 215]",215,a,0.605673753307201,colour,0.5
141,22,0,2,5,43,243,324.9287318928982,325.5763002843596,"[5, 0, 249]",249,a,0.1241026206407696,colour,0.5
141,22,0,2,5,44,244,326.08515631768387,327.1203126353794,"[59, 0, 195]",195,l,0.5118146085296758,colour,0.5
141,22,0,2,5,45,245,327.63214929937385,328.3843052153243,"[35, 0, 219]",219,a,0.2274121131049469,colour,0.5
141,22,0,2,5,46,246,328.8992658700445,329.60039266501553,"[36, 0, 218]",218,a,0.1777720888494514,colour,0.5
141,22,0,2,5,47,247,330.1179566453793,330.85630745236995,"[4, 0, 250]",250,a,0.21515679027652368,colour,0.5
141,22,0,2,5,48,248,331.3681882271776,332.06438170035835,"[74, 0, 180]",180,l,0.17285412712953985,colour,0.5
141,22,0,2,5,49,249,332.57136066106614,333.2643371956656,"[6, 0, 248]",248,a,0.1695686592720449,colour,0.5
141,22,0,2,5,50,250,333.77463391964557,334.49633447028464,"[94, 0, 160]",160,l,0.1984194938559085,colour,0.5
141,22,0,2,6,1,251,339.6065807818668,340.384317818447,"[26, 0, 228]",228,a,0.2568001543986611,colour,0.5
141,22,0,2,6,2,252,340.90116854268126,341.51236953836633,"[68, 0, 186]",186,l,0.08828542847186327,colour,0.5
141,22,0,2,6,3,253,342.0259934779024,342.6083381251665,"[97, 0, 157]",157,l,0.059219553717412055,colour,0.5
141,22,0,2,6,4,254,343.11293746507727,343.7043216781458,"[83, 0, 171]",171,l,0.06787787610664964,colour,0.5
141,22,0,2,6,5,255,344.2228584594559,344.9683697904111,"[66, 0, 188]",188,l,0.22249493905110285,colour,0.5
141,22,0,2,6,6,256,345.4882551023038,346.10433940123767,"[52, 0, 202]",202,a,0.09995549538871273,colour,0.5
141,22,0,2,6,7,257,346.6217312706285,347.3123797783628,"[59, 0, 195]",195,a,0.16720715537667274,colour,0.5
141,22,0,2,6,8,258,347.82493009226164,348.4563121785177,"[35, 0, 219]",219,a,0.10801477706991136,colour,0.5
141,22,0,2,6,9,259,348.9590844643535,349.5923132970929,"[19, 0, 235]",235,a,0.11081029992783442,colour,0.5
141,22,0,2,6,10,260,350.0873618583428,350.768448953575,"[74, 0, 180]",180,l,0.16273778484901413,colour,0.5
141,22,0,2,6,11,261,351.2854312225827,351.9123297598562,"[17, 0, 237]",237,a,0.10384276072727516,colour,0.5
141,22,0,2,6,12,262,352.4267701433273,353.0323198349215,"[89, 0, 165]",165,l,0.08297362015582621,colour,0.5
141,22,0,2,6,13,263,353.55131938593695,354.1204229124123,"[11, 0, 243]",243,a,0.04618756542913616,colour,0.5
141,22,0,2,6,14,264,354.6294821705669,355.2163962253835,"[12, 0, 242]",242,a,0.06217379658482969,colour,0.5
141,22,0,2,6,15,265,355.7246681842953,356.34435499756364,"[80, 0, 174]",174,l,0.09640103031415492,colour,0.5
141,22,0,2,6,16,266,356.86537813209,357.8163146991865,"[25, 0, 229]",229,a,0.4276173072285019,colour,0.5
141,22,0,2,6,17,267,358.3341622490552,359.2083302482497,"[71, 0, 183]",183,l,0.3510157302371226,colour,0.5
141,22,0,2,6,18,268,359.72498483693926,360.8563499877928,"[18, 0, 236]",236,a,0.6081518356804736,colour,0.5
141,22,0,2,6,19,269,361.3664375792723,361.99236055865185,"[84, 0, 170]",170,l,0.10262026102282107,colour,0.5
141,22,0,2,6,20,270,362.5070868746843,363.29642269189935,"[16, 0, 238]",238,a,0.26591100642690435,colour,0.5
141,22,0,2,6,21,271,363.8041054563946,364.56034634867683,"[30, 0, 224]",224,a,0.23295038321521133,colour,0.5
141,22,0,2,6,22,272,365.06981599493884,365.6803828976117,"[73, 0, 181]",181,l,0.08688491012435406,colour,0.5
141,22,0,2,6,23,273,366.19485518266447,367.7684024797054,"[65, 0, 189]",189,l,1.050136664765887,colour,0.5
141,22,0,2,6,24,274,368.27465479355305,369.02435980248265,"[27, 0, 227]",227,a,0.2262991028255783,colour,0.5
141,22,0,2,6,25,275,369.54056698147906,370.40038203116274,"[13, 0, 241]",241,a,0.3362894142046571,colour,0.5
141,22,0,2,6,26,276,370.9155821445747,372.05638582783286,"[51, 0, 203]",203,l,0.6177353035891429,colour,0.5
141,22,0,2,6,27,277,372.57207273558015,373.2883189054555,"[45, 0, 209]",209,a,0.1928363252663985,colour,0.5
141,22,0,2,6,28,278,373.8064642032841,374.39237276790664,"[8, 0, 246]",246,a,0.062489267671480775,colour,0.5
141,22,0,2,6,29,279,374.90032019728096,375.488381527015,"[43, 0, 211]",211,a,0.06470268522389233,colour,0.5
141,22,0,2,6,30,280,376.00984498200705,376.66440257418435,"[79, 0, 175]",175,l,0.13141438167076558,colour,0.5
141,22,0,2,6,31,281,377.1818224067101,377.8723444897332,"[96, 0, 158]",158,l,0.16717998002422974,colour,0.5
141,22,0,2,6,32,282,378.3849983852706,379.12841602799017,"[46, 0, 208]",208,a,0.2202728568809107,colour,0.5
141,22,0,2,6,33,283,379.6350763668888,382.4565205233521,"[47, 0, 207]",207,l,2.297939001058694,colour,0.5
141,22,0,2,6,34,284,382.96482556540286,383.64038463053294,"[5, 0, 249]",249,a,0.15293651982210577,colour,0.5
141,22,0,2,6,35,285,384.15256354713347,384.91237899067346,"[29, 0, 225]",225,a,0.23658873757813126,colour,0.5
141,22,0,2,6,36,286,385.4331748757395,386.2485463124467,"[88, 0, 166]",166,l,0.2919084228342399,colour,0.5
141,22,0,2,6,37,287,386.7613380542607,388.0403877813369,"[70, 0, 184]",184,a,0.7557048671878874,colour,0.5
141,22,0,2,6,38,288,388.5599347790121,389.4324151457986,"[36, 0, 218]",218,a,0.3487739557167515,colour,0.5
141,22,0,2,6,39,289,389.9510019456502,390.61638362228405,"[34, 0, 220]",220,a,0.14301158691523597,colour,0.5
141,22,0,2,6,40,290,391.1377052925527,392.08043685462326,"[33, 0, 221]",221,a,0.41919647430768237,colour,0.5
141,22,0,2,6,41,291,392.59094980033115,393.24037478439277,"[75, 0, 179]",179,l,0.126036407193169,colour,0.5
141,22,0,2,6,42,292,393.7473289327463,394.36037470563315,"[85, 0, 169]",169,l,0.09009160869754851,colour,0.5
141,22,0,2,6,43,293,394.8723622128018,395.6403806920862,"[31, 0, 223]",223,a,0.2424822571920231,colour,0.5
141,22,0,2,6,44,294,396.1557540979702,396.76839539041976,"[22, 0, 232]",232,a,0.08929564483696595,colour,0.5
141,22,0,2,6,45,295,397.2809090766241,397.89639906107914,"[56, 0, 198]",198,a,0.0924334202427417,colour,0.5
141,22,0,2,6,46,296,398.4059203012148,399.08840279473225,"[81, 0, 173]",173,l,0.15913015051046386,colour,0.5
141,22,0,2,6,47,297,399.60914511670126,400.32039298012387,"[14, 0, 240]",240,a,0.18651193752884865,colour,0.5
141,22,0,2,6,48,298,400.829547155241,401.5043898135773,"[62, 0, 192]",192,l,0.15153993997955695,colour,0.5
141,22,0,2,6,49,299,402.01706458296394,402.6164482131135,"[95, 0, 159]",159,l,0.07608091179281473,colour,0.5
141,22,0,2,6,50,300,403.1264645183692,403.8964152088156,"[61, 0, 193]",193,a,0.24676218762760982,colour,0.5
141,22,0,2,7,1,301,409.3776354241418,410.0804242515005,"[59, 0, 195]",195,l,0.17863579432014376,colour,0.5
141,22,0,2,7,2,302,410.5972820650204,411.3604274810641,"[6, 0, 248]",248,a,0.2396697990479879,colour,0.5
141,22,0,2,7,3,303,411.87854324042564,412.63239545346005,"[56, 0, 198]",198,l,0.2304325222503394,colour,0.5
141,22,0,2,7,4,304,413.14445542840986,413.75242688239086,"[71, 0, 183]",183,l,0.08521145617123693,colour,0.5
141,22,0,2,7,5,305,414.2694883145741,414.90439965971746,"[92, 0, 162]",162,l,0.1116586453281343,colour,0.5
141,22,0,2,7,6,306,415.42575717001455,416.1284573819139,"[23, 0, 231]",231,a,0.17928839812520891,colour,0.5
141,22,0,2,7,7,307,416.6445499515976,417.38440682773944,"[61, 0, 193]",193,l,0.2163981946068816,colour,0.5
141,22,0,2,7,8,308,417.89728088350967,418.616411585419,"[34, 0, 220]",220,a,0.19581971282605082,colour,0.5
141,22,0,2,7,9,309,419.1317062220187,419.66439942340367,"[87, 0, 167]",167,l,0.00931880297139287,colour,0.5
141,22,0,2,7,10,310,420.1763888998539,421.0563732247683,"[68, 0, 186]",186,l,0.35695414838846773,colour,0.5
141,22,0,2,7,11,311,421.5684194150963,422.26441438961774,"[38, 0, 216]",216,a,0.1727123424061574,colour,0.5
141,22,0,2,7,12,312,422.77155994740315,423.44045946141705,"[93, 0, 161]",161,l,0.14582050050375983,colour,0.5
141,22,0,2,7,13,313,423.9591565382434,424.5764034721651,"[11, 0, 243]",243,a,0.09474057325860485,colour,0.5
141,22,0,2,7,14,314,425.0842437752872,425.72039298008895,"[77, 0, 177]",177,l,0.11357943492475897,colour,0.5
141,22,0,2,7,15,315,426.23950635275105,426.9204177924548,"[48, 0, 206]",206,a,0.15747205662773922,colour,0.5
141,22,0,2,7,16,316,427.4291997826076,428.0244389656,"[52, 0, 202]",202,a,0.07198608934413642,colour,0.5
141,22,0,2,7,17,317,428.53853197640274,429.1764653060818,"[53, 0, 201]",201,a,0.11440296802902594,colour,0.5
141,22,0,2,7,18,318,429.6950060258969,430.4165640040301,"[73, 0, 181]",181,l,0.19821745058288798,colour,0.5
141,22,0,2,7,19,319,430.92944199824706,431.6084389498574,"[14, 0, 240]",240,a,0.1555957716773264,colour,0.5
141,22,0,2,7,20,320,432.1169984167791,432.8484651800245,"[79, 0, 175]",175,l,0.20812978030880913,colour,0.5
141,22,0,2,7,21,321,433.36747812182875,433.976449946058,"[21, 0, 233]",233,a,0.08645876817172393,colour,0.5
141,22,0,2,7,22,322,434.49239285406657,435.09642072266433,"[67, 0, 187]",187,l,0.08057351934257895,colour,0.5
141,22,0,2,7,23,323,435.6176707128179,436.47243349906057,"[5, 0, 249]",249,a,0.33130410470766947,colour,0.5
141,22,0,2,7,24,324,436.98927792179165,437.9844324277947,"[19, 0, 235]",235,a,0.47197427396895364,colour,0.5
141,22,0,2,7,25,325,438.4930887809023,439.19242318026954,"[58, 0, 196]",196,l,0.17585957009578124,colour,0.5
141,22,0,2,7,26,326,439.7119252794655,440.30455404758686,"[4, 0, 250]",250,a,0.06927563744829968,colour,0.5
141,22,0,2,7,27,327,440.82137641491136,441.4404767906526,"[2, 0, 252]",252,l,0.09644632268464193,colour,0.5
141,22,0,2,7,28,328,441.9632415145752,442.73642726050457,"[66, 0, 188]",188,l,0.2503509172820486,colour,0.5
141,22,0,2,7,29,329,443.2445956377778,443.88042937149294,"[28, 0, 226]",226,a,0.1124550030217506,colour,0.5
141,22,0,2,7,30,330,444.40088536706753,445.0404917568085,"[65, 0, 189]",189,l,0.11624498828314245,colour,0.5
141,22,0,2,7,31,331,445.5572841918329,446.3044866998098,"[57, 0, 197]",197,a,0.22383244190132245,colour,0.5
141,22,0,2,7,32,332,446.82296755496645,447.39245823258534,"[31, 0, 223]",223,a,0.04672083369223401,colour,0.5
141,22,0,2,7,33,333,447.9012091088807,448.54454758850625,"[41, 0, 213]",213,a,0.12000779819209129,colour,0.5
141,22,0,2,7,34,334,449.0574952935567,449.6404374059639,"[8, 0, 246]",246,a,0.05949721549404785,colour,0.5
141,22,0,2,7,35,335,450.151383189077,451.2084487960092,"[95, 0, 159]",159,l,0.5336222854093648,colour,0.5
141,22,0,2,7,36,336,451.7157322001294,452.4004462281591,"[24, 0, 230]",230,a,0.1612321095308289,colour,0.5
141,22,0,2,7,37,337,452.9190357849002,453.9444219514262,"[44, 0, 210]",210,a,0.5020357927423902,colour,0.5
141,22,0,2,7,38,338,454.46474994684104,455.04850614006864,"[89, 0, 165]",165,l,0.06026679161004722,colour,0.5
141,22,0,2,7,39,339,455.558583097707,456.1924704418634,"[37, 0, 217]",217,a,0.11061101354425773,colour,0.5
141,22,0,2,7,40,340,456.6993450332084,457.4644510173239,"[81, 0, 173]",173,l,0.24022236577002332,colour,0.5
141,22,0,2,7,41,341,457.98230526258703,458.6726560223033,"[43, 0, 211]",211,a,0.16704055829904974,colour,0.5
141,22,0,2,7,42,342,459.18545761029236,459.80850826686947,"[36, 0, 218]",218,a,0.10010397550649941,colour,0.5
141,22,0,2,7,43,343,460.3261392011191,460.9764456137782,"[83, 0, 171]",171,l,0.1270659220754169,colour,0.5
141,22,0,2,7,44,344,461.4980697581195,462.08847250556573,"[13, 0, 241]",241,a,0.06695548741845414,colour,0.5
141,22,0,2,7,45,345,462.60765677061863,463.2644238419016,"[30, 0, 224]",224,a,0.13347656215773895,colour,0.5
141,22,0,2,7,46,346,463.7795983552933,464.44044607062824,"[85, 0, 169]",169,l,0.13752136618131772,colour,0.5
141,22,0,2,7,47,347,464.9514229675988,465.62443620868726,"[35, 0, 219]",219,a,0.1494505840819329,colour,0.5
141,22,0,2,7,48,348,466.1391192016308,466.8324423211743,"[63, 0, 191]",191,l,0.16998731810599566,colour,0.5
141,22,0,2,7,49,349,467.34235465095844,468.1284475357388,"[20, 0, 234]",234,a,0.26316274527926,colour,0.5
141,22,0,2,7,50,350,468.6393043095013,470.0804659992573,"[60, 0, 194]",194,a,0.917728214408271,colour,0.5
141,22,0,2,8,1,351,476.62490724917734,477.95241979317507,"[71, 0, 183]",183,l,0.8031625877483748,colour,0.5
141,22,0,2,8,2,352,478.4695466038538,479.20850275299745,"[82, 0, 172]",172,l,0.21545965829864144,colour,0.5
141,22,0,2,8,3,353,479.71965294244,480.33715745201334,"[94, 0, 160]",160,l,0.09405961266020313,colour,0.5
141,22,0,2,8,4,354,480.8447901979671,481.52847589267185,"[81, 0, 173]",173,l,0.16023449623025954,colour,0.5
141,22,0,2,8,5,355,482.04801737650996,482.85647483717185,"[46, 0, 208]",208,a,0.2849530928651802,colour,0.5
141,22,0,2,8,6,356,483.3763396690483,483.9684485596954,"[42, 0, 212]",212,a,0.06950564379803836,colour,0.5
141,22,0,2,8,7,357,484.485751419852,485.296469559602,"[69, 0, 185]",185,l,0.28726930439006537,colour,0.5
141,22,0,2,8,8,358,485.8063893724466,486.44048939371714,"[85, 0, 169]",169,l,0.11081108753569424,colour,0.5
141,22,0,2,8,9,359,486.9470422124723,487.5925251864828,"[1, 0, 253]",253,a,0.1220814001862891,colour,0.5
141,22,0,2,8,10,360,488.1033398187137,488.68847486865707,"[72, 0, 182]",182,l,0.06206115649547428,colour,0.5
141,22,0,2,8,11,361,489.1972040834371,489.8724949390744,"[55, 0, 199]",199,a,0.15196056809509173,colour,0.5
141,22,0,2,8,12,362,490.37789339362644,491.0325561428326,"[22, 0, 232]",232,a,0.13126275077229366,colour,0.5
141,22,0,2,8,13,363,491.5497262766585,492.2244952856563,"[17, 0, 237]",237,a,0.15116775495698676,colour,0.5
141,22,0,2,8,14,364,492.7374292060849,493.41652068088297,"[92, 0, 162]",162,l,0.16407253075158224,colour,0.5
141,22,0,2,8,15,365,493.93248918891186,494.5765153245884,"[18, 0, 236]",236,a,0.12089355901116505,colour,0.5
141,22,0,2,8,16,366,495.08878640126204,495.79252164188074,"[52, 0, 202]",202,a,0.1874579568975605,colour,0.5
141,22,0,2,8,17,367,496.3004525296856,497.0804750577081,"[3, 0, 251]",251,a,0.2567202035570517,colour,0.5
141,22,0,2,8,18,368,497.5974671728909,498.18447260011453,"[43, 0, 211]",211,a,0.06374012428568676,colour,0.5
141,22,0,2,8,19,369,498.6913018991472,499.4485348908929,"[96, 0, 158]",158,l,0.23386843950720504,colour,0.5
141,22,0,2,8,20,370,499.95697620383,500.6724976960104,"[34, 0, 220]",220,a,0.19210692145861685,colour,0.5
141,22,0,2,8,21,371,501.1915102439816,502.16047592420364,"[66, 0, 188]",188,l,0.44551211869111285,colour,0.5
141,22,0,2,8,22,372,502.675966302515,503.29647349810693,"[32, 0, 222]",222,a,0.09719463111832738,colour,0.5
141,22,0,2,8,23,373,503.81670145643875,504.53650524211116,"[29, 0, 225]",225,a,0.19638645800296217,colour,0.5
141,22,0,2,8,24,374,505.0513213551603,505.7285074003739,"[84, 0, 170]",170,l,0.15274195960955694,colour,0.5
141,22,0,2,8,25,375,506.2400014178711,506.9125050215516,"[10, 0, 244]",244,a,0.14933282393030822,colour,0.5
141,22,0,2,8,26,376,507.4275574425119,508.25673989590723,"[21, 0, 233]",233,a,0.30625152616994455,colour,0.5
141,22,0,2,8,27,377,508.7715347412159,509.5204847463174,"[77, 0, 177]",177,l,0.22566304064821452,colour,0.5
141,22,0,2,8,28,378,510.0371432735119,510.70451623830013,"[50, 0, 204]",204,a,0.1440052617690526,colour,0.5
141,22,0,2,8,29,379,511.2262506597326,513.0405386245693,"[95, 0, 159]",159,l,1.2910691358265467,colour,0.5
141,22,0,2,8,30,380,513.5545410506311,514.2085090545588,"[37, 0, 217]",217,a,0.13064716866938397,colour,0.5
141,22,0,2,8,31,381,514.7264849984203,515.3604979795637,"[16, 0, 238]",238,a,0.1115306451683864,colour,0.5
141,22,0,2,8,32,382,515.882039810007,516.6965699904831,"[47, 0, 207]",207,a,0.29113490821328014,colour,0.5
141,22,0,2,8,33,383,517.2120682457462,518.0085279591731,"[49, 0, 205]",205,a,0.273213709006086,colour,0.5
141,22,0,2,8,34,384,518.5244606271735,519.2085153561202,"[26, 0, 228]",228,a,0.16069529671221972,colour,0.5
141,22,0,2,8,35,385,519.7276653564768,520.4645368758938,"[83, 0, 171]",171,l,0.21351681335363537,colour,0.5
141,22,0,2,8,36,386,520.9777319165296,521.5765413184417,"[15, 0, 239]",239,a,0.07533929875353351,colour,0.5
141,22,0,2,8,37,387,522.0873744614073,522.7764912999701,"[27, 0, 227]",227,a,0.16592045879224315,colour,0.5
141,22,0,2,8,38,388,523.2919883736758,524.0805345285335,"[35, 0, 219]",219,a,0.26516309182625264,colour,0.5
141,22,0,2,8,39,389,524.5890364938532,525.6724969083443,"[7, 0, 247]",247,a,0.5601403668988496,colour,0.5
141,22,0,2,8,40,390,526.1827818169259,526.8004903389374,"[75, 0, 179]",179,l,0.09421990811824799,colour,0.5
141,22,0,2,8,41,391,527.3078844139236,528.0325844998006,"[60, 0, 194]",194,a,0.20215158368228003,colour,0.5
141,22,0,2,8,42,392,528.5424164848519,529.1125006892253,"[86, 0, 168]",168,l,0.046868919976986945,colour,0.5
141,22,0,2,8,43,393,529.6206088080071,530.9765149307204,"[74, 0, 180]",180,l,0.8325415704748593,colour,0.5
141,22,0,2,8,44,394,531.4861086386372,532.4405535907135,"[76, 0, 178]",178,l,0.43441746156895533,colour,0.5
141,22,0,2,8,45,395,532.9525340086548,533.776534623059,"[90, 0, 164]",164,l,0.30067859758855775,colour,0.5
141,22,0,2,8,46,396,534.2964671965456,535.0965577812749,"[89, 0, 165]",165,l,0.2880676313652657,colour,0.5
141,22,0,2,8,47,397,535.6132088253507,536.1765421061427,"[13, 0, 241]",241,a,0.03991359006613493,colour,0.5
141,22,0,2,8,48,398,536.6915543547948,537.30450639216,"[19, 0, 235]",235,a,0.08998487627832219,colour,0.5
141,22,0,2,8,49,399,537.8164013454225,538.5125845785369,"[58, 0, 196]",196,l,0.17270801000995561,colour,0.5
141,22,0,2,8,50,400,539.0197809425881,539.8085385930608,"[31, 0, 223]",223,a,0.2653304766281508,colour,0.5
141,22,0,2,9,1,401,544.9438366955146,545.7045335675357,"[4, 0, 250]",250,a,0.23780099721625447,colour,0.5
141,22,0,2,9,2,402,546.2248572306708,547.3445353792631,"[53, 0, 201]",201,a,0.5961989870411344,colour,0.5
141,22,0,2,9,3,403,547.8656518554199,548.488534733362,"[39, 0, 215]",215,a,0.09987357526551932,colour,0.5
141,22,0,2,9,4,404,549.0063633786049,549.7605141273234,"[68, 0, 186]",186,l,0.2307984057115391,colour,0.5
141,22,0,2,9,5,405,550.2721164525719,550.8725536222337,"[60, 0, 194]",194,a,0.07710451900493354,colour,0.5
141,22,0,2,9,6,406,551.3816156372777,552.0486140540452,"[50, 0, 204]",204,a,0.14370633225189522,colour,0.5
141,22,0,2,9,7,407,552.5692145912326,553.2085413499735,"[76, 0, 178]",178,l,0.11606342502636835,colour,0.5
141,22,0,2,9,8,408,553.7254050711636,554.9205650910153,"[11, 0, 243]",243,a,0.6717852276051417,colour,0.5
141,22,0,2,9,9,409,555.4286799051915,556.0565744803171,"[20, 0, 234]",234,a,0.10439650894841179,colour,0.5
141,22,0,2,9,10,410,556.5694930407335,557.1445653116098,"[26, 0, 228]",228,a,0.051788851036690176,colour,0.5
141,22,0,2,9,11,411,557.6633273731568,558.3045686198748,"[79, 0, 175]",175,l,0.11788929760223255,colour,0.5
141,22,0,2,9,12,412,558.8195690531284,559.4086118484847,"[28, 0, 226]",226,a,0.06553724606055766,colour,0.5
141,22,0,2,9,13,413,559.9291521271807,560.5205324018025,"[83, 0, 171]",171,l,0.0680925224442035,colour,0.5
141,22,0,2,9,14,414,561.0386138965259,561.6805636732024,"[34, 0, 220]",220,a,0.11855450441362336,colour,0.5
141,22,0,2,9,15,415,562.1962702732999,562.8486380786635,"[14, 0, 240]",240,a,0.12903003470273688,colour,0.5
141,22,0,2,9,16,416,563.368248485669,564.000528148259,"[90, 0, 164]",164,l,0.10889620572561398,colour,0.5
141,22,0,2,9,17,417,564.5089481934556,565.376574007736,"[24, 0, 230]",230,a,0.3442667758790776,colour,0.5
141,22,0,2,9,18,418,565.8840381873888,566.472527234524,"[41, 0, 213]",213,a,0.06500397785566747,colour,0.5
141,22,0,2,9,19,419,566.9935023197904,567.6405567415059,"[78, 0, 176]",176,l,0.12380093423416838,colour,0.5
141,22,0,2,9,20,420,568.1512973305071,568.7126145109069,"[16, 0, 238]",238,a,0.037942388153169304,colour,0.5
141,22,0,2,9,21,421,569.2295026506181,570.0165573086124,"[92, 0, 162]",162,l,0.2637212196714245,colour,0.5
141,22,0,2,9,22,422,570.526649626263,571.3045024537132,"[37, 0, 217]",217,a,0.25489511870546266,colour,0.5
141,22,0,2,9,23,423,571.8234634077526,572.8565461233957,"[54, 0, 200]",200,a,0.5098351358319633,colour,0.5
141,22,0,2,9,24,424,573.3704737186199,574.1045587737462,"[27, 0, 227]",227,a,0.2096937449532561,colour,0.5
141,22,0,2,9,25,425,574.621512291953,575.2326538168127,"[71, 0, 183]",183,l,0.08766787708736956,colour,0.5
141,22,0,2,9,26,426,575.7467298922129,576.3685785291018,"[55, 0, 199]",199,a,0.09858963557053357,colour,0.5
141,22,0,2,9,27,427,576.889538648189,577.6805782454903,"[18, 0, 236]",236,a,0.2680228115641512,colour,0.5
141,22,0,2,9,28,428,578.2022209006827,578.7765716446447,"[75, 0, 179]",179,l,0.05091884400462732,colour,0.5
141,22,0,2,9,29,429,579.2888978598639,579.8805739132222,"[82, 0, 172]",172,l,0.06822367332642898,colour,0.5
141,22,0,2,9,30,430,580.3983277276275,580.9445999700692,"[74, 0, 180]",180,l,0.022125511022750288,colour,0.5
141,22,0,2,9,31,431,581.4616799130454,582.0965451781522,"[15, 0, 239]",239,a,0.11165667610475793,colour,0.5
141,22,0,2,9,32,432,582.602361110039,583.3606374012888,"[44, 0, 210]",210,a,0.23488732054829597,colour,0.5
141,22,0,2,9,33,433,583.8683808181086,584.5526395595516,"[3, 0, 251]",251,a,0.16147117438958958,colour,0.5
141,22,0,2,9,34,434,585.0714591227006,585.776596456999,"[85, 0, 169]",169,l,0.1818992068292573,colour,0.5
141,22,0,2,9,35,435,586.2901498980355,587.0565508495201,"[42, 0, 212]",212,a,0.24298913771053776,colour,0.5
141,22,0,2,9,36,436,587.5715437997133,588.4886379211675,"[72, 0, 182]",182,l,0.39375713851768523,colour,0.5
141,22,0,2,9,37,437,589.009152205952,590.0965955905267,"[69, 0, 185]",185,l,0.5642694540438242,colour,0.5
141,22,0,2,9,38,438,590.6029889014317,591.3045824045548,"[30, 0, 224]",224,a,0.17822028626687825,colour,0.5
141,22,0,2,9,39,439,591.8219002308324,592.544584610092,"[43, 0, 211]",211,a,0.1993548793834634,colour,0.5
141,22,0,2,9,40,440,593.0563484124141,593.7286487913225,"[9, 0, 245]",245,a,0.1492201838409528,colour,0.5
141,22,0,2,9,41,441,594.2439079817268,594.9446405362687,"[46, 0, 208]",208,a,0.1766389923868701,colour,0.5
141,22,0,2,9,42,442,595.462774018757,596.1925787496148,"[66, 0, 188]",188,a,0.2064299386111088,colour,0.5
141,22,0,2,9,43,443,596.7128913850174,597.4565811757348,"[7, 0, 247]",247,a,0.22034256771439686,colour,0.5
141,22,0,2,9,44,444,597.9653174797422,598.7365985837532,"[98, 0, 156]",156,l,0.24876607878832147,colour,0.5
141,22,0,2,9,45,445,599.2466680582729,600.208635085437,"[10, 0, 244]",244,a,0.4389880506787449,colour,0.5
141,22,0,2,9,46,446,600.7155959292431,601.4326924137422,"[87, 0, 167]",167,l,0.19490953342756256,colour,0.5
141,22,0,2,9,47,447,601.9492989531718,602.592577961972,"[96, 0, 158]",158,l,0.11987861653324217,colour,0.5
141,22,0,2,9,48,448,603.1056564240716,603.832560868992,"[49, 0, 205]",205,a,0.20369664364261553,colour,0.5
141,22,0,2,9,49,449,604.3421081030392,605.0806018763105,"[65, 0, 189]",189,a,0.21546241524629295,colour,0.5
141,22,0,2,9,50,450,605.5918477704399,607.2806381101836,"[59, 0, 195]",195,a,1.1654049135977402,colour,0.5
141,22,0,2,10,1,451,638.0952616322902,639.6807625656947,"[40, 0, 214]",214,a,1.061361291212961,colour,0.5
141,22,0,2,10,2,452,640.1901408395497,640.9525946610374,"[18, 0, 236]",236,a,0.23938819876639172,colour,0.5
141,22,0,2,10,3,453,641.4713027655962,642.064659362135,"[38, 0, 216]",216,a,0.07001567509723827,colour,0.5
141,22,0,2,10,4,454,642.580815341149,643.1766405677772,"[34, 0, 220]",220,a,0.07273636700119823,colour,0.5
141,22,0,2,10,5,455,643.6902857750538,644.3766523831873,"[69, 0, 185]",185,l,0.16309972980525345,colour,0.5
141,22,0,2,10,6,456,644.8935420982889,645.552617110312,"[5, 0, 249]",249,a,0.1360322324326262,colour,0.5
141,22,0,2,10,7,457,646.0654899845249,646.6246524304734,"[80, 0, 174]",174,l,0.03576638601953164,colour,0.5
141,22,0,2,10,8,458,647.1436547383782,647.7846262002713,"[91, 0, 163]",163,l,0.11689404741628096,colour,0.5
141,22,0,2,10,9,459,648.2999078399152,649.0646369128954,"[43, 0, 211]",211,a,0.24154884088784456,colour,0.5
141,22,0,2,10,10,460,649.5813698770362,650.4006679637823,"[11, 0, 243]",243,a,0.29604302381630987,colour,0.5
141,22,0,2,10,11,461,650.9110001338995,651.5606413397472,"[78, 0, 176]",176,l,0.12640071526402608,colour,0.5
141,22,0,2,10,12,462,652.0672878939658,652.7286310681957,"[67, 0, 187]",187,l,0.138585539534688,colour,0.5
141,22,0,2,10,13,463,653.2393058848684,653.8566473419778,"[25, 0, 229]",229,a,0.09336053504375741,colour,0.5
141,22,0,2,10,14,464,654.3644380203914,655.2086441438878,"[52, 0, 202]",202,a,0.3208935590228066,colour,0.5
141,22,0,2,10,15,465,655.7238915189519,656.296699959843,"[27, 0, 227]",227,a,0.049299740872811526,colour,0.5
141,22,0,2,10,16,466,656.8177782329149,657.3847026064759,"[72, 0, 182]",182,l,0.04369333531940356,colour,0.5
141,22,0,2,10,17,467,657.8958622482605,658.5448075272143,"[79, 0, 175]",175,l,0.1256016005645506,colour,0.5
141,22,0,2,10,18,468,659.0522693438106,659.7046292722807,"[70, 0, 184]",184,l,0.12904500094009563,colour,0.5
141,22,0,2,10,19,469,660.224209746928,660.7766330846935,"[84, 0, 170]",170,l,0.029085567104630172,colour,0.5
141,22,0,2,10,20,470,661.2904456767719,661.864662119071,"[37, 0, 217]",217,a,0.05404362245462835,colour,0.5
141,22,0,2,10,21,471,662.380957913585,663.0406650492805,"[0, 0, 254]",254,a,0.13622206641593948,colour,0.5
141,22,0,2,10,22,472,663.5529959906708,664.1046525092097,"[8, 0, 246]",246,a,0.02828369551571086,colour,0.5
141,22,0,2,10,23,473,664.6155679661315,665.2166849148925,"[3, 0, 251]",251,a,0.07775909191695973,colour,0.5
141,22,0,2,10,24,474,665.7250064985128,666.360638976621,"[85, 0, 169]",169,l,0.11222539044683799,colour,0.5
141,22,0,2,10,25,475,666.8814285601838,667.4326455459814,"[4, 0, 250]",250,a,0.027816593530587852,colour,0.5
141,22,0,2,10,26,476,667.943916252465,668.6166660102899,"[49, 0, 205]",205,a,0.1495391995413229,colour,0.5
141,22,0,2,10,27,477,669.1315140249208,669.7367171315709,"[54, 0, 200]",200,a,0.0819795515271835,colour,0.5
141,22,0,2,10,28,478,670.2580198971555,670.824672122777,"[82, 0, 172]",172,l,0.04255905729951337,colour,0.5
141,22,0,2,10,29,479,671.3362204910954,671.9446637732326,"[74, 0, 180]",180,l,0.08507557917619124,colour,0.5
141,22,0,2,10,30,480,672.4615802699118,673.0167116964585,"[75, 0, 179]",179,l,0.032028388464823365,colour,0.5
141,22,0,2,10,31,481,673.5238533157972,674.104678503063,"[57, 0, 197]",197,a,0.06933156360173598,colour,0.5
141,22,0,2,10,32,482,674.6237095618271,675.1606854505371,"[65, 0, 189]",189,a,0.013467976357787848,colour,0.5
141,22,0,2,10,33,483,675.6652749442728,676.5686588737881,"[89, 0, 165]",165,l,0.3800323741743341,colour,0.5
141,22,0,2,10,34,484,677.0873157783062,678.1046757461736,"[44, 0, 210]",210,a,0.4942049420205876,colour,0.5
141,22,0,2,10,35,485,678.61870455998,679.2326731152716,"[41, 0, 213]",213,a,0.09066544310189784,colour,0.5
141,22,0,2,10,36,486,679.7436862461036,680.3286582436413,"[63, 0, 191]",191,a,0.06184454093454406,colour,0.5
141,22,0,2,10,37,487,680.8436255937559,681.3767626602203,"[16, 0, 238]",238,a,0.010053720674477518,colour,0.5
141,22,0,2,10,38,488,681.8854343733983,682.4407650863286,"[94, 0, 160]",160,l,0.03188030218007043,colour,0.5
141,22,0,2,10,39,489,682.9480414011632,683.5046989831026,"[10, 0, 244]",244,a,0.03326624812325463,colour,0.5
141,22,0,2,10,40,490,684.0263184013311,684.6646483344375,"[71, 0, 183]",183,l,0.1151623041369021,colour,0.5
141,22,0,2,10,41,491,685.1825466905138,686.1446870101499,"[62, 0, 192]",192,a,0.43332532508065924,colour,0.5
141,22,0,2,10,42,492,686.656801335921,687.1846951234038,"[48, 0, 206]",206,a,0.0044937890488654375,colour,0.5
141,22,0,2,10,43,493,687.7038258253015,688.2406626862357,"[1, 0, 253]",253,a,0.01780343911377713,colour,0.5
141,22,0,2,10,44,494,688.7623262152192,689.2887466227985,"[35, 0, 219]",219,a,0.003025529149454087,colour,0.5
141,22,0,2,10,45,495,689.8092049813713,690.8406941939611,"[14, 0, 240]",240,a,0.5182524241390638,colour,0.5
141,22,0,2,10,46,496,691.3616897592437,691.8886843950604,"[83, 0, 171]",171,l,0.0036501697613857687,colour,0.5
141,22,0,2,10,47,497,692.40866541164,692.9766598662827,"[24, 0, 230]",230,a,0.04469252401031554,colour,0.5
141,22,0,2,10,48,498,693.4868352854974,694.4248020921368,"[60, 0, 194]",194,a,0.4146412452100776,colour,0.5
141,22,0,2,10,49,499,694.9401345379883,695.6886989673367,"[9, 0, 245]",245,a,0.22586665931157768,colour,0.5
141,22,0,2,10,50,500,696.2059128181427,696.7686951076612,"[56, 0, 198]",198,a,0.03955203894292936,colour,0.5
141,22,0,2,11,1,501,701.2233606138034,701.9366923192283,"[83, 0, 171]",171,l,0.18911644467152655,colour,0.5
141,22,0,2,11,2,502,702.4430919316947,703.0006774160429,"[93, 0, 161]",161,l,0.03445724007906392,colour,0.5
141,22,0,2,11,3,503,703.5212165132398,704.0566942096921,"[81, 0, 173]",173,l,0.011989476450253278,colour,0.5
141,22,0,2,11,4,504,704.568220522604,705.0967094121734,"[91, 0, 163]",163,l,0.005162146640941501,colour,0.5
141,22,0,2,11,5,505,705.6151004702551,706.5367135869456,"[65, 0, 189]",189,a,0.3966790859703906,colour,0.5
141,22,0,2,11,6,506,707.0542405457236,707.5927146266913,"[19, 0, 235]",235,a,0.015039030171465129,colour,0.5
141,22,0,2,11,7,507,708.1011937488802,708.6331500634551,"[29, 0, 225]",225,a,0.009000181220471859,colour,0.5
141,22,0,2,11,8,508,709.1480898442678,709.7046911061625,"[57, 0, 197]",197,a,0.03305987251223996,colour,0.5
141,22,0,2,11,9,509,710.2263353367453,711.152704938082,"[0, 0, 254]",254,a,0.4038439422729425,colour,0.5
141,22,0,2,11,10,510,711.6629402220133,712.248707001796,"[70, 0, 184]",184,l,0.06077288440428674,colour,0.5
141,22,0,2,11,11,511,712.758349546697,713.688738352037,"[44, 0, 210]",210,a,0.40698132384568453,colour,0.5
141,22,0,2,11,12,512,714.2621919135563,715.2087079470512,"[75, 0, 179]",179,l,0.4267646294320002,colour,0.5
141,22,0,2,11,13,513,715.7272608760977,716.4492863501073,"[60, 0, 194]",194,a,0.1985270139412023,colour,0.5
141,22,0,2,11,14,514,716.9617897962453,717.6487739557633,"[24, 0, 230]",230,a,0.1642702417448163,colour,0.5
141,22,0,2,11,15,515,718.1665336778387,718.8246985105216,"[58, 0, 196]",196,l,0.134807369671762,colour,0.5
141,22,0,2,11,16,516,719.3384575394448,720.2246882704785,"[7, 0, 247]",247,a,0.3628618465154432,colour,0.5
141,22,0,2,11,17,517,720.7448504564818,721.5051743558724,"[54, 0, 200]",200,a,0.23698927951045334,colour,0.5
141,22,0,2,11,18,518,722.0166534071905,722.6966869629105,"[36, 0, 218]",218,a,0.15646656637545675,colour,0.5
141,22,0,2,11,19,519,723.204366576625,723.8086917993496,"[84, 0, 170]",170,l,0.08173497277311981,colour,0.5
141,22,0,2,11,20,520,724.3246154088993,724.936695863842,"[69, 0, 185]",185,l,0.08899041375843808,colour,0.5
141,22,0,2,11,21,521,725.4496660181321,726.0407028585323,"[63, 0, 191]",191,a,0.06753798649879172,colour,0.5
141,22,0,2,11,22,522,726.5592120706569,727.1687159815338,"[16, 0, 238]",238,a,0.0800721527193673,colour,0.5
141,22,0,2,11,23,523,727.6903361874283,728.2487180295284,"[85, 0, 169]",169,l,0.03502477292204276,colour,0.5
141,22,0,2,11,24,524,728.7684698274243,729.3126999756205,"[5, 0, 249]",249,a,0.021108993096277118,colour,0.5
141,22,0,2,11,25,525,729.8311359322397,730.4247674336657,"[33, 0, 221]",221,a,0.07064819266088307,colour,0.5
141,22,0,2,11,26,526,730.9406638677465,731.4647259222111,"[28, 0, 226]",226,a,0.001456050667911768,colour,0.5
141,22,0,2,11,27,527,731.9875477539026,732.6727024962311,"[59, 0, 195]",195,l,0.16168975923210382,colour,0.5
141,22,0,2,11,28,528,733.1921695430647,733.7207332635298,"[97, 0, 157]",157,l,0.005175143596716225,colour,0.5
141,22,0,2,11,29,529,734.2393007648643,735.1447098532808,"[4, 0, 250]",250,a,0.38217844400787726,colour,0.5
141,22,0,2,11,30,530,735.661256528052,736.2327215583646,"[21, 0, 233]",233,a,0.04833521065302193,colour,0.5
141,22,0,2,11,31,531,736.7393625988043,737.2967487968272,"[88, 0, 166]",166,l,0.03401337505783886,colour,0.5
141,22,0,2,11,32,532,737.8175982450484,738.4247784613399,"[30, 0, 224]",224,a,0.08380542404484004,colour,0.5
141,22,0,2,11,33,533,738.9427544052014,739.4807030948577,"[14, 0, 240]",240,a,0.015399005904328078,colour,0.5
141,22,0,2,11,34,534,739.989390955714,741.0328050538665,"[11, 0, 243]",243,a,0.5198498656973243,colour,0.5
141,22,0,2,11,35,535,741.5522421684,742.3767075216747,"[40, 0, 214]",214,a,0.299673501169309,colour,0.5
141,22,0,2,11,36,536,742.89750813297,743.464740100666,"[76, 0, 178]",178,l,0.04387096007121727,colour,0.5
141,22,0,2,11,37,537,743.9757122714655,744.8887403212138,"[2, 0, 252]",252,a,0.38977810682263225,colour,0.5
141,22,0,2,11,38,538,745.3974549636478,746.4007455515093,"[55, 0, 199]",199,l,0.47982718009734526,colour,0.5
141,22,0,2,11,39,539,746.9133005915792,747.4967291044886,"[99, 0, 155]",155,l,0.060133671504445374,colour,0.5
141,22,0,2,11,40,540,748.0077552322764,748.8967818799429,"[34, 0, 220]",220,a,0.36630248988512903,colour,0.5
141,22,0,2,11,41,541,749.413425047067,750.0007345238118,"[31, 0, 223]",223,a,0.06400597072206438,colour,0.5
141,22,0,2,11,42,542,750.5072491394822,751.0650614794577,"[18, 0, 236]",236,a,0.03240096726221964,colour,0.5
141,22,0,2,11,43,543,751.5870133041753,752.1927843375597,"[49, 0, 205]",205,l,0.08267311524832621,colour,0.5
141,22,0,2,11,44,544,752.7120733657503,753.2967275290866,"[71, 0, 183]",183,l,0.0611356170848012,colour,0.5
141,22,0,2,11,45,545,753.8059998582467,754.78474947426,"[79, 0, 175]",175,l,0.4553630083682947,colour,0.5
141,22,0,2,11,46,546,755.3060723260278,755.8331154049374,"[72, 0, 182]",182,l,0.0036044835578650236,colour,0.5
141,22,0,2,11,47,547,756.3685450521298,756.9447831087164,"[35, 0, 219]",219,a,0.051293785858433694,colour,0.5
141,22,0,2,11,48,548,757.4649543532287,758.040763117082,"[13, 0, 241]",241,a,0.05221735604573041,colour,0.5
141,22,0,2,11,49,549,758.5589450426633,759.1127452679793,"[17, 0, 237]",237,a,0.030464030045550317,colour,0.5
141,22,0,2,11,50,550,759.6217927107355,760.1767429679167,"[67, 0, 187]",187,l,0.03397202119231224,colour,0.5
141,22,0,2,12,1,551,764.5564701110125,765.2327802415239,"[51, 0, 203]",203,l,0.15211456204997376,colour,0.5
141,22,0,2,12,2,552,765.7448819642304,766.616719573387,"[52, 0, 202]",202,a,0.34845100151142105,colour,0.5
141,22,0,2,12,3,553,767.1356222381582,767.9287610375904,"[70, 0, 184]",184,l,0.26961907162331045,colour,0.5
141,22,0,2,12,4,554,768.4481571920332,769.0807349964161,"[45, 0, 209]",209,a,0.10904311039485037,colour,0.5
141,22,0,2,12,5,555,769.6021964821848,770.1447949241265,"[73, 0, 181]",181,l,0.019263428170233965,colour,0.5
141,22,0,2,12,6,556,770.652046426665,771.240740667854,"[95, 0, 159]",159,l,0.06384252442512661,colour,0.5
141,22,0,2,12,7,557,771.7620548549457,772.5927933959756,"[14, 0, 240]",240,a,0.3053263805923052,colour,0.5
141,22,0,2,12,8,558,773.1078922908637,774.1367561223451,"[54, 0, 200]",200,a,0.5054122391738929,colour,0.5
141,22,0,2,12,9,559,774.6549057525699,775.2167892842554,"[86, 0, 168]",168,l,0.038496136374305934,colour,0.5
141,22,0,2,12,10,560,775.7331276141922,776.3448386411183,"[92, 0, 162]",162,l,0.0884110655169934,colour,0.5
141,22,0,2,12,11,561,776.8582191835158,777.5847738927114,"[59, 0, 195]",195,a,0.20316101232310757,colour,0.5
141,22,0,2,12,12,562,778.092598048097,778.6248127259896,"[49, 0, 205]",205,a,0.008819011738523841,colour,0.5
141,22,0,2,12,13,563,779.1396319898195,779.6967783353175,"[93, 0, 161]",161,l,0.03406378737417981,colour,0.5
141,22,0,2,12,14,564,780.2178510944941,780.7927870944841,"[31, 0, 223]",223,a,0.05155372462468222,colour,0.5
141,22,0,2,12,15,565,781.31167833769,782.3207943097223,"[3, 0, 251]",251,a,0.4857466936809942,colour,0.5
141,22,0,2,12,16,566,782.8274495285586,783.5927697652369,"[35, 0, 219]",219,a,0.24208486609859392,colour,0.5
141,22,0,2,12,17,567,784.1088111348217,784.7287551298505,"[87, 0, 167]",167,l,0.09664403361966833,colour,0.5
141,22,0,2,12,18,568,785.2495301410672,785.8247497105622,"[34, 0, 220]",220,a,0.05181720794644207,colour,0.5
141,22,0,2,12,19,569,786.3433243011241,787.2648027222604,"[1, 0, 253]",253,a,0.39815719198668376,colour,0.5
141,22,0,2,12,20,570,787.7809425535379,788.3447626287234,"[97, 0, 157]",157,l,0.040394870564341545,colour,0.5
141,22,0,2,12,21,571,788.8591734736692,789.3847522311844,"[0, 0, 254]",254,a,0.0025678794481791556,colour,0.5
141,22,0,2,12,22,572,789.9061034398619,790.4727544839843,"[17, 0, 237]",237,a,0.043584239843767136,colour,0.5
141,22,0,2,12,23,573,790.984309153806,791.5607622506213,"[60, 0, 194]",194,a,0.05316298158140853,colour,0.5
141,22,0,2,12,24,574,792.0781399415573,793.6887753735646,"[69, 0, 185]",185,l,1.0872346458490938,colour,0.5
141,22,0,2,12,25,575,794.2060077351634,794.840799744823,"[77, 0, 177]",177,l,0.1115625468082726,colour,0.5
141,22,0,2,12,26,576,795.3464935842785,795.8888064874336,"[78, 0, 176]",176,l,0.01870613533537835,colour,0.5
141,22,0,2,12,27,577,796.409348735353,797.2008314100676,"[37, 0, 217]",217,a,0.2682473041350022,colour,0.5
141,22,0,2,12,28,578,797.7219317385461,798.4168873520102,"[6, 0, 248]",248,a,0.17156191659159958,colour,0.5
141,22,0,2,12,29,579,798.9251616740366,799.5047533339239,"[44, 0, 210]",210,a,0.056305089266970754,colour,0.5
141,22,0,2,12,30,580,800.0188506770646,800.7288039668347,"[65, 0, 189]",189,l,0.18650051590520889,colour,0.5
141,22,0,2,12,31,581,801.2377966649365,802.0567595881876,"[15, 0, 239]",239,a,0.2956235771998763,colour,0.5
141,22,0,2,12,32,582,802.566033886571,803.3047797216568,"[96, 0, 158]",158,l,0.21535213821334764,colour,0.5
141,22,0,2,12,33,583,803.8161500713322,804.3767677802243,"[39, 0, 215]",215,a,0.03728860284900293,colour,0.5
141,22,0,2,12,34,584,804.8942470835755,805.5367880239501,"[29, 0, 225]",225,l,0.11930478212889284,colour,0.5
141,22,0,2,12,35,585,806.0505718652275,807.0408938741311,"[24, 0, 230]",230,a,0.4667077579651959,colour,0.5
141,22,0,2,12,36,586,807.550896394765,808.3447500256007,"[9, 0, 245]",245,a,0.26921931735705584,colour,0.5
141,22,0,2,12,37,587,808.8648334423197,809.4727804778377,"[7, 0, 247]",247,a,0.0846466802759096,colour,0.5
141,22,0,2,12,38,588,809.9899179224158,810.6328617677791,"[16, 0, 238]",238,a,0.11992075806483626,colour,0.5
141,22,0,2,12,39,589,811.1339157011244,811.7047726323945,"[19, 0, 235]",235,a,0.04780627472791821,colour,0.5
141,22,0,2,12,40,590,812.2120556426817,812.8169212228386,"[99, 0, 155]",155,l,0.0813982340041548,colour,0.5
141,22,0,2,12,41,591,813.3371105842525,813.8888017613208,"[81, 0, 173]",173,l,0.028307326370850205,colour,0.5
141,22,0,2,12,42,592,814.399863729137,814.9848550251336,"[83, 0, 171]",171,l,0.06178349471883848,colour,0.5
141,22,0,2,12,43,593,815.4904456767836,816.0807885595714,"[47, 0, 207]",207,a,0.06695036747260019,colour,0.5
141,22,0,2,12,44,594,816.5998538829735,817.2088355533197,"[79, 0, 175]",175,l,0.08730159979313612,colour,0.5
141,22,0,2,12,45,595,817.7231432105182,818.3767929864116,"[75, 0, 179]",179,l,0.1302801036508754,colour,0.5
141,22,0,2,12,46,596,818.8867959008785,819.7367478515953,"[42, 0, 212]",212,a,0.32657125080004334,colour,0.5
141,22,0,2,12,47,597,820.2576205367805,821.4887907336233,"[76, 0, 178]",178,l,0.7077048199134879,colour,0.5
141,22,0,2,12,48,598,822.0077871338581,822.5928119067685,"[27, 0, 227]",227,a,0.06158420833526179,colour,0.5
141,22,0,2,12,49,599,823.1016080754343,823.7048104417045,"[84, 0, 170]",170,l,0.07977913087233901,colour,0.5
141,22,0,2,12,50,600,824.2113349034917,824.7687817538972,"[32, 0, 222]",222,a,0.03438595385523513,colour,0.5
141,22,0,2,13,1,601,829.555891156604,830.4568107882515,"[33, 0, 221]",221,a,0.37675675249192864,colour,0.5
141,22,0,2,13,2,602,830.9630052066641,831.7608555922634,"[77, 0, 177]",177,l,0.2749572676839307,colour,0.5
141,22,0,2,13,3,603,832.2757225115201,832.8649271777831,"[62, 0, 192]",192,l,0.06591573258629069,colour,0.5
141,22,0,2,13,4,604,833.3850629761,834.0888419336407,"[55, 0, 199]",199,l,0.1803848668350838,colour,0.5
141,22,0,2,13,5,605,834.6039813947282,835.5447838964174,"[84, 0, 170]",170,l,0.4174084109836258,colour,0.5
141,22,0,2,13,6,606,836.0571514655021,836.6328743708436,"[8, 0, 246]",246,a,0.05161280155880377,colour,0.5
141,22,0,2,13,7,607,837.1509857979254,837.8648027222953,"[57, 0, 197]",197,l,0.1908001386327669,colour,0.5
141,22,0,2,13,8,608,838.3854702134267,838.9768713618396,"[76, 0, 178]",178,l,0.06799918075557798,colour,0.5
141,22,0,2,13,9,609,839.4950276874588,840.7688270462677,"[29, 0, 225]",225,a,0.750508849741891,colour,0.5
141,22,0,2,13,10,610,841.2763282475062,841.9767973187263,"[6, 0, 248]",248,a,0.17715493135619909,colour,0.5
141,22,0,2,13,11,611,842.4950458043604,843.1048636109917,"[86, 0, 168]",168,l,0.08625318034319207,colour,0.5
141,22,0,2,13,12,612,843.620310272323,844.4248194213724,"[51, 0, 203]",203,a,0.2810733105870895,colour,0.5
141,22,0,2,13,13,613,844.9329299032106,845.5768938111141,"[69, 0, 185]",185,l,0.12065094953868538,colour,0.5
141,22,0,2,13,14,614,846.0892121493816,846.7048084724229,"[26, 0, 228]",228,a,0.09213567222468555,colour,0.5
141,22,0,2,13,15,615,847.2142907218076,848.720825423603,"[87, 0, 167]",167,l,0.9834107898059301,colour,0.5
141,22,0,2,13,16,616,849.2301012973767,849.7688581601251,"[82, 0, 172]",172,l,0.015364741266239434,colour,0.5
141,22,0,2,13,17,617,850.2776775657549,850.920856931305,"[94, 0, 160]",160,l,0.12003142893081531,colour,0.5
141,22,0,2,13,18,618,851.4339109749417,852.0648354115547,"[31, 0, 223]",223,a,0.10711601929506287,colour,0.5
141,22,0,2,13,19,619,852.5748009106028,853.1528746859403,"[22, 0, 232]",232,a,0.05337841564323753,colour,0.5
141,22,0,2,13,20,620,853.669971564319,854.2968322922825,"[30, 0, 224]",224,a,0.10348751110723242,colour,0.5
141,22,0,2,13,21,621,854.8106724536046,855.5048730632989,"[66, 0, 188]",188,l,0.1709861129638739,colour,0.5
141,22,0,2,13,22,622,856.013911053713,856.7448547888198,"[42, 0, 212]",212,a,0.20755437051411718,colour,0.5
141,22,0,2,13,23,623,857.2639949430595,857.920832119009,"[28, 0, 226]",226,a,0.13341945444699377,colour,0.5
141,22,0,2,13,24,624,858.4359703985392,859.3451143336715,"[37, 0, 217]",217,a,0.3857427551993169,colour,0.5
141,22,0,2,13,25,625,859.858008869458,860.4568178774789,"[19, 0, 235]",235,a,0.07539443729911,colour,0.5
141,22,0,2,13,26,626,860.9673182201223,861.5528065504623,"[97, 0, 157]",157,l,0.062300615187268704,colour,0.5
141,22,0,2,13,27,627,862.062889809662,862.7848963789875,"[93, 0, 161]",161,l,0.1986345340264961,colour,0.5
141,22,0,2,13,28,628,863.2973844651133,863.9128594834474,"[13, 0, 241]",241,a,0.09212031221250072,colour,0.5
141,22,0,2,13,29,629,864.4225087237428,865.0808381842216,"[67, 0, 187]",187,l,0.13132694776868448,colour,0.5
141,22,0,2,13,30,630,865.5982048474834,866.2088359471527,"[38, 0, 216]",216,a,0.08732956286985427,colour,0.5
141,22,0,2,13,31,631,866.7190153048723,867.3049029956455,"[21, 0, 233]",233,a,0.06247902772156522,colour,0.5
141,22,0,2,13,32,632,867.802617110312,868.3929060361115,"[16, 0, 238]",238,a,0.06693421973614022,colour,0.5
141,22,0,2,13,33,633,868.9120296487818,869.5288358684047,"[0, 0, 254]",254,a,0.0937969169463031,colour,0.5
141,22,0,2,13,34,634,870.0371988058905,870.6569033422275,"[73, 0, 181]",181,l,0.09669287060387433,colour,0.5
141,22,0,2,13,35,635,871.1778807905503,871.7768394603045,"[53, 0, 201]",201,a,0.0761738596484065,colour,0.5
141,22,0,2,13,36,636,872.2873015998048,872.880866541178,"[23, 0, 231]",231,a,0.07045560167171061,colour,0.5
141,22,0,2,13,37,637,873.3968480461626,873.9369274455821,"[81, 0, 173]",173,l,0.016702244116459042,colour,0.5
141,22,0,2,13,38,638,874.4437551692827,875.1048321032431,"[78, 0, 176]",176,l,0.13795144658070058,colour,0.5
141,22,0,2,13,39,639,875.6169393397868,876.2008605547016,"[10, 0, 244]",244,a,0.060365253244526684,colour,0.5
141,22,0,2,13,40,640,876.7112285649055,877.4248658953002,"[9, 0, 245]",245,a,0.19077572016976774,colour,0.5
141,22,0,2,13,41,641,877.9453565492877,878.5849767237087,"[34, 0, 220]",220,a,0.11627570836571977,colour,0.5
141,22,0,2,13,42,642,879.1017872756347,879.6728698809748,"[85, 0, 169]",169,l,0.04817176435608417,colour,0.5
141,22,0,2,13,43,643,880.1813159200829,880.809347553819,"[96, 0, 158]",158,l,0.10464660148136318,colour,0.5
141,22,0,2,13,44,644,881.3220309878816,882.1928709837957,"[80, 0, 174]",174,l,0.3469165754504502,colour,0.5
141,22,0,2,13,45,645,882.7127665356384,883.2728879979695,"[68, 0, 186]",186,a,0.03711097809718922,colour,0.5
141,22,0,2,13,46,646,883.7912046190468,884.7689022709383,"[36, 0, 218]",218,a,0.45506289729382843,colour,0.5
141,22,0,2,13,47,647,885.2754669050919,886.1608500783914,"[15, 0, 239]",239,a,0.3600793206715025,colour,0.5
141,22,0,2,13,48,648,886.6683012610883,887.3528675966663,"[4, 0, 250]",250,a,0.1615546697867103,colour,0.5
141,22,0,2,13,49,649,887.8715863351244,888.6408537017996,"[54, 0, 200]",200,l,0.24595322681125253,colour,0.5
141,22,0,2,13,50,650,889.1529849629733,890.1208699282724,"[18, 0, 236]",236,a,0.4445310469600372,colour,0.5
141,22,0,2,14,1,651,895.3728816963849,895.9688912432175,"[97, 0, 157]",157,l,0.07178955990821123,colour,0.5
141,22,0,2,14,2,652,896.4831354910857,897.0088843902922,"[6, 0, 248]",248,a,0.002684851875528693,colour,0.5
141,22,0,2,14,3,653,897.5300615188316,898.0969075169996,"[67, 0, 187]",187,l,0.04350665211677551,colour,0.5
141,22,0,2,14,4,654,898.6082703835564,899.5448662103736,"[76, 0, 178]",178,l,0.41386891214642674,colour,0.5
141,22,0,2,14,5,655,900.061510952888,900.8808850519708,"[34, 0, 220]",220,a,0.29563027259428054,colour,0.5
141,22,0,2,14,6,656,901.3897781068808,901.9209459406557,"[73, 0, 181]",181,l,0.007698518340475857,colour,0.5
141,22,0,2,14,7,657,902.4368203193299,903.3288551669102,"[17, 0, 237]",237,a,0.36865808605216444,colour,0.5
141,22,0,2,14,8,658,903.8431671563885,904.6408564586891,"[50, 0, 204]",204,a,0.2747315935557708,colour,0.5
141,22,0,2,14,9,659,905.1556729656295,905.8569320929819,"[71, 0, 183]",183,l,0.17787448898889124,colour,0.5
141,22,0,2,14,10,660,906.3745846888633,907.1689255078672,"[16, 0, 238]",238,a,0.27097981137922034,colour,0.5
141,22,0,2,14,11,661,907.6873043567757,908.6249466338195,"[49, 0, 205]",205,a,0.41446243884274736,colour,0.5
141,22,0,2,14,12,662,909.1403511536191,909.7288992776885,"[87, 0, 167]",167,a,0.06516230414854363,colour,0.5
141,22,0,2,14,13,663,910.2359786693123,911.3208911959664,"[64, 0, 190]",190,l,0.5618201224133372,colour,0.5
141,22,0,2,14,14,664,911.8299358817749,912.5208589005633,"[82, 0, 172]",172,l,0.17484895983943716,colour,0.5
141,22,0,2,14,15,665,913.0414228100562,913.8169314628467,"[29, 0, 225]",225,a,0.2528400273877196,colour,0.5
141,22,0,2,14,16,666,914.337069230387,914.9928694083937,"[28, 0, 226]",226,a,0.13240490574389696,colour,0.5
141,22,0,2,14,17,667,915.5036702559446,916.1609575984767,"[63, 0, 191]",191,l,0.14082298171706498,colour,0.5
141,22,0,2,14,18,668,916.6687837231439,917.5449229242513,"[39, 0, 215]",215,a,0.35262498719384894,colour,0.5
141,22,0,2,14,19,669,918.0595610186574,918.7609292415436,"[26, 0, 228]",228,a,0.17808283382328227,colour,0.5
141,22,0,2,14,20,670,919.2701877860236,919.9049152048538,"[83, 0, 171]",171,l,0.11143139586783946,colour,0.5
141,22,0,2,14,21,671,920.4263857490732,921.1369124794146,"[5, 0, 249]",249,a,0.18710822111461312,colour,0.5
141,22,0,2,14,22,672,921.6453270108323,922.6969083046424,"[15, 0, 239]",239,a,0.528223043133039,colour,0.5
141,22,0,2,14,23,673,923.208269595867,923.7769040511339,"[25, 0, 229]",229,a,0.04563933110330254,colour,0.5
141,22,0,2,14,24,674,924.2861362079275,925.0088906918536,"[7, 0, 247]",247,a,0.19936866400530562,colour,0.5
141,22,0,2,14,25,675,925.5205146786757,926.1049175679218,"[81, 0, 173]",173,l,0.060913881519809365,colour,0.5
141,22,0,2,14,26,676,926.6143564941594,927.2009405055433,"[46, 0, 208]",208,a,0.06304498511599377,colour,0.5
141,22,0,2,14,27,677,927.7082585681346,928.4089273195714,"[19, 0, 235]",235,a,0.17529282491886988,colour,0.5
141,22,0,2,14,28,678,928.9291647303035,929.5129256496439,"[27, 0, 227]",227,a,0.060521610314026475,colour,0.5
141,22,0,2,14,29,679,930.0230022134492,930.8889132198528,"[62, 0, 192]",192,l,0.3432597102946602,colour,0.5
141,22,0,2,14,30,680,931.3974561452051,931.9768906603567,"[69, 0, 185]",185,l,0.05640000628773123,colour,0.5
141,22,0,2,14,31,681,932.4913318314939,933.088905342971,"[88, 0, 166]",166,l,0.07424519315827638,colour,0.5
141,22,0,2,14,32,682,933.6007471269113,934.1449599458138,"[72, 0, 182]",182,l,0.021026679140049964,colour,0.5
141,22,0,2,14,33,683,934.6633068931405,935.2329570786096,"[31, 0, 223]",223,a,0.04656683967914432,colour,0.5
141,22,0,2,14,34,684,935.7416343056248,936.4329133616411,"[65, 0, 189]",189,l,0.16801139002200216,colour,0.5
141,22,0,2,14,35,685,936.9447886225535,937.83290666627,"[80, 0, 174]",174,l,0.3649063039338216,colour,0.5
141,22,0,2,14,36,686,938.3511531826807,938.9528971351683,"[56, 0, 198]",198,a,0.0782974801841192,colour,0.5
141,22,0,2,14,37,687,939.4605976227904,940.0969086984987,"[22, 0, 232]",232,a,0.11321670224424452,colour,0.5
141,22,0,2,14,38,688,940.6168810504605,941.2889191275463,"[61, 0, 193]",193,l,0.14864989405032247,colour,0.5
141,22,0,2,14,39,689,941.8045410506311,942.4649303285405,"[18, 0, 236]",236,a,0.1370574149186723,colour,0.5
141,22,0,2,14,40,690,942.9765141430544,943.5449378904304,"[9, 0, 245]",245,a,0.045143478317186236,colour,0.5
141,22,0,2,14,41,691,944.0548431309289,944.7450938536786,"[53, 0, 201]",201,l,0.16698148136492819,colour,0.5
141,22,0,2,14,42,692,945.2579529432114,945.8409194741398,"[58, 0, 196]",196,a,0.05963742488529533,colour,0.5
141,22,0,2,14,43,693,946.3548592786537,947.0409738249728,"[14, 0, 240]",240,a,0.16281576646724716,colour,0.5
141,22,0,2,14,44,694,947.5580053247977,948.1929418761283,"[13, 0, 241]",241,a,0.11162792530376464,colour,0.5
141,22,0,2,14,45,695,948.7143675218686,949.3929607807659,"[66, 0, 188]",188,l,0.15661583421751857,colour,0.5
141,22,0,2,14,46,696,949.900517514383,950.5930564854643,"[68, 0, 186]",186,l,0.16950446227565408,colour,0.5
141,22,0,2,14,47,697,951.1038817515364,951.7049085094477,"[30, 0, 224]",224,a,0.07777799654286355,colour,0.5
141,22,0,2,14,48,698,952.2132001607097,952.8729718872346,"[2, 0, 252]",252,a,0.13640205428237095,colour,0.5
141,22,0,2,14,49,699,953.3852283916203,954.0009617732721,"[23, 0, 231]",231,a,0.09246729104779661,colour,0.5
141,22,0,2,14,50,700,954.5102628531749,955.1449355273508,"[86, 0, 168]",168,l,0.11132151266792789,colour,0.5
141,22,0,2,15,1,701,959.8772313375957,960.488986869168,"[59, 0, 195]",195,l,0.0877560987137258,colour,0.5
141,22,0,2,15,2,702,960.9969977078144,961.6330090663396,"[53, 0, 201]",201,l,0.11269091709982604,colour,0.5
141,22,0,2,15,3,703,962.1468185076374,962.7370652919053,"[89, 0, 165]",165,l,0.06631588068557903,colour,0.5
141,22,0,2,15,4,704,963.2563188739587,963.8169369766838,"[94, 0, 160]",160,l,0.03733153210487217,colour,0.5
141,22,0,2,15,5,705,964.3343851661775,965.3369955810485,"[6, 0, 248]",248,a,0.4792242010589689,colour,0.5
141,22,0,2,15,6,706,965.8477550747339,966.4089407103602,"[69, 0, 185]",185,l,0.03778012335533276,colour,0.5
141,22,0,2,15,7,707,966.9146739344578,967.5449162288569,"[35, 0, 219]",219,a,0.1068734098225832,colour,0.5
141,22,0,2,15,8,708,968.0553480422241,968.7129863020382,"[18, 0, 236]",236,a,0.13419336290098727,colour,0.5
141,22,0,2,15,9,709,969.2273124699714,969.8489460666897,"[95, 0, 159]",159,l,0.09844548773253337,colour,0.5
141,22,0,2,15,10,710,970.3680362023879,971.9048986632843,"[57, 0, 197]",197,l,1.0174245586968027,colour,0.5
141,22,0,2,15,11,711,972.4112549526617,973.0250100431149,"[71, 0, 183]",183,l,0.10038754501147196,colour,0.5
141,22,0,2,15,12,712,973.5419643490459,974.5449642781168,"[64, 0, 190]",190,l,0.47938528429949656,colour,0.5
141,22,0,2,15,13,713,975.0577260876307,975.8169885706156,"[46, 0, 208]",208,a,0.24075287708546966,colour,0.5
141,22,0,2,15,14,714,976.3341752459528,976.9849621513858,"[84, 0, 170]",170,l,0.1273203469463624,colour,0.5
141,22,0,2,15,15,715,977.506138492201,978.2089580395841,"[24, 0, 230]",230,a,0.17934944428270683,colour,0.5
141,22,0,2,15,16,716,978.7250695139519,979.3369357163901,"[22, 0, 232]",232,a,0.08701724262209609,colour,0.5
141,22,0,2,15,17,717,979.8516328877886,980.4169897521497,"[39, 0, 215]",215,a,0.04205887217540294,colour,0.5
141,22,0,2,15,18,718,980.92833647097,981.5529743290972,"[61, 0, 193]",193,l,0.10084913315949962,colour,0.5
141,22,0,2,15,19,719,982.0690728065092,983.0090887966799,"[81, 0, 173]",173,l,0.4165557332453318,colour,0.5
141,22,0,2,15,20,720,983.5223437020322,984.2969685631688,"[96, 0, 158]",158,l,0.2515765677089803,colour,0.5
141,22,0,2,15,21,721,984.803680102108,986.20100627793,"[99, 0, 155]",155,l,0.8740025836159475,colour,0.5
141,22,0,2,15,22,722,986.7100706560886,987.3449713673908,"[87, 0, 167]",167,l,0.11155663907993585,colour,0.5
141,22,0,2,15,23,723,987.866406859248,988.4409517695894,"[10, 0, 244]",244,a,0.05111301032593474,colour,0.5
141,22,0,2,15,24,724,988.9603384717484,989.5769824265735,"[40, 0, 214]",214,a,0.09401589562185109,colour,0.5
141,22,0,2,15,25,725,990.0853256717091,990.7929757469683,"[1, 0, 253]",253,a,0.18495742522645742,colour,0.5
141,22,0,2,15,26,726,991.3056497286889,992.2329905555816,"[98, 0, 156]",156,l,0.40400699473684654,colour,0.5
141,22,0,2,15,27,727,992.7432159933378,993.4089820642257,"[83, 0, 171]",171,l,0.14246729103615507,colour,0.5
141,22,0,2,15,28,728,993.9151603349601,994.6330642048852,"[12, 0, 242]",242,a,0.19435578520642594,colour,0.5
141,22,0,2,15,29,729,995.149686891993,995.7609524785075,"[7, 0, 247]",247,a,0.08794829581165686,colour,0.5
141,22,0,2,15,30,730,996.2748552614357,996.9290001024492,"[70, 0, 184]",184,l,0.13089332275558263,colour,0.5
141,22,0,2,15,31,731,997.4467519475729,998.1530337999575,"[93, 0, 161]",161,l,0.1828271092963405,colour,0.5
141,22,0,2,15,32,732,998.6656101077097,999.7209959591273,"[67, 0, 187]",187,a,0.5324218411114998,colour,0.5
141,22,0,2,15,33,733,1000.229555426049,1000.9369987318059,"[42, 0, 212]",212,a,0.1840338550391607,colour,0.5
141,22,0,2,15,34,734,1001.4485037770355,1002.0570112561691,"[34, 0, 220]",220,a,0.08523075468838215,colour,0.5
141,22,0,2,15,35,735,1002.5735205154633,1003.18500311143,"[44, 0, 210]",210,a,0.08800146513385698,colour,0.5
141,22,0,2,15,36,736,1003.6985955432756,1004.2969776216778,"[11, 0, 243]",243,a,0.07571424072375521,colour,0.5
141,22,0,2,15,37,737,1004.8080514048925,1005.4649641993456,"[9, 0, 245]",245,a,0.13342811906477436,colour,0.5
141,22,0,2,15,38,738,1005.9817333974061,1006.521001473011,"[16, 0, 238]",238,a,0.015904311032500118,colour,0.5
141,22,0,2,15,39,739,1007.0286869943957,1007.7850373760448,"[91, 0, 163]",163,l,0.23023678053868935,colour,0.5
141,22,0,2,15,40,740,1008.2971367356367,1008.9689711940591,"[79, 0, 175]",175,l,0.14870542637072504,colour,0.5
141,22,0,2,15,41,741,1009.4780497507309,1010.3129453419824,"[47, 0, 207]",207,a,0.3117543500266038,colour,0.5
141,22,0,2,15,42,742,1010.8240084913559,1011.5370156672434,"[76, 0, 178]",178,l,0.18956976203480735,colour,0.5
141,22,0,2,15,43,743,1012.050060652371,1012.6330626294948,"[73, 0, 181]",181,l,0.0597945696208626,colour,0.5
141,22,0,2,15,44,744,1013.143864658603,1013.8331894481089,"[48, 0, 206]",206,a,0.16600552963791415,colour,0.5
141,22,0,2,15,45,745,1014.3470764771337,1014.8969725016505,"[85, 0, 169]",169,l,0.0265098107047379,colour,0.5
141,22,0,2,15,46,746,1015.4096531787654,1016.0249848369276,"[20, 0, 234]",234,a,0.0919938875013031,colour,0.5
141,22,0,2,15,47,747,1016.5348018557997,1017.1369751010207,"[14, 0, 240]",240,a,0.0788945514941588,colour,0.5
141,22,0,2,15,48,748,1017.6441501973313,1018.297017400153,"[4, 0, 250]",250,a,0.12774491345044225,colour,0.5
141,22,0,2,15,49,749,1018.8179877592484,1019.3609993462451,"[2, 0, 252]",252,a,0.01970689941663295,colour,0.5
141,22,0,2,15,50,750,1019.8804845100385,1020.8170303183142,"[5, 0, 249]",249,a,0.4131808622041717,colour,0.5
141,22,0,2,16,1,751,1025.2394602727145,1026.0411447543884,"[66, 0, 188]",188,l,0.2775192394037731,colour,0.5
141,22,0,2,16,2,752,1026.5529231290566,1027.1290859609726,"[42, 0, 212]",212,a,0.0518124817754142,colour,0.5
141,22,0,2,16,3,753,1027.648080391984,1028.240977369598,"[51, 0, 203]",203,a,0.0695324253756553,colour,0.5
141,22,0,2,16,4,754,1028.7575409797719,1029.4010456625838,"[85, 0, 169]",169,l,0.12001055508153513,colour,0.5
141,22,0,2,16,5,755,1029.9138748198166,1030.5290134932147,"[61, 0, 193]",193,a,0.09176624420797452,colour,0.5
141,22,0,2,16,6,756,1031.0390171953477,1031.8170641891193,"[74, 0, 180]",180,l,0.25496601103805006,colour,0.5
141,22,0,2,16,7,757,1032.335920380021,1032.9769958173856,"[12, 0, 242]",242,a,0.11546911060577258,colour,0.5
141,22,0,2,16,8,758,1033.4943892621668,1034.1050443865242,"[50, 0, 204]",204,a,0.08750246156705543,colour,0.5
141,22,0,2,16,9,759,1034.6193701606244,1035.2970118863159,"[37, 0, 217]",217,a,0.15422085340833291,colour,0.5
141,22,0,2,16,10,760,1035.8070856931736,1036.4090045135235,"[40, 0, 214]",214,a,0.0785467850510031,colour,0.5
141,22,0,2,16,11,761,1036.9165899978834,1037.521020377637,"[63, 0, 191]",191,l,0.08114617218961939,colour,0.5
141,22,0,2,16,12,762,1038.0416445456212,1039.489030192315,"[38, 0, 216]",216,a,0.9238281096331775,colour,0.5
141,22,0,2,16,13,763,1039.9962655471172,1040.5850377699244,"[25, 0, 229]",229,a,0.06539073516614735,colour,0.5
141,22,0,2,16,14,764,1041.1058238088153,1041.6650709317764,"[76, 0, 178]",178,l,0.03481997275957838,colour,0.5
141,22,0,2,16,15,765,1042.182999614044,1042.7610375493532,"[7, 0, 247]",247,a,0.05460564146051183,colour,0.5
141,22,0,2,16,16,766,1043.2767622663523,1043.8730861027725,"[24, 0, 230]",230,a,0.07290926564019173,colour,0.5
141,22,0,2,16,17,767,1044.3862374264863,1044.9371023135027,"[83, 0, 171]",171,l,0.03854694258188829,colour,0.5
141,22,0,2,16,18,768,1045.4532890124829,1046.1930088300724,"[73, 0, 181]",181,l,0.21631981915561482,colour,0.5
141,22,0,2,16,19,769,1046.7034394618822,1047.2970323663321,"[39, 0, 215]",215,a,0.07015942910220474,colour,0.5
141,22,0,2,16,20,770,1047.8129457358154,1048.8890518538537,"[89, 0, 165]",165,l,0.5527179350028746,colour,0.5
141,22,0,2,16,21,771,1049.4068080313154,1050.0090202673455,"[49, 0, 205]",205,a,0.07875709905056283,colour,0.5
141,22,0,2,16,22,772,1050.5161122620339,1051.3290540594026,"[99, 0, 155]",155,l,0.2877769725746475,colour,0.5
141,22,0,2,16,23,773,1051.8460548392031,1052.6810311690206,"[6, 0, 248]",248,a,0.31107102625537664,colour,0.5
141,22,0,2,16,24,774,1053.1898293069098,1053.857000228425,"[9, 0, 245]",245,a,0.14371814765036106,colour,0.5
141,22,0,2,16,25,775,1054.3773987223976,1054.969080683426,"[65, 0, 189]",189,l,0.0684182335389778,colour,0.5
141,22,0,2,16,26,776,1055.4859987554373,1056.065039030218,"[53, 0, 201]",201,a,0.05555520550115034,colour,0.5
141,22,0,2,16,27,777,1056.5799516356783,1057.1610576355015,"[86, 0, 168]",168,l,0.05947949236724526,colour,0.5
141,22,0,2,16,28,778,1057.672264932713,1058.2570262223016,"[97, 0, 157]",157,l,0.061101746279746294,colour,0.5
141,22,0,2,16,29,779,1058.7660945389653,1059.3770517435623,"[79, 0, 175]",175,l,0.08838467777241021,colour,0.5
141,22,0,2,16,30,780,1059.8937193292077,1060.4490610698704,"[52, 0, 202]",202,a,0.0321429978357628,colour,0.5
141,22,0,2,16,31,781,1060.9562976062298,1061.577013146598,"[15, 0, 239]",239,a,0.09742306207772344,colour,0.5
141,22,0,2,16,32,782,1062.0969555662596,1062.633073263336,"[33, 0, 221]",221,a,0.01272715098457411,colour,0.5
141,22,0,2,16,33,783,1063.143811489339,1063.7050900727045,"[0, 0, 254]",254,a,0.038534733292181045,colour,0.5
141,22,0,2,16,34,784,1064.2221845880267,1064.7930600300897,"[77, 0, 177]",177,l,0.0475207359995693,colour,0.5
141,22,0,2,16,35,785,1065.3004229912185,1065.8970437878743,"[95, 0, 159]",159,l,0.07368671870790422,colour,0.5
141,22,0,2,16,36,786,1066.4098300158512,1066.9690531141823,"[44, 0, 210]",210,a,0.035797106043901294,colour,0.5
141,22,0,2,16,37,787,1067.4879943758715,1068.049094152986,"[11, 0, 243]",243,a,0.037728135648649186,colour,0.5
141,22,0,2,16,38,788,1068.5662304160069,1069.1530530984164,"[36, 0, 218]",218,a,0.062403802992776036,colour,0.5
141,22,0,2,16,39,789,1069.66113719251,1070.201035816397,"[4, 0, 250]",250,a,0.016721148742362857,colour,0.5
141,22,0,2,16,40,790,1070.708068734093,1071.849053192942,"[31, 0, 223]",223,a,0.6175895804190077,colour,0.5
141,22,0,2,16,41,791,1072.3643356203102,1072.937128701189,"[82, 0, 172]",172,l,0.04929698392516002,colour,0.5
141,22,0,2,16,42,792,1073.4582471466274,1074.0410695297178,"[48, 0, 206]",206,a,0.059704378829337656,colour,0.5
141,22,0,2,16,43,793,1074.5520609989762,1075.1211050546262,"[32, 0, 222]",222,a,0.0452840814832598,colour,0.5
141,22,0,2,16,44,794,1075.6307062456617,1076.2171153891832,"[43, 0, 211]",211,a,0.06303120055235922,colour,0.5
141,22,0,2,16,45,795,1076.7244712610263,1077.345049742842,"[72, 0, 182]",182,l,0.09758808376500383,colour,0.5
141,22,0,2,16,46,796,1077.8652887289063,1078.393056879344,"[91, 0, 163]",163,l,0.0044906382681801915,colour,0.5
141,22,0,2,16,47,797,1078.9121103873476,1079.833189841942,"[30, 0, 224]",224,a,0.3976447976892814,colour,0.5
141,22,0,2,16,48,798,1080.3497904736432,1081.28902822308,"[98, 0, 156]",156,l,0.41462706675520167,colour,0.5
141,22,0,2,16,49,799,1081.8042401518906,1082.3291347979102,"[41, 0, 213]",213,a,0.001494647585786879,colour,0.5
141,22,0,2,16,50,800,1082.8510590533842,1083.633063417219,"[92, 0, 162]",162,l,0.25857522076694295,colour,0.5
