id,age,condition,counterbalance,block,trialinblock,trial,tstart,tend,trialstim,trialintensity,response,RT,trialtype,colourfreq
012,79,0,1,Practice,1,NA,5.119945853948593e-06,4.61986691178754,"[78, 0, 176]",176,l,4.095598539104685,colour,0.5
012,79,0,1,Practice,2,NA,5.126173955388367,6.427935311570764,"[79, 0, 175]",175,l,0.7784500285051763,colour,0.5
012,79,0,1,Practice,3,NA,6.938563629286364,7.7079615101683885,"[8, 0, 246]",246,a,0.24619682971388102,colour,0.5
012,79,0,1,Practice,4,NA,8.21995607833378,8.771869655931368,"[89, 0, 165]",165,l,0.028599492739886045,colour,0.5
012,79,0,1,Practice,5,NA,9.282495610648766,23.89187795831822,"[99, 0, 155]",155,l,14.086084016831592,colour,0.5
012,79,0,1,Practice,6,NA,24.41044896026142,25.13983724731952,"[9, 0, 245]",245,a,0.2062482819892466,colour,0.5
012,79,0,1,Practice,7,NA,25.6602829543408,28.84384297206998,"[31, 0, 223]",223,a,2.6603759019635618,colour,0.5
012,79,0,1,Practice,8,NA,29.363621504977345,51.995869347127154,"[49, 0, 205]",205,l,22.109716722508892,colour,0.5
012,79,0,1,Practice,9,NA,52.50777569389902,53.107869980623946,"[70, 0, 184]",184,l,0.07678414043039083,colour,0.5
012,79,0,1,Practice,10,NA,53.617292342940345,69.20379619905725,"[7, 0, 247]",247,l,15.063149992842227,colour,0.5
012,79,0,1,1,1,1,4.920458152890205,7.943932926515117,"[40, 0, 214]",214,a,2.496395524824038,colour,0.5
012,79,0,1,1,2,2,8.455741599667817,10.695906683802605,"[78, 0, 176]",176,l,1.7168758118059486,colour,0.5
012,79,0,1,1,3,3,11.206051752902567,12.943912446731701,"[82, 0, 172]",172,l,1.2145934766158462,colour,0.5
012,79,0,1,1,4,4,13.457522569457069,14.759959764778614,"[54, 0, 200]",200,a,0.7916154994163662,colour,0.5
012,79,0,1,1,5,5,15.269924452528358,17.00788163836114,"[9, 0, 245]",245,a,1.2148463253397495,colour,0.5
012,79,0,1,1,6,6,17.521518148947507,18.48793375212699,"[48, 0, 206]",206,a,0.44166752649471164,colour,0.5
012,79,0,1,1,7,7,19.007308199303225,20.35188293666579,"[84, 0, 170]",170,l,0.821226387983188,colour,0.5
012,79,0,1,1,8,8,20.86684906971641,22.0638660043478,"[93, 0, 161]",161,l,0.6720416089519858,colour,0.5
012,79,0,1,1,9,9,22.571663753595203,23.391894893720746,"[45, 0, 209]",209,a,0.2970840458292514,colour,0.5
012,79,0,1,1,10,10,23.899922254960984,25.191863464890048,"[11, 0, 243]",243,a,0.768666903488338,colour,0.5
012,79,0,1,1,11,11,25.712564384099096,26.871840669075027,"[76, 0, 178]",178,l,0.6339559508487582,colour,0.5
012,79,0,1,1,12,12,27.38645273516886,28.5998835794162,"[97, 0, 157]",157,l,0.6901258178986609,colour,0.5
012,79,0,1,1,13,13,29.120927144074813,30.280211699893698,"[89, 0, 165]",165,l,0.635922027984634,colour,0.5
012,79,0,1,1,14,14,30.79301955923438,31.4479170688428,"[49, 0, 205]",205,a,0.13151213875971735,colour,0.5
012,79,0,1,1,15,15,31.964975310023874,34.65587227744982,"[31, 0, 223]",223,a,2.167613996658474,colour,0.5
012,79,0,1,1,16,16,35.170056627132,36.479935141513124,"[25, 0, 229]",229,a,0.786512047983706,colour,0.5
012,79,0,1,1,17,17,36.99833994079381,38.21584866265766,"[8, 0, 246]",246,a,0.6941962123382837,colour,0.5
012,79,0,1,1,18,18,38.73280922998674,39.84785625897348,"[79, 0, 175]",175,l,0.5917187659069896,colour,0.5
012,79,0,1,1,19,19,40.35789577756077,41.55182614410296,"[42, 0, 212]",212,a,0.6704457467421889,colour,0.5
012,79,0,1,1,20,20,42.06116146664135,44.92784354579635,"[61, 0, 193]",193,l,2.3432640191167593,colour,0.5
012,79,0,1,1,21,21,45.43782241200097,53.17584103764966,"[53, 0, 201]",201,a,7.2148286022711545,colour,0.5
012,79,0,1,1,22,22,53.68851498956792,54.30380856595002,"[43, 0, 211]",211,a,0.09212521463632584,colour,0.5
012,79,0,1,1,23,23,54.813508983235806,56.20781421218999,"[29, 0, 225]",225,a,0.8712534452788532,colour,0.5
012,79,0,1,1,24,24,56.719893456902355,57.81597800157033,"[70, 0, 184]",184,l,0.5715582030825317,colour,0.5
012,79,0,1,1,25,25,58.330887420801446,59.455831790110096,"[10, 0, 244]",244,a,0.6016263458877802,colour,0.5
012,79,0,1,1,26,26,59.971580100711435,61.087877195794135,"[87, 0, 167]",167,l,0.5932327082846314,colour,0.5
012,79,0,1,1,27,27,61.59668476530351,62.639815979637206,"[14, 0, 240]",240,a,0.5200412278063595,colour,0.5
012,79,0,1,1,28,28,63.16165629425086,64.23983819247223,"[6, 0, 248]",248,a,0.554846151964739,colour,0.5
012,79,0,1,1,29,29,64.75549985724501,65.871880447492,"[80, 0, 174]",174,l,0.5938053599093109,colour,0.5
012,79,0,1,1,30,30,66.3798952056095,67.41581628844142,"[69, 0, 185]",185,l,0.5126211764290929,colour,0.5
012,79,0,1,1,31,31,67.92694794083945,69.07180238724686,"[19, 0, 235]",235,a,0.6194159584119916,colour,0.5
012,79,0,1,1,32,32,69.58547749463469,70.59179635345936,"[68, 0, 186]",186,l,0.48340964736416936,colour,0.5
012,79,0,1,1,33,33,71.10121005144902,72.2077890059445,"[39, 0, 215]",215,a,0.5832983467262238,colour,0.5
012,79,0,1,1,34,34,72.72621586057357,73.86381527711637,"[30, 0, 224]",224,a,0.6141510303132236,colour,0.5
012,79,0,1,1,35,35,74.3850770322606,75.47990993550047,"[38, 0, 216]",216,a,0.5737255353014916,colour,0.5
012,79,0,1,1,36,36,75.99310612655245,77.10380549402907,"[17, 0, 237]",237,a,0.587376618059352,colour,0.5
012,79,0,1,1,37,37,77.61819543107413,78.70377690065652,"[94, 0, 160]",160,l,0.5622496618889272,colour,0.5
012,79,0,1,1,38,38,79.21203978173435,80.26379621494561,"[18, 0, 236]",236,a,0.5284628283698112,colour,0.5
012,79,0,1,1,39,39,80.77467304910533,81.79977086069994,"[63, 0, 191]",191,l,0.5003312241751701,colour,0.5
012,79,0,1,1,40,40,82.30739925638773,83.4638040130958,"[65, 0, 189]",189,l,0.6333561239298433,colour,0.5
012,79,0,1,1,41,41,83.97947237291373,85.04779158951715,"[37, 0, 217]",217,a,0.5450437285471708,colour,0.5
012,79,0,1,1,42,42,85.55626399628818,86.74383375630714,"[26, 0, 228]",228,a,0.6619548290036619,colour,0.5
012,79,0,1,1,43,43,87.26178484549746,88.33578095259145,"[50, 0, 204]",204,a,0.550720619270578,colour,0.5
012,79,0,1,1,44,44,88.855639829766,92.19178981566802,"[59, 0, 195]",195,l,2.812862682621926,colour,0.5
012,79,0,1,1,45,45,92.69964861101471,94.75981876812875,"[67, 0, 187]",187,l,1.5367887245956808,colour,0.5
012,79,0,1,1,46,46,95.2779270017054,96.46381582855247,"[47, 0, 207]",207,a,0.6624597392510623,colour,0.5
012,79,0,1,1,47,47,96.98265858390369,98.24774779402651,"[92, 0, 162]",162,l,0.7417396791279316,colour,0.5
012,79,0,1,1,48,48,98.76401795004494,120.42374952067621,"[46, 0, 208]",208,l,21.136437178123742,colour,0.5
012,79,0,1,1,49,49,120.93904097029008,122.07981872092932,"[88, 0, 166]",166,l,0.6174526382237673,colour,0.5
012,79,0,1,1,50,50,122.5961904891301,123.60771007928997,"[77, 0, 177]",177,l,0.48907747957855463,colour,0.5
012,79,0,1,2,1,51,130.76848022080958,131.9677373492159,"[52, 0, 202]",202,a,0.6868494162335992,colour,0.5
012,79,0,1,2,2,52,132.4888317200821,133.60773843619972,"[17, 0, 237]",237,a,0.5954957453068346,colour,0.5
012,79,0,1,2,3,53,134.11399624915794,137.23174387752078,"[68, 0, 186]",186,a,2.5945131003390998,colour,0.5
012,79,0,1,2,4,54,137.7425793579314,138.7757596692536,"[18, 0, 236]",236,a,0.5098347188904881,colour,0.5
012,79,0,1,2,5,55,139.28958877013065,142.9357031288091,"[58, 0, 196]",196,a,3.1228101199958473,colour,0.5
012,79,0,1,2,6,56,143.45146010397002,144.1516648249235,"[53, 0, 201]",201,a,0.1768567655235529,colour,0.5
012,79,0,1,2,7,57,144.67036028229631,145.29566817102022,"[71, 0, 183]",183,l,0.10651003173552454,colour,0.5
012,79,0,1,2,8,58,145.80709363217466,146.52774563571438,"[93, 0, 161]",161,l,0.19304618309251964,colour,0.5
012,79,0,1,2,9,59,147.04714489518665,147.7357197490055,"[81, 0, 173]",173,l,0.16525958757847548,colour,0.5
012,79,0,1,2,10,60,148.25034205499105,149.93575393478386,"[69, 0, 185]",185,l,1.162047382676974,colour,0.5
012,79,0,1,2,11,61,150.4557148180902,151.1037090017926,"[84, 0, 170]",170,l,0.12495933542959392,colour,0.5
012,79,0,1,2,12,62,151.6121688054409,152.27969458070584,"[32, 0, 222]",222,a,0.14430463803000748,colour,0.5
012,79,0,1,2,13,63,152.7997791315429,154.50379155180417,"[20, 0, 234]",234,a,1.1807357508223504,colour,0.5
012,79,0,1,2,14,64,155.0203196767252,156.09574504964985,"[24, 0, 230]",230,a,0.5521865126211196,colour,0.5
012,79,0,1,2,15,65,156.61305377655663,157.6317287539132,"[35, 0, 219]",219,a,0.4953112679067999,colour,0.5
012,79,0,1,2,16,66,158.13707245117985,161.81573263555765,"[62, 0, 192]",192,l,3.1559699510689825,colour,0.5
012,79,0,1,2,17,67,162.32488678907976,162.95171216502786,"[12, 0, 242]",242,a,0.10418673628009856,colour,0.5
012,79,0,1,2,18,68,163.46556371520273,164.1916460620705,"[85, 0, 169]",169,l,0.2027812588494271,colour,0.5
012,79,0,1,2,19,69,164.7000759334769,165.9116568849422,"[26, 0, 228]",228,a,0.6881892790552229,colour,0.5
012,79,0,1,2,20,70,166.41893751500174,167.42369674518704,"[1, 0, 253]",253,a,0.4813990655820817,colour,0.5
012,79,0,1,2,21,71,167.9346893702168,169.11165129230358,"[31, 0, 223]",223,a,0.6520511873532087,colour,0.5
012,79,0,1,2,22,72,169.62395817996003,170.67168084648438,"[38, 0, 216]",216,a,0.5244192155078053,colour,0.5
012,79,0,1,2,23,73,171.18658357067034,174.46366577316076,"[60, 0, 194]",194,a,2.754330923082307,colour,0.5
012,79,0,1,2,24,74,174.98512799595483,177.0156652093865,"[61, 0, 193]",193,l,1.5072227348573506,colour,0.5
012,79,0,1,2,25,75,177.53216182650067,179.60765060852282,"[33, 0, 221]",221,a,1.552126648137346,colour,0.5
012,79,0,1,2,26,76,180.12608179543167,185.0956710067112,"[45, 0, 209]",209,a,4.4461794218514115,colour,0.5
012,79,0,1,2,27,77,185.61231964826584,186.68767846142873,"[5, 0, 249]",249,a,0.5520533928647637,colour,0.5
012,79,0,1,2,28,78,187.20621716813184,188.27164004417136,"[36, 0, 218]",218,a,0.5421655050013214,colour,0.5
012,79,0,1,2,29,79,188.7852107824292,190.0797084439546,"[66, 0, 188]",188,l,0.7701245259959251,colour,0.5
012,79,0,1,2,30,80,190.5988213776145,191.78367832908407,"[43, 0, 211]",211,a,0.661487334407866,colour,0.5
012,79,0,1,2,31,81,192.30209415592253,193.3516686845105,"[89, 0, 165]",165,l,0.526460123481229,colour,0.5
012,79,0,1,2,32,82,193.8648136756383,195.11170564312488,"[23, 0, 231]",231,a,0.7222518045455217,colour,0.5
012,79,0,1,2,33,83,195.63188077835366,196.66363024828024,"[79, 0, 175]",175,l,0.5084405052475631,colour,0.5
012,79,0,1,2,34,84,197.17886065202765,198.7356740629766,"[59, 0, 195]",195,l,1.0335127168800682,colour,0.5
012,79,0,1,2,35,85,199.25716267339885,200.3276279545389,"[91, 0, 163]",163,l,0.5471472579520196,colour,0.5
012,79,0,1,2,36,86,200.83778365748003,201.87176426290534,"[4, 0, 250]",250,a,0.5108189387246966,colour,0.5
012,79,0,1,2,37,87,202.38486474961974,204.20758026791736,"[51, 0, 203]",203,a,1.299397495109588,colour,0.5
012,79,0,1,2,38,88,204.7287664047908,205.93562908563763,"[50, 0, 204]",204,a,0.6835529285017401,colour,0.5
012,79,0,1,2,39,89,206.447647678433,207.52760463906452,"[41, 0, 213]",213,a,0.5566428757738322,colour,0.5
012,79,0,1,2,40,90,208.0415243243333,209.32762283459306,"[27, 0, 227]",227,a,0.7628041177522391,colour,0.5
012,79,0,1,2,41,91,209.83842877671123,210.93567516561598,"[34, 0, 220]",220,a,0.5725164292380214,colour,0.5
012,79,0,1,2,42,92,211.4493778422475,212.479615339078,"[87, 0, 167]",167,l,0.5069450736045837,colour,0.5
012,79,0,1,2,43,93,212.9963002144359,214.69560775510035,"[49, 0, 205]",205,a,1.1758890869095922,colour,0.5
012,79,0,1,2,44,94,215.217454764992,216.37564718700014,"[83, 0, 171]",171,l,0.6348157157190144,colour,0.5
012,79,0,1,2,45,95,216.88945147558115,218.03160729189403,"[28, 0, 226]",226,a,0.618747208500281,colour,0.5
012,79,0,1,2,46,96,218.54584993072785,222.6956183889415,"[67, 0, 187]",187,l,3.6264291673433036,colour,0.5
012,79,0,1,2,47,97,223.20390056818724,224.21557297068648,"[21, 0, 233]",233,a,0.48913183039985597,colour,0.5
012,79,0,1,2,48,98,224.73526722029783,228.1916972619947,"[88, 0, 166]",166,l,2.933134861290455,colour,0.5
012,79,0,1,2,49,99,228.7056779935956,229.6555828009732,"[64, 0, 190]",190,l,0.4265793012455106,colour,0.5
012,79,0,1,2,50,100,230.1745204734616,231.20761847076938,"[11, 0, 243]",243,a,0.5097732788417488,colour,0.5
012,79,0,1,3,1,101,252.7880681322422,253.98358293971978,"[87, 0, 167]",167,l,0.6715363052207977,colour,0.5
012,79,0,1,3,2,102,254.4921341156587,255.18359703943133,"[76, 0, 178]",178,l,0.16814253758639097,colour,0.5
012,79,0,1,3,3,103,255.69540295540355,256.35955032287166,"[71, 0, 183]",183,l,0.1403866617474705,colour,0.5
012,79,0,1,3,4,104,256.86729017691687,259.86355258198455,"[64, 0, 190]",190,l,2.473648183979094,colour,0.5
012,79,0,1,3,5,105,260.36873204563744,261.00762878963724,"[99, 0, 155]",155,l,0.11599462176673114,colour,0.5
012,79,0,1,3,6,106,261.5250540948473,262.1115981230978,"[90, 0, 164]",164,l,0.06393020111136138,colour,0.5
012,79,0,1,3,7,107,262.61892995308153,263.27961778081954,"[2, 0, 252]",252,a,0.13817167421802878,colour,0.5
012,79,0,1,3,8,108,263.7909223313909,265.0795682349708,"[93, 0, 161]",161,l,0.7657516582403332,colour,0.5
012,79,0,1,3,9,109,265.5879520266317,266.7195397836622,"[22, 0, 232]",232,a,0.6089739298913628,colour,0.5
012,79,0,1,3,10,110,267.2286352540832,268.5355670156423,"[51, 0, 203]",203,a,0.7834372953511775,colour,0.5
012,79,0,1,3,11,111,269.0413396107033,272.87153701414354,"[23, 0, 231]",231,a,3.3060424581635743,colour,0.5
012,79,0,1,3,12,112,273.3861486862879,274.47157931304537,"[47, 0, 207]",207,a,0.5629794576670974,colour,0.5
012,79,0,1,3,13,113,274.97987330774777,276.00752008822747,"[17, 0, 237]",237,a,0.5151547852437943,colour,0.5
012,79,0,1,3,14,114,276.51650488818996,280.04763365746476,"[55, 0, 199]",199,l,3.0086082834750414,colour,0.5
012,79,0,1,3,15,115,280.5639896718785,281.9117183247581,"[69, 0, 185]",185,l,0.824410235742107,colour,0.5
012,79,0,1,3,16,116,282.42352621024475,283.5915450800676,"[50, 0, 204]",204,a,0.6455251656007022,colour,0.5
012,79,0,1,3,17,117,284.1110187761951,285.1595984508749,"[7, 0, 247]",247,a,0.5255869678221643,colour,0.5
012,79,0,1,3,18,118,285.67363865301013,286.3835205545183,"[15, 0, 239]",239,a,0.18678443180397153,colour,0.5
012,79,0,1,3,19,119,286.8924573052209,287.6315983911045,"[4, 0, 250]",250,a,0.21462183352559805,colour,0.5
012,79,0,1,3,20,120,288.14385407883674,288.8395343013108,"[32, 0, 222]",222,a,0.17292421706952155,colour,0.5
012,79,0,1,3,21,121,289.3470126418397,290.3835370959714,"[10, 0, 244]",244,a,0.5136392673011869,colour,0.5
012,79,0,1,3,22,122,290.89293385855854,291.5995054875966,"[25, 0, 229]",229,a,0.18036317289806902,colour,0.5
012,79,0,1,3,23,123,292.11518960120156,293.3595526861027,"[67, 0, 187]",187,l,0.7214597810525447,colour,0.5
012,79,0,1,3,24,124,293.86560097313486,294.9116883925162,"[82, 0, 172]",172,l,0.5264943880029023,colour,0.5
012,79,0,1,3,25,125,295.42592000379227,296.1039437337313,"[60, 0, 194]",194,l,0.15457534394226968,colour,0.5
012,79,0,1,3,26,126,296.61658460251056,297.87153268186375,"[5, 0, 249]",249,a,0.73158791474998,colour,0.5
012,79,0,1,3,27,127,298.38240833440796,299.815473878989,"[26, 0, 228]",228,a,0.909070894587785,colour,0.5
012,79,0,1,3,28,128,300.32182463956997,301.9595650527626,"[35, 0, 219]",219,a,1.1148327770642936,colour,0.5
012,79,0,1,3,29,129,302.46981212776154,303.5675421592314,"[68, 0, 186]",186,l,0.5742973990272731,colour,0.5
012,79,0,1,3,30,130,304.0792476446368,305.30349624645896,"[72, 0, 182]",182,l,0.7011869719717652,colour,0.5
012,79,0,1,3,31,131,305.81388983200304,306.8634694805369,"[83, 0, 171]",171,l,0.5237453456502408,colour,0.5
012,79,0,1,3,32,132,307.37914689909667,308.551497282926,"[36, 0, 218]",218,a,0.6494033632334322,colour,0.5
012,79,0,1,3,33,133,309.0649664090015,310.08747862419114,"[97, 0, 157]",157,l,0.4989161370322108,colour,0.5
012,79,0,1,3,34,134,310.6024073420558,311.5835370172281,"[95, 0, 159]",159,l,0.45753911091014743,colour,0.5
012,79,0,1,3,35,135,312.1049456768669,313.1115122649353,"[34, 0, 220]",220,a,0.48329779552295804,colour,0.5
012,79,0,1,3,36,136,313.6207061968744,315.23953571915627,"[20, 0, 234]",234,a,1.095496532972902,colour,0.5
012,79,0,1,3,37,137,315.7459164119791,316.84768454241566,"[19, 0, 235]",235,a,0.5787624269723892,colour,0.5
012,79,0,1,3,38,138,317.3565921485424,318.5114640581887,"[43, 0, 211]",211,a,0.6318098860792816,colour,0.5
012,79,0,1,3,39,139,319.02885588654317,320.0714743139688,"[40, 0, 214]",214,a,0.519387444248423,colour,0.5
012,79,0,1,3,40,140,320.59137336327694,322.4075053583365,"[89, 0, 165]",165,l,1.2929096762090921,colour,0.5
012,79,0,1,3,41,141,322.9195456125308,324.4315417560283,"[24, 0, 230]",230,a,0.9888514124322683,colour,0.5
012,79,0,1,3,42,142,324.95234743808396,326.0715420553461,"[0, 0, 254]",254,a,0.595858083339408,colour,0.5
012,79,0,1,3,43,143,326.57760924706236,329.17557519185357,"[58, 0, 196]",196,l,2.074580180225894,colour,0.5
012,79,0,1,3,44,144,329.68718772986904,330.71144034853205,"[66, 0, 188]",188,l,0.49992162454873323,colour,0.5
012,79,0,1,3,45,145,331.21983319870196,331.87956634466536,"[86, 0, 168]",168,l,0.13621386769227684,colour,0.5
012,79,0,1,3,46,146,332.39199965656735,333.47948024980724,"[78, 0, 176]",176,l,0.5643717020284384,colour,0.5
012,79,0,1,3,47,147,333.9857727212366,335.111448855605,"[6, 0, 248]",248,a,0.6023778032977134,colour,0.5
012,79,0,1,3,48,148,335.6265481086448,340.45545724313706,"[88, 0, 166]",166,l,4.305719504831359,colour,0.5
012,79,0,1,3,49,149,340.97066559130326,342.1514915328007,"[46, 0, 208]",208,a,0.6574827120639384,colour,0.5
012,79,0,1,3,50,150,342.658239683602,343.72751358198,"[45, 0, 209]",209,a,0.5455561219714582,colour,0.5
012,79,0,1,4,1,151,349.44092906615697,352.3834591147024,"[26, 0, 228]",228,a,2.4185074355918914,colour,0.5
012,79,0,1,4,2,152,352.89405789389275,353.8953993320465,"[29, 0, 225]",225,a,0.47552131372503936,colour,0.5
012,79,0,1,4,3,153,354.41041784663685,355.4874855556991,"[34, 0, 220]",220,a,0.5538749287370592,colour,0.5
012,79,0,1,4,4,154,356.0056044231169,357.0074606174603,"[74, 0, 180]",180,l,0.47872603544965386,colour,0.5
012,79,0,1,4,5,155,357.522927722428,358.5834192573093,"[70, 0, 184]",184,l,0.5371144348755479,colour,0.5
012,79,0,1,4,6,156,359.10104266693816,360.135432084091,"[92, 0, 162]",162,l,0.5117023345082998,colour,0.5
012,79,0,1,4,7,157,360.6481655065436,361.7355027401354,"[80, 0, 174]",174,l,0.5641318501438946,colour,0.5
012,79,0,1,4,8,158,362.2434540891554,363.2954172913451,"[4, 0, 250]",250,a,0.5293702487833798,colour,0.5
012,79,0,1,4,9,159,363.80589870456606,365.0155864402186,"[25, 0, 229]",229,a,0.686351201729849,colour,0.5
012,79,0,1,4,10,160,365.52474650135264,366.59142338181846,"[21, 0, 233]",233,a,0.5433438911568373,colour,0.5
012,79,0,1,4,11,161,367.1030981473159,368.199500918854,"[1, 0, 253]",253,a,0.5728779793716967,colour,0.5
012,79,0,1,4,12,162,368.71261715935543,369.77540442044847,"[12, 0, 242]",242,a,0.5385165254119784,colour,0.5
012,79,0,1,4,13,163,370.2921727912035,371.31139954621904,"[68, 0, 186]",186,l,0.4956547012552619,colour,0.5
012,79,0,1,4,14,164,371.8236930430867,372.87139956187457,"[57, 0, 197]",197,l,0.524245529435575,colour,0.5
012,79,0,1,4,15,165,373.38632709835656,374.36746465042233,"[66, 0, 188]",188,l,0.4582133744843304,colour,0.5
012,79,0,1,4,16,166,374.8863452151418,376.55951834260486,"[28, 0, 226]",226,a,1.1506813922896981,colour,0.5
012,79,0,1,4,17,167,377.07414891943336,378.21537722926587,"[50, 0, 204]",204,l,0.6176405022852123,colour,0.5
012,79,0,1,4,18,168,378.73049026704393,382.15946533111855,"[45, 0, 209]",209,l,2.905963452765718,colour,0.5
012,79,0,1,4,19,169,382.6680188700557,383.7194507746026,"[13, 0, 241]",241,a,0.5278610324021429,colour,0.5
012,79,0,1,4,20,170,384.23071633442305,385.54351324471645,"[63, 0, 191]",191,l,0.7894517118111253,colour,0.5
012,79,0,1,4,21,171,386.0591071678791,387.1354198749177,"[16, 0, 238]",238,a,0.553134499117732,colour,0.5
012,79,0,1,4,22,172,387.6528818078805,389.0394333980512,"[47, 0, 207]",207,l,0.8630291612353176,colour,0.5
012,79,0,1,4,23,173,389.5593462320976,391.3034056618344,"[40, 0, 214]",214,l,1.2202672164421529,colour,0.5
012,79,0,1,4,24,174,391.8100293574389,393.45544582162984,"[38, 0, 216]",216,l,1.1225942927412689,colour,0.5
012,79,0,1,4,25,175,393.9664124525152,395.0075271774549,"[6, 0, 248]",248,a,0.5181066582445055,colour,0.5
012,79,0,1,4,26,176,395.52900239708833,396.71962406649254,"[60, 0, 194]",194,l,0.6676754364743829,colour,0.5
012,79,0,1,4,27,177,397.2322991997935,398.247377185151,"[15, 0, 239]",239,a,0.49172097141854465,colour,0.5
012,79,0,1,4,28,178,398.76366979046725,400.3273676226381,"[86, 0, 168]",168,l,1.0401840675622225,colour,0.5
012,79,0,1,4,29,179,400.84199071628973,402.90336801018566,"[54, 0, 200]",200,l,1.5379080339334905,colour,0.5
012,79,0,1,4,30,180,403.421759812627,404.71136906254105,"[69, 0, 185]",185,l,0.766381417401135,colour,0.5
012,79,0,1,4,31,181,405.2187288554851,406.2393415533006,"[83, 0, 171]",171,l,0.4972379608079791,colour,0.5
012,79,0,1,4,32,182,406.75016521825455,407.86338874232024,"[35, 0, 219]",219,a,0.5884029797744006,colour,0.5
012,79,0,1,4,33,183,408.37673774547875,409.9993536993861,"[88, 0, 166]",166,l,1.0992045893799514,colour,0.5
012,79,0,1,4,34,184,410.51771990186535,412.01534186210483,"[72, 0, 182]",182,l,0.9744216969702393,colour,0.5
012,79,0,1,4,35,185,412.5332779849414,413.6073311998043,"[32, 0, 222]",222,a,0.5506965946406126,colour,0.5
012,79,0,1,4,36,186,414.12730311066844,416.35137290647253,"[53, 0, 201]",201,a,1.700739563209936,colour,0.5
012,79,0,1,4,37,187,416.8628286938183,417.95131241180934,"[2, 0, 252]",252,a,0.56502391025424,colour,0.5
012,79,0,1,4,38,188,418.47225436451845,419.9833072477486,"[65, 0, 189]",189,l,0.9909730586223304,colour,0.5
012,79,0,1,4,39,189,420.50457806140184,422.8953213505447,"[46, 0, 208]",208,a,1.8674425950739533,colour,0.5
012,79,0,1,4,40,190,436.2414667441044,438.4233521304559,"[43, 0, 211]",211,a,1.6591120515950024,colour,0.5
012,79,0,1,4,41,191,438.929693832295,439.5434202970937,"[94, 0, 160]",160,l,0.0902430263813585,colour,0.5
012,79,0,1,4,42,192,440.0549201951362,440.7914327553008,"[73, 0, 181]",181,l,0.2131842968519777,colour,0.5
012,79,0,1,4,43,193,441.3049479613546,442.37527815345675,"[67, 0, 187]",187,l,0.5475584329105914,colour,0.5
012,79,0,1,4,44,194,442.8833256009966,443.495340018766,"[78, 0, 176]",176,l,0.08776101120747626,colour,0.5
012,79,0,1,4,45,195,444.00962164835073,444.751358570531,"[71, 0, 183]",183,l,0.2180900378152728,colour,0.5
012,79,0,1,4,46,196,445.2597325160168,447.0312910338398,"[59, 0, 195]",195,l,1.2480742917396128,colour,0.5
012,79,0,1,4,47,197,447.5411702571437,448.1833142582327,"[41, 0, 213]",213,a,0.11884960858151317,colour,0.5
012,79,0,1,4,48,198,448.6975147554185,449.40734900161624,"[36, 0, 218]",218,a,0.18664816115051508,colour,0.5
012,79,0,1,4,49,199,449.9165949211456,450.52731949463487,"[7, 0, 247]",247,a,0.08722931961528957,colour,0.5
012,79,0,1,4,50,200,451.042041443754,451.88736054929905,"[51, 0, 203]",203,a,0.32190459012053907,colour,0.5
012,79,0,1,5,1,201,457.62665011477657,462.0953913764097,"[21, 0, 233]",233,l,3.9446721747517586,colour,0.5
012,79,0,1,5,2,202,462.61341926525347,463.37530729803257,"[71, 0, 183]",183,l,0.2386125447228551,colour,0.5
012,79,0,1,5,3,203,463.89485385571606,464.5673885594588,"[68, 0, 186]",186,l,0.15047304797917604,colour,0.5
012,79,0,1,5,4,204,465.08132006041706,466.31136725097895,"[48, 0, 206]",206,a,0.7066488228738308,colour,0.5
012,79,0,1,5,5,205,466.8313466447871,467.49534159409814,"[5, 0, 249]",249,a,0.1377396252937615,colour,0.5
012,79,0,1,5,6,206,468.0038305425551,469.28734345640987,"[28, 0, 226]",226,a,0.7600306570529938,colour,0.5
012,79,0,1,5,7,207,469.8009232529439,470.8633781084791,"[13, 0, 241]",241,a,0.5389568447135389,colour,0.5
012,79,0,1,5,8,208,471.3816553016659,472.4952750343364,"[57, 0, 197]",197,l,0.5887475945055485,colour,0.5
012,79,0,1,5,9,209,473.00819868408144,474.31126603251323,"[38, 0, 216]",216,a,0.7795023838989437,colour,0.5
012,79,0,1,5,10,210,474.820823877817,475.94355129031464,"[24, 0, 230]",230,a,0.597803286742419,colour,0.5
012,79,0,1,5,11,211,476.4630797309801,477.6233032147866,"[89, 0, 165]",165,l,0.6366604885552078,colour,0.5
012,79,0,1,5,12,212,478.1351938075386,482.48728154366836,"[52, 0, 202]",202,l,3.8289126788731664,colour,0.5
012,79,0,1,5,13,213,482.99614149471745,484.09542603464797,"[61, 0, 193]",193,l,0.5758889291901141,colour,0.5
012,79,0,1,5,14,214,484.60552896233276,485.6632568826899,"[32, 0, 222]",222,a,0.5343953247647732,colour,0.5
012,79,0,1,5,15,215,486.18379317433573,487.21526458952576,"[11, 0, 243]",243,a,0.508138031931594,colour,0.5
012,79,0,1,5,16,216,487.7307202727534,488.7992620121222,"[7, 0, 247]",247,a,0.5443170834332705,colour,0.5
012,79,0,1,5,17,217,489.31167878280394,490.46321285073645,"[51, 0, 203]",203,l,0.6281640571542084,colour,0.5
012,79,0,1,5,18,218,490.9838003425393,492.03921126923524,"[56, 0, 198]",198,l,0.5329203731380403,colour,0.5
012,79,0,1,5,19,219,492.5465423113201,493.5352302775718,"[74, 0, 180]",180,l,0.46553141972981393,colour,0.5
012,79,0,1,5,20,220,494.046597055858,495.12727199704386,"[17, 0, 237]",237,a,0.5581816306803375,colour,0.5
012,79,0,1,5,21,221,495.64027047739364,498.8633828344755,"[18, 0, 236]",236,a,2.6998341120779514,colour,0.5
012,79,0,1,5,22,222,499.37639391818084,500.9512395504862,"[10, 0, 244]",244,a,1.0518698608502746,colour,0.5
012,79,0,1,5,23,223,501.47022133343853,502.7192286455538,"[84, 0, 170]",170,l,0.7259551347233355,colour,0.5
012,79,0,1,5,24,224,503.23601277009584,504.3272215060424,"[35, 0, 219]",219,a,0.5682723489589989,colour,0.5
012,79,0,1,5,25,225,504.84557904372923,505.8552448027767,"[26, 0, 228]",228,a,0.48647455405443907,colour,0.5
012,79,0,1,5,26,226,506.36126512661576,507.4152873537969,"[19, 0, 235]",235,a,0.5312020247802138,colour,0.5
012,79,0,1,5,27,227,507.9239633786492,508.9832095738966,"[34, 0, 220]",220,a,0.5362735744565725,colour,0.5
012,79,0,1,5,28,228,509.50223507382907,511.879261901835,"[79, 0, 175]",175,l,1.8539293583016843,colour,0.5
012,79,0,1,5,29,229,512.3929763936903,513.4952265913598,"[75, 0, 179]",179,l,0.5788352882955223,colour,0.5
012,79,0,1,5,30,230,514.0025087967515,515.175239241682,"[37, 0, 217]",217,a,0.6497227721847594,colour,0.5
012,79,0,1,5,31,231,515.6900529565755,517.727207957767,"[72, 0, 182]",182,l,1.513985457830131,colour,0.5
012,79,0,1,5,32,232,518.2371982454788,519.239211978158,"[3, 0, 251]",251,a,0.4786551434081048,colour,0.5
012,79,0,1,5,33,233,519.7529654605314,520.8392601846717,"[55, 0, 199]",199,l,0.5631279374938458,colour,0.5
012,79,0,1,5,34,234,521.8967963024043,523.3912340207025,"[54, 0, 200]",200,l,0.9741117402445525,colour,0.5
012,79,0,1,5,35,235,523.9094434725121,525.0072845686227,"[92, 0, 162]",162,l,0.574443515855819,colour,0.5
012,79,0,1,5,36,236,525.5204874549527,526.6151994473767,"[77, 0, 177]",177,l,0.5713923939038068,colour,0.5
012,79,0,1,5,37,237,527.1294542953838,530.447198694339,"[41, 0, 213]",213,a,2.7948773289099336,colour,0.5
012,79,0,1,5,38,238,530.9585032449104,534.5512590063736,"[42, 0, 212]",212,l,3.0694460088852793,colour,0.5
012,79,0,1,5,39,239,535.069171104813,535.7112268842757,"[14, 0, 240]",240,a,0.11889805155806243,colour,0.5
012,79,0,1,5,40,240,536.2256246982142,537.4231898658909,"[78, 0, 176]",176,l,0.6744578517973423,colour,0.5
012,79,0,1,5,41,241,537.9445961625315,540.2552344051655,"[96, 0, 158]",158,l,1.7875707051716745,colour,0.5
012,79,0,1,5,42,242,540.7728215809911,542.5351999516133,"[33, 0, 221]",221,a,1.2393025625497103,colour,0.5
012,79,0,1,5,43,243,543.0542545961216,544.1032548977528,"[16, 0, 238]",238,a,0.5260564316995442,colour,0.5
012,79,0,1,5,44,244,545.0285853145178,546.9271771588828,"[98, 0, 156]",156,l,1.3807474873028696,colour,0.5
012,79,0,1,5,45,245,547.445197171066,548.4791754134931,"[60, 0, 194]",194,l,0.5115782732609659,colour,0.5
012,79,0,1,5,46,246,548.9921900415793,550.0391710968688,"[94, 0, 160]",160,l,0.5237674009986222,colour,0.5
012,79,0,1,5,47,247,550.5549209828023,551.6231980579905,"[83, 0, 171]",171,l,0.54500867635943,colour,0.5
012,79,0,1,5,48,248,552.1334329238161,553.1673418495338,"[82, 0, 172]",172,l,0.5113466922193766,colour,0.5
012,79,0,1,5,49,249,553.6801930316724,555.3991806437261,"[69, 0, 185]",185,l,1.1951052080839872,colour,0.5
012,79,0,1,5,50,250,555.9160049404018,556.9592440684792,"[12, 0, 242]",242,a,0.5197934987954795,colour,0.5
012,79,0,1,6,1,251,562.5891544371843,564.9033274441026,"[88, 0, 166]",166,l,1.7901480307336897,colour,0.5
012,79,0,1,6,2,252,565.4183357188012,566.4231181861833,"[51, 0, 203]",203,l,0.4819256372284144,colour,0.5
012,79,0,1,6,3,253,566.9341608292889,567.9433145890944,"[80, 0, 174]",174,l,0.48627644986845553,colour,0.5
012,79,0,1,6,4,254,568.4497622353956,569.4392946069129,"[43, 0, 211]",211,a,0.4663903971668333,colour,0.5
012,79,0,1,6,5,255,569.9498445491772,570.9591940501705,"[31, 0, 223]",223,a,0.4857601181138307,colour,0.5
012,79,0,1,6,6,256,571.4656267305836,572.623133861227,"[66, 0, 188]",188,l,0.6345404176972806,colour,0.5
012,79,0,1,6,7,257,573.1377018163912,574.2311275091488,"[41, 0, 213]",213,a,0.5703648505732417,colour,0.5
012,79,0,1,6,8,258,574.747179080965,575.8150993317831,"[77, 0, 177]",177,l,0.5433206539601088,colour,0.5
012,79,0,1,6,9,259,576.3267532235477,578.8630945396144,"[2, 0, 252]",252,a,2.012699945596978,colour,0.5
012,79,0,1,6,10,260,579.3738488878589,580.3911268948577,"[10, 0, 244]",244,a,0.4938560086302459,colour,0.5
012,79,0,1,6,11,261,580.9052671338432,581.9511497535277,"[4, 0, 250]",250,a,0.5223720059730113,colour,0.5
012,79,0,1,6,12,262,582.4677664937917,583.5191861889325,"[53, 0, 201]",201,l,0.5278996292036027,colour,0.5
012,79,0,1,6,13,263,584.0304415088613,586.0231715128757,"[87, 0, 167]",167,l,1.469293039292097,colour,0.5
012,79,0,1,6,14,264,586.5302764875814,587.5752331763506,"[72, 0, 182]",182,l,0.5215020009782165,colour,0.5
012,79,0,1,6,15,265,588.0943094824906,589.1831496306695,"[84, 0, 170]",170,l,0.5654220881406218,colour,0.5
012,79,0,1,6,16,266,589.7038316451944,592.9912936489563,"[44, 0, 210]",210,l,2.764493321534246,colour,0.5
012,79,0,1,6,17,267,593.501099223271,594.503091688035,"[14, 0, 240]",240,a,0.47918250248767436,colour,0.5
012,79,0,1,6,18,268,595.0167601001449,596.0391785800457,"[18, 0, 236]",236,a,0.49948800075799227,colour,0.5
012,79,0,1,6,19,269,596.5480818538927,597.5591599431355,"[68, 0, 186]",186,l,0.4879172104410827,colour,0.5
012,79,0,1,6,20,270,598.0807954580523,599.0471315043978,"[21, 0, 233]",233,a,0.4442003476433456,colour,0.5
012,79,0,1,6,21,271,599.5640960102901,600.7833762494847,"[74, 0, 180]",180,l,0.6960161728784442,colour,0.5
012,79,0,1,6,22,272,601.2984656563494,602.4391894501168,"[28, 0, 226]",226,a,0.6172234199475497,colour,0.5
012,79,0,1,6,23,273,602.9709373447113,604.1271113080438,"[26, 0, 228]",228,a,0.6331154843792319,colour,0.5
012,79,0,1,6,24,274,604.642553206766,605.7031447784975,"[69, 0, 185]",185,l,0.5371534256264567,colour,0.5
012,79,0,1,6,25,275,606.2141964801122,607.2630431822035,"[32, 0, 222]",222,a,0.5253242729231715,colour,0.5
012,79,0,1,6,26,276,607.7769715322647,609.5431162484456,"[45, 0, 209]",209,a,1.2498974034097046,colour,0.5
012,79,0,1,6,27,277,610.0497978392523,611.095115290489,"[19, 0, 235]",235,a,0.5222266770433635,colour,0.5
012,79,0,1,6,28,278,611.6124870327767,614.4470474577975,"[70, 0, 184]",184,l,2.3115692937280983,colour,0.5
012,79,0,1,6,29,279,614.9563981401734,615.9831642818172,"[58, 0, 196]",196,l,0.5018168098758906,colour,0.5
012,79,0,1,6,30,280,616.4894181562122,617.4792510317639,"[79, 0, 175]",175,l,0.46724701137281954,colour,0.5
012,79,0,1,6,31,281,617.9891794857103,619.391114291735,"[36, 0, 218]",218,a,0.8788306408096105,colour,0.5
012,79,0,1,6,32,282,619.911183088785,620.8711026024539,"[3, 0, 251]",251,a,0.4348193390760571,colour,0.5
012,79,0,1,6,33,283,621.381538329646,622.3750749293249,"[33, 0, 221]",221,a,0.4706195113249123,colour,0.5
012,79,0,1,6,34,284,622.8816919294186,626.6550381125417,"[56, 0, 198]",198,a,3.2503944362979382,colour,0.5
012,79,0,1,6,35,285,627.1637172882911,628.6630906797945,"[64, 0, 190]",190,l,0.9761857311241329,colour,0.5
012,79,0,1,6,36,286,629.1794486634899,630.1430348798167,"[8, 0, 246]",246,a,0.44012877182103693,colour,0.5
012,79,0,1,6,37,287,630.6508235705551,631.7910924726166,"[97, 0, 157]",157,l,0.6173340904060751,colour,0.5
012,79,0,1,6,38,288,632.307229115162,633.2551241284236,"[15, 0, 239]",239,a,0.4248424421530217,colour,0.5
012,79,0,1,6,39,289,633.7760519026779,634.7430413388647,"[61, 0, 193]",193,l,0.44413260626606643,colour,0.5
012,79,0,1,6,40,290,635.2606060653925,636.2151326511521,"[0, 0, 254]",254,a,0.4313625560607761,colour,0.5
012,79,0,1,6,41,291,636.729403253179,637.7110516231041,"[62, 0, 192]",192,l,0.4586714170873165,colour,0.5
012,79,0,1,6,42,292,638.2295438558795,639.2230895140674,"[1, 0, 253]",253,a,0.4704600037075579,colour,0.5
012,79,0,1,6,43,293,639.7297502311412,640.6871306221001,"[85, 0, 169]",169,l,0.4345164718106389,colour,0.5
012,79,0,1,6,44,294,641.1988101138268,645.2871189643629,"[50, 0, 204]",204,l,3.5655910479836166,colour,0.5
012,79,0,1,6,45,295,645.7937867704313,646.7911176788621,"[35, 0, 219]",219,a,0.47426612791605294,colour,0.5
012,79,0,1,6,46,296,647.3094326811843,648.3110320882406,"[90, 0, 164]",164,l,0.47858897713012993,colour,0.5
012,79,0,1,6,47,297,648.8251293981448,649.8950338433497,"[12, 0, 242]",242,a,0.5466167482081801,colour,0.5
012,79,0,1,6,48,298,650.4034302379005,651.4550543390214,"[73, 0, 181]",181,l,0.5279965153895319,colour,0.5
012,79,0,1,6,49,299,651.966033179313,653.00703920261,"[82, 0, 172]",172,l,0.5176289232913405,colour,0.5
012,79,0,1,6,50,300,653.513103243662,654.6310883609112,"[47, 0, 207]",207,a,0.5949809891171753,colour,0.5
012,79,0,1,7,1,301,660.4503313424066,666.7110031798948,"[86, 0, 168]",168,l,5.735838690074161,colour,0.5
012,79,0,1,7,2,302,667.2177517246455,667.9430259002838,"[84, 0, 170]",170,l,0.20193291548639536,colour,0.5
012,79,0,1,7,3,303,668.45221156138,669.575008290587,"[81, 0, 173]",173,l,0.5996953211724758,colour,0.5
012,79,0,1,7,4,304,670.0929873427376,672.1430435443763,"[59, 0, 195]",195,l,1.527022141031921,colour,0.5
012,79,0,1,7,5,305,672.6557088315021,673.6550022726879,"[3, 0, 251]",251,a,0.475846630288288,colour,0.5
012,79,0,1,7,6,306,674.1714587176684,675.2630526344292,"[31, 0, 223]",223,a,0.5685307118110359,colour,0.5
012,79,0,1,7,7,307,675.7809095943812,678.518995173974,"[56, 0, 198]",198,l,2.2152953094337136,colour,0.5
012,79,0,1,7,8,308,679.0311437356286,680.0630460178945,"[92, 0, 162]",162,l,0.5089186339173466,colour,0.5
012,79,0,1,7,9,309,680.5781925322954,681.5349853057414,"[82, 0, 172]",172,l,0.4335035008843988,colour,0.5
012,79,0,1,7,10,310,682.0470157137606,685.9511296674609,"[50, 0, 204]",204,a,3.3810716224834323,colour,0.5
012,79,0,1,7,11,311,686.4706722865812,687.4711228460073,"[28, 0, 226]",226,a,0.47746021556667984,colour,0.5
012,79,0,1,7,12,312,687.9863304067403,688.9909986585844,"[13, 0, 241]",241,a,0.4819421786814928,colour,0.5
012,79,0,1,7,13,313,689.5020420895889,690.5670384308323,"[15, 0, 239]",239,a,0.5415341705083847,colour,0.5
012,79,0,1,7,14,314,691.0803374154493,692.1670259851962,"[6, 0, 248]",248,a,0.5634855492971838,colour,0.5
012,79,0,1,7,15,315,692.6741612860933,693.8389785850886,"[53, 0, 201]",201,l,0.6405508953612298,colour,0.5
012,79,0,1,7,16,316,694.347527791746,695.5189975369722,"[57, 0, 197]",197,l,0.6481292727403343,colour,0.5
012,79,0,1,7,17,317,696.0341641376726,697.0229690761771,"[80, 0, 174]",174,l,0.4654042078182101,colour,0.5
012,79,0,1,7,18,318,697.5342401498929,698.5749460628722,"[1, 0, 253]",253,a,0.5174363327678293,colour,0.5
012,79,0,1,7,19,319,699.0812227805145,700.174942675978,"[83, 0, 171]",171,l,0.5660782351624221,colour,0.5
012,79,0,1,7,20,320,700.6950528265443,703.7832297389396,"[46, 0, 208]",208,a,2.5680068971123546,colour,0.5
012,79,0,1,7,21,321,704.2907124117482,705.3349688430317,"[30, 0, 224]",224,a,0.5212456076405942,colour,0.5
012,79,0,1,7,22,322,705.8531617533881,712.2149833836593,"[96, 0, 158]",158,l,5.829286044463515,colour,0.5
012,79,0,1,7,23,323,712.7132551891264,715.8629381828941,"[14, 0, 240]",240,a,2.6242838902398944,colour,0.5
012,79,0,1,7,24,324,716.371824127622,717.4549405176658,"[20, 0, 234]",234,a,0.5602776769082993,colour,0.5
012,79,0,1,7,25,325,717.9657362196594,719.0868807665538,"[63, 0, 191]",191,l,0.5978300683200359,colour,0.5
012,79,0,1,7,26,326,719.6064635580406,720.7669040507171,"[58, 0, 196]",196,l,0.6370291281491518,colour,0.5
012,79,0,1,7,27,327,721.2788521449547,722.4469107931945,"[78, 0, 176]",176,l,0.6452081196475774,colour,0.5
012,79,0,1,7,28,328,722.9661076159682,725.4628871404566,"[49, 0, 205]",205,a,1.9734563811216503,colour,0.5
012,79,0,1,7,29,329,725.9820733293891,726.9909128004219,"[36, 0, 218]",218,a,0.4856821368448436,colour,0.5
012,79,0,1,7,30,330,727.4977629571222,728.5828966242261,"[29, 0, 225]",225,a,0.5619042592588812,colour,0.5
012,79,0,1,7,31,331,729.0916155783925,730.1909170539584,"[35, 0, 219]",219,a,0.5759873907081783,colour,0.5
012,79,0,1,7,32,332,730.7010841784067,731.7829272653908,"[40, 0, 214]",214,a,0.5563266177196056,colour,0.5
012,79,0,1,7,33,333,732.2971565136686,733.3429402781185,"[2, 0, 252]",252,a,0.5228560422547162,colour,0.5
012,79,0,1,7,34,334,733.85975709185,734.8309283808339,"[67, 0, 187]",187,l,0.44783436111174524,colour,0.5
012,79,0,1,7,35,335,735.3440686457325,736.3589225329924,"[27, 0, 227]",227,a,0.4913917165249586,colour,0.5
012,79,0,1,7,36,336,736.8755948054604,737.8708635380026,"[98, 0, 156]",156,l,0.47201569378376007,colour,0.5
012,79,0,1,7,37,337,738.3913958913181,743.9829854757991,"[87, 0, 167]",167,l,5.0683621456846595,colour,0.5
012,79,0,1,7,38,338,744.5011551491916,745.558840534417,"[95, 0, 159]",159,l,0.5343500326853245,colour,0.5
012,79,0,1,7,39,339,746.0793728874996,751.3109651345294,"[8, 0, 246]",246,l,4.708259257487953,colour,0.5
012,79,0,1,7,40,340,751.8312028911896,752.4149179265369,"[26, 0, 228]",228,a,0.06051280256360769,colour,0.5
012,79,0,1,7,41,341,752.9251331002451,754.3828817368485,"[77, 0, 177]",177,l,0.9343892596662045,colour,0.5
012,79,0,1,7,42,342,754.8939594323747,755.9508630339988,"[85, 0, 169]",169,l,0.5337852579541504,colour,0.5
012,79,0,1,7,43,343,756.4575083910022,757.7028675111942,"[74, 0, 180]",180,l,0.7220588200725615,colour,0.5
012,79,0,1,7,44,344,758.2227027576882,759.3188156590331,"[18, 0, 236]",236,a,0.5728224471677095,colour,0.5
012,79,0,1,7,45,345,759.8330047349446,762.7428743483033,"[25, 0, 229]",229,l,2.3865326854866,colour,0.5
012,79,0,1,7,46,346,763.2551284607034,764.1828227387741,"[93, 0, 161]",161,l,0.40458617452532053,colour,0.5
012,79,0,1,7,47,347,764.6927196851466,766.8869930913206,"[4, 0, 250]",250,a,1.670849832240492,colour,0.5
012,79,0,1,7,48,348,767.3960637494456,768.4788532475941,"[70, 0, 184]",184,l,0.5595234625507146,colour,0.5
012,79,0,1,7,49,349,768.9899884446058,773.1028193044476,"[39, 0, 215]",215,l,3.5895931811537594,colour,0.5
012,79,0,1,7,50,350,773.6167563190684,774.6628602801356,"[11, 0, 243]",243,a,0.5233448047656566,colour,0.5
012,79,0,1,8,1,351,824.2981706659775,825.3827994232997,"[15, 0, 239]",239,a,0.5608223655726761,colour,0.5
012,79,0,1,8,2,352,825.8928558770567,828.3107398548163,"[68, 0, 186]",186,l,1.8944793085101992,colour,0.5
012,79,0,1,8,3,353,828.8305601351894,829.8067726478912,"[92, 0, 162]",162,l,0.45292324014008045,colour,0.5
012,79,0,1,8,4,354,830.3151753440034,831.3107697870582,"[61, 0, 193]",193,l,0.4724363209679723,colour,0.5
012,79,0,1,8,5,355,831.830811408814,832.8067706788424,"[19, 0, 235]",235,a,0.45269520371221006,colour,0.5
012,79,0,1,8,6,356,833.3153096453752,834.3587890192866,"[21, 0, 233]",233,a,0.5201830121222883,colour,0.5
012,79,0,1,8,7,357,834.8778153068852,835.9187575273681,"[10, 0, 244]",244,a,0.517501711146906,colour,0.5
012,79,0,1,8,8,358,836.4249023066368,839.1667380840518,"[76, 0, 178]",178,l,2.2184614341240376,colour,0.5
012,79,0,1,8,9,359,839.6751703186892,841.5187765895389,"[44, 0, 210]",210,l,1.3203205429017544,colour,0.5
012,79,0,1,8,10,360,842.0353523697704,842.9667389504611,"[7, 0, 247]",247,a,0.4081737140659243,colour,0.5
012,79,0,1,8,11,361,843.4736375503708,844.5667339880019,"[62, 0, 192]",192,l,0.5704668567050248,colour,0.5
012,79,0,1,8,12,362,845.083182556089,846.694705060916,"[74, 0, 180]",180,l,1.0882190538104624,colour,0.5
012,79,0,1,8,13,363,847.2083167592064,848.1987829382997,"[65, 0, 189]",189,l,0.467122949892655,colour,0.5
012,79,0,1,8,14,364,848.7098850524053,849.518763986649,"[95, 0, 159]",159,l,0.28565070778131485,colour,0.5
012,79,0,1,8,15,365,850.0381723043974,851.0307880931068,"[75, 0, 179]",179,l,0.46964710648171604,colour,0.5
012,79,0,1,8,16,366,851.5381971166935,852.6067483082879,"[33, 0, 221]",221,a,0.5454068542458117,colour,0.5
012,79,0,1,8,17,367,853.1164313964546,854.5426920766477,"[23, 0, 231]",231,a,0.902889487799257,colour,0.5
012,79,0,1,8,18,368,855.0540757901035,858.694714119425,"[48, 0, 206]",206,a,3.117382533615455,colour,0.5
012,79,0,1,8,19,369,859.212098858552,860.1907150109764,"[29, 0, 225]",225,a,0.45530127990059555,colour,0.5
012,79,0,1,8,20,370,860.7121756584384,861.7587203327566,"[96, 0, 158]",158,l,0.5232542203739285,colour,0.5
012,79,0,1,8,21,371,862.2747884460259,863.3027101305779,"[64, 0, 190]",190,l,0.5045162276364863,colour,0.5
012,79,0,1,8,22,372,863.8219187685754,865.4706915852148,"[53, 0, 201]",201,l,1.1257131560705602,colour,0.5
012,79,0,1,8,23,373,865.978158110287,869.1427816371433,"[51, 0, 203]",203,l,2.6411215777043253,colour,0.5
012,79,0,1,8,24,374,869.6518558401149,870.654677350074,"[8, 0, 246]",246,a,0.4807421313598752,colour,0.5
012,79,0,1,8,25,375,871.1662631062791,873.094763192581,"[41, 0, 213]",213,l,1.4051123524550349,colour,0.5
012,79,0,1,8,26,376,873.6115165972151,874.5667170528322,"[32, 0, 222]",222,a,0.4318221739958972,colour,0.5
012,79,0,1,8,27,377,875.0683975920547,879.8867642669939,"[55, 0, 199]",199,l,4.289659662405029,colour,0.5
012,79,0,1,8,28,378,880.3941409953404,881.4386829645373,"[85, 0, 169]",169,l,0.5211601429618895,colour,0.5
012,79,0,1,8,29,379,881.9496365988161,882.9347303300165,"[26, 0, 228]",228,a,0.4690358580555767,colour,0.5
012,79,0,1,8,30,380,883.4424260733649,884.5346781061962,"[99, 0, 155]",155,l,0.5688741451594979,colour,0.5
012,79,0,1,8,31,381,885.0456868787296,885.7186599324923,"[79, 0, 175]",175,l,0.14976333803497255,colour,0.5
012,79,0,1,8,32,382,886.2332550631836,887.7346669996623,"[36, 0, 218]",218,a,0.9781384177040309,colour,0.5
012,79,0,1,8,33,383,888.2489856507163,889.2787091790233,"[66, 0, 188]",188,l,0.5064307111315429,colour,0.5
012,79,0,1,8,34,384,889.7959970319644,890.8387009240687,"[82, 0, 172]",172,l,0.5194000471383333,colour,0.5
012,79,0,1,8,35,385,891.3602021373808,892.3986796720419,"[91, 0, 163]",163,l,0.5153257141355425,colour,0.5
012,79,0,1,8,36,386,892.9072040664032,893.9346862193197,"[17, 0, 237]",237,a,0.5041842157952487,colour,0.5
012,79,0,1,8,37,387,894.4540555465501,896.7346733012237,"[34, 0, 220]",220,a,1.757663644850254,colour,0.5
012,79,0,1,8,38,388,897.2512313583866,898.3026727151591,"[31, 0, 223]",223,a,0.5281438136007637,colour,0.5
012,79,0,1,8,39,389,898.8137740413658,899.8386694162618,"[35, 0, 219]",219,a,0.5016242191195488,colour,0.5
012,79,0,1,8,40,390,900.3465549931861,901.3746862036642,"[12, 0, 242]",242,a,0.504812793340534,colour,0.5
012,79,0,1,8,41,391,901.893645143602,902.9586942601018,"[94, 0, 160]",160,l,0.5415900964289904,colour,0.5
012,79,0,1,8,42,392,903.471775842132,904.4466863013804,"[81, 0, 173]",173,l,0.45167632517404854,colour,0.5
012,79,0,1,8,43,393,904.9563221279532,906.2386503540911,"[84, 0, 170]",170,l,0.7590511627495289,colour,0.5
012,79,0,1,8,44,394,906.753392389277,907.8548107848037,"[93, 0, 161]",161,l,0.5781744152773172,colour,0.5
012,79,0,1,8,45,395,908.3642591410317,909.8946978929453,"[43, 0, 211]",211,a,1.0071065502706915,colour,0.5
012,79,0,1,8,46,396,910.4101244315971,913.1906756265089,"[39, 0, 215]",215,a,2.2572056024800986,colour,0.5
012,79,0,1,8,47,397,913.7095967573114,914.7906545163132,"[18, 0, 236]",236,a,0.55783662176691,colour,0.5
012,79,0,1,8,48,398,915.303391877329,916.8546422189102,"[42, 0, 212]",212,a,1.0283108039293438,colour,0.5
012,79,0,1,8,49,399,917.3660456247162,919.1906575094908,"[46, 0, 208]",208,a,1.301288741407916,colour,0.5
012,79,0,1,8,50,400,919.7099831199739,920.6866359519772,"[90, 0, 164]",164,l,0.45336395339109004,colour,0.5
012,79,0,1,9,1,401,927.1696415138431,928.6225923234597,"[63, 0, 191]",191,l,0.928984516300261,colour,0.5
012,79,0,1,9,2,402,929.1393224911299,931.5986244548112,"[60, 0, 194]",194,l,1.9360304141882807,colour,0.5
012,79,0,1,9,3,403,932.1098974978086,933.1586402244866,"[37, 0, 217]",217,a,0.5255452201236039,colour,0.5
012,79,0,1,9,4,404,933.6724082792643,935.5426219720393,"[21, 0, 233]",233,a,1.3473856134805828,colour,0.5
012,79,0,1,9,5,405,936.0480471954215,937.0546425341163,"[62, 0, 192]",192,l,0.48324738326482475,colour,0.5
012,79,0,1,9,6,406,937.5637781769037,939.7425734503195,"[76, 0, 178]",178,l,1.6563204736448824,colour,0.5
012,79,0,1,9,7,407,940.2515661271755,941.4786027618684,"[51, 0, 203]",203,l,0.7038245559670031,colour,0.5
012,79,0,1,9,8,408,941.9867333106231,942.998600666644,"[25, 0, 229]",229,a,0.488661972573027,colour,0.5
012,79,0,1,9,9,409,943.5201231476385,944.5346442353912,"[66, 0, 188]",188,l,0.4937284025363624,colour,0.5
012,79,0,1,9,10,410,945.0499144175556,947.7826137642842,"[44, 0, 210]",210,a,2.2095042034052312,colour,0.5
012,79,0,1,9,11,411,948.301501418231,949.4465661784634,"[89, 0, 165]",165,l,0.6221074995119125,colour,0.5
012,79,0,1,9,12,412,949.9579557995312,951.2466017033439,"[41, 0, 213]",213,a,0.7656216893810779,colour,0.5
012,79,0,1,9,13,413,951.7434292768594,952.7985794777051,"[13, 0, 241]",241,a,0.5318672298453748,colour,0.5
012,79,0,1,9,14,414,953.3059900768567,954.3505915168207,"[15, 0, 239]",239,a,0.5216201548464596,colour,0.5
012,79,0,1,9,15,415,954.8686253135093,955.8626124726143,"[17, 0, 237]",237,a,0.47057146206498146,colour,0.5
012,79,0,1,9,16,416,956.3687391348649,957.3905475479551,"[3, 0, 251]",251,a,0.49876844487152994,colour,0.5
012,79,0,1,9,17,417,957.9000541933347,958.8785454968456,"[19, 0, 235]",235,a,0.45509766205213964,colour,0.5
012,79,0,1,9,18,418,959.3847024852876,960.5985834950116,"[90, 0, 164]",164,l,0.6907323400955647,colour,0.5
012,79,0,1,9,19,419,961.1192320326809,962.950554652838,"[98, 0, 156]",156,l,1.3080754892434925,colour,0.5
012,79,0,1,9,20,420,963.4630966663826,964.5585628731642,"[55, 0, 199]",199,l,0.5722584603354335,colour,0.5
012,79,0,1,9,21,421,965.0725668414962,966.0945603621658,"[72, 0, 182]",182,l,0.497846846235916,colour,0.5
012,79,0,1,9,22,422,966.6046888895798,967.6225856279489,"[87, 0, 167]",167,l,0.49481265945360065,colour,0.5
012,79,0,1,9,23,423,968.1360669631977,969.8226339921821,"[22, 0, 232]",232,a,1.163287996314466,colour,0.5
012,79,0,1,9,24,424,970.3393484060653,971.4625314979348,"[97, 0, 157]",157,l,0.5999099668115377,colour,0.5
012,79,0,1,9,25,425,971.9816684562247,973.0865755360574,"[9, 0, 245]",245,a,0.5816823979839683,colour,0.5
012,79,0,1,9,26,426,973.6093937694095,976.6945668212138,"[54, 0, 200]",200,l,2.5617912255693227,colour,0.5
012,79,0,1,9,27,427,977.2034870304633,978.230562340701,"[0, 0, 254]",254,a,0.5038900130894035,colour,0.5
012,79,0,1,9,28,428,978.7504405165091,979.9025590512902,"[79, 0, 175]",175,l,0.6292010527104139,colour,0.5
012,79,0,1,9,29,429,980.4238078098278,981.3745684437454,"[23, 0, 231]",231,a,0.42748041986487806,colour,0.5
012,79,0,1,9,30,430,981.8926412311848,982.5665614837781,"[96, 0, 158]",158,l,0.15057032788172364,colour,0.5
012,79,0,1,9,31,431,983.0802625848446,984.2625745057594,"[29, 0, 225]",225,a,0.6590226483531296,colour,0.5
012,79,0,1,9,32,432,984.7691540906671,985.9265970243141,"[85, 0, 169]",169,l,0.634195408783853,colour,0.5
012,79,0,1,9,33,433,986.4410578536335,987.5745754542295,"[18, 0, 236]",236,a,0.6102692880667746,colour,0.5
012,79,0,1,9,34,434,988.0929975826293,989.2065342138521,"[68, 0, 186]",186,l,0.5902272725943476,colour,0.5
012,79,0,1,9,35,435,989.7181164256763,990.7585580681916,"[14, 0, 240]",240,a,0.527335642138496,colour,0.5
012,79,0,1,9,36,436,991.2706298301928,992.2625642658677,"[95, 0, 159]",159,l,0.4687778891529888,colour,0.5
012,79,0,1,9,37,437,992.7811199079733,993.8706020247191,"[24, 0, 230]",230,a,0.5662605857942253,colour,0.5
012,79,0,1,9,38,438,994.3936506574973,995.8064949868713,"[58, 0, 196]",196,l,0.88810531119816,colour,0.5
012,79,0,1,9,39,439,996.3135306448676,997.6945857256651,"[83, 0, 171]",171,l,0.8578343375120312,colour,0.5
012,79,0,1,9,40,440,998.2043188323732,999.1745417411439,"[16, 0, 238]",238,a,0.4470537593588233,colour,0.5
012,79,0,1,9,41,441,999.6888021028135,1000.702529591741,"[1, 0, 253]",253,a,0.5005943130236119,colour,0.5
012,79,0,1,9,42,442,1001.2057039872743,1002.29451932339,"[7, 0, 247]",247,a,0.5655272451695055,colour,0.5
012,79,0,1,9,43,443,1002.8151276886929,1004.5025021012407,"[47, 0, 207]",207,a,1.1639854970853776,colour,0.5
012,79,0,1,9,44,444,1005.0183910147753,1005.9984892082866,"[34, 0, 220]",220,a,0.4524462930858135,colour,0.5
012,79,0,1,9,45,445,1006.5072282485198,1007.534530807985,"[40, 0, 214]",214,a,0.5074113868176937,colour,0.5
012,79,0,1,9,46,446,1008.0515595106408,1009.166502564447,"[93, 0, 161]",161,l,0.5916411783546209,colour,0.5
012,79,0,1,9,47,447,1009.6768075348809,1011.1665380105842,"[57, 0, 197]",197,l,0.9779123505577445,colour,0.5
012,79,0,1,9,48,448,1011.6811130549759,1012.790507218102,"[67, 0, 187]",187,l,0.586094650439918,colour,0.5
012,79,0,1,9,49,449,1013.306940032402,1014.3265563007444,"[92, 0, 162]",162,l,0.49727537599392235,colour,0.5
012,79,0,1,9,50,450,1014.8375252948608,1017.0624796678312,"[49, 0, 205]",205,l,1.701790343504399,colour,0.5
012,79,0,1,10,1,451,1023.3386871393304,1026.30247067241,"[45, 0, 209]",209,a,2.439539578743279,colour,0.5
012,79,0,1,10,2,452,1026.8097308224533,1028.0305175210815,"[37, 0, 217]",217,a,0.6975612291134894,colour,0.5
012,79,0,1,10,3,453,1028.5440803824458,1029.8944651302882,"[4, 0, 250]",250,a,0.8270127677824348,colour,0.5
012,79,0,1,10,4,454,1030.3912229931448,1031.134489217773,"[31, 0, 223]",223,a,0.22033456386998296,colour,0.5
012,79,0,1,10,5,455,1031.6412988083903,1032.6784526279662,"[28, 0, 226]",226,a,0.5138294948264956,colour,0.5
012,79,0,1,10,6,456,1033.1883231867105,1034.2866526511498,"[85, 0, 169]",169,l,0.5729130317922682,colour,0.5
012,79,0,1,10,7,457,1034.7999122512992,1036.142431508284,"[5, 0, 249]",249,a,0.8310516544152051,colour,0.5
012,79,0,1,10,8,458,1036.663426630199,1038.48647573567,"[41, 0, 213]",213,a,1.3028247395996004,colour,0.5
012,79,0,1,10,9,459,1039.0040050160605,1040.0864668346476,"[65, 0, 189]",189,l,0.559297788888216,colour,0.5
012,79,0,1,10,10,460,1040.6024333357345,1041.2465406572446,"[64, 0, 190]",190,l,0.11752431816421449,colour,0.5
012,79,0,1,10,11,461,1041.7619711344596,1042.8944903363008,"[34, 0, 220]",220,a,0.6093185446225107,colour,0.5
012,79,0,1,10,12,462,1043.4027567617595,1044.3504568217322,"[98, 0, 156]",156,l,0.4244367810897529,colour,0.5
012,79,0,1,10,13,463,1044.8574385228567,1045.9024751621764,"[60, 0, 194]",194,l,0.5215697425883263,colour,0.5
012,79,0,1,10,14,464,1046.4201757654082,1047.4704824530054,"[84, 0, 170]",170,l,0.5270583748351783,colour,0.5
012,79,0,1,10,15,465,1047.9828102146275,1049.0624410710298,"[63, 0, 191]",191,l,0.556481005391106,colour,0.5
012,79,0,1,10,16,466,1049.5767018266488,1051.3985028353054,"[44, 0, 210]",210,l,1.2986062590498477,colour,0.5
012,79,0,1,10,17,467,1051.904903614195,1052.9265332212672,"[86, 0, 168]",168,l,0.4985498604364693,colour,0.5
012,79,0,1,10,18,468,1053.4407687708735,1054.5265097480733,"[67, 0, 187]",187,l,0.5624595815315843,colour,0.5
012,79,0,1,10,19,469,1055.0346064262558,1056.1344447131269,"[83, 0, 171]",171,l,0.5764513406902552,colour,0.5
012,79,0,1,10,20,470,1056.6440557276364,1057.7664653067477,"[42, 0, 212]",212,a,0.5990096358582377,colour,0.5
012,79,0,1,10,21,471,1058.2857763445936,1062.9184668695088,"[70, 0, 184]",184,a,4.109381953952834,colour,0.5
012,79,0,1,10,22,472,1063.4265351905487,1064.406448670663,"[76, 0, 178]",178,l,0.4565462260507047,colour,0.5
012,79,0,1,10,23,473,1064.9267234487925,1065.8944249579217,"[80, 0, 174]",174,l,0.44438269827514887,colour,0.5
012,79,0,1,10,24,474,1066.411171667045,1067.422413596185,"[93, 0, 161]",161,l,0.4879337518941611,colour,0.5
012,79,0,1,10,25,475,1067.942568645347,1068.9344144659117,"[50, 0, 204]",204,a,0.4685943571384996,colour,0.5
012,79,0,1,10,26,476,1069.4426415069029,1070.4384293281473,"[29, 0, 225]",225,a,0.47239181655459106,colour,0.5
012,79,0,1,10,27,477,1070.9584445620421,1072.0464544836432,"[25, 0, 229]",229,a,0.5647147414274514,colour,0.5
012,79,0,1,10,28,478,1072.5523605926428,1073.558448658092,"[92, 0, 162]",162,l,0.4828661405481398,colour,0.5
012,79,0,1,10,29,479,1074.0680880292784,1075.3503847478423,"[94, 0, 160]",160,l,0.759048406034708,colour,0.5
012,79,0,1,10,30,480,1075.8650799153838,1081.2864580913447,"[56, 0, 198]",198,l,4.896723834564909,colour,0.5
012,79,0,1,10,31,481,1081.8055340035353,1083.0703983276617,"[82, 0, 172]",172,l,0.7416987190954387,colour,0.5
012,79,0,1,10,32,482,1083.5867653696332,1084.7904217536561,"[12, 0, 242]",242,a,0.6802446255460382,colour,0.5
012,79,0,1,10,33,483,1085.3058612891473,1086.3584022629075,"[99, 0, 155]",155,l,0.5298121434170753,colour,0.5
012,79,0,1,10,34,484,1086.8684626552276,1087.9823962827213,"[38, 0, 216]",216,a,0.5906640472821891,colour,0.5
012,79,0,1,10,35,485,1088.4935992213432,1089.9264091600198,"[35, 0, 219]",219,a,0.9095005800481886,colour,0.5
012,79,0,1,10,36,486,1090.4468576242216,1091.4624275227543,"[39, 0, 215]",215,a,0.4922510876785964,colour,0.5
012,79,0,1,10,37,487,1091.9781982824206,1095.8943871487863,"[58, 0, 196]",196,l,3.392786954063922,colour,0.5
012,79,0,1,10,38,488,1096.4014235944487,1097.5183898331597,"[0, 0, 254]",254,a,0.5939632919616997,colour,0.5
012,79,0,1,10,39,489,1098.0272052795626,1099.95038726856,"[52, 0, 202]",202,l,1.399918710347265,colour,0.5
012,79,0,1,10,40,490,1100.464909143746,1101.4064018030185,"[17, 0, 237]",237,a,0.43066269252449274,colour,0.5
012,79,0,1,10,41,491,1101.921289167134,1102.9903956810012,"[10, 0, 244]",244,a,0.5460070751141757,colour,0.5
012,79,0,1,10,42,492,1103.4994950899854,1104.4624086180702,"[22, 0, 232]",232,a,0.4395836894400418,colour,0.5
012,79,0,1,10,43,493,1104.9683844374958,1106.0143938756082,"[33, 0, 221]",221,a,0.5226973225362599,colour,0.5
012,79,0,1,10,44,494,1106.5309944681358,1107.6064194473438,"[68, 0, 186]",186,l,0.5520490605849773,colour,0.5
012,79,0,1,10,45,495,1108.1248616618104,1109.134384848643,"[8, 0, 246]",246,a,0.48606968065723777,colour,0.5
012,79,0,1,10,46,496,1109.640731670661,1110.846455744002,"[23, 0, 231]",231,a,0.6824958468787372,colour,0.5
012,79,0,1,10,47,497,1111.3606479705777,1112.8463702795561,"[54, 0, 200]",200,l,0.962425947189331,colour,0.5
012,79,0,1,10,48,498,1113.3608496196102,1114.3983642016537,"[16, 0, 238]",238,a,0.5144946998916566,colour,0.5
012,79,0,1,10,49,499,1114.9077881395351,1115.886422802927,"[66, 0, 188]",188,l,0.4553095509763807,colour,0.5
012,79,0,1,10,50,500,1116.3923525423743,1117.4543528999202,"[30, 0, 224]",224,a,0.5387020267080516,colour,0.5
012,79,0,1,11,1,501,1124.268431777833,1126.2783495979384,"[46, 0, 208]",208,l,1.4858503087889403,colour,0.5
012,79,0,1,11,2,502,1126.7995948116295,1127.9023168361746,"[77, 0, 177]",177,l,0.5795103395357728,colour,0.5
012,79,0,1,11,3,503,1128.4089929133188,1131.166342663113,"[44, 0, 210]",210,l,2.233982889680192,colour,0.5
012,79,0,1,11,4,504,1131.6749525219202,1138.8943316165823,"[61, 0, 193]",193,l,6.694924432784319,colour,0.5
012,79,0,1,11,5,505,1139.413815158885,1140.0384125502314,"[80, 0, 174]",174,l,0.10128566971980035,colour,0.5
012,79,0,1,11,6,506,1140.5544806635007,1141.6223879174795,"[34, 0, 220]",220,a,0.5447416489478201,colour,0.5
012,79,0,1,11,7,507,1142.1327527523972,1143.2142969109118,"[96, 0, 158]",158,l,0.5581674522254616,colour,0.5
012,79,0,1,11,8,508,1143.7265100632794,1146.6223359298892,"[54, 0, 200]",200,l,2.3723999296780676,colour,0.5
012,79,0,1,11,9,509,1147.134527420858,1148.1583361756057,"[71, 0, 183]",183,l,0.5005242084152997,colour,0.5
012,79,0,1,11,10,510,1148.6664592414163,1149.6544335596263,"[11, 0, 243]",243,a,0.4646815010346472,colour,0.5
012,79,0,1,11,11,511,1150.1665659735445,1150.782349494053,"[6, 0, 248]",248,a,0.09295583493076265,colour,0.5
012,79,0,1,11,12,512,1151.2928962856531,1152.77426581271,"[76, 0, 178]",178,l,0.9558093408122659,colour,0.5
012,79,0,1,11,13,513,1153.2923133941367,1154.2543049296364,"[39, 0, 215]",215,a,0.4388499550987035,colour,0.5
012,79,0,1,11,14,514,1154.7580598536879,1155.7983423827682,"[20, 0, 234]",234,a,0.515020877821371,colour,0.5
012,79,0,1,11,15,515,1156.3068789863028,1157.5342992267106,"[92, 0, 162]",162,l,0.7043298599310219,colour,0.5
012,79,0,1,11,16,516,1158.0437637304422,1159.0702982908115,"[19, 0, 235]",235,a,0.5031818787101656,colour,0.5
012,79,0,1,11,17,517,1159.59081489034,1161.2783271486405,"[18, 0, 236]",236,a,1.164322628872469,colour,0.5
012,79,0,1,11,18,518,1161.7916466135066,1164.1343088364229,"[43, 0, 211]",211,a,1.8193957936018705,colour,0.5
012,79,0,1,11,19,519,1164.654769509798,1167.7823829709087,"[45, 0, 209]",209,l,2.6045754621736705,colour,0.5
012,79,0,1,11,20,520,1168.2957701769192,1170.854304299457,"[25, 0, 229]",229,l,2.0357540922705084,colour,0.5
012,79,0,1,11,21,521,1171.3740379337687,1172.3982925219461,"[29, 0, 225]",225,a,0.5010259679984301,colour,0.5
012,79,0,1,11,22,522,1172.9066022704355,1173.8304215015378,"[79, 0, 175]",175,l,0.4005921862553805,colour,0.5
012,79,0,1,11,23,523,1174.3441001535393,1175.3022922603413,"[88, 0, 166]",166,l,0.43477956065908074,colour,0.5
012,79,0,1,11,24,524,1175.8131033224054,1178.3903234498575,"[15, 0, 239]",239,a,2.054000959498808,colour,0.5
012,79,0,1,11,25,525,1178.908250514185,1180.006277899025,"[70, 0, 184]",184,l,0.5870851720683277,colour,0.5
012,79,0,1,11,26,526,1180.5209699159022,1181.5822774989065,"[98, 0, 156]",156,l,0.541803166968748,colour,0.5
012,79,0,1,11,27,527,1182.0954788101371,1183.0622709295712,"[16, 0, 238]",238,a,0.44349418254569173,colour,0.5
012,79,0,1,11,28,528,1183.5802783386316,1187.918277035933,"[49, 0, 205]",205,l,3.8146527109201998,colour,0.5
012,79,0,1,11,29,529,1188.425571450498,1190.3182587614283,"[9, 0, 245]",245,a,1.369446087628603,colour,0.5
012,79,0,1,11,30,530,1190.835389469983,1191.918284518877,"[27, 0, 227]",227,a,0.5596238931175321,colour,0.5
012,79,0,1,11,31,531,1192.4292582392227,1193.4382875435986,"[8, 0, 246]",246,a,0.48578689945861697,colour,0.5
012,79,0,1,11,32,532,1193.9449746483006,1194.982247409178,"[7, 0, 247]",247,a,0.513977974653244,colour,0.5
012,79,0,1,11,33,533,1195.4919088359457,1197.2222545614932,"[55, 0, 199]",199,a,1.205680750310421,colour,0.5
012,79,0,1,11,34,534,1197.7435852396302,1198.7422654631082,"[67, 0, 187]",187,l,0.47538622468709946,colour,0.5
012,79,0,1,11,35,535,1199.25934300269,1200.3902368037961,"[30, 0, 224]",224,a,0.6075738086365163,colour,0.5
012,79,0,1,11,36,536,1200.8876941364724,1202.0382420150563,"[83, 0, 171]",171,l,0.6273432828020304,colour,0.5
012,79,0,1,11,37,537,1202.5596770625561,1203.6382532003336,"[73, 0, 181]",181,l,0.5553175853565335,colour,0.5
012,79,0,1,11,38,538,1204.1536155422218,1207.4062348124571,"[53, 0, 201]",201,l,2.7294816283974797,colour,0.5
012,79,0,1,11,39,539,1207.9204546082765,1209.7422481337562,"[17, 0, 237]",237,a,1.298675969708711,colour,0.5
012,79,0,1,11,40,540,1210.2485870788805,1211.2142205047421,"[68, 0, 186]",186,l,0.44218858424574137,colour,0.5
012,79,0,1,11,41,541,1211.7332227679435,1214.9502403640654,"[40, 0, 214]",214,l,2.709138714708388,colour,0.5
012,79,0,1,11,42,542,1215.4692382947542,1216.4622424151748,"[1, 0, 253]",253,a,0.4695856664329767,colour,0.5
012,79,0,1,11,43,543,1216.969436399173,1219.8782193926163,"[86, 0, 168]",168,l,2.385785954305902,colour,0.5
012,79,0,1,11,44,544,1220.3929535506759,1221.4702130625956,"[75, 0, 179]",179,l,0.5542242696974427,colour,0.5
012,79,0,1,11,45,545,1221.974383099936,1225.60621149675,"[13, 0, 241]",241,a,3.108671062393114,colour,0.5
012,79,0,1,11,46,546,1226.1124062943272,1227.2062025959603,"[99, 0, 155]",155,l,0.5705046660732478,colour,0.5
012,79,0,1,11,47,547,1227.7219446050003,1229.1501875100657,"[82, 0, 172]",172,l,0.9051556754857302,colour,0.5
012,79,0,1,11,48,548,1229.6639433556702,1230.7662254546303,"[57, 0, 197]",197,l,0.5820112591609359,colour,0.5
012,79,0,1,11,49,549,1231.2860433720052,1232.2782113582361,"[59, 0, 195]",195,l,0.4689968675374985,colour,0.5
012,79,0,1,11,50,550,1232.7858145476785,1233.8061885749921,"[84, 0, 170]",170,l,0.49249527184292674,colour,0.5
012,79,0,1,12,1,551,1239.525816579815,1240.5342098237015,"[28, 0, 226]",226,a,0.48422766476869583,colour,0.5
012,79,0,1,12,2,552,1241.0426546612289,1249.4141956137028,"[54, 0, 200]",200,l,7.848191421478987,colour,0.5
012,79,0,1,12,3,553,1249.9356389318127,1250.6381893972866,"[5, 0, 249]",249,a,0.1792379559483379,colour,0.5
012,79,0,1,12,4,554,1251.1420254535042,1251.8861573508475,"[25, 0, 229]",229,a,0.22112501203082502,colour,0.5
012,79,0,1,12,5,555,1252.393549832981,1253.7101698026527,"[88, 0, 166]",166,l,0.7933653555810452,colour,0.5
012,79,0,1,12,6,556,1254.2217823404353,1255.3183375305962,"[15, 0, 239]",239,a,0.5735959601588547,colour,0.5
012,79,0,1,12,7,557,1255.831330891,1259.1101668882184,"[44, 0, 210]",210,l,2.7555278199724853,colour,0.5
012,79,0,1,12,8,558,1259.6293152680155,1262.7502648611553,"[77, 0, 177]",177,l,2.597895446466282,colour,0.5
012,79,0,1,12,9,559,1263.2715297674295,1264.2862603808753,"[64, 0, 190]",190,l,0.49182573426514864,colour,0.5
012,79,0,1,12,10,560,1264.8027735396754,1265.7981458536815,"[59, 0, 195]",195,l,0.47211376135237515,colour,0.5
012,79,0,1,12,11,561,1266.3042473099194,1268.7181652623694,"[80, 0, 174]",174,l,1.8910296147223562,colour,0.5
012,79,0,1,12,12,562,1269.2305981807876,1270.1581290129106,"[20, 0, 234]",234,a,0.4041994181461632,colour,0.5
012,79,0,1,12,13,563,1270.6793844667263,1271.702137715416,"[79, 0, 175]",175,l,0.49949115165509284,colour,0.5
012,79,0,1,12,14,564,1272.2005040436052,1273.5581646952778,"[7, 0, 247]",247,a,0.8344186404719949,colour,0.5
012,79,0,1,12,15,565,1274.075593151385,1275.1901191226207,"[60, 0, 194]",194,l,0.5912323666270822,colour,0.5
012,79,0,1,12,16,566,1275.7108031064272,1276.7581201118883,"[76, 0, 178]",178,l,0.5238579853903502,colour,0.5
012,79,0,1,12,17,567,1277.2807236993685,1278.4941541496664,"[51, 0, 203]",203,l,0.690195134608075,colour,0.5
012,79,0,1,12,18,568,1279.0152839666698,1280.0061979484744,"[96, 0, 158]",158,l,0.46850928640924394,colour,0.5
012,79,0,1,12,19,569,1280.5080856503919,1282.246146811638,"[39, 0, 215]",215,a,1.222100961720571,colour,0.5
012,79,0,1,12,20,570,1282.7676566895097,1283.750173883047,"[85, 0, 169]",169,l,0.4592464317101985,colour,0.5
012,79,0,1,12,21,571,1284.2677216741722,1285.3021130606066,"[61, 0, 193]",193,l,0.5110922679305077,colour,0.5
012,79,0,1,12,22,572,1285.820841207169,1286.71811997029,"[24, 0, 230]",230,a,0.379086640663445,colour,0.5
012,79,0,1,12,23,573,1287.237792952219,1288.2061210698448,"[17, 0, 237]",237,a,0.4451042234431952,colour,0.5
012,79,0,1,12,24,574,1288.7222549552098,1290.1741022092756,"[6, 0, 248]",248,a,0.9390630254056305,colour,0.5
012,79,0,1,12,25,575,1290.6811083289795,1291.6380881790537,"[10, 0, 244]",244,a,0.43359999312087893,colour,0.5
012,79,0,1,12,26,576,1292.1500662055332,1293.1501114978455,"[9, 0, 245]",245,a,0.4767036382108927,colour,0.5
012,79,0,1,12,27,577,1293.6668731730897,1294.862092596246,"[38, 0, 216]",216,a,0.6719396028202027,colour,0.5
012,79,0,1,12,28,578,1295.370047883829,1296.3021390542854,"[27, 0, 227]",227,a,0.4164877950679511,colour,0.5
012,79,0,1,12,29,579,1296.8155951835215,1298.5181019320153,"[50, 0, 204]",204,l,1.1791540668345988,colour,0.5
012,79,0,1,12,30,580,1299.0345445924904,1303.286112294998,"[46, 0, 208]",208,l,3.728257162263617,colour,0.5
012,79,0,1,12,31,581,1303.8016026366968,1304.766092334874,"[74, 0, 180]",180,l,0.4412405979819596,colour,0.5
012,79,0,1,12,32,582,1305.2860969349276,1306.182116179727,"[55, 0, 199]",199,l,0.37276620604097843,colour,0.5
012,79,0,1,12,33,583,1306.6924971623812,1307.766113996273,"[57, 0, 197]",197,l,0.5502326444257051,colour,0.5
012,79,0,1,12,34,584,1308.2863363930956,1309.3100986741483,"[42, 0, 212]",212,a,0.5004285040777177,colour,0.5
012,79,0,1,12,35,585,1309.8177491251845,1311.8940945214126,"[66, 0, 188]",188,l,1.5517265009693801,colour,0.5
012,79,0,1,12,36,586,1312.4129679969046,1317.9821201970335,"[29, 0, 225]",225,l,5.045778644504026,colour,0.5
012,79,0,1,12,37,587,1318.4929682805669,1319.5660758721642,"[22, 0, 232]",232,a,0.5480578292626888,colour,0.5
012,79,0,1,12,38,588,1320.0730248840991,1321.1420585366432,"[97, 0, 157]",157,l,0.5457877030130476,colour,0.5
012,79,0,1,12,39,589,1321.6389416423626,1323.5261009363458,"[49, 0, 205]",205,l,1.3640574919991195,colour,0.5
012,79,0,1,12,40,590,1324.0453048483469,1324.9500454105437,"[23, 0, 231]",231,a,0.3813197452109307,colour,0.5
012,79,0,1,12,41,591,1325.4685478834435,1326.4621175662614,"[75, 0, 179]",179,l,0.47050687158480287,colour,0.5
012,79,0,1,12,42,592,1326.968940153718,1327.9981020581909,"[1, 0, 253]",253,a,0.5058107981458306,colour,0.5
012,79,0,1,12,43,593,1328.5160145503469,1329.6060866476037,"[40, 0, 214]",214,a,0.566887587774545,colour,0.5
012,79,0,1,12,44,594,1330.1254729102366,1331.0780598062556,"[95, 0, 159]",159,l,0.4293500049971044,colour,0.5
012,79,0,1,12,45,595,1331.5943094824906,1333.6060882231686,"[43, 0, 211]",211,a,1.4884016406722367,colour,0.5
012,79,0,1,12,46,596,1334.1257651436608,1335.2701087724417,"[63, 0, 191]",191,l,0.6209992179647088,colour,0.5
012,79,0,1,12,47,597,1335.7835133078042,1337.3740887397435,"[32, 0, 222]",222,a,1.0673869838938117,colour,0.5
012,79,0,1,12,48,598,1337.8926955817733,1340.0060585271567,"[52, 0, 202]",202,l,1.5900575250852853,colour,0.5
012,79,0,1,12,49,599,1340.517884135479,1341.5100796907209,"[71, 0, 183]",183,l,0.46892991359345615,colour,0.5
012,79,0,1,12,50,600,1342.0179569968022,1343.0941889656242,"[90, 0, 164]",164,l,0.5529379700310528,colour,0.5
012,79,0,1,13,1,601,1349.7376358078327,1350.902004910633,"[16, 0, 238]",238,a,0.6409983041230589,colour,0.5
012,79,0,1,13,2,602,1351.409963742597,1352.030004340224,"[39, 0, 215]",215,a,0.09675132506527007,colour,0.5
012,79,0,1,13,3,603,1352.5506749332417,1353.3980593653396,"[60, 0, 194]",194,l,0.3227671121712774,colour,0.5
012,79,0,1,13,4,604,1353.9115812666714,1355.5100714201108,"[33, 0, 221]",221,a,1.075141410343349,colour,0.5
012,79,0,1,13,5,605,1356.0210924018174,1357.1420293920673,"[90, 0, 164]",164,l,0.5977768991142511,colour,0.5
012,79,0,1,13,6,606,1357.6618701524567,1358.7340852897614,"[77, 0, 177]",177,l,0.5489475263748318,colour,0.5
012,79,0,1,13,7,607,1359.2416620915756,1360.6860148576088,"[44, 0, 210]",210,a,0.9213994438759983,colour,0.5
012,79,0,1,13,8,608,1361.1948779590894,1362.238002478145,"[46, 0, 208]",208,a,0.5197773510590196,colour,0.5
012,79,0,1,13,9,609,1362.7575187096372,1363.8620268241502,"[97, 0, 157]",157,l,0.5812483802437782,colour,0.5
012,79,0,1,13,10,610,1364.3683960954659,1365.477996633621,"[5, 0, 249]",249,a,0.5862254074309021,colour,0.5
012,79,0,1,13,11,611,1365.9904516071547,1366.9820512740407,"[25, 0, 229]",229,a,0.4683033050969243,colour,0.5
012,79,0,1,13,12,612,1367.4836873088498,1368.470012989128,"[9, 0, 245]",245,a,0.46312384167686105,colour,0.5
012,79,0,1,13,13,613,1368.9837960100267,1371.2379879059736,"[92, 0, 162]",162,l,1.7309888754971325,colour,0.5
012,79,0,1,13,14,614,1371.7505878147203,1372.7020321646705,"[20, 0, 234]",234,a,0.4281298713758588,colour,0.5
012,79,0,1,13,15,615,1373.2193897285033,1374.558014640119,"[72, 0, 182]",182,l,0.8152564761694521,colour,0.5
012,79,0,1,13,16,616,1375.0790381189436,1376.0460299181286,"[13, 0, 241]",241,a,0.44983391533605754,colour,0.5
012,79,0,1,13,17,617,1376.5646761448588,1377.7899967941921,"[96, 0, 158]",158,l,0.7019250385928899,colour,0.5
012,79,0,1,13,18,618,1378.2992706766818,1381.4140309863724,"[53, 0, 201]",201,a,2.591730187414214,colour,0.5
012,79,0,1,13,19,619,1381.9258849516045,1382.8540026135743,"[75, 0, 179]",179,l,0.4059299756772816,colour,0.5
012,79,0,1,13,20,620,1383.3630279796198,1392.934025740251,"[51, 0, 203]",203,l,9.048486333107576,colour,0.5
012,79,0,1,13,21,621,1393.453148520086,1394.54193786229,"[73, 0, 181]",181,l,0.5655004635918885,colour,0.5
012,79,0,1,13,22,622,1395.062636418268,1396.5499786143191,"[94, 0, 160]",160,l,0.9732405538670719,colour,0.5
012,79,0,1,13,23,623,1397.0637840845156,1398.1019674164709,"[93, 0, 161]",161,l,0.5148369518574327,colour,0.5
012,79,0,1,13,24,624,1398.6107226044405,1399.6620950382203,"[40, 0, 214]",214,a,0.5279811553191394,colour,0.5
012,79,0,1,13,25,625,1400.1733598103747,1402.7820226021577,"[69, 0, 185]",185,a,2.094807696994394,colour,0.5
012,79,0,1,13,26,626,1403.2997488053516,1403.8699848684482,"[43, 0, 211]",211,a,0.0473504823166877,colour,0.5
012,79,0,1,13,27,627,1404.3778676884249,1405.5819478502963,"[2, 0, 252]",252,a,0.6807629263494164,colour,0.5
012,79,0,1,13,28,628,1406.0982912615873,1407.0380029508378,"[15, 0, 239]",239,a,0.4171561512630433,colour,0.5
012,79,0,1,13,29,629,1407.5508222316857,1409.1499425380025,"[49, 0, 205]",205,a,1.076132719637826,colour,0.5
012,79,0,1,13,30,630,1409.6656743071508,1410.685983349802,"[6, 0, 248]",248,a,0.5080198780633509,colour,0.5
012,79,0,1,13,31,631,1411.1965171445627,1412.3259958585259,"[19, 0, 235]",235,a,0.6062044075224549,colour,0.5
012,79,0,1,13,32,632,1412.8372913505882,1413.8059837752953,"[61, 0, 193]",193,l,0.44330789358355105,colour,0.5
012,79,0,1,13,33,633,1414.3242152824532,1415.9020060920157,"[22, 0, 232]",232,a,1.0544999616686255,colour,0.5
012,79,0,1,13,34,634,1416.4155823441688,1418.1579431176651,"[8, 0, 246]",246,a,1.219058504095301,colour,0.5
012,79,0,1,13,35,635,1418.6691523576155,1419.7419468420558,"[38, 0, 216]",216,a,0.549467796459794,colour,0.5
012,79,0,1,13,36,636,1420.2630049791187,1421.4139376448002,"[62, 0, 192]",192,l,0.6310068347956985,colour,0.5
012,79,0,1,13,37,637,1421.9315968942828,1423.0459432720672,"[81, 0, 173]",173,l,0.5860836228821427,colour,0.5
012,79,0,1,13,38,638,1423.561690401286,1424.6619512846228,"[84, 0, 170]",170,l,0.5769145032390952,colour,0.5
012,79,0,1,13,39,639,1425.1711818440817,1431.6379649052396,"[52, 0, 202]",202,l,5.94779103808105,colour,0.5
012,79,0,1,13,40,640,1432.1571837833617,1433.253894542344,"[17, 0, 237]",237,a,0.5734841078519821,colour,0.5
012,79,0,1,13,41,641,1433.766675620107,1435.0139401655179,"[28, 0, 226]",226,a,0.7240595556795597,colour,0.5
012,79,0,1,13,42,642,1435.53243161086,1436.5259174043313,"[95, 0, 159]",159,l,0.4702331486623734,colour,0.5
012,79,0,1,13,43,643,1437.0342748081312,1438.1659271558747,"[34, 0, 220]",220,a,0.6083378689363599,colour,0.5
012,79,0,1,13,44,644,1438.6750994264148,1439.8539392044768,"[63, 0, 191]",191,l,0.6555256932042539,colour,0.5
012,79,0,1,13,45,645,1440.3598453132436,1441.5099761094898,"[47, 0, 207]",207,l,0.6248080988880247,colour,0.5
012,79,0,1,13,46,646,1442.020515417913,1443.9979153752793,"[70, 0, 184]",184,l,1.4541906353551894,colour,0.5
012,79,0,1,13,47,647,1444.519457548624,1445.629932030337,"[98, 0, 156]",156,l,0.5869898616801947,colour,0.5
012,79,0,1,13,48,648,1446.137040155707,1447.2619061497971,"[55, 0, 199]",199,l,0.6016535214148462,colour,0.5
012,79,0,1,13,49,649,1447.7777489833534,1450.1979129335377,"[37, 0, 217]",217,l,1.8968159947544336,colour,0.5
012,79,0,1,13,50,650,1450.7081387408543,1451.7579054660164,"[66, 0, 188]",188,l,0.5344193493947387,colour,0.5
012,79,0,1,14,1,651,1457.3416752461344,1458.6378636870068,"[60, 0, 194]",194,l,0.7720315265469253,colour,0.5
012,79,0,1,14,2,652,1459.1560786527116,1460.2299018616322,"[30, 0, 224]",224,a,0.5517107471823692,colour,0.5
012,79,0,1,14,3,653,1460.748957687756,1461.7019305524882,"[84, 0, 170]",170,l,0.42972612753510475,colour,0.5
012,79,0,1,14,4,654,1462.2178273429163,1463.2218748943415,"[32, 0, 222]",222,a,0.48128642584197223,colour,0.5
012,79,0,1,14,5,655,1463.7241911003366,1464.73387024994,"[8, 0, 246]",246,a,0.4925795546732843,colour,0.5
012,79,0,1,14,6,656,1465.2400083339307,1466.1898946305737,"[57, 0, 197]",197,l,0.42671045172028244,colour,0.5
012,79,0,1,14,7,657,1466.7034452827647,1467.6779103025328,"[9, 0, 245]",245,a,0.4513923623599112,colour,0.5
012,79,0,1,14,8,658,1468.1908170171082,1469.1979058443103,"[54, 0, 200]",200,l,0.4836963671259582,colour,0.5
012,79,0,1,14,9,659,1469.7064345709514,1470.70204082923,"[58, 0, 196]",196,l,0.4832914937287569,colour,0.5
012,79,0,1,14,10,660,1471.2113603979815,1472.3018775410019,"[62, 0, 192]",192,l,0.57798379403539,colour,0.5
012,79,0,1,14,11,661,1472.8182414320763,1473.901893058326,"[21, 0, 233]",233,a,0.5717720610555261,colour,0.5
012,79,0,1,14,12,662,1474.4169029085897,1475.3659806402866,"[28, 0, 226]",226,a,0.43388592498376966,colour,0.5
012,79,0,1,14,13,663,1475.886590187205,1476.9658835178707,"[91, 0, 163]",163,l,0.5559512828476727,colour,0.5
012,79,0,1,14,14,664,1477.4804735286161,1478.6778815519065,"[95, 0, 159]",159,l,0.6814907530788332,colour,0.5
012,79,0,1,14,15,665,1479.184791179141,1480.197894422803,"[59, 0, 195]",195,l,0.48975765123032033,colour,0.5
012,79,0,1,14,16,666,1480.712089012377,1481.805848292308,"[78, 0, 176]",176,l,0.5819580899551511,colour,0.5
012,79,0,1,14,17,667,1482.326004129136,1486.4298639737535,"[46, 0, 208]",208,a,3.5804914091713727,colour,0.5
012,79,0,1,14,18,668,1486.9469879870303,1487.9498733000364,"[15, 0, 239]",239,a,0.47514440352097154,colour,0.5
012,79,0,1,14,19,669,1488.4672218053602,1489.5818348166067,"[77, 0, 177]",177,l,0.5913477633148432,colour,0.5
012,79,0,1,14,20,670,1490.0923646728043,1491.0618317918852,"[14, 0, 240]",240,a,0.450543231330812,colour,0.5
012,79,0,1,14,21,671,1491.5770425030496,1493.597838339163,"[47, 0, 207]",207,a,1.4975132588297129,colour,0.5
012,79,0,1,14,22,672,1494.1084965888876,1495.101858715061,"[23, 0, 231]",231,a,0.47004016442224383,colour,0.5
012,79,0,1,14,23,673,1495.5972637182567,1496.7018509956542,"[48, 0, 206]",206,a,0.584738246165216,colour,0.5
012,79,0,1,14,24,674,1497.221176999854,1498.253824831685,"[38, 0, 216]",216,a,0.5095704481936991,colour,0.5
012,79,0,1,14,25,675,1498.7681773535442,1499.741838140646,"[3, 0, 251]",251,a,0.45037151454016566,colour,0.5
012,79,0,1,14,26,676,1500.2527043409646,1501.237826823024,"[35, 0, 219]",219,a,0.46179855102673173,colour,0.5
012,79,0,1,14,27,677,1501.7528740884736,1502.7978595278692,"[92, 0, 162]",162,l,0.5206339652650058,colour,0.5
012,79,0,1,14,28,678,1503.3166010652203,1504.6538089204114,"[13, 0, 241]",241,a,0.813914644299075,colour,0.5
012,79,0,1,14,29,679,1505.1603719636332,1506.2938430905342,"[87, 0, 167]",167,l,0.6103011895902455,colour,0.5
012,79,0,1,14,30,680,1506.7920680283569,1507.8298441239167,"[76, 0, 178]",178,l,0.5145415677689016,colour,0.5
012,79,0,1,14,31,681,1508.3389431389514,1509.3497880718205,"[37, 0, 217]",217,a,0.48762930929660797,colour,0.5
012,79,0,1,14,32,682,1509.870272375876,1510.7818402515259,"[16, 0, 238]",238,a,0.3883179877884686,colour,0.5
012,79,0,1,14,33,683,1511.292251166422,1512.5018502867315,"[67, 0, 187]",187,l,0.6866194102913141,colour,0.5
012,79,0,1,14,34,684,1513.0111044771038,1514.1978345580865,"[79, 0, 175]",175,l,0.6633431348018348,colour,0.5
012,79,0,1,14,35,685,1514.7157998257317,1515.6937992160674,"[82, 0, 172]",172,l,0.4547014532145113,colour,0.5
012,79,0,1,14,36,686,1516.2003961300943,1517.2298297879752,"[96, 0, 158]",158,l,0.5062499360647053,colour,0.5
012,79,0,1,14,37,687,1517.741931088036,1518.701814761851,"[72, 0, 182]",182,l,0.4464058829471469,colour,0.5
012,79,0,1,14,38,688,1519.2166076030117,1519.9738132054918,"[5, 0, 249]",249,a,0.23387773311696947,colour,0.5
012,79,0,1,14,39,689,1520.4753145449795,1521.597820222145,"[99, 0, 155]",155,l,0.5969833000563085,colour,0.5
012,79,0,1,14,40,690,1522.118801953271,1523.1978065951262,"[29, 0, 225]",225,a,0.5556425079703331,colour,0.5
012,79,0,1,14,41,691,1523.7170475285966,1525.0938746768516,"[65, 0, 189]",189,l,0.8535099127329886,colour,0.5
012,79,0,1,14,42,692,1525.6007082920987,1526.6377967332955,"[12, 0, 242]",242,a,0.5262056994251907,colour,0.5
012,79,0,1,14,43,693,1527.1397691119928,1528.2857920983806,"[18, 0, 236]",236,a,0.6227415907196701,colour,0.5
012,79,0,1,14,44,694,1528.7919479054399,1530.1657633162104,"[90, 0, 164]",164,l,0.8504666676744819,colour,0.5
012,79,0,1,14,45,695,1530.679433697369,1531.701804915676,"[27, 0, 227]",227,a,0.49906107201240957,colour,0.5
012,79,0,1,14,46,696,1532.1995568450075,1533.2457734458148,"[73, 0, 181]",181,l,0.522884399164468,colour,0.5
012,79,0,1,14,47,697,1533.762225164799,1534.88578083436,"[88, 0, 166]",166,l,0.6003652522340417,colour,0.5
012,79,0,1,14,48,698,1535.403047813801,1536.4938004764263,"[22, 0, 232]",232,a,0.5683133089914918,colour,0.5
012,79,0,1,14,49,699,1537.012493570568,1538.1018122413661,"[33, 0, 221]",221,a,0.566318480996415,colour,0.5
012,79,0,1,14,50,700,1538.6220653580967,1542.725774753606,"[55, 0, 199]",199,l,3.5806477658916265,colour,0.5
012,79,0,1,15,1,701,1553.6720790243708,1556.557728708256,"[90, 0, 164]",164,l,2.3615868985652924,colour,0.5
012,79,0,1,15,2,702,1557.064157450106,1561.4377463997807,"[9, 0, 245]",245,a,3.8502681695390493,colour,0.5
012,79,0,1,15,3,703,1561.958711589221,1562.5577613974456,"[16, 0, 238]",238,a,0.07898022350855172,colour,0.5
012,79,0,1,15,4,704,1563.0650613259058,1564.3657837174833,"[96, 0, 158]",158,l,0.7774425714742392,colour,0.5
012,79,0,1,15,5,705,1564.8776999101974,1566.8217628058046,"[62, 0, 192]",192,l,1.4207751983776689,colour,0.5
012,79,0,1,15,6,706,1567.3323285020888,1567.9817870035768,"[87, 0, 167]",167,l,0.1261735614389181,colour,0.5
012,79,0,1,15,7,707,1568.4884185760748,1569.1177401454188,"[89, 0, 165]",165,l,0.11874681478366256,colour,0.5
012,79,0,1,15,8,708,1569.632766930852,1572.1497318306938,"[46, 0, 208]",208,a,1.9937110734172165,colour,0.5
012,79,0,1,15,9,709,1572.6641709983815,1573.1977849337272,"[85, 0, 169]",169,l,0.010276613757014275,colour,0.5
012,79,0,1,15,10,710,1573.7111307859886,1575.4617473513354,"[64, 0, 190]",190,l,1.2272867267020047,colour,0.5
012,79,0,1,15,11,711,1575.9769694842398,1576.9417348741554,"[37, 0, 217]",217,a,0.44191958755254745,colour,0.5
012,79,0,1,15,12,712,1577.4629028942436,1580.9498221001122,"[72, 0, 182]",182,l,2.963707520859316,colour,0.5
012,79,0,1,15,13,713,1581.4521753275767,1582.4297647245694,"[33, 0, 221]",221,a,0.45431902911514044,colour,0.5
012,79,0,1,15,14,714,1582.9365684075747,1583.517703754129,"[32, 0, 222]",222,a,0.058597137685865164,colour,0.5
012,79,0,1,15,15,715,1584.0305033426266,1584.7097448431887,"[67, 0, 187]",187,l,0.1559975203126669,colour,0.5
012,79,0,1,15,16,716,1585.2186796248425,1586.1977077398915,"[21, 0, 233]",233,a,0.4608899492304772,colour,0.5
012,79,0,1,15,17,717,1586.704267632449,1587.7977602789178,"[92, 0, 162]",162,l,0.5702502415515482,colour,0.5
012,79,0,1,15,18,718,1588.31389731518,1589.285701513989,"[8, 0, 246]",246,a,0.44865710474550724,colour,0.5
012,79,0,1,15,19,719,1589.7983006350696,1590.9177240766585,"[26, 0, 228]",228,a,0.5949309708084911,colour,0.5
012,79,0,1,15,20,720,1591.424771156162,1592.4297446385026,"[94, 0, 160]",160,l,0.4816141054034233,colour,0.5
012,79,0,1,15,21,721,1592.9405218297616,1595.717717459891,"[47, 0, 207]",207,a,2.2539402283728123,colour,0.5
012,79,0,1,15,22,722,1596.2376913400367,1597.1737304190174,"[19, 0, 235]",235,a,0.412836846197024,colour,0.5
012,79,0,1,15,23,723,1597.690923355287,1598.8537131370977,"[80, 0, 174]",174,l,0.6395044475793839,colour,0.5
012,79,0,1,15,24,724,1599.3636601017788,1601.4217393326107,"[7, 0, 247]",247,a,1.5347860197070986,colour,0.5
012,79,0,1,15,25,725,1601.9426934944931,1602.5577220127452,"[3, 0, 251]",251,a,0.09190702391788363,colour,0.5
012,79,0,1,15,26,726,1603.0676457406953,1604.2136860562023,"[55, 0, 199]",199,l,0.6227120521944016,colour,0.5
012,79,0,1,15,27,727,1604.7254435294308,1608.3576988547575,"[53, 0, 201]",201,l,3.1089585698209703,colour,0.5
012,79,0,1,15,28,728,1608.8663323442452,1609.8936943742447,"[93, 0, 161]",161,l,0.5040499144233763,colour,0.5
012,79,0,1,15,29,729,1610.4133157627657,1611.3816836585756,"[5, 0, 249]",249,a,0.4451223402284086,colour,0.5
012,79,0,1,15,30,730,1611.8975824182853,1614.1976545706857,"[56, 0, 198]",198,l,1.7768494398333132,colour,0.5
012,79,0,1,15,31,731,1614.7115581084508,1615.6456460761838,"[11, 0, 243]",243,a,0.41066478774882853,colour,0.5
012,79,0,1,15,32,732,1616.164862985257,1617.093700203346,"[12, 0, 242]",242,a,0.40569091169163585,colour,0.5
012,79,0,1,15,33,733,1617.6024219142273,1618.6216604846995,"[27, 0, 227]",227,a,0.49601113167591393,colour,0.5
012,79,0,1,15,34,734,1619.1338823016267,1620.5096342514735,"[39, 0, 215]",215,a,0.8526095817796886,colour,0.5
012,79,0,1,15,35,735,1621.0246216522064,1622.5096216483507,"[43, 0, 211]",211,a,0.9609297276474535,colour,0.5
012,79,0,1,15,36,736,1623.0259193736129,1626.733612674987,"[57, 0, 197]",197,a,3.184348496608436,colour,0.5
012,79,0,1,15,37,737,1627.246297654463,1628.2616599963512,"[34, 0, 220]",220,a,0.49203486647456884,colour,0.5
012,79,0,1,15,38,738,1628.7775839620735,1629.7496736990288,"[88, 0, 166]",166,l,0.44871972617693245,colour,0.5
012,79,0,1,15,39,739,1630.2621420633513,1631.237656287849,"[66, 0, 188]",188,l,0.4524116348475218,colour,0.5
012,79,0,1,15,40,740,1631.7486890850123,1632.8456215790939,"[59, 0, 195]",195,l,0.5737735845614225,colour,0.5
012,79,0,1,15,41,741,1633.3579879372846,1636.2616729931906,"[48, 0, 206]",206,l,2.380901481024921,colour,0.5
012,79,0,1,15,42,742,1636.7802384814713,1637.773627782939,"[14, 0, 240]",240,a,0.47019455186091363,colour,0.5
012,79,0,1,15,43,743,1638.2802455706988,1640.8216789166909,"[51, 0, 203]",203,a,2.0181428918149322,colour,0.5
012,79,0,1,15,44,744,1641.343780744588,1642.5656843895558,"[77, 0, 177]",177,l,0.6993299899622798,colour,0.5
012,79,0,1,15,45,745,1643.0775312655605,1645.0536468923092,"[45, 0, 209]",209,l,1.452799966558814,colour,0.5
012,79,0,1,15,46,746,1645.5621074836235,1646.565613891231,"[31, 0, 223]",223,a,0.4803612825926393,colour,0.5
012,79,0,1,15,47,747,1647.077855794225,1648.1096501627471,"[74, 0, 180]",180,l,0.5084511390887201,colour,0.5
012,79,0,1,15,48,748,1648.6248364557978,1650.725629818393,"[38, 0, 216]",216,a,1.5774619486182928,colour,0.5
012,79,0,1,15,49,749,1651.2358780750073,1652.469637654256,"[52, 0, 202]",202,l,0.7105345036834478,colour,0.5
012,79,0,1,15,50,750,1652.9859420747962,1654.205593316583,"[65, 0, 189]",189,l,0.6963938707485795,colour,0.5
012,79,0,1,16,1,751,1659.206795333419,1661.5976351147983,"[55, 0, 199]",199,l,1.8667951128445566,colour,0.5
012,79,0,1,16,2,752,1662.1141136151273,1662.8295826104004,"[19, 0, 235]",235,a,0.19224628270603716,colour,0.5
012,79,0,1,16,3,753,1663.3485895995982,1664.5736121078953,"[98, 0, 156]",156,l,0.7017895558383316,colour,0.5
012,79,0,1,16,4,754,1665.0831049685366,1666.1175778810866,"[17, 0, 237]",237,a,0.5116531038656831,colour,0.5
012,79,0,1,16,5,755,1666.630013950169,1668.8536012850236,"[58, 0, 196]",196,a,1.700175970327109,colour,0.5
012,79,0,1,16,6,756,1669.3694831093308,1671.7416049840394,"[62, 0, 192]",192,l,1.8492504723835737,colour,0.5
012,79,0,1,16,7,757,1672.2559161519166,1673.5335662800353,"[50, 0, 204]",204,l,0.7542785417754203,colour,0.5
012,79,0,1,16,8,758,1674.042697590543,1675.0616352627985,"[89, 0, 165]",165,l,0.49559286748990417,colour,0.5
012,79,0,1,16,9,759,1675.5738665321842,1676.5655701742508,"[12, 0, 242]",242,a,0.47368520544841886,colour,0.5
012,79,0,1,16,10,760,1677.0761709227227,1679.0136014581658,"[51, 0, 203]",203,a,1.4141609552316368,colour,0.5
012,79,0,1,16,11,761,1679.5294064825866,1680.6055565315764,"[32, 0, 222]",222,a,0.5527142658829689,colour,0.5
012,79,0,1,16,12,762,1681.115852049552,1682.1096099906135,"[92, 0, 162]",162,l,0.470453308429569,colour,0.5
012,79,0,1,16,13,763,1682.6244457608555,1683.6856001380365,"[7, 0, 247]",247,a,0.5379056707024574,colour,0.5
012,79,0,1,16,14,764,1684.2035575287882,1685.1895732525736,"[33, 0, 221]",221,a,0.4628020697273314,colour,0.5
012,79,0,1,16,15,765,1685.7036599286366,1686.7095802158583,"[74, 0, 180]",180,l,0.4827180546708405,colour,0.5
012,79,0,1,16,16,766,1687.2194696790539,1688.461612656014,"[73, 0, 181]",181,l,0.7189037227071822,colour,0.5
012,79,0,1,16,17,767,1688.9695470698643,1691.8215962091926,"[75, 0, 179]",179,l,2.328746476210654,colour,0.5
012,79,0,1,16,18,768,1692.3306432366371,1693.3095524103846,"[21, 0, 233]",233,a,0.45575735345482826,colour,0.5
012,79,0,1,16,19,769,1693.8307153102942,1694.8695347029716,"[27, 0, 227]",227,a,0.5155478431843221,colour,0.5
012,79,0,1,16,20,770,1695.3776821871288,1696.4855344446842,"[63, 0, 191]",191,l,0.5845255695749074,colour,0.5
012,79,0,1,16,21,771,1697.002819146961,1697.9815676317085,"[25, 0, 229]",229,a,0.455452122958377,colour,0.5
012,79,0,1,16,22,772,1698.5029187898617,1699.5015824716538,"[85, 0, 169]",169,l,0.4756556150969118,colour,0.5
012,79,0,1,16,23,773,1700.0187486265786,1701.045614411123,"[26, 0, 228]",228,a,0.5037049057427794,colour,0.5
012,79,0,1,16,24,774,1701.5656587895937,1702.5015537210274,"[3, 0, 251]",251,a,0.4125721820164472,colour,0.5
012,79,0,1,16,25,775,1703.020363787422,1703.9895382791292,"[82, 0, 172]",172,l,0.445947446860373,colour,0.5
012,79,0,1,16,26,776,1704.4910368616693,1705.4455350905191,"[0, 0, 254]",254,a,0.43128930078819394,colour,0.5
012,79,0,1,16,27,777,1705.960041999817,1707.133558166679,"[60, 0, 194]",194,l,0.650228863582015,colour,0.5
012,79,0,1,16,28,778,1707.647932349937,1708.63761083805,"[69, 0, 185]",185,l,0.46655896306037903,colour,0.5
012,79,0,1,16,29,779,1709.147918959381,1710.1175971794873,"[10, 0, 244]",244,a,0.44651458435691893,colour,0.5
012,79,0,1,16,30,780,1710.632365996018,1711.637628955068,"[40, 0, 214]",214,a,0.48204260948114097,colour,0.5
012,79,0,1,16,31,781,1712.1481355743017,1713.1015097678173,"[28, 0, 226]",226,a,0.430130606982857,colour,0.5
012,79,0,1,16,32,782,1713.6170052296948,1714.3736157312524,"[79, 0, 175]",175,l,0.2339316897559911,colour,0.5
012,79,0,1,16,33,783,1714.8827285310254,1715.917595289182,"[97, 0, 157]",157,l,0.5106562809087336,colour,0.5
012,79,0,1,16,34,784,1716.4309612275101,1717.3495123798493,"[64, 0, 190]",190,l,0.3952276152558625,colour,0.5
012,79,0,1,16,35,785,1717.8686331904028,1718.813583420124,"[41, 0, 213]",213,a,0.42164677870459855,colour,0.5
012,79,0,1,16,36,786,1719.3219085286837,1720.3095524103846,"[23, 0, 231]",231,a,0.46459446125663817,colour,0.5
012,79,0,1,16,37,787,1720.8219668178353,1721.861501827836,"[77, 0, 177]",177,l,0.5164013064932078,colour,0.5
012,79,0,1,16,38,788,1722.3689888329245,1723.3735412943643,"[6, 0, 248]",248,a,0.48133447486907244,colour,0.5
012,79,0,1,16,39,789,1723.8847918880638,1724.461539794691,"[96, 0, 158]",158,l,0.05361144617199898,colour,0.5
012,79,0,1,16,40,790,1724.9785046942998,1726.5814764169045,"[56, 0, 198]",198,l,1.0798462897073478,colour,0.5
012,79,0,1,16,41,791,1727.0913879356813,1729.0375063114334,"[49, 0, 205]",205,l,1.422801140230149,colour,0.5
012,79,0,1,16,42,792,1729.5446506708395,1730.4775413479656,"[83, 0, 171]",171,l,0.4094887648243457,colour,0.5
012,79,0,1,16,43,793,1730.9832918876782,1731.645514925709,"[38, 0, 216]",216,a,0.13894676230847836,colour,0.5
012,79,0,1,16,44,794,1732.1552799337078,1733.2295379482675,"[36, 0, 218]",218,a,0.5511802372056991,colour,0.5
012,79,0,1,16,45,795,1733.7491766659077,1734.7095459513366,"[93, 0, 161]",161,l,0.4371193975675851,colour,0.5
012,79,0,1,16,46,796,1735.2180270226672,1736.2935181676876,"[34, 0, 220]",220,a,0.5520990788936615,colour,0.5
012,79,0,1,16,47,797,1736.8125893538818,1737.8534961282276,"[99, 0, 155]",155,l,0.5174406652804464,colour,0.5
012,79,0,1,16,48,798,1738.359734642785,1739.3575066579506,"[42, 0, 212]",212,a,0.4744665951002389,colour,0.5
012,79,0,1,16,49,799,1739.8755258824676,1740.9015358404722,"[18, 0, 236]",236,a,0.5028187530115247,colour,0.5
012,79,0,1,16,50,800,1741.4224388024304,1742.333491528174,"[9, 0, 245]",245,a,0.40017077163793147,colour,0.5
