id,age,condition,counterbalance,block,trialinblock,trial,tstart,tend,trialstim,trialintensity,response,RT,trialtype,colourfreq
140,26,0,2,Practice,1,NA,5.907682862016372e-06,0.6997844876805175,"[51, 0, 203]",203,a,0.17584064376387687,colour,0.5
140,26,0,2,Practice,2,NA,1.219633124936081,1.867773425345149,"[29, 0, 225]",225,a,0.12504046763569931,colour,0.5
140,26,0,2,Practice,3,NA,2.3757929096755106,2.9557750763469812,"[61, 0, 193]",193,a,0.05678072173031978,colour,0.5
140,26,0,2,Practice,4,NA,3.469514774329582,4.115776431175618,"[25, 0, 229]",229,a,0.12303224886636599,colour,0.5
140,26,0,2,Practice,5,NA,4.626222792159751,5.819777429967871,"[87, 0, 167]",167,l,0.6707249831233639,colour,0.5
140,26,0,2,Practice,6,NA,6.328813035974235,7.003793127078097,"[2, 0, 252]",252,a,0.15211695954349125,colour,0.5
140,26,0,2,Practice,7,NA,7.516392248171542,8.067819032667103,"[11, 0, 243]",243,a,0.028107973561418476,colour,0.5
140,26,0,2,Practice,8,NA,8.5788337128688,10.059757406856079,"[37, 0, 217]",217,a,0.9579699779369548,colour,0.5
140,26,0,2,Practice,9,NA,10.578838045170414,11.635811357404236,"[63, 0, 191]",191,a,0.5336923104805464,colour,0.5
140,26,0,2,Practice,10,NA,12.156959685175025,13.099898545369797,"[72, 0, 182]",182,a,0.4196661291989585,colour,0.5
140,26,0,2,1,1,1,4.030662062348711,6.375965020208241,"[9, 0, 245]",245,a,1.8219782392425259,colour,0.5
140,26,0,2,1,2,2,6.890880347340499,7.551946266856248,"[96, 0, 158]",158,l,0.13777034547456424,colour,0.5
140,26,0,2,1,3,3,8.062739211978624,8.67197347371075,"[42, 0, 212]",212,a,0.08656332682949142,colour,0.5
140,26,0,2,1,4,4,9.187830485698214,10.039960757223525,"[23, 0, 231]",231,a,0.32884336208735476,colour,0.5
140,26,0,2,1,5,5,10.547099996612815,11.415992731184815,"[78, 0, 176]",176,l,0.345591252846134,colour,0.5
140,26,0,2,1,6,6,11.92212451350315,12.75197887727154,"[40, 0, 214]",214,a,0.30660605120101536,colour,0.5
140,26,0,2,1,7,7,13.265845393541895,14.15993794568567,"[79, 0, 175]",175,l,0.37080249193968484,colour,0.5
140,26,0,2,1,8,8,14.672039639772265,15.519906926405383,"[44, 0, 210]",210,a,0.3246248817486048,colour,0.5
140,26,0,2,1,9,9,16.0314383320474,16.85596317701129,"[87, 0, 167]",167,l,0.30122927092088503,colour,0.5
140,26,0,2,1,10,10,17.375254128881352,18.175965886668564,"[1, 0, 253]",253,a,0.2775071620817471,colour,0.5
140,26,0,2,1,11,11,18.687755261185885,19.50398571758342,"[4, 0, 250]",250,a,0.2930120760938735,colour,0.5
140,26,0,2,1,12,12,20.01586961504836,20.831943714736553,"[89, 0, 165]",165,l,0.29285099323897157,colour,0.5
140,26,0,2,1,13,13,21.3439130766983,22.143915124695923,"[49, 0, 205]",205,a,0.27689394446679216,colour,0.5
140,26,0,2,1,14,14,22.656462258168176,23.47997964605929,"[47, 0, 207]",207,a,0.3002289030700922,colour,0.5
140,26,0,2,1,15,15,24.000120516757306,24.81598115212364,"[15, 0, 239]",239,a,0.29252882752916776,colour,0.5
140,26,0,2,1,16,16,25.32829355361355,26.119959071564153,"[28, 0, 226]",226,a,0.26831283629508107,colour,0.5
140,26,0,2,1,17,17,26.640824224341486,27.463933588178406,"[94, 0, 160]",160,l,0.29991343273468374,colour,0.5
140,26,0,2,1,18,18,27.98457897510343,28.799947303457884,"[29, 0, 225]",225,a,0.29213064961732016,colour,0.5
140,26,0,2,1,19,19,29.312675605911863,30.231938831049774,"[53, 0, 201]",201,a,0.3959987648995593,colour,0.5
140,26,0,2,1,20,20,30.750082510656284,31.543951594798273,"[30, 0, 224]",224,a,0.2709114296358166,colour,0.5
140,26,0,2,1,21,21,32.06267186437799,32.839921845277786,"[69, 0, 185]",185,l,0.25452548299290356,colour,0.5
140,26,0,2,1,22,22,33.35949872905985,34.23998942918479,"[68, 0, 186]",186,l,0.357249870623491,colour,0.5
140,26,0,2,1,23,23,34.7501195321438,35.58392456123693,"[8, 0, 246]",246,a,0.3105019719860138,colour,0.5
140,26,0,2,1,24,24,36.093853409089206,37.02399149923622,"[24, 0, 230]",230,a,0.40701265740972303,colour,0.5
140,26,0,2,1,25,25,37.53139382749396,38.39187362597113,"[27, 0, 227]",227,a,0.3372433012773399,colour,0.5
140,26,0,2,1,26,26,38.90642110130284,39.7999087065873,"[60, 0, 194]",194,l,0.36985726247439743,colour,0.5
140,26,0,2,1,27,27,40.31264291672596,41.16790268547629,"[84, 0, 170]",170,l,0.3320299669248925,colour,0.5
140,26,0,2,1,28,28,41.687554006079154,42.55188049463868,"[85, 0, 169]",169,l,0.3410175237659132,colour,0.5
140,26,0,2,1,29,29,43.06255371069528,43.93596976210938,"[61, 0, 193]",193,a,0.3506427166521462,colour,0.5
140,26,0,2,1,30,30,44.453141430747564,45.231928984911065,"[7, 0, 247]",247,a,0.2553643741448468,colour,0.5
140,26,0,2,1,31,31,45.75001595074718,46.807951033963036,"[88, 0, 166]",166,l,0.5345241124105087,colour,0.5
140,26,0,2,1,32,32,47.328206513733676,48.15190585829623,"[52, 0, 202]",202,a,0.3004841150250286,colour,0.5
140,26,0,2,1,33,33,48.67190770149318,49.487915241274095,"[45, 0, 209]",209,a,0.2925894797535875,colour,0.5
140,26,0,2,1,34,34,50.000064984526034,50.7919325452749,"[21, 0, 233]",233,a,0.26861255280527985,colour,0.5
140,26,0,2,1,35,35,51.3125389414854,52.567876927972975,"[10, 0, 244]",244,a,0.7320723447119235,colour,0.5
140,26,0,2,1,36,36,53.078225221401226,53.927849059457,"[51, 0, 203]",203,a,0.32634441168556805,colour,0.5
140,26,0,2,1,37,37,54.437520332279746,55.39185157061729,"[63, 0, 191]",191,a,0.4309813136005687,colour,0.5
140,26,0,2,1,38,38,55.90626592613262,56.75989399251557,"[91, 0, 163]",163,l,0.3303005908474006,colour,0.5
140,26,0,2,1,39,39,57.28122309542232,58.2479159659506,"[46, 0, 208]",208,l,0.4432842627975333,colour,0.5
140,26,0,2,1,40,40,58.76575402136041,59.719904484561994,"[31, 0, 223]",223,l,0.4308887598817819,colour,0.5
140,26,0,2,1,41,41,60.23442439070095,61.183877457300696,"[64, 0, 190]",190,l,0.4261968771188549,colour,0.5
140,26,0,2,1,42,42,61.703155412265914,62.56787535258991,"[16, 0, 238]",238,l,0.34150156002215226,colour,0.5
140,26,0,2,1,43,43,63.07814842150583,63.96789055503177,"[71, 0, 183]",183,l,0.36654620242370584,colour,0.5
140,26,0,2,1,44,44,64.48437417538662,65.359898088509,"[48, 0, 206]",206,a,0.3522216437067982,colour,0.5
140,26,0,2,1,45,45,65.8749989169246,66.79198020059266,"[82, 0, 172]",172,l,0.3936683804186032,colour,0.5
140,26,0,2,1,46,46,67.31246765542892,68.3279020710761,"[81, 0, 173]",173,l,0.49210851549287327,colour,0.5
140,26,0,2,1,47,47,68.84373781540125,69.6559022097099,"[55, 0, 199]",199,a,0.2895698654538137,colour,0.5
140,26,0,2,1,48,48,70.17190888303048,70.99187102659016,"[90, 0, 164]",164,l,0.2974365376867354,colour,0.5
140,26,0,2,1,49,49,71.49998030771894,72.36784195448308,"[22, 0, 232]",232,a,0.3445325958455214,colour,0.5
140,26,0,2,1,50,50,72.87499852307883,73.4558593593083,"[93, 0, 161]",161,l,0.05757865293890063,colour,0.5
140,26,0,2,2,1,51,77.905540462516,78.55986807747468,"[29, 0, 225]",225,a,0.13032469419886183,colour,0.5
140,26,0,2,2,2,52,79.07818426145604,80.11188799345837,"[30, 0, 224]",224,a,0.5105818438732967,colour,0.5
140,26,0,2,2,3,53,80.62495776005744,81.46385403136446,"[2, 0, 252]",252,a,0.3156747402390465,colour,0.5
140,26,0,2,2,4,54,81.98433203390596,82.72785228899193,"[72, 0, 182]",182,l,0.22033613935309404,colour,0.5
140,26,0,2,2,5,55,83.23434956003439,84.0718409840465,"[52, 0, 202]",202,a,0.3148405752344843,colour,0.5
140,26,0,2,2,6,56,84.57809604004069,85.43984677830304,"[68, 0, 186]",186,a,0.3389805542665272,colour,0.5
140,26,0,2,2,7,57,85.95306975084532,86.81585905998509,"[44, 0, 210]",210,a,0.33942323673363717,colour,0.5
140,26,0,2,2,8,58,87.32803834165861,88.10381849073565,"[17, 0, 237]",237,a,0.25251608268445125,colour,0.5
140,26,0,2,2,9,59,88.62491364934976,89.3838663508559,"[27, 0, 227]",227,a,0.23569375510669488,colour,0.5
140,26,0,2,2,10,60,89.89051092015688,90.6558277728891,"[11, 0, 243]",243,a,0.2419811064373789,colour,0.5
140,26,0,2,2,11,61,91.17178442781733,91.9598541353389,"[34, 0, 220]",220,a,0.2647721642515535,colour,0.5
140,26,0,2,2,12,62,92.46865934166271,93.19182959403224,"[73, 0, 181]",181,l,0.19992548441041436,colour,0.5
140,26,0,2,2,13,63,93.70305498163543,94.37580748196342,"[40, 0, 214]",214,a,0.14947701241180766,colour,0.5
140,26,0,2,2,14,64,94.89051840322463,95.8878768807117,"[70, 0, 184]",184,l,0.4740597526815691,colour,0.5
140,26,0,2,2,15,65,96.40614974167693,97.24784625527718,"[88, 0, 166]",166,l,0.31838361035261187,colour,0.5
140,26,0,2,2,16,66,97.76547163405849,98.59181131959485,"[83, 0, 171]",171,l,0.3029239885836432,colour,0.5
140,26,0,2,2,17,67,99.10924253248959,99.8879930651674,"[14, 0, 240]",240,a,0.25587401036500523,colour,0.5
140,26,0,2,2,18,68,100.40609460329142,101.2078228766004,"[84, 0, 170]",170,l,0.2783102132816566,colour,0.5
140,26,0,2,2,19,69,101.71863157554799,102.52778856477198,"[33, 0, 221]",221,a,0.2860039872939524,colour,0.5
140,26,0,2,2,20,70,103.04675104940179,103.76784770462837,"[81, 0, 173]",173,l,0.19787591185013298,colour,0.5
140,26,0,2,2,21,71,104.28117110780113,105.08781142357111,"[26, 0, 228]",228,a,0.28338491398062615,colour,0.5
140,26,0,2,2,22,72,105.60927167706541,106.35989296851767,"[75, 0, 179]",179,l,0.22736667735443916,colour,0.5
140,26,0,2,2,23,73,106.8749043939788,107.63186384284563,"[18, 0, 236]",236,a,0.2341640587510483,colour,0.5
140,26,0,2,2,24,74,108.14048748634377,108.97587144249155,"[7, 0, 247]",247,a,0.31215533585964295,colour,0.5
140,26,0,2,2,25,75,109.48418473564743,110.28782788631725,"[9, 0, 245]",245,a,0.28025817367415584,colour,0.5
140,26,0,2,2,26,76,110.79675833554575,111.55183717162072,"[4, 0, 250]",250,a,0.23183209888884448,colour,0.5
140,26,0,2,2,27,77,112.06232409870427,112.83980841774064,"[77, 0, 177]",177,l,0.2548259871928167,colour,0.5
140,26,0,2,2,28,78,113.35935694464024,114.15980088741344,"[95, 0, 159]",159,l,0.27798607834665745,colour,0.5
140,26,0,2,2,29,79,114.67166509259732,115.45581603629034,"[24, 0, 230]",230,a,0.26087230501252634,colour,0.5
140,26,0,2,2,30,80,115.96855733565098,116.75180243443901,"[79, 0, 175]",175,l,0.25997985085814435,colour,0.5
140,26,0,2,2,31,81,117.26541413259838,118.00785446301961,"[91, 0, 163]",163,l,0.21900021504006872,colour,0.5
140,26,0,2,2,32,82,118.51541236029334,119.30381644273984,"[22, 0, 232]",232,a,0.2650269823625422,colour,0.5
140,26,0,2,2,33,83,119.81228294183711,120.67980154907309,"[1, 0, 253]",253,a,0.3441422948435502,colour,0.5
140,26,0,2,2,34,84,121.18711880667979,122.02381111794602,"[51, 0, 203]",203,a,0.31359878002331243,colour,0.5
140,26,0,2,2,35,85,122.5310102218682,123.33580694633383,"[96, 0, 158]",158,l,0.2814987873498467,colour,0.5
140,26,0,2,2,36,86,123.84352828953706,124.6397797457812,"[78, 0, 176]",176,l,0.2737353026677738,colour,0.5
140,26,0,2,2,37,87,125.15601603109099,126.03180421462093,"[48, 0, 206]",206,a,0.35246267722141056,colour,0.5
140,26,0,2,2,38,88,126.54668252026568,127.35178014277699,"[31, 0, 223]",223,a,0.2818508853251842,colour,0.5
140,26,0,2,2,39,89,127.85913520956092,128.63978959192173,"[57, 0, 197]",197,a,0.25760929412717815,colour,0.5
140,26,0,2,2,40,90,129.1559833419069,129.97577652569817,"[61, 0, 193]",193,a,0.29643420060710923,colour,0.5
140,26,0,2,2,41,91,130.48413156648894,131.32779021892384,"[62, 0, 192]",192,a,0.32028037081363436,colour,0.5
140,26,0,2,2,42,92,131.8434656680838,132.68777613500424,"[50, 0, 204]",204,a,0.3218447255803767,colour,0.5
140,26,0,2,2,43,93,133.20283994193233,133.93576063009095,"[54, 0, 200]",200,a,0.20963023411059112,colour,0.5
140,26,0,2,2,44,94,134.4528558926795,135.1437394695531,"[82, 0, 172]",172,l,0.16757618746487424,colour,0.5
140,26,0,2,2,45,95,135.65604241874826,136.47183373728694,"[45, 0, 209]",209,a,0.2924933814229007,colour,0.5
140,26,0,2,2,46,96,136.98409690807603,137.80780412955028,"[28, 0, 226]",226,a,0.3003407552223507,colour,0.5
140,26,0,2,2,47,97,138.3278760772664,139.1117635382452,"[86, 0, 168]",168,l,0.26066317299228103,colour,0.5
140,26,0,2,2,48,98,139.62473681267147,140.39175744151544,"[23, 0, 231]",231,a,0.2438199715961673,colour,0.5
140,26,0,2,2,49,99,140.90599771727102,141.59975636710442,"[69, 0, 185]",185,l,0.1704800111529039,colour,0.5
140,26,0,2,2,50,100,142.1090995665345,142.7198040539315,"[35, 0, 219]",219,a,0.08745578098387341,colour,0.5
140,26,0,2,3,1,101,148.07702241690458,149.00772449396754,"[58, 0, 196]",196,a,0.4066944301557669,colour,0.5
140,26,0,2,3,2,102,149.51533240963363,150.09577222490407,"[39, 0, 215]",215,a,0.057104068975604605,colour,0.5
140,26,0,2,3,3,103,150.60910586806312,151.75174768989928,"[3, 0, 251]",251,a,0.6197731764368655,colour,0.5
140,26,0,2,3,4,104,152.26531291427636,153.37579330352128,"[69, 0, 185]",185,a,0.5871867844307417,colour,0.5
140,26,0,2,3,5,105,153.8902777635558,154.69574284402188,"[20, 0, 234]",234,a,0.28211239881056827,colour,0.5
140,26,0,2,3,6,106,155.20279346815005,155.8637365078339,"[46, 0, 208]",208,a,0.1376411641122104,colour,0.5
140,26,0,2,3,7,107,156.3746676927658,156.95173461422382,"[98, 0, 156]",156,l,0.053733538237793255,colour,0.5
140,26,0,2,3,8,108,157.46839192049447,158.34374017847585,"[54, 0, 200]",200,a,0.3520337793506769,colour,0.5
140,26,0,2,3,9,109,158.85905013890988,159.90378391109152,"[91, 0, 163]",163,l,0.521482702693902,colour,0.5
140,26,0,2,3,10,110,160.42132343153025,161.3117311641363,"[10, 0, 244]",244,a,0.36698415874161583,colour,0.5
140,26,0,2,3,11,111,161.82773389900103,162.5837063707677,"[37, 0, 217]",217,a,0.23282852828560863,colour,0.5
140,26,0,2,3,12,112,163.09335519439082,163.92772657347268,"[67, 0, 187]",187,a,0.31103051279569627,colour,0.5
140,26,0,2,3,13,113,164.43711742822052,165.18374276210307,"[92, 0, 162]",162,l,0.22335811672564887,colour,0.5
140,26,0,2,3,14,114,165.70273045285103,166.4557230887258,"[8, 0, 246]",246,a,0.22965610188839491,colour,0.5
140,26,0,2,3,15,115,166.96837301590494,167.86374753551172,"[64, 0, 190]",190,l,0.37212384396480047,colour,0.5
140,26,0,2,3,16,116,168.37460546516013,169.2237732299982,"[90, 0, 164]",164,l,0.32591984611644875,colour,0.5
140,26,0,2,3,17,117,169.73396162210884,170.5517450117477,"[93, 0, 161]",161,l,0.2944535510287096,colour,0.5
140,26,0,2,3,18,118,171.06216892353405,171.79970666378904,"[74, 0, 180]",180,a,0.2149644790642924,colour,0.5
140,26,0,2,3,19,119,172.3120836559592,172.91177267546482,"[85, 0, 169]",169,l,0.07640368545071397,colour,0.5
140,26,0,2,3,20,120,173.42145615750087,174.32776146819378,"[78, 0, 176]",176,l,0.383020764327739,colour,0.5
140,26,0,2,3,21,121,174.84334357594525,175.58377923220542,"[44, 0, 210]",210,a,0.21766507841857674,colour,0.5
140,26,0,2,3,22,122,176.09326697297365,176.7277487075953,"[89, 0, 165]",165,l,0.1112783204534935,colour,0.5
140,26,0,2,3,23,123,177.2338300776737,177.98371802859765,"[80, 0, 174]",174,l,0.22643286940910912,colour,0.5
140,26,0,2,3,24,124,178.49956007445326,179.0716901411779,"[30, 0, 224]",224,a,0.04890223412803607,colour,0.5
140,26,0,2,3,25,125,179.59331305291016,180.31172407491613,"[6, 0, 248]",248,a,0.19525644469285908,colour,0.5
140,26,0,2,3,26,126,180.82768033599677,181.4717305497379,"[50, 0, 204]",204,a,0.12096495325386059,colour,0.5
140,26,0,2,3,27,127,181.98382869921443,183.14376388798155,"[12, 0, 242]",242,a,0.6365419410140021,colour,0.5
140,26,0,2,3,28,128,183.65585022209052,184.50370963181012,"[65, 0, 189]",189,l,0.3246634786173672,colour,0.5
140,26,0,2,3,29,129,185.0152075605747,185.9517495803575,"[35, 0, 219]",219,a,0.4142436628262658,colour,0.5
140,26,0,2,3,30,130,186.46826037605933,187.1117635382452,"[16, 0, 238]",238,a,0.12010400674807897,colour,0.5
140,26,0,2,3,31,131,187.624520985275,188.36768993007718,"[0, 0, 254]",254,a,0.21997931522855652,colour,0.5
140,26,0,2,3,32,132,188.87454126832563,189.50368088108007,"[28, 0, 226]",226,a,0.10590350940037752,colour,0.5
140,26,0,2,3,33,133,190.0151693575517,190.61569963128204,"[81, 0, 173]",173,l,0.07713741982297506,colour,0.5
140,26,0,2,3,34,134,191.12446072689818,191.80776632037123,"[61, 0, 193]",193,l,0.1599446410600649,colour,0.5
140,26,0,2,3,35,135,192.32768781906452,192.9597281047445,"[14, 0, 240]",240,a,0.10893690829652769,colour,0.5
140,26,0,2,3,36,136,193.4682135084313,194.60769156847527,"[21, 0, 233]",233,l,0.6161391629848367,colour,0.5
140,26,0,2,3,37,137,195.12452610526816,195.75972070044736,"[70, 0, 184]",184,l,0.11189429498881509,colour,0.5
140,26,0,2,3,38,138,196.2807319699441,196.87170085377875,"[11, 0, 243]",243,a,0.0676646451884153,colour,0.5
140,26,0,2,3,39,139,197.39012810222266,198.39176846919327,"[60, 0, 194]",194,l,0.47835148830381513,colour,0.5
140,26,0,2,3,40,140,198.9057535329921,199.4557195441157,"[4, 0, 250]",250,a,0.026657440175767988,colour,0.5
140,26,0,2,3,41,141,199.96823123148533,200.77569468458023,"[42, 0, 212]",212,l,0.28424349741180777,colour,0.5
140,26,0,2,3,42,142,201.2963814252962,202.34370433852382,"[40, 0, 214]",214,a,0.5240903544836328,colour,0.5
140,26,0,2,3,43,143,202.85894892058786,203.69570345946158,"[75, 0, 179]",179,l,0.313541278565026,colour,0.5
140,26,0,2,3,44,144,204.20257055153343,204.74366715949873,"[33, 0, 221]",221,a,0.01779040009205346,colour,0.5
140,26,0,2,3,45,145,205.2651108714781,206.07965763788707,"[7, 0, 247]",247,l,0.2912062939667521,colour,0.5
140,26,0,2,3,46,146,206.5932181361186,207.6157224743274,"[1, 0, 253]",253,a,0.49935488088885904,colour,0.5
140,26,0,2,3,47,147,208.12448317609778,208.99967862198173,"[18, 0, 236]",236,a,0.3519388625591091,colour,0.5
140,26,0,2,3,48,148,209.51504293310973,210.09605303682474,"[72, 0, 182]",182,l,0.05764324361734907,colour,0.5
140,26,0,2,3,49,149,210.60878567158215,211.45565731651004,"[52, 0, 202]",202,l,0.32362727081635967,colour,0.5
140,26,0,2,3,50,150,211.96817373002523,212.5676827620864,"[71, 0, 183]",183,l,0.07630207328111283,colour,0.5
140,26,0,2,4,1,151,217.26425307573663,217.9596446094747,"[8, 0, 246]",246,a,0.17127636697841808,colour,0.5
140,26,0,2,4,2,152,218.46815561312724,219.11968337963663,"[78, 0, 176]",176,l,0.12833262309868587,colour,0.5
140,26,0,2,4,3,153,219.6400794622914,221.40767746880192,"[10, 0, 244]",244,a,1.2443307893536257,colour,0.5
140,26,0,2,4,4,154,221.92132697614034,222.98370148708273,"[80, 0, 174]",174,l,0.5391210783818678,colour,0.5
140,26,0,2,4,5,155,223.499468308426,224.05564211406818,"[46, 0, 208]",208,l,0.033004262197209755,colour,0.5
140,26,0,2,4,6,156,224.56191843772467,225.1756567178636,"[13, 0, 241]",241,l,0.09047421374634723,colour,0.5
140,26,0,2,4,7,157,225.68689195160732,226.22366689168302,"[2, 0, 252]",252,a,0.01348330449036439,colour,0.5
140,26,0,2,4,8,158,226.73368671787284,227.5516808149132,"[29, 0, 225]",225,a,0.2948529104796762,colour,0.5
140,26,0,2,4,9,159,228.0619058346656,228.7116758682132,"[0, 0, 254]",254,a,0.12710028018227604,colour,0.5
140,26,0,2,4,10,160,229.21812154548206,230.2796607098826,"[99, 0, 155]",155,l,0.5383227533275203,colour,0.5
140,26,0,2,4,11,161,230.79634243457986,231.58370322000337,"[52, 0, 202]",202,a,0.264219992706785,colour,0.5
140,26,0,2,4,12,162,232.09304957019594,232.83168101971387,"[28, 0, 226]",226,a,0.21543118611407408,colour,0.5
140,26,0,2,4,13,163,233.3430749732379,233.9996790158275,"[71, 0, 183]",183,l,0.13340456687728874,colour,0.5
140,26,0,2,4,14,164,234.5149417147877,235.1837207067474,"[37, 0, 217]",217,a,0.14545387949692667,colour,0.5
140,26,0,2,4,15,165,235.7024842993451,236.39960835992497,"[84, 0, 170]",170,l,0.17381076348647184,colour,0.5
140,26,0,2,4,16,166,236.9212371793401,237.4636429301172,"[81, 0, 173]",173,a,0.019125142867778777,colour,0.5
140,26,0,2,4,17,167,237.98359002877442,239.27960281457854,"[3, 0, 251]",251,a,0.7725836981007888,colour,0.5
140,26,0,2,4,18,168,239.79618135172495,240.59964569648764,"[6, 0, 248]",248,a,0.28009827235655393,colour,0.5
140,26,0,2,4,19,169,241.1086690932807,241.9276147213186,"[70, 0, 184]",184,l,0.29566186936426675,colour,0.5
140,26,0,2,4,20,170,242.43682873938633,243.31165515193425,"[15, 0, 239]",239,a,0.35154619848435686,colour,0.5
140,26,0,2,4,21,171,243.8274164594386,244.6316850369385,"[5, 0, 249]",249,a,0.28115180936583783,colour,0.5
140,26,0,2,4,22,172,245.1399081394502,246.1116319938119,"[18, 0, 236]",236,a,0.44843458185096097,colour,0.5
140,26,0,2,4,23,173,246.62428625329085,247.46365159472043,"[26, 0, 228]",228,a,0.31601226592829335,colour,0.5
140,26,0,2,4,24,174,247.98361247797402,248.81564914027513,"[60, 0, 194]",194,a,0.3086075745977723,colour,0.5
140,26,0,2,4,25,175,249.32743024403499,250.1276351225224,"[77, 0, 177]",177,l,0.2771148918545805,colour,0.5
140,26,0,2,4,26,176,250.63991325944335,251.44757954302804,"[48, 0, 206]",206,a,0.28436755877919495,colour,0.5
140,26,0,2,4,27,177,251.96805557634252,252.80763320055485,"[75, 0, 179]",179,l,0.31639587155223126,colour,0.5
140,26,0,2,4,28,178,253.3274243363503,254.11164144610666,"[39, 0, 215]",215,a,0.2612346429741592,colour,0.5
140,26,0,2,4,29,179,254.62420984724304,255.44761932143592,"[95, 0, 159]",159,l,0.30072160392955993,colour,0.5
140,26,0,2,4,30,180,255.96800122564673,256.8236016708506,"[85, 0, 169]",169,l,0.33230368962358625,colour,0.5
140,26,0,2,4,31,181,257.34299777949855,258.2636122889289,"[87, 0, 167]",167,l,0.39734492919888,colour,0.5
140,26,0,2,4,32,182,258.78054449943374,259.3515863707362,"[51, 0, 203]",203,l,0.04776126339311304,colour,0.5
140,26,0,2,4,33,183,259.8586184841206,260.75160826855245,"[12, 0, 242]",242,a,0.36968987808904785,colour,0.5
140,26,0,2,4,34,184,261.26486589950764,261.87960179058064,"[73, 0, 181]",181,l,0.09135564022471954,colour,0.5
140,26,0,2,4,35,185,262.38987249642196,263.2395916451169,"[44, 0, 210]",210,a,0.32638773470171145,colour,0.5
140,26,0,2,4,36,186,263.7492983640441,264.5756423818839,"[82, 0, 172]",172,l,0.30308349605729745,colour,0.5
140,26,0,2,4,37,187,265.0929964010393,266.7836129505886,"[56, 0, 198]",198,a,1.1674572460888157,colour,0.5
140,26,0,2,4,38,188,267.2961136102804,268.0876302545894,"[27, 0, 227]",227,a,0.26826518097550434,colour,0.5
140,26,0,2,4,39,189,268.6085824472466,269.4476720967468,"[96, 0, 158]",158,l,0.31582203849757207,colour,0.5
140,26,0,2,4,40,190,269.9679846841318,270.5435683830201,"[7, 0, 247]",247,a,0.05235114014431019,colour,0.5
140,26,0,2,4,41,191,271.0616864626609,272.3915585494833,"[57, 0, 197]",197,a,0.8072157242077083,colour,0.5
140,26,0,2,4,42,192,272.905412068847,273.8315805890834,"[20, 0, 234]",234,a,0.40318447807294433,colour,0.5
140,26,0,2,4,43,193,274.3429686349227,275.1915968312751,"[38, 0, 216]",216,a,0.3253712191799423,colour,0.5
140,26,0,2,4,44,194,275.7023117949666,276.7276230708467,"[69, 0, 185]",185,l,0.5019455973197182,colour,0.5
140,26,0,2,4,45,195,277.2492144749285,278.0635942507997,"[41, 0, 213]",213,a,0.2910523003338312,colour,0.5
140,26,0,2,4,46,196,278.5772890503831,279.4315953189089,"[93, 0, 161]",161,l,0.3311253035572008,colour,0.5
140,26,0,2,4,47,197,279.95232144418515,280.81575114628686,"[66, 0, 188]",188,a,0.340204626425475,colour,0.5
140,26,0,2,4,48,198,281.32728058270186,282.20757120925555,"[16, 0, 238]",238,a,0.3572246645017003,colour,0.5
140,26,0,2,4,49,199,282.71788838888097,283.55955378867657,"[65, 0, 189]",189,l,0.3184001518675359,colour,0.5
140,26,0,2,4,50,200,284.07727762886134,284.8635525819336,"[68, 0, 186]",186,l,0.2634137907407421,colour,0.5
140,26,0,2,5,1,201,294.21708415614194,295.1995485741609,"[36, 0, 218]",218,a,0.45838194044517877,colour,0.5
140,26,0,2,5,2,202,295.71790217347734,296.4155681656175,"[73, 0, 181]",181,l,0.1744570641330938,colour,0.5
140,26,0,2,5,3,203,296.9365912504836,297.69554631506253,"[24, 0, 230]",230,a,0.23565949053772783,colour,0.5
140,26,0,2,5,4,204,298.2021853705264,298.9675951708232,"[58, 0, 196]",196,a,0.24207956784084672,colour,0.5
140,26,0,2,5,5,205,299.48340925363846,300.31958759638474,"[66, 0, 188]",188,a,0.312883162549042,colour,0.5
140,26,0,2,5,6,206,300.82717030593085,301.61555075764045,"[92, 0, 162]",162,l,0.2652345389997208,colour,0.5
140,26,0,2,5,7,207,302.1240629428303,302.727580929366,"[15, 0, 239]",239,a,0.08013694799592486,colour,0.5
140,26,0,2,5,8,208,303.2333885767439,303.9035558744836,"[50, 0, 204]",204,a,0.1467354531159799,colour,0.5
140,26,0,2,5,9,209,304.42094179513333,305.28753486518326,"[57, 0, 197]",197,a,0.3432821360293019,colour,0.5
140,26,0,2,5,10,210,305.7959068413347,306.50360801964234,"[60, 0, 194]",194,a,0.18439812119868293,colour,0.5
140,26,0,2,5,11,211,307.01467311208216,307.92753870911656,"[68, 0, 186]",186,a,0.38954127226315904,colour,0.5
140,26,0,2,5,12,212,308.43655698591465,309.20752591701057,"[91, 0, 163]",163,l,0.24766587398698903,colour,0.5
140,26,0,2,5,13,213,309.71786121353216,310.50352767513687,"[94, 0, 160]",160,l,0.2632034771831968,colour,0.5
140,26,0,2,5,14,214,311.01490666252903,311.8955446609107,"[76, 0, 178]",178,l,0.3576204793407669,colour,0.5
140,26,0,2,5,15,215,312.40522774910096,313.0155340585861,"[5, 0, 249]",249,a,0.08703594156213512,colour,0.5
140,26,0,2,5,16,216,313.5303658904504,314.5195304100016,"[4, 0, 250]",250,a,0.4659244777412823,colour,0.5
140,26,0,2,5,17,217,315.03028633363647,315.70354728864913,"[98, 0, 156]",156,l,0.14993072255674633,colour,0.5
140,26,0,2,5,18,218,316.21778913978596,316.9115418819365,"[53, 0, 201]",201,l,0.17060958635920542,colour,0.5
140,26,0,2,5,19,219,317.42092879822667,317.9995529852313,"[39, 0, 215]",215,a,0.05542077283462277,colour,0.5
140,26,0,2,5,20,220,318.51462348753375,319.5835295340894,"[17, 0, 237]",237,a,0.5456360724783735,colour,0.5
140,26,0,2,5,21,221,320.0927088937424,320.6555067887166,"[33, 0, 221]",221,a,0.03951649937334878,colour,0.5
140,26,0,2,5,22,222,321.1709159982456,322.3194958303575,"[9, 0, 245]",245,a,0.6253429410662648,colour,0.5
140,26,0,2,5,23,223,322.8271777889986,323.3755404546391,"[20, 0, 234]",234,a,0.025276617463532602,colour,0.5
140,26,0,2,5,24,224,323.8896007429503,324.75957064526847,"[62, 0, 192]",192,a,0.3466723590481706,colour,0.5
140,26,0,2,5,25,225,325.28023217986447,326.2635268244303,"[27, 0, 227]",227,a,0.4599462952119211,colour,0.5
140,26,0,2,5,26,226,326.7802475398439,327.6635290299655,"[3, 0, 251]",251,a,0.36061567521210236,colour,0.5
140,26,0,2,5,27,227,328.17082068760647,329.05554247112923,"[87, 0, 167]",167,l,0.3613789480059495,colour,0.5
140,26,0,2,5,28,228,329.57707243529694,330.3835067698128,"[25, 0, 229]",229,a,0.28327660643844865,colour,0.5
140,26,0,2,5,29,229,330.8895912906555,331.7355350353246,"[54, 0, 200]",200,a,0.3226001214625285,colour,0.5
140,26,0,2,5,30,230,332.24901833981494,333.27149904728685,"[79, 0, 175]",175,l,0.49923475797731953,colour,0.5
140,26,0,2,5,31,231,333.7802317860187,334.671587898858,"[85, 0, 169]",169,l,0.3680365142154187,colour,0.5
140,26,0,2,5,32,232,335.18643981684545,336.03155609188616,"[13, 0, 241]",241,a,0.32165016584804107,colour,0.5
140,26,0,2,5,33,233,336.54581881684135,337.4635098103008,"[37, 0, 217]",217,a,0.3944198378467263,colour,0.5
140,26,0,2,5,34,234,337.98333954296504,338.95153060219855,"[89, 0, 165]",165,l,0.4449368389796291,colour,0.5
140,26,0,2,5,35,235,339.46771253681436,340.3434928434308,"[10, 0, 244]",244,a,0.352521360215178,colour,0.5
140,26,0,2,5,36,236,340.85835854601646,341.89550645788586,"[59, 0, 195]",195,l,0.5141225159168243,colour,0.5
140,26,0,2,5,37,237,342.40512338001463,343.31153778594125,"[34, 0, 220]",220,a,0.3830908688469208,colour,0.5
140,26,0,2,5,38,238,343.82706869376307,344.7115600776033,"[28, 0, 226]",226,a,0.3614403879219026,colour,0.5
140,26,0,2,5,39,239,345.21764302306474,346.0874715348091,"[31, 0, 223]",223,a,0.3465652330432931,colour,0.5
140,26,0,2,5,40,240,346.60829809071583,347.5755147759064,"[29, 0, 225]",225,a,0.4438699112197355,colour,0.5
140,26,0,2,5,41,241,348.09262146001674,348.9995281729589,"[19, 0, 235]",235,a,0.38363358809874626,colour,0.5
140,26,0,2,5,42,242,349.514548656869,350.15959333077626,"[38, 0, 216]",216,a,0.12179675518564181,colour,0.5
140,26,0,2,5,43,243,350.6708025707085,351.45547890444686,"[30, 0, 224]",224,a,0.26144731960448553,colour,0.5
140,26,0,2,5,44,244,351.96763928153086,352.7675353850591,"[83, 0, 171]",171,l,0.2767080493376852,colour,0.5
140,26,0,2,5,45,245,353.280334185878,354.0314938642787,"[8, 0, 246]",246,a,0.22805748255450453,colour,0.5
140,26,0,2,5,46,246,354.5457963676399,355.3354887190799,"[95, 0, 159]",159,l,0.2664412819522113,colour,0.5
140,26,0,2,5,47,247,355.84265158920607,356.64746918748824,"[86, 0, 168]",168,a,0.28188160528225126,colour,0.5
140,26,0,2,5,48,248,357.1550834046848,358.0874396333147,"[49, 0, 205]",205,a,0.40900866696756566,colour,0.5
140,26,0,2,5,49,249,358.60823271234403,359.55945690265617,"[75, 0, 179]",179,l,0.4279026224594418,colour,0.5
140,26,0,2,5,50,250,360.07695073700415,360.85546575000444,"[78, 0, 176]",176,l,0.25541911868458556,colour,0.5
140,26,0,2,6,1,251,365.8418087595983,366.8154951466404,"[23, 0, 231]",231,a,0.45031440695129277,colour,0.5
140,26,0,2,6,2,252,367.3270033153931,368.17545467506534,"[62, 0, 192]",192,l,0.32535467766501824,colour,0.5
140,26,0,2,6,3,253,368.6863539585029,369.2234802088642,"[55, 0, 199]",199,a,0.013848399372363929,colour,0.5
140,26,0,2,6,4,254,369.7330620787325,370.5514216645024,"[34, 0, 220]",220,a,0.29500139027550176,colour,0.5
140,26,0,2,6,5,255,371.0612918293573,372.0394471825475,"[31, 0, 223]",223,a,0.45555964279810723,colour,0.5
140,26,0,2,6,6,256,372.54572390004796,373.3595408705405,"[43, 0, 211]",211,a,0.2906159193971689,colour,0.5
140,26,0,2,6,7,257,373.8738091093346,374.71144861929497,"[59, 0, 195]",195,a,0.31436205281715957,colour,0.5
140,26,0,2,6,8,258,375.21754141089696,376.3834697483253,"[78, 0, 176]",176,l,0.6426059818859358,colour,0.5
140,26,0,2,6,9,259,376.90505445703275,377.7995046209908,"[35, 0, 219]",219,a,0.3711687683589844,colour,0.5
140,26,0,2,6,10,260,378.31124594634457,379.1355057332112,"[86, 0, 168]",168,l,0.3009815420318773,colour,0.5
140,26,0,2,6,11,261,379.65501172478434,380.50354815510946,"[38, 0, 216]",216,a,0.3252940254405985,colour,0.5
140,26,0,2,6,12,262,381.01443995547925,381.97543309232606,"[68, 0, 186]",186,a,0.43783186415748787,colour,0.5
140,26,0,2,6,13,263,382.4831634939783,383.3275188592979,"[89, 0, 165]",165,l,0.3210775143306819,colour,0.5
140,26,0,2,6,14,264,383.8425078355576,384.72742536035,"[95, 0, 159]",159,l,0.36256284791488724,colour,0.5
140,26,0,2,6,15,265,385.24872886329103,386.1114055325852,"[94, 0, 160]",160,l,0.339314535343874,colour,0.5
140,26,0,2,6,16,266,386.62371596484627,387.6074410826659,"[46, 0, 208]",208,a,0.46038700845201674,colour,0.5
140,26,0,2,6,17,267,388.1237774047622,388.97545554152566,"[61, 0, 193]",193,a,0.3284294303484785,colour,0.5
140,26,0,2,6,18,268,389.4831788539559,390.33540010381694,"[52, 0, 202]",202,a,0.328993417264428,colour,0.5
140,26,0,2,6,19,269,390.8427106660474,391.68744806160976,"[5, 0, 249]",249,a,0.32260996760123817,colour,0.5
140,26,0,2,6,20,270,392.20184351253556,392.99137753803916,"[70, 0, 184]",184,l,0.2662388453063613,colour,0.5
140,26,0,2,6,21,271,393.49868691873235,394.5434344755122,"[39, 0, 215]",215,a,0.5213531274894194,colour,0.5
140,26,0,2,6,22,272,395.06126622939337,395.9274134662119,"[19, 0, 235]",235,a,0.3435345910656906,colour,0.5
140,26,0,2,6,23,273,396.4362143402341,397.06359385695396,"[90, 0, 164]",164,l,0.10407094577385578,colour,0.5
140,26,0,2,6,24,274,397.5768270694807,398.4714107471009,"[18, 0, 236]",236,a,0.3713995618854824,colour,0.5
140,26,0,2,6,25,275,398.9830154080282,399.87142910030707,"[33, 0, 221]",221,a,0.36506573677070264,colour,0.5
140,26,0,2,6,26,276,400.38931047873484,401.1193998107974,"[15, 0, 239]",239,a,0.2067957272483909,colour,0.5
140,26,0,2,6,27,277,401.6391846450624,402.4474302755425,"[27, 0, 227]",227,a,0.2847519520964852,colour,0.5
140,26,0,2,6,28,278,402.9674541740933,403.8154266175043,"[85, 0, 169]",169,l,0.32464969402099086,colour,0.5
140,26,0,2,6,29,279,404.3267977279829,405.22344594429705,"[56, 0, 198]",198,l,0.37332310385136225,colour,0.5
140,26,0,2,6,30,280,405.73308846638975,406.4313968207207,"[42, 0, 212]",212,a,0.1750982447883871,colour,0.5
140,26,0,2,6,31,281,406.95180196182446,407.6155885668195,"[77, 0, 177]",177,l,0.14052923397866834,colour,0.5
140,26,0,2,6,32,282,408.1236368018799,409.03941725028017,"[60, 0, 194]",194,l,0.39246518207801273,colour,0.5
140,26,0,2,6,33,283,409.54555494028136,410.5274128360579,"[98, 0, 156]",156,l,0.4589482904339093,colour,0.5
140,26,0,2,6,34,284,411.04550649727025,411.8474088503408,"[40, 0, 214]",214,a,0.27856975754002633,colour,0.5
140,26,0,2,6,35,285,412.3579954203633,412.9354160151797,"[93, 0, 161]",161,l,0.05416558687284123,colour,0.5
140,26,0,2,6,36,286,413.45174879266597,414.15139425284724,"[21, 0, 233]",233,a,0.17638218147840234,colour,0.5
140,26,0,2,6,37,287,414.6705052172729,415.4553761107436,"[45, 0, 209]",209,l,0.2615701994363917,colour,0.5
140,26,0,2,6,38,288,415.96733090041744,416.6394359185615,"[20, 0, 234]",234,a,0.1487310688244179,colour,0.5
140,26,0,2,6,39,289,417.1548837249611,417.9753787416321,"[37, 0, 217]",217,a,0.29713524579528894,colour,0.5
140,26,0,2,6,40,290,418.48293742659735,419.3194107597046,"[51, 0, 203]",203,a,0.3131348298938974,colour,0.5
140,26,0,2,6,41,291,419.82673550037725,420.6473467015039,"[8, 0, 246]",246,a,0.29737667315566796,colour,0.5
140,26,0,2,6,42,292,421.15479274662357,421.9513888177771,"[47, 0, 207]",207,a,0.27321188184942,colour,0.5
140,26,0,2,6,43,293,422.4674620510068,423.4554154953039,"[74, 0, 180]",180,l,0.4647086763397965,colour,0.5
140,26,0,2,6,44,294,423.96737146651503,424.85535980553504,"[64, 0, 190]",190,a,0.3646718911604694,colour,0.5
140,26,0,2,6,45,295,425.3735940696297,426.2153654138965,"[41, 0, 213]",213,a,0.318448594876827,colour,0.5
140,26,0,2,6,46,296,426.7328805159068,427.5753493607499,"[12, 0, 242]",242,a,0.31914058161601133,colour,0.5
140,26,0,2,6,47,297,428.09231938043376,428.72743481264297,"[81, 0, 173]",173,l,0.11177811053312325,colour,0.5
140,26,0,2,6,48,298,429.2486268572775,430.119359244698,"[99, 0, 155]",155,l,0.3474147580236604,colour,0.5
140,26,0,2,6,49,299,430.6391826758336,431.48735046666843,"[65, 0, 189]",189,a,0.32489505983721756,colour,0.5
140,26,0,2,6,50,300,431.99860893730147,432.95939294212985,"[29, 0, 225]",225,a,0.43750103384627437,colour,0.5
140,26,0,2,7,1,301,437.48209144622524,438.45536075076416,"[73, 0, 181]",181,l,0.4491761931349174,colour,0.5
140,26,0,2,7,2,302,438.9671713929456,439.5513633753508,"[76, 0, 178]",178,l,0.06069475941148994,colour,0.5
140,26,0,2,7,3,303,440.06099171900314,441.05538690211324,"[71, 0, 183]",183,l,0.4713886917470518,colour,0.5
140,26,0,2,7,4,304,441.5766313282129,442.3354828113952,"[96, 0, 158]",158,l,0.23574259195993363,colour,0.5
140,26,0,2,7,5,305,442.84222820517425,443.5913851786445,"[50, 0, 204]",204,a,0.22675267204613192,colour,0.5
140,26,0,2,7,6,306,444.1078554082487,444.7194728297727,"[48, 0, 206]",206,a,0.08825765064830193,colour,0.5
140,26,0,2,7,7,307,445.23295416503606,445.9673773741997,"[21, 0, 233]",233,a,0.21106855828111293,colour,0.5
140,26,0,2,7,8,308,446.48285274979025,447.31938437204917,"[28, 0, 226]",226,a,0.31331639272139,colour,0.5
140,26,0,2,7,9,309,447.82660277440664,448.567338147177,"[59, 0, 195]",195,a,0.2175441678155039,colour,0.5
140,26,0,2,7,10,310,449.0766234513012,449.61535265329803,"[41, 0, 213]",213,a,0.015581320059936843,colour,0.5
140,26,0,2,7,11,311,450.12345720828125,450.75136014581767,"[83, 0, 171]",171,l,0.10451087132059911,colour,0.5
140,26,0,2,7,12,312,451.2640589098519,451.8233318866078,"[23, 0, 231]",231,a,0.035922264329201425,colour,0.5
140,26,0,2,7,13,313,452.3421959098341,453.34335145285695,"[27, 0, 227]",227,a,0.4777815937031846,colour,0.5
140,26,0,2,7,14,314,453.85787844821607,454.7193377407275,"[26, 0, 228]",228,a,0.3382034968763037,colour,0.5
140,26,0,2,7,15,315,455.2328553097868,455.8153888083252,"[87, 0, 167]",167,l,0.059615622436467675,colour,0.5
140,26,0,2,7,16,316,456.32656732830037,457.1673300339571,"[92, 0, 162]",162,l,0.31758764837104536,colour,0.5
140,26,0,2,7,17,317,457.68594554060473,458.39133248210237,"[60, 0, 194]",194,a,0.18213193355404655,colour,0.5
140,26,0,2,7,18,318,458.90470196521164,459.53529959441767,"[62, 0, 192]",192,l,0.10729535979044158,colour,0.5
140,26,0,2,7,19,319,460.04528594372823,460.7673199515102,"[93, 0, 161]",161,l,0.1993260513918358,colour,0.5
140,26,0,2,7,20,320,461.279811552753,462.03934438884244,"[75, 0, 179]",179,l,0.2367398090482311,colour,0.5
140,26,0,2,7,21,321,462.5609810851711,463.207311664999,"[20, 0, 234]",234,a,0.12320947939224425,colour,0.5
140,26,0,2,7,22,322,463.71712354070405,464.26339882460707,"[79, 0, 175]",175,l,0.02293796222693345,colour,0.5
140,26,0,2,7,23,323,464.77959060536523,465.4072800785798,"[4, 0, 250]",250,a,0.10471173258156341,colour,0.5
140,26,0,2,7,24,324,465.9203053406254,466.5513204461804,"[17, 0, 237]",237,l,0.10773252841863723,colour,0.5
140,26,0,2,7,25,325,467.0609019222029,467.91931009276595,"[90, 0, 164]",164,l,0.3356691003700689,colour,0.5
140,26,0,2,7,26,326,468.43593392215917,469.43127354704484,"[67, 0, 187]",187,a,0.4720716200372408,colour,0.5
140,26,0,2,7,27,327,469.9515435991034,470.81541007598935,"[19, 0, 235]",235,a,0.3405917766613129,colour,0.5
140,26,0,2,7,28,328,471.3265488175566,472.24733858828404,"[3, 0, 251]",251,a,0.39758438733042567,colour,0.5
140,26,0,2,7,29,329,472.7639876237954,473.6233075469481,"[25, 0, 229]",229,a,0.335943610760296,colour,0.5
140,26,0,2,7,30,330,474.13904207295127,474.8553885562651,"[66, 0, 188]",188,l,0.19341285338850867,colour,0.5
140,26,0,2,7,31,331,475.37335264227113,476.19930005758033,"[99, 0, 155]",155,l,0.30258213059460104,colour,0.5
140,26,0,2,7,32,332,476.7170439838901,477.6233709560911,"[78, 0, 176]",176,a,0.3829081244821282,colour,0.5
140,26,0,2,7,33,333,478.1389731499694,479.0553262498888,"[9, 0, 245]",245,a,0.39296182139332814,colour,0.5
140,26,0,2,7,34,334,479.57654625756004,480.1753006814324,"[97, 0, 157]",157,l,0.0755974834846711,colour,0.5
140,26,0,2,7,35,335,480.68585298688595,481.3673078998345,"[13, 0, 241]",241,a,0.15809553591861913,colour,0.5
140,26,0,2,7,36,336,481.87337824223505,482.9673123896737,"[47, 0, 207]",207,a,0.5706803210305225,colour,0.5
140,26,0,2,7,37,337,483.48279446064043,484.2393120147335,"[40, 0, 214]",214,a,0.23326254614948994,colour,0.5
140,26,0,2,7,38,338,484.7484354483113,485.303328074182,"[11, 0, 243]",243,a,0.03168015325354645,colour,0.5
140,26,0,2,7,39,339,485.81092062986863,486.59934046614035,"[64, 0, 190]",190,a,0.2654149202899134,colour,0.5
140,26,0,2,7,40,340,487.1077407991761,487.75132903201484,"[85, 0, 169]",169,l,0.1203044741650956,colour,0.5
140,26,0,2,7,41,341,488.2639403623216,489.0712935386473,"[98, 0, 156]",156,l,0.28400443312602874,colour,0.5
140,26,0,2,7,42,342,489.5920956761274,490.41530507674906,"[29, 0, 225]",225,a,0.29993115578690777,colour,0.5
140,26,0,2,7,43,343,490.9358453068962,491.5512964215977,"[82, 0, 172]",172,l,0.09216381141777674,colour,0.5
140,26,0,2,7,44,344,492.06086214379684,492.5993455861335,"[10, 0, 244]",244,a,0.015722316789833712,colour,0.5
140,26,0,2,7,45,345,493.1076919623192,493.80725825953414,"[2, 0, 252]",252,a,0.1762128278678574,colour,0.5
140,26,0,2,7,46,346,494.32644051001444,495.3272860965408,"[77, 0, 177]",177,l,0.47763193237187807,colour,0.5
140,26,0,2,7,47,347,495.8420497931129,496.44730345725475,"[7, 0, 247]",247,a,0.08285881501251424,colour,0.5
140,26,0,2,7,48,348,496.96705599618144,497.61530617951576,"[31, 0, 223]",223,a,0.12489435091447376,colour,0.5
140,26,0,2,7,49,349,498.1232346855104,499.1032556853588,"[34, 0, 220]",220,a,0.4566025459753291,colour,0.5
140,26,0,2,7,50,350,499.62330951617696,500.47926914857635,"[33, 0, 221]",221,a,0.3326624829751381,colour,0.5
140,26,0,2,8,1,351,505.1694268679894,505.77527996515346,"[13, 0, 241]",241,a,0.08182378874880669,colour,0.5
140,26,0,2,8,2,352,506.295177833108,507.15128279453893,"[32, 0, 222]",222,a,0.3328416827280307,colour,0.5
140,26,0,2,8,3,353,507.67016769158363,508.2392809009307,"[46, 0, 208]",208,a,0.04585741371192853,colour,0.5
140,26,0,2,8,4,354,508.748253491638,510.45528749548066,"[45, 0, 209]",209,a,1.1837415805657656,colour,0.5
140,26,0,2,8,5,355,510.96694690094773,511.711265874932,"[72, 0, 182]",182,l,0.22099149844871135,colour,0.5
140,26,0,2,8,6,356,512.2326430270023,512.967243072846,"[88, 0, 166]",166,l,0.21128517336546793,colour,0.5
140,26,0,2,8,7,357,513.4826117162775,514.3672752106486,"[80, 0, 174]",174,l,0.36137973569748283,colour,0.5
140,26,0,2,8,8,358,514.8888847316302,517.2872650809386,"[17, 0, 237]",237,a,1.8751749659113557,colour,0.5
140,26,0,2,8,9,359,517.7950738578675,518.7752634236367,"[44, 0, 210]",210,a,0.4569392839730426,colour,0.5
140,26,0,2,8,10,360,519.2950462886747,520.2152728601777,"[64, 0, 190]",190,a,0.3968325360583549,colour,0.5
140,26,0,2,8,11,361,520.7326327870178,521.4472329588916,"[24, 0, 230]",230,a,0.19129435784634552,colour,0.5
140,26,0,2,8,12,362,521.9670796269183,522.9272157557152,"[29, 0, 225]",225,a,0.43690711466297216,colour,0.5
140,26,0,2,8,13,363,523.4357358178167,524.4072261217316,"[26, 0, 228]",228,a,0.4481687360621436,colour,0.5
140,26,0,2,8,14,364,524.9200773040175,525.7192723623575,"[74, 0, 180]",180,l,0.27591996427145205,colour,0.5
140,26,0,2,8,15,365,526.232560319424,527.199296906816,"[35, 0, 219]",219,a,0.4437029206801526,colour,0.5
140,26,0,2,8,16,366,527.7168608456814,528.567292854932,"[27, 0, 227]",227,a,0.3270387614975334,colour,0.5
140,26,0,2,8,17,367,529.0763520916753,529.6232618608574,"[22, 0, 232]",232,a,0.023757554943586,colour,0.5
140,26,0,2,8,18,368,530.1387730764,530.7592102765357,"[21, 0, 233]",233,a,0.09706797696526337,colour,0.5
140,26,0,2,8,19,369,531.2794984454922,531.8792804125605,"[96, 0, 158]",158,l,0.07663566051451198,colour,0.5
140,26,0,2,8,20,370,532.3887661841018,533.311279817066,"[89, 0, 165]",165,l,0.3992436588887358,colour,0.5
140,26,0,2,8,21,371,533.8262951809847,534.751236478296,"[68, 0, 186]",186,l,0.40177726770343725,colour,0.5
140,26,0,2,8,22,372,535.2637674640991,536.1672737140343,"[59, 0, 195]",195,l,0.38011575910059037,colour,0.5
140,26,0,2,8,23,373,536.6856304641151,537.4792738747237,"[71, 0, 183]",183,l,0.2703568950146291,colour,0.5
140,26,0,2,8,24,374,537.9981371102604,538.6392515988155,"[28, 0, 226]",226,a,0.1177464469201368,colour,0.5
140,26,0,2,8,25,375,539.1543815718069,540.0392920073755,"[77, 0, 177]",177,l,0.3616121046088665,colour,0.5
140,26,0,2,8,26,376,540.5606309564228,541.5432371588613,"[69, 0, 185]",185,l,0.4595142465768731,colour,0.5
140,26,0,2,8,27,377,542.0606628579171,542.9752054495639,"[51, 0, 203]",203,a,0.39175625997995667,colour,0.5
140,26,0,2,8,28,378,543.4825258579331,544.3592139786833,"[79, 0, 175]",175,l,0.35338151903124526,colour,0.5
140,26,0,2,8,29,379,544.8731143656769,545.7272347390735,"[20, 0, 234]",234,a,0.3308070763032447,colour,0.5
140,26,0,2,8,30,380,546.2481152518285,547.1512221423163,"[33, 0, 221]",221,a,0.379652202818761,colour,0.5
140,26,0,2,8,31,381,547.6700136979507,548.4311983225325,"[84, 0, 170]",170,l,0.23786896441379213,colour,0.5
140,26,0,2,8,32,382,548.9511631442438,549.7432055724421,"[23, 0, 231]",231,a,0.2688067186900298,colour,0.5
140,26,0,2,8,33,383,550.263769433328,551.0472339041207,"[39, 0, 215]",215,a,0.2601677152142656,colour,0.5
140,26,0,2,8,34,384,551.5606285933482,552.3591852279533,"[8, 0, 246]",246,a,0.2755406909454905,colour,0.5
140,26,0,2,8,35,385,552.8730801011079,553.6551747768663,"[94, 0, 160]",160,l,0.25879280018671125,colour,0.5
140,26,0,2,8,36,386,554.1699526518805,554.9992501179568,"[5, 0, 249]",249,a,0.3059369075090217,colour,0.5
140,26,0,2,8,37,387,555.5137034641866,556.3592391848033,"[15, 0, 239]",239,a,0.32220706354200956,colour,0.5
140,26,0,2,8,38,388,556.8730848272553,557.6792166883406,"[75, 0, 179]",179,a,0.28285834239795804,colour,0.5
140,26,0,2,8,39,389,558.1855284581015,558.8713475742661,"[91, 0, 163]",163,l,0.16247588680380431,colour,0.5
140,26,0,2,8,40,390,559.3886700857711,560.2071848467112,"[93, 0, 161]",161,l,0.2951636546658847,colour,0.5
140,26,0,2,8,41,391,560.7167844396317,561.559155216919,"[98, 0, 156]",156,l,0.31938673512195237,colour,0.5
140,26,0,2,8,42,392,562.0761740734579,562.7112237334513,"[47, 0, 207]",207,a,0.11176196286396589,colour,0.5
140,26,0,2,8,43,393,563.2324976979726,564.1112117605444,"[1, 0, 253]",253,a,0.35546496231290803,colour,0.5
140,26,0,2,8,44,394,564.6229952273789,565.4871692976867,"[38, 0, 216]",216,a,0.3407961825323582,colour,0.5
140,26,0,2,8,45,395,565.9979815412444,566.7991911198842,"[53, 0, 201]",201,a,0.27780215244456485,colour,0.5
140,26,0,2,8,46,396,567.3105358427074,568.0151406068217,"[25, 0, 229]",229,a,0.18149705442920094,colour,0.5
140,26,0,2,8,47,397,568.5292556396726,569.1751451124146,"[82, 0, 172]",172,l,0.12258168948574166,colour,0.5
140,26,0,2,8,48,398,569.685464261267,570.4631738599946,"[85, 0, 169]",169,l,0.2544226892878214,colour,0.5
140,26,0,2,8,49,399,570.9824116427062,571.8551955719158,"[81, 0, 173]",173,l,0.34946787519584177,colour,0.5
140,26,0,2,8,50,400,572.3730324457883,573.1271861385248,"[61, 0, 193]",193,l,0.23090616785884777,colour,0.5
140,26,0,2,9,1,401,577.6535355914348,578.6311962745349,"[35, 0, 219]",219,a,0.4536120762513747,colour,0.5
140,26,0,2,9,2,402,579.1386517719511,579.7671734409432,"[99, 0, 155]",155,l,0.1052012826767168,colour,0.5
140,26,0,2,9,3,403,580.2792444150728,580.8152037008877,"[64, 0, 190]",190,a,0.012727908608212601,colour,0.5
140,26,0,2,9,4,404,581.3260769905155,582.1514812927271,"[59, 0, 195]",195,l,0.3027699949507223,colour,0.5
140,26,0,2,9,5,405,582.6697990520934,583.3671704477165,"[8, 0, 246]",246,a,0.17400414168150746,colour,0.5
140,26,0,2,9,6,406,583.8885869843471,584.7271543945681,"[1, 0, 253]",253,a,0.3152395408378652,colour,0.5
140,26,0,2,9,7,407,585.2479281751639,586.0631102145435,"[29, 0, 225]",225,a,0.291798243921221,colour,0.5
140,26,0,2,9,8,408,586.5761169658454,587.1911246103882,"[50, 0, 204]",204,a,0.09178414424786752,colour,0.5
140,26,0,2,9,9,409,587.7010822089705,588.5031862109918,"[60, 0, 194]",194,a,0.2787670741909096,colour,0.5
140,26,0,2,9,10,410,589.013550652091,589.703138870751,"[19, 0, 235]",235,a,0.16630445998634968,colour,0.5
140,26,0,2,9,11,411,590.2166521075069,590.8391443940418,"[36, 0, 218]",218,a,0.09909903878178739,colour,0.5
140,26,0,2,9,12,412,591.3573420304947,592.2471357577942,"[63, 0, 191]",191,a,0.3665599870182632,colour,0.5
140,26,0,2,9,13,413,592.763532732115,593.3752261658428,"[4, 0, 250]",250,a,0.08832499824893603,colour,0.5
140,26,0,2,9,14,414,593.8885216059771,594.8471327645675,"[97, 0, 157]",157,l,0.43528368305487675,colour,0.5
140,26,0,2,9,15,415,595.3580111741885,596.3591438741641,"[28, 0, 226]",226,a,0.47934358539714594,colour,0.5
140,26,0,2,9,16,416,596.8728898736772,597.7111426012561,"[21, 0, 233]",233,a,0.3150532518648106,colour,0.5
140,26,0,2,9,17,417,598.2322472121632,599.1511563700988,"[12, 0, 242]",242,a,0.39553048246852995,colour,0.5
140,26,0,2,9,18,418,599.6697793598123,600.3431269608591,"[10, 0, 244]",244,a,0.1499827101779374,colour,0.5
140,26,0,2,9,19,419,600.8572943751751,601.6711314317945,"[75, 0, 179]",179,l,0.2905426641136728,colour,0.5
140,26,0,2,9,20,420,602.1853717075501,602.8391073725543,"[82, 0, 172]",172,l,0.13039873717389128,colour,0.5
140,26,0,2,9,21,421,603.3580718264111,603.9911250830028,"[77, 0, 177]",177,l,0.11058790909737581,colour,0.5
140,26,0,2,9,22,422,604.4978373937502,605.2071501882983,"[45, 0, 209]",209,a,0.1858860699176148,colour,0.5
140,26,0,2,9,23,423,605.7166343844547,606.3351208672793,"[89, 0, 165]",165,l,0.09527440405145171,colour,0.5
140,26,0,2,9,24,424,606.8416870613055,607.6871613420062,"[90, 0, 164]",164,l,0.3230565885260148,colour,0.5
140,26,0,2,9,25,425,608.2012062703379,608.7992371998207,"[33, 0, 221]",221,a,0.07495984743945883,colour,0.5
140,26,0,2,9,26,426,609.3103806675372,609.9671257068549,"[24, 0, 230]",230,a,0.13371688644656388,colour,0.5
140,26,0,2,9,27,427,610.4822541044614,611.007190439319,"[83, 0, 171]",171,l,0.0019022742999368347,colour,0.5
140,26,0,2,9,28,428,611.5290736829993,612.1111479575557,"[70, 0, 184]",184,a,0.05879563587586745,colour,0.5
140,26,0,2,9,29,429,612.6228294183766,613.415113667781,"[61, 0, 193]",193,a,0.26897331538384606,colour,0.5
140,26,0,2,9,30,430,613.9353372460591,614.4791403610616,"[73, 0, 181]",181,a,0.020553620897771907,colour,0.5
140,26,0,2,9,31,431,614.9981552271583,615.7591090582137,"[22, 0, 232]",232,a,0.2379847550255363,colour,0.5
140,26,0,2,9,32,432,616.2791231106239,617.3271344659806,"[23, 0, 231]",231,a,0.5247831289143505,colour,0.5
140,26,0,2,9,33,433,617.8415984460426,618.6951796447993,"[48, 0, 206]",206,a,0.33117059580217756,colour,0.5
140,26,0,2,9,34,434,619.2165079600145,620.0711226096519,"[41, 0, 213]",213,a,0.331238731092526,colour,0.5
140,26,0,2,9,35,435,620.5915407476605,621.3351110211388,"[92, 0, 162]",162,l,0.22023728410385957,colour,0.5
140,26,0,2,9,36,436,621.8415720583871,622.6231043226126,"[31, 0, 223]",223,a,0.2585946958442946,colour,0.5
140,26,0,2,9,37,437,623.1383894707742,623.9831382878583,"[13, 0, 241]",241,a,0.32142567385017173,colour,0.5
140,26,0,2,9,38,438,624.4978102184032,625.3030980683452,"[7, 0, 247]",247,a,0.28195131595748535,colour,0.5
140,26,0,2,9,39,439,625.8103684583239,626.6070917416091,"[87, 0, 167]",167,l,0.2737219119153451,colour,0.5
140,26,0,2,9,40,440,627.1227419846509,627.7991107753805,"[26, 0, 228]",228,a,0.15301886599263526,colour,0.5
140,26,0,2,9,41,441,628.3103058368706,629.0710572312819,"[40, 0, 214]",214,a,0.2375022941505449,colour,0.5
140,26,0,2,9,42,442,629.591498212334,630.4471215005833,"[44, 0, 210]",210,a,0.33232771420625795,colour,0.5
140,26,0,2,9,43,443,630.9665495107256,631.671076293409,"[79, 0, 175]",175,l,0.18121427327969286,colour,0.5
140,26,0,2,9,44,444,632.1852547354029,633.2791034183429,"[58, 0, 196]",196,a,0.570384936821938,colour,0.5
140,26,0,2,9,45,445,633.7946146338854,634.6150608137013,"[25, 0, 229]",229,a,0.2972545810152951,colour,0.5
140,26,0,2,9,46,446,635.1227234739072,635.7671092441087,"[88, 0, 166]",166,l,0.12100709473634197,colour,0.5
140,26,0,2,9,47,447,636.2790652153199,636.9990854904918,"[54, 0, 200]",200,a,0.19687475630780682,colour,0.5
140,26,0,2,9,48,448,637.513332067776,638.2550469345824,"[94, 0, 160]",160,l,0.21835667131199443,colour,0.5
140,26,0,2,9,49,449,638.7633078462713,639.94307394924,"[85, 0, 169]",169,l,0.6563748244443559,colour,0.5
140,26,0,2,9,50,450,640.4508622461963,641.279088452211,"[84, 0, 170]",170,l,0.3057143847381667,colour,0.5
140,26,0,2,10,1,451,646.0281839857653,646.7911854201502,"[74, 0, 180]",180,l,0.2389540090716764,colour,0.5
140,26,0,2,10,2,452,647.3102006800927,648.5190916659903,"[43, 0, 211]",211,a,0.6857659470060753,colour,0.5
140,26,0,2,10,3,453,649.0289295355069,650.3591040957581,"[96, 0, 158]",158,l,0.8068132139924273,colour,0.5
140,26,0,2,10,4,454,650.8727000400941,651.4390669639943,"[62, 0, 192]",192,a,0.04303235914267134,colour,0.5
140,26,0,2,10,5,455,651.9509835506451,652.7110445336984,"[85, 0, 169]",169,a,0.23696902719348145,colour,0.5
140,26,0,2,10,6,456,653.2320569847343,656.4470407622339,"[26, 0, 228]",228,a,2.6916496065878164,colour,0.5
140,26,0,2,10,7,457,656.9665081569365,657.9590810164045,"[87, 0, 167]",167,l,0.46936747607105644,colour,0.5
140,26,0,2,10,8,458,658.4664608954627,659.2951274208699,"[15, 0, 239]",239,a,0.30542018206688226,colour,0.5
140,26,0,2,10,9,459,659.8101124586756,660.4390441209489,"[80, 0, 174]",174,l,0.10559670367001672,colour,0.5
140,26,0,2,10,10,460,660.9508433416067,661.7591933411732,"[60, 0, 194]",194,a,0.2849780194756022,colour,0.5
140,26,0,2,10,11,461,662.2788580525284,662.8710439193001,"[48, 0, 206]",206,a,0.06876623136304261,colour,0.5
140,26,0,2,10,12,462,663.3882809663082,664.1910757735332,"[9, 0, 245]",245,a,0.27949411319059436,colour,0.5
140,26,0,2,10,13,463,664.700799427821,665.4309836766752,"[34, 0, 220]",220,a,0.20685519793551066,colour,0.5
140,26,0,2,10,14,464,665.9507515755795,666.671051087289,"[69, 0, 185]",185,l,0.19690783933947387,colour,0.5
140,26,0,2,10,15,465,667.1851117694459,667.8550675720908,"[24, 0, 230]",230,a,0.14663738555827877,colour,0.5
140,26,0,2,10,16,466,668.372646083244,668.935097000236,"[58, 0, 196]",196,a,0.039184487524835276,colour,0.5
140,26,0,2,10,17,467,669.4507240063867,670.1990322425645,"[19, 0, 235]",235,a,0.22493861916154856,colour,0.5
140,26,0,2,10,18,468,670.7165331661326,671.7510742139038,"[35, 0, 219]",219,a,0.511451454984126,colour,0.5
140,26,0,2,10,19,469,672.2631896925886,673.1350287861751,"[84, 0, 170]",170,l,0.3484600242754823,colour,0.5
140,26,0,2,10,20,470,673.6538542125327,674.3190661447952,"[14, 0, 240]",240,a,0.14250043126048695,colour,0.5
140,26,0,2,10,21,471,674.8257662463293,675.551024668126,"[83, 0, 171]",171,l,0.2020093215378438,colour,0.5
140,26,0,2,10,22,472,676.0600854802524,676.7830269083206,"[47, 0, 207]",207,a,0.19968838935346866,colour,0.5
140,26,0,2,10,23,473,677.2944681233184,678.00706204565,"[17, 0, 237]",237,a,0.18944800962162844,colour,0.5
140,26,0,2,10,24,474,678.5132359694471,679.3270009523185,"[61, 0, 193]",193,a,0.2904985534041771,colour,0.5
140,26,0,2,10,25,475,679.8413416587046,680.5750575211514,"[79, 0, 175]",175,l,0.21119813348741445,colour,0.5
140,26,0,2,10,26,476,681.0913702125108,681.7990702092811,"[90, 0, 164]",164,l,0.1844753149380267,colour,0.5
140,26,0,2,10,27,477,682.3100305387889,683.007011239566,"[1, 0, 253]",253,a,0.17367764366827032,colour,0.5
140,26,0,2,10,28,478,683.5132473909707,684.2950214764005,"[41, 0, 213]",213,a,0.25851592672188417,colour,0.5
140,26,0,2,10,29,479,684.8100829202558,685.3590430496879,"[46, 0, 208]",208,a,0.025701183032651898,colour,0.5
140,26,0,2,10,30,480,685.8725456526136,686.423018149193,"[30, 0, 224]",224,a,0.027119814923935337,colour,0.5
140,26,0,2,10,31,481,686.9350714002703,687.4870141225165,"[13, 0, 241]",241,a,0.0290047600192338,colour,0.5
140,26,0,2,10,32,482,687.9975077449744,689.039019860058,"[94, 0, 160]",160,l,0.518154313434934,colour,0.5
140,26,0,2,10,33,483,689.5600271911007,690.2710441556064,"[51, 0, 203]",203,a,0.18765837516548345,colour,0.5
140,26,0,2,10,34,484,690.7788395417847,691.303064197622,"[54, 0, 200]",200,a,0.0009460171568207443,colour,0.5
140,26,0,2,10,35,485,691.8256595141684,692.3670034571769,"[88, 0, 166]",166,l,0.017989685971770086,colour,0.5
140,26,0,2,10,36,486,692.8881049173197,693.4150207202183,"[3, 0, 251]",251,a,0.0036206227014190517,colour,0.5
140,26,0,2,10,37,487,693.9350398926217,694.5190199860899,"[67, 0, 187]",187,l,0.06074911010546202,colour,0.5
140,26,0,2,10,38,488,695.0288673078994,695.671058176511,"[0, 0, 254]",254,a,0.11934703548467951,colour,0.5
140,26,0,2,10,39,489,696.1849987357564,697.1990054610633,"[52, 0, 202]",202,a,0.4906816128441278,colour,0.5
140,26,0,2,10,40,490,697.7162232096362,698.3990593391427,"[4, 0, 250]",250,a,0.15949644475585956,colour,0.5
140,26,0,2,10,41,491,698.919384135741,699.7110130260498,"[20, 0, 234]",234,a,0.2683699439094198,colour,0.5
140,26,0,2,10,42,492,700.2319014157183,700.7829938252889,"[2, 0, 252]",252,a,0.027759420196161955,colour,0.5
140,26,0,2,10,43,493,701.2944551264136,701.9190107701015,"[7, 0, 247]",247,a,0.10137664794820012,colour,0.5
140,26,0,2,10,44,494,702.4349839665447,703.0549839980522,"[86, 0, 168]",168,l,0.09629485802906856,colour,0.5
140,26,0,2,10,45,495,703.5755951204101,704.5670187383857,"[49, 0, 205]",205,a,0.46801343486004043,colour,0.5
140,26,0,2,10,46,496,705.0755687327546,705.7590239875608,"[71, 0, 183]",183,l,0.16016007461075787,colour,0.5
140,26,0,2,10,47,497,706.2787107542699,707.0229517468233,"[97, 0, 157]",157,l,0.2209513261968823,colour,0.5
140,26,0,2,10,48,498,707.5443726157573,708.191007638241,"[66, 0, 188]",188,a,0.12180738901588484,colour,0.5
140,26,0,2,10,49,499,708.7005257051223,709.3990073515215,"[63, 0, 191]",191,a,0.17507106943958206,colour,0.5
140,26,0,2,10,50,500,709.919320726598,710.742997621961,"[25, 0, 229]",229,a,0.30040377052137046,colour,0.5
140,26,0,2,11,1,501,715.4185212200082,716.2069619300964,"[59, 0, 195]",195,a,0.26436926019414386,colour,0.5
140,26,0,2,11,2,502,716.7162043050484,717.4549889605078,"[86, 0, 168]",168,l,0.2154792352775985,colour,0.5
140,26,0,2,11,3,503,717.9662092281178,718.5909452530977,"[94, 0, 160]",160,a,0.10143611863713886,colour,0.5
140,26,0,2,11,4,504,719.1067802097314,719.8390317541962,"[70, 0, 184]",184,a,0.2088945305076777,colour,0.5
140,26,0,2,11,5,505,720.3568241235171,721.1030319810507,"[99, 0, 155]",155,l,0.22296308957629662,colour,0.5
140,26,0,2,11,6,506,721.6224154866395,722.3349952305289,"[75, 0, 179]",179,a,0.18938538817019435,colour,0.5
140,26,0,2,11,7,507,722.841127406693,723.6390164729874,"[56, 0, 198]",198,l,0.27549539870233275,colour,0.5
140,26,0,2,11,8,508,724.1536147544011,724.935012323429,"[9, 0, 245]",245,a,0.2587888617308636,colour,0.5
140,26,0,2,11,9,509,725.4504648559741,726.2149731436675,"[16, 0, 238]",238,a,0.2410142154640198,colour,0.5
140,26,0,2,11,10,510,726.7317671143646,727.7110138137414,"[23, 0, 231]",231,a,0.45590110694320174,colour,0.5
140,26,0,2,11,11,511,728.2317560866868,728.9749766252626,"[1, 0, 253]",253,a,0.2198016908569116,colour,0.5
140,26,0,2,11,12,512,729.481773612817,730.5349522225897,"[15, 0, 239]",239,a,0.5299019403209968,colour,0.5
140,26,0,2,11,13,513,731.0443190527549,732.0949404229741,"[54, 0, 200]",200,a,0.527534534352526,colour,0.5
140,26,0,2,11,14,514,732.6067132559765,733.3750997414008,"[39, 0, 215]",215,a,0.24506688680048683,colour,0.5
140,26,0,2,11,15,515,733.8879926713216,734.4549830528231,"[53, 0, 201]",201,a,0.04365857366428827,colour,0.5
140,26,0,2,11,16,516,734.9661627543355,735.6389507007698,"[52, 0, 202]",202,a,0.14961052607577585,colour,0.5
140,26,0,2,11,17,517,736.1536056959521,737.1109404009185,"[55, 0, 199]",199,a,0.43474490225889895,colour,0.5
140,26,0,2,11,18,518,737.6223438067391,738.1669787236733,"[44, 0, 210]",210,a,0.02135115826058609,colour,0.5
140,26,0,2,11,19,519,738.6848648282485,739.3509290424117,"[34, 0, 220]",220,a,0.1428568615392578,colour,0.5
140,26,0,2,11,20,520,739.8567244805763,740.5750579149972,"[13, 0, 241]",241,a,0.19514222946600057,colour,0.5
140,26,0,2,11,21,521,741.0910626190889,742.0389009186838,"[38, 0, 216]",216,a,0.4245226394268684,colour,0.5
140,26,0,2,11,22,522,742.5598523236495,743.1909426537168,"[98, 0, 156]",156,l,0.10790345741406782,colour,0.5
140,26,0,2,11,23,523,743.7004792313401,744.454954302093,"[74, 0, 180]",180,l,0.23118067824907484,colour,0.5
140,26,0,2,11,24,524,744.9660552344831,745.5030038604746,"[5, 0, 249]",249,a,0.013634541204737616,colour,0.5
140,26,0,2,11,25,525,746.0129417667758,746.7269216318127,"[43, 0, 211]",211,a,0.19067956484832393,colour,0.5
140,26,0,2,11,26,526,747.2473492221161,747.9509039938312,"[28, 0, 226]",226,a,0.1802938560867915,colour,0.5
140,26,0,2,11,27,527,748.4660954067367,749.238964249058,"[69, 0, 185]",185,l,0.24960792669298826,colour,0.5
140,26,0,2,11,28,528,749.747325985225,750.550949049768,"[67, 0, 187]",187,l,0.28028692440420855,colour,0.5
140,26,0,2,11,29,529,751.059827905221,751.8469122110255,"[90, 0, 164]",164,l,0.26389113162076683,colour,0.5
140,26,0,2,11,30,530,752.356647286837,753.1669428837213,"[68, 0, 186]",186,l,0.2869456721473398,colour,0.5
140,26,0,2,11,31,531,753.6848333205999,754.2229737234084,"[3, 0, 251]",251,a,0.015003154703663313,colour,0.5
140,26,0,2,11,32,532,754.7316769237186,755.5509411728563,"[82, 0, 172]",172,l,0.2959765520081419,colour,0.5
140,26,0,2,11,33,533,756.0598794989965,756.6630095476048,"[48, 0, 206]",206,a,0.08014088645177253,colour,0.5
140,26,0,2,11,34,534,757.1691850467851,757.8389285666472,"[49, 0, 205]",205,a,0.14664250555142644,colour,0.5
140,26,0,2,11,35,535,758.3566295637847,759.1589454547466,"[73, 0, 181]",181,a,0.2796548021997296,colour,0.5
140,26,0,2,11,36,536,759.6690160870185,760.5109331541607,"[25, 0, 229]",229,a,0.31945290118528646,colour,0.5
140,26,0,2,11,37,537,761.0284238377426,762.0629467686158,"[58, 0, 196]",196,a,0.5118783836260263,colour,0.5
140,26,0,2,11,38,538,762.5753706284122,763.7029651848352,"[37, 0, 217]",217,a,0.6032580484315986,colour,0.5
140,26,0,2,11,39,539,764.2159396407969,764.9829496358107,"[14, 0, 240]",240,a,0.24410117736078973,colour,0.5
140,26,0,2,11,40,540,765.4970233148724,766.1029157965968,"[7, 0, 247]",247,a,0.08299311636619677,colour,0.5
140,26,0,2,11,41,541,766.6221086809092,767.1749678818906,"[19, 0, 235]",235,a,0.030276093650172697,colour,0.5
140,26,0,2,11,42,542,767.6845722009584,768.3269840169578,"[81, 0, 173]",173,l,0.11969440731445502,colour,0.5
140,26,0,2,11,43,543,768.8408068163644,769.4709464031257,"[93, 0, 161]",161,l,0.1072591259926412,colour,0.5
140,26,0,2,11,44,544,769.9814081240893,770.550950625151,"[57, 0, 197]",197,a,0.04642100678029237,colour,0.5
140,26,0,2,11,45,545,771.0595825394066,772.0229296914695,"[12, 0, 242]",242,a,0.4402910361532122,colour,0.5
140,26,0,2,11,46,546,772.5439480501882,773.3189980095049,"[6, 0, 248]",248,a,0.25169373305107,colour,0.5
140,26,0,2,11,47,547,773.8252404624382,774.5029392697943,"[4, 0, 250]",250,a,0.15514681382774143,colour,0.5
140,26,0,2,11,48,548,775.0128425176827,775.7509013156814,"[87, 0, 167]",167,l,0.21468445483515097,colour,0.5
140,26,0,2,11,49,549,776.2627730039312,777.0869461447637,"[24, 0, 230]",230,a,0.30150693207724544,colour,0.5
140,26,0,2,11,50,550,777.6064867947498,778.3909413934107,"[96, 0, 158]",158,l,0.2616253378218971,colour,0.5
140,26,0,2,12,1,551,782.9027122571842,783.8149020151504,"[26, 0, 228]",228,a,0.3881817172132287,colour,0.5
140,26,0,2,12,2,552,784.3253137177217,784.9108613167209,"[54, 0, 200]",200,a,0.062268960318760946,colour,0.5
140,26,0,2,12,3,553,785.4190863884596,786.3908598673679,"[35, 0, 219]",219,a,0.4488276397696609,colour,0.5
140,26,0,2,12,4,554,786.9034782868985,787.6308800165098,"[30, 0, 224]",224,a,0.20420422312781739,colour,0.5
140,26,0,2,12,5,555,788.1378361176903,788.8228773887713,"[95, 0, 159]",159,l,0.16172718629604788,colour,0.5
140,26,0,2,12,6,556,789.3409489946298,790.0148763364159,"[89, 0, 165]",165,l,0.15064358311246906,colour,0.5
140,26,0,2,12,7,557,790.5284163546748,791.2468805458393,"[53, 0, 201]",201,a,0.19511111566316686,colour,0.5
140,26,0,2,12,8,558,791.7628182961762,792.422840918669,"[7, 0, 247]",247,a,0.13674674073081405,colour,0.5
140,26,0,2,12,9,559,792.9346338377964,793.7029175295174,"[49, 0, 205]",205,a,0.24502238224704342,colour,0.5
140,26,0,2,12,10,560,794.2159187669804,795.1828755140668,"[48, 0, 206]",206,a,0.4436714130315522,colour,0.5
140,26,0,2,12,11,561,795.7002535578049,796.3188723727544,"[19, 0, 235]",235,a,0.09524722870446567,colour,0.5
140,26,0,2,12,12,562,796.8253290777011,797.6068499204048,"[45, 0, 209]",209,a,0.2582114840661234,colour,0.5
140,26,0,2,12,13,563,798.1221197085852,798.7348973992794,"[90, 0, 164]",164,l,0.08951953198447882,colour,0.5
140,26,0,2,12,14,564,799.2471448162432,799.9508799692485,"[76, 0, 178]",178,l,0.18050377579857013,colour,0.5
140,26,0,2,12,15,565,800.4659319608072,801.1428832491947,"[44, 0, 210]",210,a,0.1536474435870332,colour,0.5
140,26,0,2,12,16,566,801.6534131054486,802.3589623113385,"[13, 0, 241]",241,l,0.18228474565148645,colour,0.5
140,26,0,2,12,17,567,802.8721494439287,803.5348384012068,"[77, 0, 177]",177,l,0.13952847228028986,colour,0.5
140,26,0,2,12,18,568,804.0440035824195,804.6708431368079,"[99, 0, 155]",155,a,0.10374444776243763,colour,0.5
140,26,0,2,12,19,569,805.1846604223756,805.8068372385751,"[82, 0, 172]",172,l,0.09893086670490447,colour,0.5
140,26,0,2,12,20,570,806.325228253223,806.9989019584373,"[91, 0, 163]",163,l,0.15040688190129003,colour,0.5
140,26,0,2,12,21,571,807.5128161300254,808.0708516438717,"[33, 0, 221]",221,a,0.03484430889147916,colour,0.5
140,26,0,2,12,22,572,808.590890902402,809.1188681192216,"[24, 0, 230]",230,a,0.004728904250441701,colour,0.5
140,26,0,2,12,23,573,809.6377215086177,810.198857768959,"[87, 0, 167]",167,l,0.03789346161102003,colour,0.5
140,26,0,2,12,24,574,810.7159305823479,811.2628698899516,"[98, 0, 156]",156,l,0.023672090444961214,colour,0.5
140,26,0,2,12,25,575,811.7783535362996,812.8548997938615,"[40, 0, 214]",214,a,0.5533081849789596,colour,0.5
140,26,0,2,12,26,576,813.3721112409057,814.1588395102772,"[6, 0, 248]",248,a,0.26345671991293784,colour,0.5
140,26,0,2,12,27,577,814.6690156931727,815.7748530365097,"[96, 0, 158]",158,l,0.5826583475973166,colour,0.5
140,26,0,2,12,28,578,816.2939671517015,816.9028308047127,"[41, 0, 213]",213,a,0.08570592493379081,colour,0.5
140,26,0,2,12,29,579,817.4188969487204,818.1588481748804,"[67, 0, 187]",187,l,0.21660996602622618,colour,0.5
140,26,0,2,12,30,580,818.6689668563158,819.3748606771151,"[75, 0, 179]",179,l,0.18267189588550536,colour,0.5
140,26,0,2,12,31,581,819.8876728686846,820.6068321973507,"[58, 0, 196]",196,l,0.19583067159328493,colour,0.5
140,26,0,2,12,32,582,821.1221165578208,821.7908522267644,"[28, 0, 226]",226,a,0.14546333179350768,colour,0.5
140,26,0,2,12,33,583,822.3095847055574,822.9988783277004,"[29, 0, 225]",225,a,0.16610241718808538,colour,0.5
140,26,0,2,12,34,584,823.5128389730708,824.1268174990328,"[93, 0, 161]",161,l,0.09081961634728941,colour,0.5
140,26,0,2,12,35,585,824.6376514040985,825.2468301336012,"[65, 0, 189]",189,a,0.08584416474514,colour,0.5
140,26,0,2,12,36,586,825.7626442164164,826.3668297712629,"[39, 0, 215]",215,a,0.08083051011635689,colour,0.5
140,26,0,2,12,37,587,826.8877603024102,827.422808229483,"[15, 0, 239]",239,a,0.012191097041068133,colour,0.5
140,26,0,2,12,38,588,827.9344955979868,828.5588350204362,"[73, 0, 181]",181,l,0.1010064330730529,colour,0.5
140,26,0,2,12,39,589,829.0751193549131,830.1269226558106,"[55, 0, 199]",199,a,0.5285376591236854,colour,0.5
140,26,0,2,12,40,590,830.6376443148783,831.4308052646138,"[9, 0, 245]",245,a,0.2698697079958947,colour,0.5
140,26,0,2,12,41,591,831.9500989734024,832.6789346948844,"[64, 0, 190]",190,l,0.2054657106200466,colour,0.5
140,26,0,2,12,42,592,833.2000727826689,834.1828211633729,"[11, 0, 243]",243,a,0.45934922526612354,colour,0.5
140,26,0,2,12,43,593,834.7001208318343,835.4388302627813,"[12, 0, 242]",242,a,0.21543630610540276,colour,0.5
140,26,0,2,12,44,594,835.9501686840758,836.7268393180802,"[27, 0, 227]",227,a,0.25339869070012355,colour,0.5
140,26,0,2,12,45,595,837.2470215425674,837.9189162471557,"[38, 0, 216]",216,a,0.1492454311937763,colour,0.5
140,26,0,2,12,46,596,838.434502293363,839.0227867255126,"[97, 0, 157]",157,l,0.06504596572085575,colour,0.5
140,26,0,2,12,47,597,839.5438617979999,840.1347826326692,"[60, 0, 194]",194,a,0.0678150942112552,colour,0.5
140,26,0,2,12,48,598,840.6532748656391,841.4148202528013,"[78, 0, 176]",176,l,0.2383033761234401,colour,0.5
140,26,0,2,12,49,599,841.9344640903382,842.7188174706771,"[20, 0, 234]",234,a,0.2610554432230856,colour,0.5
140,26,0,2,12,50,600,843.2312696873578,844.006772569126,"[50, 0, 204]",204,l,0.252113966316756,colour,0.5
140,26,0,2,13,1,601,848.5117535345671,849.382801392323,"[51, 0, 203]",203,l,0.34697483247691707,colour,0.5
140,26,0,2,13,2,602,849.9032234687875,850.9027658201867,"[53, 0, 201]",201,l,0.47634287568689615,colour,0.5
140,26,0,2,13,3,603,851.418807151922,852.3427468998452,"[71, 0, 183]",183,l,0.4006902538185386,colour,0.5
140,26,0,2,13,4,604,852.8562589550638,853.6227664030794,"[66, 0, 188]",188,l,0.24318942477293604,colour,0.5
140,26,0,2,13,5,605,854.1375352196446,855.158796581105,"[59, 0, 195]",195,l,0.4979204951741849,colour,0.5
140,26,0,2,13,6,606,855.6688739087531,856.6708072968559,"[47, 0, 207]",207,l,0.47880007845378714,colour,0.5
140,26,0,2,13,7,607,857.1844414442166,857.81480512913,"[54, 0, 200]",200,l,0.10721068298335013,colour,0.5
140,26,0,2,13,8,608,858.3250313304179,859.0788065375218,"[60, 0, 194]",194,l,0.23049735611493816,colour,0.5
140,26,0,2,13,9,609,859.5906471119688,860.2947512983119,"[72, 0, 182]",182,l,0.1807928584767069,colour,0.5
140,26,0,2,13,10,610,860.8093802996846,861.4148076497422,"[12, 0, 242]",242,a,0.0821365021620295,colour,0.5
140,26,0,2,13,11,611,861.9344983549072,862.5668552924581,"[0, 0, 254]",254,a,0.10951940595441556,colour,0.5
140,26,0,2,13,12,612,863.0750283765756,863.662752366421,"[8, 0, 246]",246,a,0.06436776357804774,colour,0.5
140,26,0,2,13,13,613,864.1687321243317,864.7667882599344,"[43, 0, 211]",211,a,0.07472511545529414,colour,0.5
140,26,0,2,13,14,614,865.2780569705556,865.9027819678577,"[77, 0, 177]",177,l,0.10130772496631835,colour,0.5
140,26,0,2,13,15,615,866.4187654042871,866.951034750573,"[50, 0, 204]",204,a,0.008959987648267997,colour,0.5
140,26,0,2,13,16,616,867.4655964043468,868.078758882204,"[37, 0, 217]",217,a,0.08988856532414502,colour,0.5
140,26,0,2,13,17,617,868.5906695611702,869.1988711597096,"[85, 0, 169]",169,l,0.08498912592222041,colour,0.5
140,26,0,2,13,18,618,869.7156245643091,870.2787930680024,"[82, 0, 172]",172,l,0.03983472662730492,colour,0.5
140,26,0,2,13,19,619,870.79372769357,871.358990274377,"[32, 0, 222]",222,a,0.042139904988289345,colour,0.5
140,26,0,2,13,20,620,871.8718115243955,872.4708790555269,"[25, 0, 229]",229,a,0.0760472551719431,colour,0.5
140,26,0,2,13,21,621,872.9810961983658,874.0548146444398,"[48, 0, 206]",206,a,0.5508316837767779,colour,0.5
140,26,0,2,13,22,622,874.5748255460876,875.2788734125061,"[9, 0, 245]",245,a,0.18135054386038973,colour,0.5
140,26,0,2,13,23,623,875.7935221061598,876.3907933074606,"[21, 0, 233]",233,a,0.07433323907389422,colour,0.5
140,26,0,2,13,24,624,876.9032404041482,877.6390574329307,"[5, 0, 249]",249,a,0.2127648513269378,colour,0.5
140,26,0,2,13,25,625,878.152989327571,878.8547509202199,"[69, 0, 185]",185,l,0.17912531615911575,colour,0.5
140,26,0,2,13,26,626,879.3718583920236,879.9827279007313,"[97, 0, 157]",157,l,0.08762513459623733,colour,0.5
140,26,0,2,13,27,627,880.4969366688383,881.1988589504963,"[45, 0, 209]",209,a,0.17875825205010187,colour,0.5
140,26,0,2,13,28,628,881.7154666322185,882.494792967178,"[93, 0, 161]",161,l,0.256372618907335,colour,0.5
140,26,0,2,13,29,629,883.0122832569141,883.5588980357352,"[24, 0, 230]",230,a,0.023303844800466322,colour,0.5
140,26,0,2,13,30,630,884.0748121553352,884.798853594195,"[4, 0, 250]",250,a,0.201248017971011,colour,0.5
140,26,0,2,13,31,631,885.3093779366118,885.8947297943414,"[90, 0, 164]",164,l,0.06213820357515942,colour,0.5
140,26,0,2,13,32,632,886.4029745583612,887.0067532706908,"[6, 0, 248]",248,a,0.08042169837244728,colour,0.5
140,26,0,2,13,33,633,887.528094188965,888.158735141189,"[57, 0, 197]",197,a,0.10747967953466286,colour,0.5
140,26,0,2,13,34,634,888.6687163705083,889.2387232155452,"[3, 0, 251]",251,a,0.04670339408403379,colour,0.5
140,26,0,2,13,35,635,889.7466469953906,890.8227883796644,"[40, 0, 214]",214,a,0.5526079274823132,colour,0.5
140,26,0,2,13,36,636,891.3405799612938,891.9267033625747,"[87, 0, 167]",167,l,0.06281837494498177,colour,0.5
140,26,0,2,13,37,637,892.4342541706283,893.078797085227,"[68, 0, 186]",186,l,0.12124891593884968,colour,0.5
140,26,0,2,13,38,638,893.5905604659347,894.6067160128969,"[27, 0, 227]",227,l,0.49280837914557196,colour,0.5
140,26,0,2,13,39,639,895.1218062074804,895.7427392592399,"[42, 0, 212]",212,l,0.09756658550941211,colour,0.5
140,26,0,2,13,40,640,896.2624409920809,897.2867266939884,"[26, 0, 228]",228,a,0.5010035186151072,colour,0.5
140,26,0,2,13,41,641,897.7936961859195,898.5187427187793,"[2, 0, 252]",252,a,0.20198214619085775,colour,0.5
140,26,0,2,13,42,642,899.0280571674775,899.766743755381,"[89, 0, 165]",165,l,0.21543669995116943,colour,0.5
140,26,0,2,13,43,643,900.2780538197912,900.9586745677352,"[81, 0, 173]",173,l,0.1574756229256309,colour,0.5
140,26,0,2,13,44,644,901.4655826197504,902.0067111292101,"[35, 0, 219]",219,a,0.01779591392914881,colour,0.5
140,26,0,2,13,45,645,902.5280571674775,903.1027637721909,"[15, 0, 239]",239,a,0.051461442908475874,colour,0.5
140,26,0,2,13,46,646,903.6226210740479,904.1826884374022,"[94, 0, 160]",160,l,0.03761068046333094,colour,0.5
140,26,0,2,13,47,647,904.6999518720659,905.3826879647877,"[61, 0, 193]",193,l,0.15954567545668397,colour,0.5
140,26,0,2,13,48,648,905.9029844045017,906.8467109559188,"[88, 0, 166]",166,l,0.42038017129198124,colour,0.5
140,26,0,2,13,49,649,907.3560758168551,907.9187323212554,"[65, 0, 189]",189,l,0.039268770484341076,colour,0.5
140,26,0,2,13,50,650,908.434263622923,909.030753828376,"[16, 0, 238]",238,a,0.07317257605791383,colour,0.5
140,26,0,2,14,1,651,913.4647015871196,914.2627021117223,"[31, 0, 223]",223,a,0.27382628100349393,colour,0.5
140,26,0,2,14,2,652,914.7779478753218,915.6706966262391,"[18, 0, 236]",236,a,0.36994154543390323,colour,0.5
140,26,0,2,14,3,653,916.1842397952641,916.8866929808046,"[19, 0, 235]",235,a,0.17917021455832582,colour,0.5
140,26,0,2,14,4,654,917.4029099676809,918.0147054074223,"[60, 0, 194]",194,a,0.08840179814251314,colour,0.5
140,26,0,2,14,5,655,918.5279902137245,919.0947182940508,"[21, 0, 233]",233,a,0.043609736809230526,colour,0.5
140,26,0,2,14,6,656,919.6061055521986,920.2147199009396,"[24, 0, 230]",230,a,0.08530459625580988,colour,0.5
140,26,0,2,14,7,657,920.7310904876049,921.3506880088971,"[5, 0, 249]",249,a,0.09628264881575888,colour,0.5
140,26,0,2,14,8,658,921.8717036106973,922.4627205436955,"[15, 0, 239]",239,a,0.06776192505458312,colour,0.5
140,26,0,2,14,9,659,922.9810631153341,923.5906683796329,"[69, 0, 185]",185,a,0.0862616410922783,colour,0.5
140,26,0,2,14,10,660,924.1061122475749,925.0226890518006,"[58, 0, 196]",196,a,0.3932702025067556,colour,0.5
140,26,0,2,14,11,661,925.5436250967869,926.5106755791312,"[48, 0, 206]",206,a,0.4439278065256076,colour,0.5
140,26,0,2,14,12,662,927.0279520106997,927.8386918654342,"[47, 0, 207]",207,a,0.28753762210180867,colour,0.5
140,26,0,2,14,13,663,928.3559935031226,929.1426835694692,"[68, 0, 186]",186,a,0.26326216017878323,colour,0.5
140,26,0,2,14,14,664,929.6529168599791,930.3666718391723,"[10, 0, 244]",244,a,0.19049170049220265,colour,0.5
140,26,0,2,14,15,665,930.8872778415371,931.5027289562386,"[53, 0, 201]",201,a,0.09214175606393837,colour,0.5
140,26,0,2,14,16,666,932.0122852261429,932.9186696998022,"[76, 0, 178]",178,l,0.3830412442985107,colour,0.5
140,26,0,2,14,17,667,933.4341698876669,934.1586417997805,"[49, 0, 205]",205,a,0.20106330438102304,colour,0.5
140,26,0,2,14,18,668,934.6685312630707,935.3266677589327,"[23, 0, 231]",231,a,0.13483304490728187,colour,0.5
140,26,0,2,14,19,669,935.8404058815322,936.5106562806959,"[75, 0, 179]",179,l,0.14759246116591385,colour,0.5
140,26,0,2,14,20,670,937.0279492537811,937.7186591447407,"[59, 0, 195]",195,l,0.1675753997733409,colour,0.5
140,26,0,2,14,21,671,938.2309778477593,938.8226997644015,"[70, 0, 184]",184,l,0.06835190578021866,colour,0.5
140,26,0,2,14,22,672,939.3403917030901,939.9106959015644,"[37, 0, 217]",217,a,0.04690583072806476,colour,0.5
140,26,0,2,14,23,673,940.4185015277271,941.4546628563421,"[90, 0, 164]",164,l,0.5128480315197521,colour,0.5
140,26,0,2,14,24,674,941.9653419800834,942.7986570652356,"[93, 0, 161]",161,l,0.3098686682424159,colour,0.5
140,26,0,2,14,25,675,943.3091581707613,943.9586245493429,"[50, 0, 204]",204,a,0.12619679835006536,colour,0.5
140,26,0,2,14,26,676,944.4652443063715,945.2226464377054,"[44, 0, 210]",210,l,0.23391554217050725,colour,0.5
140,26,0,2,14,27,677,945.7310617368748,947.2066681212691,"[94, 0, 160]",160,l,0.9523864287093602,colour,0.5
140,26,0,2,14,28,678,947.7153382385495,948.5346528999253,"[1, 0, 253]",253,a,0.2958607613982167,colour,0.5
140,26,0,2,14,29,679,949.0434352632037,949.710671168059,"[80, 0, 174]",174,l,0.14402382608386688,colour,0.5
140,26,0,2,14,30,680,950.230931373977,950.8066269250194,"[79, 0, 175]",175,l,0.05227315871343308,colour,0.5
140,26,0,2,14,31,681,951.3246737186037,951.9906946097508,"[86, 0, 168]",168,l,0.14265442489522684,colour,0.5
140,26,0,2,14,32,682,952.5121761309074,953.5266546832572,"[29, 0, 225]",225,a,0.4911817967713432,colour,0.5
140,26,0,2,14,33,683,954.0434592877846,954.7746269691288,"[87, 0, 167]",167,l,0.2079540271879523,colour,0.5
140,26,0,2,14,34,684,955.2934543647152,956.0546445031359,"[82, 0, 172]",172,l,0.2379461581531359,colour,0.5
140,26,0,2,14,35,685,956.5746837616662,957.3266610635565,"[71, 0, 183]",183,l,0.228607291028311,colour,0.5
140,26,0,2,14,36,686,957.8403416846977,958.5506835978267,"[45, 0, 209]",209,a,0.18776550117217994,colour,0.5
140,26,0,2,14,37,687,959.0590563616697,959.8546071665733,"[91, 0, 163]",163,l,0.2722040309326985,colour,0.5
140,26,0,2,14,38,688,960.3715543432118,961.1586354982501,"[52, 0, 202]",202,a,0.2637257164642506,colour,0.5
140,26,0,2,14,39,689,961.6683863278868,962.4066349594686,"[92, 0, 162]",162,l,0.21496999290138774,colour,0.5
140,26,0,2,14,40,690,962.9184633247023,963.6707694876786,"[41, 0, 213]",213,a,0.22903697659057798,colour,0.5
140,26,0,2,14,41,691,964.1840263309423,964.9105895632492,"[42, 0, 212]",212,a,0.2031432030526048,colour,0.5
140,26,0,2,14,42,692,965.4183191772099,966.1826675635839,"[36, 0, 218]",218,a,0.24095789554121438,colour,0.5
140,26,0,2,14,43,693,966.6997336815984,967.3106642363764,"[17, 0, 237]",237,a,0.08781614971849194,colour,0.5
140,26,0,2,14,44,694,967.8246292140502,968.6066431514573,"[35, 0, 219]",219,a,0.2586478650009667,colour,0.5
140,26,0,2,14,45,695,969.1215616293557,969.7906387624425,"[66, 0, 188]",188,l,0.14582251898900722,colour,0.5
140,26,0,2,14,46,696,970.3090163863399,970.9266600395586,"[28, 0, 226]",226,l,0.0943303561234643,colour,0.5
140,26,0,2,14,47,697,971.4340355863133,972.1586205321164,"[89, 0, 165]",165,l,0.20193134010696667,colour,0.5
140,26,0,2,14,48,698,972.668433195513,973.4226231220455,"[61, 0, 193]",193,a,0.2309490970292245,colour,0.5
140,26,0,2,14,49,699,973.9340048663562,974.6626109758472,"[26, 0, 228]",228,a,0.2052502770711726,colour,0.5
140,26,0,2,14,50,700,975.1839881279175,976.1585929629236,"[12, 0, 242]",242,a,0.4512198580105178,colour,0.5
140,26,0,2,15,1,701,980.7769093044444,981.3186140100333,"[86, 0, 168]",168,l,0.017765587817848427,colour,0.5
140,26,0,2,15,2,702,981.8402928478426,982.4386258569102,"[0, 0, 254]",254,a,0.07600629522858071,colour,0.5
140,26,0,2,15,3,703,982.9498094968785,983.8385863148105,"[22, 0, 232]",232,a,0.3660113600835757,colour,0.5
140,26,0,2,15,4,704,984.3558540817758,985.0705968257625,"[33, 0, 221]",221,a,0.19143811149479006,colour,0.5
140,26,0,2,15,5,705,985.5902048233493,986.1905795280636,"[48, 0, 206]",206,a,0.07702635536224989,colour,0.5
140,26,0,2,15,6,706,986.6996269494375,987.3105972826233,"[49, 0, 205]",205,a,0.08777006978198187,colour,0.5
140,26,0,2,15,7,707,987.8246217309825,988.3746038897771,"[94, 0, 160]",160,l,0.026691310898968368,colour,0.5
140,26,0,2,15,8,708,988.8870450787817,989.4465909905448,"[44, 0, 210]",210,a,0.036175900901071145,colour,0.5
140,26,0,2,15,9,709,989.965163961866,990.6065962838311,"[76, 0, 178]",178,a,0.11806900647752627,colour,0.5
140,26,0,2,15,10,710,991.1214915248365,993.4706195112685,"[5, 0, 249]",249,a,1.8258335939262906,colour,0.5
140,26,0,2,15,11,711,993.9808197187467,994.7505933284137,"[42, 0, 212]",212,a,0.2464945771407656,colour,0.5
140,26,0,2,15,12,712,995.2620380880217,995.8385811948174,"[29, 0, 225]",225,a,0.0535200739177526,colour,0.5
140,26,0,2,15,13,713,996.3558241495102,997.0225827134855,"[27, 0, 227]",227,a,0.1435279744600848,colour,0.5
140,26,0,2,15,14,714,997.543315534138,998.2626217672168,"[34, 0, 220]",220,a,0.1961882834075368,colour,0.5
140,26,0,2,15,15,715,998.7776442203558,999.3105512026868,"[37, 0, 217]",217,a,0.009792183425815892,colour,0.5
140,26,0,2,15,16,716,999.8245287834197,1000.462601996167,"[75, 0, 179]",179,l,0.11477370025022537,colour,0.5
140,26,0,2,15,17,717,1000.9808937617217,1002.0545795186099,"[97, 0, 157]",157,l,0.5505028226907598,colour,0.5
140,26,0,2,15,18,718,1002.5745313434145,1003.1425855019133,"[71, 0, 183]",183,l,0.04474834446955356,colour,0.5
140,26,0,2,15,19,719,1003.6527632601919,1004.6307701335845,"[67, 0, 187]",187,l,0.45481881920386513,colour,0.5
140,26,0,2,15,20,720,1005.1369858050166,1005.6866209858272,"[64, 0, 190]",190,l,0.02624311459476303,colour,0.5
140,26,0,2,15,21,721,1006.1995162788207,1007.3665721962334,"[36, 0, 218]",218,a,0.6438430509497266,colour,0.5
140,26,0,2,15,22,722,1007.887057287995,1008.5985677410517,"[92, 0, 162]",162,l,0.18825859587741434,colour,0.5
140,26,0,2,15,23,723,1009.1057089496699,1009.6705867433138,"[13, 0, 241]",241,a,0.04156882885217783,colour,0.5
140,26,0,2,15,24,724,1010.1838148358493,1010.7906060732566,"[83, 0, 171]",171,l,0.08340468502865406,colour,0.5
140,26,0,2,15,25,725,1011.3088738142287,1012.3665528977981,"[7, 0, 247]",247,a,0.5343421557372494,colour,0.5
140,26,0,2,15,26,726,1012.886974186571,1014.1826352682438,"[70, 0, 184]",184,l,0.7723367569014954,colour,0.5
140,26,0,2,15,27,727,1014.6995509372337,1016.0705826473204,"[18, 0, 236]",236,a,0.8480173418101913,colour,0.5
140,26,0,2,15,28,728,1016.5900764296784,1017.1265292040462,"[54, 0, 200]",200,l,0.013149323413017555,colour,0.5
140,26,0,2,15,29,729,1017.6369487835291,1018.1670149574693,"[38, 0, 216]",216,a,0.0067111292119079735,colour,0.5
140,26,0,2,15,30,730,1018.6994942234669,1020.5585601162002,"[87, 0, 167]",167,l,1.3358089155608468,colour,0.5
140,26,0,2,15,31,731,1021.0743805005459,1021.6226002002313,"[11, 0, 243]",243,a,0.025819336717177066,colour,0.5
140,26,0,2,15,32,732,1022.1368333867649,1022.6865745120449,"[84, 0, 170]",170,l,0.02633803138633084,colour,0.5
140,26,0,2,15,33,733,1023.1994552327506,1024.1906362418304,"[52, 0, 202]",202,a,0.46790394578056294,colour,0.5
140,26,0,2,15,34,734,1024.6995056449887,1025.918639373691,"[53, 0, 201]",201,l,0.6959184991646907,colour,0.5
140,26,0,2,15,35,735,1026.4337795866668,1029.25455265834,"[28, 0, 226]",226,a,2.2974006977365207,colour,0.5
140,26,0,2,15,36,736,1029.7619979157698,1030.5505575672323,"[63, 0, 191]",191,l,0.2653885326344607,colour,0.5
140,26,0,2,15,37,737,1031.0587932728013,1031.8945324776905,"[51, 0, 203]",203,a,0.31245741544262273,colour,0.5
140,26,0,2,15,38,738,1032.4024964297896,1033.2225660932017,"[47, 0, 207]",207,a,0.29708837816724554,colour,0.5
140,26,0,2,15,39,739,1033.7307171219654,1034.3025427460343,"[55, 0, 199]",199,a,0.04853910847668885,colour,0.5
140,26,0,2,15,40,740,1034.808754085163,1035.4705757944066,"[66, 0, 188]",188,a,0.13849738447242999,colour,0.5
140,26,0,2,15,41,741,1035.980645638987,1036.5105574254467,"[30, 0, 224]",224,a,0.006570132482011104,colour,0.5
140,26,0,2,15,42,742,1037.027503026704,1037.5906041827984,"[78, 0, 176]",176,l,0.04005724939815991,colour,0.5
140,26,0,2,15,43,743,1038.1056711404908,1038.7265218785178,"[40, 0, 214]",214,a,0.09758982239873149,colour,0.5
140,26,0,2,15,44,744,1039.2462673282225,1039.990676099007,"[10, 0, 244]",244,a,0.22118960279112798,colour,0.5
140,26,0,2,15,45,745,1040.5118401806012,1041.3345143450388,"[2, 0, 252]",252,a,0.2993738642471726,colour,0.5
140,26,0,2,15,46,746,1041.855623682095,1042.5105093762832,"[65, 0, 189]",189,l,0.131561369416886,colour,0.5
140,26,0,2,15,47,747,1043.0274979067108,1043.6707844538105,"[88, 0, 166]",166,l,0.1203044741650956,colour,0.5
140,26,0,2,15,48,748,1044.1836218515,1045.1344679500253,"[24, 0, 230]",230,a,0.4273776262598403,colour,0.5
140,26,0,2,15,49,749,1045.6524229775823,1046.5825697323344,"[74, 0, 180]",180,l,0.406774774661244,colour,0.5
140,26,0,2,15,50,750,1047.0899858451885,1048.0865617514464,"[99, 0, 155]",155,l,0.47337721823532775,colour,0.5
140,26,0,2,16,1,751,1052.5422950801603,1053.0946147126542,"[38, 0, 216]",216,a,0.02838051472463121,colour,0.5
140,26,0,2,16,2,752,1053.6055376268287,1054.6465097795808,"[33, 0, 221]",221,a,0.5176285295456182,colour,0.5
140,26,0,2,16,3,753,1055.1680637683312,1055.82248551239,"[25, 0, 229]",229,a,0.13157554785902903,colour,0.5
140,26,0,2,16,4,754,1056.339997463634,1056.8944891546744,"[42, 0, 212]",212,a,0.03126267690640816,colour,0.5
140,26,0,2,16,5,755,1057.4023877284017,1058.5825587046584,"[22, 0, 232]",232,a,0.6568407438026043,colour,0.5
140,26,0,2,16,6,756,1059.0900232605218,1059.63848399372,"[23, 0, 231]",231,a,0.02526480209598958,colour,0.5
140,26,0,2,16,7,757,1060.152385168405,1060.782543659756,"[74, 0, 180]",180,l,0.10758916861595935,colour,0.5
140,26,0,2,16,8,758,1061.2930774544657,1062.4304496220266,"[57, 0, 197]",197,l,0.6142073502614949,colour,0.5
140,26,0,2,16,9,759,1062.9493112821801,1063.582559492348,"[14, 0, 240]",240,l,0.10999359607012593,colour,0.5
140,26,0,2,16,10,760,1064.089928737576,1064.9746599733917,"[87, 0, 167]",167,l,0.3614510217539646,colour,0.5
140,26,0,2,16,11,761,1065.4961241653436,1066.038486593101,"[78, 0, 176]",176,l,0.019096785983492737,colour,0.5
140,26,0,2,16,12,762,1066.5587275005855,1067.0865396960926,"[90, 0, 164]",164,l,0.004535132209639414,colour,0.5
140,26,0,2,16,13,763,1067.6054746115296,1068.6305436723578,"[4, 0, 250]",250,a,0.5016785699936008,colour,0.5
140,26,0,2,16,14,764,1069.1367640699373,1070.0544440357207,"[31, 0, 223]",223,a,0.3943717886813829,colour,0.5
140,26,0,2,16,15,765,1070.574239109972,1071.3825414542207,"[35, 0, 219]",219,a,0.2849662041080592,colour,0.5
140,26,0,2,16,16,766,1071.902394423776,1072.6224505388982,"[10, 0, 244]",244,a,0.19674006110835762,colour,0.5
140,26,0,2,16,17,767,1073.1367152330822,1073.7984739270269,"[16, 0, 238]",238,a,0.13838001847943815,colour,0.5
140,26,0,2,16,18,768,1074.308627266877,1074.9664845261996,"[59, 0, 195]",195,l,0.13453135916824976,colour,0.5
140,26,0,2,16,19,769,1075.4804739223,1076.3825190050193,"[79, 0, 175]",175,l,0.37937257243356726,colour,0.5
140,26,0,2,16,20,770,1076.902403482225,1077.6706596047516,"[30, 0, 224]",224,l,0.24496842539701902,colour,0.5
140,26,0,2,16,21,771,1078.1834950332122,1078.710530171331,"[43, 0, 211]",211,a,0.0035568197126849554,colour,0.5
140,26,0,2,16,22,772,1079.230513503784,1080.0945115251034,"[67, 0, 187]",187,a,0.34068866267989506,colour,0.5
140,26,0,2,16,23,773,1080.6054064762393,1081.262480376643,"[89, 0, 165]",165,l,0.1337082218433352,colour,0.5
140,26,0,2,16,24,774,1081.7773248115645,1082.4304834927498,"[94, 0, 160]",160,l,0.13006121148646343,colour,0.5
140,26,0,2,16,25,775,1082.9492073069396,1083.542489246045,"[88, 0, 166]",166,l,0.06991783592820866,colour,0.5
140,26,0,2,16,26,776,1084.0585577531274,1084.7424576596277,"[56, 0, 198]",198,a,0.16060512015064887,colour,0.5
140,26,0,2,16,27,777,1085.2616970177223,1086.4624420948494,"[55, 0, 199]",199,a,0.6778492563807959,colour,0.5
140,26,0,2,16,28,778,1086.9804420208056,1087.5504547735272,"[44, 0, 210]",210,a,0.046733326349567506,colour,0.5
140,26,0,2,16,29,779,1088.058587685393,1088.6384304307176,"[80, 0, 174]",174,l,0.05656056203406479,colour,0.5
140,26,0,2,16,30,780,1089.1522997039065,1089.7344176953266,"[52, 0, 202]",202,a,0.05949825644529483,colour,0.5
140,26,0,2,16,31,781,1090.2460282639368,1090.8624572972894,"[91, 0, 163]",163,l,0.09305784095340641,colour,0.5
140,26,0,2,16,32,782,1091.371047857756,1091.9024653159868,"[47, 0, 207]",207,a,0.00800333666120423,colour,0.5
140,26,0,2,16,33,783,1092.4335066516578,1093.0784745256715,"[77, 0, 177]",177,l,0.12162582618839224,colour,0.5
140,26,0,2,16,34,784,1093.5897747439412,1094.8464427470572,"[26, 0, 228]",228,a,0.733268453832352,colour,0.5
140,26,0,2,16,35,785,1095.355383436272,1096.1185053874142,"[7, 0, 247]",247,a,0.24046165007166564,colour,0.5
140,26,0,2,16,36,786,1096.6366085009213,1097.3345308865537,"[51, 0, 203]",203,a,0.1745980608611717,colour,0.5
140,26,0,2,16,37,787,1097.839778485475,1098.5584541717308,"[29, 0, 225]",225,a,0.19571842559344077,colour,0.5
140,26,0,2,16,38,788,1099.0741371039585,1099.8544082745393,"[76, 0, 178]",178,l,0.2569397565875988,colour,0.5
140,26,0,2,16,39,789,1100.3709974455178,1101.182477336155,"[17, 0, 237]",237,a,0.28817289507242094,colour,0.5
140,26,0,2,16,40,790,1101.699217350002,1102.3904577510002,"[63, 0, 191]",191,a,0.16799602688661253,colour,0.5
140,26,0,2,16,41,791,1102.9022423993702,1103.4864792801764,"[20, 0, 234]",234,a,0.06090467912144959,colour,0.5
140,26,0,2,16,42,792,1103.9959559932668,1104.622403671272,"[62, 0, 192]",192,l,0.10315761780111643,colour,0.5
140,26,0,2,16,43,793,1105.136650642402,1105.6864614783553,"[75, 0, 179]",179,a,0.026495963476918405,colour,0.5
140,26,0,2,16,44,794,1106.1991732392944,1106.950454222144,"[66, 0, 188]",188,l,0.2279830457355274,colour,0.5
140,26,0,2,16,45,795,1107.4647453039815,1109.1263984473026,"[39, 0, 215]",215,a,1.1383595385068475,colour,0.5
140,26,0,2,16,46,796,1109.6366289808939,1110.3184245702942,"[96, 0, 158]",158,l,0.1584811107695714,colour,0.5
140,26,0,2,16,47,797,1110.8396942025138,1111.3668849096484,"[19, 0, 235]",235,a,0.004744658075651387,colour,0.5
140,26,0,2,16,48,798,1111.8865653748271,1112.4864505294463,"[28, 0, 226]",226,a,0.0765513775531872,colour,0.5
140,26,0,2,16,49,799,1112.99593590714,1114.0864498992942,"[95, 0, 159]",159,l,0.5673074272199301,colour,0.5
140,26,0,2,16,50,800,1114.6053281009627,1115.7104348606936,"[18, 0, 236]",236,a,0.5818131549167447,colour,0.5
