id,age,condition,counterbalance,block,trialinblock,trial,tstart,tend,trialstim,trialintensity,response,RT,trialtype,colourfreq
53,76,1,1,Practice,1,NA,5.120004061609507e-06,2.4926226722163847,"[79, 0, 175]",175,a,1.8434016800601967,colour,0.5
53,76,1,1,Practice,2,NA,3.0010173044138355,5.148723367630737,"[45, 0, 209]",209,a,1.624476824712474,colour,0.5
53,76,1,1,Practice,3,NA,5.657620941274217,7.3806415988947265,"[54, 0, 200]",200,a,1.1998969698761357,colour,0.5
53,76,1,1,Practice,4,NA,7.892055061252904,9.972690713068005,"[61, 0, 193]",193,a,1.5574914840544807,colour,0.5
53,76,1,1,Practice,5,NA,10.486088371966616,11.788644472384476,"[48, 0, 206]",206,a,0.7793796372861834,colour,0.5
53,76,1,1,Practice,6,NA,12.298941381130135,23.292680410057073,"[87, 0, 167]",167,a,10.470835107276798,colour,0.5
53,76,1,1,Practice,7,NA,23.799589061003644,26.524656536683324,"[31, 0, 223]",223,a,2.2018858925584937,colour,0.5
53,76,1,1,Practice,8,NA,27.034217740947497,28.180672161339317,"[51, 0, 203]",203,a,0.6232736249512527,colour,0.5
53,76,1,1,Practice,9,NA,28.69059058401035,29.740631484921323,"[12, 0, 242]",242,a,0.5269313916214742,colour,0.5
53,76,1,1,Practice,10,NA,30.253300134732854,31.39665813726606,"[42, 0, 212]",212,a,0.620202019403223,colour,0.5
53,76,1,1,1,1,1,5.098333912945236,6.935923606462893,"[25, 0, 229]",229,a,1.3136093905486632,colour,0.5
53,76,1,1,1,2,2,7.443083925056271,8.799894291703822,"[58, 0, 196]",196,a,0.8335905804560753,colour,0.5
53,76,1,1,1,3,3,9.318198485023458,11.383892798243323,"[13, 0, 241]",241,a,1.5426442746829707,colour,0.5
53,76,1,1,1,4,4,11.89647952807718,22.087912351911655,"[67, 0, 187]",187,a,9.668214219171205,colour,0.5
53,76,1,1,1,5,5,22.600497112522135,27.087902899613255,"[86, 0, 168]",168,a,3.964312031646841,colour,0.5
53,76,1,1,1,6,6,27.600844878601492,28.975854872449418,"[11, 0, 243]",243,a,0.851857949179248,colour,0.5
53,76,1,1,1,7,7,29.48194156662794,31.175912137667183,"[94, 0, 160]",160,a,1.1707141571532702,colour,0.5
53,76,1,1,1,8,8,31.673695375022362,33.343948929192265,"[9, 0, 245]",245,a,1.1471271094924305,colour,0.5
53,76,1,1,1,9,9,33.86298646390787,36.30389517707226,"[89, 0, 165]",165,a,1.9175223300844664,colour,0.5
53,76,1,1,1,10,10,36.816978152957745,38.74387047505297,"[46, 0, 208]",208,a,1.4037867512524826,colour,0.5
53,76,1,1,1,11,11,39.25466166061233,40.559881342051085,"[18, 0, 236]",236,a,0.7819675998616731,colour,0.5
53,76,1,1,1,12,12,41.06730908212194,42.2639351603284,"[26, 0, 228]",228,a,0.6734610366111156,colour,0.5
53,76,1,1,1,13,13,42.77055709133856,43.83189625463274,"[22, 0, 232]",232,a,0.5380413955863332,colour,0.5
53,76,1,1,1,14,14,44.34880702053488,45.47188549477141,"[27, 0, 227]",227,a,0.5998775926418602,colour,0.5
53,76,1,1,1,15,15,45.991371620155405,47.75990552420262,"[52, 0, 202]",202,a,1.2452885178499855,colour,0.5
53,76,1,1,1,16,16,48.27280378626892,49.391877239744645,"[35, 0, 219]",219,a,0.5958194026607089,colour,0.5
53,76,1,1,1,17,17,49.897930457023904,63.12794916864368,"[78, 0, 176]",176,l,12.70682255619613,colour,0.5
53,76,1,1,1,18,18,63.649050456806435,66.04786608288123,"[51, 0, 203]",203,a,1.8756966644868953,colour,0.5
53,76,1,1,1,19,19,66.55549586599227,67.56790359277511,"[53, 0, 201]",201,a,0.4892084205785068,colour,0.5
53,76,1,1,1,20,20,68.08681470289594,69.12789521172817,"[45, 0, 209]",209,a,0.517776439563022,colour,0.5
53,76,1,1,1,21,21,69.63385626902163,70.59190142189618,"[5, 0, 249]",249,a,0.4349005912808934,colour,0.5
53,76,1,1,1,22,22,71.10271781361371,71.75189036270604,"[82, 0, 172]",172,l,0.12591337828780524,colour,0.5
53,76,1,1,1,23,23,72.25982892114553,73.19261711898434,"[80, 0, 174]",174,l,0.4102607930544764,colour,0.5
53,76,1,1,1,24,24,73.70560242104693,74.7439074965805,"[65, 0, 189]",189,a,0.515111283180886,colour,0.5
53,76,1,1,1,25,25,75.25258097179176,75.86390136834234,"[19, 0, 235]",235,l,0.08812975496402942,colour,0.5
53,76,1,1,1,26,26,76.38035724201472,77.5999047680234,"[8, 0, 246]",246,a,0.6952805030887248,colour,0.5
53,76,1,1,1,27,27,78.11582067872223,79.30390738630376,"[14, 0, 240]",240,a,0.664809025998693,colour,0.5
53,76,1,1,1,28,28,79.81912500792532,81.02392969375069,"[30, 0, 224]",224,a,0.6815892319427803,colour,0.5
53,76,1,1,1,29,29,81.53803627558227,82.75987480420736,"[96, 0, 158]",158,l,0.6985482439777115,colour,0.5
53,76,1,1,1,30,30,83.27247098633961,84.35190777070238,"[28, 0, 226]",226,a,0.556122081266949,colour,0.5
53,76,1,1,1,31,31,84.8664428570628,85.93590903416043,"[47, 0, 207]",207,a,0.5463121631910326,colour,0.5
53,76,1,1,1,32,32,86.44477194933279,87.44788530256483,"[41, 0, 213]",213,a,0.4798549701226875,colour,0.5
53,76,1,1,1,33,33,87.96053071545612,88.591858886517,"[87, 0, 167]",167,l,0.10801583103602752,colour,0.5
53,76,1,1,1,34,34,89.10127397389442,90.23190365894698,"[34, 0, 220]",220,a,0.6075501080485992,colour,0.5
53,76,1,1,1,35,35,90.74205287541554,91.7918759794411,"[38, 0, 216]",216,a,0.5266793301270809,colour,0.5
53,76,1,1,1,36,36,92.30462182308838,93.19988869909139,"[0, 0, 254]",254,a,0.37199943442828953,colour,0.5
53,76,1,1,1,37,37,93.71095990922186,94.83188247002545,"[66, 0, 188]",188,l,0.5976318823086331,colour,0.5
53,76,1,1,1,38,38,95.35179788764799,96.85589684068691,"[43, 0, 211]",211,a,0.9811009021941572,colour,0.5
53,76,1,1,1,39,39,97.36769272759557,98.69588308758102,"[55, 0, 199]",199,a,0.8052817121933913,colour,0.5
53,76,1,1,1,40,40,99.21153709065402,100.27191645106359,"[60, 0, 194]",194,a,0.5371733588253846,colour,0.5
53,76,1,1,1,41,41,100.78967280448705,101.59988507571688,"[91, 0, 163]",163,l,0.2877919925667811,colour,0.5
53,76,1,1,1,42,42,102.11793720754213,103.2798658402753,"[31, 0, 223]",223,a,0.6388569326663855,colour,0.5
53,76,1,1,1,43,43,103.7805855939805,104.95987968789996,"[21, 0, 233]",233,a,0.6559927815978881,colour,0.5
53,76,1,1,1,44,44,105.46824123701663,106.44788569641241,"[64, 0, 190]",190,a,0.4565849685459398,colour,0.5
53,76,1,1,1,45,45,106.96840330467967,107.99190567544429,"[97, 0, 157]",157,l,0.5004850214463659,colour,0.5
53,76,1,1,1,46,46,108.49978358157387,109.54388410212414,"[79, 0, 175]",175,l,0.5209689558687387,colour,0.5
53,76,1,1,1,47,47,110.06233953233459,111.19187826375128,"[50, 0, 204]",204,a,0.6062842867686413,colour,0.5
53,76,1,1,1,48,48,111.70304084617237,112.86388640219229,"[92, 0, 162]",162,l,0.6374985575384926,colour,0.5
53,76,1,1,1,49,49,113.37509506459173,114.98384837240155,"[69, 0, 185]",185,l,1.0856276508275187,colour,0.5
53,76,1,1,1,50,50,115.50028888609086,116.62388605560409,"[98, 0, 156]",156,l,0.6004998694406822,colour,0.5
53,76,1,1,2,1,51,121.9687640676857,124.3118902524293,"[0, 0, 254]",254,a,1.816895839132485,colour,0.5
53,76,1,1,2,2,52,124.83317467900633,128.40786739044415,"[34, 0, 220]",220,a,3.0514544144825777,colour,0.5
53,76,1,1,2,3,53,128.9272440266359,130.10384500108194,"[2, 0, 252]",252,a,0.6532933605776634,colour,0.5
53,76,1,1,2,4,54,130.61474764508603,131.67184941846062,"[29, 0, 225]",225,a,0.5337500487366924,colour,0.5
53,76,1,1,2,5,55,132.1931098204368,133.25588730961317,"[60, 0, 194]",194,a,0.5394832660822431,colour,0.5
53,76,1,1,2,6,56,133.7711494358373,134.76786357801757,"[76, 0, 178]",178,l,0.47328049756470136,colour,0.5
53,76,1,1,2,7,57,135.28716262652597,137.80788503475196,"[33, 0, 221]",221,a,1.9963514099508757,colour,0.5
53,76,1,1,2,8,58,138.31984870009182,139.00789425075345,"[98, 0, 156]",156,l,0.16484939523797948,colour,0.5
53,76,1,1,2,9,59,139.5231717369752,140.52792821603362,"[8, 0, 246]",246,a,0.4815272405539872,colour,0.5
53,76,1,1,2,10,60,141.03881274312153,141.88786965899635,"[94, 0, 160]",160,l,0.32579538198478986,colour,0.5
53,76,1,1,2,11,61,142.39830283848278,143.30389242015372,"[67, 0, 187]",187,l,0.38231426317361183,colour,0.5
53,76,1,1,2,12,62,143.82029079231143,144.90387241277494,"[80, 0, 174]",174,l,0.5603630158002488,colour,0.5
53,76,1,1,2,13,63,145.41419295227388,146.4558709256089,"[66, 0, 188]",188,l,0.5184546425152803,colour,0.5
53,76,1,1,2,14,64,146.97678868149524,147.98392911085102,"[32, 0, 222]",222,a,0.4943307826470118,colour,0.5
53,76,1,1,2,15,65,148.49770840660494,149.68801167990023,"[90, 0, 164]",164,l,0.6670661578682484,colour,0.5
53,76,1,1,2,16,66,150.20115373269073,151.2399137004395,"[78, 0, 176]",176,l,0.5158395045727957,colour,0.5
53,76,1,1,2,17,67,151.74794481271238,152.895872611276,"[30, 0, 224]",224,a,0.6246843816043111,colour,0.5
53,76,1,1,2,18,68,153.4052876986534,154.45585635330644,"[97, 0, 157]",157,l,0.5282696805807063,colour,0.5
53,76,1,1,2,19,69,154.9551937072829,155.94385566643905,"[69, 0, 185]",185,a,0.46353123179869726,colour,0.5
53,76,1,1,2,20,70,156.45720842688752,157.66385079850443,"[64, 0, 190]",190,a,0.692461352868122,colour,0.5
53,76,1,1,2,21,71,158.1825748317351,159.15988496544014,"[72, 0, 182]",182,l,0.4540702613594476,colour,0.5
53,76,1,1,2,22,72,159.66716698245727,160.7358943043073,"[21, 0, 233]",233,a,0.5456666494574165,colour,0.5
53,76,1,1,2,23,73,161.24537910244544,162.39189929513668,"[63, 0, 191]",191,a,0.6232724434230477,colour,0.5
53,76,1,1,2,24,74,162.90174249319534,163.95188736947603,"[47, 0, 207]",207,a,0.5270652992912801,colour,0.5
53,76,1,1,2,25,75,164.46437563777727,165.48787170699507,"[24, 0, 230]",230,a,0.49949410470435396,colour,0.5
53,76,1,1,2,26,76,165.99652548991435,166.97584542013647,"[61, 0, 193]",193,a,0.4560501255764393,colour,0.5
53,76,1,1,2,27,77,167.49663990219415,168.59184273883875,"[14, 0, 240]",240,a,0.5719708412216278,colour,0.5
53,76,1,1,2,28,78,169.10614466833067,170.20784163291682,"[38, 0, 216]",216,a,0.5790722798119532,colour,0.5
53,76,1,1,2,29,79,170.71570654213428,171.7919421455881,"[56, 0, 198]",198,a,0.5530780449334998,colour,0.5
53,76,1,1,2,30,80,172.30944289290346,173.03187041833007,"[54, 0, 200]",200,a,0.19910337001783773,colour,0.5
53,76,1,1,2,31,81,173.5439664159494,174.24786230195605,"[89, 0, 165]",165,l,0.1806552259658929,colour,0.5
53,76,1,1,2,32,82,174.76286803439143,175.82393150543794,"[20, 0, 234]",234,a,0.537850380234886,colour,0.5
53,76,1,1,2,33,83,176.33174797159154,177.27988986487617,"[44, 0, 210]",210,a,0.4249547963117948,colour,0.5
53,76,1,1,2,34,84,177.80066662386525,178.8319013746368,"[15, 0, 239]",239,a,0.5081764414644567,colour,0.5
53,76,1,1,2,35,85,179.3476947992167,180.33585972462606,"[25, 0, 229]",229,a,0.464996733047883,colour,0.5
53,76,1,1,2,36,86,180.84783008534578,181.88786532668746,"[88, 0, 166]",166,l,0.5168922551238211,colour,0.5
53,76,1,1,2,37,87,182.39476806994935,183.4638856932579,"[81, 0, 173]",173,l,0.5459588832454756,colour,0.5
53,76,1,1,2,38,88,183.96050629700767,185.09587395035487,"[9, 0, 245]",245,a,0.6120371964061633,colour,0.5
53,76,1,1,2,39,89,185.61697563235066,186.68788840607158,"[84, 0, 170]",170,l,0.5477457629021956,colour,0.5
53,76,1,1,2,40,90,187.1951873584767,188.18388633917493,"[40, 0, 214]",214,a,0.46545359450101387,colour,0.5
53,76,1,1,2,41,91,188.69759434877778,189.71990139668924,"[31, 0, 223]",223,a,0.49911955709103495,colour,0.5
53,76,1,1,2,42,92,190.22978988706018,191.167972594616,"[52, 0, 202]",202,a,0.41573013352171984,colour,0.5
53,76,1,1,2,43,93,191.67193606459477,192.95187437254936,"[7, 0, 247]",247,a,0.7566976479138248,colour,0.5
53,76,1,1,2,44,94,193.46890486766642,194.52788174219313,"[68, 0, 186]",186,l,0.5361875621019863,colour,0.5
53,76,1,1,2,45,95,195.04710753534164,196.17586842074525,"[85, 0, 169]",169,l,0.6055072284507332,colour,0.5
53,76,1,1,2,46,96,196.68959179036028,197.74391891811683,"[3, 0, 251]",251,a,0.5302625417389208,colour,0.5
53,76,1,1,2,47,97,198.25307721785794,199.21585600671824,"[28, 0, 226]",226,a,0.43950386422511656,colour,0.5
53,76,1,1,2,48,98,199.72200217166392,200.81587262701942,"[86, 0, 168]",168,l,0.5707054137601517,colour,0.5
53,76,1,1,2,49,99,201.3314041439735,202.23993733120733,"[17, 0, 237]",237,a,0.38529173951246776,colour,0.5
53,76,1,1,2,50,100,202.75345708239183,203.78387657178973,"[46, 0, 208]",208,a,0.5073151000979124,colour,0.5
53,76,1,1,3,1,101,209.0812937685987,212.42387093191792,"[71, 0, 183]",183,a,2.8185586572799366,colour,0.5
53,76,1,1,3,2,102,212.94177576531365,214.1039135302999,"[45, 0, 209]",209,a,0.6389983233966632,colour,0.5
53,76,1,1,3,3,103,214.61372167606896,215.38382426902535,"[92, 0, 162]",162,l,0.24683869600994512,colour,0.5
53,76,1,1,3,4,104,215.89519283294794,217.14390741781972,"[48, 0, 206]",206,a,0.7255952294217423,colour,0.5
53,76,1,1,3,5,105,217.66300757405406,218.4238224888395,"[43, 0, 211]",211,a,0.23762978705053683,colour,0.5
53,76,1,1,3,6,106,218.94440862632473,220.03989069983072,"[76, 0, 178]",178,l,0.5722252657724312,colour,0.5
53,76,1,1,3,7,107,220.55388385400875,221.55984392667597,"[23, 0, 231]",231,a,0.48280054492352065,colour,0.5
53,76,1,1,3,8,108,222.069654435516,223.27986662795593,"[80, 0, 174]",174,l,0.6857640003290726,colour,0.5
53,76,1,1,3,9,109,223.78987721061276,225.06384717511537,"[24, 0, 230]",230,a,0.7510731320944615,colour,0.5
53,76,1,1,3,10,110,225.5713131182565,226.6638476477383,"[16, 0, 238]",238,a,0.5694880355586065,colour,0.5
53,76,1,1,3,11,111,227.18074738593714,228.2158871205611,"[61, 0, 193]",193,a,0.5118183361337287,colour,0.5
53,76,1,1,3,12,112,228.72782479206217,230.1358485394012,"[75, 0, 179]",179,l,0.8847657580772648,colour,0.5
53,76,1,1,3,13,113,230.65070264108363,231.62385021560476,"[38, 0, 216]",216,a,0.4500357021461241,colour,0.5
53,76,1,1,3,14,114,232.13522508105962,233.1839009114774,"[72, 0, 182]",182,a,0.5256738410971593,colour,0.5
53,76,1,1,3,15,115,233.69782199180918,235.14389442089305,"[54, 0, 200]",200,a,0.922829405972152,colour,0.5
53,76,1,1,3,16,116,235.6510606471711,236.63985533245432,"[95, 0, 159]",159,l,0.4656627267540898,colour,0.5
53,76,1,1,3,17,117,237.15123886252695,238.20785659906687,"[40, 0, 214]",214,a,0.5335464303207118,colour,0.5
53,76,1,1,3,18,118,238.71387358249922,240.47193630090624,"[19, 0, 235]",235,a,1.2348326922219712,colour,0.5
53,76,1,1,3,19,119,240.97965942554583,242.11188261181815,"[91, 0, 163]",163,l,0.6090372708422365,colour,0.5
53,76,1,1,3,20,120,242.62092551463866,243.53586933447514,"[39, 0, 215]",215,a,0.39167755978996865,colour,0.5
53,76,1,1,3,21,121,244.04285045310098,245.08785327500664,"[20, 0, 234]",234,a,0.5217507403285708,colour,0.5
53,76,1,1,3,22,122,245.60564980072377,246.62385376021848,"[29, 0, 225]",225,a,0.49500859175168443,colour,0.5
53,76,1,1,3,23,123,247.1379528589896,248.1118637072068,"[79, 0, 175]",175,l,0.4506233205029275,colour,0.5
53,76,1,1,3,24,124,248.6224339451146,249.5358701221703,"[74, 0, 180]",180,l,0.39017976316972636,colour,0.5
53,76,1,1,3,25,125,250.04441599124402,251.08793243806576,"[47, 0, 207]",207,a,0.5202564883220475,colour,0.5
53,76,1,1,3,26,126,251.6070069943089,252.63190751863294,"[14, 0, 240]",240,a,0.5016488365945406,colour,0.5
53,76,1,1,3,27,127,253.13841405273706,254.40784769813763,"[26, 0, 228]",228,a,0.7442028811346972,colour,0.5
53,76,1,1,3,28,128,254.9218270676938,256.15985897160135,"[99, 0, 155]",155,l,0.7148644992266782,colour,0.5
53,76,1,1,3,29,129,256.6718761999946,257.6239400125196,"[42, 0, 212]",212,a,0.4374783138628118,colour,0.5
53,76,1,1,3,30,130,258.1320711616863,259.15189540393476,"[89, 0, 165]",165,l,0.4966288745199563,colour,0.5
53,76,1,1,3,31,131,259.66344907550956,260.69586969680677,"[78, 0, 176]",176,l,0.5090444782108534,colour,0.5
53,76,1,1,3,32,132,261.21061982313404,262.2798248802719,"[94, 0, 160]",160,l,0.5459187109518098,colour,0.5
53,76,1,1,3,33,133,262.78882249080925,263.8718854159961,"[37, 0, 217]",217,a,0.5597683082305593,colour,0.5
53,76,1,1,3,34,134,264.3827553707815,265.5118466930435,"[32, 0, 222]",222,a,0.6059054068318801,colour,0.5
53,76,1,1,3,35,135,266.01112024395843,267.18384025918203,"[51, 0, 203]",203,a,0.6494553305674344,colour,0.5
53,76,1,1,3,36,136,267.69876092085906,268.6078458864504,"[66, 0, 188]",188,a,0.3859151978540467,colour,0.5
53,76,1,1,3,37,137,269.1207429669885,270.1198276687064,"[9, 0, 245]",245,a,0.4747144911380019,colour,0.5
53,76,1,1,3,38,138,270.6394268279255,271.6878785599256,"[98, 0, 156]",156,l,0.5250389612192521,colour,0.5
53,76,1,1,3,39,139,272.2020312217501,273.2238550205366,"[36, 0, 218]",218,a,0.49914003709272947,colour,0.5
53,76,1,1,3,40,140,273.73342055710964,274.8558594253118,"[81, 0, 173]",173,l,0.5992360173841007,colour,0.5
53,76,1,1,3,41,141,275.3742490832228,277.4718732855399,"[4, 0, 250]",250,a,1.5743965392030077,colour,0.5
53,76,1,1,3,42,142,277.971952251668,279.07188833045075,"[46, 0, 208]",208,a,0.5766209818248171,colour,0.5
53,76,1,1,3,43,143,279.5814585931803,280.5678720850992,"[68, 0, 186]",186,a,0.4638148009835277,colour,0.5
53,76,1,1,3,44,144,281.08162026699574,282.1038898995321,"[86, 0, 168]",168,l,0.4990719017077936,colour,0.5
53,76,1,1,3,45,145,282.61299306082947,283.57588567120547,"[2, 0, 252]",252,a,0.4521675909491023,colour,0.5
53,76,1,1,3,46,146,284.08500931249,285.02384816760605,"[22, 0, 232]",232,a,0.4157931488880422,colour,0.5
53,76,1,1,3,47,147,285.5395754260535,286.6238191017619,"[31, 0, 223]",223,a,0.5609317295311484,colour,0.5
53,76,1,1,3,48,148,287.1335083060112,287.93589170492487,"[55, 0, 199]",199,a,0.2792148127045948,colour,0.5
53,76,1,1,3,49,149,288.44615001675265,289.423942611902,"[65, 0, 189]",189,a,0.45456059972639196,colour,0.5
53,76,1,1,3,50,150,289.93060589673405,290.98394486469624,"[50, 0, 204]",204,a,0.5301290279167006,colour,0.5
53,76,1,1,4,1,151,295.67533850084874,298.4398843195231,"[35, 0, 219]",219,a,2.2405198295600712,colour,0.5
53,76,1,1,4,2,152,298.9576134975796,300.78389390101074,"[63, 0, 191]",191,a,1.3029991772491485,colour,0.5
53,76,1,1,4,3,153,301.29800087670446,302.4558669871476,"[33, 0, 221]",221,a,0.6346199365652865,colour,0.5
53,76,1,1,4,4,154,302.97005312590045,303.94386157412373,"[87, 0, 167]",167,l,0.4498423237237148,colour,0.5
53,76,1,1,4,5,155,304.45535104878945,305.39986640740244,"[42, 0, 212]",212,a,0.4212120770534966,colour,0.5
53,76,1,1,4,6,156,305.90855721184926,306.935867680324,"[65, 0, 189]",189,a,0.5049504482594784,colour,0.5
53,76,1,1,4,7,157,307.4555775102781,308.6158429310308,"[56, 0, 198]",198,a,0.6370346068579238,colour,0.5
53,76,1,1,4,8,158,309.1282961470424,310.1838449853385,"[89, 0, 165]",165,l,0.5323550459434045,colour,0.5
53,76,1,1,4,9,159,310.6908308301063,312.1438093501347,"[12, 0, 242]",242,a,0.9296137984783854,colour,0.5
53,76,1,1,4,10,160,312.65980599929753,313.8238649454579,"[74, 0, 180]",180,l,0.6408104091970017,colour,0.5
53,76,1,1,4,11,161,314.33183579926845,315.3998356874072,"[48, 0, 206]",206,a,0.545268077228684,colour,0.5
53,76,1,1,4,12,162,315.91011014692776,316.8078444686107,"[55, 0, 199]",199,a,0.3752797784109134,colour,0.5
53,76,1,1,4,13,163,317.31641396845225,318.35984888912935,"[41, 0, 213]",213,a,0.5201391221780796,colour,0.5
53,76,1,1,4,14,164,318.88092733421945,319.92781155882403,"[9, 0, 245]",245,a,0.5236530168767786,colour,0.5
53,76,1,1,4,15,165,320.44361167879833,321.4958250346681,"[84, 0, 170]",170,l,0.5289691512152785,colour,0.5
53,76,1,1,4,16,166,322.0062723926094,322.95982218637073,"[58, 0, 196]",196,a,0.43034418602474034,colour,0.5
53,76,1,1,4,17,167,323.4752194018074,324.44783882872434,"[13, 0, 241]",241,a,0.44950322224758565,colour,0.5
53,76,1,1,4,18,168,324.95955870334,326.071828072003,"[32, 0, 222]",222,a,0.5889790840155911,colour,0.5
53,76,1,1,4,19,169,326.58763016120065,327.7518631873245,"[2, 0, 252]",252,a,0.6410380522283958,colour,0.5
53,76,1,1,4,20,170,328.25962687810534,328.96788145863684,"[11, 0, 243]",243,a,0.18497453589225188,colour,0.5
53,76,1,1,4,21,171,329.472080054722,330.69581889067194,"[37, 0, 217]",217,a,0.7005249574431218,colour,0.5
53,76,1,1,4,22,172,331.2065080700995,331.9758111555275,"[95, 0, 159]",159,l,0.24591433926252648,colour,0.5
53,76,1,1,4,23,173,332.48788076546043,333.2078818052105,"[99, 0, 155]",155,l,0.19670642279379535,colour,0.5
53,76,1,1,4,24,174,333.7230092360842,334.85580822531483,"[18, 0, 236]",236,a,0.6085804093891056,colour,0.5
53,76,1,1,4,25,175,335.36486058046285,336.4878657993104,"[72, 0, 182]",182,l,0.5997712542011868,colour,0.5
53,76,1,1,4,26,176,337.005571346599,338.1438333747501,"[50, 0, 204]",204,a,0.6149615035101306,colour,0.5
53,76,1,1,4,27,177,338.66199735886767,339.9198475973244,"[71, 0, 183]",183,l,0.734652113795164,colour,0.5
53,76,1,1,4,28,178,340.41528429975733,341.64784568165487,"[10, 0, 244]",244,a,0.7093108757107984,colour,0.5
53,76,1,1,4,29,179,342.1655035735603,343.24782252350997,"[66, 0, 188]",188,l,0.5591865975875407,colour,0.5
53,76,1,1,4,30,180,343.7593131797039,344.87189171752834,"[53, 0, 201]",201,a,0.5892870716488687,colour,0.5
53,76,1,1,4,31,181,345.378948060752,346.6558332739223,"[23, 0, 231]",231,a,0.7537835807888769,colour,0.5
53,76,1,1,4,32,182,347.17587472229206,348.3838518382545,"[30, 0, 224]",224,a,0.6848278282122919,colour,0.5
53,76,1,1,4,33,183,348.89655593421776,349.7278177028202,"[0, 0, 254]",254,a,0.3081432008475531,colour,0.5
53,76,1,1,4,34,184,350.2404193988041,351.7678529441764,"[20, 0, 234]",234,a,1.0042870145407505,colour,0.5
53,76,1,1,4,35,185,352.2873437957169,353.3838313582528,"[1, 0, 253]",253,a,0.5732224840321578,colour,0.5
53,76,1,1,4,36,186,353.89758820478164,354.9838743662549,"[8, 0, 246]",246,a,0.5630636183486786,colour,0.5
53,76,1,1,4,37,187,355.4914104139898,356.7839309225528,"[22, 0, 232]",232,a,0.7692361316003371,colour,0.5
53,76,1,1,4,38,188,357.3040995831834,358.5518126174866,"[70, 0, 184]",184,l,0.7244893096358282,colour,0.5
53,76,1,1,4,39,189,359.0698970446974,360.1278054148279,"[46, 0, 208]",208,a,0.5346590454864781,colour,0.5
53,76,1,1,4,40,190,360.6492241429223,361.7758039087639,"[38, 0, 216]",216,a,0.603321382732247,colour,0.5
53,76,1,1,4,41,191,362.29000383212406,363.47981755474757,"[81, 0, 173]",173,l,0.6665179241390433,colour,0.5
53,76,1,1,4,42,192,363.99318764441705,364.95182474794274,"[17, 0, 237]",237,a,0.43536257272353396,colour,0.5
53,76,1,1,4,43,193,365.4620373736252,366.5439148221194,"[96, 0, 158]",158,l,0.5586623884446453,colour,0.5
53,76,1,1,4,44,194,367.05708798875276,368.10380167802214,"[75, 0, 179]",179,l,0.5234360077010933,colour,0.5
53,76,1,1,4,45,195,368.61968253643136,369.62383485560713,"[83, 0, 171]",171,l,0.4809136283729458,colour,0.5
53,76,1,1,4,46,196,370.1354271240998,371.13589304400375,"[93, 0, 161]",161,l,0.4773603490757523,colour,0.5
53,76,1,1,4,47,197,371.6512386655959,372.6558159447013,"[85, 0, 169]",169,l,0.48148509903694503,colour,0.5
53,76,1,1,4,48,198,373.1669182686601,374.2879786755948,"[69, 0, 185]",185,a,0.5978922145732213,colour,0.5
53,76,1,1,4,49,199,374.80971563131607,375.9918477800675,"[59, 0, 195]",195,a,0.6593215686298208,colour,0.5
53,76,1,1,4,50,200,376.50700671861705,377.67984646304103,"[39, 0, 215]",215,a,0.6495845120807644,colour,0.5
53,76,1,1,5,1,201,382.58505519555183,384.4558539902355,"[21, 0, 233]",233,a,1.3467050640465459,colour,0.4
53,76,1,1,5,2,202,384.9767197584297,386.61591146024875,"[53, 0, 201]",201,a,1.116028235614067,colour,0.4
53,76,1,1,5,3,203,387.133205438382,388.80799137319264,"[84, 0, 170]",170,l,1.1515909609152004,colour,0.4
53,76,1,1,5,4,204,389.32088766603556,390.4638100748125,"[49, 0, 205]",205,a,0.6197242841153638,colour,0.4
53,76,1,1,5,5,205,390.9647555023257,392.1438463716768,"[57, 0, 197]",197,a,0.6683670314669143,colour,0.4
53,76,1,1,5,6,206,392.6555686093634,393.75985314267746,"[28, 0, 226]",226,a,0.5810056702030124,colour,0.4
53,76,1,1,5,7,207,394.28074332933465,395.3678254537226,"[3, 0, 251]",251,a,0.5631152121932246,colour,0.4
53,76,1,1,5,8,208,395.87542648606177,396.96781056633336,"[8, 0, 246]",246,a,0.5692489709763322,colour,0.4
53,76,1,1,5,9,209,397.4849190429668,398.63180945096246,"[55, 0, 199]",199,a,0.6238699079112848,colour,0.4
53,76,1,1,5,10,210,399.12884241154825,400.2317973205063,"[89, 0, 165]",165,l,0.5797059781471035,colour,0.4
53,76,1,1,5,11,211,400.73835781152593,401.83182811926235,"[38, 0, 216]",216,a,0.5702162569359643,colour,0.4
53,76,1,1,5,12,212,402.34792007917713,403.27981030796946,"[94, 0, 160]",160,l,0.40910012867243495,colour,0.4
53,76,1,1,5,13,213,403.79431900665804,404.895882457422,"[7, 0, 247]",247,a,0.5783944707072806,colour,0.4
53,76,1,1,5,14,214,405.4036965605046,406.39981048126356,"[70, 0, 184]",184,l,0.4727224176749587,colour,0.4
53,76,1,1,5,15,215,406.9195396096911,408.0798534735077,"[99, 0, 155]",155,l,0.6371161330025643,colour,0.4
53,76,1,1,5,16,216,408.5816716639092,409.2878364971548,"[81, 0, 173]",173,l,0.1833826100337319,colour,0.4
53,76,1,1,5,17,217,409.800474033138,410.3838384474948,"[20, 0, 234]",234,a,0.060156443549203686,colour,0.4
53,76,1,1,5,18,218,410.8943090423418,412.00787770921306,"[66, 0, 188]",188,a,0.59036108989676,colour,0.4
53,76,1,1,5,19,219,412.51940617464425,413.52777934221376,"[76, 0, 178]",178,l,0.4850950921536423,colour,0.4
53,76,1,1,5,20,220,414.035140128457,415.23180795434746,"[50, 0, 204]",204,a,0.6736437811923679,colour,0.4
53,76,1,1,5,21,221,415.7383680515195,416.63180630019633,"[87, 0, 167]",167,l,0.370118031729362,colour,0.4
53,76,1,1,5,22,222,417.1447514299507,418.34383510767657,"[48, 0, 206]",206,a,0.675911940750666,colour,0.4
53,76,1,1,5,23,223,418.8513093215879,420.0078217830742,"[12, 0, 242]",242,a,0.633407678353251,colour,0.4
53,76,1,1,5,24,224,420.52332179232326,421.83982988999924,"[75, 0, 179]",179,l,0.7933343914628495,colour,0.4
53,76,1,1,5,25,225,422.3515544907714,423.4638404009602,"[92, 0, 162]",162,l,0.5892614716431126,colour,0.4
53,76,1,1,5,26,226,423.97688044763345,425.06383929819276,"[79, 0, 175]",175,l,0.5636551751522347,colour,0.4
53,76,1,1,5,27,227,425.55818189623824,426.5838299404131,"[13, 0, 241]",241,a,0.5039681961352471,colour,0.4
53,76,1,1,5,28,228,427.10350786884374,428.2557923927088,"[6, 0, 248]",248,a,0.6290493776759831,colour,0.4
53,76,1,1,5,29,229,428.7754848934419,429.8238448593038,"[72, 0, 182]",182,a,0.5242800198320765,colour,0.4
53,76,1,1,5,30,230,430.3397375330969,431.6078234372253,"[65, 0, 189]",189,l,0.7448487887013471,colour,0.4
53,76,1,1,5,31,231,432.12119904074643,433.29581739405694,"[19, 0, 235]",235,a,0.6514028994279215,colour,0.4
53,76,1,1,5,32,232,433.8088137237937,434.7598310872854,"[90, 0, 164]",164,l,0.42785429111972917,colour,0.4
53,76,1,1,5,33,233,435.2776063453348,436.27989459103264,"[46, 0, 208]",208,a,0.4789219487720402,colour,0.4
53,76,1,1,5,34,234,436.79346593604714,438.01584285225545,"[64, 0, 190]",190,a,0.702048747902154,colour,0.4
53,76,1,1,5,35,235,438.52512324428244,439.59180020345957,"[85, 0, 169]",169,l,0.5425332100858213,colour,0.4
53,76,1,1,5,36,236,440.1043337640731,441.16784183771233,"[51, 0, 203]",203,a,0.5402071551507106,colour,0.4
53,76,1,1,5,37,237,441.6825447025185,442.8798312605795,"[4, 0, 250]",250,a,0.6865064001904102,colour,0.4
53,76,1,1,5,38,238,443.38977173862804,444.43179944728035,"[93, 0, 161]",161,l,0.5187291532347444,colour,0.4
53,76,1,1,5,39,239,444.95271484008117,446.3197986816376,"[73, 0, 181]",181,a,0.8438467261294136,colour,0.4
53,76,1,1,5,40,240,446.82871200911177,447.84780999919167,"[95, 0, 159]",159,l,0.49659579143917654,colour,0.4
53,76,1,1,5,41,241,448.35930616923724,449.42379413192975,"[25, 0, 229]",229,a,0.5413977518473985,colour,0.4
53,76,1,1,5,42,242,449.93922049197135,450.9997944123461,"[10, 0, 244]",244,a,0.5373222326452378,colour,0.4
53,76,1,1,5,43,243,451.5175562796212,452.4398071257019,"[78, 0, 176]",176,l,0.39923310292942915,colour,0.4
53,76,1,1,5,44,244,452.95508224883815,453.6958251922042,"[5, 0, 249]",249,a,0.2174971633212408,colour,0.4
53,76,1,1,5,45,245,454.20523988573404,455.263815431128,"[80, 0, 174]",174,l,0.5353793899557786,colour,0.4
53,76,1,1,5,46,246,455.783394504193,456.76780843957386,"[62, 0, 192]",192,a,0.46118193995789625,colour,0.4
53,76,1,1,5,47,247,457.283534516464,458.56778898356424,"[31, 0, 223]",223,a,0.7610760347306496,colour,0.4
53,76,1,1,5,48,248,459.0805454610527,460.1037993149366,"[58, 0, 196]",196,a,0.49999625845521223,colour,0.4
53,76,1,1,5,49,249,460.6119076210307,461.5758529819868,"[37, 0, 217]",217,a,0.4405184117204044,colour,0.4
53,76,1,1,5,50,250,462.0963761040912,463.0798188150511,"[56, 0, 198]",198,a,0.4601520324649755,colour,0.4
53,76,1,1,6,1,251,468.3774159995228,469.295849689428,"[9, 0, 245]",245,a,0.3938322916801553,colour,0.28
53,76,1,1,6,2,252,469.8164244053769,472.2238833774463,"[68, 0, 186]",186,l,1.884280539714382,colour,0.28
53,76,1,1,6,3,253,472.7385070791788,473.89581707897014,"[85, 0, 169]",169,l,0.6341012412740383,colour,0.28
53,76,1,1,6,4,254,474.4104829222342,475.38384514287463,"[11, 0, 243]",243,a,0.45008611444791313,colour,0.28
53,76,1,1,6,5,255,475.89499669759243,476.88786808362056,"[61, 0, 193]",193,a,0.46965671982616186,colour,0.28
53,76,1,1,6,6,256,477.3961725250556,478.43980161185027,"[1, 0, 253]",253,a,0.5203966975241201,colour,0.28
53,76,1,1,6,7,257,478.95879149118264,479.9198015173315,"[93, 0, 161]",161,l,0.437876098396373,colour,0.28
53,76,1,1,6,8,258,480.4276680019393,481.38381127211323,"[79, 0, 175]",175,l,0.43286046861612704,colour,0.28
53,76,1,1,6,9,259,481.89646377423196,482.9518294740992,"[66, 0, 188]",188,a,0.5321270090644248,colour,0.28
53,76,1,1,6,10,260,483.45908864805824,484.48789651930565,"[60, 0, 194]",194,a,0.506155617244076,colour,0.28
53,76,1,1,6,11,261,485.00615542032756,486.159798713139,"[59, 0, 195]",195,a,0.6304286266240524,colour,0.28
53,76,1,1,6,12,262,486.67815331876045,487.63977774478553,"[57, 0, 197]",197,a,0.43839873213437386,colour,0.28
53,76,1,1,6,13,263,488.14734214944474,489.1118290487502,"[90, 0, 164]",164,l,0.4412848361826036,colour,0.28
53,76,1,1,6,14,264,489.63181811558024,490.6157791279693,"[86, 0, 168]",168,l,0.46073492465075105,colour,0.28
53,76,1,1,6,15,265,491.13192268171406,492.1118113256671,"[58, 0, 196]",196,a,0.45663419930497184,colour,0.28
53,76,1,1,6,16,266,492.6320528478391,493.991860383132,"[73, 0, 181]",181,a,0.8357906046439894,colour,0.28
53,76,1,1,6,17,267,494.50792083535634,495.6317751863535,"[19, 0, 235]",235,a,0.6004829340527067,colour,0.28
53,76,1,1,6,18,268,496.15061737340875,497.2637870742037,"[16, 0, 238]",238,a,0.5900306530384114,colour,0.28
53,76,1,1,6,19,269,497.7759200933506,498.81581039934827,"[97, 0, 157]",157,l,0.5169596028135857,colour,0.28
53,76,1,1,6,20,270,499.3226418564591,500.8318127592647,"[70, 0, 184]",184,a,0.9859393012302462,colour,0.28
53,76,1,1,6,21,271,501.3384429610451,502.3838380536472,"[54, 0, 200]",200,a,0.5221733371727169,colour,0.28
53,76,1,1,6,22,272,502.90108595178754,503.9518121448782,"[74, 0, 180]",180,a,0.5275914776575519,colour,0.28
53,76,1,1,6,23,273,504.4637340625195,505.4158585273399,"[88, 0, 166]",166,l,0.4293863523780601,colour,0.28
53,76,1,1,6,24,274,505.93257473327685,506.87179364985786,"[71, 0, 183]",183,a,0.416016459610546,colour,0.28
53,76,1,1,6,25,275,507.3858419424796,508.09584598727815,"[94, 0, 160]",160,a,0.18695046164793894,colour,0.28
53,76,1,1,6,26,276,508.60538356078905,509.99980859080097,"[80, 0, 174]",174,a,0.8718645421467954,colour,0.28
53,76,1,1,6,27,277,510.51106924089254,511.5998425403377,"[62, 0, 192]",192,a,0.5655326394044096,colour,0.28
53,76,1,1,6,28,278,512.1206157547131,513.3758035936917,"[95, 0, 159]",159,l,0.7320271297066938,colour,0.28
53,76,1,1,6,29,279,513.8863525639172,515.4158738873375,"[18, 0, 236]",236,a,1.0062527003174182,colour,0.28
53,76,1,1,6,30,280,515.9333454900479,517.0878430350131,"[50, 0, 204]",204,a,0.6312332541565411,colour,0.28
53,76,1,1,6,31,281,517.605395376173,518.6558025539271,"[43, 0, 211]",211,a,0.5271649423375493,colour,0.28
53,76,1,1,6,32,282,519.1555877108913,520.159977519259,"[29, 0, 225]",225,a,0.48013578237441834,colour,0.28
53,76,1,1,6,33,283,520.6722409014619,521.7198206582543,"[64, 0, 190]",190,a,0.5242323644633871,colour,0.28
53,76,1,1,6,34,284,522.2364482488192,523.2958205448231,"[24, 0, 230]",230,a,0.5457588094577659,colour,0.28
53,76,1,1,6,35,285,523.8051328383735,524.8318375715753,"[87, 0, 167]",167,l,0.5034636793134268,colour,0.28
53,76,1,1,6,36,286,525.3532149458188,526.4237555350119,"[37, 0, 217]",217,a,0.547284963002312,colour,0.28
53,76,1,1,6,37,287,526.9316633734561,527.759762951915,"[78, 0, 176]",176,l,0.30484552765847184,colour,0.28
53,76,1,1,6,38,288,528.2630497943464,529.279759107987,"[92, 0, 162]",162,l,0.49347022897563875,colour,0.28
53,76,1,1,6,39,289,529.7944032897212,530.6958157398913,"[56, 0, 198]",198,a,0.37817730398091953,colour,0.28
53,76,1,1,6,40,290,531.2165290896664,532.2718286233867,"[67, 0, 187]",187,a,0.5321297659829725,colour,0.28
53,76,1,1,6,41,291,532.7790665296634,533.5437919421383,"[98, 0, 156]",156,l,0.24149696166568901,colour,0.28
53,76,1,1,6,42,292,534.0637148428359,535.0877898657927,"[77, 0, 177]",177,l,0.5007800121675245,colour,0.28
53,76,1,1,6,43,293,535.595619722706,536.615777552579,"[72, 0, 182]",182,a,0.4968616375408601,colour,0.28
53,76,1,1,6,44,294,537.1145623405173,538.175930648431,"[3, 0, 251]",251,a,0.538087475579232,colour,0.28
53,76,1,1,6,45,295,538.6950965769647,539.8317879469687,"[75, 0, 179]",179,a,0.6137031653051963,colour,0.28
53,76,1,1,6,46,296,540.3515170753963,541.5997708603536,"[53, 0, 201]",201,a,0.7252029587398283,colour,0.28
53,76,1,1,6,47,297,542.1172554599907,543.1598290392867,"[76, 0, 178]",178,l,0.5193573377182474,colour,0.28
53,76,1,1,6,48,298,543.679900026109,544.6637739985163,"[28, 0, 226]",226,a,0.46061795236892067,colour,0.28
53,76,1,1,6,49,299,545.1800483091502,546.1359304593789,"[46, 0, 208]",208,a,0.4326800870912848,colour,0.28
53,76,1,1,6,50,300,546.648927970673,547.6237840494723,"[31, 0, 223]",223,a,0.4515929695335217,colour,0.28
53,76,1,1,7,1,301,552.9270620697498,553.9357908803358,"[67, 0, 187]",187,a,0.4846331107255537,colour,0.14
53,76,1,1,7,2,302,554.4382218952378,555.6959401952627,"[69, 0, 185]",185,a,0.7345268707431387,colour,0.14
53,76,1,1,7,3,303,556.1921252052416,557.3518187614827,"[57, 0, 197]",197,a,0.6371236160775879,colour,0.14
53,76,1,1,7,4,304,557.8635599037952,558.9597678356076,"[70, 0, 184]",184,a,0.5730629763711477,colour,0.14
53,76,1,1,7,5,305,559.4729732976266,560.2318603358726,"[73, 0, 181]",181,a,0.23560305513092317,colour,0.14
53,76,1,1,7,6,306,560.7399182296795,561.4717945163138,"[98, 0, 156]",156,l,0.20854740508366376,colour,0.14
53,76,1,1,7,7,307,561.9900183650461,563.2158189851907,"[63, 0, 191]",191,a,0.7025016708939802,colour,0.14
53,76,1,1,7,8,308,563.7251631802792,564.6317763678962,"[41, 0, 213]",213,a,0.3840125274582533,colour,0.14
53,76,1,1,7,9,309,565.1483188877173,566.0717646627891,"[88, 0, 166]",166,l,0.40018345350108575,colour,0.14
53,76,1,1,7,10,310,566.5743299792084,567.5917990219168,"[86, 0, 168]",168,l,0.4948841363948304,colour,0.14
53,76,1,1,7,11,311,568.1056641761097,569.0237985429994,"[95, 0, 159]",159,l,0.3948972514626803,colour,0.14
53,76,1,1,7,12,312,569.5432358314865,570.5118167607434,"[99, 0, 155]",155,l,0.44535090307181235,colour,0.14
53,76,1,1,7,13,313,571.027740942227,571.6638003862026,"[53, 0, 201]",201,a,0.11285029162536375,colour,0.14
53,76,1,1,7,14,314,572.1840612068336,573.223790823613,"[66, 0, 188]",188,a,0.5164842305966886,colour,0.14
53,76,1,1,7,15,315,573.7311208898755,574.6798058968998,"[62, 0, 192]",192,a,0.42544749776425306,colour,0.14
53,76,1,1,7,16,316,575.199965105232,576.367778192187,"[85, 0, 169]",169,l,0.644608266899013,colour,0.14
53,76,1,1,7,17,317,576.8875758498325,577.8078444686107,"[92, 0, 162]",162,l,0.3970870356570231,colour,0.14
53,76,1,1,7,18,318,578.3251234805939,579.2957870679093,"[40, 0, 214]",214,a,0.4472563303861534,colour,0.14
53,76,1,1,7,19,319,579.8096935759386,580.7838052856532,"[48, 0, 206]",206,a,0.4538012644916307,colour,0.14
53,76,1,1,7,20,320,581.2911325949681,582.2159497420944,"[71, 0, 183]",183,a,0.4014705424924614,colour,0.14
53,76,1,1,7,21,321,582.7287715980201,583.7277924966766,"[51, 0, 203]",203,a,0.4749283495475538,colour,0.14
53,76,1,1,7,22,322,584.2454047024366,585.1677646438766,"[89, 0, 165]",165,l,0.3992035644623684,colour,0.14
53,76,1,1,7,23,323,585.6829704501142,586.62382934177,"[77, 0, 177]",177,l,0.4176194131432567,colour,0.14
53,76,1,1,7,24,324,587.136227813171,588.047781799818,"[79, 0, 175]",175,l,0.38832002198614646,colour,0.14
53,76,1,1,7,25,325,588.5582220685319,589.6237856248481,"[61, 0, 193]",193,a,0.5422185270726914,colour,0.14
53,76,1,1,7,26,326,590.1363983485207,591.2557616727136,"[97, 0, 157]",157,l,0.5960379872412886,colour,0.14
53,76,1,1,7,27,327,591.7771705546475,592.6877895507059,"[50, 0, 204]",204,a,0.3874275667767506,colour,0.14
53,76,1,1,7,28,328,593.1991238500195,594.0957829719118,"[82, 0, 172]",172,l,0.37329873265116476,colour,0.14
53,76,1,1,7,29,329,594.6054835976829,595.5917915388418,"[83, 0, 171]",171,l,0.4631035149504896,colour,0.14
53,76,1,1,7,30,330,596.1057039545703,597.1278444055934,"[96, 0, 158]",158,l,0.49888679407013115,colour,0.14
53,76,1,1,7,31,331,597.6370243668644,598.679799595353,"[12, 0, 242]",242,a,0.5195404761470854,colour,0.14
53,76,1,1,7,32,332,599.1995929206896,600.1278668548184,"[54, 0, 200]",200,a,0.4049954648653511,colour,0.14
53,76,1,1,7,33,333,600.6372157760488,601.5517815036437,"[80, 0, 174]",174,l,0.3913412152469391,colour,0.14
53,76,1,1,7,34,334,602.0592100314097,603.1118093564437,"[90, 0, 164]",164,l,0.5293539388367208,colour,0.14
53,76,1,1,7,35,335,603.6218435698538,604.6238206771523,"[11, 0, 243]",243,a,0.47874865648918785,colour,0.14
53,76,1,1,7,36,336,605.1376830744266,606.3517876476399,"[59, 0, 195]",195,a,0.6889982643187977,colour,0.14
53,76,1,1,7,37,337,606.858345381741,607.799828519419,"[68, 0, 186]",186,a,0.41823066225333605,colour,0.14
53,76,1,1,7,38,338,608.3116334647784,609.4637840809737,"[10, 0, 244]",244,a,0.6288949900044827,colour,0.14
53,76,1,1,7,39,339,609.9698853474692,610.9357770957286,"[74, 0, 180]",180,a,0.4427499435842037,colour,0.14
53,76,1,1,7,40,340,611.4542912089964,612.4637852625165,"[55, 0, 199]",199,a,0.4862230673315935,colour,0.14
53,76,1,1,7,41,341,612.9700676982029,614.0157955907343,"[81, 0, 173]",173,l,0.522458481733338,colour,0.14
53,76,1,1,7,42,342,614.5327047812461,615.6558380000788,"[72, 0, 182]",182,a,0.5999575433961581,colour,0.14
53,76,1,1,7,43,343,616.1734076704597,617.2557884542475,"[87, 0, 167]",167,l,0.5590897114452673,colour,0.14
53,76,1,1,7,44,344,617.7692447962036,618.6717757692531,"[91, 0, 163]",163,l,0.37933836222509854,colour,0.14
53,76,1,1,7,45,345,619.1930448358326,620.1277589409874,"[65, 0, 189]",189,a,0.4114970758819254,colour,0.14
53,76,1,1,7,46,346,620.6463021988748,621.7437814658333,"[75, 0, 179]",179,a,0.5742445146024693,colour,0.14
53,76,1,1,7,47,347,622.255778608087,623.2077963406191,"[84, 0, 170]",170,l,0.4287227217282634,colour,0.14
53,76,1,1,7,48,348,623.724600374233,624.7197757597896,"[94, 0, 160]",160,l,0.47179057785251644,colour,0.14
53,76,1,1,7,49,349,625.241154709438,626.1918333653011,"[93, 0, 161]",161,l,0.4274013681424549,colour,0.14
53,76,1,1,7,50,350,626.7100694232504,627.4238378488371,"[0, 0, 254]",254,a,0.19046750709821936,colour,0.14
53,76,1,1,8,1,351,633.8504727925174,634.6077781449276,"[61, 0, 193]",193,a,0.23342075404070783,colour,0.06
53,76,1,1,8,2,352,635.1169833123422,636.7678328580223,"[59, 0, 195]",195,a,1.1275624117988627,colour,0.06
53,76,1,1,8,3,353,637.2747836505005,638.271773484943,"[97, 0, 157]",157,l,0.4737578390195267,colour,0.06
53,76,1,1,8,4,354,638.7905833766272,639.7517556673411,"[78, 0, 176]",176,l,0.4379316306876717,colour,0.06
53,76,1,1,8,5,355,640.2594394073676,641.5278435391228,"[71, 0, 183]",183,a,0.7452603578567505,colour,0.06
53,76,1,1,8,6,356,642.031897199864,643.0877611150208,"[30, 0, 224]",224,a,0.5326078951184172,colour,0.06
53,76,1,1,8,7,357,643.5945551567565,644.4318191395723,"[86, 0, 168]",168,l,0.3140426212339662,colour,0.06
53,76,1,1,8,8,358,644.9384477659623,646.0317845598911,"[90, 0, 164]",164,l,0.5701780538656749,colour,0.06
53,76,1,1,8,9,359,646.549597233301,647.4637714778946,"[87, 0, 167]",167,l,0.3908961691777222,colour,0.06
53,76,1,1,8,10,360,647.9715922763571,648.8957914789789,"[92, 0, 162]",162,l,0.4010475517861778,colour,0.06
53,76,1,1,8,11,361,649.4092092240317,650.4157793642808,"[98, 0, 156]",156,l,0.48340549250133336,colour,0.06
53,76,1,1,8,12,362,650.9248817378684,651.7837848056515,"[70, 0, 184]",184,a,0.3355064446950564,colour,0.06
53,76,1,1,8,13,363,652.3000827470532,653.4877760024101,"[79, 0, 175]",175,l,0.664415573788574,colour,0.06
53,76,1,1,8,14,364,654.0032964916609,654.7917751548521,"[89, 0, 165]",165,l,0.26519507393823005,colour,0.06
53,76,1,1,8,15,365,655.3003734054655,656.3917669628427,"[85, 0, 169]",169,l,0.5681623496493557,colour,0.06
53,76,1,1,8,16,366,656.9098072792985,657.9118304665899,"[74, 0, 180]",180,a,0.4787655918771634,colour,0.06
53,76,1,1,8,17,367,658.4255857377284,659.5517905621091,"[88, 0, 166]",166,a,0.6030086689424934,colour,0.06
53,76,1,1,8,18,368,660.0663142269332,661.9437938326009,"[21, 0, 233]",233,a,1.3541526933258865,colour,0.06
53,76,1,1,8,19,369,662.4571410792123,663.4157998442679,"[52, 0, 202]",202,a,0.4354110157873947,colour,0.06
53,76,1,1,8,20,370,663.9260089253366,664.9117505158356,"[95, 0, 159]",159,l,0.4626293242763495,colour,0.06
53,76,1,1,8,21,371,665.426135546848,666.4078008304641,"[72, 0, 182]",182,a,0.4585285989451222,colour,0.06
53,76,1,1,8,22,372,666.9263448760466,667.9757489278563,"[82, 0, 172]",172,a,0.5264205732673872,colour,0.06
53,76,1,1,8,23,373,668.4888539591193,669.479807708587,"[60, 0, 194]",194,a,0.4677075755898841,colour,0.06
53,76,1,1,8,24,374,669.988965220633,670.919831055784,"[76, 0, 178]",178,a,0.4076027258852264,colour,0.06
53,76,1,1,8,25,375,671.4265994975285,672.6077655418485,"[67, 0, 187]",187,a,0.6579352304397617,colour,0.06
53,76,1,1,8,26,376,673.1142429313477,674.0238056322269,"[69, 0, 185]",185,a,0.3863003793085227,colour,0.06
53,76,1,1,8,27,377,674.5362596359337,675.5997527434374,"[56, 0, 198]",198,a,0.5402902566856937,colour,0.06
53,76,1,1,8,28,378,676.1020250383735,677.3117594955256,"[50, 0, 204]",204,a,0.6870696000842145,colour,0.06
53,76,1,1,8,29,379,677.8209985337016,678.7517351873539,"[57, 0, 197]",197,a,0.4076129658933496,colour,0.06
53,76,1,1,8,30,380,679.2601014626271,680.34378548307,"[83, 0, 171]",171,l,0.566063937760191,colour,0.06
53,76,1,1,8,31,381,680.8640017990838,681.8877830128622,"[51, 0, 203]",203,a,0.500530707591679,colour,0.06
53,76,1,1,8,32,382,682.3953741990554,683.3198211308627,"[99, 0, 155]",155,l,0.40124053637555335,colour,0.06
53,76,1,1,8,33,383,683.8329907528823,684.775775157992,"[63, 0, 191]",191,a,0.41946733892837074,colour,0.06
53,76,1,1,8,34,384,685.2861535928823,686.3837494382751,"[53, 0, 201]",201,a,0.5744264715031022,colour,0.06
53,76,1,1,8,35,385,686.8957654851401,687.83177691928,"[73, 0, 181]",181,a,0.41289680484624114,colour,0.06
53,76,1,1,8,36,386,688.3458378149662,689.4798116470483,"[66, 0, 188]",188,a,0.6107067843549885,colour,0.06
53,76,1,1,8,37,387,689.9865934795671,690.9437831987598,"[54, 0, 200]",200,a,0.4339159760857001,colour,0.06
53,76,1,1,8,38,388,691.4554703841568,693.799767473276,"[65, 0, 189]",189,a,1.8214609090064187,colour,0.06
53,76,1,1,8,39,389,694.304472555421,695.6557808923972,"[77, 0, 177]",177,a,0.8280326246313052,colour,0.06
53,76,1,1,8,40,390,696.1652389090013,697.3677864629572,"[94, 0, 160]",160,l,0.6792856262327405,colour,0.06
53,76,1,1,8,41,391,697.8850386934064,698.8797761221358,"[96, 0, 158]",158,l,0.4716613963537384,colour,0.06
53,76,1,1,8,42,392,699.4007234164746,700.4477974748879,"[62, 0, 192]",192,a,0.5238554537645541,colour,0.06
53,76,1,1,8,43,393,700.9633727087494,702.2637819541997,"[64, 0, 190]",190,a,0.7770878469600575,colour,0.06
53,76,1,1,8,44,394,702.7761268625472,703.8237991731585,"[68, 0, 186]",186,a,0.5245513797854073,colour,0.06
53,76,1,1,8,45,395,704.3386938409967,705.367751410653,"[33, 0, 221]",221,a,0.5058121834736085,colour,0.06
53,76,1,1,8,46,396,705.8856042563712,706.847784793048,"[91, 0, 163]",163,l,0.4390017104742583,colour,0.06
53,76,1,1,8,47,397,707.3545099117182,708.2157575452002,"[81, 0, 173]",173,l,0.3379632565192878,colour,0.06
53,76,1,1,8,48,398,708.7295907978696,710.1757380577037,"[75, 0, 179]",179,a,0.9228723351989174,colour,0.06
53,76,1,1,8,49,399,710.684635237485,711.75974050269,"[80, 0, 174]",174,a,0.5520024512952659,colour,0.06
53,76,1,1,8,50,400,712.2786189235921,713.3518034014851,"[58, 0, 196]",196,a,0.5499646917014616,colour,0.06
53,76,1,1,9,1,401,718.4533979660919,719.535802380633,"[96, 0, 158]",158,a,0.5584122961881803,colour,0.06
53,76,1,1,9,2,402,720.0480752151489,721.1837630653463,"[95, 0, 159]",159,l,0.6125645562860882,colour,0.06
53,76,1,1,9,3,403,721.7044035535946,722.6157365925901,"[86, 0, 168]",168,l,0.38813018817745615,colour,0.06
53,76,1,1,9,4,404,723.1170723215619,724.0637554089772,"[89, 0, 165]",165,l,0.4234361258422723,colour,0.06
53,76,1,1,9,5,405,724.5703383492219,725.1917612914694,"[79, 0, 175]",175,a,0.0983449406339787,colour,0.06
53,76,1,1,9,6,406,725.7110548261262,726.5197539407236,"[57, 0, 197]",197,a,0.2854041037935531,colour,0.06
53,76,1,1,9,7,407,727.0392778753449,728.0157199722889,"[75, 0, 179]",179,a,0.453203406141256,colour,0.06
53,76,1,1,9,8,408,728.5237857430038,729.77579209338,"[88, 0, 166]",166,l,0.7287365457304986,colour,0.06
53,76,1,1,9,9,409,730.2897757952451,731.2557675803982,"[55, 0, 199]",199,a,0.4425404174689902,colour,0.06
53,76,1,1,9,10,410,731.7744703459466,732.5918112311483,"[92, 0, 162]",162,l,0.2940517820970854,colour,0.06
53,76,1,1,9,11,411,733.1026012351795,733.983762120115,"[73, 0, 181]",181,a,0.35797654488123953,colour,0.06
53,76,1,1,9,12,412,734.4934757428273,735.2797398095281,"[53, 0, 201]",201,a,0.2631175358837936,colour,0.06
53,76,1,1,9,13,413,735.7904408043396,736.7758448687528,"[65, 0, 189]",189,a,0.4622102720604744,colour,0.06
53,76,1,1,9,14,414,737.2905583674001,738.199742188357,"[82, 0, 172]",172,l,0.38596127784694545,colour,0.06
53,76,1,1,9,15,415,738.7124655827793,739.687750559955,"[81, 0, 173]",173,l,0.45208291405288037,colour,0.06
53,76,1,1,9,16,416,740.1978414871846,741.2157634528994,"[52, 0, 202]",202,a,0.4955040501226904,colour,0.06
53,76,1,1,9,17,417,741.7300669577671,742.6637574569759,"[60, 0, 194]",194,a,0.4104624422470806,colour,0.06
53,76,1,1,9,18,418,743.1832380685228,744.0797274427605,"[54, 0, 200]",200,a,0.37319278804352507,colour,0.06
53,76,1,1,9,19,419,744.5896592561912,745.703762766032,"[80, 0, 174]",174,a,0.5909179882582976,colour,0.06
53,76,1,1,9,20,420,746.2147772623139,747.1037445703405,"[83, 0, 171]",171,l,0.3657207402866334,colour,0.06
53,76,1,1,9,21,421,747.6211905730597,748.6318039371254,"[58, 0, 196]",196,a,0.48741090709518176,colour,0.06
53,76,1,1,9,22,422,749.1532254221383,750.031745175278,"[84, 0, 170]",170,l,0.35527988079411443,colour,0.06
53,76,1,1,9,23,423,750.5462152770488,751.6957172783732,"[98, 0, 156]",156,l,0.6261975382221863,colour,0.06
53,76,1,1,9,24,424,752.202624353944,753.1437750855257,"[99, 0, 155]",155,l,0.41793724692252,colour,0.06
53,76,1,1,9,25,425,753.6558860492951,754.6717564707942,"[64, 0, 190]",190,a,0.4925561122363433,colour,0.06
53,76,1,1,9,26,426,755.187132418534,756.1277542148455,"[33, 0, 221]",221,a,0.41731812090438325,colour,0.06
53,76,1,1,9,27,427,756.640542987705,757.5997830695851,"[93, 0, 161]",161,l,0.4359966649208218,colour,0.06
53,76,1,1,9,28,428,758.1093391538452,759.0957124734559,"[77, 0, 177]",177,l,0.46318425339995883,colour,0.06
53,76,1,1,9,29,429,759.6094547476678,760.5197574853373,"[94, 0, 160]",160,l,0.3870864960772451,colour,0.06
53,76,1,1,9,30,430,761.0330980365543,761.9837227355165,"[3, 0, 251]",251,a,0.4274545373627916,colour,0.06
53,76,1,1,9,31,431,762.5019391011592,763.4078004366165,"[59, 0, 195]",195,a,0.382837684606784,colour,0.06
53,76,1,1,9,32,432,763.9240022795857,765.7357556704956,"[87, 0, 167]",167,l,1.2880377525143558,colour,0.06
53,76,1,1,9,33,433,766.2549554697907,767.8317213869886,"[61, 0, 193]",193,a,1.0535362848459044,colour,0.06
53,76,1,1,9,34,434,768.3456215934712,770.0317707752838,"[50, 0, 204]",204,a,1.1628789833193878,colour,0.06
53,76,1,1,9,35,435,770.5489745626546,771.5597616128507,"[70, 0, 184]",184,a,0.487605467060348,colour,0.06
53,76,1,1,9,36,436,772.0803524764779,773.1037457518687,"[74, 0, 180]",180,a,0.5001904245727928,colour,0.06
53,76,1,1,9,37,437,773.6117331472196,774.6717820707854,"[51, 0, 203]",203,a,0.5368779742711922,colour,0.06
53,76,1,1,9,38,438,775.1913052177115,775.9757938263065,"[63, 0, 191]",191,a,0.2613716162304627,colour,0.06
53,76,1,1,9,39,439,776.4882446792326,777.5518067098019,"[85, 0, 169]",169,l,0.5403394874447258,colour,0.06
53,76,1,1,9,40,440,778.0664130822988,778.951777092574,"[56, 0, 198]",198,a,0.3621182302304078,colour,0.06
53,76,1,1,9,41,441,779.4727610145928,781.2637701388303,"[78, 0, 176]",176,l,1.267739319591783,colour,0.06
53,76,1,1,9,42,442,781.7698973991501,783.2878219248523,"[67, 0, 187]",187,a,0.9946913487365237,colour,0.06
53,76,1,1,9,43,443,783.8012849622028,784.7517489719612,"[97, 0, 157]",157,l,0.42735371277376544,colour,0.06
53,76,1,1,9,44,444,785.2701378421916,786.1998705821752,"[62, 0, 192]",192,a,0.40644993842579424,colour,0.06
53,76,1,1,9,45,445,786.7077583344653,788.0157215476647,"[76, 0, 178]",178,a,0.7847410639224108,colour,0.06
53,76,1,1,9,46,446,788.5310778031126,789.4717346517136,"[68, 0, 186]",186,a,0.41750953008886427,colour,0.06
53,76,1,1,9,47,447,789.9860373689007,791.2397392266284,"[2, 0, 252]",252,a,0.7308621330012102,colour,0.06
53,76,1,1,9,48,448,791.7515504735347,792.663733432375,"[91, 0, 163]",163,l,0.3893097571854014,colour,0.06
53,76,1,1,9,49,449,793.1735577258223,794.2557321342465,"[69, 0, 185]",185,l,0.5588872745574918,colour,0.06
53,76,1,1,9,50,450,794.7674208950339,796.3997699151223,"[66, 0, 188]",188,a,1.1091075723670656,colour,0.06
53,76,1,1,10,1,451,801.8922283535212,802.9838259231765,"[73, 0, 181]",181,a,0.567619629757246,colour,0.06
53,76,1,1,10,2,452,803.4927565798862,804.2957350802171,"[66, 0, 188]",188,a,0.27984339103568345,colour,0.06
53,76,1,1,10,3,453,804.8053518167872,805.5278321175865,"[40, 0, 214]",214,a,0.19917544384952635,colour,0.06
53,76,1,1,10,4,454,806.0402372843819,806.815797008574,"[99, 0, 155]",155,l,0.25223832570191007,colour,0.06
53,76,1,1,10,5,455,807.3371806843643,808.2237912174605,"[71, 0, 183]",183,a,0.36256288243748713,colour,0.06
53,76,1,1,10,6,456,808.7443332441908,809.5677299066592,"[95, 0, 159]",159,l,0.30021626087545883,colour,0.06
53,76,1,1,10,7,457,810.0882156133885,811.0237930291623,"[76, 0, 178]",178,l,0.41227452804741915,colour,0.06
53,76,1,1,10,8,458,811.542997554614,812.8397196130973,"[63, 0, 191]",191,a,0.7735644999775104,colour,0.06
53,76,1,1,10,9,459,813.3556603361067,814.2637496588286,"[93, 0, 161]",161,l,0.38487859498127364,colour,0.06
53,76,1,1,10,10,460,814.7804564124672,816.8157540793618,"[82, 0, 172]",172,l,1.512019985326333,colour,0.06
53,76,1,1,10,11,461,817.3275507539511,818.5117320838472,"[60, 0, 194]",194,a,0.660972177531221,colour,0.06
53,76,1,1,10,12,462,819.0307109354908,820.0957845472876,"[83, 0, 171]",171,l,0.5416998317814432,colour,0.06
53,76,1,1,10,13,463,820.6100825383182,821.6077139480185,"[52, 0, 202]",202,a,0.47436002966423985,colour,0.06
53,76,1,1,10,14,464,822.1134308207402,823.0957810026739,"[56, 0, 198]",198,a,0.45927493725321256,colour,0.06
53,76,1,1,10,15,465,823.613476703802,824.9997652677412,"[89, 0, 165]",165,l,0.863025454673334,colour,0.06
53,76,1,1,10,16,466,825.5199091160757,826.9917615277664,"[87, 0, 167]",167,l,0.9485948162764544,colour,0.06
53,76,1,1,10,17,467,827.5044703498861,828.6077210372459,"[68, 0, 186]",186,a,0.5800675288483035,colour,0.06
53,76,1,1,10,18,468,829.1154575526452,830.0557544259354,"[94, 0, 160]",160,l,0.4171208040061174,colour,0.06
53,76,1,1,10,19,469,830.5686353587953,831.7517017104256,"[72, 0, 182]",182,a,0.660237260744907,colour,0.06
53,76,1,1,10,20,470,832.2719440202927,833.8477387130552,"[58, 0, 196]",196,a,1.0526072019420099,colour,0.06
53,76,1,1,10,21,471,834.3658802479476,835.3037545740226,"[70, 0, 184]",184,a,0.427023275900865,colour,0.06
53,76,1,1,10,22,472,835.8223994442087,836.5277891883743,"[85, 0, 169]",169,l,0.1822672379494179,colour,0.06
53,76,1,1,10,23,473,837.0287251635746,838.375705132159,"[98, 0, 156]",156,l,0.8237625454639783,colour,0.06
53,76,1,1,10,24,474,838.8789900053671,840.0877260627167,"[77, 0, 177]",177,l,0.685433563485276,colour,0.06
53,76,1,1,10,25,475,840.5979209653306,841.583753140425,"[54, 0, 200]",200,a,0.4626356258231681,colour,0.06
53,76,1,1,10,26,476,842.0980007191538,843.2957449263777,"[57, 0, 197]",197,a,0.6871038646931993,colour,0.06
53,76,1,1,10,27,477,843.8044672385004,845.1200005671417,"[75, 0, 179]",179,a,0.7923478070442798,colour,0.06
53,76,1,1,10,28,478,845.6202670040075,846.7197174705798,"[19, 0, 235]",235,a,0.5761877511540661,colour,0.06
53,76,1,1,10,29,479,847.229764680902,848.3997301366617,"[59, 0, 195]",195,a,0.6467421249399194,colour,0.06
53,76,1,1,10,30,480,848.9181284591905,850.151709902435,"[67, 0, 187]",187,a,0.7110764876706526,colour,0.06
53,76,1,1,10,31,481,850.6676624408283,851.5677448728093,"[50, 0, 204]",204,a,0.37690715039207134,colour,0.06
53,76,1,1,10,32,482,852.0741017453984,852.9757201770844,"[91, 0, 163]",163,l,0.37840337163652293,colour,0.06
53,76,1,1,10,33,483,853.4959884807904,854.4797458747489,"[65, 0, 189]",189,a,0.4605076754669426,colour,0.06
53,76,1,1,10,34,484,854.9961418838357,855.9117075866088,"[86, 0, 168]",168,l,0.3923404027300421,colour,0.06
53,76,1,1,10,35,485,856.4180876961327,857.320097216958,"[96, 0, 158]",158,l,0.3788515684718732,colour,0.06
53,76,1,1,10,36,486,857.8400980991719,859.2237435620918,"[79, 0, 175]",175,a,0.860326427500695,colour,0.06
53,76,1,1,10,37,487,859.7308960037626,860.8397251269489,"[78, 0, 176]",176,a,0.5856731400563149,colour,0.06
53,76,1,1,10,38,488,861.355997862207,862.439761045709,"[55, 0, 199]",199,a,0.5605240988516016,colour,0.06
53,76,1,1,10,39,489,862.9498665452556,863.9117450019985,"[92, 0, 162]",162,l,0.4386381905496819,colour,0.06
53,76,1,1,10,40,490,864.4186863421637,865.6397675047774,"[97, 0, 157]",157,l,0.6980366379139014,colour,0.06
53,76,1,1,10,41,491,866.1532281790569,866.9517321941239,"[2, 0, 252]",252,a,0.27526335502625443,colour,0.06
53,76,1,1,10,42,492,867.4675067140925,868.4317450965173,"[90, 0, 164]",164,l,0.4409799993154593,colour,0.06
53,76,1,1,10,43,493,868.9519905571506,870.2317213082133,"[81, 0, 173]",173,l,0.7571363924362231,colour,0.06
53,76,1,1,10,44,494,870.7489680248109,871.7517454273475,"[69, 0, 185]",185,a,0.47942607174627483,colour,0.06
53,76,1,1,10,45,495,872.2647716893989,873.3197463001125,"[62, 0, 192]",192,a,0.5322156244219514,colour,0.06
53,76,1,1,10,46,496,873.8280881569226,875.6877399260993,"[88, 0, 166]",166,a,1.337149570521433,colour,0.06
53,76,1,1,10,47,497,876.2026003293286,877.5277037237684,"[51, 0, 203]",203,a,0.8020888020400889,colour,0.06
53,76,1,1,10,48,498,878.0465604831406,879.3917811413121,"[61, 0, 193]",193,a,0.8219362812233157,colour,0.06
53,76,1,1,10,49,499,879.9061141846323,880.943730423387,"[74, 0, 180]",180,a,0.5143578556308057,colour,0.06
53,76,1,1,10,50,500,881.4531084892369,882.2237738882395,"[64, 0, 190]",190,a,0.24754801279050298,colour,0.06
53,76,1,1,11,1,501,887.6004581217567,889.1917498699331,"[81, 0, 173]",173,a,1.0674890697846422,colour,0.06
53,76,1,1,11,2,502,889.7108023707988,890.567738571277,"[60, 0, 194]",194,a,0.33384086964360904,colour,0.06
53,76,1,1,11,3,503,891.0857879461837,891.7677387288131,"[53, 0, 201]",201,a,0.15880937180190813,colour,0.06
53,76,1,1,11,4,504,892.2891145276808,893.0876980996545,"[86, 0, 168]",168,l,0.27547130575112533,colour,0.06
53,76,1,1,11,5,505,893.6017137030431,894.3437374338391,"[95, 0, 159]",159,l,0.21884687381680124,colour,0.06
53,76,1,1,11,6,506,894.8517563368805,895.5757734250801,"[78, 0, 176]",176,a,0.20086819429707248,colour,0.06
53,76,1,1,11,7,507,896.0862396876328,897.1198312133201,"[93, 0, 161]",161,l,0.5104438133275835,colour,0.06
53,76,1,1,11,8,508,897.6332406876027,898.6077163110895,"[88, 0, 166]",166,l,0.45161738798196893,colour,0.06
53,76,1,1,11,9,509,899.1177320137358,900.0797451658291,"[77, 0, 177]",177,a,0.4388158151268726,colour,0.06
53,76,1,1,11,10,510,900.5865569306479,901.5837480204355,"[90, 0, 164]",164,a,0.4738515743811149,colour,0.06
53,76,1,1,11,11,511,902.1023306629213,902.8077511270822,"[74, 0, 180]",180,a,0.18240114561922383,colour,0.06
53,76,1,1,11,12,512,903.3211606013647,904.407731513551,"[85, 0, 169]",169,a,0.5633936613594415,colour,0.06
53,76,1,1,11,13,513,904.9159355242446,905.8237156777905,"[68, 0, 186]",186,a,0.38551938254386187,colour,0.06
53,76,1,1,11,14,514,906.3370459890139,907.3516943061259,"[79, 0, 175]",175,a,0.4913694540009601,colour,0.06
53,76,1,1,11,15,515,907.8684215397516,908.8157276916754,"[52, 0, 202]",202,a,0.42413717186718713,colour,0.06
53,76,1,1,11,16,516,909.3216741766519,910.2557128358021,"[46, 0, 208]",208,a,0.41083068832813296,colour,0.06
53,76,1,1,11,17,517,910.7748472566454,911.543728926772,"[91, 0, 163]",163,l,0.245560271650902,colour,0.06
53,76,1,1,11,18,518,912.0562471273879,912.975747352466,"[76, 0, 178]",178,a,0.39629934349795803,colour,0.06
53,76,1,1,11,19,519,913.493867225814,914.551751177496,"[80, 0, 174]",174,a,0.5347035500890343,colour,0.06
53,76,1,1,11,20,520,915.0721451181016,916.2636897942284,"[66, 0, 188]",188,a,0.6683737268467667,colour,0.06
53,76,1,1,11,21,521,916.775786973376,917.5838701127068,"[94, 0, 160]",160,l,0.28482948236342054,colour,0.06
53,76,1,1,11,22,522,918.1040793395077,919.159741999305,"[71, 0, 183]",183,a,0.5324519320711261,colour,0.06
53,76,1,1,11,23,523,919.6666900348646,921.1037512657203,"[65, 0, 189]",189,a,0.9138532600481994,colour,0.06
53,76,1,1,11,24,524,921.6200582655874,922.5437084467703,"[58, 0, 196]",196,a,0.40044969345035497,colour,0.06
53,76,1,1,11,25,525,923.0575885671133,923.8477627376706,"[69, 0, 185]",185,a,0.2669461135810707,colour,0.06
53,76,1,1,11,26,526,924.3545650501765,925.4397500180203,"[84, 0, 170]",170,l,0.5621128739294363,colour,0.06
53,76,1,1,11,27,527,925.9484164040041,927.223736866712,"[54, 0, 200]",200,a,0.7521089472866151,colour,0.06
53,76,1,1,11,28,528,927.7298322255083,928.9837365201238,"[82, 0, 172]",172,a,0.7335162617091555,colour,0.06
53,76,1,1,11,29,529,929.4927164075925,930.5677188789705,"[62, 0, 192]",192,a,0.5518287651793798,colour,0.06
53,76,1,1,11,30,530,931.0865661860298,932.0957014457672,"[61, 0, 193]",193,a,0.48581071048101876,colour,0.06
53,76,1,1,11,31,531,932.6023816659872,933.5597702774539,"[26, 0, 228]",228,a,0.43437520060979296,colour,0.06
53,76,1,1,11,32,532,934.0712034321332,935.111720347224,"[51, 0, 203]",203,a,0.5172770427452633,colour,0.06
53,76,1,1,11,33,533,935.6181764690264,936.6877308676485,"[92, 0, 162]",162,l,0.5463822677993448,colour,0.06
53,76,1,1,11,34,534,937.1965091059101,938.1356740655901,"[72, 0, 182]",182,l,0.4159987365419511,colour,0.06
53,76,1,1,11,35,535,938.6496707643673,939.8477068115317,"[64, 0, 190]",190,a,0.6746862917643739,colour,0.06
53,76,1,1,11,36,536,940.3686143274099,941.5917060742504,"[70, 0, 184]",184,a,0.699996416005888,colour,0.06
53,76,1,1,11,37,537,942.1031400166103,943.175719940773,"[67, 0, 187]",187,a,0.5494148825673619,colour,0.06
53,76,1,1,11,38,538,943.697011850425,944.9917312016187,"[57, 0, 197]",197,a,0.771499958835193,colour,0.06
53,76,1,1,11,39,539,945.5096411550185,946.4156982319837,"[87, 0, 167]",167,l,0.38285619537055027,colour,0.06
53,76,1,1,11,40,540,946.9320599764469,947.9677333725122,"[89, 0, 165]",165,l,0.5123567237315001,colour,0.06
53,76,1,1,11,41,541,948.4791196594888,949.1757156084786,"[63, 0, 191]",191,a,0.17333638433774468,colour,0.06
53,76,1,1,11,42,542,949.682311939483,950.9043343942176,"[50, 0, 204]",204,a,0.6987093270145124,colour,0.06
53,76,1,1,11,43,543,951.4168431425205,952.2957012094557,"[96, 0, 158]",158,l,0.3556256776646478,colour,0.06
53,76,1,1,11,44,544,952.8078361978405,953.8077215886296,"[56, 0, 198]",198,a,0.47685819532489404,colour,0.06
53,76,1,1,11,45,545,954.3233838624728,955.3677002106706,"[73, 0, 181]",181,a,0.5211607589153573,colour,0.06
53,76,1,1,11,46,546,955.8859445393755,956.8877227544144,"[83, 0, 171]",171,l,0.4787199057318503,colour,0.06
53,76,1,1,11,47,547,957.4017241793481,958.5437545267632,"[97, 0, 157]",157,l,0.6188078042905545,colour,0.06
53,76,1,1,11,48,548,959.0581596439297,959.9836849262938,"[98, 0, 156]",156,l,0.4024000192293897,colour,0.06
53,76,1,1,11,49,549,960.497571348169,961.687750559955,"[7, 0, 247]",247,a,0.666957456356613,colour,0.06
53,76,1,1,11,50,550,962.2008859173657,963.2316748343728,"[75, 0, 179]",179,a,0.5076498692651512,colour,0.06
53,76,1,1,12,1,551,968.4975032127986,969.303712038658,"[92, 0, 162]",162,l,0.2821926828910364,colour,0.06
53,76,1,1,12,2,552,969.8108833849255,970.7837269102747,"[96, 0, 158]",158,l,0.4496111360786017,colour,0.06
53,76,1,1,12,3,553,971.295300274156,973.1197311764263,"[67, 0, 187]",187,a,1.3011973314569332,colour,0.06
53,76,1,1,12,4,554,973.6392740156443,975.3677151768206,"[90, 0, 164]",164,l,1.2052253134315833,colour,0.06
53,76,1,1,12,5,555,975.873867249451,977.1277412179188,"[7, 0, 247]",247,a,0.7306892345659435,colour,0.06
53,76,1,1,12,6,556,977.6396406863496,978.5596938713134,"[68, 0, 186]",186,a,0.39733200790942647,colour,0.06
53,76,1,1,12,7,557,979.0772343970893,980.2877183433447,"[99, 0, 155]",155,l,0.687221624670201,colour,0.06
53,76,1,1,12,8,558,980.7961137632228,982.1036784041935,"[79, 0, 175]",175,l,0.7843550947727636,colour,0.06
53,76,1,1,12,9,559,982.624405538576,983.719701322887,"[10, 0, 244]",244,a,0.5725108041806379,colour,0.06
53,76,1,1,12,10,560,984.2228377161227,985.1677449515846,"[50, 0, 204]",204,a,0.42164136927749496,colour,0.06
53,76,1,1,12,11,561,985.677937491113,986.7197347998008,"[74, 0, 180]",180,a,0.5189942116412567,colour,0.06
53,76,1,1,12,12,562,987.2404674480349,988.5677204543608,"[55, 0, 199]",199,a,0.8039087647775887,colour,0.06
53,76,1,1,12,13,563,989.0843551341532,989.9517684279563,"[69, 0, 185]",185,a,0.34415648606955074,colour,0.06
53,76,1,1,12,14,564,990.4595171525871,991.3917067043949,"[88, 0, 166]",166,l,0.40908791944093537,colour,0.06
53,76,1,1,12,15,565,991.9127280418033,992.8317304454395,"[91, 0, 163]",163,a,0.3958184574439656,colour,0.06
53,76,1,1,12,16,566,993.3503178140818,994.4717212609539,"[76, 0, 178]",178,l,0.598130885293358,colour,0.06
53,76,1,1,12,17,567,994.9911550048128,995.9277402726875,"[59, 0, 195]",195,a,0.4133611493743956,colour,0.06
53,76,1,1,12,18,568,996.4443694386428,997.583733841966,"[81, 0, 173]",173,a,0.6161989678803366,colour,0.06
53,76,1,1,12,19,569,998.1007013217022,999.2637090926873,"[62, 0, 192]",192,a,0.6397226063418202,colour,0.06
53,76,1,1,12,20,570,999.7728083155089,1000.5677373897342,"[58, 0, 196]",196,a,0.2717325249541318,colour,0.06
53,76,1,1,12,21,571,1001.0853275401169,1001.8237141024001,"[89, 0, 165]",165,a,0.2152868991397554,colour,0.06
53,76,1,1,12,22,572,1002.3354316139448,1004.4557531656319,"[73, 0, 181]",181,l,1.5971982577757444,colour,0.06
53,76,1,1,12,23,573,1004.9762573831395,1006.215756757505,"[85, 0, 169]",169,l,0.7163185789395357,colour,0.06
53,76,1,1,12,24,574,1006.728035105858,1008.015703036901,"[78, 0, 176]",176,a,0.7644572033022996,colour,0.06
53,76,1,1,12,25,575,1008.5250354166055,1009.5196791099734,"[63, 0, 191]",191,a,0.4713053595041856,colour,0.06
53,76,1,1,12,26,576,1010.0407894565869,1011.4397059072508,"[56, 0, 198]",198,a,0.8755781168001704,colour,0.06
53,76,1,1,12,27,577,1011.9471730319347,1013.023671330724,"[80, 0, 174]",174,a,0.55329387258098,colour,0.06
53,76,1,1,12,28,578,1013.541035413451,1014.4636769548379,"[86, 0, 168]",168,l,0.39935243828222156,colour,0.06
53,76,1,1,12,29,579,1014.9786728411273,1015.8876758867264,"[82, 0, 172]",172,l,0.38570409634849057,colour,0.06
53,76,1,1,12,30,580,1016.4025386530411,1017.3117161724658,"[83, 0, 171]",171,l,0.38609124705544673,colour,0.06
53,76,1,1,12,31,581,1017.8245419668528,1018.8396766838705,"[98, 0, 156]",156,l,0.4920019707933534,colour,0.06
53,76,1,1,12,32,582,1019.3558934929897,1020.5677098205051,"[72, 0, 182]",182,a,0.6886119013215648,colour,0.06
53,76,1,1,12,33,583,1021.0746866068221,1022.2157536067389,"[66, 0, 188]",188,a,0.6177597798814531,colour,0.06
53,76,1,1,12,34,584,1022.731184692937,1025.223698269794,"[60, 0, 194]",194,a,1.9693575937271817,colour,0.06
53,76,1,1,12,35,585,1025.7212337779638,1026.7757275026233,"[51, 0, 203]",203,a,0.5311593292426551,colour,0.06
53,76,1,1,12,36,586,1027.2838058764173,1028.231700040531,"[65, 0, 189]",189,a,0.42456410102022346,colour,0.06
53,76,1,1,12,37,587,1028.7527367379225,1029.7676871349831,"[94, 0, 160]",160,l,0.49190626622294076,colour,0.06
53,76,1,1,12,38,588,1030.2839803502284,1031.2557502511772,"[57, 0, 197]",197,a,0.44843077939003706,colour,0.06
53,76,1,1,12,39,589,1031.7685929809522,1032.69574524145,"[53, 0, 201]",201,a,0.40401360658870544,colour,0.06
53,76,1,1,12,40,590,1033.1944343247887,1034.191708122249,"[64, 0, 190]",190,a,0.4743509712134255,colour,0.06
53,76,1,1,12,41,591,1034.7108299400134,1035.35169942613,"[47, 0, 207]",207,a,0.1175488753215177,colour,0.06
53,76,1,1,12,42,592,1035.8691859949904,1036.3996931151341,"[70, 0, 184]",184,a,0.016361547546694055,colour,0.06
53,76,1,1,12,43,593,1036.9069912798586,1037.7596916657785,"[75, 0, 179]",179,a,0.3293715043691918,colour,0.06
53,76,1,1,12,44,594,1038.266372279846,1038.9676612986805,"[52, 0, 202]",202,a,0.17794556496664882,colour,0.06
53,76,1,1,12,45,595,1039.4853770859481,1040.1117085318401,"[93, 0, 161]",161,l,0.10325108120741788,colour,0.06
53,76,1,1,12,46,596,1040.6260553597967,1041.407719698167,"[87, 0, 167]",167,l,0.25842249680135865,colour,0.06
53,76,1,1,12,47,597,1041.9230440520769,1042.6396883417183,"[77, 0, 177]",177,l,0.19336857731104828,colour,0.06
53,76,1,1,12,48,598,1043.1575018028234,1044.2556860542682,"[54, 0, 200]",200,a,0.5749877021589782,colour,0.06
53,76,1,1,12,49,599,1044.7670081443357,1045.6876879384217,"[71, 0, 183]",183,a,0.3975234171084594,colour,0.06
53,76,1,1,12,50,600,1046.2045904335537,1047.3197151862696,"[84, 0, 170]",170,a,0.5918502219137736,colour,0.06
53,76,1,1,13,1,601,1052.049942439393,1053.2956968771468,"[72, 0, 182]",182,a,0.7218213963060407,colour,0.06
53,76,1,1,13,2,602,1053.8164685161319,1054.9517022618093,"[88, 0, 166]",166,l,0.6120328640827211,colour,0.06
53,76,1,1,13,3,603,1055.458987429607,1056.5516834359732,"[70, 0, 184]",184,a,0.5694273832486942,colour,0.06
53,76,1,1,13,4,604,1057.0685213403485,1058.055722524412,"[90, 0, 164]",164,a,0.46415272090234794,colour,0.06
53,76,1,1,13,5,605,1058.5686101526371,1059.599704300359,"[73, 0, 181]",181,a,0.5082741152873496,colour,0.06
53,76,1,1,13,6,606,1060.1156418726023,1061.3436661477026,"[79, 0, 175]",175,a,0.7048210304346867,colour,0.06
53,76,1,1,13,7,607,1061.8501715002785,1062.871676677576,"[75, 0, 179]",179,a,0.4982700311084045,colour,0.06
53,76,1,1,13,8,608,1063.3814993956476,1064.6237037048704,"[77, 0, 177]",177,a,0.7189522276603384,colour,0.06
53,76,1,1,13,9,609,1065.1223671882035,1066.3837108413572,"[78, 0, 176]",176,a,0.7380923592718318,colour,0.06
53,76,1,1,13,10,610,1066.903693606655,1068.119697699498,"[81, 0, 173]",173,a,0.692797303563566,colour,0.06
53,76,1,1,13,11,611,1068.6382681327668,1071.3196836785792,"[95, 0, 159]",159,l,2.1582796488219174,colour,0.06
53,76,1,1,13,12,612,1071.8166445653333,1072.8876845513441,"[85, 0, 169]",169,a,0.5478182305814698,colour,0.06
53,76,1,1,13,13,613,1073.3950122545211,1074.4636789240758,"[53, 0, 201]",201,a,0.545435855674441,colour,0.06
53,76,1,1,13,14,614,1074.9732830575667,1075.9356892680516,"[61, 0, 193]",193,a,0.43911828892305493,colour,0.06
53,76,1,1,13,15,615,1076.4420859191014,1077.3836781521386,"[62, 0, 192]",192,a,0.4182310561009217,colour,0.06
53,76,1,1,13,16,616,1077.8976701247593,1078.847693814605,"[52, 0, 202]",202,a,0.42690669746662024,colour,0.06
53,76,1,1,13,17,617,1079.366527337057,1080.1756718915567,"[76, 0, 178]",178,a,0.28602638059237506,colour,0.06
53,76,1,1,13,18,618,1080.6946983985836,1081.6797283092164,"[91, 0, 163]",163,l,0.4618388751987368,colour,0.06
53,76,1,1,13,19,619,1082.1947974508657,1083.2476795573748,"[55, 0, 199]",199,a,0.5296158464770997,colour,0.06
53,76,1,1,13,20,620,1083.7574924292858,1084.647708623219,"[71, 0, 183]",183,a,0.36700822311104275,colour,0.06
53,76,1,1,13,21,621,1085.1637667123578,1086.1116825380013,"[92, 0, 162]",162,l,0.42466965175117366,colour,0.06
53,76,1,1,13,22,622,1086.6326420415717,1087.527677336082,"[51, 0, 203]",203,a,0.3717643083218718,colour,0.06
53,76,1,1,13,23,623,1088.0390766199998,1088.8556747114926,"[83, 0, 171]",171,l,0.2934913391218288,colour,0.06
53,76,1,1,13,24,624,1089.367871139868,1090.367692333748,"[82, 0, 172]",172,l,0.4766281892225379,colour,0.06
53,76,1,1,13,25,625,1090.883635813676,1091.8717188191076,"[67, 0, 187]",187,a,0.4647931146319024,colour,0.06
53,76,1,1,13,26,626,1092.372939545021,1093.4877519777947,"[93, 0, 161]",161,l,0.5915016681392444,colour,0.06
53,76,1,1,13,27,627,1093.998120960372,1095.1517335331882,"[94, 0, 160]",160,l,0.630453832767671,colour,0.06
53,76,1,1,13,28,628,1095.6700664772798,1096.8077487640112,"[59, 0, 195]",195,a,0.614375066710636,colour,0.06
53,76,1,1,13,29,629,1097.3281312830659,1098.2476874342974,"[64, 0, 190]",190,a,0.39557151595363393,colour,0.06
53,76,1,1,13,30,630,1098.767487455014,1099.7357139228116,"[69, 0, 185]",185,a,0.44483772163221147,colour,0.06
53,76,1,1,13,31,631,1100.253614817746,1101.175678193089,"[89, 0, 165]",165,l,0.3987652137730038,colour,0.06
53,76,1,1,13,32,632,1101.681989773395,1102.5997023311356,"[87, 0, 167]",167,a,0.3944529930886347,colour,0.06
53,76,1,1,13,33,633,1103.119604357984,1104.2717132264952,"[48, 0, 206]",206,a,0.6290206269040937,colour,0.06
53,76,1,1,13,34,634,1104.7916172225669,1105.7516753227392,"[98, 0, 156]",156,l,0.4368489478219999,colour,0.06
53,76,1,1,13,35,635,1106.260402361033,1107.25566084811,"[65, 0, 189]",189,a,0.4719110947626177,colour,0.06
53,76,1,1,13,36,636,1107.7762276871363,1108.6477369801287,"[57, 0, 197]",197,a,0.3483025037130574,colour,0.06
53,76,1,1,13,37,637,1109.1669092102093,1110.0316675876093,"[97, 0, 157]",157,l,0.34156222197634634,colour,0.06
53,76,1,1,13,38,638,1110.5420873763214,1111.5596643328608,"[63, 0, 191]",191,a,0.49432172419619747,colour,0.06
53,76,1,1,13,39,639,1112.0737531916238,1113.0077044169448,"[66, 0, 188]",188,a,0.4110012236778857,colour,0.06
53,76,1,1,13,40,640,1113.5267474654975,1114.5917285234755,"[58, 0, 196]",196,a,0.5418120779213496,colour,0.06
53,76,1,1,13,41,641,1115.1049887300906,1117.207751442169,"[54, 0, 200]",200,a,1.5795976704830537,colour,0.06
53,76,1,1,13,42,642,1117.7145639946684,1119.0636742766947,"[43, 0, 211]",211,a,0.8258967973670224,colour,0.06
53,76,1,1,13,43,643,1119.5740534992656,1120.5676944605075,"[84, 0, 170]",170,l,0.4710288795467932,colour,0.06
53,76,1,1,13,44,644,1121.0742277761456,1122.0236945676443,"[56, 0, 198]",198,a,0.42627260529843625,colour,0.06
53,76,1,1,13,45,645,1122.5430326069036,1123.5357275498827,"[99, 0, 155]",155,l,0.46952596292248927,colour,0.06
53,76,1,1,13,46,646,1124.0323643013107,1124.9197353511845,"[86, 0, 168]",168,l,0.3641162113635801,colour,0.06
53,76,1,1,13,47,647,1125.4387492551323,1126.431650967308,"[26, 0, 228]",228,a,0.46966380905359983,colour,0.06
53,76,1,1,13,48,648,1126.9388057720498,1127.8236932285654,"[96, 0, 158]",158,l,0.3615715718769934,colour,0.06
53,76,1,1,13,49,649,1128.3452202643239,1129.3996927212866,"[74, 0, 180]",180,l,0.5312191938428441,colour,0.06
53,76,1,1,13,50,650,1129.90786679968,1131.0796782120015,"[60, 0, 194]",194,a,0.6486837861011736,colour,0.06
53,76,1,1,14,1,651,1137.8709516069503,1138.7996772825281,"[97, 0, 157]",157,l,0.4047851510695182,colour,0.06
53,76,1,1,14,2,652,1139.3093660929153,1140.6077505756984,"[29, 0, 225]",225,a,0.7751836011884734,colour,0.06
53,76,1,1,14,3,653,1141.1220221790427,1142.1516752439784,"[94, 0, 160]",160,a,0.506464392572525,colour,0.06
53,76,1,1,14,4,654,1142.6689889144182,1143.607736003396,"[55, 0, 199]",199,a,0.415695868912735,colour,0.06
53,76,1,1,14,5,655,1144.1222750282323,1144.9757213586272,"[46, 0, 208]",208,a,0.3302226057421649,colour,0.06
53,76,1,1,14,6,656,1145.4817718189734,1146.3197203062737,"[76, 0, 178]",178,a,0.31478895955660846,colour,0.06
53,76,1,1,14,7,657,1146.825540760503,1147.5116615853913,"[56, 0, 198]",198,a,0.1627419248688966,colour,0.06
53,76,1,1,14,8,658,1148.0294159695914,1149.1517284131987,"[73, 0, 181]",181,a,0.5991025035618804,colour,0.06
53,76,1,1,14,9,659,1149.6719482738263,1150.1996890191367,"[44, 0, 210]",210,a,0.004516626810072921,colour,0.06
53,76,1,1,14,10,660,1150.7189053599723,1151.463662776383,"[99, 0, 155]",155,l,0.22162703327194322,colour,0.06
53,76,1,1,14,11,661,1151.984608101484,1152.5437049021566,"[93, 0, 161]",161,l,0.03585692832712084,colour,0.06
53,76,1,1,14,12,662,1153.062834596858,1154.3036860448046,"[77, 0, 177]",177,l,0.7176635632786201,colour,0.06
53,76,1,1,14,13,663,1154.8129250829952,1156.0556752628763,"[72, 0, 182]",182,a,0.7194425660127308,colour,0.06
53,76,1,1,14,14,664,1156.5631183629594,1157.727649530556,"[84, 0, 170]",170,a,0.6413259537075646,colour,0.06
53,76,1,1,14,15,665,1158.2351245321624,1159.207673460638,"[81, 0, 173]",173,a,0.4498060898768017,colour,0.06
53,76,1,1,14,16,666,1159.719595378294,1160.6956664722384,"[90, 0, 164]",164,l,0.45294858772831503,colour,0.06
53,76,1,1,14,17,667,1161.2041130921134,1162.0476427721587,"[74, 0, 180]",180,a,0.32077029992069583,colour,0.06
53,76,1,1,14,18,668,1162.563572861327,1163.5197807222576,"[75, 0, 179]",179,a,0.4329002470622072,colour,0.06
53,76,1,1,14,19,669,1164.0230187277775,1165.007705598473,"[70, 0, 184]",184,a,0.46144896758778486,colour,0.06
53,76,1,1,14,20,670,1165.5231725246704,1167.751694621198,"[67, 0, 187]",187,a,1.705279861111194,colour,0.06
53,76,1,1,14,21,671,1168.2577742261637,1169.2237191436288,"[54, 0, 200]",200,a,0.4427089835808147,colour,0.06
53,76,1,1,14,22,672,1169.742494770704,1170.6716532831197,"[65, 0, 189]",189,a,0.40588437546102796,colour,0.06
53,76,1,1,14,23,673,1171.1801731583691,1172.0556681736489,"[98, 0, 156]",156,l,0.35227995524473954,colour,0.06
53,76,1,1,14,24,674,1172.5724296718836,1173.335706912345,"[60, 0, 194]",194,a,0.24014606962737162,colour,0.06
53,76,1,1,14,25,675,1173.8540189825871,1174.679683804614,"[86, 0, 168]",168,l,0.30244346044491976,colour,0.06
53,76,1,1,14,26,676,1175.197862361034,1176.519687380729,"[69, 0, 185]",185,a,0.7985520642832853,colour,0.06
53,76,1,1,14,27,677,1177.0231069492875,1178.0316723137657,"[89, 0, 165]",165,l,0.48539677826920524,colour,0.06
53,76,1,1,14,28,678,1178.5413654564618,1179.4956816746999,"[96, 0, 158]",158,l,0.43112872741767205,colour,0.06
53,76,1,1,14,29,679,1180.0102124287514,1180.8796949898388,"[92, 0, 162]",162,l,0.3462493841216201,colour,0.06
53,76,1,1,14,30,680,1181.4009290041286,1182.3436563015566,"[58, 0, 196]",196,a,0.41943031740083825,colour,0.06
53,76,1,1,14,31,681,1182.854261197921,1183.8156851562962,"[95, 0, 159]",159,l,0.4382730952347629,colour,0.06
53,76,1,1,14,32,682,1184.3231085640582,1185.5036834454222,"[61, 0, 193]",193,a,0.6573216182441683,colour,0.06
53,76,1,1,14,33,683,1186.010683862507,1186.7196288552077,"[64, 0, 190]",190,a,0.18565037574444432,colour,0.06
53,76,1,1,14,34,684,1187.2294807178841,1188.1436742609367,"[78, 0, 176]",176,a,0.39091034763259813,colour,0.06
53,76,1,1,14,35,685,1188.6515631947696,1189.4716401286569,"[87, 0, 167]",167,l,0.29695127690501977,colour,0.06
53,76,1,1,14,36,686,1189.9797322870727,1191.287646269513,"[79, 0, 175]",175,a,0.7846646577963838,colour,0.06
53,76,1,1,14,37,687,1191.8081311885471,1193.0556417859625,"[51, 0, 203]",203,a,0.7243443742772797,colour,0.06
53,76,1,1,14,38,688,1193.5738195546874,1195.2476527758408,"[71, 0, 183]",183,a,1.1508883395144949,colour,0.06
53,76,1,1,14,39,689,1195.761516354658,1196.50364051621,"[82, 0, 172]",172,a,0.21896542150352616,colour,0.06
53,76,1,1,14,40,690,1197.0115010931186,1198.1837480991962,"[85, 0, 169]",169,a,0.6489078845188487,colour,0.06
53,76,1,1,14,41,691,1198.6992299915291,1199.4396373780328,"[66, 0, 188]",188,a,0.21720256644766778,colour,0.06
53,76,1,1,14,42,692,1199.9492757761473,1200.6876528861176,"[52, 0, 202]",202,a,0.21519710223947186,colour,0.06
53,76,1,1,14,43,693,1201.19941568996,1202.2876265772065,"[50, 0, 204]",204,a,0.5678527866402874,colour,0.06
53,76,1,1,14,44,694,1202.806050105879,1203.7436644935515,"[88, 0, 166]",166,l,0.41434103839856107,colour,0.06
53,76,1,1,14,45,695,1204.2615874438634,1205.2236510082585,"[63, 0, 191]",191,a,0.43878903359291144,colour,0.06
53,76,1,1,14,46,696,1205.7304584407684,1206.6956637153198,"[91, 0, 163]",163,l,0.4418874206749024,colour,0.06
53,76,1,1,14,47,697,1207.2150293238083,1208.2957122371445,"[83, 0, 171]",171,a,0.5574517056084005,colour,0.06
53,76,1,1,14,48,698,1208.8087767022662,1209.6076903172507,"[53, 0, 201]",201,a,0.2756170288048452,colour,0.06
53,76,1,1,14,49,699,1210.1214794591506,1211.2796441049286,"[80, 0, 174]",174,a,0.6349050811259076,colour,0.06
53,76,1,1,14,50,700,1211.7934639668238,1212.9196774558077,"[59, 0, 195]",195,a,0.603025604315917,colour,0.06
53,76,1,1,15,1,701,1218.4182393268711,1220.055675656724,"[75, 0, 179]",179,a,1.1166666601056932,colour,0.06
53,76,1,1,15,2,702,1220.5728558133414,1221.5196672945895,"[79, 0, 175]",175,a,0.42388629191555083,colour,0.06
53,76,1,1,15,3,703,1222.026169102537,1223.1196524072002,"[62, 0, 192]",192,a,0.5703210200008471,colour,0.06
53,76,1,1,15,4,704,1223.6355541394587,1224.4076696797129,"[53, 0, 201]",201,a,0.24904029557364993,colour,0.06
53,76,1,1,15,5,705,1224.9168835117453,1225.9516813879745,"[80, 0, 174]",174,a,0.5116064469475532,colour,0.06
53,76,1,1,15,6,706,1226.463864031728,1227.487657454738,"[83, 0, 171]",171,a,0.501394805876771,colour,0.06
53,76,1,1,15,7,707,1227.995265576319,1229.2876797464269,"[58, 0, 196]",196,a,0.769250310055213,colour,0.06
53,76,1,1,15,8,708,1229.8089838653104,1230.623660381796,"[89, 0, 165]",165,a,0.2913129764783662,colour,0.06
53,76,1,1,15,9,709,1231.1372742621897,1231.991676063175,"[61, 0, 193]",193,a,0.32963341200957075,colour,0.06
53,76,1,1,15,10,710,1232.498194412663,1233.5756284897216,"[98, 0, 156]",156,l,0.5542091708630323,colour,0.06
53,76,1,1,15,11,711,1234.0920398587914,1234.7916762994864,"[30, 0, 224]",224,a,0.17632725143630523,colour,0.06
53,76,1,1,15,12,712,1235.3109406895383,1236.359633849177,"[59, 0, 195]",195,a,0.5254249303834513,colour,0.06
53,76,1,1,15,13,713,1236.8735462649056,1237.9276752880833,"[86, 0, 168]",168,l,0.5308312554698205,colour,0.06
53,76,1,1,15,14,714,1238.438787064355,1239.4956639516167,"[94, 0, 160]",160,l,0.5335259503190173,colour,0.06
53,76,1,1,15,15,715,1240.0170113935746,1241.0396406075743,"[99, 0, 155]",155,l,0.49938146473141387,colour,0.06
53,76,1,1,15,16,716,1241.5483601627784,1242.5196995899605,"[63, 0, 191]",191,a,0.44808261944854166,colour,0.06
53,76,1,1,15,17,717,1243.0328999319754,1244.6396584094182,"[95, 0, 159]",159,a,1.083515060483478,colour,0.06
53,76,1,1,15,18,718,1245.158137864244,1246.1356787917466,"[96, 0, 158]",158,l,0.4544014859129675,colour,0.06
53,76,1,1,15,19,719,1246.6425078857865,1247.7596763057809,"[88, 0, 166]",166,l,0.5938182707468513,colour,0.06
53,76,1,1,15,20,720,1248.2676688211359,1249.207675429876,"[64, 0, 190]",190,a,0.41678367178246845,colour,0.06
53,76,1,1,15,21,721,1249.7209293349588,1251.1756518054026,"[69, 0, 185]",185,a,0.9314491211844143,colour,0.06
53,76,1,1,15,22,722,1251.6897954087763,1252.6396926740272,"[51, 0, 203]",203,a,0.426579411374405,colour,0.06
53,76,1,1,15,23,723,1253.158674676437,1254.0636691566906,"[50, 0, 204]",204,a,0.3817467309854692,colour,0.06
53,76,1,1,15,24,724,1254.5807417933247,1255.6716777015681,"[54, 0, 200]",200,a,0.5681934634922072,colour,0.06
53,76,1,1,15,25,725,1256.1901776363957,1257.2716636018886,"[71, 0, 183]",183,a,0.5582185239181854,colour,0.06
53,76,1,1,15,26,726,1257.784064830208,1258.887651468278,"[60, 0, 194]",194,a,0.5803089565015398,colour,0.06
53,76,1,1,15,27,727,1259.4091174578934,1260.4636600194644,"[77, 0, 177]",177,a,0.5311435754119884,colour,0.06
53,76,1,1,15,28,728,1260.9718313409248,1261.7836371133744,"[66, 0, 188]",188,a,0.2886033154791221,colour,0.06
53,76,1,1,15,29,729,1262.300115830134,1265.6956727737706,"[84, 0, 170]",170,a,2.872429711278528,colour,0.06
53,76,1,1,15,30,730,1266.2065722670086,1268.2956527663919,"[20, 0, 234]",234,a,1.565812663960969,colour,0.06
53,76,1,1,15,31,731,1268.8161431992776,1270.1436718978657,"[82, 0, 172]",172,l,0.8042714970069937,colour,0.06
53,76,1,1,15,32,732,1270.6600671192427,1271.455661005646,"[56, 0, 198]",198,a,0.27176206340664066,colour,0.06
53,76,1,1,15,33,733,1271.9731861714245,1273.039671721417,"[81, 0, 173]",173,l,0.5431712407298619,colour,0.06
53,76,1,1,15,34,734,1273.5533167156536,1274.3996521551453,"[73, 0, 181]",181,a,0.3232696471095551,colour,0.06
53,76,1,1,15,35,735,1274.9127646694833,1275.8716337483493,"[78, 0, 176]",176,a,0.4356374772905838,colour,0.06
53,76,1,1,15,36,736,1276.3816545709997,1277.0397004721744,"[72, 0, 182]",182,a,0.13479697037837468,colour,0.06
53,76,1,1,15,37,737,1277.5535652325198,1278.19967602221,"[93, 0, 161]",161,l,0.12278663428151049,colour,0.06
53,76,1,1,15,38,738,1278.7100371278648,1279.3278721323586,"[57, 0, 197]",197,a,0.09473809826886281,colour,0.06
53,76,1,1,15,39,739,1279.835057263248,1280.663659783153,"[12, 0, 242]",242,a,0.3054662290815031,colour,0.06
53,76,1,1,15,40,740,1281.1663594010897,1281.8796485159983,"[91, 0, 163]",163,l,0.19004569794924464,colour,0.06
53,76,1,1,15,41,741,1282.3889336341817,1283.0076406138833,"[52, 0, 202]",202,a,0.09554272580135148,colour,0.06
53,76,1,1,15,42,742,1283.5139521941746,1284.1436443286366,"[68, 0, 186]",186,a,0.10648180056887213,colour,0.06
53,76,1,1,15,43,743,1284.6546387387789,1285.5596706344077,"[90, 0, 164]",164,l,0.3817861155985156,colour,0.06
53,76,1,1,15,44,744,1286.0766625325923,1286.8556605330377,"[55, 0, 199]",199,a,0.2558707680727821,colour,0.06
53,76,1,1,15,45,745,1287.375277809173,1288.0716350874281,"[92, 0, 162]",162,a,0.17309338129416574,colour,0.06
53,76,1,1,15,46,746,1288.578572095299,1289.247663015849,"[87, 0, 167]",167,a,0.14620354044018313,colour,0.06
53,76,1,1,15,47,747,1289.766118839907,1291.3516978507396,"[65, 0, 189]",189,l,1.062399790782365,colour,0.06
53,76,1,1,15,48,748,1291.8600401014119,1293.3836336475215,"[76, 0, 178]",178,a,1.000449772211141,colour,0.06
53,76,1,1,15,49,749,1293.8819438509381,1294.471665334815,"[74, 0, 180]",180,a,0.06651430074998643,colour,0.06
53,76,1,1,15,50,750,1294.9914141555346,1295.5836779158271,"[70, 0, 184]",184,a,0.06896441719436552,colour,0.06
53,76,1,1,16,1,751,1300.7254329648422,1301.5436596098589,"[51, 0, 203]",203,a,0.2941880528378533,colour,0.06
53,76,1,1,16,2,752,1302.054476395424,1302.9276359034848,"[90, 0, 164]",164,l,0.3498940357239917,colour,0.06
53,76,1,1,16,3,753,1303.447606459551,1304.1756399900187,"[89, 0, 165]",165,l,0.20489408887806349,colour,0.06
53,76,1,1,16,4,754,1304.6820299456886,1307.191641956102,"[63, 0, 191]",191,a,1.9863642611453542,colour,0.06
53,76,1,1,16,5,755,1307.6979436902475,1308.439638165728,"[74, 0, 180]",180,a,0.21851958773913793,colour,0.06
53,76,1,1,16,6,756,1308.94803870561,1309.751659175061,"[78, 0, 176]",176,l,0.28324228269048035,colour,0.06
53,76,1,1,16,7,757,1310.2578151861526,1311.471704325566,"[75, 0, 179]",179,a,0.690686288595316,colour,0.06
53,76,1,1,16,8,758,1311.9922365061357,1312.6156298603019,"[52, 0, 202]",202,a,0.10015230027784128,colour,0.06
53,76,1,1,16,9,759,1313.1330872845574,1313.9676585417474,"[88, 0, 166]",166,l,0.31142472635838203,colour,0.06
53,76,1,1,16,10,760,1314.4768719799322,1315.0796045627794,"[7, 0, 247]",247,a,0.08005039654381108,colour,0.06
53,76,1,1,16,11,761,1315.5738754808408,1316.215720129825,"[68, 0, 186]",186,a,0.11888952735171188,colour,0.06
53,76,1,1,16,12,762,1316.7301925946667,1317.359759092229,"[53, 0, 201]",201,a,0.10549048999382649,colour,0.06
53,76,1,1,16,13,763,1317.8717270898778,1318.4876826608815,"[94, 0, 160]",160,l,0.09268655405321624,colour,0.06
53,76,1,1,16,14,764,1319.001736861188,1319.6796416630823,"[62, 0, 192]",192,a,0.15470431414723862,colour,0.06
53,76,1,1,16,15,765,1320.1893316550268,1320.7756286472577,"[77, 0, 177]",177,a,0.06304648604418617,colour,0.06
53,76,1,1,16,16,766,1321.2738655952999,1321.8156686147559,"[59, 0, 195]",195,a,0.018474137905286625,colour,0.06
53,76,1,1,16,17,767,1322.336456007586,1323.0316746768367,"[96, 0, 158]",158,l,0.1721501199499471,colour,0.06
53,76,1,1,16,18,768,1323.539692792183,1324.1276667810162,"[71, 0, 183]",183,a,0.0647246641892707,colour,0.06
53,76,1,1,16,19,769,1324.6491284383228,1325.343638578488,"[81, 0, 173]",173,a,0.1716672646580264,colour,0.06
53,76,1,1,16,20,770,1325.852477469045,1326.471628313273,"[92, 0, 162]",162,l,0.09613113183877431,colour,0.06
53,76,1,1,16,21,771,1326.9680642032035,1329.271641546511,"[70, 0, 184]",184,a,1.7802689417439979,colour,0.06
53,76,1,1,16,22,772,1329.7810515138844,1330.8076168255793,"[83, 0, 171]",171,l,0.503428233176237,colour,0.06
53,76,1,1,16,23,773,1331.3283837384079,1332.1516555516719,"[85, 0, 169]",169,l,0.29995041477377526,colour,0.06
53,76,1,1,16,24,774,1332.6583074149821,1333.8876388651988,"[57, 0, 197]",197,a,0.706062827113783,colour,0.06
53,76,1,1,16,25,775,1334.4085893103038,1335.415637973536,"[72, 0, 182]",182,a,0.4838761385617545,colour,0.06
53,76,1,1,16,26,776,1335.9242610364454,1336.5836491650698,"[65, 0, 189]",189,a,0.13609902551979758,colour,0.06
53,76,1,1,16,27,777,1337.0975544915564,1337.7196631198167,"[61, 0, 193]",193,a,0.09885418361227494,colour,0.06
53,76,1,1,16,28,778,1338.2388558298844,1339.0636431628518,"[60, 0, 194]",194,a,0.30456629079708364,colour,0.06
53,76,1,1,16,29,779,1339.5799635534786,1340.279638197244,"[97, 0, 157]",157,l,0.17796643880137708,colour,0.06
53,76,1,1,16,30,780,1340.7976292829262,1341.3916629874875,"[82, 0, 172]",172,l,0.07077374606160447,colour,0.06
53,76,1,1,16,31,781,1341.9082330765232,1342.6076662926353,"[79, 0, 175]",175,a,0.17623312221257947,colour,0.06
53,76,1,1,16,32,782,1343.1271059441933,1344.2076699160243,"[58, 0, 196]",196,a,0.5573658471694216,colour,0.06
53,76,1,1,16,33,783,1344.7210124364792,1345.3995942597685,"[99, 0, 155]",155,l,0.15535534171795007,colour,0.06
53,76,1,1,16,34,784,1345.9086663072085,1346.4717543440202,"[98, 0, 156]",156,l,0.04000215827545617,colour,0.06
53,76,1,1,16,35,785,1346.9889278052578,1347.559598560576,"[66, 0, 188]",188,a,0.04750216910906602,colour,0.06
53,76,1,1,16,36,786,1348.0671283067786,1349.183618917683,"[55, 0, 199]",199,a,0.5932759447023273,colour,0.06
53,76,1,1,16,37,787,1349.6934573895996,1350.599665309608,"[87, 0, 167]",167,l,0.3836269521561917,colour,0.06
53,76,1,1,16,38,788,1351.114811251231,1351.6796885307704,"[56, 0, 198]",198,a,0.04174256409169175,colour,0.06
53,76,1,1,16,39,789,1352.1929436173814,1353.1836216746015,"[73, 0, 181]",181,a,0.46777807403123006,colour,0.06
53,76,1,1,16,40,790,1353.6930466081394,1354.3356364139036,"[86, 0, 168]",168,l,0.11942949032527395,colour,0.06
53,76,1,1,16,41,791,1354.849399168117,1355.3916236028745,"[20, 0, 234]",234,a,0.018969990109326318,colour,0.06
53,76,1,1,16,42,792,1355.911924595799,1356.7196579998126,"[64, 0, 190]",190,a,0.2845222824253142,colour,0.06
53,76,1,1,16,43,793,1357.2263165585027,1357.9356085296022,"[50, 0, 204]",204,a,0.18618797564704437,colour,0.06
53,76,1,1,16,44,794,1358.4451748538704,1359.1836772069073,"[84, 0, 170]",170,l,0.21534558221173938,colour,0.06
53,76,1,1,16,45,795,1359.6952383615571,1360.575605646649,"[40, 0, 214]",214,a,0.3571116589155281,colour,0.06
53,76,1,1,16,46,796,1361.0752986436273,1363.8156497101445,"[69, 0, 185]",185,a,2.2171702710766112,colour,0.06
53,76,1,1,16,47,797,1364.3272545817017,1365.0476163844723,"[93, 0, 161]",161,l,0.19704552428447641,colour,0.06
53,76,1,1,16,48,798,1365.561752898604,1366.2076072945056,"[80, 0, 174]",174,a,0.12254914510413073,colour,0.06
53,76,1,1,16,49,799,1366.7180822216615,1367.3676564937487,"[67, 0, 187]",187,a,0.1263915074086981,colour,0.06
53,76,1,1,16,50,800,1367.8745072493184,1368.9916071401094,"[95, 0, 159]",159,a,0.5938678953534691,colour,0.06
