id,age,condition,counterbalance,block,trialinblock,trial,tstart,tend,trialstim,trialintensity,response,RT,trialtype,colourfreq
028,81,1,2,Practice,1,NA,5.907728336751461e-06,3.6673159872880206,"[47, 0, 207]",207,a,3.1333704073913395,colour,0.5
028,81,1,2,Practice,2,NA,4.185729859513231,5.6113390603568405,"[44, 0, 210]",210,a,0.9084079802269116,colour,0.5
028,81,1,2,Practice,3,NA,6.128598964074627,7.635305372416042,"[30, 0, 224]",224,a,0.9838377450359985,colour,0.5
028,81,1,2,Practice,4,NA,8.144586351467296,9.5473426427925,"[74, 0, 180]",180,a,0.8709496886003762,colour,0.5
028,81,1,2,Practice,5,NA,10.061896431143396,10.643348887562752,"[64, 0, 190]",190,a,0.06320675648748875,colour,0.5
028,81,1,2,Practice,6,NA,11.169923247303814,14.379361449740827,"[5, 0, 249]",249,a,2.6877680121688172,colour,0.5
028,81,1,2,Practice,7,NA,14.894053871859796,16.107413204270415,"[46, 0, 208]",208,a,0.689001931459643,colour,0.5
028,81,1,2,Practice,8,NA,16.671270200400613,17.93133375130128,"[95, 0, 159]",159,l,0.742312915273942,colour,0.5
028,81,1,2,Practice,9,NA,18.448892584070563,39.059272235725075,"[94, 0, 160]",160,a,20.09314534801524,colour,0.5
028,81,1,2,Practice,10,NA,39.56656783760991,41.771329119685106,"[81, 0, 173]",173,l,1.6818563848501071,colour,0.5
028,81,1,2,1,1,1,5.466926394961774,7.432003289461136,"[61, 0, 193]",193,l,1.441401240765117,colour,0.5
028,81,1,2,1,2,2,7.9534915229305625,9.263909850269556,"[96, 0, 158]",158,l,0.7930587807204574,colour,0.5
028,81,1,2,1,3,3,9.783771500107832,11.079911731299944,"[7, 0, 247]",247,a,0.7784041678532958,colour,0.5
028,81,1,2,1,4,4,11.59360772324726,12.919874016661197,"[62, 0, 192]",192,l,0.8085436208639294,colour,0.5
028,81,1,2,1,5,5,13.433650353108533,15.407868805225007,"[1, 0, 253]",253,a,1.4551381926285103,colour,0.5
028,81,1,2,1,6,6,15.930208139703609,17.463943406008184,"[64, 0, 190]",190,l,1.0012358885724097,colour,0.5
028,81,1,2,1,7,7,17.98809443169739,19.16794338391628,"[99, 0, 155]",155,l,0.6566049536922947,colour,0.5
028,81,1,2,1,8,8,19.68649116368033,20.712223480804823,"[36, 0, 218]",218,a,0.5077808200148866,colour,0.5
028,81,1,2,1,9,9,21.23196894605644,22.64795018953737,"[65, 0, 189]",189,l,0.884602751233615,colour,0.5
028,81,1,2,1,10,10,23.16380878945347,24.551871477044187,"[94, 0, 160]",160,l,0.8709236946888268,colour,0.5
028,81,1,2,1,11,11,25.06935429747682,26.19197625585366,"[49, 0, 205]",205,a,0.6061206018785015,colour,0.5
028,81,1,2,1,12,12,26.708679261384532,27.863900240394287,"[98, 0, 156]",156,l,0.6377771493280306,colour,0.5
028,81,1,2,1,13,13,28.37353725626599,29.607873610104434,"[55, 0, 199]",199,a,0.7142513933358714,colour,0.5
028,81,1,2,1,14,14,30.119681110838428,31.143955804174766,"[91, 0, 163]",163,l,0.4923731737071648,colour,0.5
028,81,1,2,1,15,15,31.663288125069812,32.74390759749804,"[4, 0, 250]",250,a,0.5479145071003586,colour,0.5
028,81,1,2,1,16,16,33.256971860537305,34.29596181900706,"[68, 0, 186]",186,l,0.5213708673836663,colour,0.5
028,81,1,2,1,17,17,34.818374802707694,35.90398312138859,"[44, 0, 210]",210,a,0.5680081321625039,colour,0.5
028,81,1,2,1,18,18,36.41258629166987,37.92788208567072,"[57, 0, 197]",197,a,0.997977994964458,colour,0.5
028,81,1,2,1,19,19,38.447366431122646,39.98387988645118,"[2, 0, 252]",252,a,1.0149677203735337,colour,0.5
028,81,1,2,1,20,20,40.500497033586726,41.823914639418945,"[26, 0, 228]",228,a,0.8000901119085029,colour,0.5
028,81,1,2,1,21,21,42.3470979857957,44.72787452384364,"[53, 0, 201]",201,a,1.8573813026305288,colour,0.5
028,81,1,2,1,22,22,45.23809718864504,46.21588349097874,"[86, 0, 168]",168,l,0.4545584514271468,colour,0.5
028,81,1,2,1,23,23,46.722415031748824,47.97618886339478,"[6, 0, 248]",248,a,0.7430529518751428,colour,0.5
028,81,1,2,1,24,24,48.484726655180566,49.663856838596985,"[18, 0, 236]",236,a,0.6668670029612258,colour,0.5
028,81,1,2,1,25,25,50.18535688740667,51.167900060885586,"[75, 0, 179]",179,l,0.4651922914199531,colour,0.5
028,81,1,2,1,26,26,51.68487836467102,52.743904840550385,"[73, 0, 181]",181,l,0.5271013255696744,colour,0.5
028,81,1,2,1,27,27,53.261475488659926,54.159867967129685,"[48, 0, 206]",206,a,0.3656658516265452,colour,0.5
028,81,1,2,1,28,28,54.68283784890082,55.880068797036074,"[37, 0, 217]",217,a,0.6797882999526337,colour,0.5
028,81,1,2,1,29,29,56.40051845880225,57.127857352257706,"[20, 0, 234]",234,a,0.21040430653374642,colour,0.5
028,81,1,2,1,30,30,57.63679056533147,58.47214445960708,"[45, 0, 209]",209,a,0.3180731167085469,colour,0.5
028,81,1,2,1,31,31,58.992121900082566,60.09584358648863,"[78, 0, 176]",176,l,0.5739693839568645,colour,0.5
028,81,1,2,1,32,32,60.61678673722781,61.423892032704316,"[15, 0, 239]",239,a,0.28442449658177793,colour,0.5
028,81,1,2,1,33,33,61.94426174368709,62.8878823062405,"[41, 0, 213]",213,a,0.42025959165766835,colour,0.5
028,81,1,2,1,34,34,63.39747718058061,64.03986902267206,"[80, 0, 174]",174,l,0.11796985031105578,colour,0.5
028,81,1,2,1,35,35,64.55691782489885,65.19999653415289,"[95, 0, 159]",159,l,0.11978311685379595,colour,0.5
028,81,1,2,1,36,36,65.71319234173279,66.42388612497598,"[33, 0, 221]",221,a,0.18742615380324423,colour,0.5
028,81,1,2,1,37,37,66.93195602798369,67.60786061326507,"[8, 0, 246]",246,a,0.1526271098991856,colour,0.5
028,81,1,2,1,38,38,68.11617666983511,69.30386394355446,"[71, 0, 183]",183,l,0.6625437561888248,colour,0.5
028,81,1,2,1,39,39,69.81997539254371,70.53585336962715,"[21, 0, 233]",233,a,0.18871127313468605,colour,0.5
028,81,1,2,1,40,40,71.04974825377576,72.23188702610787,"[82, 0, 172]",172,l,0.665061219362542,colour,0.5
028,81,1,2,1,41,41,72.74910872674081,73.47986029495951,"[31, 0, 223]",223,a,0.21394064894411713,colour,0.5
028,81,1,2,1,42,42,74.00069277500734,75.58387421513908,"[9, 0, 245]",245,a,1.0508167577208951,colour,0.5
028,81,1,2,1,43,43,76.10512377799023,77.60787361010443,"[72, 0, 182]",182,l,0.9834950988879427,colour,0.5
028,81,1,2,1,44,44,78.11899896978866,79.20005639875308,"[32, 0, 222]",222,a,0.5560344284167513,colour,0.5
028,81,1,2,1,45,45,79.72149737074506,80.83186993317213,"[25, 0, 229]",229,a,0.5784911289811134,colour,0.5
028,81,1,2,1,46,46,81.35138342319988,82.43187647103332,"[66, 0, 188]",188,l,0.5487912080716342,colour,0.5
028,81,1,2,1,47,47,82.94460911583155,84.23984862142242,"[92, 0, 162]",162,l,0.7632021091412753,colour,0.5
028,81,1,2,1,48,48,84.75610973185394,85.45586050616112,"[0, 0, 254]",254,a,0.16634082479868084,colour,0.5
028,81,1,2,1,49,49,85.97907575394493,87.20783328032121,"[22, 0, 232]",232,a,0.7114326381124556,colour,0.5
028,81,1,2,1,50,50,87.72845899127424,88.61586119933054,"[60, 0, 194]",194,l,0.3686110315611586,colour,0.5
028,81,1,2,2,1,51,93.87729651562404,96.46388432907406,"[69, 0, 185]",185,l,2.068811971694231,colour,0.5
028,81,1,2,2,2,52,96.9754567038035,98.94384190393612,"[84, 0, 170]",170,l,1.4505971490871161,colour,0.5
028,81,1,2,2,3,53,99.4538633134216,100.6958276751684,"[89, 0, 165]",165,l,0.7245205320650712,colour,0.5
028,81,1,2,2,4,54,101.19751057878602,102.18385397142265,"[35, 0, 219]",219,a,0.4630359848961234,colour,0.5
028,81,1,2,2,5,55,102.69750427722465,103.80783587973565,"[26, 0, 228]",228,a,0.5870367977768183,colour,0.5
028,81,1,2,2,6,56,104.31308072584216,105.36782767192926,"[40, 0, 214]",214,a,0.5407126405043527,colour,0.5
028,81,1,2,2,7,57,105.88271465396974,107.0718658529222,"[19, 0, 235]",235,a,0.6658504866063595,colour,0.5
028,81,1,2,2,8,58,107.58584186935332,108.71184381330386,"[3, 0, 251]",251,a,0.6028717668959871,colour,0.5
028,81,1,2,2,9,59,109.2264192631701,110.20784233883023,"[44, 0, 210]",210,a,0.4571598038310185,colour,0.5
028,81,1,2,2,10,60,110.7163832813967,111.54385789413936,"[13, 0, 241]",241,a,0.29954502917826176,colour,0.5
028,81,1,2,2,11,61,112.05563113023527,113.33583359851036,"[78, 0, 176]",176,l,0.748196579515934,colour,0.5
028,81,1,2,2,12,62,113.84810544364154,114.94385765783954,"[49, 0, 205]",205,a,0.578027572366409,colour,0.5
028,81,1,2,2,13,63,115.456884111627,116.20016706944443,"[8, 0, 246]",246,a,0.2095402084523812,colour,0.5
028,81,1,2,2,14,64,116.70950436859857,117.7438705759123,"[11, 0, 243]",243,a,0.5170358052710071,colour,0.5
028,81,1,2,2,15,65,118.25677099917084,119.03187119355425,"[53, 0, 201]",201,l,0.24149883585050702,colour,0.5
028,81,1,2,2,16,66,119.54499492736068,120.42381011275575,"[2, 0, 252]",252,a,0.3479010375449434,colour,0.5
028,81,1,2,2,17,67,120.93418283271603,121.67987140151672,"[94, 0, 160]",160,l,0.22224961640313268,colour,0.5
028,81,1,2,2,18,68,122.19055092742201,123.51184018992353,"[62, 0, 192]",192,l,0.7980661377077922,colour,0.5
028,81,1,2,2,19,69,124.00983433274087,124.6558503449196,"[92, 0, 162]",162,l,0.12241046305280179,colour,0.5
028,81,1,2,2,20,70,125.17281250096858,125.81589278578758,"[30, 0, 224]",224,a,0.11986700620036572,colour,0.5
028,81,1,2,2,21,71,126.32893223653082,127.94389467930887,"[67, 0, 187]",187,l,1.0916298289084807,colour,0.5
028,81,1,2,2,22,72,128.453934205696,129.52779685740825,"[46, 0, 208]",208,a,0.5505729670403525,colour,0.5
028,81,1,2,2,23,73,130.03359426942188,131.1518047596328,"[37, 0, 217]",217,a,0.5986064156750217,colour,0.5
028,81,1,2,2,24,74,131.66654798784293,132.61586277466267,"[54, 0, 200]",200,a,0.41792132845148444,colour,0.5
028,81,1,2,2,25,75,133.13337828428484,134.28787498071324,"[76, 0, 178]",178,l,0.6356440798845142,colour,0.5
028,81,1,2,2,26,76,134.80508171522524,135.95984071295243,"[83, 0, 171]",171,l,0.6362305163638666,colour,0.5
028,81,1,2,2,27,77,136.47669968148693,137.39983710541856,"[82, 0, 172]",172,l,0.40575739729683846,colour,0.5
028,81,1,2,2,28,78,137.91459333046805,138.8398082916392,"[4, 0, 250]",250,a,0.40689206740353256,colour,0.5
028,81,1,2,2,29,79,139.35270438250154,140.48778841341846,"[22, 0, 232]",232,a,0.6202856643358245,colour,0.5
028,81,1,2,2,30,80,141.00180342048407,142.11188611236867,"[86, 0, 168]",168,l,0.5868335732957348,colour,0.5
028,81,1,2,2,31,81,142.62668290361762,143.66383320791647,"[31, 0, 223]",223,a,0.5190641118679196,colour,0.5
028,81,1,2,2,32,82,144.1798623430077,145.24784960132092,"[42, 0, 212]",212,a,0.5447160843759775,colour,0.5
028,81,1,2,2,33,83,145.75787494925316,146.74411436659284,"[59, 0, 195]",195,l,0.46338650782126933,colour,0.5
028,81,1,2,2,34,84,147.25786510307807,148.40779358067084,"[97, 0, 157]",157,l,0.6267447373829782,colour,0.5
028,81,1,2,2,35,85,148.91417112771887,150.00787770620082,"[20, 0, 234]",234,a,0.5703881430672482,colour,0.5
028,81,1,2,2,36,86,150.5212657105876,151.6478072234895,"[15, 0, 239]",239,a,0.5974638685584068,colour,0.5
028,81,1,2,2,37,87,152.15788101451471,153.44779690471478,"[17, 0, 237]",237,a,0.7727040358586237,colour,0.5
028,81,1,2,2,38,88,153.9675589115359,154.8637958712643,"[74, 0, 180]",180,l,0.3791377452434972,colour,0.5
028,81,1,2,2,39,89,155.37488342169672,156.38379261025693,"[58, 0, 196]",196,l,0.4859381252899766,colour,0.5
028,81,1,2,2,40,90,156.89671193796676,157.83198099781293,"[55, 0, 199]",199,l,0.40323560184333473,colour,0.5
028,81,1,2,2,41,91,158.35070718976203,159.13581382751,"[73, 0, 181]",181,l,0.26682155311573297,colour,0.5
028,81,1,2,2,42,92,159.64432247483637,160.40779948839918,"[24, 0, 230]",230,a,0.25219647877383977,colour,0.5
028,81,1,2,2,43,93,160.95971783308778,161.8877409156412,"[91, 0, 163]",163,l,0.3970813654595986,colour,0.5
028,81,1,2,2,44,94,162.39746733440552,163.51982344675343,"[41, 0, 213]",213,a,0.6048071257537231,colour,0.5
028,81,1,2,2,45,95,164.03463205345906,164.87181299889926,"[75, 0, 179]",179,l,0.3054633518913761,colour,0.5
028,81,1,2,2,46,96,165.39432444400154,166.27178086107597,"[48, 0, 206]",206,a,0.35994248278439045,colour,0.5
028,81,1,2,2,47,97,166.78615820640698,167.8878165340284,"[72, 0, 182]",182,l,0.5840364795876667,colour,0.5
028,81,1,2,2,48,98,168.41205105511472,169.43984121712856,"[95, 0, 159]",159,l,0.504882114008069,colour,0.5
028,81,1,2,2,49,99,169.9539897380164,170.91183798445854,"[34, 0, 220]",220,a,0.4365010098554194,colour,0.5
028,81,1,2,2,50,100,171.4250779027352,172.60781925939955,"[60, 0, 194]",194,a,0.6603453083662316,colour,0.5
028,81,1,2,3,1,101,177.8571339675691,179.13579689210746,"[25, 0, 229]",229,a,0.75470645877067,colour,0.5
028,81,1,2,3,2,102,179.64434571168385,180.74381425604224,"[8, 0, 246]",246,a,0.5776802003383636,colour,0.5
028,81,1,2,3,3,103,181.26700429769699,182.36780955502763,"[44, 0, 210]",210,a,0.582668652641587,colour,0.5
028,81,1,2,3,4,104,182.8771704848623,184.04786015639547,"[49, 0, 205]",205,a,0.6537294845329598,colour,0.5
028,81,1,2,3,5,105,184.55806667346042,185.4957921502646,"[66, 0, 188]",188,l,0.40612249239347875,colour,0.5
028,81,1,2,3,6,106,186.01145461481065,186.9677967944881,"[17, 0, 237]",237,a,0.438801463926211,colour,0.5
028,81,1,2,3,7,107,187.48122024501208,188.98375503730495,"[89, 0, 165]",165,l,0.9844088214449584,colour,0.5
028,81,1,2,3,8,108,189.50719556503464,190.6478017095942,"[37, 0, 217]",217,a,0.6173936537234113,colour,0.5
028,81,1,2,3,9,109,191.16060091438703,192.05578000401147,"[43, 0, 211]",211,a,0.3678418503841385,colour,0.5
028,81,1,2,3,10,110,192.5770315360278,193.31177552044392,"[71, 0, 183]",183,l,0.20237024349626154,colour,0.5
028,81,1,2,3,11,111,193.8322685052408,194.77581778168678,"[92, 0, 162]",162,l,0.4249739273218438,colour,0.5
028,81,1,2,3,12,112,195.28744371945504,196.7597646219656,"[60, 0, 194]",194,l,0.9552047526231036,colour,0.5
028,81,1,2,3,13,113,197.26899794570636,197.8957887631841,"[90, 0, 164]",164,l,0.10962779994588345,colour,0.5
028,81,1,2,3,14,114,198.41269814397674,200.15180554729886,"[51, 0, 203]",203,l,1.2191413843538612,colour,0.5
028,81,1,2,3,15,115,200.6616552398773,201.21579999558162,"[28, 0, 226]",226,a,0.0365981322247535,colour,0.5
028,81,1,2,3,16,116,201.73574041458778,202.7038609504234,"[72, 0, 182]",182,l,0.44998078036587685,colour,0.5
028,81,1,2,3,17,117,203.22068801731803,203.90376256767195,"[14, 0, 240]",240,a,0.15513078833464533,colour,0.5
028,81,1,2,3,18,118,204.42091258824803,206.95179877313785,"[13, 0, 241]",241,a,2.0137507364852354,colour,0.5
028,81,1,2,3,19,119,207.47257296391763,208.91976689046714,"[48, 0, 206]",206,a,0.928804078954272,colour,0.5
028,81,1,2,3,20,120,209.43746160005685,210.73598420526832,"[83, 0, 171]",171,l,0.770556787843816,colour,0.5
028,81,1,2,3,21,121,211.24502572603524,212.42379987274762,"[26, 0, 228]",228,a,0.6618308951146901,colour,0.5
028,81,1,2,3,22,122,212.94176239753142,214.03180660284124,"[46, 0, 208]",208,a,0.5672972402535379,colour,0.5
028,81,1,2,3,23,123,214.53494122251868,215.15177285810933,"[74, 0, 180]",180,l,0.0935970894061029,colour,0.5
028,81,1,2,3,24,124,215.64999306830578,216.77577406482305,"[6, 0, 248]",248,a,0.6029702284140512,colour,0.5
028,81,1,2,3,25,125,217.29092492361087,218.36776977661066,"[53, 0, 201]",201,l,0.5536855313694105,colour,0.5
028,81,1,2,3,26,126,218.884642529767,219.95977848535404,"[7, 0, 247]",247,a,0.5518277601804584,colour,0.5
028,81,1,2,3,27,127,220.46924378431868,222.24768969987053,"[98, 0, 156]",156,l,1.260120264836587,colour,0.5
028,81,1,2,3,28,128,222.76729416823946,224.55977872165386,"[39, 0, 215]",215,a,1.2691621794365346,colour,0.5
028,81,1,2,3,29,129,225.07975025451742,226.23984862142242,"[5, 0, 249]",249,a,0.6475504358531907,colour,0.5
028,81,1,2,3,30,130,226.75710458657704,227.9198251797352,"[62, 0, 192]",192,l,0.6395506375702098,colour,0.5
028,81,1,2,3,31,131,228.42966108769178,229.38377646252047,"[40, 0, 214]",214,l,0.4308371115475893,colour,0.5
028,81,1,2,3,32,132,229.89831528475042,230.87175589124672,"[61, 0, 193]",193,l,0.45004143263213336,colour,0.5
028,81,1,2,3,33,133,231.39230834669434,232.1277695245808,"[76, 0, 178]",178,l,0.21642384759616107,colour,0.5
028,81,1,2,3,34,134,232.6379035739228,233.175793520757,"[0, 0, 254]",254,a,0.014532520552165806,colour,0.5
028,81,1,2,3,35,135,233.68489214929286,234.67973749386147,"[30, 0, 224]",224,a,0.4764141432242468,colour,0.5
028,81,1,2,3,36,136,235.1957556012785,236.1837421192322,"[47, 0, 207]",207,a,0.4713792169932276,colour,0.5
028,81,1,2,3,37,137,236.70473883289378,237.99212702002842,"[45, 0, 209]",209,a,0.7641819977434352,colour,0.5
028,81,1,2,3,38,138,238.5021216480527,239.67973552457988,"[57, 0, 197]",197,a,0.6542753549292684,colour,0.5
028,81,1,2,3,39,139,240.1896293279715,240.95980014686938,"[55, 0, 199]",199,l,0.2576599093154073,colour,0.5
028,81,1,2,3,40,140,241.48166253394447,242.78377268160693,"[18, 0, 236]",236,a,0.7823063931427896,colour,0.5
028,81,1,2,3,41,141,243.29102259734645,244.5357127666939,"[36, 0, 218]",218,a,0.7287854895694181,colour,0.5
028,81,1,2,3,42,142,245.04952730610967,246.15175316575915,"[85, 0, 169]",169,l,0.5788751287618652,colour,0.5
028,81,1,2,3,43,143,246.67065383156296,247.7601458647987,"[87, 0, 167]",167,l,0.5663268038770184,colour,0.5
028,81,1,2,3,44,144,248.28311692818534,249.3918010732159,"[63, 0, 191]",191,l,0.5832885662093759,colour,0.5
028,81,1,2,3,45,145,249.910155868507,250.47180260135792,"[29, 0, 225]",225,a,0.038399977376684546,colour,0.5
028,81,1,2,3,46,146,250.9908986146329,252.09574748808518,"[81, 0, 173]",173,l,0.5872715299483389,colour,0.5
028,81,1,2,3,47,147,252.60453182749916,253.72773431474343,"[75, 0, 179]",179,l,0.5910520569887012,colour,0.5
028,81,1,2,3,48,148,254.24822769337334,255.2877454054542,"[77, 0, 177]",177,l,0.5073755525518209,colour,0.5
028,81,1,2,3,49,149,255.80877835303545,256.8161743856035,"[67, 0, 187]",187,l,0.4901995381806046,colour,0.5
028,81,1,2,3,50,150,257.32604180125054,258.1917241944466,"[52, 0, 202]",202,a,0.3477561022154987,colour,0.5
028,81,1,2,4,1,151,265.31927986070514,267.4397782017477,"[73, 0, 181]",181,l,1.5964067861204967,colour,0.5
028,81,1,2,4,2,152,267.94625145336613,269.239737163065,"[40, 0, 214]",214,a,0.7700250959023833,colour,0.5
028,81,1,2,4,3,153,269.75872408109717,270.7917208861327,"[21, 0, 233]",233,a,0.5099946279078722,colour,0.5
028,81,1,2,4,4,154,271.30704543099273,272.6157615563134,"[19, 0, 235]",235,a,0.7762120214756578,colour,0.5
028,81,1,2,4,5,155,273.1245632249629,274.1357181229396,"[26, 0, 228]",228,a,0.48783764406107366,colour,0.5
028,81,1,2,4,6,156,274.65600788325537,275.42372110357974,"[16, 0, 238]",238,a,0.24449048948008567,colour,0.5
028,81,1,2,4,7,157,275.9371733048465,277.13570670143235,"[76, 0, 178]",178,l,0.671905473805964,colour,0.5
028,81,1,2,4,8,158,277.64368641364854,278.807768532075,"[61, 0, 193]",193,l,0.6407955845352262,colour,0.5
028,81,1,2,4,9,159,279.31556668132544,280.37578375346493,"[10, 0, 244]",244,a,0.5369427474215627,colour,0.5
028,81,1,2,4,10,160,280.89373091817833,281.5917330166558,"[56, 0, 198]",198,l,0.17404799570795149,colour,0.5
028,81,1,2,4,11,161,282.10123100480996,283.2397241661092,"[15, 0, 239]",239,a,0.6065715554868802,colour,0.5
028,81,1,2,4,12,162,283.75452253280673,284.7997675521765,"[22, 0, 232]",232,a,0.5122895680833608,colour,0.5
028,81,1,2,4,13,163,285.3165910745738,286.31969930650666,"[3, 0, 251]",251,a,0.48478573199827224,colour,0.5
028,81,1,2,4,14,164,286.83377614745405,287.82386816560756,"[34, 0, 220]",220,a,0.4723949455656111,colour,0.5
028,81,1,2,4,15,165,288.334511457826,289.3597101137275,"[46, 0, 208]",208,a,0.5080112199066207,colour,0.5
028,81,1,2,4,16,166,289.88109122100286,290.41579022828955,"[20, 0, 234]",234,a,0.003604477853514254,colour,0.5
028,81,1,2,4,17,167,290.93752264615614,291.5599090846954,"[87, 0, 167]",167,l,0.10185958293732256,colour,0.5
028,81,1,2,4,18,168,292.0686674301978,293.1277336846106,"[12, 0, 242]",242,a,0.5306739018997177,colour,0.5
028,81,1,2,4,19,169,293.64142179954797,294.5757468106458,"[64, 0, 190]",190,l,0.4149296748219058,colour,0.5
028,81,1,2,4,20,170,295.09384915069677,296.12769469385967,"[71, 0, 183]",183,l,0.501678571337834,colour,0.5
028,81,1,2,4,21,171,296.6377342202468,297.2477227828931,"[5, 0, 249]",249,a,0.09280309593304992,colour,0.5
028,81,1,2,4,22,172,297.7654706616886,298.7757421632996,"[0, 0, 254]",254,a,0.4925661582965404,colour,0.5
028,81,1,2,4,23,173,299.2960622498067,300.3597160213394,"[75, 0, 179]",179,l,0.5463871725369245,colour,0.5
028,81,1,2,4,24,174,300.8591788155027,301.89573362469673,"[37, 0, 217]",217,a,0.5147932466352358,colour,0.5
028,81,1,2,4,25,175,302.4049811268924,303.33572135248687,"[43, 0, 211]",211,a,0.3991423611296341,colour,0.5
028,81,1,2,4,26,176,303.8503200392006,305.2797467886703,"[88, 0, 166]",166,l,0.911027449532412,colour,0.5
028,81,1,2,4,27,177,305.7997773983516,307.2077300926903,"[94, 0, 160]",160,l,0.890917282900773,colour,0.5
028,81,1,2,4,28,178,307.7184281294467,308.6396746990504,"[65, 0, 189]",189,l,0.40325490024406463,colour,0.5
028,81,1,2,4,29,179,309.1599183793878,310.1677637901157,"[59, 0, 195]",195,l,0.48996007977984846,colour,0.5
028,81,1,2,4,30,180,310.68039206578396,311.8237251995597,"[80, 0, 174]",174,l,0.6205775041598827,colour,0.5
028,81,1,2,4,31,181,312.3405837742612,313.42373134358786,"[77, 0, 177]",177,l,0.5524559444747865,colour,0.5
028,81,1,2,4,32,182,313.9456823460059,314.94372532563284,"[70, 0, 184]",184,l,0.46640533686149865,colour,0.5
028,81,1,2,4,33,183,315.45936612866353,316.4557758292649,"[55, 0, 199]",199,l,0.4780635698698461,colour,0.5
028,81,1,2,4,34,184,316.97547718370333,318.0316742705181,"[52, 0, 202]",202,l,0.5381557927466929,colour,0.5
028,81,1,2,4,35,185,318.55452954326756,319.74377014522906,"[50, 0, 204]",204,a,0.656908608856611,colour,0.5
028,81,1,2,4,36,186,320.2560325380182,321.45567736774683,"[25, 0, 229]",229,a,0.6714501879177988,colour,0.5
028,81,1,2,4,37,187,321.96922566741705,323.22368439717684,"[41, 0, 213]",213,a,0.7330610807985067,colour,0.5
028,81,1,2,4,38,188,323.73521975032054,324.81573485350236,"[27, 0, 227]",227,a,0.5563955851830542,colour,0.5
028,81,1,2,4,39,189,325.3335169968195,326.44775673246477,"[29, 0, 225]",225,a,0.5830266586272046,colour,0.5
028,81,1,2,4,40,190,326.97114724165294,328.51172243000474,"[96, 0, 158]",158,l,1.008297152002342,colour,0.5
028,81,1,2,4,41,191,329.03000948380213,330.10368151415605,"[35, 0, 219]",219,a,0.5532140977447852,colour,0.5
028,81,1,2,4,42,192,330.6130381117109,331.6156808178639,"[60, 0, 194]",194,l,0.4800867564044893,colour,0.5
028,81,1,2,4,43,193,332.1358504551463,333.04769867961295,"[57, 0, 197]",197,l,0.3851915509440005,colour,0.5
028,81,1,2,4,44,194,333.56580023188144,334.6397306252038,"[17, 0, 237]",237,a,0.5569450001930818,colour,0.5
028,81,1,2,4,45,195,335.158417826402,336.10368151415605,"[42, 0, 212]",212,a,0.42809476249385625,colour,0.5
028,81,1,2,4,46,196,336.62744460161775,337.6317095591221,"[24, 0, 230]",230,a,0.4867171524092555,colour,0.5
028,81,1,2,4,47,197,338.1430271154968,339.0317160182167,"[89, 0, 165]",165,l,0.37128918373491615,colour,0.5
028,81,1,2,4,48,198,339.5421753843548,340.59168693667743,"[83, 0, 171]",171,l,0.5312422215938568,colour,0.5
028,81,1,2,4,49,199,341.0990152277518,341.9917099372251,"[85, 0, 169]",169,l,0.37552696582861245,colour,0.5
028,81,1,2,4,50,200,342.5063696701545,343.50370372703765,"[98, 0, 156]",156,l,0.4692780488403514,colour,0.5
028,81,1,2,5,1,201,348.6392584039131,349.31175504042767,"[66, 0, 188]",188,l,0.14679464558139443,colour,0.4
028,81,1,2,5,2,202,349.82440812839195,350.8957706462825,"[51, 0, 203]",203,l,0.5518608432030305,colour,0.4
028,81,1,2,5,3,203,351.41458112129476,352.35973531985655,"[90, 0, 164]",164,l,0.41798985772766173,colour,0.4
028,81,1,2,5,4,204,352.8732473857235,353.8556661037728,"[79, 0, 175]",175,l,0.45912312564905733,colour,0.4
028,81,1,2,5,5,205,354.37324896105565,355.3916967039695,"[86, 0, 168]",168,l,0.4951734181959182,colour,0.4
028,81,1,2,5,6,206,355.90324702335056,356.80771575670224,"[53, 0, 201]",201,l,0.38112706097308546,colour,0.4
028,81,1,2,5,7,207,357.30493835522793,358.11169037094805,"[55, 0, 199]",199,l,0.28350486629642546,colour,0.4
028,81,1,2,5,8,208,358.6329387523001,359.3756565412041,"[64, 0, 190]",190,l,0.2194052612176165,colour,0.4
028,81,1,2,5,9,209,359.8829986169003,360.64764614054,"[78, 0, 176]",176,l,0.24133460212033242,colour,0.4
028,81,1,2,5,10,210,361.1643668691395,361.8317919516703,"[26, 0, 228]",228,a,0.14856301376130432,colour,0.4
028,81,1,2,5,11,211,362.3463280169526,363.37566047965083,"[11, 0, 243]",243,a,0.5007321595912799,colour,0.4
028,81,1,2,5,12,212,363.89808882330544,364.63967548671644,"[80, 0, 174]",174,l,0.2241018736967817,colour,0.4
028,81,1,2,5,13,213,365.1479879987892,365.8476970253978,"[92, 0, 162]",162,l,0.18207654473371804,colour,0.4
028,81,1,2,5,14,214,366.3691214558203,367.4557013923768,"[42, 0, 212]",212,a,0.5548650999553502,colour,0.4
028,81,1,2,5,15,215,367.9776886285981,368.8717157188803,"[95, 0, 159]",159,l,0.376669512828812,colour,0.4
028,81,1,2,5,16,216,369.38436171761714,370.71968213492073,"[60, 0, 194]",194,l,0.8028115873457864,colour,0.4
028,81,1,2,5,17,217,371.2326955917524,372.3197272695834,"[69, 0, 185]",185,l,0.5638176115462556,colour,0.4
028,81,1,2,5,18,218,372.85046300524846,373.97570718976203,"[67, 0, 187]",187,a,0.5942217289702967,colour,0.4
028,81,1,2,5,19,219,374.4927036104491,375.81569113663863,"[19, 0, 235]",235,a,0.8053337765159085,colour,0.4
028,81,1,2,5,20,220,376.3344504117267,377.40766715607606,"[30, 0, 224]",224,a,0.5414424369810149,colour,0.4
028,81,1,2,5,21,221,377.9270361047238,379.02374024444725,"[23, 0, 231]",231,a,0.57887197798118,colour,0.4
028,81,1,2,5,22,222,379.5356182436226,380.63971880986355,"[0, 0, 254]",254,a,0.5871647978201509,colour,0.4
028,81,1,2,5,23,223,381.1639178846963,382.2878265377367,"[13, 0, 241]",241,a,0.6134036007570103,colour,0.4
028,81,1,2,5,24,224,382.8038686697837,383.9116627230542,"[84, 0, 170]",170,l,0.5881482310360298,colour,0.4
028,81,1,2,5,25,225,384.41304157755803,385.5597101924941,"[68, 0, 186]",186,l,0.6233348194509745,colour,0.4
028,81,1,2,5,26,226,386.06934326980263,387.0797309560003,"[96, 0, 158]",158,l,0.48825551464688033,colour,0.4
028,81,1,2,5,27,227,387.6001176023856,388.78370415244717,"[48, 0, 206]",206,l,0.66018973919563,colour,0.4
028,81,1,2,5,28,228,389.3032818393549,390.09564942040015,"[57, 0, 197]",197,l,0.2691901423968375,colour,0.4
028,81,1,2,5,29,229,390.61590688535944,391.20763241895474,"[98, 0, 156]",156,l,0.06844530114904046,colour,0.4
028,81,1,2,5,30,230,391.7252499347087,392.5036434686044,"[2, 0, 252]",252,a,0.25218820793088526,colour,0.4
028,81,1,2,5,31,231,393.02955853031017,393.80763029213995,"[61, 0, 193]",193,l,0.26086542126722634,colour,0.4
028,81,1,2,5,32,232,394.3300613927422,394.9756658360129,"[12, 0, 242]",242,a,0.11356350220739841,colour,0.4
028,81,1,2,5,33,233,395.4885993421776,396.5597027094336,"[44, 0, 210]",210,a,0.553856854327023,colour,0.4
028,81,1,2,5,34,234,397.080461540143,398.0797636451898,"[21, 0, 233]",233,a,0.46657823503483087,colour,0.4
028,81,1,2,5,35,235,398.5958951803623,399.583670990658,"[43, 0, 211]",211,a,0.46889680612366647,colour,0.4
028,81,1,2,5,36,236,400.09812907432206,400.8316548933508,"[76, 0, 178]",178,l,0.21639233990572393,colour,0.4
028,81,1,2,5,37,237,401.3517028322676,402.36768194893375,"[89, 0, 165]",165,l,0.4927508719265461,colour,0.4
028,81,1,2,5,38,238,402.9186290696962,403.9196617336711,"[9, 0, 245]",245,a,0.48056724842172116,colour,0.4
028,81,1,2,5,39,239,404.43766049225815,405.11969922774006,"[74, 0, 180]",180,l,0.15874314308166504,colour,0.4
028,81,1,2,5,40,240,405.64080109843053,406.4156673483085,"[63, 0, 191]",191,l,0.2516537590418011,colour,0.4
028,81,1,2,5,41,241,406.92233555356506,407.75962953281123,"[70, 0, 184]",184,l,0.3167375852353871,colour,0.4
028,81,1,2,5,42,242,408.2790878843516,409.0956584789092,"[88, 0, 166]",166,l,0.2932557036401704,colour,0.4
028,81,1,2,5,43,243,409.6105391593883,410.38366303488147,"[94, 0, 160]",160,l,0.24994525534566492,colour,0.4
028,81,1,2,5,44,244,410.8917900455417,411.86368953285273,"[45, 0, 209]",209,l,0.4488992793485522,colour,0.4
028,81,1,2,5,45,245,412.3771480356809,413.2796392686432,"[75, 0, 179]",179,l,0.3839229731820524,colour,0.4
028,81,1,2,5,46,246,413.78624445863534,414.5996544396039,"[15, 0, 239]",239,a,0.28868827247060835,colour,0.4
028,81,1,2,5,47,247,415.1159218515968,415.8076842490118,"[82, 0, 172]",172,l,0.168624343466945,colour,0.4
028,81,1,2,5,48,248,416.31888325780164,417.31165145896375,"[28, 0, 226]",226,a,0.46937769185751677,colour,0.4
028,81,1,2,5,49,249,417.8144580050139,418.87165979272686,"[33, 0, 221]",221,a,0.5339069829788059,colour,0.4
028,81,1,2,5,50,250,419.36864450841676,420.3756742642727,"[7, 0, 247]",247,a,0.48369989881757647,colour,0.4
028,81,1,2,6,1,251,425.65094538778067,428.67164750478696,"[54, 0, 200]",200,a,2.503423308720812,colour,0.28
028,81,1,2,6,2,252,429.18476887547877,430.53561903128866,"[55, 0, 199]",199,l,0.8315300440881401,colour,0.28
028,81,1,2,6,3,253,431.04484565975145,432.2396505168872,"[7, 0, 247]",247,a,0.6767623816849664,colour,0.28
028,81,1,2,6,4,254,432.7420675493777,433.6556435758248,"[90, 0, 164]",164,l,0.39530236343853176,colour,0.28
028,81,1,2,6,5,255,434.1710910005495,435.1439475334482,"[97, 0, 157]",157,l,0.46076625084970146,colour,0.28
028,81,1,2,6,6,256,435.65992231783457,436.5676804523682,"[82, 0, 172]",172,l,0.38451886211987585,colour,0.28
028,81,1,2,6,7,257,437.0725373602472,438.223637135583,"[49, 0, 205]",205,a,0.6349595756037161,colour,0.28
028,81,1,2,6,8,258,438.7374855459202,439.59166724432725,"[65, 0, 189]",189,l,0.3308096999535337,colour,0.28
028,81,1,2,6,9,259,440.1126710473327,441.25571431056596,"[81, 0, 173]",173,l,0.6217239897232503,colour,0.28
028,81,1,2,6,10,260,441.7668097377755,442.8956741539296,"[53, 0, 201]",201,a,0.6064935739850625,colour,0.28
028,81,1,2,6,11,261,443.4195616968209,444.4716025275411,"[27, 0, 227]",227,a,0.531695144250989,colour,0.28
028,81,1,2,6,12,262,444.9850437011337,445.99167921731714,"[31, 0, 223]",223,a,0.4750667962944135,colour,0.28
028,81,1,2,6,13,263,446.51345298904926,447.49567045178264,"[10, 0, 244]",244,a,0.4641174857970327,colour,0.28
028,81,1,2,6,14,264,448.01561914163176,449.0076473063091,"[76, 0, 178]",178,l,0.4740345261525363,colour,0.28
028,81,1,2,6,15,265,449.53170774749015,450.6156674270751,"[52, 0, 202]",202,a,0.5660207855980843,colour,0.28
028,81,1,2,6,16,266,451.12717560492456,452.0156384400325,"[77, 0, 177]",177,l,0.3689469820819795,colour,0.28
028,81,1,2,6,17,267,452.53921641991474,453.52759796532337,"[70, 0, 184]",184,l,0.4700263561680913,colour,0.28
028,81,1,2,6,18,268,454.03892300475854,454.82361216575373,"[3, 0, 251]",251,a,0.2614258639514446,colour,0.28
028,81,1,2,6,19,269,455.3357851555338,456.31165579135995,"[79, 0, 175]",175,l,0.4525273881154135,colour,0.28
028,81,1,2,6,20,270,456.8201955524273,457.91161782457493,"[93, 0, 161]",161,l,0.5684874426806346,colour,0.28
028,81,1,2,6,21,271,458.418366768281,459.4316429204773,"[51, 0, 203]",203,a,0.4899841044098139,colour,0.28
028,81,1,2,6,22,272,459.9454873922514,461.0076197370654,"[94, 0, 160]",160,l,0.5406114221550524,colour,0.28
028,81,1,2,6,23,273,461.5217977963621,462.4876588381594,"[57, 0, 197]",197,a,0.440214189235121,colour,0.28
028,81,1,2,6,24,274,462.99668499897234,463.8556215991266,"[67, 0, 187]",187,l,0.340766912442632,colour,0.28
028,81,1,2,6,25,275,464.3682022194844,465.3996323054889,"[87, 0, 167]",167,l,0.5081151952035725,colour,0.28
028,81,1,2,6,26,276,465.9149985979311,466.9916524357395,"[62, 0, 192]",192,l,0.5532574208918959,colour,0.28
028,81,1,2,6,27,277,467.5088965855539,468.1356342337094,"[69, 0, 185]",185,l,0.10572202980984002,colour,0.28
028,81,1,2,6,28,278,468.6471502884524,469.3996476654429,"[18, 0, 236]",236,a,0.22899501549545676,colour,0.28
028,81,1,2,6,29,279,469.9192513462622,470.8316036934266,"[64, 0, 190]",190,l,0.38906463177409023,colour,0.28
028,81,1,2,6,30,280,471.341146186227,472.12762340775225,"[75, 0, 179]",179,l,0.26332380750682205,colour,0.28
028,81,1,2,6,31,281,472.63805284153204,473.5916030474473,"[58, 0, 196]",196,a,0.4227549994830042,colour,0.28
028,81,1,2,6,32,282,474.107139875181,475.1437659704825,"[41, 0, 213]",213,a,0.5132804844761267,colour,0.28
028,81,1,2,6,33,283,475.65694799344055,476.71162444120273,"[60, 0, 194]",194,l,0.5384342418983579,colour,0.28
028,81,1,2,6,34,284,477.22983193816617,478.3196441681357,"[2, 0, 252]",252,a,0.5664571669185534,colour,0.28
028,81,1,2,6,35,285,478.8297849128721,479.63163787918165,"[78, 0, 176]",176,l,0.2784801800735295,colour,0.28
028,81,1,2,6,36,286,480.14224966370966,481.2396036492428,"[22, 0, 232]",232,a,0.5741733962204307,colour,0.28
028,81,1,2,6,37,287,481.7516324913595,482.73562423011754,"[50, 0, 204]",204,a,0.4607501032296568,colour,0.28
028,81,1,2,6,38,288,483.25160216528457,484.22365919093136,"[95, 0, 159]",159,l,0.45408307935576886,colour,0.28
028,81,1,2,6,39,289,484.74800871510524,485.83161235798616,"[13, 0, 241]",241,a,0.5652555429842323,colour,0.28
028,81,1,2,6,40,290,486.3426431945991,487.1116462602513,"[80, 0, 174]",174,l,0.23696291237138212,colour,0.28
028,81,1,2,6,41,291,487.62487396935467,488.2556205751607,"[92, 0, 162]",162,l,0.0982874003238976,colour,0.28
028,81,1,2,6,42,292,488.76636035961565,489.7196065164171,"[59, 0, 195]",195,a,0.4271790706552565,colour,0.28
028,81,1,2,6,43,293,490.22974292887375,490.8475769023644,"[44, 0, 210]",210,a,0.10079659277107567,colour,0.28
028,81,1,2,6,44,294,491.3576766871847,492.4876690780511,"[32, 0, 222]",222,a,0.6120987890753895,colour,0.28
028,81,1,2,6,45,295,493.0061818056274,494.199982355698,"[63, 0, 191]",191,a,0.6747813366819173,colour,0.28
028,81,1,2,6,46,296,494.7088167136535,495.3036343314452,"[73, 0, 181]",181,l,0.07182371139060706,colour,0.28
028,81,1,2,6,47,297,495.8200722786132,496.75162973441184,"[9, 0, 245]",245,a,0.4090530998073518,colour,0.28
028,81,1,2,6,48,298,497.2731896479381,497.9675959330052,"[72, 0, 182]",182,l,0.17119261273182929,colour,0.28
028,81,1,2,6,49,299,498.4778816130711,499.1596194503363,"[88, 0, 166]",166,l,0.1583768663695082,colour,0.28
028,81,1,2,6,50,300,499.67866386985406,500.4716100106016,"[61, 0, 193]",193,l,0.26991363742854446,colour,0.28
028,81,1,2,7,1,301,504.9825089088408,506.239672572352,"[50, 0, 204]",204,a,0.7381397240096703,colour,0.14
028,81,1,2,7,2,302,506.74998936615884,507.79966278921347,"[55, 0, 199]",199,a,0.5313079938059673,colour,0.14
028,81,1,2,7,3,303,508.3133000980597,510.52758575603366,"[52, 0, 202]",202,a,1.6962924132822081,colour,0.14
028,81,1,2,7,4,304,511.0402538101189,512.3276234865189,"[40, 0, 214]",214,a,0.7531933027785271,colour,0.14
028,81,1,2,7,5,305,512.8422910963418,513.8992534257704,"[82, 0, 172]",172,l,0.5345075981458649,colour,0.14
028,81,1,2,7,6,306,514.4202662871685,515.4875981857767,"[74, 0, 180]",180,l,0.5440457585500553,colour,0.14
028,81,1,2,7,7,307,515.9983167025493,517.0795710545499,"[62, 0, 192]",192,l,0.5579051965614781,colour,0.14
028,81,1,2,7,8,308,517.5920673918445,518.5115664670011,"[47, 0, 207]",207,a,0.3964496365515515,colour,0.14
028,81,1,2,7,9,309,519.0328833775129,520.0396386227803,"[38, 0, 216]",216,a,0.47824198205489665,colour,0.14
028,81,1,2,7,10,310,520.553728066734,521.5355827974854,"[42, 0, 212]",212,a,0.4586063998285681,colour,0.14
028,81,1,2,7,11,311,522.0536934082629,522.8396413009614,"[94, 0, 160]",160,l,0.2626160663785413,colour,0.14
028,81,1,2,7,12,312,523.3406704203226,524.2315979432315,"[90, 0, 164]",164,l,0.3588137202896178,colour,0.14
028,81,1,2,7,13,313,524.7454160273774,525.7435791300377,"[44, 0, 210]",210,l,0.4751621070317924,colour,0.14
028,81,1,2,7,14,314,526.2609307997627,527.3756100673927,"[56, 0, 198]",198,a,0.5913123891223222,colour,0.14
028,81,1,2,7,15,315,527.8864207440056,528.7195458641509,"[71, 0, 183]",183,l,0.32142829010263085,colour,0.14
028,81,1,2,7,16,316,529.2261628694832,530.1675956179388,"[66, 0, 188]",188,l,0.418092651409097,colour,0.14
028,81,1,2,7,17,317,530.6793444355717,531.5918204503832,"[76, 0, 178]",178,l,0.38931078533641994,colour,0.14
028,81,1,2,7,18,318,532.1011884694453,533.0235886138398,"[88, 0, 166]",166,l,0.39942632406018674,colour,0.14
028,81,1,2,7,19,319,533.5334741463885,534.8795772773447,"[61, 0, 193]",193,l,0.7882381066447124,colour,0.14
028,81,1,2,7,20,320,535.3893084223382,536.0555830810918,"[98, 0, 156]",156,l,0.14290108485147357,colour,0.14
028,81,1,2,7,21,321,536.5768133454258,537.1996046574786,"[96, 0, 158]",158,l,0.09951147343963385,colour,0.14
028,81,1,2,7,22,322,537.7174482408445,538.7355749993585,"[68, 0, 186]",186,l,0.4949126922292635,colour,0.14
028,81,1,2,7,23,323,539.2435842499835,539.8236015319126,"[91, 0, 163]",163,l,0.05674728949088603,colour,0.14
028,81,1,2,7,24,324,540.3373676284682,541.2876174055273,"[92, 0, 162]",162,l,0.426935673924163,colour,0.14
028,81,1,2,7,25,325,541.8066271665739,542.9675919945585,"[60, 0, 194]",194,a,0.6506724525243044,colour,0.14
028,81,1,2,7,26,326,543.4844151231227,544.9915945404209,"[64, 0, 190]",190,l,0.9907607685308903,colour,0.14
028,81,1,2,7,27,327,545.5038825331721,546.2235674249241,"[85, 0, 169]",169,l,0.19631368096452206,colour,0.14
028,81,1,2,7,28,328,546.7382370039122,547.6715911848005,"[89, 0, 165]",165,l,0.4099995115539059,colour,0.14
028,81,1,2,7,29,329,548.1914043915458,548.8875790449092,"[8, 0, 246]",246,a,0.16906505706720054,colour,0.14
028,81,1,2,7,30,330,549.3983893278055,550.1036685173167,"[99, 0, 155]",155,l,0.18204621865879744,colour,0.14
028,81,1,2,7,31,331,550.6169742078055,551.2955368593102,"[77, 0, 177]",177,l,0.15517056675162166,colour,0.14
028,81,1,2,7,32,332,551.8045145770302,552.3915466486942,"[81, 0, 173]",173,l,0.06374593148939312,colour,0.14
028,81,1,2,7,33,333,552.8982396663632,553.583597735269,"[78, 0, 176]",176,l,0.16286198375746608,colour,0.14
028,81,1,2,7,34,334,554.1018528875429,554.8395802548621,"[51, 0, 203]",203,a,0.2106067433487624,colour,0.14
028,81,1,2,7,35,335,555.3629400441423,555.9916418018984,"[54, 0, 200]",200,a,0.09635598002932966,colour,0.14
028,81,1,2,7,36,336,556.5057749628322,557.2315766755491,"[75, 0, 179]",179,l,0.2064729364356026,colour,0.14
028,81,1,2,7,37,337,557.7440245697508,558.7515568729723,"[21, 0, 233]",233,a,0.47513493162114173,colour,0.14
028,81,1,2,7,38,338,559.2728745711502,560.0477211287944,"[70, 0, 184]",184,l,0.2413905281573534,colour,0.14
028,81,1,2,7,39,339,560.5714117486496,561.5275782729732,"[79, 0, 175]",175,l,0.4386427439749241,colour,0.14
028,81,1,2,7,40,340,562.0408008621307,563.039568518172,"[73, 0, 181]",181,l,0.48069839901290834,colour,0.14
028,81,1,2,7,41,341,563.5574562122347,564.6235549793346,"[93, 0, 161]",161,l,0.547551381168887,colour,0.14
028,81,1,2,7,42,342,565.138061112375,566.1675566271879,"[53, 0, 201]",201,a,0.5061573871644214,colour,0.14
028,81,1,2,7,43,343,566.6849035708001,567.7275826840196,"[95, 0, 159]",159,l,0.5196828437037766,colour,0.14
028,81,1,2,7,44,344,568.2474423645763,569.2955530069303,"[83, 0, 171]",171,l,0.5353201021207497,colour,0.14
028,81,1,2,7,45,345,569.8046268231701,570.895585932536,"[65, 0, 189]",189,l,0.5675540277734399,colour,0.14
028,81,1,2,7,46,346,571.4140092569869,572.415594880702,"[67, 0, 187]",187,l,0.4785448496695608,colour,0.14
028,81,1,2,7,47,347,572.929641789291,574.295550250099,"[57, 0, 197]",197,l,0.8425140130566433,colour,0.14
028,81,1,2,7,48,348,574.8182649196824,575.823593261186,"[86, 0, 168]",168,l,0.48832010535988957,colour,0.14
028,81,1,2,7,49,349,576.3327096126741,577.3515862538479,"[80, 0, 174]",174,l,0.5006620549829677,colour,0.14
028,81,1,2,7,50,350,577.8660608791979,579.1195381447906,"[69, 0, 185]",185,l,0.7358325745444745,colour,0.14
028,81,1,2,8,1,351,586.6316307899542,587.8395924640354,"[91, 0, 163]",163,l,0.6839847281808034,colour,0.06
028,81,1,2,8,2,352,588.3511979217874,589.1035483942833,"[14, 0, 240]",240,a,0.22804348380304873,colour,0.06
028,81,1,2,8,3,353,589.6209615039406,590.3836216811324,"[83, 0, 171]",171,l,0.23931574786547571,colour,0.06
028,81,1,2,8,4,354,590.9021706423955,591.9835270005278,"[65, 0, 189]",189,l,0.5584120762068778,colour,0.06
028,81,1,2,8,5,355,592.4959406300914,593.4795475814026,"[84, 0, 170]",170,l,0.46021014044526964,colour,0.06
028,81,1,2,8,6,356,593.9980591273634,594.7035033382708,"[56, 0, 198]",198,a,0.18847772246226668,colour,0.06
028,81,1,2,8,7,357,595.2216241890565,596.1035570588429,"[54, 0, 200]",200,a,0.3588570433203131,colour,0.06
028,81,1,2,8,8,358,596.6122543583624,597.8635713791009,"[82, 0, 172]",172,l,0.7280816867714748,colour,0.06
028,81,1,2,8,9,359,598.3793846867047,599.4315838435432,"[98, 0, 156]",156,l,0.5277239959686995,colour,0.06
028,81,1,2,8,10,360,599.943105412065,601.0315982582979,"[60, 0, 194]",194,a,0.565138176898472,colour,0.06
028,81,1,2,8,11,361,601.5525949720759,602.0795553007629,"[97, 0, 157]",157,l,0.0037179054925218225,colour,0.06
028,81,1,2,8,12,362,602.5993610244477,603.5515595511533,"[72, 0, 182]",182,l,0.42891081131529063,colour,0.06
028,81,1,2,8,13,363,604.0587342422223,604.8955185848754,"[77, 0, 177]",177,l,0.30789298738818616,colour,0.06
028,81,1,2,8,14,364,605.4061898400541,606.2795959456125,"[85, 0, 169]",169,l,0.3500880639767274,colour,0.06
028,81,1,2,8,15,365,606.7985092144227,607.9358795209555,"[99, 0, 155]",155,l,0.6141680555883795,colour,0.06
028,81,1,2,8,16,366,608.4552665865049,609.3355090694968,"[67, 0, 187]",187,l,0.35534315009135753,colour,0.06
028,81,1,2,8,17,367,609.8528213546379,610.6235687639564,"[71, 0, 183]",183,l,0.247554610716179,colour,0.06
028,81,1,2,8,18,368,611.133996228571,611.8795398619259,"[79, 0, 175]",175,l,0.22224331484176219,colour,0.06
028,81,1,2,8,19,369,612.3996094624745,613.1195247540018,"[50, 0, 204]",204,a,0.19666774838697165,colour,0.06
028,81,1,2,8,20,370,613.6340269485954,614.4235572636826,"[88, 0, 166]",166,l,0.26674514706246555,colour,0.06
028,81,1,2,8,21,371,614.9380779688945,615.5675303970929,"[63, 0, 191]",191,a,0.10110339871607721,colour,0.06
028,81,1,2,8,22,372,616.0767270931974,617.0395570966648,"[74, 0, 180]",180,l,0.4332230301806703,colour,0.06
028,81,1,2,8,23,373,617.5604191151215,618.6155516364379,"[24, 0, 230]",230,a,0.5378560761455446,colour,0.06
028,81,1,2,8,24,374,619.1368894206826,619.9035522539634,"[90, 0, 164]",164,l,0.24948681879322976,colour,0.06
028,81,1,2,8,25,375,620.4212812280748,621.4075080424082,"[76, 0, 178]",178,l,0.4690106275957078,colour,0.06
028,81,1,2,8,26,376,621.9222469383385,622.9195754814427,"[61, 0, 193]",193,a,0.47946841828525066,colour,0.06
028,81,1,2,8,27,377,623.4415107299574,624.3595541507239,"[86, 0, 168]",168,l,0.39315669087227434,colour,0.06
028,81,1,2,8,28,378,624.871654278948,625.8315056257416,"[78, 0, 176]",176,l,0.4147910411702469,colour,0.06
028,81,1,2,8,29,379,626.3534278774168,627.3196303835139,"[29, 0, 225]",225,a,0.44857475033495575,colour,0.06
028,81,1,2,8,30,380,627.8387732645497,628.8155528967036,"[52, 0, 202]",202,a,0.4594319008756429,colour,0.06
028,81,1,2,8,31,381,629.3309329737676,630.5275589745725,"[62, 0, 192]",192,a,0.6782964116428047,colour,0.06
028,81,1,2,8,32,382,631.0500881427433,631.8795087481849,"[75, 0, 179]",179,l,0.3124135509133339,colour,0.06
028,81,1,2,8,33,383,632.3951137112454,633.447847710806,"[51, 0, 203]",203,a,0.5355205697705969,colour,0.06
028,81,1,2,8,34,384,633.9549196081934,634.8555735499831,"[68, 0, 186]",186,l,0.39227014360949397,colour,0.06
028,81,1,2,8,35,385,635.3759145102231,636.4155480130576,"[59, 0, 195]",195,l,0.5225126267177984,colour,0.06
028,81,1,2,8,36,386,636.9375265846029,637.9835254251957,"[58, 0, 196]",196,a,0.5144600530620664,colour,0.06
028,81,1,2,8,37,387,638.4988582406659,639.6075573519338,"[57, 0, 197]",197,a,0.5763596349861473,colour,0.06
028,81,1,2,8,38,388,640.1210296392674,641.0476585072465,"[69, 0, 185]",185,l,0.4080401281826198,colour,0.06
028,81,1,2,8,39,389,641.561389945331,642.5835276306607,"[73, 0, 181]",181,l,0.504368145018816,colour,0.06
028,81,1,2,8,40,390,643.0949074147502,644.0075295463903,"[64, 0, 190]",190,l,0.39016740024089813,colour,0.06
028,81,1,2,8,41,391,644.5208797415253,645.3115892313654,"[70, 0, 184]",184,l,0.23076180834323168,colour,0.06
028,81,1,2,8,42,392,645.823237224482,646.5995165935019,"[89, 0, 165]",165,l,0.2531314688967541,colour,0.06
028,81,1,2,8,43,393,647.1200355722103,648.0875263483031,"[81, 0, 173]",173,l,0.44419754680711776,colour,0.06
028,81,1,2,8,44,394,648.6044329721481,649.5195162469754,"[53, 0, 201]",201,l,0.3916852824622765,colour,0.06
028,81,1,2,8,45,395,650.0288665429689,651.0235346568516,"[55, 0, 199]",199,a,0.4712929646484554,colour,0.06
028,81,1,2,8,46,396,651.544547124533,652.1997235990129,"[96, 0, 158]",158,l,0.1318730051862076,colour,0.06
028,81,1,2,8,47,397,652.716492770589,653.7275184871396,"[93, 0, 161]",161,l,0.4877198841422796,colour,0.06
028,81,1,2,8,48,398,654.2417784663849,655.3355484540807,"[66, 0, 188]",188,l,0.5801346480147913,colour,0.06
028,81,1,2,8,49,399,655.8468632536242,657.0475316889351,"[80, 0, 174]",174,l,0.6773307014955208,colour,0.06
028,81,1,2,8,50,400,657.5668246251298,658.471496583079,"[92, 0, 162]",162,l,0.38140314701013267,colour,0.06
028,81,1,2,9,1,401,663.9305196718778,665.7354871716816,"[79, 0, 175]",175,l,1.2908465481596068,colour,0.06
028,81,1,2,9,2,402,666.252707296866,667.4874831828056,"[84, 0, 170]",170,l,0.7240085322409868,colour,0.06
028,81,1,2,9,3,403,668.0060234795092,668.7035470551345,"[99, 0, 155]",155,l,0.17436701082624495,colour,0.06
028,81,1,2,9,4,404,669.2247099719243,670.383517311886,"[82, 0, 172]",172,l,0.6352805600035936,colour,0.06
028,81,1,2,9,5,405,670.885022984934,672.0634855994722,"[93, 0, 161]",161,l,0.655161508359015,colour,0.06
028,81,1,2,9,6,406,672.5725286956877,673.695520869107,"[66, 0, 188]",188,a,0.5995547965867445,colour,0.06
028,81,1,2,9,7,407,674.2132006125757,675.3469672289211,"[48, 0, 206]",206,a,0.6098215720849112,colour,0.06
028,81,1,2,9,8,408,675.867929678061,677.1915154561866,"[50, 0, 204]",204,a,0.8060631792759523,colour,0.06
028,81,1,2,9,9,409,677.7077950772364,680.631505546975,"[63, 0, 191]",191,a,2.400421572732739,colour,0.06
028,81,1,2,9,10,410,681.1468517532339,683.3033881777665,"[90, 0, 164]",164,l,1.6318162913667038,colour,0.06
028,81,1,2,9,11,411,683.8201183585916,688.543811814161,"[80, 0, 174]",174,a,4.2006987613858655,colour,0.06
028,81,1,2,9,12,412,689.0514634527499,693.3594604153186,"[83, 0, 171]",171,l,3.7805407819105312,colour,0.06
028,81,1,2,9,13,413,693.8737912869547,694.6154724733206,"[92, 0, 162]",162,l,0.2183981970883906,colour,0.06
028,81,1,2,9,14,414,695.1242698096903,696.2074583390495,"[88, 0, 166]",166,l,0.5516521049430594,colour,0.06
028,81,1,2,9,15,415,696.7280454529682,697.7914877294097,"[54, 0, 200]",200,a,0.5314545045839623,colour,0.06
028,81,1,2,9,16,416,698.3038347989786,699.1354802399874,"[58, 0, 196]",196,a,0.3134473963873461,colour,0.06
028,81,1,2,9,17,417,699.6505389388185,700.591477804468,"[31, 0, 223]",223,a,0.40941386274062097,colour,0.06
028,81,1,2,9,18,418,701.1033975512255,702.3114612314384,"[95, 0, 159]",159,l,0.6899790631141514,colour,0.06
028,81,1,2,9,19,419,702.8216901976848,704.1594831796829,"[51, 0, 203]",203,a,0.819978543324396,colour,0.06
028,81,1,2,9,20,420,704.6726537811337,705.9354785858886,"[69, 0, 185]",185,l,0.7458209010073915,colour,0.06
028,81,1,2,9,21,421,706.4589525904739,707.159460336552,"[52, 0, 202]",202,a,0.17513540422078222,colour,0.06
028,81,1,2,9,22,422,707.6716222986579,708.7355045009172,"[81, 0, 173]",173,l,0.545630200766027,colour,0.06
028,81,1,2,9,23,423,709.248577034683,711.3754607997835,"[75, 0, 179]",179,l,1.6074293518904597,colour,0.06
028,81,1,2,9,24,424,711.885061975685,713.0235216600122,"[94, 0, 160]",160,l,0.6212844576220959,colour,0.06
028,81,1,2,9,25,425,713.5401691332227,714.1995105283568,"[72, 0, 182]",182,l,0.14093776291701943,colour,0.06
028,81,1,2,9,26,426,714.7137401814107,715.7114771427587,"[61, 0, 193]",193,a,0.48072242364287376,colour,0.06
028,81,1,2,9,27,427,716.2298890458187,717.3434608186362,"[71, 0, 183]",183,l,0.5902919343207031,colour,0.06
028,81,1,2,9,28,428,717.8547992488602,718.8954642340541,"[67, 0, 187]",187,l,0.5173390666022897,colour,0.06
028,81,1,2,9,29,429,719.4027787405066,720.0634521225002,"[85, 0, 169]",169,l,0.13438416668213904,colour,0.06
028,81,1,2,9,30,430,720.5715129669989,722.2954962931108,"[53, 0, 201]",201,a,1.2006668598623946,colour,0.06
028,81,1,2,9,31,431,722.805901702377,724.2714531811653,"[76, 0, 178]",178,l,0.9422432832652703,colour,0.06
028,81,1,2,9,32,432,724.7902715331875,725.7914633109467,"[59, 0, 195]",195,a,0.48762457352131605,colour,0.06
028,81,1,2,9,33,433,726.3039761896944,727.2474632384256,"[73, 0, 181]",181,l,0.4202930686296895,colour,0.06
028,81,1,2,9,34,434,727.7569797374308,729.2554866676219,"[91, 0, 163]",163,l,0.9752007039496675,colour,0.06
028,81,1,2,9,35,435,729.772612269735,730.4715824414743,"[49, 0, 205]",205,a,0.171777080046013,colour,0.06
028,81,1,2,9,36,436,730.9911305898568,731.9514962994726,"[74, 0, 180]",180,l,0.43519107834436,colour,0.06
028,81,1,2,9,37,437,732.4618103364483,733.1834813931491,"[57, 0, 197]",197,a,0.1989989223657176,colour,0.06
028,81,1,2,9,38,438,733.6968481298536,734.8634709484177,"[55, 0, 199]",199,a,0.6465614888584241,colour,0.06
028,81,1,2,9,39,439,735.3685590438545,736.0794808638748,"[70, 0, 184]",184,l,0.19294511678162962,colour,0.06
028,81,1,2,9,40,440,736.5945706764469,737.6634539342485,"[89, 0, 165]",165,l,0.5455687607172877,colour,0.06
028,81,1,2,9,41,441,738.1667000122834,739.3834798965836,"[77, 0, 177]",177,l,0.6933358119567856,colour,0.06
028,81,1,2,9,42,442,739.8986496599391,740.7994654723443,"[97, 0, 157]",157,l,0.3810703471535817,colour,0.06
028,81,1,2,9,43,443,741.317126311129,742.3354464480653,"[87, 0, 167]",167,l,0.4951336398953572,colour,0.06
028,81,1,2,9,44,444,742.8482161143329,743.8555188054452,"[60, 0, 194]",194,a,0.48395471717230976,colour,0.06
028,81,1,2,9,45,445,744.3532750651939,745.5594691587612,"[96, 0, 158]",158,l,0.6828000396490097,colour,0.06
028,81,1,2,9,46,446,746.0776230926858,747.0314489906887,"[78, 0, 176]",176,l,0.4317149941343814,colour,0.06
028,81,1,2,9,47,447,747.5507631946821,748.5434884666465,"[68, 0, 186]",186,a,0.4605098571628332,colour,0.06
028,81,1,2,9,48,448,749.0659715549555,750.0714783085277,"[62, 0, 192]",192,a,0.47454258729703724,colour,0.06
028,81,1,2,9,49,449,750.5958120787982,751.4714532599319,"[98, 0, 156]",156,l,0.35718713665846735,colour,0.06
028,81,1,2,9,50,450,751.9898541353177,753.5434813774191,"[64, 0, 190]",190,l,1.0218891686527058,colour,0.06
028,81,1,2,10,1,451,759.040377871599,761.0794170608278,"[92, 0, 162]",162,l,1.5066146422177553,colour,0.06
028,81,1,2,10,2,452,761.5962204970419,762.6794488048181,"[3, 0, 251]",251,a,0.5643894758541137,colour,0.06
028,81,1,2,10,3,453,763.1907844780944,764.3754808859667,"[73, 0, 181]",181,l,0.6662108557065949,colour,0.06
028,81,1,2,10,4,454,764.8969706947682,765.8794201328419,"[57, 0, 197]",197,l,0.46253107441589236,colour,0.06
028,81,1,2,10,5,455,766.3955528493971,767.2394504431868,"[56, 0, 198]",198,l,0.31151164369657636,colour,0.06
028,81,1,2,10,6,456,767.7537458685692,768.391461971798,"[87, 0, 167]",167,l,0.10595321736764163,colour,0.06
028,81,1,2,10,7,457,768.9115835599368,769.6714253757382,"[74, 0, 180]",180,l,0.2354280948638916,colour,0.06
028,81,1,2,10,8,458,770.185289145913,770.8554160116473,"[94, 0, 160]",160,l,0.1530804265057668,colour,0.06
028,81,1,2,10,9,459,771.3741776497336,771.9834281451767,"[52, 0, 202]",202,a,0.0901804759632796,colour,0.06
028,81,1,2,10,10,460,772.5033350873273,773.1594623058336,"[85, 0, 169]",169,l,0.13839981972705573,colour,0.06
028,81,1,2,10,11,461,773.6788355866447,774.3917293932755,"[80, 0, 174]",174,l,0.19544013077393174,colour,0.06
028,81,1,2,10,12,462,774.908328423393,775.639459659229,"[50, 0, 204]",204,a,0.20985804218798876,colour,0.06
028,81,1,2,10,13,463,776.1493522810051,776.8474481147714,"[76, 0, 178]",178,l,0.16611436335369945,colour,0.06
028,81,1,2,10,14,464,777.3615497680148,778.0154123724205,"[44, 0, 210]",210,a,0.13115463010035455,colour,0.06
028,81,1,2,10,15,465,778.5331716727233,779.519429207081,"[65, 0, 189]",189,l,0.4631281449692324,colour,0.06
028,81,1,2,10,16,466,780.0337309339084,780.6794649524381,"[79, 0, 175]",175,l,0.13385286857374012,colour,0.06
028,81,1,2,10,17,467,781.1944822974037,781.9034191339742,"[28, 0, 226]",226,a,0.18560382875148207,colour,0.06
028,81,1,2,10,18,468,782.4132424390409,783.1754146410385,"[91, 0, 163]",163,l,0.23866472055669874,colour,0.06
028,81,1,2,10,19,469,783.6950667648343,784.4714213584084,"[69, 0, 185]",185,l,0.25303025043103844,colour,0.06
028,81,1,2,10,20,470,784.9919923248235,785.6234521855367,"[78, 0, 176]",176,l,0.11938178795389831,colour,0.06
028,81,1,2,10,21,471,786.1407207538141,787.2154711342882,"[55, 0, 199]",199,a,0.5545244232052937,colour,0.06
028,81,1,2,10,22,472,787.7243689013412,789.0396189304302,"[67, 0, 187]",187,l,0.7952477763174102,colour,0.06
028,81,1,2,10,23,473,789.5522854091832,790.5354244713672,"[96, 0, 158]",158,l,0.4646732023684308,colour,0.06
028,81,1,2,10,24,474,791.0557622809429,792.0234042939264,"[61, 0, 193]",193,a,0.4411838378291577,colour,0.06
028,81,1,2,10,25,475,792.5345213827677,793.9034667894011,"[83, 0, 171]",171,l,0.8515374169219285,colour,0.06
028,81,1,2,10,26,476,794.423134666984,795.7434259239817,"[86, 0, 168]",168,l,0.8011999698355794,colour,0.06
028,81,1,2,10,27,477,796.2657416276634,797.3274104158627,"[99, 0, 155]",155,l,0.5319909226382151,colour,0.06
028,81,1,2,10,28,478,797.8394880949054,798.9674565115711,"[60, 0, 194]",194,a,0.6111472573829815,colour,0.06
028,81,1,2,10,29,479,799.4865340141114,800.6317497314885,"[72, 0, 182]",182,l,0.6271700910292566,colour,0.06
028,81,1,2,10,30,480,801.1439101181459,801.9915890265256,"[93, 0, 161]",161,l,0.32927251933142543,colour,0.06
028,81,1,2,10,31,481,802.5057852027239,803.5354260468157,"[51, 0, 203]",203,a,0.5123514019651338,colour,0.06
028,81,1,2,10,32,482,804.0534476484172,805.0714712193003,"[70, 0, 184]",184,l,0.5001646275632083,colour,0.06
028,81,1,2,10,33,483,805.5848478021799,806.3754253536463,"[75, 0, 179]",179,l,0.27703634090721607,colour,0.06
028,81,1,2,10,34,484,806.8918168270029,807.8474579609465,"[98, 0, 156]",156,l,0.4374872000189498,colour,0.06
028,81,1,2,10,35,485,808.3584663482616,809.3914564580191,"[68, 0, 186]",186,a,0.5147444097092375,colour,0.06
028,81,1,2,10,36,486,809.9067695812555,810.8794744835468,"[53, 0, 201]",201,a,0.43987626931630075,colour,0.06
028,81,1,2,10,37,487,811.3912087288918,812.3195622481871,"[63, 0, 191]",191,a,0.41124367085285485,colour,0.06
028,81,1,2,10,38,488,812.8295174915111,814.1834018363152,"[82, 0, 172]",172,l,0.8361707306466997,colour,0.06
028,81,1,2,10,39,489,814.7030768031254,815.7275204564212,"[81, 0, 173]",173,l,0.5076855092775077,colour,0.06
028,81,1,2,10,40,490,816.2429229826666,817.4874469490023,"[71, 0, 183]",183,l,0.690331555204466,colour,0.06
028,81,1,2,10,41,491,817.9972958539147,818.6553919082507,"[84, 0, 170]",170,l,0.14023435406852514,colour,0.06
028,81,1,2,10,42,492,819.1721740767825,819.7674367404543,"[77, 0, 177]",177,l,0.06976626021787524,colour,0.06
028,81,1,2,10,43,493,820.2915279016597,821.2879403592087,"[90, 0, 164]",164,l,0.47769965627230704,colour,0.06
028,81,1,2,10,44,494,821.8086416884325,822.5114309840137,"[88, 0, 166]",166,l,0.18446522019803524,colour,0.06
028,81,1,2,10,45,495,823.0311469108565,823.7513682207791,"[54, 0, 200]",200,a,0.20250415115151554,colour,0.06
028,81,1,2,10,46,496,824.2696249485016,825.2474624507595,"[59, 0, 195]",195,a,0.45721651753410697,colour,0.06
028,81,1,2,10,47,497,825.7546993695432,826.7354131286265,"[58, 0, 196]",196,a,0.46248066215775907,colour,0.06
028,81,1,2,10,48,498,827.2415870573604,828.3273840281181,"[66, 0, 188]",188,a,0.5624056739034131,colour,0.06
028,81,1,2,10,49,499,828.8354429034516,829.7993961555185,"[95, 0, 159]",159,l,0.44083489035256207,colour,0.06
028,81,1,2,10,50,500,830.3218252868392,831.31943858054,"[97, 0, 157]",157,l,0.47428658744320273,colour,0.06
028,81,1,2,11,1,501,836.3837130533066,837.2954529700801,"[82, 0, 172]",172,l,0.3933736998587847,colour,0.06
028,81,1,2,11,2,502,837.8183736212086,839.2474333061837,"[88, 0, 166]",166,l,0.9113748215604573,colour,0.06
028,81,1,2,11,3,503,839.7692614286207,841.18341601477,"[54, 0, 200]",200,a,0.8964330949820578,colour,0.06
028,81,1,2,11,4,504,841.7038132949965,842.6794062694535,"[85, 0, 169]",169,l,0.4573460929095745,colour,0.06
028,81,1,2,11,5,505,843.1891098452033,844.1114052265184,"[99, 0, 155]",155,l,0.40460185322444886,colour,0.06
028,81,1,2,11,6,506,844.6277990629897,845.3434123756597,"[61, 0, 193]",193,a,0.19691902212798595,colour,0.06
028,81,1,2,11,7,507,845.8557200606447,846.4796129597817,"[77, 0, 177]",177,l,0.10729741351678967,colour,0.06
028,81,1,2,11,8,508,847.000720344251,847.9594334763242,"[92, 0, 162]",162,l,0.4418955174041912,colour,0.06
028,81,1,2,11,9,509,848.4684407325694,849.0234039000934,"[79, 0, 175]",175,l,0.023270780104212463,colour,0.06
028,81,1,2,11,10,510,849.533984570764,850.3273663050495,"[98, 0, 156]",156,l,0.26179017149843276,colour,0.06
028,81,1,2,11,11,511,850.8499025625642,851.7753723419737,"[60, 0, 194]",194,a,0.4019162179902196,colour,0.06
028,81,1,2,11,12,512,852.2950268287677,852.9594287502114,"[80, 0, 174]",174,l,0.14649020275101066,colour,0.06
028,81,1,2,11,13,513,853.4693327934947,854.4313924344024,"[63, 0, 191]",191,a,0.444717817241326,colour,0.06
028,81,1,2,11,14,514,854.9553114848677,855.6554537420161,"[65, 0, 189]",189,a,0.17726020293775946,colour,0.06
028,81,1,2,11,15,515,856.1761440436821,858.5033768350258,"[90, 0, 164]",164,l,1.808560162433423,colour,0.06
028,81,1,2,11,16,516,859.0220270147547,860.2234555726172,"[53, 0, 201]",201,a,0.6786359067773446,colour,0.06
028,81,1,2,11,17,517,860.7407292609569,861.9836329451064,"[58, 0, 196]",196,a,0.7299619072582573,colour,0.06
028,81,1,2,11,18,518,862.4968953126809,863.239412633935,"[72, 0, 182]",182,l,0.21924299653619528,colour,0.06
028,81,1,2,11,19,519,863.7468421434751,864.5433852790156,"[87, 0, 167]",167,l,0.27315774629823864,colour,0.06
028,81,1,2,11,20,520,865.0547646692721,865.927452006028,"[69, 0, 185]",185,a,0.34961505501996726,colour,0.06
028,81,1,2,11,21,521,866.4393378819805,867.4154054408427,"[57, 0, 197]",197,a,0.45823539700359106,colour,0.06
028,81,1,2,11,22,522,867.9284043253865,868.9033513924805,"[76, 0, 178]",178,l,0.45197876065503806,colour,0.06
028,81,1,2,11,23,523,869.4127784884768,870.3595915660262,"[95, 0, 159]",159,l,0.4237246480770409,colour,0.06
028,81,1,2,11,24,524,870.8658407193143,871.8153945705853,"[86, 0, 168]",168,l,0.4236045250436291,colour,0.06
028,81,1,2,11,25,525,872.3216393915936,873.2953836532542,"[73, 0, 181]",181,l,0.4508492106106132,colour,0.06
028,81,1,2,11,26,526,873.8059517208021,874.8073943784693,"[94, 0, 160]",160,l,0.47806120687164366,colour,0.06
028,81,1,2,11,27,527,875.3192369313911,876.07935443928,"[91, 0, 163]",163,l,0.2368711461313069,colour,0.06
028,81,1,2,11,28,528,876.5877012158744,877.7833713525906,"[12, 0, 242]",242,a,0.6522210546536371,colour,0.06
028,81,1,2,11,29,529,878.3039683128009,879.3034066885011,"[52, 0, 202]",202,a,0.47607070952653885,colour,0.06
028,81,1,2,11,30,530,879.8196481065825,880.647395260632,"[78, 0, 176]",176,l,0.3093454911140725,colour,0.06
028,81,1,2,11,31,531,881.1584997463506,882.0474576458801,"[74, 0, 180]",180,l,0.36468753847293556,colour,0.06
028,81,1,2,11,32,532,882.5685110733612,883.5513689296786,"[55, 0, 199]",199,a,0.45975170377641916,colour,0.06
028,81,1,2,11,33,533,884.0684523903765,885.0075838970952,"[71, 0, 183]",183,l,0.41402934305369854,colour,0.06
028,81,1,2,11,34,534,885.5234637646936,886.4553752879146,"[68, 0, 186]",186,l,0.4085867862449959,colour,0.06
028,81,1,2,11,35,535,886.970251636114,887.615390947205,"[83, 0, 171]",171,l,0.11668039869982749,colour,0.06
028,81,1,2,11,36,536,888.1395297637209,889.1753614718327,"[51, 0, 203]",203,a,0.5179562232224271,colour,0.06
028,81,1,2,11,37,537,889.6928785569035,890.7193741473602,"[66, 0, 188]",188,a,0.49439242179505527,colour,0.06
028,81,1,2,11,38,538,891.23661593406,891.7994969800347,"[93, 0, 161]",161,l,0.030851526418700814,colour,0.06
028,81,1,2,11,39,539,892.3153918137541,893.4474093603203,"[50, 0, 204]",204,a,0.6139463203726336,colour,0.06
028,81,1,2,11,40,540,893.9704615559895,894.9913873774931,"[75, 0, 179]",179,l,0.502574176993221,colour,0.06
028,81,1,2,11,41,541,895.5038167608436,896.4873433675384,"[89, 0, 165]",165,l,0.4552031772909686,colour,0.06
028,81,1,2,11,42,542,896.9971780939959,898.1433666107478,"[84, 0, 170]",170,l,0.6174145275726914,colour,0.06
028,81,1,2,11,43,543,898.6636173803126,899.7193674519658,"[59, 0, 195]",195,a,0.5241620533633977,colour,0.06
028,81,1,2,11,44,544,900.2423475737451,901.7913613048149,"[96, 0, 158]",158,l,1.0315765966661274,colour,0.06
028,81,1,2,11,45,545,902.3150322324364,903.4155610098969,"[67, 0, 187]",187,a,0.5835437782807276,colour,0.06
028,81,1,2,11,46,546,903.92533272109,905.5834071137942,"[64, 0, 190]",190,l,1.1411153873195872,colour,0.06
028,81,1,2,11,47,547,906.0929165235721,907.2873484087177,"[26, 0, 228]",228,a,0.6689102755626664,colour,0.06
028,81,1,2,11,48,548,907.804625641671,908.4313565944321,"[97, 0, 157]",157,l,0.10991176276002079,colour,0.06
028,81,1,2,11,49,549,908.9484097289387,909.6553907267516,"[62, 0, 192]",192,a,0.1754559949040413,colour,0.06
028,81,1,2,11,50,550,910.1680958023062,910.8393482795218,"[14, 0, 240]",240,a,0.13923437928315252,colour,0.06
028,81,1,2,12,1,551,916.266011018306,917.5033898318652,"[97, 0, 157]",157,l,0.7171847578138113,colour,0.06
028,81,1,2,12,2,552,918.0197588560404,918.9753629683983,"[70, 0, 184]",184,l,0.4345967647386715,colour,0.06
028,81,1,2,12,3,553,919.4912983683171,920.6793692478677,"[83, 0, 171]",171,l,0.6707991606090218,colour,0.06
028,81,1,2,12,4,554,921.1921479726443,922.1834617009154,"[57, 0, 197]",197,a,0.47067265736404806,colour,0.06
028,81,1,2,12,5,555,922.6955078722676,923.6153606211301,"[95, 0, 159]",159,l,0.40219112241175026,colour,0.06
028,81,1,2,12,6,556,924.1330316999229,925.2553693015361,"[52, 0, 202]",202,a,0.5905463588424027,colour,0.06
028,81,1,2,12,7,557,925.7718580547953,926.7353323902935,"[53, 0, 201]",201,a,0.43132626835722476,colour,0.06
028,81,1,2,12,8,558,927.2537383855088,928.5273778054398,"[64, 0, 190]",190,a,0.7434763362398371,colour,0.06
028,81,1,2,12,9,559,929.0382948204642,930.1434052076656,"[58, 0, 196]",196,a,0.5875751852290705,colour,0.06
028,81,1,2,12,10,560,930.6647138473345,931.407335537835,"[79, 0, 175]",175,l,0.22559179284144193,colour,0.06
028,81,1,2,12,11,561,931.9170280860271,933.0313635261264,"[71, 0, 183]",183,l,0.5972886071540415,colour,0.06
028,81,1,2,12,12,562,933.5408571820008,934.5193661917001,"[17, 0, 237]",237,a,0.4451215093722567,colour,0.06
028,81,1,2,12,13,563,935.0320141596021,936.0074283279246,"[51, 0, 203]",203,a,0.45812433236278594,colour,0.06
028,81,1,2,12,14,564,936.514895252767,937.7113377213245,"[90, 0, 164]",164,l,0.6838122237240896,colour,0.06
028,81,1,2,12,15,565,938.2187829846516,939.3353637403343,"[60, 0, 194]",194,l,0.5932611386524513,colour,0.06
028,81,1,2,12,16,566,939.8346390639199,940.8313658104744,"[98, 0, 156]",156,l,0.4734185511479154,colour,0.06
028,81,1,2,12,17,567,941.3527870901162,942.2796573855449,"[36, 0, 218]",218,a,0.4037113676313311,colour,0.06
028,81,1,2,12,18,568,942.7938673464814,943.6553726097336,"[73, 0, 181]",181,l,0.33826480933930725,colour,0.06
028,81,1,2,12,19,569,944.1688177218894,945.1833943532547,"[59, 0, 195]",195,a,0.49610565160401165,colour,0.06
028,81,1,2,12,20,570,945.6953475769842,946.8394018425606,"[50, 0, 204]",204,a,0.6207244086544961,colour,0.06
028,81,1,2,12,21,571,947.3552691070363,948.2073086776072,"[89, 0, 165]",165,l,0.33497186366003007,colour,0.06
028,81,1,2,12,22,572,948.7303514209343,949.7433503054781,"[54, 0, 200]",200,a,0.4809650327078998,colour,0.06
028,81,1,2,12,23,573,950.2651398311136,951.0634001349099,"[74, 0, 180]",180,l,0.2792359704617411,colour,0.06
028,81,1,2,12,24,574,951.5805154971313,952.7033725813963,"[91, 0, 163]",163,l,0.6044632982229814,colour,0.06
028,81,1,2,12,25,575,953.222708446905,954.1193471294828,"[63, 0, 191]",191,a,0.3796745571307838,colour,0.06
028,81,1,2,12,26,576,954.6327367093181,955.6313507654704,"[72, 0, 182]",182,l,0.4806385344127193,colour,0.06
028,81,1,2,12,27,577,956.1491234565619,957.2793344319798,"[81, 0, 173]",173,l,0.6049942026147619,colour,0.06
028,81,1,2,12,28,578,957.8440775814233,958.8713907960337,"[92, 0, 162]",162,l,0.5006793842185289,colour,0.06
028,81,1,2,12,29,579,959.3845586405369,960.1272858817829,"[75, 0, 179]",179,l,0.22426374442875385,colour,0.06
028,81,1,2,12,30,580,960.6393962500151,961.3993396779988,"[68, 0, 186]",186,l,0.227844197768718,colour,0.06
028,81,1,2,12,31,581,961.9195758752758,963.1193065633997,"[76, 0, 178]",178,l,0.6674687995109707,colour,0.06
028,81,1,2,12,32,582,963.6366976177087,964.3753615505993,"[55, 0, 199]",199,a,0.22123034310061485,colour,0.06
028,81,1,2,12,33,583,964.8896916344529,965.8313157920493,"[49, 0, 205]",205,a,0.42307992244604975,colour,0.06
028,81,1,2,12,34,584,966.363645815989,967.4153156438842,"[65, 0, 189]",189,l,0.5287188506918028,colour,0.06
028,81,1,2,12,35,585,967.9369417234557,968.9513312780764,"[62, 0, 192]",192,a,0.4968728633830324,colour,0.06
028,81,1,2,12,36,586,969.462338483776,970.5913064815104,"[94, 0, 160]",160,l,0.6109428514027968,colour,0.06
028,81,1,2,12,37,587,971.0976970253978,972.3112981792074,"[66, 0, 188]",188,a,0.6898262508912012,colour,0.06
028,81,1,2,12,38,588,972.8256262937794,973.9033360325266,"[77, 0, 177]",177,l,0.5546228846069425,colour,0.06
028,81,1,2,12,39,589,974.4193927368615,975.3593611662509,"[82, 0, 172]",172,l,0.4251417057821527,colour,0.06
028,81,1,2,12,40,590,975.8797631725902,976.7993351093028,"[99, 0, 155]",155,l,0.39633187651634216,colour,0.06
028,81,1,2,12,41,591,977.3161932901712,978.1273425956024,"[86, 0, 168]",168,l,0.29360386345069855,colour,0.06
028,81,1,2,12,42,592,978.6426305127097,979.3192786790896,"[80, 0, 174]",174,l,0.15346245700493455,colour,0.06
028,81,1,2,12,43,593,979.8178372030379,980.6153082395904,"[88, 0, 166]",166,l,0.27413645340129733,colour,0.06
028,81,1,2,12,44,594,981.130270446185,981.9673533239402,"[78, 0, 176]",176,l,0.31393970374483615,colour,0.06
028,81,1,2,12,45,595,982.4645719840191,983.2313100418542,"[67, 0, 187]",187,l,0.24348972691223025,colour,0.06
028,81,1,2,12,46,596,983.7458086917177,984.4392843189416,"[93, 0, 161]",161,l,0.17014616401866078,colour,0.06
028,81,1,2,12,47,597,984.9590388427023,985.9432881566463,"[61, 0, 193]",193,a,0.4612207490717992,colour,0.06
028,81,1,2,12,48,598,986.45905774727,987.4233315899037,"[56, 0, 198]",198,a,0.4414551976369694,colour,0.06
028,81,1,2,12,49,599,987.9458788750926,988.6554915512679,"[84, 0, 170]",170,l,0.18050273647531867,colour,0.06
028,81,1,2,12,50,600,989.1772523260443,990.0233231616439,"[96, 0, 158]",158,l,0.3232458890415728,colour,0.06
028,81,1,2,13,1,601,1000.1632010851754,1001.3753355568042,"[54, 0, 200]",200,a,0.6880370089784265,colour,0.06
028,81,1,2,13,2,602,1001.8826902355067,1002.8552789532114,"[76, 0, 178]",178,l,0.4493399929488078,colour,0.06
028,81,1,2,13,3,603,1003.3753540675389,1004.0233200108632,"[50, 0, 204]",204,a,0.12482907087542117,colour,0.06
028,81,1,2,13,4,604,1004.5294616441242,1005.2233082742896,"[94, 0, 160]",160,l,0.1706699791830033,colour,0.06
028,81,1,2,13,5,605,1005.7326558133354,1006.7913156186696,"[59, 0, 195]",195,a,0.5353894190629944,colour,0.06
028,81,1,2,13,6,606,1007.3106971703237,1007.8714089129353,"[97, 0, 157]",157,l,0.034454034990631044,colour,0.06
028,81,1,2,13,7,607,1008.3845168928383,1009.1033152374439,"[65, 0, 189]",189,l,0.19742984022013843,colour,0.06
028,81,1,2,13,8,608,1009.6170076847775,1010.663298758911,"[62, 0, 192]",192,a,0.5229600355960429,colour,0.06
028,81,1,2,13,9,609,1011.1794818878407,1012.0713034409564,"[99, 0, 155]",155,l,0.36851256992667913,colour,0.06
028,81,1,2,13,10,610,1012.5735845966265,1013.4474010895938,"[68, 0, 186]",186,a,0.3504685191437602,colour,0.06
028,81,1,2,13,11,611,1013.9642813258106,1014.6312830239767,"[91, 0, 163]",163,l,0.143813231959939,colour,0.06
028,81,1,2,13,12,612,1015.1371115498478,1016.0553349581314,"[60, 0, 194]",194,a,0.3952287142165005,colour,0.06
028,81,1,2,13,13,613,1016.5747062697774,1017.3833515028236,"[80, 0, 174]",174,l,0.2854571606731042,colour,0.06
028,81,1,2,13,14,614,1017.8870016668225,1018.9913125466555,"[69, 0, 185]",185,l,0.586474385811016,colour,0.06
028,81,1,2,13,15,615,1019.5021681218641,1020.3752567876363,"[71, 0, 183]",183,l,0.34973242110572755,colour,0.06
028,81,1,2,13,16,616,1020.8928329495247,1021.7352937933756,"[88, 0, 166]",166,l,0.31929561449214816,colour,0.06
028,81,1,2,13,17,617,1022.252157881856,1023.27181236865,"[83, 0, 171]",171,l,0.4952577012591064,colour,0.06
028,81,1,2,13,18,618,1023.7869549567113,1024.7112888843985,"[55, 0, 199]",199,a,0.40104542451445013,colour,0.06
028,81,1,2,13,19,619,1025.22451068589,1026.2953308778815,"[66, 0, 188]",188,a,0.5475970673142001,colour,0.06
028,81,1,2,13,20,620,1026.8025650397176,1027.9992520866217,"[51, 0, 203]",203,a,0.6733961806166917,colour,0.06
028,81,1,2,13,21,621,1028.5134939489653,1029.4712756355293,"[61, 0, 193]",193,a,0.43914214067626745,colour,0.06
028,81,1,2,13,22,622,1029.9909112177556,1030.5832779323682,"[98, 0, 156]",156,l,0.06908214988652617,colour,0.06
028,81,1,2,13,23,623,1031.100296014687,1032.6396368897986,"[67, 0, 187]",187,l,1.0159763597184792,colour,0.06
028,81,1,2,13,24,624,1033.1536479585338,1034.1356436860515,"[87, 0, 167]",167,l,0.45858828292693943,colour,0.06
028,81,1,2,13,25,625,1034.6412095166743,1035.4552721002838,"[57, 0, 197]",197,a,0.2999333612388,colour,0.06
028,81,1,2,13,26,626,1035.9757150666555,1036.8153020167956,"[16, 0, 238]",238,a,0.3165020652813837,colour,0.06
028,81,1,2,13,27,627,1037.3350632359507,1038.4712996600429,"[5, 0, 249]",249,a,0.616681186365895,colour,0.06
028,81,1,2,13,28,628,1038.9836179789854,1040.3352585835382,"[95, 0, 159]",159,l,0.8283072030171752,colour,0.06
028,81,1,2,13,29,629,1040.8511703525437,1041.8793039482553,"[74, 0, 180]",180,l,0.5047493879683316,colour,0.06
028,81,1,2,13,30,630,1042.3988194075646,1043.8152968968498,"[58, 0, 196]",196,a,0.8906081138411537,colour,0.06
028,81,1,2,13,31,631,1044.3233148121508,1045.0872794069583,"[89, 0, 165]",165,l,0.24386191135272384,colour,0.06
028,81,1,2,13,32,632,1045.601328678662,1047.2873176888097,"[90, 0, 164]",164,l,1.1627371347276494,colour,0.06
028,81,1,2,13,33,633,1047.813602965558,1048.6712702004006,"[73, 0, 181]",181,l,0.33871615678071976,colour,0.06
028,81,1,2,13,34,634,1049.1909175979672,1050.1913138070377,"[53, 0, 201]",201,a,0.48818068392574787,colour,0.06
028,81,1,2,13,35,635,1050.7111065337667,1051.7032993261237,"[93, 0, 161]",161,l,0.46887278149370104,colour,0.06
028,81,1,2,13,36,636,1052.2111077153822,1053.1753197241342,"[86, 0, 168]",168,l,0.440897905617021,colour,0.06
028,81,1,2,13,37,637,1053.696468462469,1054.6793235618388,"[79, 0, 175]",175,l,0.4594255994306877,colour,0.06
028,81,1,2,13,38,638,1055.1961939518806,1056.0872624715557,"[77, 0, 177]",177,l,0.3678004965186119,colour,0.06
028,81,1,2,13,39,639,1056.6024255395168,1057.3592764893547,"[52, 0, 202]",202,a,0.2335514189908281,colour,0.06
028,81,1,2,13,40,640,1057.8679919057759,1058.5433557406068,"[82, 0, 172]",172,l,0.15040581882931292,colour,0.06
028,81,1,2,13,41,641,1059.059577072505,1059.9432700397447,"[92, 0, 162]",162,l,0.36659020802471787,colour,0.06
028,81,1,2,13,42,642,1060.4654959465843,1061.3992636656621,"[81, 0, 173]",173,l,0.4154727883869782,colour,0.06
028,81,1,2,13,43,643,1061.9184049713658,1062.6392666746397,"[75, 0, 179]",179,l,0.20364000275731087,colour,0.06
028,81,1,2,13,44,644,1063.1542702350998,1063.9432842181996,"[72, 0, 182]",182,l,0.27160008577629924,colour,0.06
028,81,1,2,13,45,645,1064.4528148956597,1065.0552995119942,"[96, 0, 158]",158,l,0.08372415974736214,colour,0.06
028,81,1,2,13,46,646,1065.5659912471892,1066.591284819995,"[33, 0, 221]",221,a,0.4928032534662634,colour,0.06
028,81,1,2,13,47,647,1067.1140239080414,1068.039261712227,"[56, 0, 198]",198,a,0.3993132902542129,colour,0.06
028,81,1,2,13,48,648,1068.5519624555018,1069.4953226859216,"[64, 0, 190]",190,a,0.42156558483839035,colour,0.06
028,81,1,2,13,49,649,1070.0093447822146,1070.6473216115264,"[84, 0, 170]",170,l,0.12056726426817477,colour,0.06
028,81,1,2,13,50,650,1071.163451964967,1072.127295727958,"[78, 0, 176]",176,l,0.4466716869501397,colour,0.06
028,81,1,2,14,1,651,1077.2377986534266,1077.951285198098,"[86, 0, 168]",168,l,0.18736313853878528,colour,0.06
028,81,1,2,14,2,652,1078.4550342173316,1079.3272591789719,"[67, 0, 187]",187,l,0.35295683762524277,colour,0.06
028,81,1,2,14,3,653,1079.8371120224474,1080.3913304273738,"[51, 0, 203]",203,a,0.031115403166040778,colour,0.06
028,81,1,2,14,4,654,1080.899504305562,1081.607343099662,"[53, 0, 201]",201,a,0.18481298617552966,colour,0.06
028,81,1,2,14,5,655,1082.118373936275,1083.0073082050076,"[50, 0, 204]",204,a,0.3659427254460752,colour,0.06
028,81,1,2,14,6,656,1083.5259977693204,1084.1513289937284,"[58, 0, 196]",196,a,0.10225106577854604,colour,0.06
028,81,1,2,14,7,657,1084.6665208124323,1085.3033204362728,"[10, 0, 244]",244,a,0.11331459158100188,colour,0.06
028,81,1,2,14,8,658,1085.8132532304153,1087.0712526348652,"[87, 0, 167]",167,l,0.7315814016619697,colour,0.06
028,81,1,2,14,9,659,1087.5820440130774,1088.4232063469244,"[84, 0, 170]",170,l,0.31768399686552584,colour,0.06
028,81,1,2,14,10,660,1088.9453999584075,1089.6393249639077,"[99, 0, 155]",155,l,0.16239606402814388,colour,0.06
028,81,1,2,14,11,661,1090.1573579871329,1090.9112956585595,"[75, 0, 179]",179,l,0.23074605443980545,colour,0.06
028,81,1,2,14,12,662,1091.4231870485237,1092.3517268568976,"[94, 0, 160]",160,l,0.40550612355582416,colour,0.06
028,81,1,2,14,13,663,1092.8604418793693,1093.783378441818,"[62, 0, 192]",192,a,0.4095115364762023,colour,0.06
028,81,1,2,14,14,664,1094.3037288544,1095.3194964758586,"[92, 0, 162]",162,l,0.49282018875237554,colour,0.06
028,81,1,2,14,15,665,1095.8352113220608,1096.6072737828363,"[59, 0, 195]",195,a,0.2490697359899059,colour,0.06
028,81,1,2,14,16,666,1097.1179572473047,1097.7512748793233,"[82, 0, 172]",172,l,0.11011104879435152,colour,0.06
028,81,1,2,14,17,667,1098.260675587575,1099.6312975962646,"[72, 0, 182]",182,l,0.8495492826914415,colour,0.06
028,81,1,2,14,18,668,1100.1533317002468,1101.5592938973568,"[66, 0, 188]",188,l,0.8739263761090115,colour,0.06
028,81,1,2,14,19,669,1102.0706299644662,1103.15125888912,"[80, 0, 174]",174,l,0.5626018091570586,colour,0.06
028,81,1,2,14,20,670,1103.6627521008486,1104.3752583629685,"[44, 0, 210]",210,a,0.19410578068345785,colour,0.06
028,81,1,2,14,21,671,1104.8915151410038,1106.0232861401746,"[40, 0, 214]",214,a,0.6135910714510828,colour,0.06
028,81,1,2,14,22,672,1106.5476687472546,1107.5673980648862,"[76, 0, 178]",178,l,0.5013634946662933,colour,0.06
028,81,1,2,14,23,673,1108.0802795833442,1109.207248025341,"[61, 0, 193]",193,l,0.6026114347623661,colour,0.06
028,81,1,2,14,24,674,1109.722975474433,1110.4872413614066,"[90, 0, 164]",164,l,0.24081748235039413,colour,0.06
028,81,1,2,14,25,675,1110.994884729269,1112.0632398396265,"[85, 0, 169]",169,l,0.5450689702993259,colour,0.06
028,81,1,2,14,26,676,1112.5729430215433,1113.60722927819,"[93, 0, 161]",161,l,0.5109662457834929,colour,0.06
028,81,1,2,14,27,677,1114.121453023632,1115.1912732408382,"[98, 0, 156]",156,l,0.5464978432282805,colour,0.06
028,81,1,2,14,28,678,1115.7087607875,1117.1912334624212,"[56, 0, 198]",198,a,0.9593235931824893,colour,0.06
028,81,1,2,14,29,679,1117.7087702397257,1118.8472354379483,"[97, 0, 157]",157,l,0.6153023318620399,colour,0.06
028,81,1,2,14,30,680,1119.367920619552,1120.5992168767843,"[91, 0, 163]",163,l,0.7250439531635493,colour,0.06
028,81,1,2,14,31,681,1121.1164586636005,1121.7832189343171,"[79, 0, 175]",175,l,0.14371043827850372,colour,0.06
028,81,1,2,14,32,682,1122.3039277466014,1123.6232769241324,"[81, 0, 173]",173,l,0.7959685144014657,colour,0.06
028,81,1,2,14,33,683,1124.1201852336526,1125.1353167939233,"[55, 0, 199]",199,a,0.49183872481808066,colour,0.06
028,81,1,2,14,34,684,1125.6358732982771,1126.9432468027808,"[60, 0, 194]",194,a,0.7841578628867865,colour,0.06
028,81,1,2,14,35,685,1127.464402630343,1128.4552512264345,"[69, 0, 185]",185,l,0.46754197601694614,colour,0.06
028,81,1,2,14,36,686,1128.9762180079706,1129.895261009573,"[54, 0, 200]",200,a,0.4017834918340668,colour,0.06
028,81,1,2,14,37,687,1130.4143940444337,1131.5672133511398,"[70, 0, 184]",184,l,0.6296190250432119,colour,0.06
028,81,1,2,14,38,688,1132.0861597029725,1133.0711880441522,"[74, 0, 180]",180,l,0.4624637267552316,colour,0.06
028,81,1,2,14,39,689,1133.5800676943036,1134.6232257242082,"[71, 0, 183]",183,l,0.5198155698599294,colour,0.06
028,81,1,2,14,40,690,1135.134124622331,1136.0472394551616,"[96, 0, 158]",158,l,0.3898424773942679,colour,0.06
028,81,1,2,14,41,691,1136.5561797575792,1137.4072449533269,"[78, 0, 176]",176,l,0.3279346247436479,colour,0.06
028,81,1,2,14,42,692,1137.915314068552,1138.855271863984,"[95, 0, 159]",159,l,0.4165495631750673,colour,0.06
028,81,1,2,14,43,693,1139.3732832256937,1140.2951890933327,"[64, 0, 190]",190,l,0.4024951714091003,colour,0.06
028,81,1,2,14,44,694,1140.8068516587373,1141.887302171206,"[52, 0, 202]",202,l,0.557092298520729,colour,0.06
028,81,1,2,14,45,695,1142.4025534606772,1143.0952252483694,"[63, 0, 191]",191,l,0.16944708756636828,colour,0.06
028,81,1,2,14,46,696,1143.6080894377083,1145.391229208908,"[89, 0, 165]",165,l,1.2600296802120283,colour,0.06
028,81,1,2,14,47,697,1145.9047964132624,1147.12730163557,"[65, 0, 189]",189,l,0.6991367684677243,colour,0.06
028,81,1,2,14,48,698,1147.6392138993833,1148.4952246182365,"[68, 0, 186]",186,l,0.33313260320574045,colour,0.06
028,81,1,2,14,49,699,1149.0176978603704,1149.7512268300634,"[88, 0, 166]",166,l,0.201358059537597,colour,0.06
028,81,1,2,14,50,700,1150.2684213552857,1150.9991969482508,"[57, 0, 197]",197,a,0.20779783418402076,colour,0.06
028,81,1,2,15,1,701,1155.537710746983,1156.1831777379848,"[97, 0, 157]",157,l,0.12139118986669928,colour,0.06
028,81,1,2,15,2,702,1156.6947493249318,1157.2472395339282,"[93, 0, 161]",161,l,0.02914381038863212,colour,0.06
028,81,1,2,15,3,703,1157.7447764215758,1158.6871729110135,"[67, 0, 187]",187,l,0.4190520601114258,colour,0.06
028,81,1,2,15,4,704,1159.1940207100706,1159.7432392409537,"[56, 0, 198]",198,a,0.032247710158117115,colour,0.06
028,81,1,2,15,5,705,1160.253935702378,1161.343237114139,"[70, 0, 184]",184,l,0.5659589517163113,colour,0.06
028,81,1,2,15,6,706,1161.8633346776478,1162.4791935138637,"[98, 0, 156]",156,l,0.09247896075248718,colour,0.06
028,81,1,2,15,7,707,1162.9883480684366,1164.063206756604,"[66, 0, 188]",188,a,0.5515197727363557,colour,0.06
028,81,1,2,15,8,708,1164.5800330358325,1165.6071961951675,"[55, 0, 199]",199,a,0.49777161981910467,colour,0.06
028,81,1,2,15,9,709,1166.1173282753443,1166.967189484043,"[88, 0, 166]",166,l,0.326549862511456,colour,0.06
028,81,1,2,15,10,710,1167.4766563584562,1168.6872315939981,"[53, 0, 201]",201,a,0.6872028432553634,colour,0.06
028,81,1,2,15,11,711,1169.2057848876575,1170.2391964126145,"[51, 0, 203]",203,a,0.5011169470380992,colour,0.06
028,81,1,2,15,12,712,1170.7581916013733,1171.4952257997356,"[75, 0, 179]",179,l,0.21143224427942187,colour,0.06
028,81,1,2,15,13,713,1172.0105160799576,1173.0713188010268,"[91, 0, 163]",163,l,0.5374799532582983,colour,0.06
028,81,1,2,15,14,714,1173.5885901261354,1174.407206356409,"[92, 0, 162]",162,l,0.29296819621231407,colour,0.06
028,81,1,2,15,15,715,1174.919013069477,1175.847239376395,"[76, 0, 178]",178,l,0.41728487343061715,colour,0.06
028,81,1,2,15,16,716,1176.3597451660316,1177.0952142206952,"[99, 0, 155]",155,l,0.21231288381386548,colour,0.06
028,81,1,2,15,17,717,1177.6096975106047,1178.5751615556655,"[95, 0, 159]",159,l,0.4422590371686965,colour,0.06
028,81,1,2,15,18,718,1179.0964367184788,1179.8152504230384,"[77, 0, 177]",177,l,0.1999465157277882,colour,0.06
028,81,1,2,15,19,719,1180.3287333443295,1180.9272263322491,"[37, 0, 217]",217,a,0.0751812478993088,colour,0.06
028,81,1,2,15,20,720,1181.4381709165173,1182.2791701982496,"[62, 0, 192]",192,a,0.3180703598773107,colour,0.06
028,81,1,2,15,21,721,1182.7975596518954,1183.4552016018424,"[64, 0, 190]",190,a,0.13426128681749105,colour,0.06
028,81,1,2,15,22,722,1183.969427710399,1185.2472009371268,"[81, 0, 173]",173,l,0.7609957843087614,colour,0.06
028,81,1,2,15,23,723,1185.7658767168177,1186.8312382043805,"[54, 0, 200]",200,a,0.5419197783339769,colour,0.06
028,81,1,2,15,24,724,1187.3441528059775,1188.7751880220603,"[87, 0, 167]",167,l,0.9197345951106399,colour,0.06
028,81,1,2,15,25,725,1189.2798527331324,1190.2551987662446,"[79, 0, 175]",175,l,0.4568624501116574,colour,0.06
028,81,1,2,15,26,726,1190.7698234467534,1191.7512165900553,"[68, 0, 186]",186,l,0.4581010955153033,colour,0.06
028,81,1,2,15,27,727,1192.2698360498762,1193.2071554715512,"[80, 0, 174]",174,l,0.4264772373717278,colour,0.06
028,81,1,2,15,28,728,1193.7261868941132,1194.7112223245203,"[83, 0, 171]",171,l,0.46160159807186574,colour,0.06
028,81,1,2,15,29,729,1195.215078863781,1196.1751901488751,"[57, 0, 197]",197,a,0.436795606627129,colour,0.06
028,81,1,2,15,30,730,1196.6914934007218,1197.5192153486423,"[82, 0, 172]",172,l,0.3050502074183896,colour,0.06
028,81,1,2,15,31,731,1198.035285443766,1198.8872245835373,"[86, 0, 168]",168,l,0.32720719126518816,colour,0.06
028,81,1,2,15,32,732,1199.3872946881456,1200.3992290073074,"[89, 0, 165]",165,l,0.4931340840412304,colour,0.06
028,81,1,2,15,33,733,1200.9071866640588,1201.8631487824023,"[52, 0, 202]",202,a,0.4326448644278571,colour,0.06
028,81,1,2,15,34,734,1202.3759058456635,1204.0311768432148,"[90, 0, 164]",164,l,1.1321947773685679,colour,0.06
028,81,1,2,15,35,735,1204.5516194157535,1206.207184616127,"[69, 0, 185]",185,l,1.1322597619146109,colour,0.06
028,81,1,2,15,36,736,1206.723458329565,1207.6152085965732,"[58, 0, 196]",196,a,0.3683499116450548,colour,0.06
028,81,1,2,15,37,737,1208.1309017811436,1209.1592315121088,"[78, 0, 176]",176,l,0.5050128708826378,colour,0.06
028,81,1,2,15,38,738,1209.6761353790062,1210.6471707684686,"[71, 0, 183]",183,l,0.4516987361712381,colour,0.06
028,81,1,2,15,39,739,1211.1656055145431,1212.0551789951278,"[50, 0, 204]",204,a,0.37218360777478665,colour,0.06
028,81,1,2,15,40,740,1212.5727720924187,1213.5591509311926,"[63, 0, 191]",191,a,0.466879133367911,colour,0.06
028,81,1,2,15,41,741,1214.071339674876,1214.6871945725288,"[14, 0, 240]",240,a,0.08425979025196284,colour,0.06
028,81,1,2,15,42,742,1215.198948904057,1216.639256434748,"[94, 0, 160]",160,l,0.9218806616263464,colour,0.06
028,81,1,2,15,43,743,1217.1510997753358,1218.1351832802175,"[1, 0, 253]",253,a,0.4665195521665737,colour,0.06
028,81,1,2,15,44,744,1218.6584186141845,1219.5913769799517,"[65, 0, 189]",189,l,0.4082539865048602,colour,0.06
028,81,1,2,15,45,745,1220.106284048059,1221.0711817425909,"[59, 0, 195]",195,a,0.44128151156473905,colour,0.06
028,81,1,2,15,46,746,1221.5817765917163,1222.2791938289301,"[74, 0, 180]",180,l,0.18050785642117262,colour,0.06
028,81,1,2,15,47,747,1222.801464240416,1223.6951782231918,"[84, 0, 170]",170,l,0.3767695496790111,colour,0.06
028,81,1,2,15,48,748,1224.208300775499,1225.175165336579,"[61, 0, 193]",193,a,0.44962041126564145,colour,0.06
028,81,1,2,15,49,749,1225.6945571281249,1226.5512555020396,"[73, 0, 181]",181,l,0.3388047721236944,colour,0.06
028,81,1,2,15,50,750,1227.0714700378012,1228.0871762193274,"[96, 0, 158]",158,l,0.49885193910449743,colour,0.06
028,81,1,2,16,1,751,1233.6145150338998,1234.2951646748697,"[88, 0, 166]",166,l,0.16147485841065645,colour,0.06
028,81,1,2,16,2,752,1234.8061301329872,1235.8231820859946,"[61, 0, 193]",193,a,0.48855089908465743,colour,0.06
028,81,1,2,16,3,753,1236.3328289480414,1236.9192147185095,"[81, 0, 173]",173,l,0.06976468488574028,colour,0.06
028,81,1,2,16,4,754,1237.4293306510663,1238.1751728196396,"[95, 0, 159]",159,l,0.22655947227030993,colour,0.06
028,81,1,2,16,5,755,1238.6989555994514,1240.151208870695,"[52, 0, 202]",202,l,0.9250641181133687,colour,0.06
028,81,1,2,16,6,756,1240.6616961999098,1241.7191803752212,"[62, 0, 192]",192,l,0.5399576380150393,colour,0.06
028,81,1,2,16,7,757,1242.237846308737,1243.0713247086387,"[59, 0, 195]",195,l,0.31642172078136355,colour,0.06
028,81,1,2,16,8,758,1243.5831499324413,1244.4871641675709,"[74, 0, 180]",180,l,0.3853790215216577,colour,0.06
028,81,1,2,16,9,759,1245.0041022991063,1246.4552153864643,"[64, 0, 190]",190,l,0.9332730486057699,colour,0.06
028,81,1,2,16,10,760,1246.9696132118115,1248.1591744044563,"[66, 0, 188]",188,l,0.6721646244404837,colour,0.06
028,81,1,2,16,11,761,1248.6697936720448,1249.6872264740523,"[71, 0, 183]",183,l,0.5019428419182077,colour,0.06
028,81,1,2,16,12,762,1250.1958871458191,1251.4871393552748,"[65, 0, 189]",189,l,0.7736492659896612,colour,0.06
028,81,1,2,16,13,763,1252.0077823954634,1254.2151623590617,"[76, 0, 178]",178,l,1.6751873918110505,colour,0.06
028,81,1,2,16,14,764,1254.731955949217,1255.391165405861,"[75, 0, 179]",179,l,0.13162566989194602,colour,0.06
028,81,1,2,16,15,765,1255.9006216464331,1256.7671882237773,"[82, 0, 172]",172,l,0.3486808525631204,colour,0.06
028,81,1,2,16,16,766,1257.2768232703675,1257.9191229523858,"[50, 0, 204]",204,a,0.12512130453251302,colour,0.06
028,81,1,2,16,17,767,1258.436711717397,1259.6711469265865,"[80, 0, 174]",174,l,0.7137894121697173,colour,0.06
028,81,1,2,16,18,768,1260.191271665506,1262.2871605441906,"[97, 0, 157]",157,l,1.5752056662458926,colour,0.06
028,81,1,2,16,19,769,1262.8097511524102,1263.6711252650712,"[92, 0, 162]",162,l,0.3291504270164296,colour,0.06
028,81,1,2,16,20,770,1264.1853100197623,1265.4391933406005,"[79, 0, 175]",175,l,0.737353213597089,colour,0.06
028,81,1,2,16,21,771,1265.951196188922,1266.8551694640191,"[63, 0, 191]",191,l,0.3860832180362195,colour,0.06
028,81,1,2,16,22,772,1267.375646695029,1268.3351526389597,"[68, 0, 186]",186,l,0.44181596057023853,colour,0.06
028,81,1,2,16,23,773,1268.8457931742305,1269.8071088402066,"[89, 0, 165]",165,l,0.43808111967518926,colour,0.06
028,81,1,2,16,24,774,1270.3162433085963,1271.2791694104671,"[93, 0, 161]",161,l,0.44556616130284965,colour,0.06
028,81,1,2,16,25,775,1271.8001539150719,1272.6951392324409,"[69, 0, 185]",185,l,0.363472523749806,colour,0.06
028,81,1,2,16,26,776,1273.2084425599314,1273.855127716437,"[51, 0, 203]",203,a,0.115733593236655,colour,0.06
028,81,1,2,16,27,777,1274.3643614340108,1275.1031257975847,"[98, 0, 156]",156,l,0.22172461973968893,colour,0.06
028,81,1,2,16,28,778,1275.6172120907577,1276.1751968442695,"[83, 0, 171]",171,l,0.025931209325790405,colour,0.06
028,81,1,2,16,29,779,1276.6975121541182,1277.3911622550804,"[70, 0, 184]",184,l,0.17652095411904156,colour,0.06
028,81,1,2,16,30,780,1277.9033714786638,1278.6231355334166,"[57, 0, 197]",197,a,0.2006601644679904,colour,0.06
028,81,1,2,16,31,781,1279.1389441149076,1280.0711549611297,"[55, 0, 199]",199,a,0.4089349461719394,colour,0.06
028,81,1,2,16,32,782,1280.5936447447166,1281.3591906309593,"[56, 0, 198]",198,a,0.23797233949881047,colour,0.06
028,81,1,2,16,33,783,1281.8690415051533,1282.5191255518002,"[90, 0, 164]",164,l,0.1324133618036285,colour,0.06
028,81,1,2,16,34,784,1283.029740487109,1284.0711088811513,"[54, 0, 200]",200,a,0.5249127238057554,colour,0.06
028,81,1,2,16,35,785,1284.59174404433,1285.4631281448528,"[77, 0, 177]",177,l,0.3426313790259883,colour,0.06
028,81,1,2,16,36,786,1285.9808972913306,1286.8631830470404,"[96, 0, 158]",158,l,0.364308264805004,colour,0.06
028,81,1,2,16,37,787,1287.373068185756,1288.295120564173,"[94, 0, 160]",160,l,0.404588068719022,colour,0.06
028,81,1,2,16,38,788,1288.8111701792805,1289.8231340368511,"[58, 0, 196]",196,a,0.49319513014052063,colour,0.06
028,81,1,2,16,39,789,1290.3406696326565,1291.3112205915386,"[60, 0, 194]",194,a,0.437367076985538,colour,0.06
028,81,1,2,16,40,790,1291.8268023177516,1292.6710937573807,"[99, 0, 155]",155,l,0.3264167425222695,colour,0.06
028,81,1,2,16,41,791,1293.1907797519816,1294.143150783144,"[53, 0, 201]",201,a,0.4337767775868997,colour,0.06
028,81,1,2,16,42,792,1294.661975042778,1295.5191460318165,"[84, 0, 170]",170,l,0.33938766410574317,colour,0.06
028,81,1,2,16,43,793,1296.038615017198,1296.711151038413,"[22, 0, 232]",232,a,0.15556677582208067,colour,0.06
028,81,1,2,16,44,794,1297.228746498702,1298.4551425250247,"[67, 0, 187]",187,a,0.7080814032815397,colour,0.06
028,81,1,2,16,45,795,1298.9778044193517,1300.0391195338452,"[43, 0, 211]",211,a,0.5404759391676635,colour,0.06
028,81,1,2,16,46,796,1300.5520593415713,1301.4631446864223,"[86, 0, 168]",168,l,0.3864427993539721,colour,0.06
028,81,1,2,16,47,797,1301.9826408472145,1302.9991827697959,"[73, 0, 181]",181,l,0.48607085132971406,colour,0.06
028,81,1,2,16,48,798,1303.512834257097,1304.5351334193256,"[91, 0, 163]",163,l,0.4912759190192446,colour,0.06
028,81,1,2,16,49,799,1305.0515430095838,1306.1031348560937,"[17, 0, 237]",237,a,0.5333276357268915,colour,0.06
028,81,1,2,16,50,800,1306.6150278212735,1307.3431713419268,"[87, 0, 167]",167,l,0.21124280442018062,colour,0.06
