id,age,condition,counterbalance,block,trialinblock,trial,tstart,tend,trialstim,trialintensity,response,RT,trialtype,colourfreq
147,25,1,2,Practice,1,NA,5.9076701290905476e-06,1.1047424525604583,"[25, 0, 229]",229,a,0.5803976738243364,colour,0.5
147,25,1,2,Practice,2,NA,1.6257324544130825,2.4407660139841028,"[74, 0, 180]",180,a,0.2917360163410194,colour,0.5
147,25,1,2,Practice,3,NA,2.9538511405698955,3.8887807563878596,"[31, 0, 223]",223,a,0.411504466610495,colour,0.5
147,25,1,2,Practice,4,NA,4.406976029800717,5.4327697665430605,"[79, 0, 175]",175,a,0.5029829866834916,colour,0.5
147,25,1,2,Practice,5,NA,5.954223718494177,6.840736318030395,"[57, 0, 197]",197,a,0.36360260035144165,colour,0.5
147,25,1,2,Practice,6,NA,7.3601324266637675,8.240764517337084,"[46, 0, 208]",208,a,0.35731288586976007,colour,0.5
147,25,1,2,Practice,7,NA,8.75067879294511,9.72081072331639,"[21, 0, 233]",233,a,0.44671465805731714,colour,0.5
147,25,1,2,Practice,8,NA,10.235082112892997,11.144774495856836,"[92, 0, 162]",162,l,0.38630622444907203,colour,0.5
147,25,1,2,Practice,9,NA,11.656979771330953,12.472753760637715,"[5, 0, 249]",249,a,0.29242091381456703,colour,0.5
147,25,1,2,Practice,10,NA,12.98508191597648,13.792765528778546,"[91, 0, 163]",163,l,0.2843537742155604,colour,0.5
147,25,1,2,1,1,1,4.478846552257892,5.031997198995668,"[69, 0, 185]",185,a,0.02894016937352717,colour,0.5
147,25,1,2,1,2,2,5.542167080333456,6.119977188471239,"[46, 0, 208]",208,a,0.054861118202097714,colour,0.5
147,25,1,2,1,3,3,6.63581962819444,7.25595986872213,"[70, 0, 184]",184,a,0.09730664739618078,colour,0.5
147,25,1,2,1,4,4,7.7764059697510675,9.759981820068788,"[95, 0, 159]",159,l,1.4608840415603481,colour,0.5
147,25,1,2,1,5,5,10.276400062080938,11.10398548131343,"[91, 0, 163]",163,l,0.3050113703357056,colour,0.5
147,25,1,2,1,6,6,11.62023279425921,12.447972207097337,"[55, 0, 199]",199,a,0.30508935172110796,colour,0.5
147,25,1,2,1,7,7,12.96402299113106,13.760029475437477,"[82, 0, 172]",172,l,0.27314098965143785,colour,0.5
147,25,1,2,1,8,8,14.276465834293049,15.0799778343644,"[90, 0, 164]",164,l,0.2809726095874794,colour,0.5
147,25,1,2,1,9,9,15.588887803663965,16.359967799216975,"[0, 0, 254]",254,a,0.24835234688362107,colour,0.5
147,25,1,2,1,10,10,16.87017155130161,17.82395613193512,"[36, 0, 218]",218,a,0.4311230980674736,colour,0.5
147,25,1,2,1,11,11,18.338840345211793,19.1839707987383,"[14, 0, 240]",240,a,0.3225217462168075,colour,0.5
147,25,1,2,1,12,12,19.69866596616339,20.544009883946273,"[43, 0, 211]",211,a,0.32199044845765457,colour,0.5
147,25,1,2,1,13,13,21.05810246762121,21.79198532056762,"[3, 0, 251]",251,a,0.2105971250566654,colour,0.5
147,25,1,2,1,14,14,22.308116842992604,23.07192605471937,"[53, 0, 201]",201,a,0.24053569306852296,colour,0.5
147,25,1,2,1,15,15,23.589357661432587,24.408091794408392,"[48, 0, 206]",206,a,0.29541650356259197,colour,0.5
147,25,1,2,1,16,16,24.91753503063228,25.74396845139563,"[73, 0, 181]",181,l,0.3030724683776498,colour,0.5
147,25,1,2,1,17,17,26.26134216284845,26.999923593946733,"[78, 0, 176]",176,l,0.21539928461425006,colour,0.5
147,25,1,2,1,18,18,27.511162766139023,28.335930220026057,"[44, 0, 210]",210,a,0.3013694799738005,colour,0.5
147,25,1,2,1,19,19,28.855014402943198,29.623944001446944,"[45, 0, 209]",209,a,0.24571043049218133,colour,0.5
147,25,1,2,1,20,20,30.136211898410693,30.911911309114657,"[16, 0, 238]",238,a,0.2524191966513172,colour,0.5
147,25,1,2,1,21,21,31.433113199891523,32.37593469407875,"[96, 0, 158]",158,l,0.419754350616131,colour,0.5
147,25,1,2,1,22,22,32.88618137536105,33.68790571024874,"[88, 0, 166]",166,l,0.278292884118855,colour,0.5
147,25,1,2,1,23,23,34.19871795375366,34.96793190884637,"[4, 0, 250]",250,a,0.24597903323592618,colour,0.5
147,25,1,2,1,24,24,35.47988118464127,36.23199633252807,"[42, 0, 212]",212,a,0.22873883548891172,colour,0.5
147,25,1,2,1,25,25,36.745565101504326,37.47192314022686,"[25, 0, 229]",229,a,0.20302189857466146,colour,0.5
147,25,1,2,1,26,26,37.97994459379697,39.05592568294378,"[2, 0, 252]",252,a,0.5526914227521047,colour,0.5
147,25,1,2,1,27,27,39.573684575385414,40.487897124374285,"[18, 0, 236]",236,a,0.39121511607663706,colour,0.5
147,25,1,2,1,28,28,40.99556214764016,41.791901037620846,"[60, 0, 194]",194,l,0.2730858512222767,colour,0.5
147,25,1,2,1,29,29,42.30804240616271,43.11192383343587,"[74, 0, 180]",180,l,0.2805665548075922,colour,0.5
147,25,1,2,1,30,30,43.62052108923672,44.48790263821138,"[15, 0, 239]",239,a,0.3441040918114595,colour,0.5
147,25,1,2,1,31,31,44.995523156947456,45.8159078968456,"[35, 0, 219]",219,a,0.29711437196237966,colour,0.5
147,25,1,2,1,32,32,46.32365287077846,47.103862995281816,"[86, 0, 168]",168,l,0.2569208519998938,colour,0.5
147,25,1,2,1,33,33,47.620523058460094,48.423884215706494,"[20, 0, 234]",234,a,0.2800423462758772,colour,0.5
147,25,1,2,1,34,34,48.93306436302373,49.71988676150795,"[84, 0, 170]",170,l,0.2636989349266514,colour,0.5
147,25,1,2,1,35,35,50.22989122773288,51.03187313763192,"[64, 0, 190]",190,l,0.27860874828184023,colour,0.5
147,25,1,2,1,36,36,51.542404175386764,52.35990990389837,"[99, 0, 155]",155,l,0.29490568581968546,colour,0.5
147,25,1,2,1,37,37,52.87049135391135,53.69593937299214,"[75, 0, 179]",179,l,0.3021260573877953,colour,0.5
147,25,1,2,1,38,38,54.21421932318481,55.00796473980881,"[77, 0, 177]",177,l,0.2704340887721628,colour,0.5
147,25,1,2,1,39,39,55.52669091708958,56.46388672053581,"[65, 0, 189]",189,l,0.413849423348438,colour,0.5
147,25,1,2,1,40,40,56.97982407704694,57.76787960610818,"[49, 0, 205]",205,a,0.2646555859246291,colour,0.5
147,25,1,2,1,41,41,58.276735618535895,59.10389686602866,"[37, 0, 217]",217,a,0.3038692180416547,colour,0.5
147,25,1,2,1,42,42,59.62048958160449,60.455862116243225,"[21, 0, 233]",233,a,0.3120245791506022,colour,0.5
147,25,1,2,1,43,43,60.96420691703679,61.759900294069666,"[23, 0, 231]",231,a,0.27233399997930974,colour,0.5
147,25,1,2,1,44,44,62.27667378477054,63.23988978622947,"[8, 0, 246]",246,a,0.43983614444732666,colour,0.5
147,25,1,2,1,45,45,63.7610901016742,64.60787234362215,"[76, 0, 178]",178,l,0.3234212895622477,colour,0.5
147,25,1,2,1,46,46,65.12046161858598,66.13588382501621,"[52, 0, 202]",202,a,0.49210772779770195,colour,0.5
147,25,1,2,1,47,47,66.65155966801103,67.61585874494631,"[7, 0, 247]",247,a,0.44086565694306046,colour,0.5
147,25,1,2,1,48,48,68.13602915406227,68.92784472717904,"[81, 0, 173]",173,l,0.2684203561511822,colour,0.5
147,25,1,2,1,49,49,69.44849562790478,70.49588510108879,"[58, 0, 196]",196,l,0.5240785391652025,colour,0.5
147,25,1,2,1,50,50,71.01108320936328,71.74391173763433,"[32, 0, 222]",222,a,0.20952035119989887,colour,0.5
147,25,1,2,2,1,51,77.82263832452009,78.68822039285442,"[76, 0, 178]",178,l,0.34144996624672785,colour,0.5
147,25,1,2,2,2,52,79.19851906172698,79.86386411380954,"[25, 0, 229]",229,a,0.14207350258948281,colour,0.5
147,25,1,2,2,3,53,80.37035547720734,81.15184363070875,"[69, 0, 185]",185,l,0.25817564415046945,colour,0.5
147,25,1,2,2,4,54,81.66726583713898,82.54384722572286,"[66, 0, 188]",188,l,0.35328463301993906,colour,0.5
147,25,1,2,2,5,55,83.05786694795825,83.91200425667921,"[91, 0, 163]",163,l,0.33080904552480206,colour,0.5
147,25,1,2,2,6,56,84.43285208026646,85.2318486404256,"[6, 0, 248]",248,a,0.2744296524906531,colour,0.5
147,25,1,2,2,7,57,85.74535872641718,86.5438677056809,"[15, 0, 239]",239,a,0.27513857459416613,colour,0.5
147,25,1,2,2,8,58,87.05784056027187,87.69585824076785,"[70, 0, 184]",184,l,0.11467720806831494,colour,0.5
147,25,1,2,2,9,59,88.21409329259768,88.99984836945077,"[36, 0, 218]",218,a,0.2624027890851721,colour,0.5
147,25,1,2,2,10,60,89.51098711101804,90.19984710915014,"[63, 0, 191]",191,l,0.16557505790842697,colour,0.5
147,25,1,2,2,11,61,90.71414567402098,91.4318745554774,"[71, 0, 183]",183,l,0.19444118428509682,colour,0.5
147,25,1,2,2,12,62,91.94838850194355,92.71985564770875,"[4, 0, 250]",250,a,0.24814360868185759,colour,0.5
147,25,1,2,2,13,63,93.22972463106271,94.17584458220517,"[52, 0, 202]",202,a,0.4227849925518967,colour,0.5
147,25,1,2,2,14,64,94.68281683110399,95.57586057233857,"[89, 0, 165]",165,l,0.3698702593683265,colour,0.5
147,25,1,2,2,15,65,96.08912135410355,96.9118293892243,"[27, 0, 227]",227,a,0.299392374989111,colour,0.5
147,25,1,2,2,16,66,97.43280600034632,98.07184452866204,"[7, 0, 247]",247,a,0.11588001257041469,colour,0.5
147,25,1,2,2,17,67,98.5890618833946,99.18383374047698,"[41, 0, 213]",213,a,0.07141641853377223,colour,0.5
147,25,1,2,2,18,68,99.69840563420439,100.39184881368419,"[2, 0, 252]",252,a,0.17015745159005746,colour,0.5
147,25,1,2,2,19,69,100.90152875112835,101.92786481330404,"[95, 0, 159]",159,l,0.5029105190769769,colour,0.5
147,25,1,2,2,20,70,102.4483723542653,103.00785918917973,"[37, 0, 217]",217,a,0.03614872554317117,colour,0.5
147,25,1,2,2,21,71,103.52650699118385,104.59179950424004,"[74, 0, 180]",180,l,0.5419130499358289,colour,0.5
147,25,1,2,2,22,72,105.10468298185151,105.64782601164188,"[43, 0, 211]",211,a,0.019821068097371608,colour,0.5
147,25,1,2,2,23,73,106.16711263119942,106.77582229056861,"[35, 0, 219]",219,a,0.0853325593052432,colour,0.5
147,25,1,2,2,24,74,107.2921909079887,108.16786645166576,"[59, 0, 195]",195,l,0.3523614588775672,colour,0.5
147,25,1,2,2,25,75,108.68283376644831,110.59182077192236,"[28, 0, 226]",226,a,1.385951369535178,colour,0.5
147,25,1,2,2,26,76,111.10467234801035,112.44777607201831,"[38, 0, 216]",216,a,0.8197734915302135,colour,0.5
147,25,1,2,2,27,77,112.96409427718027,114.35179589659674,"[26, 0, 228]",228,a,0.8646943403291516,colour,0.5
147,25,1,2,2,28,78,114.87027513264911,115.8718962012208,"[20, 0, 234]",234,a,0.4782975314883515,colour,0.5
147,25,1,2,2,29,79,116.38587732653832,117.19178587716306,"[81, 0, 173]",173,l,0.2826011612196453,colour,0.5
147,25,1,2,2,30,80,117.69835758506088,118.6878163072397,"[32, 0, 222]",222,a,0.466157240443863,colour,0.5
147,25,1,2,2,31,81,119.19832174509065,120.30381683661835,"[65, 0, 189]",189,l,0.5821235053008422,colour,0.5
147,25,1,2,2,32,82,120.82333779428154,121.66377872810699,"[9, 0, 245]",245,a,0.3171170028508641,colour,0.5
147,25,1,2,2,33,83,122.18271876353538,122.98382003459847,"[97, 0, 157]",157,l,0.2779778075637296,colour,0.5
147,25,1,2,2,34,84,123.49523131735623,124.7197827862692,"[16, 0, 238]",238,a,0.7012141472660005,colour,0.5
147,25,1,2,2,35,85,125.22955370205455,126.05579807696631,"[80, 0, 174]",174,l,0.3029354101163335,colour,0.5
147,25,1,2,2,36,86,126.57326316053513,127.57584600005066,"[94, 0, 160]",160,l,0.4791423302376643,colour,0.5
147,25,1,2,2,37,87,128.08896539121633,128.94376987445867,"[56, 0, 198]",198,l,0.3314789769356139,colour,0.5
147,25,1,2,2,38,88,129.46398912044242,130.22380434384104,"[64, 0, 190]",190,l,0.23712223314214498,colour,0.5
147,25,1,2,2,39,89,130.74519685585983,131.56807109387591,"[67, 0, 187]",187,l,0.29955503321252763,colour,0.5
147,25,1,2,2,40,90,132.08896027121227,132.9037669757381,"[0, 0, 254]",254,a,0.291540275036823,colour,0.5
147,25,1,2,2,41,91,133.41705965896836,134.31978058075765,"[29, 0, 225]",225,a,0.37951238761888817,colour,0.5
147,25,1,2,2,42,92,134.83901718189009,135.91978152596857,"[62, 0, 192]",192,l,0.557560536020901,colour,0.5
147,25,1,2,2,43,93,136.43267288053175,137.43176152178785,"[18, 0, 236]",236,a,0.47588837787043303,colour,0.5
147,25,1,2,2,44,94,137.94824829290155,139.0958104279125,"[8, 0, 246]",246,a,0.6242523825494573,colour,0.5
147,25,1,2,2,45,95,139.60461012041196,140.51178504223935,"[17, 0, 237]",237,a,0.3932012795121409,colour,0.5
147,25,1,2,2,46,96,141.0328333331854,141.8877819639165,"[55, 0, 199]",199,l,0.33185667486395687,colour,0.5
147,25,1,2,2,47,97,142.40784445934696,143.312086806749,"[83, 0, 171]",171,l,0.38087903190171346,colour,0.5
147,25,1,2,2,48,98,143.82969761325512,144.80779034498846,"[58, 0, 196]",196,l,0.45484008686617017,colour,0.5
147,25,1,2,2,49,99,145.31390991806984,146.45581800554646,"[88, 0, 166]",166,l,0.6184037752682343,colour,0.5
147,25,1,2,2,50,100,146.97032097628107,147.9759202793357,"[22, 0, 232]",232,a,0.4821773045696318,colour,0.5
147,25,1,2,3,1,101,153.20395964500494,154.19173231418245,"[53, 0, 201]",201,l,0.4636653793277219,colour,0.5
147,25,1,2,3,2,102,154.70462957641575,155.41577375301858,"[36, 0, 218]",218,a,0.18770012276945636,colour,0.5
147,25,1,2,3,3,103,155.9234080563765,156.83172828122042,"[15, 0, 239]",239,a,0.38501086621545255,colour,0.5
147,25,1,2,3,4,104,157.34527696407167,158.20779215666698,"[13, 0, 241]",241,a,0.3392011077958159,colour,0.5
147,25,1,2,3,5,105,158.72028060711455,159.54370465362445,"[56, 0, 198]",198,l,0.30006624484667554,colour,0.5
147,25,1,2,3,6,106,160.06399557949044,160.87972033809638,"[23, 0, 231]",231,a,0.2923295416403562,colour,0.5
147,25,1,2,3,7,107,161.39206267189002,162.46376620378578,"[5, 0, 249]",249,a,0.5483197364374064,colour,0.5
147,25,1,2,3,8,108,162.97024181333836,164.12772295012837,"[52, 0, 202]",202,a,0.6340394460130483,colour,0.5
147,25,1,2,3,9,109,164.64206011185888,165.6637700634892,"[73, 0, 181]",181,l,0.49828165158396587,colour,0.5
147,25,1,2,3,10,110,166.1734058901784,167.22379095305223,"[91, 0, 163]",163,l,0.5270288366009481,colour,0.5
147,25,1,2,3,11,111,167.73583711491665,168.75173626840115,"[97, 0, 157]",157,l,0.4925259918672964,colour,0.5
147,25,1,2,3,12,112,169.26703047502087,170.23171985289082,"[0, 0, 254]",254,a,0.44131227780599147,colour,0.5
147,25,1,2,3,13,113,170.7514566379832,172.7356996628223,"[64, 0, 190]",190,a,1.4608344170846976,colour,0.5
147,25,1,2,3,14,114,173.25142158573726,174.7837188950507,"[96, 0, 158]",158,l,1.0088733416050673,colour,0.5
147,25,1,2,3,15,115,175.29828212421853,176.25573892134707,"[22, 0, 232]",232,a,0.4341025400790386,colour,0.5
147,25,1,2,3,16,116,176.76705922570545,177.64777205477003,"[43, 0, 211]",211,a,0.35746648570057005,colour,0.5
147,25,1,2,3,17,117,178.15779227478197,179.1437213526806,"[34, 0, 220]",220,a,0.4627213313942775,colour,0.5
147,25,1,2,3,18,118,179.65766939497553,180.41573791310657,"[92, 0, 162]",162,l,0.2347233195323497,colour,0.5
147,25,1,2,3,19,119,180.9233166842023,181.7757376137888,"[16, 0, 238]",238,a,0.32902413723059,colour,0.5
147,25,1,2,3,20,120,182.28252475516638,182.99977590184426,"[40, 0, 214]",214,a,0.1938732588896528,colour,0.5
147,25,1,2,3,21,121,183.51710510876728,184.78370865510078,"[11, 0, 243]",243,a,0.7435474304365925,colour,0.5
147,25,1,2,3,22,122,185.29827227810165,186.43969199701678,"[31, 0, 223]",223,a,0.618040649627801,colour,0.5
147,25,1,2,3,23,123,186.9545565180597,187.82369186152937,"[14, 0, 240]",240,a,0.3457338250009343,colour,0.5
147,25,1,2,3,24,124,188.32950541656464,189.19172483112197,"[76, 0, 178]",178,l,0.3387773299473338,colour,0.5
147,25,1,2,3,25,125,189.70452914579073,190.7597203066107,"[25, 0, 229]",229,a,0.5318101223092526,colour,0.5
147,25,1,2,3,26,126,191.2669784873724,192.12770798394922,"[41, 0, 213]",213,a,0.3374673994258046,colour,0.5
147,25,1,2,3,27,127,192.6420258473372,193.99974557576934,"[29, 0, 225]",225,a,0.8344359697657637,colour,0.5
147,25,1,2,3,28,128,194.5169983765809,195.2637005103752,"[68, 0, 186]",186,l,0.22341798129491508,colour,0.5
147,25,1,2,3,29,129,195.78264921036316,196.5756738895434,"[66, 0, 188]",188,l,0.26981614500982687,colour,0.5
147,25,1,2,3,30,130,197.0951491611777,197.93570627941517,"[84, 0, 170]",170,l,0.31729502108646557,colour,0.5
147,25,1,2,3,31,131,198.45449704735074,199.15169908938697,"[4, 0, 250]",250,a,0.1738249419722706,colour,0.5
147,25,1,2,3,32,132,199.67316406901227,200.55173949792515,"[58, 0, 196]",196,a,0.3550593013642356,colour,0.5
147,25,1,2,3,33,133,201.06389042269439,202.02367760427296,"[7, 0, 247]",247,a,0.43657589046051726,colour,0.5
147,25,1,2,3,34,134,202.53257063817,203.56765519292094,"[72, 0, 182]",182,a,0.5117976453038864,colour,0.5
147,25,1,2,3,35,135,204.07943432743195,204.84765460999915,"[74, 0, 180]",180,l,0.24486366246128455,colour,0.5
147,25,1,2,3,36,136,205.36096462240675,206.5517343779211,"[49, 0, 205]",205,a,0.6677022180519998,colour,0.5
147,25,1,2,3,37,137,207.06382228742586,208.1996931154863,"[70, 0, 184]",184,l,0.612466158811003,colour,0.5
147,25,1,2,3,38,138,208.7201096781646,209.6156740313163,"[38, 0, 216]",216,a,0.3722333330078982,colour,0.5
147,25,1,2,3,39,139,210.12631101359148,210.9917115191347,"[39, 0, 215]",215,a,0.34206042694859207,colour,0.5
147,25,1,2,3,40,140,211.5013217458618,212.39164874015842,"[8, 0, 246]",246,a,0.36700503260362893,colour,0.5
147,25,1,2,3,41,141,212.9075632535969,213.74367582413834,"[83, 0, 171]",171,l,0.3128138457541354,colour,0.5
147,25,1,2,3,42,142,214.25127231824445,215.16765692579793,"[86, 0, 168]",168,l,0.3929791505797766,colour,0.5
147,25,1,2,3,43,143,215.68875365983695,216.6317066984484,"[60, 0, 194]",194,l,0.4199335503508337,colour,0.5
147,25,1,2,3,44,144,217.1418990290258,218.08769681450212,"[82, 0, 172]",172,l,0.4224817314534448,colour,0.5
147,25,1,2,3,45,145,218.59505188127514,219.47966614493635,"[94, 0, 160]",160,l,0.361234012816567,colour,0.5
147,25,1,2,3,46,146,219.9856474782573,221.16764747351408,"[80, 0, 174]",174,l,0.6587087535299361,colour,0.5
147,25,1,2,3,47,147,221.6887631121208,222.54368771822192,"[26, 0, 228]",228,a,0.33153687219601125,colour,0.5
147,25,1,2,3,48,148,223.06382228742586,224.08770744834328,"[67, 0, 187]",187,a,0.5006041591987014,colour,0.5
147,25,1,2,3,49,149,224.59501052752603,225.61570475128246,"[48, 0, 206]",206,a,0.4972166930674575,colour,0.5
147,25,1,2,3,50,150,226.12616607837845,227.19165905890986,"[69, 0, 185]",185,a,0.5420827973866835,colour,0.5
147,25,1,2,4,1,151,239.04724296258064,240.35966059961356,"[25, 0, 229]",229,a,0.7883603656082414,colour,0.5
147,25,1,2,4,2,152,240.87620408448856,241.6636274913908,"[62, 0, 192]",192,l,0.2640923867584206,colour,0.5
147,25,1,2,4,3,153,242.17298998922342,242.95163851592224,"[4, 0, 250]",250,a,0.25516469444846734,colour,0.5
147,25,1,2,4,4,154,243.4699507614132,244.27961699303705,"[17, 0, 237]",237,a,0.28713196114404127,colour,0.5
147,25,1,2,4,5,155,244.7980871706386,245.5596333455178,"[50, 0, 204]",204,a,0.2382817146135494,colour,0.5
147,25,1,2,4,6,156,246.0792669430375,246.94360761006828,"[90, 0, 164]",164,l,0.34088991780299693,colour,0.5
147,25,1,2,4,7,157,247.45427925069816,248.10363810946,"[79, 0, 175]",175,l,0.1260286262840964,colour,0.5
147,25,1,2,4,8,158,248.6104866907699,249.3435838217847,"[6, 0, 248]",248,a,0.2097294832346961,colour,0.5
147,25,1,2,4,9,159,249.86049830925185,250.6556651146384,"[31, 0, 223]",223,a,0.2718101852806285,colour,0.5
147,25,1,2,4,10,160,251.17332751495996,251.90362834208645,"[92, 0, 162]",162,l,0.206996982335113,colour,0.5
147,25,1,2,4,11,161,252.42341672093607,253.16763565817382,"[74, 0, 180]",180,l,0.22093084623338655,colour,0.5
147,25,1,2,4,12,162,253.68906164710643,254.39965798449703,"[65, 0, 189]",189,l,0.18727043725084513,colour,0.5
147,25,1,2,4,13,163,254.90783028089209,255.52765977726085,"[98, 0, 156]",156,l,0.09647011931519955,colour,0.5
147,25,1,2,4,14,164,256.04842804401414,257.22361096559325,"[46, 0, 208]",208,a,0.6518692306126468,colour,0.5
147,25,1,2,4,15,165,257.73593163787154,258.5915907660383,"[28, 0, 226]",226,a,0.33303506090305746,colour,0.5
147,25,1,2,4,16,166,259.11091992096044,259.90360943751875,"[47, 0, 207]",207,a,0.2692482196725905,colour,0.5
147,25,1,2,4,17,167,260.42338206252316,261.27164910244755,"[56, 0, 198]",198,a,0.32485606911359355,colour,0.5
147,25,1,2,4,18,168,261.78336994786514,262.7276128308731,"[9, 0, 245]",245,a,0.4216054250136949,colour,0.5
147,25,1,2,4,19,169,263.23612619761843,264.15161874482874,"[24, 0, 230]",230,a,0.3923958652303554,colour,0.5
147,25,1,2,4,20,170,264.65775092103286,265.511623171682,"[91, 0, 163]",163,l,0.3304073230247013,colour,0.5
147,25,1,2,4,21,171,266.0326238073758,266.7116191544337,"[3, 0, 251]",251,a,0.1557411268586293,colour,0.5
147,25,1,2,4,22,172,267.2203136901371,268.0475950605469,"[69, 0, 185]",185,a,0.30411340232240036,colour,0.5
147,25,1,2,4,23,173,268.56398258259287,269.3916463770438,"[55, 0, 199]",199,a,0.3042772421031259,colour,0.5
147,25,1,2,4,24,174,269.90776765946066,270.7676161234267,"[8, 0, 246]",246,a,0.3365627360763028,colour,0.5
147,25,1,2,4,25,175,271.28274137026165,272.08759362692945,"[82, 0, 172]",172,l,0.28175596852088347,colour,0.5
147,25,1,2,4,26,176,272.59526101330994,273.383610745077,"[75, 0, 179]",179,l,0.2650116223958321,colour,0.5
147,25,1,2,4,27,177,273.8921272625448,274.687596935255,"[14, 0, 240]",240,a,0.27210596337681636,colour,0.5
147,25,1,2,4,28,178,275.204641391756,276.4395907786675,"[85, 0, 169]",169,l,0.7116467236191966,colour,0.5
147,25,1,2,4,29,179,276.95461283798795,277.7195720789023,"[2, 0, 252]",252,a,0.24158686702139676,colour,0.5
147,25,1,2,4,30,180,278.2358308134135,279.1356191607774,"[39, 0, 215]",215,a,0.3764900164096616,colour,0.5
147,25,1,2,4,31,181,279.64208295493154,280.38360089890193,"[38, 0, 216]",216,a,0.2182763267774135,colour,0.5
147,25,1,2,4,32,182,280.8921040256391,281.72758565552067,"[23, 0, 231]",231,a,0.3121801481465809,colour,0.5
147,25,1,2,4,33,183,282.2358398718643,283.03158641798655,"[43, 0, 211]",211,a,0.27247263363096863,colour,0.5
147,25,1,2,4,34,184,283.54833037033677,284.3035990399658,"[77, 0, 177]",177,l,0.23221412912243977,colour,0.5
147,25,1,2,4,35,185,284.81393118575215,285.67164736957056,"[97, 0, 157]",157,a,0.334294579224661,colour,0.5
147,25,1,2,4,36,186,286.18909433629597,286.9835868779919,"[68, 0, 186]",186,a,0.27133087516995147,colour,0.5
147,25,1,2,4,37,187,287.50141036114655,288.14359098975547,"[37, 0, 217]",217,a,0.11937775544356555,colour,0.5
147,25,1,2,4,38,188,288.6576402503997,289.4235659884289,"[22, 0, 232]",232,a,0.24256005947245285,colour,0.5
147,25,1,2,4,39,189,289.93894487188663,290.65554538561264,"[5, 0, 249]",249,a,0.19326397974509746,colour,0.5
147,25,1,2,4,40,190,291.1733011272736,291.8555720883305,"[89, 0, 165]",165,l,0.1588489625719376,colour,0.5
147,25,1,2,4,41,191,292.3802347005112,293.0635903123766,"[86, 0, 168]",168,l,0.16380708501674235,colour,0.5
147,25,1,2,4,42,192,293.57962337334175,294.4635984255583,"[59, 0, 195]",195,a,0.36121983436169103,colour,0.5
147,25,1,2,4,43,193,294.9701689518988,295.9277710780152,"[78, 0, 176]",176,l,0.43423565983539447,colour,0.5
147,25,1,2,4,44,194,296.4389976472012,297.29553741414566,"[54, 0, 200]",200,a,0.3333698296919465,colour,0.5
147,25,1,2,4,45,195,297.8138784104376,298.60758404864464,"[48, 0, 206]",206,a,0.2704167595366016,colour,0.5
147,25,1,2,4,46,196,299.1263960842625,299.82361388008576,"[1, 0, 253]",253,a,0.17388126184232533,colour,0.5
147,25,1,2,4,47,197,300.3295384995872,300.99154649779666,"[12, 0, 242]",242,a,0.13869155035354197,colour,0.5
147,25,1,2,4,48,198,301.5013504966046,302.24756268644705,"[76, 0, 178]",178,l,0.22288550197845325,colour,0.5
147,25,1,2,4,49,199,302.7669473735732,303.62355448817834,"[0, 0, 254]",254,a,0.3333123282645829,colour,0.5
147,25,1,2,4,50,200,304.1420738964807,305.1035313772736,"[88, 0, 166]",166,l,0.4381768729072064,colour,0.5
147,25,1,2,5,1,201,311.7349533253582,313.0955654559657,"[66, 0, 188]",188,a,0.8365091730374843,colour,0.4
147,25,1,2,5,2,202,313.61073757044505,314.3595841935603,"[70, 0, 184]",184,l,0.2255431721569039,colour,0.4
147,25,1,2,5,3,203,314.87640652112896,315.87952420301735,"[65, 0, 189]",189,a,0.47979375097202137,colour,0.4
147,25,1,2,5,4,204,316.3919720873819,317.20755269849906,"[57, 0, 197]",197,a,0.2922298986813985,colour,0.4
147,25,1,2,5,5,205,317.72007698897505,318.5115507040755,"[77, 0, 177]",177,l,0.26805762434378266,colour,0.4
147,25,1,2,5,6,206,319.03250683518127,320.055556649575,"[62, 0, 192]",192,l,0.49973021575715393,colour,0.4
147,25,1,2,5,7,207,320.5637915674597,321.3594995167805,"[55, 0, 199]",199,a,0.27243876294232905,colour,0.4
147,25,1,2,5,8,208,321.8762789151515,322.6075332425535,"[86, 0, 168]",168,l,0.20795954106142744,colour,0.4
147,25,1,2,5,9,209,323.1263346443302,323.80752331763506,"[91, 0, 163]",163,l,0.15788955468451604,colour,0.4
147,25,1,2,5,10,210,324.31386462581577,325.6876997289364,"[81, 0, 173]",173,l,0.850552132120356,colour,0.4
147,25,1,2,5,11,211,326.20454962574877,327.4475255861762,"[64, 0, 190]",190,l,0.7197032294352539,colour,0.4
147,25,1,2,5,12,212,327.9544541181531,328.76756413577823,"[58, 0, 196]",196,a,0.289771908253897,colour,0.4
147,25,1,2,5,13,213,329.28256571514066,330.1195238721557,"[84, 0, 170]",170,l,0.3136842445237562,colour,0.4
147,25,1,2,5,14,214,330.6262554813293,331.40752386901295,"[98, 0, 156]",156,l,0.2579011337365955,colour,0.4
147,25,1,2,5,15,215,331.9231445736368,332.7595446514897,"[40, 0, 214]",214,a,0.3130202208412811,colour,0.4
147,25,1,2,5,16,216,333.26693555817474,333.8715255925199,"[46, 0, 208]",208,a,0.08138977090129629,colour,0.4
147,25,1,2,5,17,217,334.3918602352496,335.19149521912914,"[69, 0, 185]",185,a,0.2762314961873926,colour,0.4
147,25,1,2,5,18,218,335.7043755459599,336.5275120851584,"[19, 0, 235]",235,a,0.3000953894224949,colour,0.4
147,25,1,2,5,19,219,337.0481180875213,337.8314722815412,"[32, 0, 222]",222,a,0.2599861524067819,colour,0.4
147,25,1,2,5,20,220,338.34496306913206,339.11956128751626,"[61, 0, 193]",193,l,0.25123687216546386,colour,0.4
147,25,1,2,5,21,221,339.62624051520834,340.16750568908174,"[14, 0, 240]",240,a,0.017950301407836378,colour,0.4
147,25,1,2,5,22,222,340.6886910383473,341.2558251735172,"[18, 0, 236]",236,a,0.043784998124465346,colour,0.4
147,25,1,2,5,23,223,341.7668705736869,342.311490524502,"[21, 0, 233]",233,a,0.021809200756251812,colour,0.4
147,25,1,2,5,24,224,342.8292923460831,343.39153688796796,"[22, 0, 232]",232,a,0.038830026460345834,colour,0.4
147,25,1,2,5,25,225,343.90744706912665,344.54347779852105,"[45, 0, 209]",209,a,0.11099357006605715,colour,0.4
147,25,1,2,5,26,226,345.049719463801,345.79953652247787,"[29, 0, 225]",225,a,0.22674637049203739,colour,0.4
147,25,1,2,5,27,227,346.31537659914466,347.111493360193,"[87, 0, 167]",167,l,0.27289798692800105,colour,0.4
147,25,1,2,5,28,228,347.627852131438,348.7034704887774,"[52, 0, 202]",202,a,0.5522463772213086,colour,0.4
147,25,1,2,5,29,229,349.22159250685945,350.0315060734865,"[47, 0, 207]",207,a,0.2865734880324453,colour,0.4
147,25,1,2,5,30,230,350.5497891744599,351.3675323918578,"[12, 0, 242]",242,a,0.2946221169549972,colour,0.4
147,25,1,2,5,31,231,351.8777901007561,352.70348584873136,"[8, 0, 246]",246,a,0.3023210109677166,colour,0.4
147,25,1,2,5,32,232,353.2216133806505,354.03947317635175,"[78, 0, 176]",176,l,0.29447324329521507,colour,0.4
147,25,1,2,5,33,233,354.54979350673966,355.5755171389901,"[75, 0, 179]",179,l,0.5026442794478498,colour,0.4
147,25,1,2,5,34,234,356.09655518998625,357.34362438786775,"[92, 0, 162]",162,l,0.7236251440481283,colour,0.4
147,25,1,2,5,35,235,357.86211386392824,358.7114852469531,"[73, 0, 181]",181,l,0.3259804983390495,colour,0.4
147,25,1,2,5,36,236,359.22150901157875,360.23150087473914,"[93, 0, 161]",161,l,0.4865419015986845,colour,0.4
147,25,1,2,5,37,237,360.75277680851286,361.58350905415136,"[28, 0, 226]",226,a,0.30731457949150354,colour,0.4
147,25,1,2,5,38,238,362.09646499936935,363.0074539220659,"[99, 0, 155]",155,l,0.3874916997156106,colour,0.4
147,25,1,2,5,39,239,363.5183957408299,364.68748311389936,"[72, 0, 182]",182,l,0.6456460761837661,colour,0.4
147,25,1,2,5,40,240,365.2058461654815,366.14345078071347,"[54, 0, 200]",200,a,0.4141991582582705,colour,0.4
147,25,1,2,5,41,241,366.65907699917443,367.68747760006227,"[37, 0, 217]",217,a,0.5051282637286931,colour,0.4
147,25,1,2,5,42,242,368.2058894885122,369.06349066941766,"[36, 0, 218]",218,a,0.3342685853713192,colour,0.4
147,25,1,2,5,43,243,369.58085729164304,370.4475255861762,"[90, 0, 164]",164,l,0.34337272052653134,colour,0.4
147,25,1,2,5,44,244,370.9557825594093,371.56747756851837,"[15, 0, 239]",239,a,0.08815603848779574,colour,0.4
147,25,1,2,5,45,245,372.08084941469133,372.7515007487382,"[60, 0, 194]",194,a,0.14725217857630923,colour,0.4
147,25,1,2,5,46,246,373.2684191745939,374.543532543059,"[83, 0, 171]",171,l,0.7518040097784251,colour,0.4
147,25,1,2,5,47,247,375.0496257285122,375.8794722153689,"[26, 0, 228]",228,a,0.30705621669767424,colour,0.4
147,25,1,2,5,48,248,376.3879536805907,377.11979798873654,"[25, 0, 229]",229,a,0.2084620880195871,colour,0.4
147,25,1,2,5,49,249,377.637966874463,378.43143226683605,"[10, 0, 244]",244,a,0.2705995038850233,colour,0.4
147,25,1,2,5,50,250,378.95050502824597,380.2794539409224,"[56, 0, 198]",198,a,0.8057726738625206,colour,0.4
147,25,1,2,6,1,251,403.93398005410563,404.5594120042515,"[13, 0, 241]",241,a,0.10126322042196989,colour,0.28
147,25,1,2,6,2,252,405.07530485623283,405.61542197014205,"[91, 0, 163]",163,l,0.016723866167012602,colour,0.28
147,25,1,2,6,3,253,406.1222689760616,406.66340536245843,"[77, 0, 177]",177,l,0.017845144611783326,colour,0.28
147,25,1,2,6,4,254,407.18470453307964,407.99140077491757,"[67, 0, 187]",187,l,0.2833660093601793,colour,0.28
147,25,1,2,6,5,255,408.51282991463086,409.2473740343703,"[63, 0, 191]",191,a,0.21120916114887223,colour,0.28
147,25,1,2,6,6,256,409.7628383823321,410.32746923476225,"[7, 0, 247]",247,a,0.041331339976750314,colour,0.28
147,25,1,2,6,7,257,410.84094623773126,411.53541853581555,"[65, 0, 189]",189,a,0.17113458254607394,colour,0.28
147,25,1,2,6,8,258,412.04411740379874,412.7434241567389,"[75, 0, 179]",179,a,0.175984003522899,colour,0.28
147,25,1,2,6,9,259,413.2628628007369,413.9034077885444,"[99, 0, 155]",155,l,0.11723956762580201,colour,0.28
147,25,1,2,6,10,260,414.41903125005774,415.23942898691166,"[37, 0, 217]",217,a,0.29693044611485675,colour,0.28
147,25,1,2,6,11,261,415.7471905023558,416.47140877787024,"[61, 0, 193]",193,a,0.20094318146584556,colour,0.28
147,25,1,2,6,12,262,416.9815613300307,417.7194267498562,"[73, 0, 181]",181,a,0.2145426704082638,colour,0.28
147,25,1,2,6,13,263,418.23155443771975,418.8393803075887,"[15, 0, 239]",239,a,0.08448618510738015,colour,0.28
147,25,1,2,6,14,264,419.3565184993204,419.96737186034443,"[51, 0, 203]",203,a,0.08744593482697383,colour,0.28
147,25,1,2,6,15,265,420.4815573915839,421.06342056486756,"[81, 0, 173]",173,l,0.05923831829568371,colour,0.28
147,25,1,2,6,16,266,421.57524814241333,422.2474283850752,"[42, 0, 212]",212,a,0.148729887267109,colour,0.28
147,25,1,2,6,17,267,422.76275173627073,423.7594241347397,"[95, 0, 159]",159,l,0.4732783630024642,colour,0.28
147,25,1,2,6,18,268,424.27850871148985,425.17536015214864,"[79, 0, 175]",175,l,0.37368741107638925,colour,0.28
147,25,1,2,6,19,269,425.68463324703043,426.4793951791944,"[89, 0, 165]",165,l,0.271301336819306,colour,0.28
147,25,1,2,6,20,270,426.9971524962457,427.81540338060586,"[59, 0, 195]",195,a,0.294888750417158,colour,0.28
147,25,1,2,6,21,271,428.32528496702434,429.16740998462774,"[97, 0, 157]",157,l,0.31872192374430597,colour,0.28
147,25,1,2,6,22,272,429.68464585009497,431.97538661857834,"[12, 0, 242]",242,a,1.7673947822186165,colour,0.28
147,25,1,2,6,23,273,432.4814857117017,433.7353881309391,"[82, 0, 172]",172,l,0.731168469064869,colour,0.28
147,25,1,2,6,24,274,434.2470892840065,435.0954272161471,"[71, 0, 183]",183,l,0.3249533489579335,colour,0.28
147,25,1,2,6,25,275,435.60644937941106,436.91952434479026,"[56, 0, 198]",198,a,0.7896498161135241,colour,0.28
147,25,1,2,6,26,276,437.4346362008946,438.5913859663415,"[0, 0, 254]",254,a,0.6333880253368989,colour,0.28
147,25,1,2,6,27,277,439.1064544994151,439.8714932971634,"[92, 0, 162]",162,l,0.24157820240361616,colour,0.28
147,25,1,2,6,28,278,440.3877366716624,441.3033564310754,"[21, 0, 233]",233,a,0.3921493178931996,colour,0.28
147,25,1,2,6,29,279,441.8096331486013,442.5913607602124,"[10, 0, 244]",244,a,0.2583430284867063,colour,0.28
147,25,1,2,6,30,280,443.1064907332184,443.99941317003686,"[80, 0, 174]",174,l,0.3695776320528239,colour,0.28
147,25,1,2,6,31,281,444.5127149117179,445.58339759579394,"[87, 0, 167]",167,l,0.5473682054434903,colour,0.28
147,25,1,2,6,32,282,446.0907243057154,446.8555709067732,"[11, 0, 243]",243,a,0.2424403303884901,colour,0.28
147,25,1,2,6,33,283,447.3720017518499,448.5834294973174,"[57, 0, 197]",197,a,0.6889753948780708,colour,0.28
147,25,1,2,6,34,284,449.0907333641662,450.57536984072067,"[88, 0, 166]",166,l,0.9617505019414239,colour,0.28
147,25,1,2,6,35,285,451.09071130881784,452.19940678973217,"[14, 0, 240]",240,a,0.5853550084866583,colour,0.28
147,25,1,2,6,36,286,452.7156147181522,454.92740519548533,"[41, 0, 213]",213,a,1.6890045395120978,colour,0.28
147,25,1,2,6,37,287,455.43451410875423,456.2393817254342,"[84, 0, 170]",170,l,0.2823018385679461,colour,0.28
147,25,1,2,6,38,288,456.7469167796662,457.87936863396317,"[68, 0, 186]",186,l,0.6086328594828956,colour,0.28
147,25,1,2,6,39,289,458.38758346572286,459.95948982815025,"[76, 0, 178]",178,l,1.0490904923062772,colour,0.28
147,25,1,2,6,40,290,460.4656231858535,461.32745387480827,"[96, 0, 158]",158,l,0.3395465104258619,colour,0.28
147,25,1,2,6,41,291,461.8405362444464,463.28733439778443,"[74, 0, 180]",180,l,0.9242122891009785,colour,0.28
147,25,1,2,6,42,292,463.7938631764846,464.69531512772664,"[83, 0, 171]",171,l,0.37807839579181746,colour,0.28
147,25,1,2,6,43,293,465.2158518132637,466.0713400124223,"[50, 0, 204]",204,a,0.3324005756294355,colour,0.28
147,25,1,2,6,44,294,466.5907432102831,467.4873343189829,"[98, 0, 156]",156,l,0.3733727283542976,colour,0.28
147,25,1,2,6,45,295,467.99696069344645,469.6633112333366,"[85, 0, 169]",169,l,1.142985649057664,colour,0.28
147,25,1,2,6,46,296,470.18447964725783,471.15134974831017,"[70, 0, 184]",184,l,0.4434626748552546,colour,0.28
147,25,1,2,6,47,297,471.6688093181001,472.61533414258156,"[78, 0, 176]",176,l,0.4231630843714811,colour,0.28
147,25,1,2,6,48,298,473.121975167247,473.90336328401463,"[39, 0, 215]",215,a,0.2580653673503548,colour,0.28
147,25,1,2,6,49,299,474.4188429918722,475.255312780384,"[46, 0, 208]",208,a,0.31308678071945906,colour,0.28
147,25,1,2,6,50,300,475.76251818583114,476.7112808410893,"[72, 0, 182]",182,a,0.42538870591670275,colour,0.28
147,25,1,2,7,1,301,485.01177401456516,485.6953612076468,"[71, 0, 183]",183,l,0.15939404489472508,colour,0.14
147,25,1,2,7,2,302,486.2155946320272,486.91145523590967,"[94, 0, 160]",160,l,0.1725280083483085,colour,0.14
147,25,1,2,7,3,303,487.41880754579324,488.1113180988468,"[64, 0, 190]",190,a,0.16917835141066462,colour,0.14
147,25,1,2,7,4,304,488.62185504433,489.17530225683004,"[88, 0, 166]",166,l,0.030055933981202543,colour,0.14
147,25,1,2,7,5,305,489.6843969396432,490.2713080321555,"[61, 0, 193]",193,a,0.06354974623536691,colour,0.14
147,25,1,2,7,6,306,490.77818812115584,491.5754088314716,"[72, 0, 182]",182,a,0.2738896901719272,colour,0.14
147,25,1,2,7,7,307,492.09062663197983,492.85530545486836,"[55, 0, 199]",199,a,0.24134504579706118,colour,0.14
147,25,1,2,7,8,308,493.37187887198525,494.2713025183184,"[69, 0, 185]",185,a,0.37608474923763424,colour,0.14
147,25,1,2,7,9,309,494.77813495200826,495.5752678347053,"[84, 0, 170]",170,l,0.2737821702612564,colour,0.14
147,25,1,2,7,10,310,496.090661684284,496.8872766600107,"[83, 0, 171]",171,l,0.273331610893365,colour,0.14
147,25,1,2,7,11,311,497.4031470627524,497.94329568435205,"[51, 0, 203]",203,a,0.017094474926125258,colour,0.14
147,25,1,2,7,12,312,498.44998081971426,499.16728671093006,"[73, 0, 181]",181,a,0.19412571389693767,colour,0.14
147,25,1,2,7,13,313,499.684345739719,500.4232544565457,"[53, 0, 201]",201,a,0.21549498906824738,colour,0.14
147,25,1,2,7,14,314,500.9343467243598,501.77529099286767,"[79, 0, 175]",175,a,0.31757622689474374,colour,0.14
147,25,1,2,7,15,315,502.2937107582111,503.0073401006521,"[56, 0, 198]",198,a,0.1902179777971469,colour,0.14
147,25,1,2,7,16,316,503.52805244136835,504.3112325555994,"[92, 0, 162]",162,l,0.25976166035979986,colour,0.14
147,25,1,2,7,17,317,504.82497343514115,505.5192748042173,"[85, 0, 169]",169,l,0.17100737045984715,colour,0.14
147,25,1,2,7,18,318,506.02807055821177,506.8073011887027,"[54, 0, 200]",200,a,0.2558291119639762,colour,0.14
147,25,1,2,7,19,319,507.3248284999281,508.42330526263686,"[47, 0, 207]",207,a,0.5749838720075786,colour,0.14
147,25,1,2,7,20,320,508.9342447183444,509.75931385793956,"[97, 0, 157]",157,l,0.30164911033352837,colour,0.14
147,25,1,2,7,21,321,510.27806917979615,511.35929432319244,"[65, 0, 189]",189,a,0.5578311079880223,colour,0.14
147,25,1,2,7,22,322,511.87183318589814,512.5432859957218,"[89, 0, 165]",165,l,0.14819898339919746,colour,0.14
147,25,1,2,7,23,323,513.059304484399,513.8392452185508,"[95, 0, 159]",159,l,0.2568290859926492,colour,0.14
147,25,1,2,7,24,324,514.3561167768203,515.1592806173721,"[57, 0, 197]",197,a,0.27972372516524047,colour,0.14
147,25,1,2,7,25,325,515.6687478781678,516.5112411414157,"[6, 0, 248]",248,a,0.3192744891275652,colour,0.14
147,25,1,2,7,26,326,517.0280744967167,517.807282284135,"[66, 0, 188]",188,a,0.2558440780849196,colour,0.14
147,25,1,2,7,27,327,518.324878124462,519.3512519958313,"[81, 0, 173]",173,l,0.5029825927922502,colour,0.14
147,25,1,2,7,28,328,519.8718115243828,520.6632655472495,"[62, 0, 192]",192,a,0.26812379038892686,colour,0.14
147,25,1,2,7,29,329,521.1842390075908,522.0637155552395,"[80, 0, 174]",174,a,0.35609590297099203,colour,0.14
147,25,1,2,7,30,330,522.5748798967688,523.2472330376622,"[75, 0, 179]",179,l,0.14898549305507913,colour,0.14
147,25,1,2,7,31,331,523.7624386289972,524.5352109791711,"[44, 0, 210]",210,a,0.2494184869574383,colour,0.14
147,25,1,2,7,32,332,525.0436877182219,525.7272520682891,"[96, 0, 158]",158,l,0.16025814216118306,colour,0.14
147,25,1,2,7,33,333,526.2467218260863,526.8952591228299,"[91, 0, 163]",163,l,0.1250904860207811,colour,0.14
147,25,1,2,7,34,334,527.4030359982862,528.2392363963882,"[86, 0, 168]",168,l,0.3129426332307048,colour,0.14
147,25,1,2,7,35,335,528.7466883491725,529.4472719496116,"[14, 0, 240]",240,a,0.1771202481468208,colour,0.14
147,25,1,2,7,36,336,529.965516059834,530.8952299782541,"[50, 0, 204]",204,a,0.4065187749802135,colour,0.14
147,25,1,2,7,37,337,531.4030785335926,532.1112668989226,"[26, 0, 228]",228,a,0.18490460666362196,colour,0.14
147,25,1,2,7,38,338,532.6217053830042,533.167261110968,"[59, 0, 195]",195,a,0.02219280629651621,colour,0.14
147,25,1,2,7,39,339,533.6842193152988,534.2872898931964,"[98, 0, 156]",156,l,0.07960761949652806,colour,0.14
147,25,1,2,7,40,340,534.7935579461046,535.4152538768249,"[76, 0, 178]",178,a,0.09823572920868173,colour,0.14
147,25,1,2,7,41,341,535.9341202631476,537.1032694699825,"[13, 0, 241]",241,a,0.645719725289382,colour,0.14
147,25,1,2,7,42,342,537.6217274383525,538.351236241986,"[60, 0, 194]",194,a,0.20615454658400267,colour,0.14
147,25,1,2,7,43,343,538.8717189707095,539.6872176619363,"[93, 0, 161]",161,l,0.2921137142693624,colour,0.14
147,25,1,2,7,44,344,540.1997116262792,541.0311917847139,"[70, 0, 184]",184,a,0.3086264791782014,colour,0.14
147,25,1,2,7,45,345,541.5435345122823,542.2872209702618,"[43, 0, 211]",211,a,0.22050982527434826,colour,0.14
147,25,1,2,7,46,346,542.7935922106844,543.6392334819539,"[78, 0, 176]",176,a,0.3223299434175715,colour,0.14
147,25,1,2,7,47,347,544.1529546691454,544.9512182826293,"[74, 0, 180]",180,a,0.274962525581941,colour,0.14
147,25,1,2,7,48,348,545.4654116907623,546.4312227409682,"[77, 0, 177]",177,a,0.4425505284452811,colour,0.14
147,25,1,2,7,49,349,546.949828795332,547.7592654149048,"[58, 0, 196]",196,a,0.28635411598952487,colour,0.14
147,25,1,2,7,50,350,548.2779143984662,549.0231979003293,"[99, 0, 155]",155,l,0.22184574959101155,colour,0.14
147,25,1,2,8,1,351,554.7926639165962,555.8552058119094,"[83, 0, 171]",171,l,0.5383861624868587,colour,0.06
147,25,1,2,8,2,352,556.3716760415118,557.6071799630299,"[73, 0, 181]",181,a,0.7121784152113833,colour,0.06
147,25,1,2,8,3,353,558.1216010139324,558.9831497094128,"[86, 0, 168]",168,l,0.33806840784382075,colour,0.06
147,25,1,2,8,4,354,559.4966357707744,560.295223519206,"[61, 0, 193]",193,a,0.2752728759078309,colour,0.06
147,25,1,2,8,5,355,560.8091526569333,561.5992152232211,"[66, 0, 188]",188,a,0.26670909696258605,colour,0.06
147,25,1,2,8,6,356,562.1059098109254,562.6791776976315,"[51, 0, 203]",203,a,0.04977184522431344,colour,0.06
147,25,1,2,8,7,357,563.199700598605,563.8791539881495,"[95, 0, 159]",159,l,0.1563185045379214,colour,0.06
147,25,1,2,8,8,358,564.3872475154349,565.2231497723842,"[85, 0, 169]",169,l,0.31259683676762506,colour,0.06
147,25,1,2,8,9,359,565.7309557924164,566.5431749312556,"[82, 0, 172]",172,l,0.2888857556390576,colour,0.06
147,25,1,2,8,10,360,567.0590862939716,567.8791831327253,"[94, 0, 160]",160,l,0.2965046989847906,colour,0.06
147,25,1,2,8,11,361,568.3871750478284,569.2791731290054,"[81, 0, 173]",173,l,0.3685091289225966,colour,0.06
147,25,1,2,8,12,362,569.7934657862643,570.59915417718,"[22, 0, 232]",232,a,0.2823620969429612,colour,0.06
147,25,1,2,8,13,363,571.1059625862399,571.9191907575587,"[59, 0, 195]",195,a,0.2898164127836935,colour,0.06
147,25,1,2,8,14,364,572.4340808785637,573.2071939051966,"[50, 0, 204]",204,a,0.24978436954552308,colour,0.06
147,25,1,2,8,15,365,573.7154004661716,574.6791906945291,"[65, 0, 189]",189,a,0.4405403404380195,colour,0.06
147,25,1,2,8,16,366,575.1996651524678,576.1431746949675,"[64, 0, 190]",190,a,0.4203671743744053,colour,0.06
147,25,1,2,8,17,367,576.6528073709342,577.9191753976047,"[92, 0, 162]",162,l,0.7430503973155282,colour,0.06
147,25,1,2,8,18,368,578.4346901577082,579.4631537738605,"[23, 0, 231]",231,a,0.5062361513846554,colour,0.06
147,25,1,2,8,19,369,579.9809709554538,581.1191544450121,"[79, 0, 175]",175,a,0.6148036325466819,colour,0.06
147,25,1,2,8,20,370,581.6371736693545,583.079198413936,"[60, 0, 194]",194,a,0.9186854536528699,colour,0.06
147,25,1,2,8,21,371,583.5902528724982,584.9111425224692,"[56, 0, 198]",198,a,0.7975688697770238,colour,0.06
147,25,1,2,8,22,372,585.4183916448383,586.59117880353,"[58, 0, 196]",196,a,0.6494399909279309,colour,0.06
147,25,1,2,8,23,373,587.1058412818238,588.383210204076,"[63, 0, 191]",191,a,0.7539311699802056,colour,0.06
147,25,1,2,8,24,374,588.9027953586192,589.8872006477905,"[84, 0, 170]",170,l,0.4610573336831294,colour,0.06
147,25,1,2,8,25,375,590.4028201709152,591.6071594830719,"[87, 0, 167]",167,l,0.6810689442791045,colour,0.06
147,25,1,2,8,26,376,592.1215836846968,593.5271221779985,"[99, 0, 155]",155,l,0.8821948700933717,colour,0.06
147,25,1,2,8,27,377,594.043392334017,595.167305615556,"[76, 0, 178]",178,a,0.6006590612814762,colour,0.06
147,25,1,2,8,28,378,595.6839983679238,596.8791157851228,"[52, 0, 202]",202,a,0.6717355909640901,colour,0.06
147,25,1,2,8,29,379,597.387097460276,598.2552068359219,"[97, 0, 157]",157,l,0.3446629587560892,colour,0.06
147,25,1,2,8,30,380,598.7621385186794,599.5752331762924,"[55, 0, 199]",199,a,0.2897368560079485,colour,0.06
147,25,1,2,8,31,381,600.0902390879346,601.0711202466046,"[72, 0, 182]",182,a,0.45762615074636415,colour,0.06
147,25,1,2,8,32,382,601.590201672574,602.4472250819672,"[90, 0, 164]",164,l,0.33364315854851156,colour,0.06
147,25,1,2,8,33,383,602.9652647863259,603.9191230161232,"[96, 0, 158]",158,l,0.43065796635346487,colour,0.06
147,25,1,2,8,34,384,604.4339804479387,605.6391247805441,"[70, 0, 184]",184,a,0.6819736076286063,colour,0.06
147,25,1,2,8,35,385,606.1526959125767,607.1431231012102,"[77, 0, 177]",177,a,0.46703906083712354,colour,0.06
147,25,1,2,8,36,386,607.6526860664599,608.5591256784974,"[62, 0, 192]",192,a,0.3830562104121782,colour,0.06
147,25,1,2,8,37,387,609.0745203157421,609.8951326984097,"[40, 0, 214]",214,a,0.29718408262124285,colour,0.06
147,25,1,2,8,38,388,610.4027071372257,611.4551862771623,"[74, 0, 180]",180,l,0.5292477627517655,colour,0.06
147,25,1,2,8,39,389,611.965279752505,612.8471296138014,"[53, 0, 201]",201,a,0.3591954678995535,colour,0.06
147,25,1,2,8,40,390,613.3557331711636,614.167090182018,"[98, 0, 156]",156,l,0.2879980276338756,colour,0.06
147,25,1,2,8,41,391,614.683889666514,615.5511550310184,"[91, 0, 163]",163,l,0.3438098891056143,colour,0.06
147,25,1,2,8,42,392,616.0588763742126,616.6951670417329,"[57, 0, 197]",197,a,0.11287693976191804,colour,0.06
147,25,1,2,8,43,393,617.2150956296828,618.4711228459491,"[80, 0, 174]",174,a,0.732732429925818,colour,0.06
147,25,1,2,8,44,394,618.9807720634271,619.8151595902164,"[69, 0, 185]",185,a,0.31099467288004234,colour,0.06
147,25,1,2,8,45,395,620.32452681422,621.0551494132378,"[75, 0, 179]",179,a,0.20741327718133107,colour,0.06
147,25,1,2,8,46,396,621.5745337064727,622.3111317311414,"[88, 0, 166]",166,l,0.21324691834161058,colour,0.06
147,25,1,2,8,47,397,622.8244890050264,623.655141693831,"[78, 0, 176]",176,l,0.3073602655204013,colour,0.06
147,25,1,2,8,48,398,624.1682461188757,624.887093127938,"[71, 0, 183]",183,l,0.19550220435485244,colour,0.06
147,25,1,2,8,49,399,625.4026263988344,626.1511303763255,"[54, 0, 200]",200,a,0.2252280957181938,colour,0.06
147,25,1,2,8,50,400,626.668247694266,627.503115712665,"[67, 0, 187]",187,a,0.3115342413657345,colour,0.06
147,25,1,2,9,1,401,635.6361630615429,636.663077682897,"[8, 0, 246]",246,a,0.5027399839018472,colour,0.06
147,25,1,2,9,2,402,637.183949531056,637.8151442302042,"[66, 0, 188]",188,l,0.10783295903820544,colour,0.06
147,25,1,2,9,3,403,638.3245555649046,638.9830945709837,"[97, 0, 157]",157,l,0.13525130890775472,colour,0.06
147,25,1,2,9,4,404,639.4964037957252,640.0950983550865,"[86, 0, 168]",168,l,0.07536511460784823,colour,0.06
147,25,1,2,9,5,405,640.6058034726302,641.7031294184853,"[77, 0, 177]",177,l,0.5740536086959764,colour,0.06
147,25,1,2,9,6,406,642.2151401342126,642.8951165507315,"[91, 0, 163]",163,l,0.15674149472033605,colour,0.06
147,25,1,2,9,7,407,643.4026622388046,644.135091801465,"[73, 0, 181]",181,a,0.2092025177553296,colour,0.06
147,25,1,2,9,8,408,644.6526096604066,645.3110958911711,"[94, 0, 160]",160,l,0.1350402077077888,colour,0.06
147,25,1,2,9,9,409,645.8245370541699,646.943070404639,"[74, 0, 180]",180,a,0.5952334441244602,colour,0.06
147,25,1,2,9,10,410,647.4495046603843,648.9751172281685,"[67, 0, 187]",187,l,1.0023933997727,colour,0.06
147,25,1,2,9,11,411,649.4963592911954,650.4231729305466,"[98, 0, 156]",156,l,0.4035909267840907,colour,0.06
147,25,1,2,9,12,412,650.9338827742031,652.0230793528026,"[81, 0, 173]",173,a,0.5659581121290103,colour,0.06
147,25,1,2,9,13,413,652.543257244979,655.1190878850757,"[26, 0, 228]",228,a,2.0529025240102783,colour,0.06
147,25,1,2,9,14,414,655.6369594173739,656.1830779507291,"[96, 0, 158]",158,l,0.02267605491215363,colour,0.06
147,25,1,2,9,15,415,656.6993575590313,657.2390623165993,"[51, 0, 203]",203,a,0.016786881431471556,colour,0.06
147,25,1,2,9,16,416,657.7463500358281,658.3990443730145,"[95, 0, 159]",159,l,0.1294507507700473,colour,0.06
147,25,1,2,9,17,417,658.9181435220526,659.7350584821543,"[60, 0, 194]",194,a,0.2935973306884989,colour,0.06
147,25,1,2,9,18,418,660.2469171734992,661.1430801720126,"[59, 0, 195]",195,a,0.37343889445764944,colour,0.06
147,25,1,2,9,19,419,661.6525340420776,662.415063649416,"[83, 0, 171]",171,l,0.2392111902590841,colour,0.06
147,25,1,2,9,20,420,662.9337921897531,664.1270640463918,"[71, 0, 183]",183,a,0.6700499317375943,colour,0.06
147,25,1,2,9,21,421,664.6368960082182,665.3510763406521,"[99, 0, 155]",155,l,0.19079614314250648,colour,0.06
147,25,1,2,9,22,422,665.8712562021101,666.4630596447969,"[62, 0, 192]",192,a,0.06850038561969995,colour,0.06
147,25,1,2,9,23,423,666.9806519405101,667.9270196206053,"[63, 0, 191]",191,a,0.4230122414883226,colour,0.06
147,25,1,2,9,24,424,668.4339312172378,669.3830471520196,"[79, 0, 175]",175,a,0.426135043380782,colour,0.06
147,25,1,2,9,25,425,669.9024731928948,672.3110482358607,"[88, 0, 166]",166,l,1.8852314197574742,colour,0.06
147,25,1,2,9,26,426,672.8244488327764,673.6630662613898,"[69, 0, 185]",185,a,0.3152899530832656,colour,0.06
147,25,1,2,9,27,427,674.183709285222,674.9991796195973,"[56, 0, 198]",198,a,0.29218696954194456,colour,0.06
147,25,1,2,9,28,428,675.5118460882804,676.327096656838,"[90, 0, 164]",164,l,0.29196365911047906,colour,0.06
147,25,1,2,9,29,429,676.839948232926,677.5590291863191,"[50, 0, 204]",204,a,0.19570227793883532,colour,0.06
147,25,1,2,9,30,430,678.0743466298445,678.9510237228824,"[52, 0, 202]",202,a,0.35326848534168676,colour,0.06
147,25,1,2,9,31,431,679.4649252914242,680.8310544113629,"[68, 0, 186]",186,a,0.8428268505376764,colour,0.06
147,25,1,2,9,32,432,681.3398915191647,682.2310227461858,"[78, 0, 176]",176,l,0.3676576347788796,colour,0.06
147,25,1,2,9,33,433,682.7461779252626,684.0310460618348,"[65, 0, 189]",189,a,0.7614721318823285,colour,0.06
147,25,1,2,9,34,434,684.5430662299041,685.4150805847603,"[57, 0, 197]",197,a,0.34905788191827014,colour,0.06
147,25,1,2,9,35,435,685.9337193283136,686.8470374539611,"[84, 0, 170]",170,a,0.39005484693916515,colour,0.06
147,25,1,2,9,36,436,687.3555823283386,688.4309828889673,"[53, 0, 201]",201,a,0.5521211343002506,colour,0.06
147,25,1,2,9,37,437,688.949293165293,689.9670162177645,"[64, 0, 190]",190,a,0.4944266907405108,colour,0.06
147,25,1,2,9,38,438,690.4805310299271,691.078999128018,"[89, 0, 165]",165,l,0.0756589233642444,colour,0.06
147,25,1,2,9,39,439,691.58988108224,692.2550500853686,"[70, 0, 184]",184,a,0.14178560150321573,colour,0.06
147,25,1,2,9,40,440,692.7617178915534,693.6709979181178,"[82, 0, 172]",172,l,0.385882840375416,colour,0.06
147,25,1,2,9,41,441,694.1836565099075,694.9430144785438,"[92, 0, 162]",162,l,0.23597456701099873,colour,0.06
147,25,1,2,9,42,442,695.4492585068801,696.1831023691338,"[61, 0, 193]",193,a,0.2104226514347829,colour,0.06
147,25,1,2,9,43,443,696.6992118361522,697.2239543989999,"[32, 0, 222]",222,l,0.001671086938586086,colour,0.06
147,25,1,2,9,44,444,697.7461818637094,698.4629659095081,"[76, 0, 178]",178,a,0.19346405332908034,colour,0.06
147,25,1,2,9,45,445,698.9804538362077,699.6630237260833,"[87, 0, 167]",167,l,0.15908526995917782,colour,0.06
147,25,1,2,9,46,446,700.1837151928921,701.2550563868717,"[85, 0, 169]",169,l,0.548187404347118,colour,0.06
147,25,1,2,9,47,447,701.7617332515074,702.6150517552742,"[55, 0, 199]",199,a,0.3299918159027584,colour,0.06
147,25,1,2,9,48,448,703.1211469099508,704.2229993233923,"[80, 0, 174]",174,l,0.5784733441541903,colour,0.06
147,25,1,2,9,49,449,704.7305213807267,705.5270107196993,"[93, 0, 161]",161,l,0.2732091249199584,colour,0.06
147,25,1,2,9,50,450,706.0430150299217,707.1030048056855,"[72, 0, 182]",182,a,0.5367115308763459,colour,0.06
147,25,1,2,10,1,451,714.3547418617527,715.2550469345879,"[62, 0, 192]",192,a,0.37628876126836985,colour,0.06
147,25,1,2,10,2,452,715.7618250175728,716.519053462951,"[68, 0, 186]",186,a,0.23388245911337435,colour,0.06
147,25,1,2,10,3,453,717.0274329222157,717.81501268578,"[61, 0, 193]",193,a,0.2642073896713555,colour,0.06
147,25,1,2,10,4,454,718.3243361929199,719.303018511564,"[64, 0, 190]",190,a,0.4553579938947223,colour,0.06
147,25,1,2,10,5,455,719.8242483653594,720.6310064409627,"[98, 0, 156]",156,l,0.28336404013680294,colour,0.06
147,25,1,2,10,6,456,721.1524674821412,722.2789738431456,"[75, 0, 179]",179,l,0.6031418639468029,colour,0.06
147,25,1,2,10,7,457,722.7930589437601,723.6630083660712,"[94, 0, 160]",160,l,0.3465794114745222,colour,0.06
147,25,1,2,10,8,458,724.1836825037608,725.0070226610987,"[92, 0, 162]",162,l,0.29837073950329795,colour,0.06
147,25,1,2,10,9,459,725.5274171683704,726.3909665995161,"[95, 0, 159]",159,l,0.3401585464598611,colour,0.06
147,25,1,2,10,10,460,726.9023566145916,727.6949590912554,"[59, 0, 195]",195,a,0.26958495762664825,colour,0.06
147,25,1,2,10,11,461,728.2148853160907,728.9670366977807,"[89, 0, 165]",165,l,0.2287864907993935,colour,0.06
147,25,1,2,10,12,462,729.4805172453052,730.4870062455884,"[10, 0, 244]",244,a,0.4835927856620401,colour,0.06
147,25,1,2,10,13,463,730.9961639437824,731.8709474271163,"[80, 0, 174]",174,a,0.35141189710702747,colour,0.06
147,25,1,2,10,14,464,732.3867378791911,733.2549701347016,"[96, 0, 158]",158,l,0.34481222624890506,colour,0.06
147,25,1,2,10,15,465,733.7617525499663,734.8069723276421,"[77, 0, 177]",177,a,0.5218592191231437,colour,0.06
147,25,1,2,10,16,466,735.3241298178327,736.3110060943873,"[73, 0, 181]",181,a,0.4634034719783813,colour,0.06
147,25,1,2,10,17,467,736.8242853868287,737.9031982626766,"[97, 0, 157]",157,l,0.5556137571693398,colour,0.06
147,25,1,2,10,18,468,738.4179072147235,739.2789462739602,"[66, 0, 188]",188,a,0.3376308453734964,colour,0.06
147,25,1,2,10,19,469,739.7930148330051,740.5989753712784,"[91, 0, 163]",163,l,0.2826492103631608,colour,0.06
147,25,1,2,10,20,470,741.1054080516333,742.0469779045088,"[79, 0, 175]",175,a,0.4181651836261153,colour,0.06
147,25,1,2,10,21,471,742.558682996023,743.4709097754676,"[6, 0, 248]",248,a,0.38896704535000026,colour,0.06
147,25,1,2,10,22,472,743.9804416269762,744.7829087546561,"[82, 0, 172]",172,l,0.2790085015585646,colour,0.06
147,25,1,2,10,23,473,745.2929703284753,746.4869865533547,"[55, 0, 199]",199,a,0.6708100538235158,colour,0.06
147,25,1,2,10,24,474,746.9961048669065,748.5751445610658,"[69, 0, 185]",185,a,1.0562876270269044,colour,0.06
147,25,1,2,10,25,475,749.0897893162328,750.4069394021644,"[72, 0, 182]",182,a,0.7937336012837477,colour,0.06
147,25,1,2,10,26,476,750.917950143863,752.3909539964516,"[60, 0, 194]",194,a,0.9496834662277251,colour,0.06
147,25,1,2,10,27,477,752.9023503130884,753.8869332266622,"[81, 0, 173]",173,l,0.46113885974045843,colour,0.06
147,25,1,2,10,28,478,754.4023345592432,755.3749256616575,"[88, 0, 166]",166,l,0.44929631607374176,colour,0.06
147,25,1,2,10,29,479,755.8873400691664,756.6949189190054,"[51, 0, 203]",203,a,0.284897674981039,colour,0.06
147,25,1,2,10,30,480,757.2147518024431,758.3749079385889,"[58, 0, 196]",196,a,0.636768008407671,colour,0.06
147,25,1,2,10,31,481,758.8866311470629,759.6629213261767,"[99, 0, 155]",155,l,0.2528295837691985,colour,0.06
147,25,1,2,10,32,482,760.1835419008275,761.2948867811938,"[78, 0, 176]",176,l,0.5881406784756109,colour,0.06
147,25,1,2,10,33,483,761.8085114762653,762.9269128884771,"[83, 0, 171]",171,l,0.5954134315834381,colour,0.06
147,25,1,2,10,34,484,763.4335149224498,764.3830203705002,"[67, 0, 187]",187,a,0.4263670184300281,colour,0.06
147,25,1,2,10,35,485,764.9022739070351,765.9989244076423,"[53, 0, 201]",201,a,0.5732804897706956,colour,0.06
147,25,1,2,10,36,486,766.5117153315805,767.5349431641516,"[76, 0, 178]",178,l,0.4999594339169562,colour,0.06
147,25,1,2,10,37,487,768.042901208566,769.0631937098224,"[90, 0, 164]",164,l,0.49696305650286376,colour,0.06
147,25,1,2,10,38,488,769.5741319839726,770.61492021085,"[65, 0, 189]",189,a,0.5175210097222589,colour,0.06
147,25,1,2,10,39,489,771.1209330517449,772.1668708099751,"[57, 0, 197]",197,a,0.522472042881418,colour,0.06
147,25,1,2,10,40,490,772.6834450148162,773.942905383301,"[71, 0, 183]",183,a,0.7363050034618936,colour,0.06
147,25,1,2,10,41,491,774.4490470117889,775.174881235871,"[87, 0, 167]",167,l,0.20254022540757433,colour,0.06
147,25,1,2,10,42,492,775.6834741593921,776.4789099614136,"[56, 0, 198]",198,a,0.2728038578061387,colour,0.06
147,25,1,2,10,43,493,776.9959528425243,777.9028985461919,"[52, 0, 202]",202,a,0.38358908356167376,colour,0.06
147,25,1,2,10,44,494,778.4177729133517,779.1908760938095,"[50, 0, 204]",204,a,0.24970756960101426,colour,0.06
147,25,1,2,10,45,495,779.699055085599,780.4629013188533,"[35, 0, 219]",219,a,0.2406306098564528,colour,0.06
147,25,1,2,10,46,496,780.980310082552,781.7828622808447,"[93, 0, 161]",161,l,0.2790845137205906,colour,0.06
147,25,1,2,10,47,497,782.2929612700245,783.0868654064252,"[86, 0, 168]",168,l,0.2705947777722031,colour,0.06
147,25,1,2,10,48,498,783.6053544886527,784.398861628666,"[54, 0, 200]",200,a,0.27013594761956483,colour,0.06
147,25,1,2,10,49,499,784.9178764947574,785.6549144449527,"[85, 0, 169]",169,l,0.2136561239603907,colour,0.06
147,25,1,2,10,50,500,786.1679109562538,786.9589541981113,"[63, 0, 191]",191,a,0.2677728739217855,colour,0.06
147,25,1,2,11,1,501,792.65149862197,793.2068697702489,"[52, 0, 202]",202,a,0.03129457839531824,colour,0.06
147,25,1,2,11,2,502,793.7147632239503,794.4629052573,"[53, 0, 201]",201,a,0.22493664996000007,colour,0.06
147,25,1,2,11,3,503,794.9802769995295,795.7268842164776,"[62, 0, 192]",192,a,0.22314662160351872,colour,0.06
147,25,1,2,11,4,504,796.2460156608722,797.0469050430693,"[78, 0, 176]",176,l,0.2775548174395226,colour,0.06
147,25,1,2,11,5,505,797.5584041533293,798.3348798337975,"[6, 0, 248]",248,a,0.2530229620169848,colour,0.06
147,25,1,2,11,6,506,798.8553956454853,799.6548723034211,"[90, 0, 164]",164,l,0.2762011699960567,colour,0.06
147,25,1,2,11,7,507,800.167781774886,801.0068903289502,"[76, 0, 178]",178,l,0.315675527905114,colour,0.06
147,25,1,2,11,8,508,801.5272820793325,802.5749027398415,"[65, 0, 189]",189,l,0.5247228705557063,colour,0.06
147,25,1,2,11,9,509,803.0896581656416,803.9829035559087,"[95, 0, 159]",159,l,0.3698371763457544,colour,0.06
147,25,1,2,11,10,510,804.4960465777549,805.2949994210503,"[64, 0, 190]",190,a,0.2757175276055932,colour,0.06
147,25,1,2,11,11,511,805.8085189593257,806.6868695024168,"[99, 0, 155]",155,l,0.3550679659238085,colour,0.06
147,25,1,2,11,12,512,807.1990917132352,808.0948644107557,"[80, 0, 174]",174,l,0.3725562863983214,colour,0.06
147,25,1,2,11,13,513,808.605416716251,809.4868743073312,"[56, 0, 198]",198,a,0.3584188044187613,colour,0.06
147,25,1,2,11,14,514,809.9960442146985,810.7988492618897,"[97, 0, 157]",157,l,0.27967567602172494,colour,0.06
147,25,1,2,11,15,515,811.3085051747621,812.0788620697567,"[96, 0, 158]",158,l,0.24710070551373065,colour,0.06
147,25,1,2,11,16,516,812.5895947564859,813.438846410485,"[86, 0, 168]",168,l,0.32582414167700335,colour,0.06
147,25,1,2,11,17,517,813.9490489810123,814.7668831767514,"[89, 0, 165]",165,l,0.2946737107122317,colour,0.06
147,25,1,2,11,18,518,815.2771889348514,816.1028921658872,"[98, 0, 156]",156,l,0.30308822222286835,colour,0.06
147,25,1,2,11,19,519,816.6210256054765,817.398861628666,"[77, 0, 177]",177,l,0.25456762447720394,colour,0.06
147,25,1,2,11,20,520,817.9177024149685,818.7188316491083,"[11, 0, 243]",243,a,0.27775646635564044,colour,0.06
147,25,1,2,11,21,521,819.2303098856355,819.9908706587739,"[83, 0, 171]",171,l,0.23726795602124184,colour,0.06
147,25,1,2,11,22,522,820.5115097441594,821.4708420340321,"[74, 0, 180]",180,l,0.4359922112780623,colour,0.06
147,25,1,2,11,23,523,821.98021004576,822.7588707816321,"[85, 0, 169]",169,l,0.2552548850653693,colour,0.06
147,25,1,2,11,24,524,823.2771428549313,824.0628526395303,"[57, 0, 197]",197,a,0.2623799460125156,colour,0.06
147,25,1,2,11,25,525,824.5739614487975,825.4148493973771,"[63, 0, 191]",191,a,0.31750454695429653,colour,0.06
147,25,1,2,11,26,526,825.9333904671948,826.8068143955315,"[73, 0, 181]",181,a,0.35021421260898933,colour,0.06
147,25,1,2,11,27,527,827.3240356887109,828.1188066793256,"[94, 0, 160]",160,l,0.2714691150467843,colour,0.06
147,25,1,2,11,28,528,828.6365108272294,829.4548550529871,"[54, 0, 200]",200,a,0.294948221067898,colour,0.06
147,25,1,2,11,29,529,829.9646495995112,830.7428259052685,"[72, 0, 182]",182,l,0.25488703325390816,colour,0.06
147,25,1,2,11,30,530,831.2615071841283,832.3108410730492,"[61, 0, 193]",193,a,0.5259949918254279,colour,0.06
147,25,1,2,11,31,531,832.8239557380439,834.4468146948493,"[71, 0, 183]",183,a,1.0995814996422268,colour,0.06
147,25,1,2,11,32,532,834.9646039134241,835.6388538147439,"[59, 0, 195]",195,a,0.1509669303195551,colour,0.06
147,25,1,2,11,33,533,836.1521216856781,837.6308611119166,"[79, 0, 175]",175,a,0.9554985967115499,colour,0.06
147,25,1,2,11,34,534,838.1520704857539,838.9428069218993,"[88, 0, 166]",166,l,0.2673825729289092,colour,0.06
147,25,1,2,11,35,535,839.4489564272808,840.5348072873894,"[82, 0, 172]",172,l,0.5623654524679296,colour,0.06
147,25,1,2,11,36,536,841.0427436703467,841.9428486695397,"[69, 0, 185]",185,l,0.37680076056858525,colour,0.06
147,25,1,2,11,37,537,842.4501115764724,843.6468311576173,"[87, 0, 167]",167,l,0.6735898160841316,colour,0.06
147,25,1,2,11,38,538,844.1532469026279,845.0149570747744,"[93, 0, 161]",161,l,0.3384055396891199,colour,0.06
147,25,1,2,11,39,539,845.5281694135047,846.4148017420666,"[75, 0, 179]",179,l,0.3632158439140767,colour,0.06
147,25,1,2,11,40,540,846.9343888658332,847.9108294152538,"[67, 0, 187]",187,a,0.45298586174612865,colour,0.06
147,25,1,2,11,41,541,848.4187850965536,849.0548682074295,"[81, 0, 173]",173,l,0.11271703842794523,colour,0.06
147,25,1,2,11,42,542,849.574950788985,850.7027761389618,"[55, 0, 199]",199,a,0.60441871144576,colour,0.06
147,25,1,2,11,43,543,851.2156627673539,852.0227910578251,"[50, 0, 204]",204,a,0.2838815532741137,colour,0.06
147,25,1,2,11,44,544,852.5437629427761,853.8068132139742,"[51, 0, 203]",203,a,0.7404718900215812,colour,0.06
147,25,1,2,11,45,545,854.3250340873492,855.2708247835981,"[92, 0, 162]",162,l,0.4223872084985487,colour,0.06
147,25,1,2,11,46,546,855.7781597642461,856.7508099435363,"[70, 0, 184]",184,l,0.4493676021229476,colour,0.06
147,25,1,2,11,47,547,857.2625343335094,857.9508019878413,"[60, 0, 194]",194,a,0.16493427113164216,colour,0.06
147,25,1,2,11,48,548,858.4656460289261,859.3267733095563,"[2, 0, 252]",252,a,0.33786597120342776,colour,0.06
147,25,1,2,11,49,549,859.8406173766125,860.798770098947,"[58, 0, 196]",196,a,0.4348280036938377,colour,0.06
147,25,1,2,11,50,550,861.3093294936116,862.8227659304976,"[66, 0, 188]",188,a,0.9901136874686927,colour,0.06
147,25,1,2,12,1,551,867.9023546453682,868.8627420476987,"[77, 0, 177]",177,a,0.4362505740718916,colour,0.06
147,25,1,2,12,2,552,869.3717398445006,870.7348009071429,"[93, 0, 161]",161,l,0.8396386703243479,colour,0.06
147,25,1,2,12,3,553,871.2468600659049,872.1347716050223,"[58, 0, 196]",196,a,0.36463762662606314,colour,0.06
147,25,1,2,12,4,554,872.6531094504753,873.5347592382459,"[83, 0, 171]",171,l,0.3582305461750366,colour,0.06
147,25,1,2,12,5,555,874.0436085552792,874.8227631735499,"[63, 0, 191]",191,a,0.25570268754381686,colour,0.06
147,25,1,2,12,6,556,875.3406043797149,876.1587926426437,"[94, 0, 160]",160,l,0.2949722456978634,colour,0.06
147,25,1,2,12,7,557,876.6686466598185,877.7187516984413,"[66, 0, 188]",188,a,0.5266542893950827,colour,0.06
147,25,1,2,12,8,558,878.2311877674656,879.4067302701296,"[70, 0, 184]",184,a,0.652197697898373,colour,0.06
147,25,1,2,12,9,559,879.9186830905383,880.9587836629944,"[79, 0, 175]",175,a,0.517101957986597,colour,0.06
147,25,1,2,12,10,560,881.4656066443422,882.3028042595251,"[95, 0, 159]",159,l,0.3139540287666023,colour,0.06
147,25,1,2,12,11,561,882.8092723860173,883.9587832691614,"[84, 0, 170]",170,l,0.6261164538445882,colour,0.06
147,25,1,2,12,12,562,884.4655928597203,885.2867353585898,"[59, 0, 195]",195,a,0.2979217554675415,colour,0.06
147,25,1,2,12,13,563,885.7936619213433,886.7587569602183,"[64, 0, 190]",190,a,0.4417360556544736,colour,0.06
147,25,1,2,12,14,564,887.2779214876937,888.6067420067266,"[72, 0, 182]",182,a,0.8053701636963524,colour,0.06
147,25,1,2,12,15,565,889.1217628844897,889.9987148817745,"[92, 0, 162]",162,l,0.35359419567976147,colour,0.06
147,25,1,2,12,16,566,890.5123541491339,891.374722831184,"[60, 0, 194]",194,a,0.3389939450426027,colour,0.06
147,25,1,2,12,17,567,891.8873810290825,892.8067561063799,"[91, 0, 163]",163,a,0.39603736175922677,colour,0.06
147,25,1,2,12,18,568,893.3248690660112,894.2387133694137,"[51, 0, 203]",203,a,0.39053533860715106,colour,0.06
147,25,1,2,12,19,569,894.7467962629162,895.7027253328706,"[54, 0, 200]",200,a,0.4326177421025932,colour,0.06
147,25,1,2,12,20,570,896.2154563922668,897.0707598778536,"[98, 0, 156]",156,l,0.3320161823066883,colour,0.06
147,25,1,2,12,21,571,897.590421044617,898.5747680446366,"[50, 0, 204]",204,a,0.46102740144124255,colour,0.06
147,25,1,2,12,22,572,899.0904403430177,899.9828078513965,"[82, 0, 172]",172,l,0.3690845373785123,colour,0.06
147,25,1,2,12,23,573,900.4967389583471,901.4067346024094,"[52, 0, 202]",202,a,0.38668667926685885,colour,0.06
147,25,1,2,12,24,574,901.9186098352657,902.959037693392,"[74, 0, 180]",180,a,0.5262943145353347,colour,0.06
147,25,1,2,12,25,575,903.4719215648947,904.6307165705948,"[68, 0, 186]",186,a,0.6354620163328946,colour,0.06
147,25,1,2,12,26,576,905.1437229280709,906.4787091001053,"[71, 0, 183]",183,a,0.8116086781374179,colour,0.06
147,25,1,2,12,27,577,906.9875009157113,907.9427131866687,"[99, 0, 155]",155,l,0.43224752723472193,colour,0.06
147,25,1,2,12,28,578,908.4560881836223,909.3587689331616,"[55, 0, 199]",199,a,0.37919809884624556,colour,0.06
147,25,1,2,12,29,579,909.8780878480757,910.8949727970758,"[65, 0, 189]",189,a,0.49351099971681833,colour,0.06
147,25,1,2,12,30,580,911.40933752805,912.430690655543,"[78, 0, 176]",176,l,0.49790828593540937,colour,0.06
147,25,1,2,12,31,581,912.9406088695978,913.8706937905517,"[21, 0, 233]",233,a,0.40679840539814904,colour,0.06
147,25,1,2,12,32,582,914.3781197495409,915.3587279731873,"[69, 0, 185]",185,l,0.45728941267589107,colour,0.06
147,25,1,2,12,33,583,915.8780563403852,916.9187149920617,"[19, 0, 235]",235,a,0.5171062902663834,colour,0.06
147,25,1,2,12,34,584,917.4249468111666,918.454773526988,"[39, 0, 215]",215,a,0.506474427995272,colour,0.06
147,25,1,2,12,35,585,918.9718589434051,919.998707004881,"[61, 0, 193]",193,l,0.5035083767143078,colour,0.06
147,25,1,2,12,36,586,920.5186741896323,921.7027312405407,"[97, 0, 157]",157,l,0.6606421416508965,colour,0.06
147,25,1,2,12,37,587,922.2218579588225,923.0867122004856,"[53, 0, 201]",201,a,0.3416618551709689,colour,0.06
147,25,1,2,12,38,588,923.5968470295775,924.5587160790456,"[90, 0, 164]",164,l,0.4388393211993389,colour,0.06
147,25,1,2,12,39,589,925.0654973128112,926.1106942474144,"[96, 0, 158]",158,l,0.5218781236908399,colour,0.06
147,25,1,2,12,40,590,926.6280096697155,927.9186791520915,"[81, 0, 173]",173,l,0.7672671761829406,colour,0.06
147,25,1,2,12,41,591,928.4248987620231,929.5188277894631,"[88, 0, 166]",166,l,0.5705397181445733,colour,0.06
147,25,1,2,12,42,592,930.0342941065901,931.2226854284527,"[67, 0, 187]",187,l,0.6650555755477399,colour,0.06
147,25,1,2,12,43,593,931.737376657431,932.8066820634413,"[89, 0, 165]",165,l,0.5459613889688626,colour,0.06
147,25,1,2,12,44,594,933.3154908143333,934.2867991615785,"[73, 0, 181]",181,a,0.4480848469538614,colour,0.06
147,25,1,2,12,45,595,934.7997539252974,935.7267451889929,"[87, 0, 167]",167,l,0.4039138801745139,colour,0.06
147,25,1,2,12,46,596,936.237352238968,937.2226952745696,"[62, 0, 192]",192,a,0.46196436014724895,colour,0.06
147,25,1,2,12,47,597,937.7373002513777,938.6307291736593,"[76, 0, 178]",178,l,0.3703735940507613,colour,0.06
147,25,1,2,12,48,598,939.1436276173918,940.2146742148325,"[80, 0, 174]",174,l,0.5477285741944797,colour,0.06
147,25,1,2,12,49,599,940.721744925133,941.854678058764,"[86, 0, 168]",168,l,0.6096324396203272,colour,0.06
147,25,1,2,12,50,600,942.3623340236372,943.4066633163602,"[75, 0, 179]",179,l,0.5209143834654242,colour,0.06
147,25,1,2,13,1,601,948.4551957294461,949.3506446859101,"[95, 0, 159]",159,l,0.37129401130368933,colour,0.06
147,25,1,2,13,2,602,949.8622800667654,950.8226820413838,"[81, 0, 173]",173,l,0.4369602838414721,colour,0.06
147,25,1,2,13,3,603,951.3310150267789,952.230673405109,"[53, 0, 201]",201,a,0.3762907305499539,colour,0.06
147,25,1,2,13,4,604,952.7372750452487,953.7106203619624,"[55, 0, 199]",199,a,0.44996624742634594,colour,0.06
147,25,1,2,13,5,605,954.2216665498563,955.2386641387129,"[98, 0, 156]",156,l,0.49360867345239967,colour,0.06
147,25,1,2,13,6,606,955.7528599099023,956.7746238183463,"[82, 0, 172]",172,l,0.4983297007274814,colour,0.06
147,25,1,2,13,7,607,957.284136371396,958.4306559971301,"[69, 0, 185]",185,a,0.6236769741517492,colour,0.06
147,25,1,2,13,8,608,958.9403902852791,960.1106836135732,"[97, 0, 157]",157,l,0.6469682158785872,colour,0.06
147,25,1,2,13,9,609,960.6278706422308,961.790638762468,"[62, 0, 192]",192,a,0.6394134693546221,colour,0.06
147,25,1,2,13,10,610,962.2998015806079,963.2626426410279,"[63, 0, 191]",191,a,0.43976249534171075,colour,0.06
147,25,1,2,13,11,611,963.7684719499084,964.7186445724801,"[64, 0, 190]",190,a,0.4267797686625272,colour,0.06
147,25,1,2,13,12,612,965.2373530266923,966.2546456059208,"[67, 0, 187]",187,a,0.49399739905493334,colour,0.06
147,25,1,2,13,13,613,966.7684849468642,968.0549993580207,"[74, 0, 180]",180,a,0.7631711818394251,colour,0.06
147,25,1,2,13,14,614,968.5653630114393,969.6306535552721,"[91, 0, 163]",163,l,0.5419225021614693,colour,0.06
147,25,1,2,13,15,615,970.1435504236724,971.2867298447527,"[93, 0, 161]",161,l,0.6200075145461597,colour,0.06
147,25,1,2,13,16,616,971.799707451486,972.9186149552697,"[65, 0, 189]",189,a,0.5960699722054414,colour,0.06
147,25,1,2,13,17,617,973.4247242884012,974.3506935227197,"[88, 0, 166]",166,l,0.4025492050568573,colour,0.06
147,25,1,2,13,18,618,974.8621666392428,975.8946120344917,"[77, 0, 177]",177,l,0.509034818271175,colour,0.06
147,25,1,2,13,19,619,976.4090200884966,977.4466280120541,"[94, 0, 160]",160,l,0.5142343681072816,colour,0.06
147,25,1,2,13,20,620,977.9558672362473,978.9586399093387,"[78, 0, 176]",176,a,0.47919156099669635,colour,0.06
147,25,1,2,13,21,621,979.4715604084195,980.5507347977837,"[92, 0, 162]",162,l,0.5557618431630544,colour,0.06
147,25,1,2,13,22,622,981.065346076095,982.1666313518654,"[73, 0, 181]",181,a,0.5780503539717756,colour,0.06
147,25,1,2,13,23,623,982.6746563500492,983.7985763269244,"[89, 0, 165]",165,l,0.6005779290571809,colour,0.06
147,25,1,2,13,24,624,984.3152627777308,985.7027056405786,"[59, 0, 195]",195,a,0.8642193625564687,colour,0.06
147,25,1,2,13,25,625,986.2215680884547,987.4706013943651,"[35, 0, 219]",219,a,0.7264127832604572,colour,0.06
147,25,1,2,13,26,626,987.9871523623588,989.0146163983154,"[99, 0, 155]",155,l,0.504060942097567,colour,0.06
147,25,1,2,13,27,627,989.5339849377633,990.8706059629912,"[57, 0, 197]",197,a,0.8137779797543772,colour,0.06
147,25,1,2,13,28,628,991.3777747408021,992.7106199681293,"[42, 0, 212]",212,l,0.8094606442027725,colour,0.06
147,25,1,2,13,29,629,993.2215613930603,994.9266482241801,"[87, 0, 167]",167,a,1.1817463586921804,colour,0.06
147,25,1,2,13,30,630,995.440224476275,996.5346229676506,"[72, 0, 182]",182,a,0.5710647143423557,colour,0.06
147,25,1,2,13,31,631,997.0495150579372,998.174726060708,"[71, 0, 183]",183,a,0.6020379147375934,colour,0.06
147,25,1,2,13,32,632,998.690272328502,999.7905978024937,"[76, 0, 178]",178,a,0.5770681029534899,colour,0.06
147,25,1,2,13,33,633,1000.2995999316336,1001.3905979600386,"[70, 0, 184]",184,a,0.5678564480040222,colour,0.06
147,25,1,2,13,34,634,1001.9089385624393,1002.8626353155123,"[36, 0, 218]",218,a,0.4303755790460855,colour,0.06
147,25,1,2,13,35,635,1003.377764500794,1004.3746105851606,"[80, 0, 174]",174,l,0.4735473595210351,colour,0.06
147,25,1,2,13,36,636,1004.8933292793809,1005.8706173844985,"[68, 0, 186]",186,a,0.4538286913302727,colour,0.06
147,25,1,2,13,37,637,1006.3776987285819,1007.4145815823576,"[60, 0, 194]",194,a,0.5134836983052082,colour,0.06
147,25,1,2,13,38,638,1007.9245856547495,1008.950866184663,"[52, 0, 202]",202,a,0.5028916144510731,colour,0.06
147,25,1,2,13,39,639,1009.4714686424122,1010.5985661656596,"[61, 0, 193]",193,a,0.6037314508575946,colour,0.06
147,25,1,2,13,40,640,1011.1120616793633,1012.1425792003865,"[75, 0, 179]",179,a,0.5071187593857758,colour,0.06
147,25,1,2,13,41,641,1012.6589513624203,1013.6385856058914,"[90, 0, 164]",164,l,0.45685736410086975,colour,0.06
147,25,1,2,13,42,642,1014.1589198547881,1015.0226512426161,"[54, 0, 200]",200,a,0.3403086016769521,colour,0.06
147,25,1,2,13,43,643,1015.5339195593842,1016.2706877253368,"[51, 0, 203]",203,a,0.2140613910742104,colour,0.06
147,25,1,2,13,44,644,1016.7839122732403,1017.630582663056,"[56, 0, 198]",198,a,0.3232578436145559,colour,0.06
147,25,1,2,13,45,645,1018.1432447994594,1018.9905347084277,"[86, 0, 168]",168,l,0.3239309257478453,colour,0.06
147,25,1,2,13,46,646,1019.5027013870422,1020.9345802747994,"[84, 0, 170]",170,l,0.909246155875735,colour,0.06
147,25,1,2,13,47,647,1021.4557297840947,1022.4626528022345,"[79, 0, 175]",175,l,0.48359829949913546,colour,0.06
147,25,1,2,13,48,648,1022.9714119286509,1023.9105592371197,"[66, 0, 188]",188,a,0.4158025037031621,colour,0.06
147,25,1,2,13,49,649,1024.4244867995149,1025.2865951495478,"[96, 0, 158]",158,l,0.33876787760527804,colour,0.06
147,25,1,2,13,50,650,1025.7994380610762,1026.5665658159414,"[58, 0, 196]",196,a,0.243873534607701,colour,0.06
147,25,1,2,14,1,651,1032.4862154036527,1033.598577587225,"[21, 0, 233]",233,a,0.5882690721773542,colour,0.06
147,25,1,2,14,2,652,1034.1119435257278,1034.8705760307494,"[56, 0, 198]",198,l,0.23522468499140814,colour,0.06
147,25,1,2,14,3,653,1035.3775919964537,1036.1985816832166,"[71, 0, 183]",183,l,0.29758856212720275,colour,0.06
147,25,1,2,14,4,654,1036.7056874457048,1037.5825673692743,"[62, 0, 192]",192,a,0.3534425651305355,colour,0.06
147,25,1,2,14,5,655,1038.0962645319523,1038.9585631094524,"[54, 0, 200]",200,a,0.33886673289816827,colour,0.06
147,25,1,2,14,6,656,1039.471292199567,1040.366526903992,"[93, 0, 161]",161,l,0.37182294589001685,colour,0.06
147,25,1,2,14,7,657,1040.8775955410674,1041.8625596971833,"[70, 0, 184]",184,a,0.4616213206318207,colour,0.06
147,25,1,2,14,8,658,1042.3775526118698,1043.222526708676,"[65, 0, 189]",189,a,0.3215745475026779,colour,0.06
147,25,1,2,14,9,659,1043.7369434272405,1044.502520218084,"[47, 0, 207]",207,a,0.24216109392000362,colour,0.06
147,25,1,2,14,10,660,1045.0181936980225,1045.7585608251393,"[75, 0, 179]",179,l,0.21701877779560164,colour,0.06
147,25,1,2,14,11,661,1046.2682001964422,1047.1585201015114,"[82, 0, 172]",172,l,0.36700463871238753,colour,0.06
147,25,1,2,14,12,662,1047.6744369780063,1049.0865093700122,"[63, 0, 191]",191,l,0.8887429472524673,colour,0.06
147,25,1,2,14,13,663,1049.5962542919442,1050.3825453926693,"[4, 0, 250]",250,a,0.26259341032709926,colour,0.06
147,25,1,2,14,14,664,1050.893134325801,1051.7185575325857,"[79, 0, 175]",175,l,0.30202680826187134,colour,0.06
147,25,1,2,14,15,665,1052.23694618413,1053.5025375472615,"[97, 0, 157]",157,l,0.7422382875811309,colour,0.06
147,25,1,2,14,16,666,1054.0180085905595,1055.1184786059312,"[69, 0, 185]",185,a,0.576992878515739,colour,0.06
147,25,1,2,14,17,667,1055.627470888896,1056.4465007999097,"[87, 0, 167]",167,l,0.29564611555542797,colour,0.06
147,25,1,2,14,18,668,1056.9557884670794,1058.198539147852,"[81, 0, 173]",173,l,0.7196386387804523,colour,0.06
147,25,1,2,14,19,669,1058.7056602703524,1060.1904948512674,"[98, 0, 156]",156,l,0.9615240407292731,colour,0.06
147,25,1,2,14,20,670,1060.7055196674773,1061.2785453391261,"[99, 0, 155]",155,l,0.0495749224210158,colour,0.06
147,25,1,2,14,21,671,1061.7993143935455,1062.6465231703478,"[57, 0, 197]",197,a,0.32431689446093515,colour,0.06
147,25,1,2,14,22,672,1063.1586800027872,1063.9105289110448,"[74, 0, 180]",180,l,0.22838988824514672,colour,0.06
147,25,1,2,14,23,673,1064.4244257534156,1064.9505231451476,"[73, 0, 181]",181,a,0.0028215099591761827,colour,0.06
147,25,1,2,14,24,674,1065.4712555719307,1067.2305091714952,"[78, 0, 176]",176,a,1.2359489670488983,colour,0.06
147,25,1,2,14,25,675,1067.7367488674936,1068.5584699255414,"[53, 0, 201]",201,a,0.2982313181273639,colour,0.06
147,25,1,2,14,26,676,1069.0649388396996,1069.7664968142053,"[86, 0, 168]",168,l,0.17821120051667094,colour,0.06
147,25,1,2,14,27,677,1070.283720864274,1071.094490257441,"[52, 0, 202]",202,a,0.28765065578045323,colour,0.06
147,25,1,2,14,28,678,1071.6117851997842,1072.494478284556,"[60, 0, 194]",194,a,0.3592699047876522,colour,0.06
147,25,1,2,14,29,679,1073.002400095167,1073.8784749982879,"[59, 0, 195]",195,a,0.352689532272052,colour,0.06
147,25,1,2,14,30,680,1074.3930520120775,1075.2785126499366,"[67, 0, 187]",187,a,0.36209929164033383,colour,0.06
147,25,1,2,14,31,681,1075.7992423198302,1076.6384969906067,"[80, 0, 174]",174,l,0.3161414472851902,colour,0.06
147,25,1,2,14,32,682,1077.1585693322122,1078.0304868010571,"[92, 0, 162]",162,l,0.34839464590186253,colour,0.06
147,25,1,2,14,33,683,1078.5493051381782,1079.38251427887,"[51, 0, 203]",203,a,0.3099793388391845,colour,0.06
147,25,1,2,14,34,684,1079.8930268059485,1080.742512010329,"[83, 0, 171]",171,l,0.32614551967708394,colour,0.06
147,25,1,2,14,35,685,1081.252723245474,1082.110511896899,"[85, 0, 169]",169,l,0.3347644369932823,colour,0.06
147,25,1,2,14,36,686,1082.6273992090137,1084.1105205615168,"[94, 0, 160]",160,a,0.9601629102835432,colour,0.06
147,25,1,2,14,37,687,1084.6274255966418,1085.4704596099327,"[88, 0, 166]",166,l,0.31970456847921014,colour,0.06
147,25,1,2,14,38,688,1085.9867951443885,1086.7904745288542,"[84, 0, 170]",170,l,0.2803495458792895,colour,0.06
147,25,1,2,14,39,689,1087.2992876120843,1088.2464516479522,"[68, 0, 186]",186,a,0.423871218750719,colour,0.06
147,25,1,2,14,40,690,1088.768083618139,1089.606474191707,"[91, 0, 163]",163,l,0.31510405795415863,colour,0.06
147,25,1,2,14,41,691,1090.127381485945,1090.8864889687975,"[76, 0, 178]",178,a,0.23576385964406654,colour,0.06
147,25,1,2,14,42,692,1091.3930551628,1092.1824304685579,"[96, 0, 158]",158,l,0.26615219929954037,colour,0.06
147,25,1,2,14,43,693,1092.6899158981978,1093.5104388779146,"[89, 0, 165]",165,l,0.2970722304889932,colour,0.06
147,25,1,2,14,44,694,1094.0179869290441,1095.0944662328693,"[50, 0, 204]",204,a,0.5531545851845294,colour,0.06
147,25,1,2,14,45,695,1095.6117859874503,1096.398575302912,"[61, 0, 193]",193,a,0.2635000429581851,colour,0.06
147,25,1,2,14,46,696,1096.9086187598296,1097.6944435473415,"[90, 0, 164]",164,l,0.2624721058527939,colour,0.06
147,25,1,2,14,47,697,1098.205472799833,1099.0225594766089,"[58, 0, 196]",196,a,0.29372178588528186,colour,0.06
147,25,1,2,14,48,698,1099.5336399290245,1100.4704446438118,"[66, 0, 188]",188,a,0.4141530783381313,colour,0.06
147,25,1,2,14,49,699,1100.9867297660094,1101.7584726036876,"[95, 0, 159]",159,l,0.24842402676586062,colour,0.06
147,25,1,2,14,50,700,1102.2679792490671,1103.1344443192938,"[64, 0, 190]",190,a,0.3430556748062372,colour,0.06
147,25,1,2,15,1,701,1108.376536490221,1109.0384818669409,"[70, 0, 184]",184,a,0.13785856688627973,colour,0.06
147,25,1,2,15,2,702,1109.5493075012928,1110.2063959739753,"[54, 0, 200]",200,a,0.13387757545569912,colour,0.06
147,25,1,2,15,3,703,1110.7209080031607,1111.494477890723,"[49, 0, 205]",205,a,0.24998956313356757,colour,0.06
147,25,1,2,15,4,704,1112.0023421998485,1112.5824188894476,"[87, 0, 167]",167,l,0.05687248770846054,colour,0.06
147,25,1,2,15,5,705,1113.095997898432,1113.7184181112098,"[66, 0, 188]",188,a,0.0990750141791068,colour,0.06
147,25,1,2,15,6,706,1114.236690972175,1114.830458522949,"[94, 0, 160]",160,l,0.07047552132280543,colour,0.06
147,25,1,2,15,7,707,1115.3460685937316,1116.0624048370519,"[84, 0, 170]",170,l,0.19305799849098548,colour,0.06
147,25,1,2,15,8,708,1116.5804591136985,1117.5104664471,"[86, 0, 168]",168,l,0.40663732250686735,colour,0.06
147,25,1,2,15,9,709,1118.018596208247,1118.8464143901947,"[69, 0, 185]",185,a,0.3051551239914261,colour,0.06
147,25,1,2,15,10,710,1119.3617097783135,1120.1344139931607,"[72, 0, 182]",182,a,0.2493239640025422,colour,0.06
147,25,1,2,15,11,711,1120.642988012114,1121.4144441302633,"[82, 0, 172]",172,a,0.24814675946254283,colour,0.06
147,25,1,2,15,12,712,1121.9242142583244,1122.694451030402,"[47, 0, 207]",207,a,0.24690220732009038,colour,0.06
147,25,1,2,15,13,713,1123.2054468060378,1124.0384798977175,"[71, 0, 183]",183,a,0.3097398807294667,colour,0.06
147,25,1,2,15,14,714,1124.549199193716,1125.2783929208526,"[92, 0, 162]",162,l,0.20586113160243258,colour,0.06
147,25,1,2,15,15,715,1125.7992041168036,1126.470419831574,"[64, 0, 190]",190,a,0.14788233157014474,colour,0.06
147,25,1,2,15,16,716,1126.9866695076344,1127.7504743870231,"[63, 0, 191]",191,a,0.24042896088212729,colour,0.06
147,25,1,2,15,17,717,1128.267953255272,1129.0624261047342,"[56, 0, 198]",198,a,0.27117412467487156,colour,0.06
147,25,1,2,15,18,718,1129.5804937721114,1130.1504041249864,"[95, 0, 159]",159,l,0.04694167064735666,colour,0.06
147,25,1,2,15,19,719,1130.6585626368178,1131.19842887111,"[93, 0, 161]",161,l,0.01652458030730486,colour,0.06
147,25,1,2,15,20,720,1131.705417661462,1132.4303842436639,"[98, 0, 156]",156,l,0.2016103559290059,colour,0.06
147,25,1,2,15,21,721,1132.9397747045732,1133.7024441271205,"[88, 0, 166]",166,l,0.2392505748430267,colour,0.06
147,25,1,2,15,22,722,1134.2210482122027,1134.9504368929192,"[59, 0, 195]",195,a,0.20596274372655898,colour,0.06
147,25,1,2,15,23,723,1135.471071646025,1136.1664005583152,"[85, 0, 169]",169,l,0.17205381818348542,colour,0.06
147,25,1,2,15,24,724,1136.6741526214755,1137.2543876370182,"[91, 0, 163]",163,l,0.05698906601173803,colour,0.06
147,25,1,2,15,25,725,1137.7678847261122,1138.3104724335717,"[81, 0, 173]",173,a,0.019214939675293863,colour,0.06
147,25,1,2,15,26,726,1138.8303754215012,1139.59841295972,"[65, 0, 189]",189,a,0.24471557652577758,colour,0.06
147,25,1,2,15,27,727,1140.111633963068,1140.7184200804913,"[99, 0, 155]",155,l,0.08340310968924314,colour,0.06
147,25,1,2,15,28,728,1141.236600781558,1142.3423995280173,"[52, 0, 202]",202,a,0.5824795416556299,colour,0.06
147,25,1,2,15,29,729,1142.8615679938812,1143.6944380335044,"[62, 0, 192]",192,a,0.3094736411003396,colour,0.06
147,25,1,2,15,30,730,1144.2053893045522,1145.0144127801177,"[76, 0, 178]",178,l,0.2857641353039071,colour,0.06
147,25,1,2,15,31,731,1145.5334583661752,1146.0864262685645,"[74, 0, 180]",180,a,0.030253644450567663,colour,0.06
147,25,1,2,15,32,732,1146.5959963230416,1147.166404496762,"[96, 0, 158]",158,l,0.047965669247787446,colour,0.06
147,25,1,2,15,33,733,1147.6741380491876,1148.4064053475158,"[60, 0, 194]",194,a,0.20909736101748422,colour,0.06
147,25,1,2,15,34,734,1148.924112646142,1149.486397360277,"[50, 0, 204]",204,a,0.03899622929748148,colour,0.06
147,25,1,2,15,35,735,1150.0022165630944,1150.7263418911025,"[51, 0, 203]",203,a,0.2008002155344002,colour,0.06
147,25,1,2,15,36,736,1151.2366196861258,1151.9983631776413,"[58, 0, 196]",196,a,0.2383786006248556,colour,0.06
147,25,1,2,15,37,737,1152.5177904000739,1153.1423539207317,"[57, 0, 197]",197,a,0.10109268530504778,colour,0.06
147,25,1,2,15,38,738,1153.6584267601138,1154.254421901598,"[89, 0, 165]",165,l,0.07259362301556394,colour,0.06
147,25,1,2,15,39,739,1154.7678398277494,1155.9663565263618,"[68, 0, 186]",186,a,0.6759075974696316,colour,0.06
147,25,1,2,15,40,740,1156.4866450891714,1157.2705471224617,"[61, 0, 193]",193,a,0.26060133922146633,colour,0.06
147,25,1,2,15,41,741,1157.7835432399297,1158.6783549541724,"[73, 0, 181]",181,l,0.37175323528936133,colour,0.06
147,25,1,2,15,42,742,1159.1896323293913,1160.1183246122673,"[97, 0, 157]",157,l,0.4052785551757552,colour,0.06
147,25,1,2,15,43,743,1160.6272046492668,1161.39033920347,"[53, 0, 201]",201,a,0.24010167515370995,colour,0.06
147,25,1,2,15,44,744,1161.908400963177,1162.6223662559642,"[90, 0, 164]",164,l,0.1906590848811902,colour,0.06
147,25,1,2,15,45,745,1163.142921452236,1163.798384524067,"[75, 0, 179]",179,a,0.13228053151397035,colour,0.06
147,25,1,2,15,46,746,1164.3147543230443,1165.0784213565057,"[55, 0, 199]",199,a,0.24045928695704788,colour,0.06
147,25,1,2,15,47,747,1165.5958899847465,1166.3503701754962,"[78, 0, 176]",176,l,0.23114444443490356,colour,0.06
147,25,1,2,15,48,748,1166.8615486954805,1167.630326663435,"[80, 0, 174]",174,l,0.24546033854130656,colour,0.06
147,25,1,2,15,49,749,1168.142772184743,1168.7263592202798,"[67, 0, 187]",187,a,0.06031154759693891,colour,0.06
147,25,1,2,15,50,750,1169.2365665169782,1170.1183588768472,"[40, 0, 214]",214,a,0.3585231734905392,colour,0.06
147,25,1,2,16,1,751,1176.300303733733,1177.8303671507747,"[82, 0, 172]",172,a,1.0179692060337402,colour,0.06
147,25,1,2,16,2,752,1178.3516072445782,1178.9743504107464,"[70, 0, 184]",184,l,0.09653392230393365,colour,0.06
147,25,1,2,16,3,753,1179.480345528631,1180.1983552219463,"[65, 0, 189]",189,a,0.19471766386413947,colour,0.06
147,25,1,2,16,4,754,1180.7175351093756,1181.4943865184905,"[73, 0, 181]",181,a,0.25343295524362475,colour,0.06
147,25,1,2,16,5,755,1182.014419475512,1183.062320160272,"[77, 0, 177]",177,a,0.524668913683854,colour,0.06
147,25,1,2,16,6,756,1183.5768727555987,1184.2463460973813,"[80, 0, 174]",174,a,0.14621636463562027,colour,0.06
147,25,1,2,16,7,757,1184.7644121893682,1185.4543521121377,"[95, 0, 159]",159,l,0.16665655793622136,colour,0.06
147,25,1,2,16,8,758,1185.967504586326,1186.6783238403732,"[97, 0, 157]",157,l,0.18743782164528966,colour,0.06
147,25,1,2,16,9,759,1187.1862314725295,1187.8143447235925,"[96, 0, 158]",158,l,0.10479050170397386,colour,0.06
147,25,1,2,16,10,760,1188.326876890962,1189.1423239884316,"[69, 0, 185]",185,a,0.29220272332895547,colour,0.06
147,25,1,2,16,11,761,1189.6550274786423,1190.5663488070131,"[0, 0, 254]",254,a,0.3880340250907466,colour,0.06
147,25,1,2,16,12,762,1191.0768806324922,1191.8783473923104,"[49, 0, 205]",205,a,0.2781274688895792,colour,0.06
147,25,1,2,16,13,763,1192.3892978756921,1193.0306478838902,"[83, 0, 171]",171,l,0.1182962553575635,colour,0.06
147,25,1,2,16,14,764,1193.5456482816953,1194.3583014383912,"[76, 0, 178]",178,l,0.29002790787490085,colour,0.06
147,25,1,2,16,15,765,1194.8737193125417,1195.6463148260373,"[57, 0, 197]",197,l,0.24929481948493049,colour,0.06
147,25,1,2,16,16,766,1196.1550148755778,1196.766305011406,"[91, 0, 163]",163,l,0.08796462952159345,colour,0.06
147,25,1,2,16,17,767,1197.2800514047267,1197.93434239208,"[84, 0, 170]",170,l,0.1310879670199938,colour,0.06
147,25,1,2,16,18,768,1198.4518736417522,1199.126318496652,"[62, 0, 192]",192,a,0.15117409313097596,colour,0.06
147,25,1,2,16,19,769,1199.6392890141578,1200.3262853348278,"[59, 0, 195]",195,a,0.16356093145441264,colour,0.06
147,25,1,2,16,20,770,1200.8424814479076,1201.4623133073328,"[78, 0, 176]",176,l,0.0964756331522949,colour,0.06
147,25,1,2,16,21,771,1201.983054792625,1202.7025000531576,"[98, 0, 156]",156,l,0.1963253416470252,colour,0.06
147,25,1,2,16,22,772,1203.2174744571676,1203.9583520081942,"[87, 0, 167]",167,l,0.21762884460622445,colour,0.06
147,25,1,2,16,23,773,1204.467464807909,1205.1023246343248,"[66, 0, 188]",188,a,0.11153589544119313,colour,0.06
147,25,1,2,16,24,774,1205.6236789433751,1206.3503122801776,"[58, 0, 196]",196,a,0.20331058744341135,colour,0.06
147,25,1,2,16,25,775,1206.8580584356678,1207.6064222040586,"[93, 0, 161]",161,l,0.2250705574406311,colour,0.06
147,25,1,2,16,26,776,1208.123663583363,1209.5662960316986,"[41, 0, 213]",213,a,0.9193813788006082,colour,0.06
147,25,1,2,16,27,777,1210.076844792522,1210.886315676733,"[85, 0, 169]",169,l,0.28618830704363063,colour,0.06
147,25,1,2,16,28,778,1211.4049780509667,1212.1502946359105,"[86, 0, 168]",168,l,0.22201313398545608,colour,0.06
147,25,1,2,16,29,779,1212.670592651004,1213.4062797107617,"[55, 0, 199]",199,a,0.21243165794294327,colour,0.06
147,25,1,2,16,30,780,1213.9205672479584,1214.6063008996425,"[92, 0, 162]",162,l,0.16243925917660818,colour,0.06
147,25,1,2,16,31,781,1215.1236789433751,1215.8542605824186,"[99, 0, 155]",155,l,0.2072943357634358,colour,0.06
147,25,1,2,16,32,782,1216.3736748080119,1217.0543207620503,"[63, 0, 191]",191,a,0.1573692845995538,colour,0.06
147,25,1,2,16,33,783,1217.561117749603,1218.2863198514679,"[51, 0, 203]",203,a,0.20191676780814305,colour,0.06
147,25,1,2,16,34,784,1218.795558287995,1219.4862961419858,"[81, 0, 173]",173,l,0.16740447079064324,colour,0.06
147,25,1,2,16,35,785,1219.9986392634455,1220.71030764858,"[74, 0, 180]",180,a,0.1884279494988732,colour,0.06
147,25,1,2,16,36,786,1221.2173527588602,1221.862298183667,"[75, 0, 179]",179,l,0.12153090938227251,colour,0.06
147,25,1,2,16,37,787,1222.373666143394,1223.7342684278265,"[56, 0, 198]",198,a,0.8376903160242364,colour,0.06
147,25,1,2,16,38,788,1224.248649306479,1224.9263079416123,"[52, 0, 202]",202,a,0.15435991034610197,colour,0.06
147,25,1,2,16,39,789,1225.4360800388968,1226.022264486237,"[89, 0, 165]",165,l,0.06281640572706237,colour,0.06
147,25,1,2,16,40,790,1226.529860192677,1227.2622933000093,"[88, 0, 166]",166,l,0.20976571703795344,colour,0.06
147,25,1,2,16,41,791,1227.7798434542492,1228.710267082497,"[50, 0, 204]",204,a,0.40700871899025515,colour,0.06
147,25,1,2,16,42,792,1229.2174181372393,1229.9182790049817,"[90, 0, 164]",164,l,0.1776767520350404,colour,0.06
147,25,1,2,16,43,793,1230.4361135157524,1231.1184585198062,"[79, 0, 175]",175,l,0.15870481508318335,colour,0.06
147,25,1,2,16,44,794,1231.6392126081046,1232.310243215412,"[53, 0, 201]",201,a,0.14770903944736347,colour,0.06
147,25,1,2,16,45,795,1232.8267268358031,1233.4863252865616,"[61, 0, 193]",193,a,0.13626979372929782,colour,0.06
147,25,1,2,16,46,796,1233.9985530112172,1234.694600691786,"[60, 0, 194]",194,a,0.17274462344357744,colour,0.06
147,25,1,2,16,47,797,1235.2017320542363,1235.9102697606431,"[94, 0, 160]",160,l,0.18521180626703426,colour,0.06
147,25,1,2,16,48,798,1236.4204538204358,1237.0462587423972,"[71, 0, 183]",183,a,0.1025097417877987,colour,0.06
147,25,1,2,16,49,799,1237.560992112849,1238.2862721961574,"[67, 0, 187]",187,a,0.20185493404278532,colour,0.06
147,25,1,2,16,50,800,1238.7954369835206,1239.542265147902,"[64, 0, 190]",190,a,0.22348139039240777,colour,0.06
