id,age,condition,counterbalance,block,trialinblock,trial,tstart,tend,trialstim,trialintensity,response,RT,trialtype,colourfreq
026,70,1,2,Practice,1,NA,5.119945853948593e-06,1.0869410932064056,"[2, 0, 252]",252,a,0.5629247628385201,colour,0.5
026,70,1,2,Practice,2,NA,1.5946470825001597,2.2629311431664973,"[14, 0, 240]",240,a,0.14506448048632592,colour,0.5
026,70,1,2,Practice,3,NA,2.7820058887591586,5.342928732745349,"[35, 0, 219]",219,a,2.0376059839036316,colour,0.5
026,70,1,2,Practice,4,NA,5.860889288363978,6.510984756634571,"[69, 0, 185]",185,a,0.12718820804730058,colour,0.5
026,70,1,2,Practice,5,NA,7.0175155096221715,10.223021160578355,"[39, 0, 215]",215,a,2.6827074859756976,colour,0.5
026,70,1,2,Practice,6,NA,10.736240598838776,12.110924734501168,"[83, 0, 171]",171,l,0.8514129616087303,colour,0.5
026,70,1,2,Practice,7,NA,12.631481916178018,13.630913990316913,"[68, 0, 186]",186,l,0.4760943402070552,colour,0.5
026,70,1,2,Practice,8,NA,14.143084616982378,14.982933868537657,"[65, 0, 189]",189,a,0.3164398376829922,colour,0.5
026,70,1,2,Practice,9,NA,15.50247807847336,16.10294462845195,"[29, 0, 225]",225,a,0.0771780468057841,colour,0.5
026,70,1,2,Practice,10,NA,16.611842001555488,20.630956919514574,"[96, 0, 158]",158,l,3.495796482427977,colour,0.5
026,70,1,2,1,1,1,4.916076554218307,5.688052762765437,"[84, 0, 170]",170,l,0.24778973672073334,colour,0.5
026,70,1,2,1,2,2,6.198218319797888,6.81597234250512,"[68, 0, 186]",186,a,0.094518294907175,colour,0.5
026,70,1,2,1,3,3,7.323237618198618,7.848661947879009,"[4, 0, 250]",250,l,0.002400884754024446,colour,0.5
026,70,1,2,1,4,4,8.37011158443056,8.91999217029661,"[82, 0, 172]",172,l,0.026572784292511642,colour,0.5
026,70,1,2,1,5,5,9.432535769068636,10.000016541453078,"[73, 0, 181]",181,l,0.044488047482445836,colour,0.5
026,70,1,2,1,6,6,10.510663772118278,11.19210661877878,"[64, 0, 190]",190,a,0.15815670660231262,colour,0.5
026,70,1,2,1,7,7,11.700084755662829,12.240010492037982,"[36, 0, 218]",218,a,0.016658107051625848,colour,0.5
026,70,1,2,1,8,8,12.746918155695312,14.823968202457763,"[40, 0, 214]",214,a,1.5540640173712745,colour,0.5
026,70,1,2,1,9,9,15.340703897178173,16.08002082654275,"[78, 0, 176]",176,l,0.21594414324499667,colour,0.5
026,70,1,2,1,10,10,16.59704639192205,17.12803300737869,"[88, 0, 166]",166,l,0.007639035466127098,colour,0.5
026,70,1,2,1,11,11,17.659487511962652,18.255981731810607,"[23, 0, 231]",231,a,0.07327936589717865,colour,0.5
026,70,1,2,1,12,12,18.768928628764115,19.32797125237994,"[95, 0, 159]",159,l,0.03603178181219846,colour,0.5
026,70,1,2,1,13,13,19.84700700722169,21.7919812182663,"[11, 0, 243]",243,a,1.4216912216506898,colour,0.5
026,70,1,2,1,14,14,22.301370898843743,22.89599750144407,"[3, 0, 251]",251,a,0.07143065321724862,colour,0.5
026,70,1,2,1,15,15,23.41068362200167,24.00799507217016,"[71, 0, 183]",183,l,0.07403161167167127,colour,0.5
026,70,1,2,1,16,16,24.52005620964337,25.10398635081947,"[65, 0, 189]",189,l,0.060629034880548716,colour,0.5
026,70,1,2,1,17,17,25.61379665893037,27.44794932298828,"[17, 0, 237]",237,a,1.310869674780406,colour,0.5
026,70,1,2,1,18,18,27.968153224908747,28.600010476307943,"[1, 0, 253]",253,a,0.10862349276430905,colour,0.5
026,70,1,2,1,19,19,29.108790089492686,29.72796235140413,"[26, 0, 228]",228,a,0.09583058953285217,colour,0.5
026,70,1,2,1,20,20,30.249449403374456,30.856017414247617,"[46, 0, 208]",208,a,0.08329801843501627,colour,0.5
026,70,1,2,1,21,21,31.37442892335821,32.95195946225431,"[21, 0, 233]",233,a,1.064432798884809,colour,0.5
026,70,1,2,1,22,22,33.45802390167955,34.70394287025556,"[20, 0, 234]",234,a,0.7229097021045163,colour,0.5
026,70,1,2,1,23,23,35.22367770166602,35.89597111369949,"[54, 0, 200]",200,l,0.14896434277761728,colour,0.5
026,70,1,2,1,24,24,36.41112315398641,37.10394460323732,"[86, 0, 168]",168,l,0.1694718999788165,colour,0.5
026,70,1,2,1,25,25,37.61421059095301,38.15201310405973,"[18, 0, 236]",236,a,0.014469505287706852,colour,0.5
026,70,1,2,1,26,26,38.661071560229175,39.223982932278886,"[56, 0, 198]",198,a,0.03961814276408404,colour,0.5
026,70,1,2,1,27,27,39.740556756267324,41.08801196026616,"[49, 0, 205]",205,a,0.8241820607800037,colour,0.5
026,70,1,2,1,28,28,41.59988483937923,42.7599383079214,"[13, 0, 241]",241,a,0.6367614207556471,colour,0.5
026,70,1,2,1,29,29,43.27176589483861,44.295973240514286,"[9, 0, 245]",245,a,0.5008995441021398,colour,0.5
026,70,1,2,1,30,30,44.79387482942548,45.42394717107527,"[39, 0, 215]",215,a,0.10753765958361328,colour,0.5
026,70,1,2,1,31,31,45.92201890144497,47.463989485870115,"[15, 0, 239]",239,a,1.0185950413579121,colour,0.5
026,70,1,2,1,32,32,47.97616011253558,49.45601134898607,"[99, 0, 155]",155,l,0.9565430410439149,colour,0.5
026,70,1,2,1,33,33,49.97607189102564,51.711948182433844,"[6, 0, 248]",248,a,1.2125365883111954,colour,0.5
026,70,1,2,1,34,34,52.226081343367696,52.87997742474545,"[89, 0, 165]",165,l,0.130607184371911,colour,0.5
026,70,1,2,1,35,35,53.397928921855055,55.04793026088737,"[90, 0, 164]",164,l,1.126622251351364,colour,0.5
026,70,1,2,1,36,36,55.554205407970585,56.255958494963124,"[76, 0, 178]",178,l,0.17837478697765619,colour,0.5
026,70,1,2,1,37,37,56.77304431865923,57.623994511319324,"[67, 0, 187]",187,l,0.3278385263402015,colour,0.5
026,70,1,2,1,38,38,58.122861810494214,58.71997988235671,"[97, 0, 157]",157,l,0.07375158718787134,colour,0.5
026,70,1,2,1,39,39,59.23226117971353,59.807931584189646,"[80, 0, 174]",174,l,0.05239095981232822,colour,0.5
026,70,1,2,1,40,40,60.32600399199873,62.143948321114294,"[93, 0, 161]",161,l,1.2948180905077606,colour,0.5
026,70,1,2,1,41,41,62.664251078269444,63.28798210679088,"[19, 0, 235]",235,a,0.101098672603257,colour,0.5
026,70,1,2,1,42,42,63.80489345674869,64.39194600842893,"[5, 0, 249]",249,a,0.0638759006978944,colour,0.5
026,70,1,2,1,43,43,64.8986563552171,65.45597669063136,"[0, 0, 254]",254,a,0.03399796143639833,colour,0.5
026,70,1,2,1,44,44,65.97678869066294,67.59193821030203,"[12, 0, 242]",242,a,1.0922678593778983,colour,0.5
026,70,1,2,1,45,45,68.10177766287234,68.63201951584779,"[92, 0, 162]",162,l,0.0070167589001357555,colour,0.5
026,70,1,2,1,46,46,69.14861972758081,70.73599483899307,"[79, 0, 175]",175,l,1.0640275314217433,colour,0.5
026,70,1,2,1,47,47,71.2567595775472,72.29594842821825,"[98, 0, 156]",156,l,0.5133458628552034,colour,0.5
026,70,1,2,1,48,48,72.80613525293302,73.33598680456635,"[34, 0, 220]",220,a,0.00650672847405076,colour,0.5
026,70,1,2,1,49,49,73.85292572376784,74.52797290647868,"[37, 0, 217]",217,a,0.1518449317663908,colour,0.5
026,70,1,2,1,50,50,75.0404286775738,75.67197282146662,"[77, 0, 177]",177,l,0.10809455765411258,colour,0.5
026,70,1,2,2,1,51,83.4001722681569,84.13591819663998,"[79, 0, 175]",175,l,0.21184105647262186,colour,0.5
026,70,1,2,2,2,52,84.65098949847743,85.2239797814982,"[48, 0, 206]",206,a,0.0497655828949064,colour,0.5
026,70,1,2,2,3,53,85.74461652012542,86.32793383696117,"[95, 0, 159]",159,l,0.05993783532176167,colour,0.5
026,70,1,2,2,4,54,86.83856531383935,87.36798914871179,"[75, 0, 179]",179,l,0.006118396413512528,colour,0.5
026,70,1,2,2,5,55,87.88540462148376,88.41594973579049,"[74, 0, 180]",180,l,0.007632340071722865,colour,0.5
026,70,1,2,2,6,56,88.93233136297204,90.47194044734351,"[81, 0, 173]",173,l,1.016353664221242,colour,0.5
026,70,1,2,2,7,57,90.9799780548783,92.24797957041301,"[9, 0, 245]",245,a,0.7447141938610002,colour,0.5
026,70,1,2,2,8,58,92.76120373490267,93.78397393680643,"[7, 0, 247]",247,a,0.49945373565424234,colour,0.5
026,70,1,2,2,9,59,94.29239908873569,94.8719492694363,"[77, 0, 177]",177,l,0.05645229888614267,colour,0.5
026,70,1,2,2,10,60,95.38617419649381,96.0079954660032,"[6, 0, 248]",248,a,0.09852567710913718,colour,0.5
026,70,1,2,2,11,61,96.52678073488642,98.15992349933367,"[16, 0, 238]",238,a,1.1098995535867289,colour,0.5
026,70,1,2,2,12,62,98.66741641797125,99.19994139566552,"[73, 0, 181]",181,l,0.009218751452863216,colour,0.5
026,70,1,2,2,13,63,99.71428250719327,100.35196592123248,"[97, 0, 157]",157,l,0.11431614169850945,colour,0.5
026,70,1,2,2,14,64,100.87055426719598,101.48794516397174,"[41, 0, 213]",213,a,0.09478965471498668,colour,0.5
026,70,1,2,2,15,65,101.99559955950826,102.57597405975685,"[58, 0, 196]",196,a,0.05739792308304459,colour,0.5
026,70,1,2,2,16,66,103.0892939287005,103.69594346580561,"[76, 0, 178]",178,l,0.08326611702796072,colour,0.5
026,70,1,2,2,17,67,104.21441444556694,104.87189649406355,"[65, 0, 189]",189,l,0.13412344071548432,colour,0.5
026,70,1,2,2,18,68,105.38627502101008,105.95994783903006,"[44, 0, 210]",210,a,0.05050443788059056,colour,0.5
026,70,1,2,2,19,69,106.47997608559672,107.09593417099677,"[68, 0, 186]",186,l,0.09261995763517916,colour,0.5
026,70,1,2,2,20,70,107.60487053496763,108.19990949414205,"[96, 0, 158]",158,l,0.07155589619651437,colour,0.5
026,70,1,2,2,21,71,108.71433528256603,109.2879368144786,"[29, 0, 225]",225,a,0.05026694876141846,colour,0.5
026,70,1,2,2,22,72,109.8095313863596,110.43199620011728,"[20, 0, 234]",234,a,0.099224753677845,colour,0.5
026,70,1,2,2,23,73,110.93767545837909,112.53590575105045,"[11, 0, 243]",243,a,1.074923672596924,colour,0.5
026,70,1,2,2,24,74,113.04720755363815,114.27998073305935,"[43, 0, 211]",211,a,0.7051169250626117,colour,0.5
026,70,1,2,2,25,75,114.77511082822457,115.94396754074842,"[33, 0, 221]",221,a,0.645683606271632,colour,0.5
026,70,1,2,2,26,76,116.46247042214964,117.01592358446214,"[15, 0, 239]",239,a,0.030635304981842637,colour,0.5
026,70,1,2,2,27,77,117.51406660093926,118.07195131748449,"[10, 0, 244]",244,a,0.0346048780484125,colour,0.5
026,70,1,2,2,28,78,118.59216033935081,120.25598685187288,"[22, 0, 232]",232,a,1.139606563723646,colour,0.5
026,70,1,2,2,29,79,120.76495787419844,122.11194085690659,"[84, 0, 170]",170,l,0.8235692365560681,colour,0.5
026,70,1,2,2,30,80,122.61984101228882,123.15996642853133,"[62, 0, 192]",192,a,0.013701899559237063,colour,0.5
026,70,1,2,2,31,81,123.66974798589945,124.4558928014012,"[4, 0, 250]",250,a,0.26109779032412916,colour,0.5
026,70,1,2,2,32,82,124.96813786495477,126.39998991752509,"[28, 0, 226]",226,a,0.9082398080499843,colour,0.5
026,70,1,2,2,33,83,126.90599803708028,128.14391129952855,"[83, 0, 171]",171,l,0.7151076144073159,colour,0.5
026,70,1,2,2,34,84,128.64338315220084,129.3919822422322,"[63, 0, 191]",191,l,0.22312986198812723,colour,0.5
026,70,1,2,2,35,85,129.91116253857035,130.62392243754584,"[17, 0, 237]",237,a,0.1899290446890518,colour,0.5
026,70,1,2,2,36,86,131.1174712413922,132.34394446143415,"[46, 0, 208]",208,a,0.7037719412473962,colour,0.5
026,70,1,2,2,37,87,132.8393805748783,133.47995757486206,"[61, 0, 193]",193,l,0.11724044766742736,colour,0.5
026,70,1,2,2,38,88,133.99565745482687,134.67988282290753,"[13, 0, 241]",241,a,0.16107786179054528,colour,0.5
026,70,1,2,2,39,89,135.19872244261205,135.7998766474193,"[26, 0, 228]",228,a,0.09028090664651245,colour,0.5
026,70,1,2,2,40,90,136.3114230283536,137.07989834051114,"[85, 0, 169]",169,l,0.25115515012294054,colour,0.5
026,70,1,2,2,41,91,137.58658505650237,138.22392582462635,"[69, 0, 185]",185,l,0.1141322156181559,colour,0.5
026,70,1,2,2,42,92,138.74286075495183,139.30393247271422,"[90, 0, 164]",164,l,0.037778488476760685,colour,0.5
026,70,1,2,2,43,93,139.82100726873614,140.39996864984278,"[72, 0, 182]",182,l,0.05569887172896415,colour,0.5
026,70,1,2,2,44,94,140.9146551642334,141.447888276889,"[21, 0, 233]",233,a,0.010628325981087983,colour,0.5
026,70,1,2,2,45,95,141.96158505650237,143.76802199543454,"[57, 0, 197]",197,a,1.2830523373559117,colour,0.5
026,70,1,2,2,46,96,144.27408249652945,145.0239032965619,"[99, 0, 155]",155,l,0.22652835841290653,colour,0.5
026,70,1,2,2,47,97,145.53974968730472,146.23989548906684,"[24, 0, 230]",230,a,0.17717395070940256,colour,0.5
026,70,1,2,2,48,98,146.758453508839,147.32793620007578,"[25, 0, 229]",229,a,0.04623002803418785,colour,0.5
026,70,1,2,2,49,99,147.83659884112421,148.43992943852209,"[14, 0, 240]",240,a,0.08010904805269092,colour,0.5
026,70,1,2,2,50,100,148.94598088110797,149.5919456933625,"[59, 0, 195]",195,l,0.12267394596710801,colour,0.5
026,70,1,2,3,1,101,156.32202614820562,156.92009614559356,"[34, 0, 220]",220,a,0.0731679075397551,colour,0.5
026,70,1,2,3,2,102,157.43059095786884,159.14391878258903,"[42, 0, 212]",212,a,1.1900377460988238,colour,0.5
026,70,1,2,3,3,103,159.6648961979663,160.85587129741907,"[96, 0, 158]",158,l,0.6676464240299538,colour,0.5
026,70,1,2,3,4,104,161.36812069325242,162.55985630920622,"[85, 0, 169]",169,l,0.6686192234046757,colour,0.5
026,70,1,2,3,5,105,163.07177526829764,163.86388645577244,"[69, 0, 185]",185,l,0.2687450966332108,colour,0.5
026,70,1,2,3,6,106,164.38424080680124,166.10393712006044,"[91, 0, 163]",163,l,1.1967390344943851,colour,0.5
026,70,1,2,3,7,107,166.61865080986172,167.3199064694345,"[54, 0, 200]",200,l,0.17801678099203855,colour,0.5
026,70,1,2,3,8,108,167.83737944369204,168.99984915694222,"[0, 0, 254]",254,a,0.6391497023869306,colour,0.5
026,70,1,2,3,9,109,169.51110763649922,170.70389285183046,"[10, 0, 244]",244,a,0.6697613766882569,colour,0.5
026,70,1,2,3,10,110,171.21423997182865,172.43991014012136,"[13, 0, 241]",241,a,0.715026876074262,colour,0.5
026,70,1,2,3,11,111,172.95019266940653,173.67988636752125,"[28, 0, 226]",226,a,0.20632957655470818,colour,0.5
026,70,1,2,3,12,112,174.20016155554913,174.7839247060474,"[47, 0, 207]",207,a,0.06050615501590073,colour,0.5
026,70,1,2,3,13,113,175.2814962521661,176.6158986146329,"[95, 0, 159]",159,l,0.81143169302959,colour,0.5
026,70,1,2,3,14,114,177.13544597534928,177.67993953672703,"[59, 0, 195]",195,a,0.03364034928381443,colour,0.5
026,70,1,2,3,15,115,178.19062063808087,178.93593387166038,"[70, 0, 184]",184,l,0.2218435612739995,colour,0.5
026,70,1,2,3,16,116,179.4469225667417,180.4238750973018,"[97, 0, 157]",157,l,0.45364512281958014,colour,0.5
026,70,1,2,3,17,117,180.93129003443755,181.62392243754584,"[66, 0, 188]",188,l,0.1692765522748232,colour,0.5
026,70,1,2,3,18,118,182.13564092910383,183.06389677454717,"[92, 0, 162]",162,l,0.40523909602779895,colour,0.5
026,70,1,2,3,19,119,183.57524702011142,184.16788666998036,"[49, 0, 205]",205,a,0.06962683878373355,colour,0.5
026,70,1,2,3,20,120,184.6841647158144,185.27192658395506,"[51, 0, 203]",203,a,0.0643051927909255,colour,0.5
026,70,1,2,3,21,121,185.77809578645974,186.32787830475718,"[19, 0, 235]",235,a,0.0267346550244838,colour,0.5
026,70,1,2,3,22,122,186.84057668491732,187.41586663434282,"[88, 0, 166]",166,l,0.051902984734624624,colour,0.5
026,70,1,2,3,23,123,187.93436282023322,188.67987849062774,"[36, 0, 218]",218,a,0.2223149947822094,colour,0.5
026,70,1,2,3,24,124,189.19995478645433,189.77588158473372,"[78, 0, 176]",176,l,0.05257803667336702,colour,0.5
026,70,1,2,3,25,125,190.2937495864462,190.8559095005039,"[25, 0, 229]",229,a,0.05125313892494887,colour,0.5
026,70,1,2,3,26,126,191.37507798150182,191.93589921318926,"[74, 0, 180]",180,l,0.037446476286277175,colour,0.5
026,70,1,2,3,27,127,192.45663717016578,193.90386536135338,"[16, 0, 238]",238,a,0.923844377277419,colour,0.5
026,70,1,2,3,28,128,194.42525316413958,194.94386120233685,"[61, 0, 193]",193,l,0.004481178824789822,colour,0.5
026,70,1,2,3,29,129,195.46297966490965,196.15191858098842,"[81, 0, 173]",173,l,0.16606395109556615,colour,0.5
026,70,1,2,3,30,130,196.66600014804862,197.25589744874742,"[23, 0, 231]",231,a,0.0665800467832014,colour,0.5
026,70,1,2,3,31,131,197.7752900280757,198.3278739724774,"[22, 0, 232]",232,a,0.029074099846184254,colour,0.5
026,70,1,2,3,32,132,198.840708623291,199.38391706545372,"[93, 0, 161]",161,l,0.01982541591860354,colour,0.5
026,70,1,2,3,33,133,199.89530827105045,201.2158421371132,"[86, 0, 168]",168,l,0.7973938428331167,colour,0.5
026,70,1,2,3,34,134,201.72342445875984,202.7918843321968,"[99, 0, 155]",155,l,0.5437704602954909,colour,0.5
026,70,1,2,3,35,135,203.30496868130285,203.9598682821961,"[9, 0, 245]",245,a,0.13154847617261112,colour,0.5
026,70,1,2,3,36,136,204.47682886291295,205.0478983593639,"[17, 0, 237]",237,a,0.047853854834102094,colour,0.5
026,70,1,2,3,37,137,205.55788589804433,207.41591468348633,"[4, 0, 250]",250,a,1.334772971458733,colour,0.5
026,70,1,2,3,38,138,207.92750084283762,208.46386896900367,"[84, 0, 170]",170,l,0.01329702592920512,colour,0.5
026,70,1,2,3,39,139,208.9744898119243,209.62388344679493,"[44, 0, 210]",210,a,0.12610907014459372,colour,0.5
026,70,1,2,3,40,140,210.13058827980421,210.75186131580267,"[8, 0, 246]",246,a,0.09793530218303204,colour,0.5
026,70,1,2,3,41,141,211.27125271351542,213.03185583348386,"[41, 0, 213]",213,a,1.23725317674689,colour,0.5
026,70,1,2,3,42,142,213.5525063566165,214.12784435518552,"[45, 0, 209]",209,a,0.05232991371303797,colour,0.5
026,70,1,2,3,43,143,214.64623105200008,215.25585097493604,"[64, 0, 190]",190,l,0.08660199190489948,colour,0.5
026,70,1,2,3,44,144,215.77127870742697,216.31993482634425,"[62, 0, 192]",192,l,0.02526364044751972,colour,0.5
026,70,1,2,3,45,145,216.83378599351272,217.5438984602224,"[48, 0, 206]",206,a,0.18678930506575853,colour,0.5
026,70,1,2,3,46,146,218.05245436902624,218.58388839347754,"[76, 0, 178]",178,l,0.00827273353934288,colour,0.5
026,70,1,2,3,47,147,219.08934434107505,220.6238940806361,"[29, 0, 225]",225,a,1.0112005841219798,colour,0.5
026,70,1,2,3,48,148,221.13618167955428,221.7118686255999,"[38, 0, 216]",216,a,0.0524988736724481,colour,0.5
026,70,1,2,3,49,149,222.2254614297999,222.87987935706042,"[82, 0, 172]",172,l,0.13105341175105423,colour,0.5
026,70,1,2,3,50,150,223.39747127285227,224.01584363367874,"[5, 0, 249]",249,a,0.09511221456341445,colour,0.5
026,70,1,2,4,1,151,230.45920425793156,232.2718623870751,"[54, 0, 200]",200,a,1.2887631033081561,colour,0.5
026,70,1,2,4,2,152,232.78941806894727,233.32796140620485,"[50, 0, 204]",204,a,0.015504926210269332,colour,0.5
026,70,1,2,4,3,153,233.83623689669184,234.39187354082242,"[65, 0, 189]",189,l,0.04464873671531677,colour,0.5
026,70,1,2,4,4,154,234.90203555324115,235.43182605865877,"[92, 0, 162]",162,l,0.00672491907607764,colour,0.5
026,70,1,2,4,5,155,235.9506948229391,237.2958700528834,"[34, 0, 220]",220,a,0.8218331637326628,colour,0.5
026,70,1,2,4,6,156,237.81008789059706,238.94384702388197,"[31, 0, 223]",223,a,0.6105009561870247,colour,0.5
026,70,1,2,4,7,157,239.4506491367938,240.6718893260695,"[2, 0, 252]",252,a,0.6979627137770876,colour,0.5
026,70,1,2,4,8,158,241.18511742912233,241.79981599515304,"[67, 0, 187]",187,l,0.09158650587778538,colour,0.5
026,70,1,2,4,9,159,242.31010679528117,242.94386592856608,"[98, 0, 156]",156,l,0.11661305115558207,colour,0.5
026,70,1,2,4,10,160,243.46175953024067,244.0558658624068,"[72, 0, 182]",182,l,0.08352526766248047,colour,0.5
026,70,1,2,4,11,161,244.57442151906434,245.12781796755735,"[24, 0, 230]",230,a,0.030360006727278233,colour,0.5
026,70,1,2,4,12,162,245.63688942068256,246.29582633601967,"[4, 0, 250]",250,a,0.1356098153628409,colour,0.5
026,70,1,2,4,13,163,246.81131944677327,247.43181778793223,"[19, 0, 235]",235,a,0.09713461331557482,colour,0.5
026,70,1,2,4,14,164,247.9519484344637,248.5038533884799,"[11, 0, 243]",243,a,0.02865859225858003,colour,0.5
026,70,1,2,4,15,165,249.01446084061172,249.54386695253197,"[86, 0, 168]",168,l,0.006028993404470384,colour,0.5
026,70,1,2,4,16,166,250.06135804369114,251.6798725828994,"[79, 0, 175]",175,l,1.0957943557295948,colour,0.5
026,70,1,2,4,17,167,252.1863840376027,253.45589083223604,"[6, 0, 248]",248,a,0.7464002483757213,colour,0.5
026,70,1,2,4,18,168,253.9676014467841,254.4958153871121,"[64, 0, 190]",190,l,0.004913621814921498,colour,0.5
026,70,1,2,4,19,169,255.0144805329619,255.64786039257888,"[78, 0, 176]",176,l,0.11009253794327378,colour,0.5
026,70,1,2,4,20,170,256.1551544191316,257.49583074706607,"[80, 0, 174]",174,l,0.817448083194904,colour,0.5
026,70,1,2,4,21,171,258.01731307280716,258.5598370108055,"[40, 0, 214]",214,a,0.01930711476597935,colour,0.5
026,70,1,2,4,22,172,259.0797526175156,260.6959277119022,"[46, 0, 208]",208,a,1.0927967943716794,colour,0.5
026,70,1,2,4,23,173,261.2047293805517,262.71185799175873,"[74, 0, 180]",180,l,0.983813326456584,colour,0.5
026,70,1,2,4,24,174,263.2203831805382,263.8238595009316,"[45, 0, 209]",209,a,0.08013031573500484,colour,0.5
026,70,1,2,4,25,175,264.3454757343279,264.976053774124,"[90, 0, 164]",164,l,0.1076900779735297,colour,0.5
026,70,1,2,4,26,176,265.488652511267,266.35982629819773,"[60, 0, 194]",194,l,0.34787858836352825,colour,0.5
026,70,1,2,4,27,177,266.8793421512237,267.4158154343022,"[52, 0, 202]",202,a,0.013566022738814354,colour,0.5
026,70,1,2,4,28,178,267.9261991820531,268.5358364342246,"[23, 0, 231]",231,a,0.08641609665937722,colour,0.5
026,70,1,2,4,29,179,269.05129331117496,269.59184289956465,"[83, 0, 171]",171,l,0.017344974330626428,colour,0.5
026,70,1,2,4,30,180,270.09803691436537,270.8078500580741,"[33, 0, 221]",221,a,0.18703467096202075,colour,0.5
026,70,1,2,4,31,181,271.3168002066668,271.8958411446074,"[91, 0, 163]",163,l,0.055663425591774285,colour,0.5
026,70,1,2,4,32,182,272.41056468046736,272.95183658227324,"[44, 0, 210]",210,a,0.017938893986865878,colour,0.5
026,70,1,2,4,33,183,273.47306330199353,274.06385896529537,"[29, 0, 225]",225,a,0.06746895704418421,colour,0.5
026,70,1,2,4,34,184,274.57674205920193,275.3198166725924,"[57, 0, 197]",197,l,0.2197888670489192,colour,0.5
026,70,1,2,4,35,185,275.8267629330512,276.3518237428507,"[89, 0, 165]",165,l,0.0018495003459975123,colour,0.5
026,70,1,2,4,36,186,276.8660943560535,277.42383925721515,"[58, 0, 196]",196,a,0.034427647246047854,colour,0.5
026,70,1,2,4,37,187,277.9443798974389,278.58380844281055,"[15, 0, 239]",239,a,0.11630348826292902,colour,0.5
026,70,1,2,4,38,188,279.10041416832246,279.68782827060204,"[25, 0, 229]",229,a,0.0641279622213915,colour,0.5
026,70,1,2,4,39,189,280.194429915864,280.8078508457402,"[56, 0, 198]",198,l,0.09035455575212836,colour,0.5
026,70,1,2,4,40,190,281.31919321452733,281.97582967579365,"[21, 0, 233]",233,a,0.13354015501681715,colour,0.5
026,70,1,2,4,41,191,282.49110380827915,283.12787822599057,"[28, 0, 226]",226,a,0.11351545294746757,colour,0.5
026,70,1,2,4,42,192,283.6473038883414,284.2638157210313,"[3, 0, 251]",251,a,0.09318473259918392,colour,0.5
026,70,1,2,4,43,193,284.77229010371957,286.73582548531704,"[93, 0, 161]",161,l,1.4401818938786164,colour,0.5
026,70,1,2,4,44,194,287.24240861984435,288.0397997057298,"[16, 0, 238]",238,a,0.27407777041662484,colour,0.5
026,70,1,2,4,45,195,288.55481271841563,289.359813695075,"[81, 0, 173]",173,l,0.28172704589087516,colour,0.5
026,70,1,2,4,46,196,289.8673503306927,290.49583389784675,"[1, 0, 253]",253,a,0.10519663942977786,colour,0.5
026,70,1,2,4,47,197,291.0079875891097,291.6078810931649,"[7, 0, 247]",247,a,0.07689684070646763,colour,0.5
026,70,1,2,4,48,198,292.1172546261223,293.17582975456025,"[49, 0, 205]",205,l,0.5352031299844384,colour,0.5
026,70,1,2,4,49,199,293.69546257983893,295.27181236865,"[22, 0, 232]",232,a,1.0531321779126301,colour,0.5
026,70,1,2,4,50,200,295.78914789063856,296.3358773153741,"[61, 0, 193]",193,l,0.02371621981728822,colour,0.5
026,70,1,2,5,1,201,302.3052124719834,303.83981222996954,"[22, 0, 232]",232,a,1.0104625169187784,colour,0.4
026,70,1,2,5,2,202,304.3528918530792,305.45580969995353,"[3, 0, 251]",251,a,0.580223263357766,colour,0.4
026,70,1,2,5,3,203,305.96222702541854,307.13580358738545,"[76, 0, 178]",178,l,0.6502376465359703,colour,0.4
026,70,1,2,5,4,204,307.64976266841404,308.1838854789967,"[14, 0, 240]",240,a,0.010865815100260079,colour,0.4
026,70,1,2,5,5,205,308.6965381731279,309.36777410889044,"[81, 0, 173]",173,l,0.1478473957395181,colour,0.4
026,70,1,2,5,6,206,309.8840899638599,311.26379957341123,"[75, 0, 179]",179,l,0.8565711616538465,colour,0.4
026,70,1,2,5,7,207,311.77465593616944,312.9118163228268,"[7, 0, 247]",247,a,0.6137950834818184,colour,0.4
026,70,1,2,5,8,208,313.43102103762794,314.07981878356077,"[40, 0, 214]",214,a,0.12560061505064368,colour,0.4
026,70,1,2,5,9,209,314.5871990623418,315.76780419866554,"[21, 0, 233]",233,a,0.6572575563332066,colour,0.4
026,70,1,2,5,10,210,316.2746768100187,316.8318364562001,"[98, 0, 156]",156,l,0.03388532146345824,colour,0.4
026,70,1,2,5,11,211,317.35278039460536,317.9118021443719,"[78, 0, 176]",176,l,0.035794292693026364,colour,0.4
026,70,1,2,5,12,212,318.43096314230934,319.0638101284858,"[71, 0, 183]",183,l,0.10960338148288429,colour,0.4
026,70,1,2,5,13,213,319.57150430232286,320.9841547908727,"[15, 0, 239]",239,a,0.8894852591911331,colour,0.4
026,70,1,2,5,14,214,321.49349681613967,322.8078165812185,"[62, 0, 192]",192,l,0.7911312987562269,colour,0.4
026,70,1,2,5,15,215,323.32149760692846,323.84784786833916,"[97, 0, 157]",157,l,0.002995592076331377,colour,0.4
026,70,1,2,5,16,216,324.3683629084844,325.77583865541965,"[94, 0, 160]",160,l,0.8842404129682109,colour,0.4
026,70,1,2,5,17,217,326.2920788920019,327.0718122898834,"[66, 0, 188]",188,l,0.26870728738140315,colour,0.4
026,70,1,2,5,18,218,327.58903320273384,329.1278187552234,"[56, 0, 198]",198,l,1.0154734185198322,colour,0.4
026,70,1,2,5,19,219,329.6385746872984,330.17614443739876,"[70, 0, 184]",184,l,0.014272188418544829,colour,0.4
026,70,1,2,5,20,220,330.6854281735141,331.36777962266933,"[45, 0, 209]",209,a,0.15824610961135477,colour,0.4
026,70,1,2,5,21,221,331.8739752129186,334.07182764983736,"[54, 0, 200]",200,a,1.674945964361541,colour,0.4
026,70,1,2,5,22,222,334.59264437598176,335.2637416779762,"[88, 0, 166]",166,l,0.14811009098775685,colour,0.4
026,70,1,2,5,23,223,335.78017096058466,336.42378569417633,"[37, 0, 217]",217,a,0.12023407046217471,colour,0.4
026,70,1,2,5,24,224,336.93639348982833,337.50378249620553,"[51, 0, 203]",203,a,0.044311998412013054,colour,0.4
026,70,1,2,5,25,225,338.00208580796607,338.56780766451266,"[90, 0, 164]",164,l,0.040492086787708104,colour,0.4
026,70,1,2,5,26,226,339.08214680687524,339.6797957830131,"[74, 0, 180]",180,l,0.07512689719442278,colour,0.4
026,70,1,2,5,27,227,340.19150403456297,340.91978461353574,"[53, 0, 201]",201,a,0.2049042482394725,colour,0.4
026,70,1,2,5,28,228,341.42584275151603,342.06379634386394,"[23, 0, 231]",231,a,0.11462531075812876,colour,0.4
026,70,1,2,5,29,229,342.58210230222903,343.1917942989385,"[85, 0, 169]",169,l,0.08641530887689441,colour,0.4
026,70,1,2,5,30,230,343.7070830038283,344.44783668313175,"[52, 0, 202]",202,l,0.21736395778134465,colour,0.4
026,70,1,2,5,31,231,344.9570562222507,345.5358151665423,"[10, 0, 244]",244,a,0.055364496540278196,colour,0.4
026,70,1,2,5,32,232,346.05081084999256,346.6557924494846,"[84, 0, 170]",170,l,0.08152216719463468,colour,0.4
026,70,1,2,5,33,233,347.17703886155505,348.1278163921088,"[55, 0, 199]",199,l,0.42741222749464214,colour,0.4
026,70,1,2,5,34,234,348.6333199950168,350.42381444503553,"[67, 0, 187]",187,l,1.2671378115192056,colour,0.4
026,70,1,2,5,35,235,350.93020065664314,351.4717679427704,"[31, 0, 223]",223,a,0.030737704830244184,colour,0.4
026,70,1,2,5,36,236,351.97521960840095,352.5117708729813,"[46, 0, 208]",208,a,0.013311598217114806,colour,0.4
026,70,1,2,5,37,237,353.02194982080255,353.6157828238793,"[68, 0, 186]",186,l,0.0705141737125814,colour,0.4
026,70,1,2,5,38,238,354.1314181131311,354.7438138620928,"[57, 0, 197]",197,l,0.0891521442681551,colour,0.4
026,70,1,2,5,39,239,355.258986776229,356.9758635464823,"[96, 0, 158]",158,l,1.1950336816953495,colour,0.4
026,70,1,2,5,40,240,357.49260278593283,358.8158045641612,"[1, 0, 253]",253,a,0.7997710967902094,colour,0.4
026,70,1,2,5,41,241,359.3363578073913,360.519782880554,"[38, 0, 216]",216,a,0.6602626006351784,colour,0.4
026,70,1,2,5,42,242,361.03952795197256,361.6718022861751,"[69, 0, 185]",185,l,0.10905711713712662,colour,0.4
026,70,1,2,5,43,243,362.18132902518846,362.8557614143938,"[30, 0, 224]",224,a,0.15112261835020036,colour,0.4
026,70,1,2,5,44,244,363.3688575789565,364.9358129609609,"[48, 0, 206]",206,a,1.0438736479263753,colour,0.4
026,70,1,2,5,45,245,365.4471084619872,366.9757879280951,"[72, 0, 182]",182,l,1.0055264459224418,colour,0.4
026,70,1,2,5,46,246,367.4939706127625,368.0237717521377,"[8, 0, 246]",246,a,0.006503971642814577,colour,0.4
026,70,1,2,5,47,247,368.5408166158013,369.1277549521765,"[20, 0, 234]",234,a,0.06357185170054436,colour,0.4
026,70,1,2,5,48,248,369.6346137789078,370.3119988309918,"[80, 0, 174]",174,l,0.154123330488801,colour,0.4
026,70,1,2,5,49,249,370.8220545051154,371.4238183834823,"[36, 0, 218]",218,a,0.07837927679065615,colour,0.4
026,70,1,2,5,50,250,371.93150468042586,372.5357915357454,"[64, 0, 190]",190,l,0.08794933883473277,colour,0.4
026,70,1,2,6,1,251,379.8219028743915,381.43175477255136,"[82, 0, 172]",172,l,1.085093168192543,colour,0.28
026,70,1,2,6,2,252,381.95205201604404,383.63175878988113,"[95, 0, 159]",159,l,1.156710110604763,colour,0.28
026,70,1,2,6,3,253,384.1395081022056,385.2317637522938,"[31, 0, 223]",223,a,0.5689998362213373,colour,0.28
026,70,1,2,6,4,254,385.74884603137616,386.2797448192723,"[70, 0, 184]",184,l,0.0075838969787582755,colour,0.28
026,70,1,2,6,5,255,386.79562508070376,388.407819574466,"[58, 0, 196]",196,l,1.0873483299510553,colour,0.28
026,70,1,2,6,6,256,388.92218195367604,390.54376022028737,"[98, 0, 156]",156,l,1.098357898881659,colour,0.28
026,70,1,2,6,7,257,391.06278061517514,392.1917679113103,"[83, 0, 171]",171,l,0.6046452551381662,colour,0.28
026,70,1,2,6,8,258,392.70437058690004,394.055739437812,"[91, 0, 163]",163,l,0.8280236339196563,colour,0.28
026,70,1,2,6,9,259,394.5637258454226,395.9117099844152,"[90, 0, 164]",164,l,0.8251335924724117,colour,0.28
026,70,1,2,6,10,260,396.4229775223648,398.0317471319577,"[88, 0, 166]",166,l,1.0856555801583454,colour,0.28
026,70,1,2,6,11,261,398.5479152947664,399.78381285385694,"[51, 0, 203]",203,a,0.7124794806586578,colour,0.28
026,70,1,2,6,12,262,400.2980606239289,401.3757794210687,"[22, 0, 232]",232,a,0.554323167889379,colour,0.28
026,70,1,2,6,13,263,401.8936663273489,402.4477736677509,"[79, 0, 175]",175,l,0.02803670964203775,colour,0.28
026,70,1,2,6,14,264,402.9591211564839,403.63972235436086,"[63, 0, 191]",191,l,0.1570787503151223,colour,0.28
026,70,1,2,6,15,265,404.14683206088375,404.6878235443728,"[25, 0, 229]",229,a,0.01849539822433144,colour,0.28
026,70,1,2,6,16,266,405.2091613287339,405.85575196216814,"[24, 0, 230]",230,a,0.12307685043197125,colour,0.28
026,70,1,2,6,17,267,406.365559907048,407.82372047333047,"[87, 0, 167]",167,l,0.9348905738443136,colour,0.28
026,70,1,2,6,18,268,408.33432083635125,409.7279139084276,"[60, 0, 194]",194,a,0.8704231166047975,colour,0.28
026,70,1,2,6,19,269,410.24052721785847,410.776273461408,"[64, 0, 190]",190,l,0.012384878820739686,colour,0.28
026,70,1,2,6,20,270,411.2873543163296,412.0557351055322,"[27, 0, 227]",227,a,0.24508913524914533,colour,0.28
026,70,1,2,6,21,271,412.5701790108578,413.6878077905858,"[74, 0, 180]",180,l,0.5947652363684028,colour,0.28
026,70,1,2,6,22,272,414.1951285985997,415.16778190701734,"[73, 0, 181]",181,l,0.44936913764104247,colour,0.28
026,70,1,2,6,23,273,415.68616899766494,417.279796806979,"[80, 0, 174]",174,l,1.0704665184020996,colour,0.28
026,70,1,2,6,24,274,417.78910771838855,418.7437504528789,"[99, 0, 155]",155,l,0.431369197438471,colour,0.28
026,70,1,2,6,25,275,419.2578229615465,420.047754999483,"[62, 0, 192]",192,l,0.2664804826490581,colour,0.28
026,70,1,2,6,26,276,420.55469298921525,421.287750131567,"[61, 0, 193]",193,l,0.209794239141047,colour,0.28
026,70,1,2,6,27,277,421.8046981091611,422.7517640359001,"[76, 0, 178]",178,l,0.4237510358216241,colour,0.28
026,70,1,2,6,28,278,423.25786589074414,424.97578320198227,"[71, 0, 183]",183,l,1.1946075403830037,colour,0.28
026,70,1,2,6,29,279,425.49209157389123,426.90380707220174,"[85, 0, 169]",169,l,0.8884793766774237,colour,0.28
026,70,1,2,6,30,280,427.4152652316261,427.99973612325266,"[46, 0, 208]",208,a,0.06119223462883383,colour,0.28
026,70,1,2,6,31,281,428.508889102377,429.12777346291114,"[1, 0, 253]",253,a,0.09539145126473159,colour,0.28
026,70,1,2,6,32,282,429.6339371516369,430.2077852310613,"[92, 0, 162]",162,l,0.05039494868833572,colour,0.28
026,70,1,2,6,33,283,430.72770556388423,431.50375847157557,"[9, 0, 245]",245,a,0.25276873679831624,colour,0.28
026,70,1,2,6,34,284,432.0246764161857,432.56772062461823,"[10, 0, 244]",244,a,0.01977500377688557,colour,0.28
026,70,1,2,6,35,285,433.0876047236379,433.6397038436262,"[78, 0, 176]",176,l,0.02872909069992602,colour,0.28
026,70,1,2,6,36,286,434.15013288357295,435.8237732487032,"[84, 0, 170]",170,l,1.150915849255398,colour,0.28
026,70,1,2,6,37,287,436.3376811296912,438.06373332848307,"[97, 0, 157]",157,l,1.2028909078799188,colour,0.28
026,70,1,2,6,38,288,438.5741552792024,439.3357363186078,"[52, 0, 202]",202,l,0.23825984704308212,colour,0.28
026,70,1,2,6,39,289,439.85541876847856,440.3997264346108,"[50, 0, 204]",204,a,0.02130155055783689,colour,0.28
026,70,1,2,6,40,290,440.91795874387026,443.5837714212248,"[29, 0, 225]",225,a,2.1429097494110465,colour,0.28
026,70,1,2,6,41,291,444.1039564185776,444.8477517699357,"[59, 0, 195]",195,a,0.22048754978459328,colour,0.28
026,70,1,2,6,42,292,445.3540312492987,446.7277555823093,"[34, 0, 220]",220,a,0.8504464636789635,colour,0.28
026,70,1,2,6,43,293,447.24461494467687,447.82376458414365,"[57, 0, 197]",197,l,0.05574652715586126,colour,0.28
026,70,1,2,6,44,294,448.3383400338935,449.17572184081655,"[94, 0, 160]",160,l,0.31407873146235943,colour,0.28
026,70,1,2,6,45,295,449.68199265550356,450.22372693242505,"[38, 0, 216]",216,a,0.018676567473448813,colour,0.28
026,70,1,2,6,46,296,450.74456610775087,451.4237195281312,"[75, 0, 179]",179,l,0.1557936311000958,colour,0.28
026,70,1,2,6,47,297,451.93209348013625,453.399753609905,"[81, 0, 173]",173,l,0.9443377559073269,colour,0.28
026,70,1,2,6,48,298,453.91640620317776,454.45574550307356,"[18, 0, 236]",236,a,0.01589010760653764,colour,0.28
026,70,1,2,6,49,299,454.9632888339693,455.7277528254781,"[69, 0, 185]",185,l,0.2411416176473722,colour,0.28
026,70,1,2,6,50,300,456.2445739847608,457.8156962565845,"[42, 0, 212]",212,a,1.047717190347612,colour,0.28
026,70,1,2,7,1,301,473.06332884868607,475.87972181872465,"[96, 0, 158]",158,l,2.2922880242113024,colour,0.14
026,70,1,2,7,2,302,476.39222878974397,476.9756804081844,"[73, 0, 181]",181,l,0.06018005055375397,colour,0.14
026,70,1,2,7,3,303,477.4860405251384,479.1277864598669,"[82, 0, 172]",172,l,1.118759511387907,colour,0.14
026,70,1,2,7,4,304,479.64212166366633,481.7598150342237,"[83, 0, 171]",171,l,1.594202036736533,colour,0.14
026,70,1,2,7,5,305,482.2685426598182,482.8636950466316,"[34, 0, 220]",220,a,0.07206671428866684,colour,0.14
026,70,1,2,7,6,306,483.3778786198236,483.9917288417928,"[64, 0, 190]",190,l,0.09063142957165837,colour,0.14
026,70,1,2,7,7,307,484.5028876782162,485.0397162103327,"[99, 0, 155]",155,l,0.013660545810125768,colour,0.14
026,70,1,2,7,8,308,485.54967578605283,486.19183762196917,"[51, 0, 203]",203,a,0.11892650194931775,colour,0.14
026,70,1,2,7,9,309,486.6934535718756,487.231710976921,"[87, 0, 167]",167,l,0.014928335789591074,colour,0.14
026,70,1,2,7,10,310,487.74031375336926,488.30371585744433,"[10, 0, 244]",244,a,0.040089182439260185,colour,0.14
026,70,1,2,7,11,311,488.81844018108677,490.52771926973946,"[93, 0, 161]",161,l,1.1860327270114794,colour,0.14
026,70,1,2,7,12,312,491.0379710791167,492.41568231442943,"[98, 0, 156]",156,l,0.8597758859395981,colour,0.14
026,70,1,2,7,13,313,492.92873594362754,494.2236899109557,"[69, 0, 185]",185,l,0.771730842650868,colour,0.14
026,70,1,2,7,14,314,494.7412034512963,495.34372902766336,"[33, 0, 221]",221,a,0.07915909169241786,colour,0.14
026,70,1,2,7,15,315,495.8505791898351,496.3917345131049,"[48, 0, 206]",206,a,0.017861700151115656,colour,0.14
026,70,1,2,7,16,316,496.9129844697891,497.44771222781856,"[55, 0, 199]",199,a,0.011375057976692915,colour,0.14
026,70,1,2,7,17,317,497.95992184523493,498.5676855723141,"[94, 0, 160]",160,l,0.08464182075113058,colour,0.14
026,70,1,2,7,18,318,499.0848867929308,499.71972703328356,"[71, 0, 183]",183,l,0.11157812492456287,colour,0.14
026,70,1,2,7,19,319,500.22749131172895,501.78369942621794,"[76, 0, 178]",178,l,1.0328648667782545,colour,0.14
026,70,1,2,7,20,320,502.2908410342643,503.1277364414418,"[61, 0, 193]",193,l,0.3137573531130329,colour,0.14
026,70,1,2,7,21,321,503.63430736679584,504.1677567008883,"[52, 0, 202]",202,a,0.01013562479056418,colour,0.14
026,70,1,2,7,22,322,504.68366177449934,505.28773201454896,"[74, 0, 180]",180,l,0.08070572454016656,colour,0.14
026,70,1,2,7,23,323,505.8087102175923,507.7996734229382,"[66, 0, 188]",188,l,1.4676723390584812,colour,0.14
026,70,1,2,7,24,324,508.30732151691336,509.50367379467934,"[46, 0, 208]",208,a,0.6730401439126581,colour,0.14
026,70,1,2,7,25,325,510.0103561785072,510.67170540010557,"[58, 0, 196]",196,a,0.13807962310966104,colour,0.14
026,70,1,2,7,26,326,511.1822273876751,511.7997254106449,"[59, 0, 195]",195,a,0.09488023933954537,colour,0.14
026,70,1,2,7,27,327,512.307217147667,513.7197207317222,"[77, 0, 177]",177,l,0.8892020839266479,colour,0.14
026,70,1,2,7,28,328,514.2290946585126,515.1036807263736,"[65, 0, 189]",189,l,0.35121485707350075,colour,0.14
026,70,1,2,7,29,329,515.6197661815677,517.4316976648988,"[80, 0, 174]",174,l,1.2888273000717163,colour,0.14
026,70,1,2,7,30,330,517.9486680917908,519.3357048109174,"[57, 0, 197]",197,a,0.863609976018779,colour,0.14
026,70,1,2,7,31,331,519.8549689963693,521.3917250608793,"[86, 0, 168]",168,l,1.0135191550944,colour,0.14
026,70,1,2,7,32,332,521.9016255596653,522.4316815172788,"[54, 0, 200]",200,a,0.005536292097531259,colour,0.14
026,70,1,2,7,33,333,522.9498882264597,524.1116828878876,"[0, 0, 254]",254,a,0.6384462936548516,colour,0.14
026,70,1,2,7,34,334,524.6218456879724,525.1676862024469,"[68, 0, 186]",186,l,0.022836368065327406,colour,0.14
026,70,1,2,7,35,335,525.6842415157007,526.2556678366382,"[56, 0, 198]",198,a,0.04806928848847747,colour,0.14
026,70,1,2,7,36,336,526.7623848788207,527.2956963668112,"[89, 0, 165]",165,l,0.010320732370018959,colour,0.14
026,70,1,2,7,37,337,527.8091792881023,528.5116889530327,"[97, 0, 157]",157,l,0.17905574652832001,colour,0.14
026,70,1,2,7,38,338,529.0280981495744,529.6956870720023,"[72, 0, 182]",182,l,0.1446663021342829,colour,0.14
026,70,1,2,7,39,339,530.2154549865518,531.9357464009663,"[78, 0, 176]",176,l,1.1969599820440635,colour,0.14
026,70,1,2,7,40,340,532.4498358450364,533.0316699382383,"[27, 0, 227]",227,a,0.0583758425200358,colour,0.14
026,70,1,2,7,41,341,533.5436168604065,534.2077056742273,"[95, 0, 159]",159,l,0.14086765830870718,colour,0.14
026,70,1,2,7,42,342,534.7155270603253,535.4476846585749,"[88, 0, 166]",166,l,0.20883640588726848,colour,0.14
026,70,1,2,7,43,343,535.9655825926457,537.2797515146667,"[84, 0, 170]",170,l,0.7909044434782118,colour,0.14
026,70,1,2,7,44,344,537.7821925716707,538.4396651679417,"[63, 0, 191]",191,l,0.13438692374620587,colour,0.14
026,70,1,2,7,45,345,538.9542579470435,539.7676852572476,"[60, 0, 194]",194,a,0.29021442553494126,colour,0.14
026,70,1,2,7,46,346,540.2823209655471,540.8236862086924,"[92, 0, 162]",162,l,0.018066500080749393,colour,0.14
026,70,1,2,7,47,347,541.3447435747366,541.871686180355,"[79, 0, 175]",175,l,0.0036407116567716002,colour,0.14
026,70,1,2,7,48,348,542.3916935531888,544.0076784200501,"[75, 0, 179]",179,l,1.0927904929267243,colour,0.14
026,70,1,2,7,49,349,544.5167388455011,545.671623480157,"[90, 0, 164]",164,l,0.6319561067502946,colour,0.14
026,70,1,2,7,50,350,546.1682667313144,547.3676626504166,"[81, 0, 173]",173,l,0.676793101709336,colour,0.14
026,70,1,2,8,1,351,552.7510874085128,553.4156322960043,"[98, 0, 156]",156,l,0.1405632154783234,colour,0.06
026,70,1,2,8,2,352,553.9237404019805,554.487699404126,"[39, 0, 215]",215,a,0.04062520677689463,colour,0.06
026,70,1,2,8,3,353,555.0018144481583,555.903714124579,"[66, 0, 188]",188,l,0.3785587918246165,colour,0.06
026,70,1,2,8,4,354,556.4237214972964,557.7276661793003,"[60, 0, 194]",194,a,0.7806423942092806,colour,0.06
026,70,1,2,8,5,355,558.2362149988767,559.5196659083012,"[85, 0, 169]",169,l,0.7607141843764111,colour,0.06
026,70,1,2,8,6,356,560.0331472542603,561.135676375241,"[83, 0, 171]",171,l,0.5791913870489225,colour,0.06
026,70,1,2,8,7,357,561.6424324081745,562.4636531413998,"[96, 0, 158]",158,l,0.2960551604628563,colour,0.06
026,70,1,2,8,8,358,562.9724429947091,564.2876359161455,"[80, 0, 174]",174,l,0.791788627509959,colour,0.06
026,70,1,2,8,9,359,564.8005611515837,566.247663705959,"[78, 0, 176]",176,l,0.9237553681014106,colour,0.06
026,70,1,2,8,10,360,566.7693378346739,567.2956774622435,"[50, 0, 204]",204,a,0.0031468289671465755,colour,0.06
026,70,1,2,8,11,361,567.817676119972,568.3916521993233,"[84, 0, 170]",170,l,0.05050049931742251,colour,0.06
026,70,1,2,8,12,362,568.9116320029134,569.4476429108763,"[71, 0, 183]",183,l,0.012694441713392735,colour,0.06
026,70,1,2,8,13,363,569.9584279876435,571.3756896242267,"[76, 0, 178]",178,l,0.8939195703715086,colour,0.06
026,70,1,2,8,14,364,571.8960175875109,573.0396587088471,"[89, 0, 165]",165,l,0.620796482427977,colour,0.06
026,70,1,2,8,15,365,573.5625852675876,574.5276412882376,"[87, 0, 167]",167,l,0.4416540898382664,colour,0.06
026,70,1,2,8,16,366,575.0470137813827,575.5996449872619,"[61, 0, 193]",193,a,0.029412807198241353,colour,0.06
026,70,1,2,8,17,367,576.1093339907238,576.8156296965899,"[21, 0, 233]",233,a,0.182731116656214,colour,0.06
026,70,1,2,8,18,368,577.3344508054433,577.9836439726641,"[55, 0, 199]",199,a,0.1258495255606249,colour,0.06
026,70,1,2,8,19,369,578.4907410761807,580.1036700925324,"[81, 0, 173]",173,l,1.089656660798937,colour,0.06
026,70,1,2,8,20,370,580.6070488967234,581.1997133588884,"[54, 0, 200]",200,a,0.07225772959645838,colour,0.06
026,70,1,2,8,21,371,581.7135456214892,582.3276419971371,"[58, 0, 196]",196,a,0.09078739245887846,colour,0.06
026,70,1,2,8,22,372,582.8385826430749,583.3916525931563,"[88, 0, 166]",166,l,0.029734579264186323,colour,0.06
026,70,1,2,8,23,373,583.9009950122563,584.5756286567776,"[70, 0, 184]",184,l,0.15157081501092762,colour,0.06
026,70,1,2,8,24,374,585.0768665145151,586.663694574032,"[86, 0, 168]",168,l,1.0636332916328683,colour,0.06
026,70,1,2,8,25,375,587.1683451066492,588.375662448816,"[99, 0, 155]",155,l,0.6841040635481477,colour,0.06
026,70,1,2,8,26,376,588.8896392529132,589.4156559266848,"[95, 0, 159]",159,l,0.0028073337161913514,colour,0.06
026,70,1,2,8,27,377,589.9378361474955,590.567611923092,"[77, 0, 177]",177,l,0.1064427678938955,colour,0.06
026,70,1,2,8,28,378,591.0784682859667,591.6076703856234,"[63, 0, 191]",191,a,0.00619559024926275,colour,0.06
026,70,1,2,8,29,379,592.1252918398241,592.7356506176293,"[97, 0, 157]",157,l,0.08702892088331282,colour,0.06
026,70,1,2,8,30,380,593.2503623382654,594.9836325511569,"[94, 0, 160]",160,l,1.2098911252105609,colour,0.06
026,70,1,2,8,31,381,595.5002906582085,596.1997082389425,"[73, 0, 181]",181,l,0.17606960679404438,colour,0.06
026,70,1,2,8,32,382,596.7190886089811,598.0956435126718,"[82, 0, 172]",172,l,0.8515716815600172,colour,0.06
026,70,1,2,8,33,383,598.6137037113076,600.0636297470191,"[59, 0, 195]",195,a,0.9272865906823426,colour,0.06
026,70,1,2,8,34,384,600.582409108174,601.1436324566603,"[75, 0, 179]",179,l,0.03791948524303734,colour,0.06
026,70,1,2,8,35,385,601.6605717696948,602.3116447635693,"[62, 0, 192]",192,a,0.12778882298152894,colour,0.06
026,70,1,2,8,36,386,602.8323898097733,603.3996594807832,"[69, 0, 185]",185,a,0.04386458941735327,colour,0.06
026,70,1,2,8,37,387,603.9105489266803,604.447631095536,"[93, 0, 161]",161,l,0.013838957995176315,colour,0.06
026,70,1,2,8,38,388,604.9573693297571,605.5596381186042,"[56, 0, 198]",198,a,0.07880738726817071,colour,0.06
026,70,1,2,8,39,389,606.0667974497192,606.7197518455796,"[28, 0, 226]",226,a,0.12966156040783972,colour,0.06
026,70,1,2,8,40,390,607.240608743974,607.8076551043196,"[74, 0, 180]",180,l,0.043861438636668026,colour,0.06
026,70,1,2,8,41,391,608.3184819287853,609.8236054703593,"[91, 0, 163]",163,l,0.981837795348838,colour,0.06
026,70,1,2,8,42,392,610.3341892918106,611.439597032615,"[79, 0, 175]",175,l,0.5821345977019519,colour,0.06
026,70,1,2,8,43,393,611.9591183995362,612.5116074269172,"[53, 0, 201]",201,a,0.028999662841670215,colour,0.06
026,70,1,2,8,44,394,613.0216280487366,613.7196959194262,"[72, 0, 182]",182,l,0.1748022106476128,colour,0.06
026,70,1,2,8,45,395,614.2404515994713,614.8156092165736,"[68, 0, 186]",186,l,0.05185217852704227,colour,0.06
026,70,1,2,8,46,396,615.3341270640958,616.8156178812496,"[90, 0, 164]",164,l,0.9580664371605963,colour,0.06
026,70,1,2,8,47,397,617.3348568605725,619.1836286914768,"[92, 0, 162]",162,l,1.3257566568208858,colour,0.06
026,70,1,2,8,48,398,619.6942243282683,620.2636703918688,"[57, 0, 197]",197,a,0.04649390478152782,colour,0.06
026,70,1,2,8,49,399,620.7724204667611,621.3036717467476,"[64, 0, 190]",190,a,0.007955687586218119,colour,0.06
026,70,1,2,8,50,400,621.8202183954418,623.0316360674333,"[52, 0, 202]",202,a,0.6880728488322347,colour,0.06
026,70,1,2,9,1,401,631.4135275833542,631.9356526656775,"[68, 0, 186]",186,a,0.010388080030679703,colour,0.06
026,70,1,2,9,2,402,632.4462849302217,633.8636084005702,"[59, 0, 195]",195,a,0.8940459949662909,colour,0.06
026,70,1,2,9,3,403,634.3838418408995,635.1835944268387,"[69, 0, 185]",185,l,0.27656293811742216,colour,0.06
026,70,1,2,9,4,404,635.6962955640629,637.031599045964,"[94, 0, 160]",160,l,0.8120728741632774,colour,0.06
026,70,1,2,9,5,405,637.5400588562479,638.3116065604845,"[65, 0, 189]",189,l,0.2483352132840082,colour,0.06
026,70,1,2,9,6,406,638.821272327099,639.9516109086107,"[66, 0, 188]",188,l,0.6070622876286507,colour,0.06
026,70,1,2,9,7,407,640.461909979349,642.359605350648,"[86, 0, 168]",168,l,1.374692406388931,colour,0.06
026,70,1,2,9,8,408,642.8681356593734,644.2155912572052,"[51, 0, 203]",203,a,0.8241698516067117,colour,0.06
026,70,1,2,9,9,409,644.727466893266,645.8876113402657,"[52, 0, 202]",202,a,0.6368441284867004,colour,0.06
026,70,1,2,9,10,410,646.3994578316342,646.9676301975269,"[67, 0, 187]",187,l,0.0448499919148162,colour,0.06
026,70,1,2,9,11,411,647.4775834716856,648.0556047424907,"[42, 0, 212]",212,a,0.05467644764576107,colour,0.06
026,70,1,2,9,12,412,648.5713089547353,649.1196236093529,"[82, 0, 172]",172,l,0.024967468343675137,colour,0.06
026,70,1,2,9,13,413,649.6281503734645,651.1276541276602,"[74, 0, 180]",180,l,0.9765630170004442,colour,0.06
026,70,1,2,9,14,414,651.6437927519437,652.9755973067367,"[83, 0, 171]",171,l,0.8170207604998723,colour,0.06
026,70,1,2,9,15,415,653.4947011969052,655.015613233787,"[79, 0, 175]",175,l,0.9975837552919984,colour,0.06
026,70,1,2,9,16,416,655.5258713447256,656.8715755096637,"[80, 0, 174]",174,l,0.8222695449367166,colour,0.06
026,70,1,2,9,17,417,657.3857031567022,657.9196109274635,"[27, 0, 227]",227,a,0.010661015287041664,colour,0.06
026,70,1,2,9,18,418,658.43258224288,659.0956281527178,"[95, 0, 159]",159,l,0.14265217422507703,colour,0.06
026,70,1,2,9,19,419,659.6170616415329,660.215643638745,"[6, 0, 248]",248,a,0.07525686628650874,colour,0.06
026,70,1,2,9,20,420,660.7264543154743,661.5755762753543,"[60, 0, 194]",194,l,0.32607606588862836,colour,0.06
026,70,1,2,9,21,421,662.0858280846151,663.8076050858945,"[71, 0, 183]",183,l,1.198686602525413,colour,0.06
026,70,1,2,9,22,422,664.3220375697128,666.3355685401475,"[85, 0, 169]",169,l,1.490544940927066,colour,0.06
026,70,1,2,9,23,423,666.8533081482165,667.3836500379257,"[84, 0, 170]",170,l,0.007232192670926452,colour,0.06
026,70,1,2,9,24,424,667.9001722681569,668.5996178118512,"[75, 0, 179]",179,l,0.17607708973810077,colour,0.06
026,70,1,2,9,25,425,669.1188953882083,669.671598667861,"[56, 0, 198]",198,a,0.0343205212848261,colour,0.06
026,70,1,2,9,26,426,670.1920408465667,670.7196293594316,"[88, 0, 166]",166,l,0.004287012852728367,colour,0.06
026,70,1,2,9,27,427,671.2389348988654,671.8155741642695,"[63, 0, 191]",191,a,0.05324678693432361,colour,0.06
026,70,1,2,9,28,428,672.3326127266046,673.775642126333,"[97, 0, 157]",157,l,0.9200240718200803,colour,0.06
026,70,1,2,9,29,429,674.2858045327011,676.1036696986994,"[93, 0, 161]",161,l,1.2946731550619006,colour,0.06
026,70,1,2,9,30,430,676.6141877479386,677.1595635241829,"[78, 0, 176]",176,l,0.02218534075655043,colour,0.06
026,70,1,2,9,31,431,677.6766816432355,678.2476656752406,"[81, 0, 173]",173,l,0.04851236520335078,colour,0.06
026,70,1,2,9,32,432,678.7547513571335,680.3755852549803,"[90, 0, 164]",164,l,1.097561936127022,colour,0.06
026,70,1,2,9,33,433,680.8953996433411,682.4875757365953,"[91, 0, 163]",163,l,1.0690789992222562,colour,0.06
026,70,1,2,9,34,434,683.0058868149063,684.3036363006104,"[50, 0, 204]",204,a,0.774423960945569,colour,0.06
026,70,1,2,9,35,435,684.8183818919351,686.1996089897584,"[99, 0, 155]",155,l,0.8580197269329801,colour,0.06
026,70,1,2,9,36,436,686.7089943380561,687.7996104075573,"[55, 0, 199]",199,a,0.5672838494647294,colour,0.06
026,70,1,2,9,37,437,688.3183688949794,689.607615247136,"[96, 0, 158]",158,l,0.7660468581598252,colour,0.06
026,70,1,2,9,38,438,690.1152420734288,691.2875862916699,"[62, 0, 192]",192,a,0.6490368105005473,colour,0.06
026,70,1,2,9,39,439,691.8027430580696,692.4876107887831,"[92, 0, 162]",162,l,0.16085652029141784,colour,0.06
026,70,1,2,9,40,440,693.0069919466041,693.8955737232463,"[72, 0, 182]",182,l,0.365281458129175,colour,0.06
026,70,1,2,9,41,441,694.4132778850617,695.6635472757043,"[76, 0, 178]",178,l,0.7270352381747216,colour,0.06
026,70,1,2,9,42,442,696.1788367681438,696.8635977667291,"[58, 0, 196]",196,a,0.16142996004782617,colour,0.06
026,70,1,2,9,43,443,697.3819986419985,698.6876490706345,"[77, 0, 177]",177,l,0.7824166701175272,colour,0.06
026,70,1,2,9,44,444,699.1945201065391,700.3995980408508,"[53, 0, 201]",201,a,0.6817799787968397,colour,0.06
026,70,1,2,9,45,445,700.913194783614,702.1916198252002,"[89, 0, 165]",165,l,0.7551168461795896,colour,0.06
026,70,1,2,9,46,446,702.7113322074292,703.9275737042772,"[87, 0, 167]",167,l,0.6931006859522313,colour,0.06
026,70,1,2,9,47,447,704.4335235346807,705.0716059146216,"[73, 0, 181]",181,l,0.11478875682223588,colour,0.06
026,70,1,2,9,48,448,705.5897330669686,706.1516129565425,"[54, 0, 200]",200,a,0.038427940336987376,colour,0.06
026,70,1,2,9,49,449,706.6623306856491,707.2635703550186,"[64, 0, 190]",190,a,0.09055187262129039,colour,0.06
026,70,1,2,9,50,450,707.7748363176361,708.3355996540049,"[57, 0, 197]",197,a,0.03750240243971348,colour,0.06
026,70,1,2,10,1,451,715.445901718107,717.1435729858931,"[82, 0, 172]",172,l,1.1736049189930782,colour,0.06
026,70,1,2,10,2,452,717.6509623230668,719.4476267632563,"[77, 0, 177]",177,l,1.2737394567811862,colour,0.06
026,70,1,2,10,3,453,719.9603893402964,720.6796047677053,"[58, 0, 196]",196,a,0.1959564626449719,colour,0.06
026,70,1,2,10,4,454,721.1970194528112,721.7675407157512,"[70, 0, 184]",184,l,0.047225670539774,colour,0.06
026,70,1,2,10,5,455,722.2765381258214,722.8235727811698,"[93, 0, 161]",161,l,0.023695346084423363,colour,0.06
026,70,1,2,10,6,456,723.3409854969941,723.8795938187977,"[78, 0, 176]",176,l,0.015230415621772408,colour,0.06
026,70,1,2,10,7,457,724.3754883689107,725.7835895431926,"[84, 0, 170]",170,l,0.884868597262539,colour,0.06
026,70,1,2,10,8,458,726.2972697812365,727.4157165789511,"[94, 0, 160]",160,l,0.5950511684641242,colour,0.06
026,70,1,2,10,9,459,727.9223178304965,729.1036641849205,"[87, 0, 167]",167,l,0.6580968420021236,colour,0.06
026,70,1,2,10,10,460,729.5985552156344,730.1275982015068,"[24, 0, 230]",230,a,0.0056851658737286925,colour,0.06
026,70,1,2,10,11,461,730.6331356752198,731.8315769117326,"[73, 0, 181]",181,l,0.6751003519166261,colour,0.06
026,70,1,2,10,12,462,732.3518505244283,734.5355367173906,"[96, 0, 158]",158,l,1.6604406189871952,colour,0.06
026,70,1,2,10,13,463,735.0549871921539,735.6715281694196,"[74, 0, 180]",180,l,0.09324341570027173,colour,0.06
026,70,1,2,10,14,464,736.1734048451763,736.8555696114199,"[57, 0, 197]",197,a,0.1589105275925249,colour,0.06
026,70,1,2,10,15,465,737.3682845331496,738.0316163750831,"[3, 0, 251]",251,l,0.1405569138005376,colour,0.06
026,70,1,2,10,16,466,738.5398308194708,740.1195594124729,"[67, 0, 187]",187,l,1.0563120899023488,colour,0.06
026,70,1,2,10,17,467,740.6301006984431,741.2955750622787,"[68, 0, 186]",186,l,0.14220358373131603,colour,0.06
026,70,1,2,10,18,468,741.8019360677572,744.3195839095861,"[79, 0, 175]",175,l,1.9896272799232975,colour,0.06
026,70,1,2,10,19,469,744.8378930188483,745.9675537914736,"[83, 0, 171]",171,l,0.6063261894742027,colour,0.06
026,70,1,2,10,20,470,746.4784834096208,747.7675497742603,"[76, 0, 178]",178,l,0.765723904594779,colour,0.06
026,70,1,2,10,21,471,748.2754901018925,748.9035900630988,"[55, 0, 199]",199,a,0.10493236884940416,colour,0.06
026,70,1,2,10,22,472,749.4159658834105,751.911593799945,"[65, 0, 189]",189,l,1.9722397703444585,colour,0.06
026,70,1,2,10,23,473,752.432808310492,754.239541421528,"[90, 0, 164]",164,l,1.2836100232088938,colour,0.06
026,70,1,2,10,24,474,754.7609418273205,755.2955396161415,"[91, 0, 163]",163,l,0.011332128662616014,colour,0.06
026,70,1,2,10,25,475,755.8096137001412,757.3355130079435,"[80, 0, 174]",174,l,1.003232293529436,colour,0.06
026,70,1,2,10,26,476,757.8565116908867,758.4315606065793,"[72, 0, 182]",182,l,0.051756867906078696,colour,0.06
026,70,1,2,10,27,477,758.9503143677721,760.4795708182501,"[98, 0, 156]",156,l,1.0058860273566097,colour,0.06
026,70,1,2,10,28,478,760.9846864828141,761.5115849777358,"[61, 0, 193]",193,a,0.0020113710779696703,colour,0.06
026,70,1,2,10,29,479,762.023136872449,762.5599437430501,"[53, 0, 201]",201,a,0.013607770437374711,colour,0.06
026,70,1,2,10,30,480,763.0699647585861,763.6555711081019,"[59, 0, 195]",195,a,0.06241670157760382,colour,0.06
026,70,1,2,10,31,481,764.1656838897616,764.8315627332777,"[71, 0, 183]",183,l,0.1428896632278338,colour,0.06
026,70,1,2,10,32,482,765.3375003543915,767.0075543585699,"[86, 0, 168]",168,l,1.1542099765501916,colour,0.06
026,70,1,2,10,33,483,767.5247634560801,768.1915891052922,"[64, 0, 190]",190,a,0.1434827953344211,colour,0.06
026,70,1,2,10,34,484,768.712186065386,769.2635691735195,"[95, 0, 159]",159,l,0.02809657424222678,colour,0.06
026,70,1,2,10,35,485,769.7747335238382,771.0155450984603,"[85, 0, 169]",169,l,0.7182662587147206,colour,0.06
026,70,1,2,10,36,486,771.5247520345729,772.1195554739097,"[36, 0, 218]",218,a,0.07146806851960719,colour,0.06
026,70,1,2,10,37,487,772.6301570184296,773.1600010870025,"[81, 0, 173]",173,l,0.00663236528635025,colour,0.06
026,70,1,2,10,38,488,773.6927938798908,775.6555778034963,"[89, 0, 165]",165,l,1.4397230633767322,colour,0.06
026,70,1,2,10,39,489,776.1768880184973,776.7115413396386,"[97, 0, 157]",157,l,0.011326221050694585,colour,0.06
026,70,1,2,10,40,490,777.2136287230533,777.7835257401457,"[69, 0, 185]",185,a,0.046502175624482334,colour,0.06
026,70,1,2,10,41,491,778.2917811445659,778.8315572194988,"[63, 0, 191]",191,l,0.028820856823585927,colour,0.06
026,70,1,2,10,42,492,779.3295312760165,780.3115080989664,"[56, 0, 198]",198,a,0.47111573396250606,colour,0.06
026,70,1,2,10,43,493,780.8328340679873,782.5436290695798,"[54, 0, 200]",200,a,1.187571483082138,colour,0.06
026,70,1,2,10,44,494,783.0388162723975,783.567547332379,"[99, 0, 155]",155,l,0.017720309551805258,colour,0.06
026,70,1,2,10,45,495,784.0908015709138,784.687527766102,"[88, 0, 166]",166,l,0.07327542745042592,colour,0.06
026,70,1,2,10,46,496,785.2001091740094,785.8795237141894,"[75, 0, 179]",179,l,0.15601418470032513,colour,0.06
026,70,1,2,10,47,497,786.3877952662297,787.0475379903801,"[66, 0, 188]",188,a,0.13672755006700754,colour,0.06
026,70,1,2,10,48,498,787.5595774663379,788.1514999227365,"[52, 0, 202]",202,a,0.06858039018698037,colour,0.06
026,70,1,2,10,49,499,788.6689209094038,789.1995361282025,"[92, 0, 162]",162,l,0.006070740986615419,colour,0.06
026,70,1,2,10,50,500,789.7190645843511,790.359532095259,"[62, 0, 192]",192,a,0.11726959224324673,colour,0.06
026,70,1,2,11,1,501,796.5933505417779,797.3274817018537,"[62, 0, 192]",192,a,0.2100821405183524,colour,0.06
026,70,1,2,11,2,502,797.8441724982113,799.4155421052128,"[89, 0, 165]",165,l,1.0481287592556328,colour,0.06
026,70,1,2,11,3,503,799.9223158612149,800.4715391183272,"[56, 0, 198]",198,a,0.026068661478348076,colour,0.06
026,70,1,2,11,4,504,800.984813695075,801.5915872935439,"[63, 0, 191]",191,a,0.0834835198475048,colour,0.06
026,70,1,2,11,5,505,802.109733350575,802.7435393515043,"[77, 0, 177]",177,l,0.11046826711390167,colour,0.06
026,70,1,2,11,6,506,803.2503784858854,803.9275055689504,"[98, 0, 156]",156,l,0.15376020455732942,colour,0.06
026,70,1,2,11,7,507,804.4254489055602,806.1755564254709,"[86, 0, 168]",168,l,1.2267875090474263,colour,0.06
026,70,1,2,11,8,508,806.6861067700665,808.0635076547042,"[92, 0, 162]",162,l,0.8661396482493728,colour,0.06
026,70,1,2,11,9,509,808.5806332569337,809.9835222742986,"[53, 0, 201]",201,a,0.8797836524900049,colour,0.06
026,70,1,2,11,10,510,810.5025076169986,811.8475323977182,"[79, 0, 175]",175,l,0.8217855083057657,colour,0.06
026,70,1,2,11,11,511,812.3618648446864,812.8875707740663,"[90, 0, 164]",164,l,0.014727868256159127,colour,0.06
026,70,1,2,11,12,512,813.3893092100043,814.9994690957246,"[74, 0, 180]",180,l,1.0867918257135898,colour,0.06
026,70,1,2,11,13,513,815.5143588345964,816.9034849061863,"[91, 0, 163]",163,l,0.8658257530769333,colour,0.06
026,70,1,2,11,14,514,817.4101011238527,818.775498372619,"[95, 0, 159]",159,l,0.8422292624600232,colour,0.06
026,70,1,2,11,15,515,819.2850798561703,820.0555236102082,"[78, 0, 176]",176,l,0.24712925706990063,colour,0.06
026,70,1,2,11,16,516,820.5662972654682,821.2715264364379,"[82, 0, 172]",172,l,0.19416288833599538,colour,0.06
026,70,1,2,11,17,517,821.7884094296023,823.2315093277721,"[96, 0, 158]",158,l,0.9196601582225412,colour,0.06
026,70,1,2,11,18,518,823.7415098634083,824.3034878206672,"[50, 0, 204]",204,a,0.0386673987377435,colour,0.06
026,70,1,2,11,19,519,824.8195886358153,826.2234874741407,"[87, 0, 167]",167,l,0.8781527366954833,colour,0.06
026,70,1,2,11,20,520,826.7439060220495,828.6394718684023,"[83, 0, 171]",171,l,1.372431336902082,colour,0.06
026,70,1,2,11,21,521,829.1501569082029,830.5515524618095,"[72, 0, 182]",182,l,0.8781700658146292,colour,0.06
026,70,1,2,11,22,522,831.0720344189322,832.4155409237137,"[80, 0, 174]",174,l,0.8202278477838263,colour,0.06
026,70,1,2,11,23,523,832.9326436828123,833.7594668744132,"[66, 0, 188]",188,l,0.3035914022475481,colour,0.06
026,70,1,2,11,24,524,834.2764089443954,834.9994978464674,"[67, 0, 187]",187,a,0.19971178355626762,colour,0.06
026,70,1,2,11,25,525,835.510820522788,836.5834870644612,"[97, 0, 157]",157,l,0.5494516877224669,colour,0.06
026,70,1,2,11,26,526,837.106759420014,837.9915358573198,"[64, 0, 190]",190,a,0.354199027759023,colour,0.06
026,70,1,2,11,27,527,838.5046115418663,839.8715042235563,"[60, 0, 194]",194,a,0.8436656184494495,colour,0.06
026,70,1,2,11,28,528,840.3795705818338,840.9194825337036,"[84, 0, 170]",170,l,0.016661651665344834,colour,0.06
026,70,1,2,11,29,529,841.4283298884984,841.9675077114953,"[57, 0, 197]",197,a,0.015805824543349445,colour,0.06
026,70,1,2,11,30,530,842.4752901068423,843.063490325585,"[61, 0, 193]",193,a,0.06496055237948895,colour,0.06
026,70,1,2,11,31,531,843.5845209100517,844.143506819848,"[69, 0, 185]",185,a,0.03565093281213194,colour,0.06
026,70,1,2,11,32,532,844.6626701807836,845.2875098855002,"[85, 0, 169]",169,l,0.10155159537680447,colour,0.06
026,70,1,2,11,33,533,845.803314134595,846.5515339510748,"[6, 0, 248]",248,a,0.2250813685823232,colour,0.06
026,70,1,2,11,34,534,847.0689135838766,848.6315031838603,"[94, 0, 160]",160,l,1.0393479644553736,colour,0.06
026,70,1,2,11,35,535,849.1519485132303,849.6795165461954,"[68, 0, 186]",186,a,0.004372477415017784,colour,0.06
026,70,1,2,11,36,536,850.1987704917556,850.9435193440877,"[99, 0, 155]",155,l,0.22134416457265615,colour,0.06
026,70,1,2,11,37,537,851.464423897909,852.063490325585,"[2, 0, 252]",252,a,0.07572908757720143,colour,0.06
026,70,1,2,11,38,538,852.5850396051537,853.3115163698094,"[93, 0, 161]",161,l,0.20335288916248828,colour,0.06
026,70,1,2,11,39,539,853.8193795036059,855.3514996076701,"[73, 0, 181]",181,l,1.008924942347221,colour,0.06
026,70,1,2,11,40,540,855.866240079049,856.3915998179,"[58, 0, 196]",196,a,0.002051937277428806,colour,0.06
026,70,1,2,11,41,541,856.9131542174146,857.5434553835075,"[76, 0, 178]",178,l,0.10704692755825818,colour,0.06
026,70,1,2,11,42,542,858.0537658758694,858.7435283238301,"[54, 0, 200]",200,a,0.16669922461733222,colour,0.06
026,70,1,2,11,43,543,859.2568797005806,859.8395207839785,"[59, 0, 195]",195,a,0.0592895649606362,colour,0.06
026,70,1,2,11,44,544,860.3505795836682,861.0155852707103,"[0, 0, 254]",254,a,0.14163171930704266,colour,0.06
026,70,1,2,11,45,545,861.522523654392,862.1754607209004,"[65, 0, 189]",189,l,0.1296477756695822,colour,0.06
026,70,1,2,11,46,546,862.6945902111474,863.2954510007985,"[70, 0, 184]",184,l,0.07768807711545378,colour,0.06
026,70,1,2,11,47,547,863.8039789465256,864.383502739598,"[52, 0, 202]",202,a,0.05685402185190469,colour,0.06
026,70,1,2,11,48,548,864.8976331434678,866.2794399826089,"[81, 0, 173]",173,l,0.8584813143825158,colour,0.06
026,70,1,2,11,49,549,866.7883223895915,867.3834869856946,"[51, 0, 203]",203,a,0.07188239437527955,colour,0.06
026,70,1,2,11,50,550,867.8861218149541,868.4875131150475,"[71, 0, 183]",183,l,0.07853681512642652,colour,0.06
026,70,1,2,12,1,551,877.7615885223495,878.2875335162971,"[88, 0, 166]",166,l,0.0018636789172887802,colour,0.06
026,70,1,2,12,2,552,878.8092044942314,879.33550513105,"[59, 0, 195]",195,a,0.0029373029246926308,colour,0.06
026,70,1,2,12,3,553,879.8560788541799,881.4874737304635,"[87, 0, 167]",167,l,1.1080732899717987,colour,0.06
026,70,1,2,12,4,554,881.9967495895689,883.5034997147741,"[51, 0, 203]",203,a,0.9835006127832457,colour,0.06
026,70,1,2,12,5,555,884.0122848419705,884.5514780249214,"[64, 0, 190]",190,a,0.01592358446214348,colour,0.06
026,70,1,2,12,6,556,885.0591851958307,886.5755057769129,"[56, 0, 198]",198,l,0.9929320410592481,colour,0.06
026,70,1,2,12,7,557,887.0904636511113,888.2235410371795,"[96, 0, 158]",158,l,0.6096404029522091,colour,0.06
026,70,1,2,12,8,558,888.7280808991054,889.9594571070047,"[97, 0, 157]",157,l,0.7080349293537438,colour,0.06
026,70,1,2,12,9,559,890.479947728687,891.111528106383,"[75, 0, 179]",179,l,0.1067086139228195,colour,0.06
026,70,1,2,12,10,560,891.622114684782,892.1675377225038,"[91, 0, 163]",163,l,0.019713563728146255,colour,0.06
026,70,1,2,12,11,561,892.6870149787283,894.2074347082525,"[98, 0, 156]",156,l,0.9976081737549976,colour,0.06
026,70,1,2,12,12,562,894.7089328981237,895.9115382676246,"[53, 0, 201]",201,a,0.6791691741673276,colour,0.06
026,70,1,2,12,13,563,896.4277284857817,897.0314734090352,"[81, 0, 173]",173,l,0.08044106012675911,colour,0.06
026,70,1,2,12,14,564,897.5410891572246,898.8635000928771,"[58, 0, 196]",196,a,0.8114486283157021,colour,0.06
026,70,1,2,12,15,565,899.3745856740279,899.911481159972,"[41, 0, 213]",213,a,0.013560508959926665,colour,0.06
026,70,1,2,12,16,566,900.4221583228791,901.0314678952564,"[69, 0, 185]",185,l,0.08675677340943366,colour,0.06
026,70,1,2,12,17,567,901.5468444277067,902.1035842341371,"[22, 0, 232]",232,a,0.0335694570094347,colour,0.06
026,70,1,2,12,18,568,902.6156670331256,904.2794553425629,"[73, 0, 181]",181,l,1.1405797569314018,colour,0.06
026,70,1,2,12,19,569,904.7874326916644,905.3674546998227,"[74, 0, 180]",180,l,0.05663268035277724,colour,0.06
026,70,1,2,12,20,570,905.8812668762403,906.4634751230478,"[90, 0, 164]",164,l,0.059445921797305346,colour,0.06
026,70,1,2,12,21,571,906.975075067021,907.5834862767952,"[50, 0, 204]",204,a,0.08585053391288966,colour,0.06
026,70,1,2,12,22,572,908.1000002362998,908.6394970745314,"[60, 0, 194]",194,a,0.0161401997320354,colour,0.06
026,70,1,2,12,23,573,909.1468423008919,909.8794240711723,"[79, 0, 175]",175,l,0.20927121175918728,colour,0.06
026,70,1,2,12,24,574,910.3967840117402,910.9434783841716,"[84, 0, 170]",170,l,0.023294410901144147,colour,0.06
026,70,1,2,12,25,575,911.459315716289,912.0394736012677,"[57, 0, 197]",197,a,0.0567614680621773,colour,0.06
026,70,1,2,12,26,576,912.5548879429698,913.375475765788,"[66, 0, 188]",188,a,0.2972110982518643,colour,0.06
026,70,1,2,12,27,577,913.8830541491043,915.45546114631,"[99, 0, 155]",155,l,1.0493378662504256,colour,0.06
026,70,1,2,12,28,578,915.9767678168137,916.5034819917055,"[94, 0, 160]",160,l,0.004073154414072633,colour,0.06
026,70,1,2,12,29,579,917.0236788043985,918.7514639252331,"[82, 0, 172]",172,l,1.2044922852655873,colour,0.06
026,70,1,2,12,30,580,919.2580147645203,919.8954870770685,"[20, 0, 234]",234,a,0.11401603103149682,colour,0.06
026,70,1,2,12,31,581,920.4142640752252,921.7514399006031,"[89, 0, 165]",165,l,0.8138164299307391,colour,0.06
026,70,1,2,12,32,582,922.258113225922,923.5514209172688,"[85, 0, 169]",169,l,0.7699912250973284,colour,0.06
026,70,1,2,12,33,583,924.0705102352658,925.4796161104459,"[54, 0, 200]",200,a,0.8858189474558458,colour,0.06
026,70,1,2,12,34,584,925.9893539508339,926.583426412195,"[93, 0, 161]",161,l,0.07146964385174215,colour,0.06
026,70,1,2,12,35,585,927.0987296893727,927.8794733019313,"[80, 0, 174]",174,l,0.25316770270001143,colour,0.06
026,70,1,2,12,36,586,928.4000489944592,929.5994338858873,"[83, 0, 171]",171,l,0.6764516372932121,colour,0.06
026,70,1,2,12,37,587,930.1188658497995,930.679470466217,"[61, 0, 193]",193,a,0.04259404249023646,colour,0.06
026,70,1,2,12,38,588,931.1919612896163,931.7834284602432,"[52, 0, 202]",202,a,0.06818811967968941,colour,0.06
026,70,1,2,12,39,589,932.2911580802174,932.9114193260903,"[78, 0, 176]",176,l,0.09681087196804583,colour,0.06
026,70,1,2,12,40,590,933.4317472894909,934.687423790805,"[95, 0, 159]",159,l,0.7323494012234733,colour,0.06
026,70,1,2,12,41,591,935.1974014833104,935.8794354926795,"[70, 0, 184]",184,l,0.15993137622717768,colour,0.06
026,70,1,2,12,42,592,936.3993845763616,937.087452305248,"[67, 0, 187]",187,a,0.16479694878216833,colour,0.06
026,70,1,2,12,43,593,937.6039280616678,939.3754525289405,"[68, 0, 186]",186,a,1.2481603457126766,colour,0.06
026,70,1,2,12,44,594,939.8852447200334,940.4634361322969,"[76, 0, 178]",178,l,0.05524791812058538,colour,0.06
026,70,1,2,12,45,595,940.9789674462518,941.5595802232856,"[72, 0, 182]",182,l,0.05725653236731887,colour,0.06
026,70,1,2,12,46,596,942.0727472801227,943.4074635377619,"[86, 0, 168]",168,l,0.8114356314763427,colour,0.06
026,70,1,2,12,47,597,943.9165377477184,945.199408916058,"[92, 0, 162]",162,l,0.7595330405747518,colour,0.06
026,70,1,2,12,48,598,945.7133620893583,946.3034590699244,"[55, 0, 199]",199,a,0.06680375128053129,colour,0.06
026,70,1,2,12,49,599,946.8226492124377,947.423482432845,"[65, 0, 189]",189,a,0.07770343718584627,colour,0.06
026,70,1,2,12,50,600,947.932113566203,948.5914817427984,"[71, 0, 183]",183,l,0.1360229596029967,colour,0.06
026,70,1,2,13,1,601,957.1666885907762,958.9194462999003,"[56, 0, 198]",198,a,1.228574388078414,colour,0.06
026,70,1,2,13,2,602,959.4331537133548,960.0074145433027,"[70, 0, 184]",184,l,0.05093176069203764,colour,0.06
026,70,1,2,13,3,603,960.5268039718503,961.1034511142643,"[81, 0, 173]",173,l,0.0532400916563347,colour,0.06
026,70,1,2,13,4,604,961.6150853227591,962.2874559286283,"[60, 0, 194]",194,a,0.14905610890127718,colour,0.06
026,70,1,2,13,5,605,962.8026229350362,964.2393870339729,"[87, 0, 167]",167,l,0.9136276203207672,colour,0.06
026,70,1,2,13,6,606,964.7557399104116,965.3994826439302,"[61, 0, 193]",193,a,0.12043926422484219,colour,0.06
026,70,1,2,13,7,607,965.9119017873891,966.4555210109102,"[53, 0, 201]",201,a,0.020547729451209307,colour,0.06
026,70,1,2,13,8,608,966.9744512151228,967.5034170071594,"[52, 0, 202]",202,a,0.00446384958922863,colour,0.06
026,70,1,2,13,9,609,968.0225165651646,968.5675855354639,"[91, 0, 163]",163,l,0.02167255338281393,colour,0.06
026,70,1,2,13,10,610,969.0849931313423,969.7114460289013,"[54, 0, 200]",200,a,0.10334832046646625,colour,0.06
026,70,1,2,13,11,611,970.2256689866772,971.0074228140293,"[72, 0, 182]",182,l,0.2584030965808779,colour,0.06
026,70,1,2,13,12,612,971.522524048225,973.1116588632576,"[96, 0, 158]",158,l,1.0659175979672,colour,0.06
026,70,1,2,13,13,613,973.6318722174037,975.2874031532556,"[51, 0, 203]",203,a,1.132289300323464,colour,0.06
026,70,1,2,13,14,614,975.8037650882034,977.127407186199,"[55, 0, 199]",199,a,0.8004709609085694,colour,0.06
026,70,1,2,13,15,615,977.6362454826012,978.3754257473629,"[63, 0, 191]",191,a,0.21636043826583773,colour,0.06
026,70,1,2,13,16,616,978.8862281533657,979.5594341063406,"[62, 0, 192]",192,a,0.1544974840944633,colour,0.06
026,70,1,2,13,17,617,980.0694870235166,980.6794338385807,"[95, 0, 159]",159,l,0.08682097028940916,colour,0.06
026,70,1,2,13,18,618,981.1973412248772,981.807394772186,"[79, 0, 175]",175,l,0.08753737597726285,colour,0.06
026,70,1,2,13,19,619,982.322323895758,983.0953886944335,"[69, 0, 185]",185,a,0.2497991386335343,colour,0.06
026,70,1,2,13,20,620,983.6035562710604,984.175809668377,"[88, 0, 166]",166,l,0.04853442055173218,colour,0.06
026,70,1,2,13,21,621,984.6920546310721,985.4554544509156,"[57, 0, 197]",197,a,0.2404070949414745,colour,0.06
026,70,1,2,13,22,622,985.9732649511425,987.5674469016958,"[98, 0, 156]",156,l,1.0709072320023552,colour,0.06
026,70,1,2,13,23,623,988.0888197382446,988.8714026113739,"[10, 0, 244]",244,a,0.25947317597456276,colour,0.06
026,70,1,2,13,24,624,989.385707095149,989.9433862242149,"[66, 0, 188]",188,l,0.03451193042565137,colour,0.06
026,70,1,2,13,25,625,990.4638059536228,991.0314296921715,"[80, 0, 174]",174,l,0.04435217066202313,colour,0.06
026,70,1,2,13,26,626,991.5418929967564,992.1513967351057,"[90, 0, 164]",164,l,0.08621523517649621,colour,0.06
026,70,1,2,13,27,627,992.6668890583096,994.1754280317109,"[92, 0, 162]",162,l,0.9852036025840789,colour,0.06
026,70,1,2,13,28,628,994.6824991414323,995.7193958088756,"[94, 0, 160]",160,l,0.5135573581792414,colour,0.06
026,70,1,2,13,29,629,996.2294487259351,997.5433864605147,"[59, 0, 195]",195,a,0.7913947816705331,colour,0.06
026,70,1,2,13,30,630,998.0613800990395,999.4234111467376,"[85, 0, 169]",169,l,0.8386842552572489,colour,0.06
026,70,1,2,13,31,631,999.9392138205003,1000.6473968359642,"[99, 0, 155]",155,l,0.1835877315606922,colour,0.06
026,70,1,2,13,32,632,1001.1590999675682,1002.2234047664097,"[64, 0, 190]",190,l,0.5402116684708744,colour,0.06
026,70,1,2,13,33,633,1002.7379534348147,1003.3193944697268,"[50, 0, 204]",204,a,0.058159227133728564,colour,0.06
026,70,1,2,13,34,634,1003.8316202348797,1005.2474088876043,"[76, 0, 178]",178,l,0.8928034109994769,colour,0.06
026,70,1,2,13,35,635,1005.754871874,1006.3034685222665,"[86, 0, 168]",168,l,0.025297905085608363,colour,0.06
026,70,1,2,13,36,636,1006.8174169693375,1007.3514058723813,"[73, 0, 181]",181,l,0.010557039873674512,colour,0.06
026,70,1,2,13,37,637,1007.8643559201155,1008.3994377455674,"[71, 0, 183]",183,l,0.011725580785423517,colour,0.06
026,70,1,2,13,38,638,1008.9112070432166,1010.2394059385406,"[78, 0, 176]",176,l,0.804777272278443,colour,0.06
026,70,1,2,13,39,639,1010.7574740140699,1011.3273930865107,"[75, 0, 179]",179,l,0.0465285632526502,colour,0.06
026,70,1,2,13,40,640,1011.8356201340212,1012.519421330071,"[35, 0, 219]",219,a,0.16060485283378512,colour,0.06
026,70,1,2,13,41,641,1013.0386819709092,1013.7754160588374,"[67, 0, 187]",187,l,0.21323330176528543,colour,0.06
026,70,1,2,13,42,642,1014.2887044202071,1015.0553814318264,"[89, 0, 165]",165,l,0.24605248228181154,colour,0.06
026,70,1,2,13,43,643,1015.5704617921729,1016.2233736526687,"[65, 0, 189]",189,a,0.12971315416507423,colour,0.06
026,70,1,2,13,44,644,1016.7423739613732,1017.7514158760896,"[68, 0, 186]",186,l,0.4858270607655868,colour,0.06
026,70,1,2,13,45,645,1018.2736055491259,1018.9353604320204,"[74, 0, 180]",180,l,0.13849316129926592,colour,0.06
026,70,1,2,13,46,646,1019.4454452507198,1020.8394014487276,"[82, 0, 172]",172,l,0.8733915332704782,colour,0.06
026,70,1,2,13,47,647,1021.348904556944,1022.5194134530611,"[77, 0, 177]",177,l,0.6473097959533334,colour,0.06
026,70,1,2,13,48,648,1023.0263695598114,1023.7034036951372,"[33, 0, 221]",221,a,0.1539878473849967,colour,0.06
026,70,1,2,13,49,649,1024.213875664398,1024.783417038736,"[83, 0, 171]",171,l,0.04566131462343037,colour,0.06
026,70,1,2,13,50,650,1025.2924498949433,1026.6634054911556,"[97, 0, 157]",157,l,0.8475729639176279,colour,0.06
026,70,1,2,14,1,651,1033.1030387575738,1033.6713501510676,"[82, 0, 172]",172,l,0.0443821030203253,colour,0.06
026,70,1,2,14,2,652,1034.1819335786859,1036.4314302435378,"[75, 0, 179]",179,l,1.7261833493830636,colour,0.06
026,70,1,2,14,3,653,1036.9475448433077,1038.0553617395926,"[90, 0, 164]",164,l,0.5836335752392188,colour,0.06
026,70,1,2,14,4,654,1038.573727956391,1039.5913746167207,"[54, 0, 200]",200,a,0.4944751294096932,colour,0.06
026,70,1,2,14,5,655,1040.1049898702186,1040.7753987296019,"[69, 0, 185]",185,l,0.1520804517203942,colour,0.06
026,70,1,2,14,6,656,1041.287563842372,1041.8553927746834,"[4, 0, 250]",250,a,0.04454318608622998,colour,0.06
026,70,1,2,14,7,657,1042.3656382823829,1043.0393857735908,"[67, 0, 187]",187,l,0.15045780641958117,colour,0.06
026,70,1,2,14,8,658,1043.555082502775,1044.119399117073,"[55, 0, 199]",199,a,0.041158867883495986,colour,0.06
026,70,1,2,14,9,659,1044.630059344694,1045.2313899925211,"[68, 0, 186]",186,l,0.07795510475989431,colour,0.06
026,70,1,2,14,10,660,1045.7395193661796,1046.3753832119983,"[58, 0, 196]",196,l,0.11261039495002478,colour,0.06
026,70,1,2,14,11,661,1046.8957517415984,1047.5993858366273,"[74, 0, 180]",180,l,0.18042081652674824,colour,0.06
026,70,1,2,14,12,662,1048.114517396898,1048.655404511257,"[52, 0, 202]",202,a,0.017630906542763114,colour,0.06
026,70,1,2,14,13,663,1049.177014836925,1050.4233749129344,"[85, 0, 169]",169,l,0.7230900835711509,colour,0.06
026,70,1,2,14,14,664,1050.9425398493186,1052.6793590078596,"[88, 0, 166]",166,l,1.2134684277698398,colour,0.06
026,70,1,2,14,15,665,1053.193758014706,1054.5113403993892,"[96, 0, 158]",158,l,0.7942836415022612,colour,0.06
026,70,1,2,14,16,666,1055.0218241839902,1055.975342882215,"[91, 0, 163]",163,l,0.4301809642929584,colour,0.06
026,70,1,2,14,17,667,1056.4906304054894,1057.4233630975941,"[93, 0, 161]",161,l,0.40967813343741,colour,0.06
026,70,1,2,14,18,668,1057.94375289476,1058.5113407932222,"[64, 0, 190]",190,a,0.04433641687501222,colour,0.06
026,70,1,2,14,19,669,1059.021851359401,1059.743341246969,"[53, 0, 201]",201,a,0.19813364290166646,colour,0.06
026,70,1,2,14,20,670,1060.256215282483,1060.7993571646512,"[73, 0, 181]",181,l,0.019746646750718355,colour,0.06
026,70,1,2,14,21,671,1061.31885726389,1061.8473346871324,"[72, 0, 182]",182,l,0.00517119700089097,colour,0.06
026,70,1,2,14,22,672,1062.3657761284849,1063.0473442181246,"[70, 0, 184]",184,l,0.1582043619127944,colour,0.06
026,70,1,2,14,23,673,1063.5688797130715,1064.191583197564,"[61, 0, 193]",193,a,0.09948154119774699,colour,0.06
026,70,1,2,14,24,674,1064.709487827029,1066.2393456801074,"[84, 0, 170]",170,l,1.0063799100462347,colour,0.06
026,70,1,2,14,25,675,1066.7549518247833,1067.2953482070006,"[89, 0, 165]",165,l,0.014651855919510126,colour,0.06
026,70,1,2,14,26,676,1067.8043129278813,1068.5433419558685,"[57, 0, 197]",197,a,0.21571216790471226,colour,0.06
026,70,1,2,14,27,677,1069.0543499493506,1070.7353784701554,"[56, 0, 198]",198,a,1.1578195744659752,colour,0.06
026,70,1,2,14,28,678,1071.241819032468,1071.783394589438,"[39, 0, 215]",215,a,0.01831029064487666,colour,0.06
026,70,1,2,14,29,679,1072.3043211986078,1072.9994249849115,"[77, 0, 177]",177,l,0.17178062465973198,colour,0.06
026,70,1,2,14,30,680,1073.5074968570843,1074.0553314134013,"[80, 0, 174]",174,l,0.037058931891806424,colour,0.06
026,70,1,2,14,31,681,1074.5730828368105,1075.2953856224194,"[99, 0, 155]",155,l,0.19899537786841393,colour,0.06
026,70,1,2,14,32,682,1075.8074869321426,1076.359378889203,"[66, 0, 188]",188,a,0.028601090773008764,colour,0.06
026,70,1,2,14,33,683,1076.8699697998818,1078.0234708538046,"[71, 0, 183]",183,l,0.632275121868588,colour,0.06
026,70,1,2,14,34,684,1078.5397150288336,1079.9274051382672,"[86, 0, 168]",168,l,0.8646001046290621,colour,0.06
026,70,1,2,14,35,685,1080.4459867888363,1081.7433467608644,"[59, 0, 195]",195,l,0.7740651674102992,colour,0.06
026,70,1,2,14,36,686,1082.2585759948706,1082.9113267723005,"[63, 0, 191]",191,a,0.12945439736358821,colour,0.06
026,70,1,2,14,37,687,1083.4303916718345,1084.9593444670318,"[98, 0, 156]",156,l,1.0056831965921447,colour,0.06
026,70,1,2,14,38,688,1085.4789705970325,1086.0233460046584,"[76, 0, 178]",178,l,0.020954572246409953,colour,0.06
026,70,1,2,14,39,689,1086.5414786709007,1088.079369011568,"[97, 0, 157]",157,l,1.0144947114167735,colour,0.06
026,70,1,2,14,40,690,1088.588358150795,1089.1196318800794,"[51, 0, 203]",203,a,0.007547269458882511,colour,0.06
026,70,1,2,14,41,691,1089.6258534641238,1090.8713726790156,"[95, 0, 159]",159,l,0.7221019241260365,colour,0.06
026,70,1,2,14,42,692,1091.3914915102068,1092.039371595136,"[78, 0, 176]",176,l,0.12441750185098499,colour,0.06
026,70,1,2,14,43,693,1092.5585692207096,1093.5913336568046,"[79, 0, 175]",175,l,0.5095452497480437,colour,0.06
026,70,1,2,14,44,694,1094.105271863984,1094.7513406515354,"[62, 0, 192]",192,a,0.11405187111813575,colour,0.06
026,70,1,2,14,45,695,1095.2700664496515,1095.823333716602,"[65, 0, 189]",189,a,0.0300378407118842,colour,0.06
026,70,1,2,14,46,696,1096.3326300557237,1096.919360835338,"[81, 0, 173]",173,l,0.0634328240994364,colour,0.06
026,70,1,2,14,47,697,1097.4263559327228,1097.9514659732813,"[83, 0, 171]",171,l,0.0017585220048204064,colour,0.06
026,70,1,2,14,48,698,1098.4608375369571,1099.1273800109047,"[18, 0, 236]",236,a,0.14317598927300423,colour,0.06
026,70,1,2,14,49,699,1099.648364515393,1100.2713401473593,"[50, 0, 204]",204,a,0.0996568026021123,colour,0.06
026,70,1,2,14,50,700,1100.7890399768949,1101.303372423863,"[60, 0, 194]",194,a,0.0032834934536367655,colour,0.06
026,70,1,2,15,1,701,1108.3187402916374,1109.0313422583276,"[80, 0, 174]",174,l,0.18868724850472063,colour,0.06
026,70,1,2,15,2,702,1109.5382459835382,1110.2153183219489,"[55, 0, 199]",199,a,0.15807714965194464,colour,0.06
026,70,1,2,15,3,703,1110.721440262976,1112.4313502928708,"[89, 0, 165]",165,l,1.186589625198394,colour,0.06
026,70,1,2,15,4,704,1112.9449328570627,1114.5913234167965,"[67, 0, 187]",187,l,1.1230039888760075,colour,0.06
026,70,1,2,15,5,705,1115.0893640333088,1115.7753408342833,"[59, 0, 195]",195,a,0.16270917165093124,colour,0.06
026,70,1,2,15,6,706,1116.2870404211571,1116.87932245899,"[92, 0, 162]",162,l,0.06906285148579627,colour,0.06
026,70,1,2,15,7,707,1117.3991703242064,1117.9353088381467,"[57, 0, 197]",197,a,0.012772817048244178,colour,0.06
026,70,1,2,15,8,708,1118.4459891518345,1119.0953307989985,"[9, 0, 245]",245,a,0.12597791943699121,colour,0.06
026,70,1,2,15,9,709,1119.6022550042253,1121.0073176572332,"[97, 0, 157]",157,l,0.8817958114668727,colour,0.06
026,70,1,2,15,10,710,1121.524139210349,1122.5673370186705,"[61, 0, 193]",193,l,0.5197998159565032,colour,0.06
026,70,1,2,15,11,711,1123.0866078996332,1124.5833901783917,"[87, 0, 167]",167,l,0.9737281139241531,colour,0.06
026,70,1,2,15,12,712,1125.1021900195628,1126.6153854333097,"[94, 0, 160]",160,l,0.9899770150659606,colour,0.06
026,70,1,2,15,13,713,1127.1334988011513,1128.271343691973,"[85, 0, 169]",169,l,0.6133689422858879,colour,0.06
026,70,1,2,15,14,714,1128.7908965665847,1129.6713107664837,"[91, 0, 163]",163,l,0.35741281043738127,colour,0.06
026,70,1,2,15,15,715,1130.1767994032707,1131.439291014336,"[56, 0, 198]",198,a,0.7390794403618202,colour,0.06
026,70,1,2,15,16,716,1131.9580691939918,1132.719319796539,"[68, 0, 186]",186,l,0.24794648739043623,colour,0.06
026,70,1,2,15,17,717,1133.2167196257506,1133.791352246306,"[52, 0, 202]",202,a,0.051926221582107246,colour,0.06
026,70,1,2,15,18,718,1134.3106739333598,1135.031342652277,"[39, 0, 215]",215,a,0.1975283018546179,colour,0.06
026,70,1,2,15,19,719,1135.545699911425,1136.1593047673814,"[76, 0, 178]",178,l,0.09094335546251386,colour,0.06
026,70,1,2,15,20,720,1136.669895284227,1138.7193800549721,"[65, 0, 189]",189,l,1.526469990494661,colour,0.06
026,70,1,2,15,21,721,1139.2324356534518,1139.8073258491931,"[63, 0, 191]",191,a,0.05161587102338672,colour,0.06
026,70,1,2,15,22,722,1140.3280685322825,1141.5673177201534,"[93, 0, 161]",161,l,0.7163537428714335,colour,0.06
026,70,1,2,15,23,723,1142.0780283600325,1143.2153317127377,"[99, 0, 155]",155,l,0.6139526219340041,colour,0.06
026,70,1,2,15,24,724,1143.7349208211526,1144.6552851758897,"[90, 0, 164]",164,l,0.39703686081338674,colour,0.06
026,70,1,2,15,25,725,1145.1743197493488,1146.111334334244,"[81, 0, 173]",173,l,0.4136378603288904,colour,0.06
026,70,1,2,15,26,726,1146.6274717770284,1148.3593127230415,"[72, 0, 182]",182,l,1.2085717413574457,colour,0.06
026,70,1,2,15,27,727,1148.8774249092676,1150.3513101678109,"[82, 0, 172]",172,l,0.9505286200437695,colour,0.06
026,70,1,2,15,28,728,1150.8617754416773,1151.439315432799,"[64, 0, 190]",190,l,0.054175475728698075,colour,0.06
026,70,1,2,15,29,729,1151.957442191313,1153.4153089484898,"[73, 0, 181]",181,l,0.9345703771105036,colour,0.06
026,70,1,2,15,30,730,1153.9288091989001,1154.5993578735506,"[71, 0, 183]",183,l,0.14724599302280694,colour,0.06
026,70,1,2,15,31,731,1155.1185295053292,1156.4873319459148,"[74, 0, 180]",180,l,0.8455706512322649,colour,0.06
026,70,1,2,15,32,732,1156.9935232037678,1157.7353000948206,"[60, 0, 194]",194,a,0.21844664018135518,colour,0.06
026,70,1,2,15,33,733,1158.243503117701,1158.7673646666808,"[53, 0, 201]",201,a,0.0005391751183196902,colour,0.06
026,70,1,2,15,34,734,1159.290344394627,1159.8153433705447,"[95, 0, 159]",159,l,0.0019605649868026376,colour,0.06
026,70,1,2,15,35,735,1160.3372427792056,1161.0953363128938,"[69, 0, 185]",185,l,0.23491018742788583,colour,0.06
026,70,1,2,15,36,736,1161.6045479751192,1162.2473246046575,"[54, 0, 200]",200,a,0.11943692644126713,colour,0.06
026,70,1,2,15,37,737,1162.7487286652904,1164.1193116833456,"[77, 0, 177]",177,l,0.8484012219123542,colour,0.06
026,70,1,2,15,38,738,1164.6422575406032,1165.2233945264015,"[50, 0, 204]",204,a,0.05782406427897513,colour,0.06
026,70,1,2,15,39,739,1165.7359861744335,1166.2713050950551,"[75, 0, 179]",179,l,0.012171414331533015,colour,0.06
026,70,1,2,15,40,740,1166.782819574466,1167.4873417920899,"[62, 0, 192]",192,a,0.18112343759275973,colour,0.06
026,70,1,2,15,41,741,1167.9959863162367,1169.2953344223788,"[98, 0, 156]",156,l,0.7760749630397186,colour,0.06
026,70,1,2,15,42,742,1169.8084833623143,1171.471316595329,"[84, 0, 170]",170,l,1.1395309452200308,colour,0.06
026,70,1,2,15,43,743,1171.9803573285462,1172.55127913272,"[51, 0, 203]",203,a,0.047621091827750206,colour,0.06
026,70,1,2,15,44,744,1173.058381750132,1173.583461070666,"[79, 0, 175]",175,l,0.0016699066618457437,colour,0.06
026,70,1,2,15,45,745,1174.1053053408395,1174.7033209875226,"[83, 0, 171]",171,l,0.06605308095458895,colour,0.06
026,70,1,2,15,46,746,1175.2233437203104,1175.7673323713243,"[88, 0, 166]",166,l,0.020703298621810973,colour,0.06
026,70,1,2,15,47,747,1176.285833283444,1176.8792925266316,"[66, 0, 188]",188,a,0.0689183099893853,colour,0.06
026,70,1,2,15,48,748,1177.3971361099975,1178.8552943131654,"[86, 0, 168]",168,l,0.9348752138903365,colour,0.06
026,70,1,2,15,49,749,1179.3658698637737,1180.1833191285841,"[70, 0, 184]",184,l,0.2941769092576578,colour,0.06
026,70,1,2,15,50,750,1180.6939793560887,1181.223331511137,"[7, 0, 247]",247,a,0.006130999536253512,colour,0.06
026,70,1,2,16,1,751,1188.0525028120028,1188.8952787326416,"[95, 0, 159]",159,l,0.3188446608837694,colour,0.06
026,70,1,2,16,2,752,1189.4126406423748,1191.2313076787395,"[47, 0, 207]",207,l,1.2952737702289596,colour,0.06
026,70,1,2,16,3,753,1191.7407761284849,1193.0073456201935,"[90, 0, 164]",164,l,0.743229788611643,colour,0.06
026,70,1,2,16,4,754,1193.5231963432161,1194.0473666674225,"[93, 0, 161]",161,l,0.0007553965551778674,colour,0.06
026,70,1,2,16,5,755,1194.5699998108903,1195.1512907906435,"[56, 0, 198]",198,a,0.05823327030520886,colour,0.06
026,70,1,2,16,6,756,1195.6638162723975,1196.255260993843,"[67, 0, 187]",187,a,0.06813140597660094,colour,0.06
026,70,1,2,16,7,757,1196.7732802323299,1197.431249074405,"[75, 0, 179]",179,l,0.14171521470416337,colour,0.06
026,70,1,2,16,8,758,1197.9455196874915,1198.495281725889,"[83, 0, 171]",171,l,0.026417215238325298,colour,0.06
026,70,1,2,16,9,759,1199.0079907398904,1200.4792789783096,"[89, 0, 165]",165,l,0.9604239986510947,colour,0.06
026,70,1,2,16,10,760,1200.995602316456,1201.535290957545,"[80, 0, 174]",174,l,0.016732543939724565,colour,0.06
026,70,1,2,16,11,761,1202.042493611807,1203.5912604014156,"[72, 0, 182]",182,l,1.027648771298118,colour,0.06
026,70,1,2,16,12,762,1204.1028280500323,1205.20726535446,"[94, 0, 160]",160,l,0.5811712505528703,colour,0.06
026,70,1,2,16,13,763,1205.7277902407805,1206.551268892712,"[79, 0, 175]",175,l,0.3001893610926345,colour,0.06
026,70,1,2,16,14,764,1207.0715499884682,1208.5832527261227,"[96, 0, 158]",158,l,0.988773028133437,colour,0.06
026,70,1,2,16,15,765,1209.1027725177119,1209.6314760084497,"[82, 0, 172]",172,l,0.005107393953949213,colour,0.06
026,70,1,2,16,16,766,1210.1497244653292,1211.6392804592615,"[85, 0, 169]",169,l,0.9666467643110082,colour,0.06
026,70,1,2,16,17,767,1212.1496315177064,1213.551263772766,"[84, 0, 170]",170,l,0.8771055003162473,colour,0.06
026,70,1,2,16,18,768,1214.0571545262355,1214.583281476982,"[59, 0, 195]",195,a,0.002811666112393141,colour,0.06
026,70,1,2,16,19,769,1215.1058685404714,1215.6632684327196,"[1, 0, 253]",253,l,0.025444809580221772,colour,0.06
026,70,1,2,16,20,770,1216.1769419754855,1217.4312597082462,"[69, 0, 185]",185,l,0.7310390757629648,colour,0.06
026,70,1,2,16,21,771,1217.9502686816268,1218.5432312851772,"[86, 0, 168]",168,l,0.0695602789055556,colour,0.06
026,70,1,2,16,22,772,1219.0595278417459,1219.6793003247585,"[53, 0, 201]",201,a,0.09630556765478104,colour,0.06
026,70,1,2,16,23,773,1220.2002777401358,1221.5832893538754,"[81, 0, 173]",173,l,0.8597175967879593,colour,0.06
026,70,1,2,16,24,774,1222.0908445001114,1223.4552854909562,"[64, 0, 190]",190,l,0.8410402415320277,colour,0.06
026,70,1,2,16,25,775,1223.965836623218,1224.5752907369751,"[65, 0, 189]",189,a,0.08607384446077049,colour,0.06
026,70,1,2,16,26,776,1225.0908393801656,1225.7592624683166,"[73, 0, 181]",181,l,0.14541815407574177,colour,0.06
026,70,1,2,16,27,777,1226.2783478478668,1226.871274217614,"[99, 0, 155]",155,l,0.06960438971873373,colour,0.06
026,70,1,2,16,28,778,1227.3877594262594,1227.9992847758112,"[88, 0, 166]",166,l,0.08825456944759935,colour,0.06
026,70,1,2,16,29,779,1228.5126519063488,1229.079289848567,"[14, 0, 240]",240,a,0.04320214071776718,colour,0.06
026,70,1,2,16,30,780,1229.5908051155275,1230.3432792556705,"[62, 0, 192]",192,a,0.22624124481808394,colour,0.06
026,70,1,2,16,31,781,1230.8593611661345,1231.511263993336,"[61, 0, 193]",193,a,0.1284717518137768,colour,0.06
026,70,1,2,16,32,782,1232.0314001537627,1232.5672519479413,"[97, 0, 157]",157,l,0.012610552599653602,colour,0.06
026,70,1,2,16,33,783,1233.0782193753403,1233.6792542448966,"[70, 0, 184]",184,a,0.07816738774999976,colour,0.06
026,70,1,2,16,34,784,1234.187551396899,1234.735248500947,"[87, 0, 167]",167,l,0.02434204099699855,colour,0.06
026,70,1,2,16,35,785,1235.2500456861453,1235.85527265165,"[52, 0, 202]",202,a,0.08193334238603711,colour,0.06
026,70,1,2,16,36,786,1236.3751153968042,1237.6552347636316,"[92, 0, 162]",162,l,0.7569344451185316,colour,0.06
026,70,1,2,16,37,787,1238.1731862607412,1239.4392791988794,"[78, 0, 176]",176,l,0.7428280657622963,colour,0.06
026,70,1,2,16,38,788,1239.9544509315165,1241.2472352016484,"[98, 0, 156]",156,l,0.7694882838986814,colour,0.06
026,70,1,2,16,39,789,1241.7741478749085,1242.943273584242,"[91, 0, 163]",163,l,0.6544151703128591,colour,0.06
026,70,1,2,16,40,790,1243.4559904752532,1244.671292255749,"[77, 0, 177]",177,l,0.6921290680766106,colour,0.06
026,70,1,2,16,41,791,1245.1903677890077,1245.903255294077,"[51, 0, 203]",203,a,0.18962026957888156,colour,0.06
026,70,1,2,16,42,792,1246.4247561305529,1247.143246487598,"[74, 0, 180]",180,l,0.19509394012857229,colour,0.06
026,70,1,2,16,43,793,1247.6591551059391,1249.095218946808,"[76, 0, 178]",178,l,0.9128076330525801,colour,0.06
026,70,1,2,16,44,794,1249.612288229051,1250.1753102717921,"[54, 0, 200]",200,a,0.039768198039382696,colour,0.06
026,70,1,2,16,45,795,1250.6903433705447,1251.3193030974362,"[68, 0, 186]",186,a,0.10557551914826035,colour,0.06
026,70,1,2,16,46,796,1251.8310211951612,1252.4152616870124,"[63, 0, 191]",191,a,0.06098940398078412,colour,0.06
026,70,1,2,16,47,797,1252.9263799573528,1253.5512649542652,"[58, 0, 196]",196,a,0.10162681993097067,colour,0.06
026,70,1,2,16,48,798,1254.066973498906,1254.59922632901,"[55, 0, 199]",199,a,0.008994259289465845,colour,0.06
026,70,1,2,16,49,799,1255.1137820866425,1255.9673233915819,"[57, 0, 197]",197,a,0.3301681249868125,colour,0.06
026,70,1,2,16,50,800,1256.4888183204457,1257.1672596673016,"[60, 0, 194]",194,a,0.15515599446371198,colour,0.06
