id,age,condition,counterbalance,block,trialinblock,trial,tstart,tend,trialstim,trialintensity,response,RT,trialtype,colourfreq
134,22,1,2,Practice,1,NA,5.5138953030109406e-06,1.88646603631787,"[89, 0, 165]",165,l,1.362126358319074,colour,0.5
134,22,1,2,Practice,2,NA,2.407179180998355,3.358437991235405,"[97, 0, 157]",157,l,0.42809397471137345,colour,0.5
134,22,1,2,Practice,3,NA,3.8764615622349083,4.8224448065739125,"[50, 0, 204]",204,a,0.4225387782789767,colour,0.5
134,22,1,2,Practice,4,NA,5.32958641462028,6.1984487196896225,"[43, 0, 211]",211,a,0.3455647435039282,colour,0.5
134,22,1,2,Practice,5,NA,6.704532457748428,7.5424081473611295,"[45, 0, 209]",209,a,0.3145387435797602,colour,0.5
134,22,1,2,Practice,6,NA,8.064327642088756,8.8949230897706,"[12, 0, 242]",242,a,0.30769212590530515,colour,0.5
134,22,1,2,Practice,7,NA,9.407625408377498,10.254408317385241,"[86, 0, 168]",168,l,0.3233900365885347,colour,0.5
134,22,1,2,Practice,8,NA,10.76707834075205,11.526424698298797,"[40, 0, 214]",214,a,0.2360031099524349,colour,0.5
134,22,1,2,Practice,9,NA,12.023249906254932,12.902423491468653,"[91, 0, 163]",163,l,0.3542175383772701,colour,0.5
134,22,1,2,Practice,10,NA,13.416186831193045,14.262420325074345,"[10, 0, 244]",244,a,0.32302848622202873,colour,0.5
134,22,1,2,1,1,1,4.690391025971621,5.671973215416074,"[29, 0, 225]",225,a,0.4575256865937263,colour,0.5
134,22,1,2,1,2,2,6.191158631816506,7.072024572873488,"[82, 0, 172]",172,l,0.3575530194211751,colour,0.5
134,22,1,2,1,3,3,7.582786412676796,8.376022030366585,"[58, 0, 196]",196,a,0.26996838208287954,colour,0.5
134,22,1,2,1,4,4,8.895290548214689,9.75198892201297,"[10, 0, 244]",244,a,0.33341971691697836,colour,0.5
134,22,1,2,1,5,5,10.270252345129848,11.055977320764214,"[11, 0, 243]",243,a,0.2624502570834011,colour,0.5
134,22,1,2,1,6,6,11.568896648706868,12.351973010692745,"[12, 0, 242]",242,a,0.25977840670384467,colour,0.5
134,22,1,2,1,7,7,12.86578006716445,13.679970650700852,"[9, 0, 245]",245,a,0.2916405415162444,colour,0.5
134,22,1,2,1,8,8,14.193869867129251,15.336049426114187,"[55, 0, 199]",199,a,0.618785111233592,colour,0.5
134,22,1,2,1,9,9,15.850548469927162,16.719972793245688,"[38, 0, 216]",216,a,0.34611258329823613,colour,0.5
134,22,1,2,1,10,10,17.241172337671742,18.08000782970339,"[86, 0, 168]",168,l,0.315575739601627,colour,0.5
134,22,1,2,1,11,11,18.601479915436357,19.336000983137637,"[26, 0, 228]",228,a,0.21056499565020204,colour,0.5
134,22,1,2,1,12,12,19.852072653593495,20.94396084547043,"[70, 0, 184]",184,a,0.5685484886635095,colour,0.5
134,22,1,2,1,13,13,21.461539370473474,22.352004912216216,"[93, 0, 161]",161,l,0.3661463437601924,colour,0.5
134,22,1,2,1,14,14,22.86900763446465,23.735994445392862,"[99, 0, 155]",155,l,0.34366995096206665,colour,0.5
134,22,1,2,1,15,15,24.234886162914336,25.06400114390999,"[34, 0, 220]",220,a,0.3057677948381752,colour,0.5
134,22,1,2,1,16,16,25.578654181212187,26.4480316368863,"[22, 0, 232]",232,a,0.34609092166647315,colour,0.5
134,22,1,2,1,17,17,26.969241027487442,27.951975610107183,"[60, 0, 194]",194,a,0.4597438268829137,colour,0.5
134,22,1,2,1,18,18,28.47208026284352,29.543951235711575,"[73, 0, 181]",181,l,0.5486257928423584,colour,0.5
134,22,1,2,1,19,19,30.050194875104353,30.856048134388402,"[28, 0, 226]",226,a,0.29408711241558194,colour,0.5
134,22,1,2,1,20,20,31.366830060258508,32.29598584375344,"[41, 0, 213]",213,a,0.4057798464782536,colour,0.5
134,22,1,2,1,21,21,32.80434640496969,33.671943676890805,"[46, 0, 208]",208,a,0.3442985287401825,colour,0.5
134,22,1,2,1,22,22,34.17929874965921,35.03197871358134,"[80, 0, 174]",174,l,0.3292878794018179,colour,0.5
134,22,1,2,1,23,23,35.526254950789735,36.60799688403495,"[64, 0, 190]",190,a,0.558384113246575,colour,0.5
134,22,1,2,1,24,24,37.12001233524643,38.1439892812632,"[49, 0, 205]",205,a,0.5006990765687078,colour,0.5
134,22,1,2,1,25,25,38.65312020503916,39.57595042907633,"[32, 0, 222]",222,a,0.3995113947894424,colour,0.5
134,22,1,2,1,26,26,40.09062158339657,41.01596139371395,"[76, 0, 178]",178,l,0.40221199626103044,colour,0.5
134,22,1,2,1,27,27,41.52824505418539,42.41594107123092,"[85, 0, 169]",169,l,0.364440203178674,colour,0.5
134,22,1,2,1,28,28,42.93432264821604,44.11203774320893,"[69, 0, 185]",185,l,0.6543293120339513,colour,0.5
134,22,1,2,1,29,29,44.621874045114964,45.47201645979658,"[45, 0, 209]",209,a,0.32684642844833434,colour,0.5
134,22,1,2,1,30,30,45.983013425488025,46.903941767523065,"[36, 0, 218]",218,a,0.40959739475511014,colour,0.5
134,22,1,2,1,31,31,47.42401058040559,48.3359450569842,"[20, 0, 234]",234,a,0.39913212112151086,colour,0.5
134,22,1,2,1,32,32,48.85100336186588,49.70401967037469,"[21, 0, 233]",233,a,0.32941942382603884,colour,0.5
134,22,1,2,1,33,33,50.210492921993136,51.12799204746261,"[6, 0, 248]",248,a,0.39416060387156904,colour,0.5
134,22,1,2,1,34,34,51.64802895882167,52.56793369539082,"[48, 0, 206]",206,a,0.3965610950253904,colour,0.5
134,22,1,2,1,35,35,53.08555987570435,53.935977588640526,"[95, 0, 159]",159,l,0.327193800592795,colour,0.5
134,22,1,2,1,36,36,54.43248220602982,55.26396065647714,"[8, 0, 246]",246,a,0.3081265380606055,colour,0.5
134,22,1,2,1,37,37,55.77619508607313,56.79997117049061,"[67, 0, 187]",187,l,0.5003753351047635,colour,0.5
134,22,1,2,1,38,38,57.30738886469044,58.10397532326169,"[44, 0, 210]",210,a,0.2731530200690031,colour,0.5
134,22,1,2,1,39,39,58.61990205850452,59.52796542365104,"[51, 0, 203]",203,a,0.39621411683037877,colour,0.5
134,22,1,2,1,40,40,60.04586965916678,60.887999672442675,"[19, 0, 235]",235,a,0.31866624881513417,colour,0.5
134,22,1,2,1,41,41,61.40529226535,62.25596007029526,"[98, 0, 156]",156,l,0.32736788038164377,colour,0.5
134,22,1,2,1,42,42,62.76465894537978,63.519988862099126,"[50, 0, 204]",204,a,0.2413491744082421,colour,0.5
134,22,1,2,1,43,43,64.03659891989082,64.80794458114542,"[84, 0, 170]",170,l,0.24802919500507414,colour,0.5
134,22,1,2,1,44,44,65.30852589779533,66.11998043372296,"[94, 0, 160]",160,l,0.28803251893259585,colour,0.5
134,22,1,2,1,45,45,66.63674448546953,67.36797457654029,"[90, 0, 164]",164,l,0.2079092925414443,colour,0.5
134,22,1,2,1,46,46,67.88668974093162,68.66398405097425,"[77, 0, 177]",177,l,0.25434451433829963,colour,0.5
134,22,1,2,1,47,47,69.1835266854614,69.84800264984369,"[25, 0, 229]",229,a,0.1410661565605551,colour,0.5
134,22,1,2,1,48,48,70.35540655930527,71.01599999074824,"[91, 0, 163]",163,l,0.13730374677106738,colour,0.5
134,22,1,2,1,49,49,71.52725768252276,72.22400813852437,"[13, 0, 241]",241,a,0.17338003288023174,colour,0.5
134,22,1,2,1,50,50,72.73046051617712,73.51194967911579,"[88, 0, 166]",166,l,0.2582530411891639,colour,0.5
134,22,1,2,2,1,51,82.49260593671352,83.58393486752175,"[8, 0, 246]",246,a,0.567258249502629,colour,0.5
134,22,1,2,2,2,52,84.10279142251238,85.21593744796701,"[50, 0, 204]",204,l,0.5909213002305478,colour,0.5
134,22,1,2,2,3,53,85.72773628402501,86.60001087025739,"[64, 0, 190]",190,l,0.3488620216958225,colour,0.5
134,22,1,2,2,4,54,87.1183345518075,87.88793232478201,"[90, 0, 164]",164,l,0.24619820527732372,colour,0.5
134,22,1,2,2,5,55,88.39964215178043,89.11994223087095,"[44, 0, 210]",210,a,0.19704347755759954,colour,0.5
134,22,1,2,2,6,56,89.63396196393296,90.39197239628993,"[73, 0, 181]",181,l,0.23469672305509448,colour,0.5
134,22,1,2,2,7,57,90.89959922246635,91.48803693032824,"[0, 0, 254]",254,a,0.06512478622607887,colour,0.5
134,22,1,2,2,8,58,92.00899741007015,92.62398466537707,"[77, 0, 177]",177,l,0.09176570596173406,colour,0.5
134,22,1,2,2,9,59,93.13405845616944,93.91198488906957,"[89, 0, 165]",165,l,0.2545914559159428,colour,0.5
134,22,1,2,2,10,60,94.43083159788512,95.32791690179147,"[63, 0, 191]",191,l,0.37382909609004855,colour,0.5
134,22,1,2,2,11,61,95.82466570357792,96.5119996976573,"[29, 0, 225]",225,a,0.16400374309159815,colour,0.5
134,22,1,2,2,12,62,97.02779922052287,97.7839223430492,"[22, 0, 232]",232,a,0.23271134542301297,colour,0.5
134,22,1,2,2,13,63,98.29346207901835,99.03991982876323,"[46, 0, 208]",208,a,0.22298335121013224,colour,0.5
134,22,1,2,2,14,64,99.5590757066384,100.49593039019965,"[51, 0, 203]",203,a,0.41358350962400436,colour,0.5
134,22,1,2,2,15,65,101.01220016507432,101.72790366853587,"[26, 0, 228]",228,a,0.19242012011818588,colour,0.5
134,22,1,2,2,16,66,102.24646050669253,103.03190073207952,"[60, 0, 194]",194,a,0.26196425152011216,colour,0.5
134,22,1,2,2,17,67,103.54490001057275,104.10394972329959,"[79, 0, 175]",175,l,0.03561076056212187,colour,0.5
134,22,1,2,2,18,68,104.62306661042385,105.23190671857446,"[21, 0, 233]",233,a,0.08561934647150338,colour,0.5
134,22,1,2,2,19,69,105.74809378571808,106.3199529433623,"[81, 0, 173]",173,l,0.04861870361492038,colour,0.5
134,22,1,2,2,20,70,106.8423954655882,107.5199518406298,"[11, 0, 243]",243,a,0.1542178534436971,colour,0.5
134,22,1,2,2,21,71,108.02981965010986,108.72796589625068,"[35, 0, 219]",219,a,0.17475061677396297,colour,0.5
134,22,1,2,2,22,72,109.24974045553245,109.83196327462792,"[82, 0, 172]",172,l,0.059032777324318886,colour,0.5
134,22,1,2,2,23,73,110.34346515103243,110.95994468824938,"[88, 0, 166]",166,l,0.09317291714251041,colour,0.5
134,22,1,2,2,24,74,111.46849862788804,112.04795231646858,"[32, 0, 222]",222,a,0.05630145617760718,colour,0.5
134,22,1,2,2,25,75,112.5621551880613,113.2079408003483,"[87, 0, 167]",167,l,0.12245024158619344,colour,0.5
134,22,1,2,2,26,76,113.71845097257756,114.32799094473012,"[47, 0, 207]",207,a,0.0862676165997982,colour,0.5
134,22,1,2,2,27,77,114.84339504642412,115.78397511853836,"[71, 0, 183]",183,l,0.4172899934928864,colour,0.5
134,22,1,2,2,28,78,116.28489632415585,116.839950470021,"[70, 0, 184]",184,l,0.03173255966976285,colour,0.5
134,22,1,2,2,29,79,117.34741385024972,118.03197083668783,"[49, 0, 205]",205,a,0.1612972340080887,colour,0.5
134,22,1,2,2,30,80,118.55136302206665,119.26396301947534,"[85, 0, 169]",169,l,0.18919255281798542,colour,0.5
134,22,1,2,2,31,81,119.77038625255227,120.51191777759232,"[75, 0, 179]",179,l,0.22715693642385304,colour,0.5
134,22,1,2,2,32,82,121.02902171830647,121.69597576116212,"[92, 0, 162]",162,l,0.143541872035712,colour,0.5
134,22,1,2,2,33,83,122.21649513370357,122.87191224796697,"[18, 0, 236]",236,a,0.13093053176999092,colour,0.5
134,22,1,2,2,34,84,123.38985901908018,124.15993767790496,"[16, 0, 238]",238,a,0.2469362725969404,colour,0.5
134,22,1,2,2,35,85,124.67113589891233,125.39991272380576,"[30, 0, 224]",224,a,0.21793857892043889,colour,0.5
134,22,1,2,2,36,86,125.90869785100222,126.64790726033971,"[5, 0, 249]",249,a,0.21585474000312388,colour,0.5
134,22,1,2,2,37,87,127.15865295240656,127.88790160487406,"[65, 0, 189]",189,l,0.20624765660613775,colour,0.5
134,22,1,2,2,38,88,128.40864940779284,129.159929407062,"[39, 0, 215]",215,a,0.22792139137163758,colour,0.5
134,22,1,2,2,39,89,129.6742827279959,130.57594649051316,"[57, 0, 197]",197,l,0.3782811302226037,colour,0.5
134,22,1,2,2,40,90,131.09685537661426,131.71992356237024,"[10, 0, 244]",244,a,0.10045630973763764,colour,0.5
134,22,1,2,2,41,91,132.23676717095077,133.05594463157468,"[48, 0, 206]",206,a,0.29589132056571543,colour,0.5
134,22,1,2,2,42,92,133.56487351260148,134.26388267497532,"[23, 0, 231]",231,a,0.175644253147766,colour,0.5
134,22,1,2,2,43,93,134.7836943063885,135.3998918500729,"[2, 0, 252]",252,a,0.092942911433056,colour,0.5
134,22,1,2,2,44,94,135.9086265647784,136.57592758606188,"[74, 0, 180]",180,l,0.14384592114947736,colour,0.5
134,22,1,2,2,45,95,137.09753673011437,137.67192319687456,"[84, 0, 170]",170,l,0.04952573054470122,colour,0.5
134,22,1,2,2,46,96,138.1928635907825,139.1279176105745,"[53, 0, 201]",201,a,0.4118084458168596,colour,0.5
134,22,1,2,2,47,97,139.646029796917,140.28793011931702,"[41, 0, 213]",213,a,0.11788320424966514,colour,0.5
134,22,1,2,2,48,98,140.8069150680676,141.495927633252,"[43, 0, 211]",211,a,0.16609821561723948,colour,0.5
134,22,1,2,2,49,99,142.0100702464115,144.08793870499358,"[96, 0, 158]",158,l,1.5550702936016023,colour,0.5
134,22,1,2,2,50,100,144.60378273250535,145.11993829230778,"[25, 0, 229]",229,a,0.004946704721078277,colour,0.5
134,22,1,2,3,1,101,149.87230333709158,150.69591392739676,"[86, 0, 168]",168,l,0.29966160748153925,colour,0.5
134,22,1,2,3,2,102,151.2167810657993,152.3839131272398,"[99, 0, 155]",155,l,0.6437758167739958,colour,0.5
134,22,1,2,3,3,103,152.90427574887872,153.92789744585752,"[21, 0, 233]",233,a,0.5108752674423158,colour,0.5
134,22,1,2,3,4,104,154.44064111821353,155.95997974066995,"[61, 0, 193]",193,l,0.996266340604052,colour,0.5
134,22,1,2,3,5,105,156.47183765354566,157.35190014913678,"[24, 0, 230]",230,a,0.35673185088671744,colour,0.5
134,22,1,2,3,6,106,157.86248948448338,158.79196034441702,"[45, 0, 209]",209,a,0.4062067752238363,colour,0.5
134,22,1,2,3,7,107,159.29996998910792,160.1999063435942,"[40, 0, 214]",214,a,0.3765584484208375,colour,0.5
134,22,1,2,3,8,108,160.70620433357544,162.71989166084677,"[59, 0, 195]",195,l,1.4903866148088127,colour,0.5
134,22,1,2,3,9,109,163.23752689966932,164.03985838894732,"[31, 0, 223]",223,a,0.2794285612180829,colour,0.5
134,22,1,2,3,10,110,164.55057021020912,165.34389404929243,"[85, 0, 169]",169,l,0.26999280066229403,colour,0.5
134,22,1,2,3,11,111,165.86294043809175,166.61590255307965,"[2, 0, 252]",252,a,0.22945542121306062,colour,0.5
134,22,1,2,3,12,112,167.12869781954214,167.88792050932534,"[35, 0, 219]",219,a,0.23594048828817904,colour,0.5
134,22,1,2,3,13,113,168.39529488049448,169.119878427824,"[94, 0, 160]",160,l,0.19979646056890488,colour,0.5
134,22,1,2,3,14,114,169.63118495652452,170.4799103133846,"[51, 0, 203]",203,a,0.32553689065389335,colour,0.5
134,22,1,2,3,15,115,170.97930260933936,171.76788769406267,"[75, 0, 179]",179,l,0.2653146986849606,colour,0.5
134,22,1,2,3,16,116,172.2761856338475,173.03992179804482,"[83, 0, 171]",171,l,0.2403933103196323,colour,0.5
134,22,1,2,3,17,117,173.55931319575757,174.21584134944715,"[13, 0, 241]",241,a,0.13314237049780786,colour,0.5
134,22,1,2,3,18,118,174.73135415255092,175.45587468449958,"[69, 0, 185]",185,l,0.20110954251140356,colour,0.5
134,22,1,2,3,19,119,175.96568223577924,176.71989323641174,"[93, 0, 161]",161,l,0.23084136517718434,colour,0.5
134,22,1,2,3,20,120,177.22720222896896,177.82390912575647,"[80, 0, 174]",174,l,0.07341760606504977,colour,0.5
134,22,1,2,3,21,121,178.33655236731283,179.03188812895678,"[62, 0, 192]",192,a,0.17190901841968298,colour,0.5
134,22,1,2,3,22,122,179.53972448129207,180.23187599843368,"[66, 0, 188]",188,a,0.16893351241014898,colour,0.5
134,22,1,2,3,23,123,180.74280482903123,181.5439437525347,"[22, 0, 232]",232,a,0.27784136193804443,colour,0.5
134,22,1,2,3,24,124,182.05525973369367,183.19987798668444,"[23, 0, 231]",231,a,0.6218933435156941,colour,0.5
134,22,1,2,3,25,125,183.7022639052011,184.4878675765358,"[39, 0, 215]",215,a,0.2623112297151238,colour,0.5
134,22,1,2,3,26,126,185.00058643659577,185.77586701256223,"[50, 0, 204]",204,a,0.25197316822595894,colour,0.5
134,22,1,2,3,27,127,186.29500595503487,186.92788681201637,"[90, 0, 164]",164,l,0.10812409617938101,colour,0.5
134,22,1,2,3,28,128,187.43712919414975,188.05586861935444,"[17, 0, 237]",237,a,0.09546194970607758,colour,0.5
134,22,1,2,3,29,129,188.56205712025985,189.343935796991,"[5, 0, 249]",249,a,0.25939401309005916,colour,0.5
134,22,1,2,3,30,130,189.85881017590873,190.61590334074572,"[70, 0, 184]",184,l,0.23357898811809719,colour,0.5
134,22,1,2,3,31,131,191.12530444306321,191.7680082109291,"[36, 0, 218]",218,a,0.12011040281504393,colour,0.5
134,22,1,2,3,32,132,192.28085034503601,192.98390430491418,"[72, 0, 182]",182,l,0.17980956751853228,colour,0.5
134,22,1,2,3,33,133,193.50016620312817,194.15189061802812,"[73, 0, 181]",181,l,0.1284390625078231,colour,0.5
134,22,1,2,3,34,134,194.67204253235832,195.34390231990255,"[8, 0, 246]",246,a,0.14862681669183075,colour,0.5
134,22,1,2,3,35,135,195.85951397847384,196.4318985263817,"[91, 0, 163]",163,l,0.04899797705002129,colour,0.5
134,22,1,2,3,36,136,196.95325560914353,197.71191470557824,"[56, 0, 198]",198,a,0.2357041807845235,colour,0.5
134,22,1,2,3,37,137,198.2188282769639,199.46392528899014,"[33, 0, 221]",221,a,0.7216812965925783,colour,0.5
134,22,1,2,3,38,138,199.97828688053414,200.78387783863582,"[11, 0, 243]",243,a,0.28220399329438806,colour,0.5
134,22,1,2,3,39,139,201.29286540253088,202.04783888882957,"[34, 0, 220]",220,a,0.2316416602116078,colour,0.5
134,22,1,2,3,40,140,202.55861530080438,203.55989175545983,"[57, 0, 197]",197,l,0.4780588436406106,colour,0.5
134,22,1,2,3,41,141,204.07408832549118,204.83188253641129,"[27, 0, 227]",227,a,0.23459786758758128,colour,0.5
134,22,1,2,3,42,142,205.34282278828323,206.92798645491712,"[53, 0, 201]",201,a,1.061860591173172,colour,0.5
134,22,1,2,3,43,143,207.424112980254,208.26386495190673,"[19, 0, 235]",235,a,0.31661431142129004,colour,0.5
134,22,1,2,3,44,144,208.78350250329822,209.56786831701174,"[15, 0, 239]",239,a,0.2596476497128606,colour,0.5
134,22,1,2,3,45,145,210.0817517794203,210.8799022003077,"[92, 0, 162]",162,l,0.27335427538491786,colour,0.5
134,22,1,2,3,46,146,211.3958320862148,212.32790232938714,"[3, 0, 251]",251,a,0.40885223844088614,colour,0.5
134,22,1,2,3,47,147,212.84891637251712,213.62389526236802,"[37, 0, 217]",217,a,0.2516773899551481,colour,0.5
134,22,1,2,3,48,148,214.1301168461796,214.9998562464025,"[49, 0, 205]",205,a,0.34634377085603774,colour,0.5
134,22,1,2,3,49,149,215.5435369098559,216.38386153336614,"[89, 0, 165]",165,l,0.3241434639785439,colour,0.5
134,22,1,2,3,50,150,216.8957218094729,217.70385346724652,"[14, 0, 240]",240,a,0.28481479780748487,colour,0.5
134,22,1,2,4,1,151,222.0764289519284,222.97586433426477,"[14, 0, 240]",240,a,0.37531153205782175,colour,0.5
134,22,1,2,4,2,152,223.48348288983107,224.29588226228952,"[44, 0, 210]",210,a,0.28913213685154915,colour,0.5
134,22,1,2,4,3,153,224.81478765420616,225.63185252528638,"[2, 0, 252]",252,a,0.2968495476525277,colour,0.5
134,22,1,2,4,4,154,226.1424769128207,226.99186511267908,"[39, 0, 215]",215,a,0.32565662008710206,colour,0.5
134,22,1,2,4,5,155,227.5022724911105,228.34387829550542,"[64, 0, 190]",190,l,0.31832596589811146,colour,0.5
134,22,1,2,4,6,156,228.86167146638036,229.98382750502788,"[57, 0, 197]",197,a,0.5986253202427179,colour,0.5
134,22,1,2,4,7,157,230.5025328232441,231.3839135209564,"[12, 0, 242]",242,a,0.35809534532018006,colour,0.5
134,22,1,2,4,8,158,231.8931413309183,232.7038664643187,"[20, 0, 234]",234,a,0.28746498725377023,colour,0.5
134,22,1,2,4,9,159,233.22125515551306,234.063870386919,"[88, 0, 166]",166,l,0.3193413005210459,colour,0.5
134,22,1,2,4,10,160,234.5807214784436,235.34382355073467,"[81, 0, 173]",173,l,0.23998292279429734,colour,0.5
134,22,1,2,4,11,161,235.863038899377,236.56783090159297,"[34, 0, 220]",220,a,0.1814357575494796,colour,0.5
134,22,1,2,4,12,162,237.0725334219169,237.74385442840867,"[99, 0, 155]",155,l,0.14815971557982266,colour,0.5
134,22,1,2,4,13,163,238.26277518016286,239.04789323941804,"[48, 0, 206]",206,a,0.26174369757063687,colour,0.5
134,22,1,2,4,14,164,239.55969522637315,240.3518371337559,"[1, 0, 253]",253,a,0.26882071513682604,colour,0.5
134,22,1,2,4,15,165,240.87220093701035,241.6798580107279,"[52, 0, 202]",202,a,0.28440362261608243,colour,0.5
134,22,1,2,4,16,166,242.20144194876775,243.02386233676225,"[94, 0, 160]",160,l,0.2990251525770873,colour,0.5
134,22,1,2,4,17,167,243.5452154809609,244.43186898808926,"[36, 0, 218]",218,a,0.3633551576640457,colour,0.5
134,22,1,2,4,18,168,244.95141634880565,245.83986224862747,"[90, 0, 164]",164,l,0.36509201815351844,colour,0.5
134,22,1,2,4,19,169,246.35799137013964,247.33584029390477,"[67, 0, 187]",187,l,0.4545584514271468,colour,0.5
134,22,1,2,4,20,170,247.84231984708458,248.73586250678636,"[15, 0, 239]",239,a,0.3702147719450295,colour,0.5
134,22,1,2,4,21,171,249.2485872746911,250.15184690104797,"[8, 0, 246]",246,a,0.38003216916695237,colour,0.5
134,22,1,2,4,22,172,250.67040689010173,251.45583687536418,"[37, 0, 217]",217,a,0.2621978020761162,colour,0.5
134,22,1,2,4,23,173,251.9672556500882,252.77583865565248,"[85, 0, 169]",169,l,0.28523621312342584,colour,0.5
134,22,1,2,4,24,174,253.29543839790858,254.04782628570683,"[73, 0, 181]",181,l,0.22906078770756721,colour,0.5
134,22,1,2,4,25,175,254.56106896093115,255.359806999797,"[77, 0, 177]",177,l,0.2748150499537587,colour,0.5
134,22,1,2,4,26,176,255.87411305913702,256.85581300826743,"[54, 0, 200]",200,a,0.47081877407617867,colour,0.5
134,22,1,2,4,27,177,257.377393795643,258.04787197173573,"[86, 0, 168]",168,l,0.14725347608327866,colour,0.5
134,22,1,2,4,28,178,258.56475220806897,259.52781339897774,"[33, 0, 221]",221,a,0.43974236166104674,colour,0.5
134,22,1,2,4,29,179,260.0341145398561,260.6798536784481,"[83, 0, 171]",171,l,0.12243173085153103,colour,0.5
134,22,1,2,4,30,180,261.1903571553994,261.8719181558117,"[7, 0, 247]",247,a,0.1557487326208502,colour,0.5
134,22,1,2,4,31,181,262.3803468523547,263.19184037903324,"[43, 0, 211]",211,a,0.28855318343266845,colour,0.5
134,22,1,2,4,32,182,263.7084890338592,264.6718247355893,"[71, 0, 183]",183,l,0.44002199242822826,colour,0.5
134,22,1,2,4,33,183,265.1927702492103,266.1278565644752,"[11, 0, 243]",243,a,0.41168792895041406,colour,0.5
134,22,1,2,4,34,184,266.6459947444964,267.53585100662895,"[24, 0, 230]",230,a,0.3665681527927518,colour,0.5
134,22,1,2,4,35,185,268.04287643008865,269.1198559785262,"[31, 0, 223]",223,a,0.5536579622421414,colour,0.5
134,22,1,2,4,36,186,269.6366184547078,270.5118917839136,"[65, 0, 189]",189,l,0.35195174301043153,colour,0.5
134,22,1,2,4,37,187,271.02721987315454,272.1838567284867,"[93, 0, 161]",161,l,0.6333452013786882,colour,0.5
134,22,1,2,4,38,188,272.69907572236843,273.51183900842443,"[0, 0, 254]",254,a,0.28942909673787653,colour,0.5
134,22,1,2,4,39,189,274.0272084516473,275.45587074616924,"[76, 0, 178]",178,l,0.9053088068030775,colour,0.5
134,22,1,2,4,40,190,275.96472794702277,276.73582548531704,"[49, 0, 205]",205,a,0.24778579827398062,colour,0.5
134,22,1,2,4,41,191,277.2459201500751,278.06380067626014,"[96, 0, 158]",158,l,0.29448607843369246,colour,0.5
134,22,1,2,4,42,192,278.57408478087746,279.3838091518264,"[56, 0, 198]",198,a,0.28686279663816094,colour,0.5
134,22,1,2,4,43,193,279.90220215008594,280.70388339972124,"[84, 0, 170]",170,l,0.27839983557350934,colour,0.5
134,22,1,2,4,44,194,281.21467989776284,281.99982355721295,"[59, 0, 195]",195,a,0.2617882024496794,colour,0.5
134,22,1,2,4,45,195,282.51159364241175,283.29587596072815,"[97, 0, 157]",157,l,0.2609315875452012,colour,0.5
134,22,1,2,4,46,196,283.8083321256563,284.5837879627943,"[4, 0, 250]",250,a,0.25207084184512496,colour,0.5
134,22,1,2,4,47,197,285.0928814713843,286.0318719812203,"[16, 0, 238]",238,a,0.4157536004204303,colour,0.5
134,22,1,2,4,48,198,286.5459452776704,287.30382377142087,"[22, 0, 232]",232,a,0.2344714431092143,colour,0.5
134,22,1,2,4,49,199,287.8116274343338,288.623828308424,"[87, 0, 167]",167,l,0.2888198171276599,colour,0.5
134,22,1,2,4,50,200,289.13979088375345,289.8958442953881,"[13, 0, 241]",241,a,0.23354354198090732,colour,0.5
134,22,1,2,5,1,201,294.2497128865216,295.23997228918597,"[36, 0, 218]",218,a,0.46616666624322534,colour,0.4
134,22,1,2,5,2,202,295.7504942766391,296.5198474714998,"[0, 0, 254]",254,a,0.2460950177628547,colour,0.4
134,22,1,2,5,3,203,297.03174555674195,297.7518105097115,"[87, 0, 167]",167,l,0.19678314519114792,colour,0.4
134,22,1,2,5,4,204,298.26612602127716,298.94382536248304,"[83, 0, 171]",171,l,0.15443761949427426,colour,0.4
134,22,1,2,5,5,205,299.45362267363816,300.2238139724359,"[97, 0, 157]",157,l,0.24681930034421384,colour,0.4
134,22,1,2,5,6,206,300.7255752515048,301.4238207465969,"[1, 0, 253]",253,a,0.17487979819998145,colour,0.4
134,22,1,2,5,7,207,301.94436571910046,303.80782012594864,"[82, 0, 172]",172,l,1.3401962297502905,colour,0.4
134,22,1,2,5,8,208,304.3192971898243,305.0477683902718,"[58, 0, 196]",196,a,0.2051574911456555,colour,0.4
134,22,1,2,5,9,209,305.5693259406835,306.14381677657366,"[72, 0, 182]",182,a,0.05153828323818743,colour,0.4
134,22,1,2,5,10,210,306.6632211713586,307.2558096211869,"[70, 0, 184]",184,a,0.07880502403713763,colour,0.4
134,22,1,2,5,11,211,307.7630709584337,308.3278341940604,"[79, 0, 175]",175,a,0.04141171695664525,colour,0.4
134,22,1,2,5,12,212,308.84102803235874,309.62384130549617,"[60, 0, 194]",194,a,0.2593266654293984,colour,0.4
134,22,1,2,5,13,213,310.1380504784174,311.9518302809447,"[63, 0, 191]",191,a,1.2904507331550121,colour,0.4
134,22,1,2,5,14,214,312.46630687545985,313.2797999577597,"[46, 0, 208]",208,a,0.2902967392001301,colour,0.4
134,22,1,2,5,15,215,313.7951252902858,314.6238397299312,"[64, 0, 190]",190,a,0.30538615793921053,colour,0.4
134,22,1,2,5,16,216,315.1388279304374,315.9198708659969,"[31, 0, 223]",223,a,0.2578013001475483,colour,0.4
134,22,1,2,5,17,217,316.4232740884181,318.135798467556,"[71, 0, 183]",183,l,1.1894052296411246,colour,0.4
134,22,1,2,5,18,218,318.6420480145607,319.49582247645594,"[16, 0, 238]",238,a,0.3305198294110596,colour,0.4
134,22,1,2,5,19,219,320.0169901193585,320.77582959714346,"[95, 0, 159]",159,l,0.23547259927727282,colour,0.4
134,22,1,2,5,20,220,321.27343777078204,322.19183053285815,"[62, 0, 192]",192,a,0.40751513140276074,colour,0.4
134,22,1,2,5,21,221,322.6985207935795,323.5997997687664,"[21, 0, 233]",233,a,0.3777994567062706,colour,0.4
134,22,1,2,5,22,222,324.1203534058295,324.9918186387513,"[3, 0, 251]",251,a,0.35678147547878325,colour,0.4
134,22,1,2,5,23,223,325.5022551617585,326.31181372352876,"[55, 0, 199]",199,a,0.2987979033496231,colour,0.4
134,22,1,2,5,24,224,326.8179904092103,327.7358203653712,"[8, 0, 246]",246,a,0.39446583460085094,colour,0.4
134,22,1,2,5,25,225,328.2555102983024,329.0558505025692,"[23, 0, 231]",231,a,0.27699538110755384,colour,0.4
134,22,1,2,5,26,226,329.5555980473291,330.54380118031986,"[66, 0, 188]",188,a,0.46492408215999603,colour,0.4
134,22,1,2,5,27,227,331.05559765337966,331.8957867939025,"[33, 0, 221]",221,a,0.31691796658560634,colour,0.4
134,22,1,2,5,28,228,332.4149726042524,333.2717804671265,"[59, 0, 195]",195,a,0.3334850952960551,colour,0.4
134,22,1,2,5,29,229,333.7900194718968,334.647857242031,"[12, 0, 242]",242,a,0.33479935908690095,colour,0.4
134,22,1,2,5,30,230,335.1649426717777,336.1437848750502,"[6, 0, 248]",248,a,0.45565806911326945,colour,0.4
134,22,1,2,5,31,231,336.6649202227127,337.4558089124039,"[48, 0, 206]",206,a,0.26742295594885945,colour,0.4
134,22,1,2,5,32,232,337.96183160413057,338.7838144293055,"[81, 0, 173]",173,l,0.298587589757517,colour,0.4
134,22,1,2,5,33,233,339.29233292280696,340.03180108894594,"[88, 0, 166]",166,l,0.2155439956113696,colour,0.4
134,22,1,2,5,34,234,340.5429780425038,341.3118105728645,"[5, 0, 249]",249,a,0.2435653454158455,colour,0.4
134,22,1,2,5,35,235,341.8260331368074,342.5597921125591,"[50, 0, 204]",204,a,0.2104783495888114,colour,0.4
134,22,1,2,5,36,236,343.07589174597524,343.91978225065395,"[69, 0, 185]",185,l,0.32048936164937913,colour,0.4
134,22,1,2,5,37,237,344.4229345934,345.15979274269193,"[93, 0, 161]",161,l,0.213688587769866,colour,0.4
134,22,1,2,5,38,238,345.6605981574394,346.4637665692717,"[94, 0, 160]",160,l,0.2798550962470472,colour,0.4
134,22,1,2,5,39,239,346.9731074129231,347.7038160520606,"[54, 0, 200]",200,a,0.20752923120744526,colour,0.4
134,22,1,2,5,40,240,348.21740413014777,348.90377280768007,"[84, 0, 170]",170,l,0.16301282681524754,colour,0.4
134,22,1,2,5,41,241,349.4205151977949,350.1437679398805,"[92, 0, 162]",162,l,0.19986853445880115,colour,0.4
134,22,1,2,5,42,242,350.6548799085431,351.27987163793296,"[77, 0, 177]",177,l,0.10164887551218271,colour,0.4
134,22,1,2,5,43,243,351.79654510482214,352.5357730251271,"[74, 0, 180]",180,l,0.21576691255904734,colour,0.4
134,22,1,2,5,44,244,353.0465671601705,353.6637737371493,"[78, 0, 176]",176,l,0.09384363680146635,colour,0.4
134,22,1,2,5,45,245,354.1716144217644,354.7917795693502,"[9, 0, 245]",245,a,0.09679117985069752,colour,0.4
134,22,1,2,5,46,246,355.31221387092955,355.97583755292,"[75, 0, 179]",179,l,0.14029461261816323,colour,0.4
134,22,1,2,5,47,247,356.4841646370478,357.13578113843687,"[11, 0, 243]",243,a,0.1283496597316116,colour,0.4
134,22,1,2,5,48,248,357.65595235093497,358.55976730026305,"[10, 0, 244]",244,a,0.38058000919409096,colour,0.4
134,22,1,2,5,49,249,359.0778274987824,359.7918299816083,"[22, 0, 232]",232,a,0.19068325962871313,colour,0.4
134,22,1,2,5,50,250,360.2997510107234,361.04780777497217,"[32, 0, 222]",222,a,0.22547088214196265,colour,0.4
134,22,1,2,6,1,251,365.5489483526908,366.51185003621504,"[86, 0, 168]",168,l,0.438038190593943,colour,0.28
134,22,1,2,6,2,252,367.01931341644377,367.75180538976565,"[99, 0, 155]",155,l,0.2091877164784819,colour,0.28
134,22,1,2,6,3,253,368.26929648104124,369.0237733274698,"[85, 0, 169]",169,l,0.2312155186664313,colour,0.28
134,22,1,2,6,4,254,369.53493413329124,370.31178694195114,"[6, 0, 248]",248,a,0.2535985701251775,colour,0.28
134,22,1,2,6,5,255,370.8317572933156,371.5918117859401,"[19, 0, 235]",235,a,0.23669509729370475,colour,0.28
134,22,1,2,6,6,256,372.11289947805926,372.9997802339494,"[52, 0, 202]",202,a,0.36345952679403126,colour,0.28
134,22,1,2,6,7,257,373.51929451175965,374.5517446587328,"[62, 0, 192]",192,l,0.509154160739854,colour,0.28
134,22,1,2,6,8,258,375.0661310625728,375.83182661025785,"[28, 0, 226]",226,a,0.24240507534705102,colour,0.28
134,22,1,2,6,9,259,376.34731499501504,377.1197886308655,"[71, 0, 183]",183,l,0.24914889899082482,colour,0.28
134,22,1,2,6,10,260,377.62871908722445,378.35978218750097,"[22, 0, 232]",232,a,0.20643197651952505,colour,0.28
134,22,1,2,6,11,261,378.879963246407,379.65573888644576,"[61, 0, 193]",193,l,0.25242766621522605,colour,0.28
134,22,1,2,6,12,262,380.176877778722,380.95181885920465,"[81, 0, 173]",173,l,0.2516817220021039,colour,0.28
134,22,1,2,6,13,263,381.45807943399996,382.1677610334009,"[87, 0, 167]",167,l,0.18633598857559264,colour,0.28
134,22,1,2,6,14,264,382.6768391816877,383.4478717355523,"[46, 0, 208]",208,a,0.24775310908444226,colour,0.28
134,22,1,2,6,15,265,383.955389860319,385.05580954253674,"[1, 0, 253]",253,a,0.5771197576541454,colour,0.28
134,22,1,2,6,16,266,385.5647939557675,386.30378478066996,"[17, 0, 237]",237,a,0.21566648175939918,colour,0.28
134,22,1,2,6,17,267,386.8146226326935,387.5277925252449,"[70, 0, 184]",184,l,0.19002238614484668,colour,0.28
134,22,1,2,6,18,268,388.0491476387251,388.8157541519031,"[42, 0, 212]",212,a,0.24324514856562018,colour,0.28
134,22,1,2,6,19,269,389.3303189680446,390.19175806525163,"[68, 0, 186]",186,l,0.334926177514717,colour,0.28
134,22,1,2,6,20,270,390.69611715199426,391.51977460994385,"[59, 0, 195]",195,l,0.30029885028488934,colour,0.28
134,22,1,2,6,21,271,392.0440815987531,392.91973774600774,"[51, 0, 203]",203,a,0.352321564219892,colour,0.28
134,22,1,2,6,22,272,393.4346999526024,395.90380273992196,"[88, 0, 166]",166,l,1.945871391799301,colour,0.28
134,22,1,2,6,23,273,396.41904536494985,397.1757765854709,"[36, 0, 218]",218,a,0.23324461304582655,colour,0.28
134,22,1,2,6,24,274,397.6848905738443,398.399770939257,"[63, 0, 191]",191,l,0.19156783749349415,colour,0.28
134,22,1,2,6,25,275,398.9193407492712,401.4557360508479,"[96, 0, 158]",158,l,2.0131115245167166,colour,0.28
134,22,1,2,6,26,276,401.9607205649372,402.9277540857438,"[21, 0, 233]",233,a,0.4437402915209532,colour,0.28
134,22,1,2,6,27,277,403.4450809434056,404.66378043266013,"[53, 0, 201]",201,a,0.6953456078190356,colour,0.28
134,22,1,2,6,28,278,405.17946180165745,406.10380045557395,"[60, 0, 194]",194,a,0.40108047681860626,colour,0.28
134,22,1,2,6,29,279,406.6168592048343,407.38378709647804,"[39, 0, 215]",215,a,0.2435413207858801,colour,0.28
134,22,1,2,6,30,280,407.8981415987946,408.6717302124016,"[91, 0, 163]",163,l,0.2502863258123398,colour,0.28
134,22,1,2,6,31,281,409.1794019371737,410.02379144448787,"[29, 0, 225]",225,a,0.33113737986423075,colour,0.28
134,22,1,2,6,32,282,410.54521390562877,412.0637250577565,"[98, 0, 156]",156,l,0.9951682982500643,colour,0.28
134,22,1,2,6,33,283,412.57645770255476,413.83977639023215,"[65, 0, 189]",189,l,0.7399967075325549,colour,0.28
134,22,1,2,6,34,284,414.35769913648255,415.1277537706774,"[56, 0, 198]",198,a,0.24667082028463483,colour,0.28
134,22,1,2,6,35,285,415.6389378134627,416.75978825287893,"[82, 0, 172]",172,l,0.5975422440096736,colour,0.28
134,22,1,2,6,36,286,417.27958058565855,418.1198532215785,"[80, 0, 174]",174,l,0.3169597142841667,colour,0.28
134,22,1,2,6,37,287,418.63884053356014,419.631781633012,"[90, 0, 164]",164,l,0.46954271337017417,colour,0.28
134,22,1,2,6,38,288,420.13900752412155,420.90376374917105,"[93, 0, 161]",161,l,0.2401530642528087,colour,0.28
134,22,1,2,6,39,289,421.4217648708727,422.23176650935784,"[54, 0, 200]",200,a,0.2867005323059857,colour,0.28
134,22,1,2,6,40,290,422.7498519141227,423.53576239128597,"[72, 0, 182]",182,l,0.2625455679371953,colour,0.28
134,22,1,2,6,41,291,424.04667743714526,424.89573362469673,"[92, 0, 162]",162,l,0.3256759182550013,colour,0.28
134,22,1,2,6,42,292,425.41052529611625,426.1357594768051,"[94, 0, 160]",160,l,0.20187321002595127,colour,0.28
134,22,1,2,6,43,293,426.64485574210994,427.6317450052593,"[67, 0, 187]",187,a,0.4634333753492683,colour,0.28
134,22,1,2,6,44,294,428.1452929112129,429.0717512439005,"[78, 0, 176]",176,l,0.40322496788576245,colour,0.28
134,22,1,2,6,45,295,429.5826544743031,430.29573929612525,"[43, 0, 211]",211,a,0.18803149508312345,colour,0.28
134,22,1,2,6,46,296,430.8031274517998,431.6317548514344,"[64, 0, 190]",190,a,0.3052920289337635,colour,0.28
134,22,1,2,6,47,297,432.1467970088124,432.95976982079446,"[66, 0, 188]",188,a,0.2898867456242442,colour,0.28
134,22,1,2,6,48,298,433.4749821193982,434.391728999326,"[69, 0, 185]",185,l,0.3933736998587847,colour,0.28
134,22,1,2,6,49,299,434.9131656391546,435.69575363211334,"[30, 0, 224]",224,a,0.25912265316583216,colour,0.28
134,22,1,2,6,50,300,436.21013885433786,437.015735326102,"[73, 0, 181]",181,l,0.2822559808846563,colour,0.28
134,22,1,2,7,1,301,471.5561730621848,473.22375016938895,"[78, 0, 176]",176,l,1.1437167397234589,colour,0.14
134,22,1,2,7,2,302,473.74446488940157,474.91179387364537,"[82, 0, 172]",172,l,0.6440014902036637,colour,0.14
134,22,1,2,7,3,303,475.43198241572827,476.5837320368737,"[62, 0, 192]",192,a,0.6284835673868656,colour,0.14
134,22,1,2,7,4,304,477.1038418095559,477.87972851423547,"[85, 0, 169]",169,l,0.25262458925135434,colour,0.14
134,22,1,2,7,5,305,478.4006633942481,479.1037031756714,"[88, 0, 166]",166,l,0.18046925938688219,colour,0.14
134,22,1,2,7,6,306,479.6194365324918,480.27976608718745,"[53, 0, 201]",201,a,0.1370371130760759,colour,0.14
134,22,1,2,7,7,307,480.7912443326786,481.72767641954124,"[63, 0, 191]",191,a,0.413040790008381,colour,0.14
134,22,1,2,7,8,308,482.24572677188553,483.135691735195,"[64, 0, 190]",190,a,0.36672805389389396,colour,0.14
134,22,1,2,7,9,309,483.6519315780606,484.1757868253626,"[80, 0, 174]",174,l,0.0005222395993769169,colour,0.14
134,22,1,2,7,10,310,484.6988130272366,486.06371599948034,"[97, 0, 157]",157,l,0.8416499150916934,colour,0.14
134,22,1,2,7,11,311,486.57378860889,487.3916931594722,"[28, 0, 226]",226,a,0.29483384429477155,colour,0.14
134,22,1,2,7,12,312,487.9019114919938,488.71970458421856,"[0, 0, 254]",254,a,0.2944096722640097,colour,0.14
134,22,1,2,7,13,313,489.22083413414657,489.9917611372657,"[95, 0, 159]",159,l,0.2476837921421975,colour,0.14
134,22,1,2,7,14,314,490.50194323575124,491.27971843164414,"[83, 0, 171]",171,l,0.25442564650438726,colour,0.14
134,22,1,2,7,15,315,491.79888218664564,492.56774740619585,"[77, 0, 177]",177,l,0.24561570724472404,colour,0.14
134,22,1,2,7,16,316,493.0800491834525,494.0637557778973,"[58, 0, 196]",196,a,0.4603251435328275,colour,0.14
134,22,1,2,7,17,317,494.580794733949,495.3996850808617,"[35, 0, 219]",219,a,0.2957802559249103,colour,0.14
134,22,1,2,7,18,318,495.91060406528413,496.6557093481533,"[94, 0, 160]",160,l,0.22168129682540894,colour,0.14
134,22,1,2,7,19,319,497.1762436868157,497.9437123287935,"[86, 0, 168]",168,l,0.2441439051181078,colour,0.14
134,22,1,2,7,20,320,498.4575107204728,499.4237325252034,"[74, 0, 180]",180,l,0.44303570152260363,colour,0.14
134,22,1,2,7,21,321,499.9418411666993,500.7357459284831,"[50, 0, 204]",204,a,0.2706048369873315,colour,0.14
134,22,1,2,7,22,322,501.2544634558726,502.263666059589,"[99, 0, 155]",155,l,0.4859523035120219,colour,0.14
134,22,1,2,7,23,323,502.7699230897706,503.55169227719307,"[67, 0, 187]",187,a,0.25834205048158765,colour,0.14
134,22,1,2,7,24,324,504.06701248977333,505.23170546325855,"[79, 0, 175]",175,l,0.6415135657880455,colour,0.14
134,22,1,2,7,25,325,505.7275050964672,506.5757235737983,"[56, 0, 198]",198,a,0.32487956201657653,colour,0.14
134,22,1,2,7,26,326,507.0867941887118,507.9996916188393,"[60, 0, 194]",194,a,0.38960498850792646,colour,0.14
134,22,1,2,7,27,327,508.5086689426098,509.5917208073661,"[71, 0, 183]",183,l,0.559668050846085,colour,0.14
134,22,1,2,7,28,328,510.1025039148517,510.95973319304176,"[36, 0, 218]",218,a,0.3339561349712312,colour,0.14
134,22,1,2,7,29,329,511.47745783487335,512.2956668285187,"[87, 0, 167]",167,l,0.2947948535438627,colour,0.14
134,22,1,2,7,30,330,512.8055728410836,513.591671182774,"[55, 0, 199]",199,a,0.2628114139661193,colour,0.14
134,22,1,2,7,31,331,514.1024432627019,514.9677329915576,"[61, 0, 193]",193,a,0.3420461241621524,colour,0.14
134,22,1,2,7,32,332,515.4774653180502,516.8397405501455,"[66, 0, 188]",188,l,0.8372349021956325,colour,0.14
134,22,1,2,7,33,333,517.3541730339639,518.2317074325401,"[89, 0, 165]",165,l,0.35419863392598927,colour,0.14
134,22,1,2,7,34,334,518.744780753972,519.6796496661846,"[76, 0, 178]",178,l,0.41149336914531887,colour,0.14
134,22,1,2,7,35,335,520.1979831939097,521.0236677769572,"[59, 0, 195]",195,a,0.30141028366051614,colour,0.14
134,22,1,2,7,36,336,521.5427192857023,523.0797514361329,"[81, 0, 173]",173,l,1.013697567395866,colour,0.14
134,22,1,2,7,37,337,523.5895987655967,524.4236872328911,"[75, 0, 179]",179,l,0.3109252071008086,colour,0.14
134,22,1,2,7,38,338,524.9333069194108,525.759724449832,"[92, 0, 162]",162,l,0.30310460878536105,colour,0.14
134,22,1,2,7,39,339,526.2771103840787,527.1196752032265,"[84, 0, 170]",170,l,0.31769226770848036,colour,0.14
134,22,1,2,7,40,340,527.6379917955492,528.5677032954991,"[73, 0, 181]",181,a,0.4064927075523883,colour,0.14
134,22,1,2,7,41,341,529.0754675739445,530.0077252879273,"[20, 0, 234]",234,a,0.4089589708019048,colour,0.14
134,22,1,2,7,42,342,530.5287160938606,531.4716399430763,"[93, 0, 161]",161,l,0.41972002293914557,colour,0.14
134,22,1,2,7,43,343,531.9816928601358,532.7596504066605,"[96, 0, 158]",158,l,0.25464186794124544,colour,0.14
134,22,1,2,7,44,344,533.2786125123966,534.1836361747701,"[68, 0, 186]",186,a,0.3817564267665148,colour,0.14
134,22,1,2,7,45,345,534.7004014078993,535.4716541215312,"[52, 0, 202]",202,a,0.24791261670179665,colour,0.14
134,22,1,2,7,46,346,535.9773853672668,536.7836564970203,"[51, 0, 203]",203,a,0.28282508812844753,colour,0.14
134,22,1,2,7,47,347,537.2795797979925,539.6557207696605,"[69, 0, 185]",185,a,1.852744160918519,colour,0.14
134,22,1,2,7,48,348,540.1702489580493,541.0156620708294,"[27, 0, 227]",227,a,0.3205279582180083,colour,0.14
134,22,1,2,7,49,349,541.5311988985632,542.391665984178,"[33, 0, 221]",221,a,0.3371825208887458,colour,0.14
134,22,1,2,7,50,350,542.9087553524878,543.9357294656802,"[70, 0, 184]",184,l,0.5036249577533454,colour,0.14
134,22,1,2,8,1,351,548.361754567828,549.2076662897598,"[56, 0, 198]",198,a,0.3218213482759893,colour,0.06
134,22,1,2,8,2,352,549.7219396596774,550.4877108258661,"[54, 0, 200]",200,a,0.24246690911240876,colour,0.06
134,22,1,2,8,3,353,551.0057387289125,551.7916897723917,"[39, 0, 215]",215,a,0.26264402945525944,colour,0.06
134,22,1,2,8,4,354,552.3026753165759,553.1357169414405,"[58, 0, 196]",196,a,0.30973854940384626,colour,0.06
134,22,1,2,8,5,355,553.6463287258521,554.847716717748,"[65, 0, 189]",189,a,0.6766654956154525,colour,0.06
134,22,1,2,8,6,356,555.3664696912747,556.1597175181378,"[66, 0, 188]",188,a,0.26980848074890673,colour,0.06
134,22,1,2,8,7,357,556.6790206942242,557.4396817095112,"[51, 0, 203]",203,a,0.23738235817290843,colour,0.06
134,22,1,2,8,8,358,557.9602912727278,558.8716554604471,"[89, 0, 165]",165,l,0.3880489030852914,colour,0.06
134,22,1,2,8,9,359,559.3821388513315,560.1276946938597,"[57, 0, 197]",197,a,0.22223110566847026,colour,0.06
134,22,1,2,8,10,360,560.6477327866014,561.4397333033849,"[52, 0, 202]",202,a,0.2686982289887965,colour,0.06
134,22,1,2,8,11,361,561.9602420420852,562.8396696578711,"[73, 0, 181]",181,l,0.35599732818081975,colour,0.06
134,22,1,2,8,12,362,563.3509297128767,564.1436612075195,"[7, 0, 247]",247,a,0.26937682554125786,colour,0.06
134,22,1,2,8,13,363,564.6632199897431,565.4717348597478,"[95, 0, 159]",159,l,0.2850069946143776,colour,0.06
134,22,1,2,8,14,364,565.991514983587,566.543707445031,"[60, 0, 194]",194,a,0.028929558349773288,colour,0.06
134,22,1,2,8,15,365,567.0539923373144,567.719654565677,"[93, 0, 161]",161,l,0.1423225251492113,colour,0.06
134,22,1,2,8,16,366,568.2258544880897,570.6956764382776,"[69, 0, 185]",185,a,1.9465432930737734,colour,0.06
134,22,1,2,8,17,367,571.2102113219444,572.0237323676702,"[62, 0, 192]",192,a,0.2901478656567633,colour,0.06
134,22,1,2,8,18,368,572.5383401128929,573.1756911207922,"[83, 0, 171]",171,l,0.11410110164433718,colour,0.06
134,22,1,2,8,19,369,573.6946189620066,574.5516662835144,"[71, 0, 183]",183,l,0.3337206153664738,colour,0.06
134,22,1,2,8,20,370,575.0695768205915,575.8076649506111,"[61, 0, 193]",193,a,0.21475433465093374,colour,0.06
134,22,1,2,8,21,371,576.3202404507902,577.0077055955771,"[75, 0, 179]",179,l,0.16416640160605311,colour,0.06
134,22,1,2,8,22,372,577.5252868775278,578.3676744659897,"[72, 0, 182]",182,l,0.31915146694518626,colour,0.06
134,22,1,2,8,23,373,578.8847472928464,579.5436842080671,"[88, 0, 166]",166,l,0.13577680592425168,colour,0.06
134,22,1,2,8,24,374,580.0565350067336,580.7436622316018,"[77, 0, 177]",177,l,0.1638296633027494,colour,0.06
134,22,1,2,8,25,375,581.259649225045,581.8797269389033,"[98, 0, 156]",156,l,0.09680260135792196,colour,0.06
134,22,1,2,8,26,376,582.4002455235459,583.3996421517804,"[90, 0, 164]",164,l,0.4760872512124479,colour,0.06
134,22,1,2,8,27,377,583.9158973544836,585.8156328473706,"[96, 0, 158]",158,l,1.376505278982222,colour,0.06
134,22,1,2,8,28,378,586.3221911697183,587.1196547232103,"[94, 0, 160]",160,l,0.2743258932605386,colour,0.06
134,22,1,2,8,29,379,587.6345901482273,588.4476413356606,"[97, 0, 157]",157,l,0.29002931783907115,colour,0.06
134,22,1,2,8,30,380,588.9627516281325,590.303671353031,"[70, 0, 184]",184,a,0.8175776586867869,colour,0.06
134,22,1,2,8,31,381,590.822090345202,591.6076711732894,"[81, 0, 173]",173,l,0.2682035584002733,colour,0.06
134,22,1,2,8,32,382,592.1292901637498,592.9036735584959,"[6, 0, 248]",248,a,0.2510716547258198,colour,0.06
134,22,1,2,8,33,383,593.4124287534505,594.167673205724,"[92, 0, 162]",162,l,0.23186497087590396,colour,0.06
134,22,1,2,8,34,384,594.6786311806645,595.5436499435455,"[80, 0, 174]",174,l,0.3416656688787043,colour,0.06
134,22,1,2,8,35,385,596.0536914390977,596.8316714349203,"[99, 0, 155]",155,l,0.2547340278979391,colour,0.06
134,22,1,2,8,36,386,597.3505169623531,598.2396450031083,"[74, 0, 180]",180,a,0.36590019008144736,colour,0.06
134,22,1,2,8,37,387,598.7567292514723,599.5276483776979,"[87, 0, 167]",167,l,0.24807054898701608,colour,0.06
134,22,1,2,8,38,388,600.0286491401494,600.87970330799,"[50, 0, 204]",204,a,0.3276991047896445,colour,0.06
134,22,1,2,8,39,389,601.3880166078452,602.1996302574407,"[53, 0, 201]",201,a,0.2883405063766986,colour,0.06
134,22,1,2,8,40,390,602.7161229492631,603.5356304529123,"[91, 0, 163]",163,l,0.2961607112083584,colour,0.06
134,22,1,2,8,41,391,604.0441757277586,604.8876176418271,"[79, 0, 175]",175,l,0.32010654313489795,colour,0.06
134,22,1,2,8,42,392,605.4055608680937,606.2476081738714,"[55, 0, 199]",199,a,0.3187666793819517,colour,0.06
134,22,1,2,8,43,393,606.7668400639668,607.5356875604484,"[86, 0, 168]",168,l,0.24544517183676362,colour,0.06
134,22,1,2,8,44,394,608.0505473671947,608.7836501956917,"[84, 0, 170]",170,l,0.21049213409423828,colour,0.06
134,22,1,2,8,45,395,609.3004516626243,610.0796384022105,"[76, 0, 178]",178,a,0.2558265565894544,colour,0.06
134,22,1,2,8,46,396,610.5974087303039,611.3356244664174,"[68, 0, 186]",186,a,0.21494613774120808,colour,0.06
134,22,1,2,8,47,397,611.8473539855331,612.5996560151689,"[78, 0, 176]",176,l,0.22904424625448883,colour,0.06
134,22,1,2,8,48,398,613.1129896687344,613.8476367669646,"[63, 0, 191]",191,a,0.21131133357994258,colour,0.06
134,22,1,2,8,49,399,614.3629959702957,614.9756166052539,"[82, 0, 172]",172,l,0.08932898100465536,colour,0.06
134,22,1,2,8,50,400,615.4754385869019,616.1836980085354,"[85, 0, 169]",169,l,0.18489333079196513,colour,0.06
134,22,1,2,9,1,401,620.6873202093411,621.4476456679404,"[77, 0, 177]",177,l,0.23615513439290226,colour,0.06
134,22,1,2,9,2,402,621.953741221223,622.7035836828873,"[87, 0, 167]",167,l,0.22656341083347797,colour,0.06
134,22,1,2,9,3,403,623.2193843873683,624.0636242332403,"[98, 0, 156]",156,l,0.32089817337691784,colour,0.06
134,22,1,2,9,4,404,624.5788597688079,625.5835874953773,"[73, 0, 181]",181,a,0.4818047124426812,colour,0.06
134,22,1,2,9,5,405,626.0943532735109,627.2156385187991,"[68, 0, 186]",186,a,0.5979683850891888,colour,0.06
134,22,1,2,9,6,406,627.7350015596021,628.6797111062333,"[96, 0, 158]",158,l,0.4214490063022822,colour,0.06
134,22,1,2,9,7,407,629.176811612444,630.1195999786723,"[97, 0, 157]",157,l,0.4195857213344425,colour,0.06
134,22,1,2,9,8,408,630.6298604526091,631.6396333451848,"[86, 0, 168]",168,l,0.4867396014742553,colour,0.06
134,22,1,2,9,9,409,632.1610802249052,633.159631265793,"[99, 0, 155]",155,l,0.4753802977502346,colour,0.06
134,22,1,2,9,10,410,633.6767411141191,634.6876494647004,"[71, 0, 183]",183,a,0.487626148853451,colour,0.06
134,22,1,2,9,11,411,635.2079884556588,636.0396488627885,"[85, 0, 169]",169,l,0.308243116363883,colour,0.06
134,22,1,2,9,12,412,636.55167573574,637.8476513393689,"[75, 0, 179]",179,a,0.7726800113450736,colour,0.06
134,22,1,2,9,13,413,638.3642117725685,639.2956640715711,"[63, 0, 191]",191,a,0.40816103876568377,colour,0.06
134,22,1,2,9,14,414,639.8172791234683,640.5995953627862,"[82, 0, 172]",172,l,0.2589828376658261,colour,0.06
134,22,1,2,9,15,415,641.114203895675,642.1757549238391,"[94, 0, 160]",160,l,0.5382759156636894,colour,0.06
134,22,1,2,9,16,416,642.692775369389,643.6636213187594,"[52, 0, 202]",202,a,0.44791978457942605,colour,0.06
134,22,1,2,9,17,417,644.1770825786516,645.2236509202048,"[70, 0, 184]",184,a,0.5231049708090723,colour,0.06
134,22,1,2,9,18,418,645.7275795333553,646.6156280424912,"[69, 0, 185]",185,a,0.36473991977982223,colour,0.06
134,22,1,2,9,19,419,647.1339166718535,648.063661648659,"[64, 0, 190]",190,a,0.40651988284662366,colour,0.06
134,22,1,2,9,20,420,648.5713388870936,649.4555989925284,"[90, 0, 164]",164,l,0.3616206601727754,colour,0.06
134,22,1,2,9,21,421,649.9619434564374,650.7916259693448,"[62, 0, 192]",192,a,0.3063341451343149,colour,0.06
134,22,1,2,9,22,422,651.3063408406451,652.1355968185235,"[42, 0, 212]",212,a,0.30601513013243675,colour,0.06
134,22,1,2,9,23,423,652.6501832960639,653.4076183193829,"[50, 0, 204]",204,a,0.23415400320664048,colour,0.06
134,22,1,2,9,24,424,653.9157457237598,654.6316457560752,"[53, 0, 201]",201,a,0.20500389114022255,colour,0.06
134,22,1,2,9,25,425,655.137647574069,655.8795843666885,"[76, 0, 178]",178,l,0.21682714577764273,colour,0.06
134,22,1,2,9,26,426,656.3895266130567,657.1756903331261,"[51, 0, 203]",203,a,0.26300676143728197,colour,0.06
134,22,1,2,9,27,427,657.6863674961496,658.4396285403054,"[81, 0, 173]",173,l,0.22989101498387754,colour,0.06
134,22,1,2,9,28,428,658.9520169638563,659.8796024834737,"[65, 0, 189]",189,a,0.404239121126011,colour,0.06
134,22,1,2,9,29,429,660.389564422192,661.2316708047874,"[79, 0, 175]",175,l,0.3188749870751053,colour,0.06
134,22,1,2,9,30,430,661.7490579206496,662.6555927696172,"[60, 0, 194]",194,a,0.3832215336151421,colour,0.06
134,22,1,2,9,31,431,663.170857056044,664.0556138011161,"[45, 0, 209]",209,a,0.3615186542738229,colour,0.06
134,22,1,2,9,32,432,664.5771362991072,665.4395745834336,"[92, 0, 162]",162,l,0.3391241810750216,colour,0.06
134,22,1,2,9,33,433,665.9521154253744,666.8316155087668,"[54, 0, 200]",200,a,0.356195826549083,colour,0.06
134,22,1,2,9,34,434,667.3453591561411,669.431662218878,"[72, 0, 182]",182,l,1.5613793113734573,colour,0.06
134,22,1,2,9,35,435,669.9406832596287,670.7436122130603,"[84, 0, 170]",170,l,0.2798826654907316,colour,0.06
134,22,1,2,9,36,436,671.2531082320493,672.0316108614206,"[61, 0, 193]",193,a,0.25509400316514075,colour,0.06
134,22,1,2,9,37,437,672.5507257792633,673.9516384778544,"[67, 0, 187]",187,a,0.8783146073110402,colour,0.06
134,22,1,2,9,38,438,674.4726009271108,675.2876595470589,"[83, 0, 171]",171,l,0.2926160979550332,colour,0.06
134,22,1,2,9,39,439,675.8007151454221,676.5915959582198,"[57, 0, 197]",197,a,0.26759112789295614,colour,0.06
134,22,1,2,9,40,440,677.1131818655413,678.0635781532619,"[59, 0, 195]",195,a,0.42698332923464477,colour,0.06
134,22,1,2,9,41,441,678.581923496211,679.9436741257086,"[88, 0, 166]",166,l,0.8384073816705495,colour,0.06
134,22,1,2,9,42,442,680.4569357056171,681.391672679456,"[74, 0, 180]",180,l,0.4116418492048979,colour,0.06
134,22,1,2,9,43,443,681.9101791053545,682.4476992310956,"[80, 0, 174]",174,l,0.014357259264215827,colour,0.06
134,22,1,2,9,44,444,682.9569703638554,683.5515516742598,"[58, 0, 196]",196,a,0.07152202539145947,colour,0.06
134,22,1,2,9,45,445,684.0662696962245,685.1276289215311,"[95, 0, 159]",159,l,0.538002586690709,colour,0.06
134,22,1,2,9,46,446,685.645300394157,686.407628953224,"[89, 0, 165]",165,l,0.23891441896557808,colour,0.06
134,22,1,2,9,47,447,686.9266332003754,687.7195876119658,"[19, 0, 235]",235,a,0.26952727464959025,colour,0.06
134,22,1,2,9,48,448,688.2390932249837,688.9836030127481,"[91, 0, 163]",163,l,0.22122010309249163,colour,0.06
134,22,1,2,9,49,449,689.5047084281687,690.2956368962768,"[56, 0, 198]",198,a,0.2674584020860493,colour,0.06
134,22,1,2,9,50,450,690.8174614741001,692.5116306638811,"[78, 0, 176]",176,l,1.1710925756487995,colour,0.06
134,22,1,2,10,1,451,697.1289112840313,697.9196002937388,"[87, 0, 167]",167,l,0.26657343027181923,colour,0.06
134,22,1,2,10,2,452,698.4286071560346,699.2076001234818,"[91, 0, 163]",163,l,0.25581986107863486,colour,0.06
134,22,1,2,10,3,453,699.7253747838549,700.7595751821063,"[70, 0, 184]",184,a,0.5109185904730111,colour,0.06
134,22,1,2,10,4,454,701.2610016921535,702.0715539271478,"[68, 0, 186]",186,a,0.28727712272666395,colour,0.06
134,22,1,2,10,5,455,702.5891698673368,703.3195736696944,"[82, 0, 172]",172,l,0.20719249290414155,colour,0.06
134,22,1,2,10,6,456,703.839116698131,704.6555785911623,"[81, 0, 173]",173,l,0.29320962354540825,colour,0.06
134,22,1,2,10,7,457,705.1674680118449,705.9275930027943,"[66, 0, 188]",188,a,0.23704995214939117,colour,0.06
134,22,1,2,10,8,458,706.4484361167997,707.4475732003339,"[65, 0, 189]",189,a,0.4757922606077045,colour,0.06
134,22,1,2,10,9,459,707.9640497444198,708.7995883524418,"[80, 0, 174]",174,l,0.31221584021113813,colour,0.06
134,22,1,2,10,10,460,709.3077055166941,710.1355578277726,"[96, 0, 158]",158,l,0.3045941339805722,colour,0.06
134,22,1,2,10,11,461,710.651846901048,711.5116365717258,"[90, 0, 164]",164,l,0.33710808400064707,colour,0.06
134,22,1,2,10,12,462,712.0265085874125,712.7996159214526,"[85, 0, 169]",169,l,0.24970737239345908,colour,0.06
134,22,1,2,10,13,463,713.3078252458945,714.2795640442055,"[93, 0, 161]",161,l,0.4485865659080446,colour,0.06
134,22,1,2,10,14,464,714.7801878959872,715.7995643278118,"[75, 0, 179]",179,l,0.4959382670931518,colour,0.06
134,22,1,2,10,15,465,716.3115400006063,717.1275816601701,"[83, 0, 171]",171,l,0.2926913225091994,colour,0.06
134,22,1,2,10,16,466,717.6397644958925,718.4075883869082,"[13, 0, 241]",241,a,0.24472837219946086,colour,0.06
134,22,1,2,10,17,467,718.9208952591289,719.9996030034963,"[72, 0, 182]",182,l,0.5554062442388386,colour,0.06
134,22,1,2,10,18,468,720.5146786374971,721.3516008262523,"[51, 0, 203]",203,a,0.3136328977998346,colour,0.06
134,22,1,2,10,19,469,721.8584060899448,722.6475717036519,"[79, 0, 175]",175,l,0.2658585999161005,colour,0.06
134,22,1,2,10,20,470,723.155299748294,723.9115851353854,"[62, 0, 192]",192,a,0.23339703143574297,colour,0.06
134,22,1,2,10,21,471,724.4209712713491,725.1995916606393,"[64, 0, 190]",190,a,0.2553586675785482,colour,0.06
134,22,1,2,10,22,472,725.7178156990558,726.3195917867124,"[99, 0, 155]",155,l,0.0784824644215405,colour,0.06
134,22,1,2,10,23,473,726.8271835607011,727.5915857183281,"[77, 0, 177]",177,l,0.2411254697944969,colour,0.06
134,22,1,2,10,24,474,728.1085277881939,728.8076015415136,"[73, 0, 181]",181,l,0.1758506284095347,colour,0.06
134,22,1,2,10,25,475,729.327149689896,730.3516421800014,"[95, 0, 159]",159,l,0.5012362822890282,colour,0.06
134,22,1,2,10,26,476,730.8583592223004,731.6395620591938,"[31, 0, 223]",223,a,0.25786785990931094,colour,0.06
134,22,1,2,10,27,477,732.155226099072,732.9195640599355,"[98, 0, 156]",156,l,0.24129442987032235,colour,0.06
134,22,1,2,10,28,478,733.4364927392453,734.255561892176,"[84, 0, 170]",170,l,0.29578695143572986,colour,0.06
134,22,1,2,10,29,479,734.7646227113437,735.535529628396,"[97, 0, 157]",157,l,0.24779721978120506,colour,0.06
134,22,1,2,10,30,480,736.0463343972806,736.8235412735958,"[63, 0, 191]",191,a,0.25392703781835735,colour,0.06
134,22,1,2,10,31,481,737.3432126957923,738.0075453002937,"[59, 0, 195]",195,a,0.13874089042656124,colour,0.06
134,22,1,2,10,32,482,738.5048730557319,740.0396835212596,"[69, 0, 185]",185,l,1.0115266884677112,colour,0.06
134,22,1,2,10,33,483,740.5518521787599,741.3359296969138,"[52, 0, 202]",202,a,0.2608768427744508,colour,0.06
134,22,1,2,10,34,484,741.8487033017445,742.5275707899127,"[88, 0, 166]",166,l,0.15562860947102308,colour,0.06
134,22,1,2,10,35,485,743.023762299912,743.7995213984977,"[76, 0, 178]",178,l,0.26208476815372705,colour,0.06
134,22,1,2,10,36,486,744.3109858594835,745.0715432933066,"[89, 0, 165]",165,l,0.23715117084793746,colour,0.06
134,22,1,2,10,37,487,745.5891092151869,746.3435435262509,"[50, 0, 204]",204,a,0.23113320488482714,colour,0.06
134,22,1,2,10,38,488,746.8547315073665,747.6235305608716,"[53, 0, 201]",201,a,0.24542902410030365,colour,0.06
134,22,1,2,10,39,489,748.1276289215311,748.9035400447901,"[78, 0, 176]",176,l,0.2525536969769746,colour,0.06
134,22,1,2,10,40,490,749.4244922539219,750.1755387026351,"[15, 0, 239]",239,a,0.22793163149617612,colour,0.06
134,22,1,2,10,41,491,750.6859701056965,751.5435487250797,"[61, 0, 193]",193,a,0.33425506413914263,colour,0.06
134,22,1,2,10,42,492,752.0609519886784,752.8475579977967,"[56, 0, 198]",198,a,0.263263942906633,colour,0.06
134,22,1,2,10,43,493,753.357843677979,754.0955623805057,"[58, 0, 196]",196,a,0.21453181165270507,colour,0.06
134,22,1,2,10,44,494,754.6078314688057,755.2875646301545,"[74, 0, 180]",180,l,0.1565588735975325,colour,0.06
134,22,1,2,10,45,495,755.7952875548508,756.5435443928,"[71, 0, 183]",183,l,0.2248163102194667,colour,0.06
134,22,1,2,10,46,496,757.0609472624492,757.8235290644225,"[57, 0, 197]",197,a,0.23918577888980508,colour,0.06
134,22,1,2,10,47,497,758.3421623087488,759.0155411602464,"[86, 0, 168]",168,l,0.15001906221732497,colour,0.06
134,22,1,2,10,48,498,759.5297164625954,760.2155562050175,"[92, 0, 162]",162,l,0.16124091390520334,colour,0.06
134,22,1,2,10,49,499,760.7341571541037,761.4075568793342,"[54, 0, 200]",200,a,0.15003993595018983,colour,0.06
134,22,1,2,10,50,500,761.9216864956543,762.7837533832062,"[67, 0, 187]",187,a,0.3387338798493147,colour,0.06
134,22,1,2,11,1,501,767.1709114068653,767.8235475751571,"[75, 0, 179]",179,l,0.12842409638687968,colour,0.06
134,22,1,2,11,2,502,768.343571489444,769.079516310012,"[84, 0, 170]",170,l,0.21264095744118094,colour,0.06
134,22,1,2,11,3,503,769.5935084740631,770.2395099140704,"[95, 0, 159]",159,l,0.12262904760427773,colour,0.06
134,22,1,2,11,4,504,770.7499476186931,771.5036186564248,"[52, 0, 202]",202,a,0.23048454080708325,colour,0.06
134,22,1,2,11,5,505,772.0154608155135,772.6795141831972,"[94, 0, 160]",160,l,0.1407258736435324,colour,0.06
134,22,1,2,11,6,506,773.1873005172238,773.8555479501374,"[86, 0, 168]",168,l,0.1449494776315987,colour,0.06
134,22,1,2,11,7,507,774.374888935592,775.0075476632919,"[68, 0, 186]",186,a,0.10931035992689431,colour,0.06
134,22,1,2,11,8,508,775.5154982309323,776.1755398840178,"[53, 0, 201]",201,a,0.13674921146593988,colour,0.06
134,22,1,2,11,9,509,776.6873387200758,777.2234965327661,"[80, 0, 174]",174,l,0.012849223334342241,colour,0.06
134,22,1,2,11,10,510,777.7342319847085,778.3916596826166,"[72, 0, 182]",182,a,0.13410965632647276,colour,0.06
134,22,1,2,11,11,511,778.9061480923556,779.831552493386,"[91, 0, 163]",163,l,0.40225531929172575,colour,0.06
134,22,1,2,11,12,512,780.343611267861,781.0715440809727,"[87, 0, 167]",167,l,0.20464864233508706,colour,0.06
134,22,1,2,11,13,513,781.5791909932159,782.3035441406537,"[90, 0, 164]",164,l,0.20095830573700368,colour,0.06
134,22,1,2,11,14,514,782.8134855995886,783.5994898120407,"[64, 0, 190]",190,a,0.2749469883274287,colour,0.06
134,22,1,2,11,15,515,784.113548142137,784.8155178443994,"[67, 0, 187]",187,a,0.19099321635439992,colour,0.06
134,22,1,2,11,16,516,785.3355362450238,786.0395570967812,"[83, 0, 171]",171,l,0.18069611489772797,colour,0.06
134,22,1,2,11,17,517,786.554245186504,787.1755765117705,"[71, 0, 183]",183,a,0.09798610839061439,colour,0.06
134,22,1,2,11,18,518,787.6948974111583,788.4315468219575,"[50, 0, 204]",204,a,0.21331916004419327,colour,0.06
134,22,1,2,11,19,519,788.9449021371547,789.6555289665703,"[78, 0, 176]",176,l,0.18426160188391805,colour,0.06
134,22,1,2,11,20,520,790.1666606278159,790.8395223594271,"[60, 0, 194]",194,a,0.14694627607241273,colour,0.06
134,22,1,2,11,21,521,791.3567834447604,792.0875547053292,"[54, 0, 200]",200,a,0.20787187735550106,colour,0.06
134,22,1,2,11,22,522,792.606807863107,793.3674988106359,"[56, 0, 198]",198,a,0.2375087826512754,colour,0.06
134,22,1,2,11,23,523,793.8888744041324,794.6395403975621,"[33, 0, 221]",221,a,0.22744720103219151,colour,0.06
134,22,1,2,11,24,524,795.1575903561898,795.8475958069321,"[99, 0, 155]",155,l,0.1673478886950761,colour,0.06
134,22,1,2,11,25,525,796.3616903710645,797.0235712847207,"[57, 0, 197]",197,a,0.1385293952189386,colour,0.06
134,22,1,2,11,26,526,797.5277180883568,798.1915130931884,"[88, 0, 166]",166,l,0.14044506172649562,colour,0.06
134,22,1,2,11,27,527,798.7002367803361,799.4475428741425,"[58, 0, 196]",196,a,0.22388407704420388,colour,0.06
134,22,1,2,11,28,528,799.9659701371565,800.7035096399486,"[5, 0, 249]",249,a,0.21427384275011718,colour,0.06
134,22,1,2,11,29,529,801.2158677370753,801.9435417933855,"[82, 0, 172]",172,l,0.20422053150832653,colour,0.06
134,22,1,2,11,30,530,802.450288373977,803.2235319789033,"[61, 0, 193]",193,a,0.24990193243138492,colour,0.06
134,22,1,2,11,31,531,803.7315207493957,804.3915446796454,"[89, 0, 165]",165,l,0.13677284237928689,colour,0.06
134,22,1,2,11,32,532,804.9033718726132,805.6635267958045,"[51, 0, 203]",203,a,0.23668013093993068,colour,0.06
134,22,1,2,11,33,533,806.1846176388208,806.8395207840949,"[41, 0, 213]",213,a,0.13150672847405076,colour,0.06
134,22,1,2,11,34,534,807.3564801833127,808.031575021334,"[63, 0, 191]",191,a,0.15189928258769214,colour,0.06
134,22,1,2,11,35,535,808.562232381897,809.527526679216,"[69, 0, 185]",185,a,0.44465046958066523,colour,0.06
134,22,1,2,11,36,536,810.0439858941827,810.743518083822,"[93, 0, 161]",161,l,0.17622517584823072,colour,0.06
134,22,1,2,11,37,537,811.2627326447982,812.0155254062265,"[55, 0, 199]",199,a,0.2294018582906574,colour,0.06
134,22,1,2,11,38,538,812.5283805371728,813.3595222493168,"[59, 0, 195]",195,a,0.30778192286379635,colour,0.06
134,22,1,2,11,39,539,813.8721296510193,814.5515111081768,"[74, 0, 180]",180,l,0.15615281858481467,colour,0.06
134,22,1,2,11,40,540,815.0596286663786,815.7755094002932,"[73, 0, 181]",181,l,0.1925922306254506,colour,0.06
134,22,1,2,11,41,541,816.293983137235,817.0155714862049,"[98, 0, 156]",156,l,0.19824195047840476,colour,0.06
134,22,1,2,11,42,542,817.5282950724941,818.287516974844,"[85, 0, 169]",169,l,0.2358144575264305,colour,0.06
134,22,1,2,11,43,543,818.7939579309896,819.3515204817522,"[92, 0, 162]",162,l,0.034152349224314094,colour,0.06
134,22,1,2,11,44,544,819.8720871156547,820.6155689656734,"[77, 0, 177]",177,l,0.2201642021536827,colour,0.06
134,22,1,2,11,45,545,821.1223116079345,821.735518285539,"[81, 0, 173]",173,l,0.0901143099181354,colour,0.06
134,22,1,2,11,46,546,822.2470260695554,822.8955689971335,"[79, 0, 175]",175,l,0.1240342897363007,colour,0.06
134,22,1,2,11,47,547,823.4046408440918,824.063547433354,"[76, 0, 178]",178,l,0.1356657415162772,colour,0.06
134,22,1,2,11,48,548,824.576486453414,825.2315175987314,"[62, 0, 192]",192,a,0.13185213133692741,colour,0.06
134,22,1,2,11,49,549,825.7482619581278,826.5034942009952,"[66, 0, 188]",188,a,0.23194255819544196,colour,0.06
134,22,1,2,11,50,550,827.0138621949591,827.6235313485377,"[97, 0, 157]",157,l,0.08619002904742956,colour,0.06
134,22,1,2,12,1,551,832.2163533491548,832.9995250219945,"[52, 0, 202]",202,a,0.2592010283842683,colour,0.06
134,22,1,2,12,2,552,833.513861407293,834.2634734690655,"[98, 0, 156]",156,l,0.22621761402115226,colour,0.06
134,22,1,2,12,3,553,834.7672929868568,835.5514878712129,"[53, 0, 201]",201,a,0.2608339136932045,colour,0.06
134,22,1,2,12,4,554,836.0650342016015,836.791523963213,"[80, 0, 174]",174,l,0.2040338485967368,colour,0.06
134,22,1,2,12,5,555,837.2985159098171,838.0234834570438,"[67, 0, 187]",187,a,0.20161524089053273,colour,0.06
134,22,1,2,12,6,556,838.5328884976916,839.2720522210002,"[64, 0, 190]",190,a,0.21589373098686337,colour,0.06
134,22,1,2,12,7,557,839.785116483923,840.6874868061859,"[69, 0, 185]",185,l,0.3796387172769755,colour,0.06
134,22,1,2,12,8,558,841.207166105276,841.7515001592692,"[77, 0, 177]",177,l,0.021353538148105145,colour,0.06
134,22,1,2,12,9,559,842.2695725669619,843.1434977615718,"[97, 0, 157]",157,l,0.35052602062933147,colour,0.06
134,22,1,2,12,10,560,843.6614142062608,844.4395485897548,"[40, 0, 214]",214,a,0.2547438743058592,colour,0.06
134,22,1,2,12,11,561,844.9583173170686,845.8554585471284,"[57, 0, 197]",197,a,0.37442340957932174,colour,0.06
134,22,1,2,12,12,562,846.3646150708664,847.1675286642276,"[86, 0, 168]",168,l,0.27964478242211044,colour,0.06
134,22,1,2,12,13,563,847.6770802154206,848.4874898782,"[56, 0, 198]",198,a,0.28700694418512285,colour,0.06
134,22,1,2,12,14,564,849.0052468155045,849.8075081999414,"[50, 0, 204]",204,a,0.27898469660431147,colour,0.06
134,22,1,2,12,15,565,850.3177229878493,851.0475324767176,"[96, 0, 158]",158,l,0.20647766278125346,colour,0.06
134,22,1,2,12,16,566,851.5677139293402,852.3275128158275,"[82, 0, 172]",172,l,0.23650605115108192,colour,0.06
134,22,1,2,12,17,567,852.8489021940622,853.5914585059509,"[31, 0, 223]",223,a,0.21915753185749054,colour,0.06
134,22,1,2,12,18,568,854.0989049507771,854.879501265008,"[85, 0, 169]",169,l,0.2572904818225652,colour,0.06
134,22,1,2,12,19,569,855.3958399631083,856.1915201824158,"[59, 0, 195]",195,a,0.2723483929876238,colour,0.06
134,22,1,2,12,20,570,856.7082850215957,857.4635345940478,"[72, 0, 182]",182,l,0.23194689070805907,colour,0.06
134,22,1,2,12,21,571,857.976653207792,858.775500342017,"[95, 0, 159]",159,l,0.27547474205493927,colour,0.06
134,22,1,2,12,22,572,859.2894428814761,860.047456858214,"[54, 0, 200]",200,a,0.23492869804613292,colour,0.06
134,22,1,2,12,23,573,860.5548194139265,861.35147518944,"[63, 0, 191]",191,a,0.2733873585239053,colour,0.06
134,22,1,2,12,24,574,861.8672877091449,862.6555203020107,"[61, 0, 193]",193,a,0.26492006494663656,colour,0.06
134,22,1,2,12,25,575,863.1641608877108,863.9754728514235,"[70, 0, 184]",184,l,0.28826922038570046,colour,0.06
134,22,1,2,12,26,576,864.4923660845961,865.3355134017766,"[62, 0, 192]",192,a,0.3198899277485907,colour,0.06
134,22,1,2,12,27,577,865.8523487395141,866.6474834822584,"[58, 0, 196]",196,a,0.2718769593629986,colour,0.06
134,22,1,2,12,28,578,867.1648540564347,868.0074948880356,"[66, 0, 188]",188,l,0.31973672192543745,colour,0.06
134,22,1,2,12,29,579,868.5242703610566,869.3194901745301,"[89, 0, 165]",165,l,0.27221291000023484,colour,0.06
134,22,1,2,12,30,580,869.8367213273887,870.7275023395196,"[94, 0, 160]",160,l,0.36740271211601794,colour,0.06
134,22,1,2,12,31,581,871.2429895426612,872.0954572237097,"[88, 0, 166]",166,l,0.3291949317790568,colour,0.06
134,22,1,2,12,32,582,872.6022959642578,873.5034599364735,"[71, 0, 183]",183,l,0.37783135822974145,colour,0.06
134,22,1,2,12,33,583,874.0248036284465,874.7834922634065,"[9, 0, 245]",245,a,0.2353749256581068,colour,0.06
134,22,1,2,12,34,584,875.2906047268771,876.0714779146947,"[76, 0, 178]",178,l,0.2578198106493801,colour,0.06
134,22,1,2,12,35,585,876.5874617577065,877.7914956063032,"[68, 0, 186]",186,l,0.6806311302352697,colour,0.06
134,22,1,2,12,36,586,878.306210083887,879.1434634968173,"[81, 0, 173]",173,l,0.3140172914136201,colour,0.06
134,22,1,2,12,37,587,879.6499548654538,880.4554835956078,"[91, 0, 163]",163,l,0.2821216795127839,colour,0.06
134,22,1,2,12,38,588,880.962494446896,881.8394573749974,"[65, 0, 189]",189,a,0.35362992039881647,colour,0.06
134,22,1,2,12,39,589,882.3530935023446,883.1034731697291,"[79, 0, 175]",175,l,0.22701633349061012,colour,0.06
134,22,1,2,12,40,590,883.6186846806668,884.4394702143036,"[90, 0, 164]",164,l,0.2974686734378338,colour,0.06
134,22,1,2,12,41,591,884.9468059884384,885.687521464657,"[83, 0, 171]",171,l,0.2174277608282864,colour,0.06
134,22,1,2,12,42,592,886.1967020130251,886.9835250312462,"[75, 0, 179]",179,a,0.263383278157562,colour,0.06
134,22,1,2,12,43,593,887.4936968900729,888.2874543534126,"[78, 0, 176]",176,a,0.2704228803049773,colour,0.06
134,22,1,2,12,44,594,888.8061636099592,889.5514744804241,"[93, 0, 161]",161,l,0.22194556728936732,colour,0.06
134,22,1,2,12,45,595,890.0718355269637,891.023437770782,"[73, 0, 181]",181,a,0.4283227992709726,colour,0.06
134,22,1,2,12,46,596,891.5423348920885,892.3514795217197,"[55, 0, 199]",199,a,0.2858155604917556,colour,0.06
134,22,1,2,12,47,597,892.8704593505245,893.6714836650062,"[60, 0, 194]",194,a,0.277728722197935,colour,0.06
134,22,1,2,12,48,598,894.1708578437101,894.96746202535,"[87, 0, 167]",167,l,0.2733160723000765,colour,0.06
134,22,1,2,12,49,599,895.483375369804,896.3834645366296,"[84, 0, 170]",170,l,0.37687352509237826,colour,0.06
134,22,1,2,12,50,600,896.88963058847,897.7355387655552,"[99, 0, 155]",155,l,0.3226834770757705,colour,0.06
134,22,1,2,13,1,601,902.2168862228282,902.9114492584486,"[93, 0, 161]",161,l,0.17038365313783288,colour,0.06
134,22,1,2,13,2,602,903.4215384095442,904.4395915188361,"[74, 0, 180]",180,a,0.4947512154467404,colour,0.06
134,22,1,2,13,3,603,904.9527416403871,905.7035517813638,"[52, 0, 202]",202,a,0.22742278245277703,colour,0.06
134,22,1,2,13,4,604,906.2183911080938,907.1034680497833,"[75, 0, 179]",179,l,0.36169982329010963,colour,0.06
134,22,1,2,13,5,605,907.6246959511191,908.3274738250766,"[83, 0, 171]",171,l,0.1796894446015358,colour,0.06
134,22,1,2,13,6,606,908.8433462094981,909.6075077273417,"[96, 0, 158]",158,l,0.24076707009226084,colour,0.06
134,22,1,2,13,7,607,910.1246317541227,910.9674435146153,"[51, 0, 203]",203,a,0.32002304773777723,colour,0.06
134,22,1,2,13,8,608,911.483973227907,912.3114387821406,"[98, 0, 156]",156,l,0.304100644774735,colour,0.06
134,22,1,2,13,9,609,912.8277274619322,913.5754975061864,"[63, 0, 191]",191,a,0.22292978828772902,colour,0.06
134,22,1,2,13,10,610,914.0947841410525,914.8714412082918,"[99, 0, 155]",155,l,0.25350089627318084,colour,0.06
134,22,1,2,13,11,611,915.3918144640047,916.1914504715241,"[21, 0, 233]",233,a,0.27627227967604995,colour,0.06
134,22,1,2,13,12,612,916.7042544025462,917.4714162384626,"[92, 0, 162]",162,l,0.24375596665777266,colour,0.06
134,22,1,2,13,13,613,917.985493473243,918.759457816137,"[81, 0, 173]",173,l,0.2506057352293283,colour,0.06
134,22,1,2,13,14,614,919.266786107095,919.9434638118837,"[84, 0, 170]",170,l,0.15339353401213884,colour,0.06
134,22,1,2,13,15,615,920.4542083225679,921.2394508370198,"[62, 0, 192]",192,a,0.2618362514767796,colour,0.06
134,22,1,2,13,16,616,921.7511027685832,922.4554442109074,"[50, 0, 204]",204,a,0.18099228688515723,colour,0.06
134,22,1,2,13,17,617,922.9698373102583,923.7674524944741,"[91, 0, 163]",163,l,0.27425106265582144,colour,0.06
134,22,1,2,13,18,618,924.2823950087186,925.0074834665284,"[94, 0, 160]",160,l,0.2017908962443471,colour,0.06
134,22,1,2,13,19,619,925.5166829193477,926.2476117184851,"[85, 0, 169]",169,l,0.20766550209373236,colour,0.06
134,22,1,2,13,20,620,926.7630130632315,927.5114471318666,"[89, 0, 165]",165,l,0.2253617870155722,colour,0.06
134,22,1,2,13,21,621,928.0287365738768,928.9354766167235,"[80, 0, 174]",174,l,0.3834751704707742,colour,0.06
134,22,1,2,13,22,622,929.450606995495,930.1594351304229,"[67, 0, 187]",187,a,0.18558531790040433,colour,0.06
134,22,1,2,13,23,623,930.6692946692929,931.3994790995494,"[79, 0, 175]",175,l,0.20693728094920516,colour,0.06
134,22,1,2,13,24,624,931.9192797031719,932.8074404585641,"[72, 0, 182]",182,l,0.36481829546391964,colour,0.06
134,22,1,2,13,25,625,933.325530983042,934.0874550621957,"[86, 0, 168]",168,l,0.2385619266424328,colour,0.06
134,22,1,2,13,26,626,934.6067842324264,935.3994361702353,"[57, 0, 197]",197,a,0.2694973424077034,colour,0.06
134,22,1,2,13,27,627,935.9192856107838,936.5834421662148,"[90, 0, 164]",164,l,0.14084599679335952,colour,0.06
134,22,1,2,13,28,628,937.0914234537631,938.0554216043092,"[71, 0, 183]",183,a,0.441118459450081,colour,0.06
134,22,1,2,13,29,629,938.575451426208,939.3594663231634,"[60, 0, 194]",194,a,0.26063068909570575,colour,0.06
134,22,1,2,13,30,630,939.8723962847143,940.6634090358857,"[58, 0, 196]",196,a,0.26767383585684,colour,0.06
134,22,1,2,13,31,631,941.169234017143,941.8474386625458,"[82, 0, 172]",172,l,0.1548397361766547,colour,0.06
134,22,1,2,13,32,632,942.3568047124427,943.1034400865901,"[25, 0, 229]",229,a,0.223318514181301,colour,0.06
134,22,1,2,13,33,633,943.6223876201548,944.6394565084483,"[64, 0, 190]",190,a,0.49381464975886047,colour,0.06
134,22,1,2,13,34,634,945.1537050663028,945.9995718896389,"[70, 0, 184]",184,a,0.32297728629782796,colour,0.06
134,22,1,2,13,35,635,946.5129421709571,947.2554496461526,"[59, 0, 195]",195,a,0.2191193290054798,colour,0.06
134,22,1,2,13,36,636,947.7647841882426,948.5034229150042,"[76, 0, 178]",178,l,0.21531083900481462,colour,0.06
134,22,1,2,13,37,637,949.0147660714574,949.7594294592272,"[97, 0, 157]",157,l,0.22136110020801425,colour,0.06
134,22,1,2,13,38,638,950.2803667022381,951.0154478186741,"[95, 0, 159]",159,l,0.21206042869016528,colour,0.06
134,22,1,2,13,39,639,951.5303745791316,952.31942243292,"[66, 0, 188]",188,a,0.2642048408742994,colour,0.06
134,22,1,2,13,40,640,952.8287660335191,953.6313763656653,"[73, 0, 181]",181,l,0.27995552704669535,colour,0.06
134,22,1,2,13,41,641,954.141222119797,954.8954276065342,"[44, 0, 210]",210,a,0.23105758661404252,colour,0.06
134,22,1,2,13,42,642,955.406868830556,956.1434241123497,"[54, 0, 200]",200,a,0.21325811417773366,colour,0.06
134,22,1,2,13,43,643,956.6575029224623,957.3754407137167,"[88, 0, 166]",166,l,0.19488086947239935,colour,0.06
134,22,1,2,13,44,644,957.8919026853982,958.6315094854217,"[61, 0, 193]",193,a,0.21628797054290771,colour,0.06
134,22,1,2,13,45,645,959.1298970803618,959.719435981242,"[87, 0, 167]",167,l,0.06606962252408266,colour,0.06
134,22,1,2,13,46,646,960.2392996002454,961.0554444473237,"[77, 0, 177]",177,l,0.2928165653720498,colour,0.06
134,22,1,2,13,47,647,961.5675319724251,962.3354232111014,"[65, 0, 189]",189,a,0.24462833534926176,colour,0.06
134,22,1,2,13,48,648,962.8486757325009,963.6074758258183,"[69, 0, 185]",185,a,0.23541549174115062,colour,0.06
134,22,1,2,13,49,649,964.1142740002833,964.9034439462703,"[56, 0, 198]",198,a,0.26578613207675517,colour,0.06
134,22,1,2,13,50,650,965.4112034987193,966.1994802022818,"[68, 0, 186]",186,a,0.2649208528455347,colour,0.06
134,22,1,2,14,1,651,970.5979053699411,971.1994612975977,"[1, 0, 253]",253,a,0.07749745575711131,colour,0.06
134,22,1,2,14,2,652,971.7080790402833,972.6874135509133,"[85, 0, 169]",169,l,0.4565131086856127,colour,0.06
134,22,1,2,14,3,653,973.2080589539837,973.9354395952541,"[56, 0, 198]",198,a,0.20423392252996564,colour,0.06
134,22,1,2,14,4,654,974.4424421756994,975.2473844692577,"[82, 0, 172]",172,l,0.2816368550993502,colour,0.06
134,22,1,2,14,5,655,975.7548907788005,976.423417448299,"[62, 0, 192]",192,a,0.14507905254140496,colour,0.06
134,22,1,2,14,6,656,976.9424153941218,977.503451271914,"[86, 0, 168]",168,l,0.0377977869939059,colour,0.06
134,22,1,2,14,7,657,978.0205311879981,978.8713868577033,"[94, 0, 160]",160,l,0.3258271552622318,colour,0.06
134,22,1,2,14,8,658,979.3817115284037,980.2554342860822,"[89, 0, 165]",165,l,0.3504724574740976,colour,0.06
134,22,1,2,14,9,659,980.7723574514966,981.5834000245668,"[63, 0, 191]",191,a,0.2878111775498837,colour,0.06
134,22,1,2,14,10,660,982.10043267929,982.9114027847536,"[80, 0, 174]",174,l,0.2880951405968517,colour,0.06
134,22,1,2,14,11,661,983.4285177530255,984.1753874656279,"[55, 0, 199]",199,a,0.2234937755856663,colour,0.06
134,22,1,2,14,12,662,984.6941128699109,985.3834117613733,"[66, 0, 188]",188,a,0.1658993235323578,colour,0.06
134,22,1,2,14,13,663,985.8972223622259,986.6154098520055,"[90, 0, 164]",164,l,0.1946315651293844,colour,0.06
134,22,1,2,14,14,664,987.1316827777773,987.9194474816322,"[76, 0, 178]",178,l,0.26491297595202923,colour,0.06
134,22,1,2,14,15,665,988.428453556262,989.11144736805,"[59, 0, 195]",195,a,0.15961117949336767,colour,0.06
134,22,1,2,14,16,666,989.6323491649237,990.255377178546,"[84, 0, 170]",170,l,0.09973990428261459,colour,0.06
134,22,1,2,14,17,667,990.775764612481,991.4394489466213,"[92, 0, 162]",162,l,0.14032769552432,colour,0.06
134,22,1,2,14,18,668,991.9476255818736,992.6953952324111,"[71, 0, 183]",183,a,0.22449138737283647,colour,0.06
134,22,1,2,14,19,669,993.2132183357608,993.9193974630907,"[57, 0, 197]",197,a,0.18272363347932696,colour,0.06
134,22,1,2,14,20,670,994.4320210125297,995.159511142876,"[54, 0, 200]",200,a,0.20429890719242394,colour,0.06
134,22,1,2,14,21,671,995.6663589417003,996.4954199658241,"[68, 0, 186]",186,a,0.3056803608778864,colour,0.06
134,22,1,2,14,22,672,997.0108280060813,997.9833706438076,"[72, 0, 182]",182,a,0.44989728508517146,colour,0.06
134,22,1,2,14,23,673,998.4945023048203,999.1354290400632,"[95, 0, 159]",159,l,0.11758663831278682,colour,0.06
134,22,1,2,14,24,674,999.6506917511579,1000.3434131634422,"[67, 0, 187]",187,a,0.16939825075678527,colour,0.06
134,22,1,2,14,25,675,1000.8538977357093,1001.5274589376058,"[79, 0, 175]",175,l,0.1502132280729711,colour,0.06
134,22,1,2,14,26,676,1002.0435006758198,1002.7594054345973,"[51, 0, 203]",203,a,0.19258514163084328,colour,0.06
134,22,1,2,14,27,677,1003.2778433312196,1003.9754066853784,"[98, 0, 156]",156,l,0.17418978014029562,colour,0.06
134,22,1,2,14,28,678,1004.496605835855,1005.1914043915458,"[87, 0, 167]",167,l,0.1715120216831565,colour,0.06
134,22,1,2,14,29,679,1005.6997342328541,1006.4554111280013,"[42, 0, 212]",212,a,0.23244825657457113,colour,0.06
134,22,1,2,14,30,680,1006.9653391959146,1007.7593711698428,"[58, 0, 196]",196,a,0.2706698216497898,colour,0.06
134,22,1,2,14,31,681,1008.2779031959362,1008.9273976553231,"[73, 0, 181]",181,l,0.12620753166265786,colour,0.06
134,22,1,2,14,32,682,1009.4340816144831,1010.0393999521621,"[50, 0, 204]",204,a,0.08187387161888182,colour,0.06
134,22,1,2,14,33,683,1010.5590914606582,1011.2793556996621,"[93, 0, 161]",161,l,0.19698124984279275,colour,0.06
134,22,1,2,14,34,684,1011.7934782267548,1012.471408361569,"[61, 0, 193]",193,a,0.15467825927771628,colour,0.06
134,22,1,2,14,35,685,1012.9810579805635,1013.735389891779,"[69, 0, 185]",185,l,0.2311024849768728,colour,0.06
134,22,1,2,14,36,686,1014.2465463650879,1015.0233617585618,"[97, 0, 157]",157,l,0.2534327609464526,colour,0.06
134,22,1,2,14,37,687,1015.5434175743721,1016.3113911268301,"[77, 0, 177]",177,l,0.2447523968294263,colour,0.06
134,22,1,2,14,38,688,1016.8246944544371,1017.5513878343627,"[64, 0, 190]",190,a,0.2034446552861482,colour,0.06
134,22,1,2,14,39,689,1018.0590646790806,1018.8474280287046,"[60, 0, 194]",194,a,0.2656648277770728,colour,0.06
134,22,1,2,14,40,690,1019.3558527866844,1020.0873818069231,"[74, 0, 180]",180,l,0.20815190160647035,colour,0.06
134,22,1,2,14,41,691,1020.6060241097584,1021.2554067168385,"[36, 0, 218]",218,a,0.126168540911749,colour,0.06
134,22,1,2,14,42,692,1021.7621072174516,1022.7834170388523,"[65, 0, 189]",189,a,0.4979299458209425,colour,0.06
134,22,1,2,14,43,693,1023.2934108790942,1024.0713770901784,"[99, 0, 155]",155,l,0.25462808343581855,colour,0.06
134,22,1,2,14,44,694,1024.5902872083243,1025.4713890631683,"[96, 0, 158]",158,l,0.35825564060360193,colour,0.06
134,22,1,2,14,45,695,1025.9810040236916,1026.8714337253477,"[70, 0, 184]",184,a,0.3671494694426656,colour,0.06
134,22,1,2,14,46,696,1027.3871938637458,1027.9754287407268,"[52, 0, 202]",202,a,0.06489478005096316,colour,0.06
134,22,1,2,14,47,697,1028.4965955959633,1029.4073662578594,"[81, 0, 173]",173,l,0.38745892187580466,colour,0.06
134,22,1,2,14,48,698,1029.9184081221465,1030.7833894696087,"[78, 0, 176]",176,l,0.34165857965126634,colour,0.06
134,22,1,2,14,49,699,1031.293431752827,1032.143361884635,"[75, 0, 179]",179,a,0.3267164593562484,colour,0.06
134,22,1,2,14,50,700,1032.652762593003,1033.415425920859,"[83, 0, 171]",171,l,0.23936104006133974,colour,0.06
134,22,1,2,15,1,701,1037.7301273224875,1038.4474113297183,"[59, 0, 195]",195,a,0.19323931983672082,colour,0.06
134,22,1,2,15,2,702,1038.9662332262378,1039.5674319355749,"[83, 0, 171]",171,l,0.07795628625899553,colour,0.06
134,22,1,2,15,3,703,1040.075579032302,1040.8553998640273,"[51, 0, 203]",203,a,0.25645986082963645,colour,0.06
134,22,1,2,15,4,704,1041.3731902781874,1042.135393593926,"[61, 0, 193]",193,a,0.23904635710641742,colour,0.06
134,22,1,2,15,5,705,1042.6543718473986,1043.3833660751116,"[75, 0, 179]",179,l,0.20564585993997753,colour,0.06
134,22,1,2,15,6,706,1043.9043234041892,1044.6554135698825,"[92, 0, 162]",162,l,0.22776424698531628,colour,0.06
134,22,1,2,15,7,707,1045.172327676788,1046.0953855437692,"[86, 0, 168]",168,l,0.3997323424555361,colour,0.06
134,22,1,2,15,8,708,1046.6099507536273,1047.3833444137126,"[73, 0, 181]",181,a,0.2502630890812725,colour,0.06
134,22,1,2,15,9,709,1047.8908739599865,1048.647444097558,"[74, 0, 180]",180,a,0.23330880980938673,colour,0.06
134,22,1,2,15,10,710,1049.1566533967853,1049.9273692984134,"[52, 0, 202]",202,a,0.2478460567072034,colour,0.06
134,22,1,2,15,11,711,1050.43778219074,1051.1593394258525,"[98, 0, 156]",156,l,0.198190750554204,colour,0.06
134,22,1,2,15,12,712,1051.672222519992,1052.439397746697,"[63, 0, 191]",191,a,0.24390326510183513,colour,0.06
134,22,1,2,15,13,713,1052.9534690736327,1053.7273759150412,"[79, 0, 175]",175,l,0.2506592981517315,colour,0.06
134,22,1,2,15,14,714,1054.2347577691544,1055.023357426282,"[93, 0, 161]",161,l,0.26530524622648954,colour,0.06
134,22,1,2,15,15,715,1055.531705778325,1056.271355113713,"[62, 0, 192]",192,a,0.2164990722667426,colour,0.06
134,22,1,2,15,16,716,1056.7816518214531,1057.559352580458,"[69, 0, 185]",185,a,0.25454458803869784,colour,0.06
134,22,1,2,15,17,717,1058.0785435105208,1058.83135123807,"[85, 0, 169]",169,l,0.22943533514626324,colour,0.06
134,22,1,2,15,18,718,1059.3440968799405,1060.1034400865901,"[71, 0, 183]",183,a,0.23616340500302613,colour,0.06
134,22,1,2,15,19,719,1060.6097128705587,1061.3833936443552,"[66, 0, 188]",188,a,0.25038478756323457,colour,0.06
134,22,1,2,15,20,720,1061.8909649383277,1062.6393867977895,"[82, 0, 172]",172,l,0.2233779849484563,colour,0.06
134,22,1,2,15,21,721,1063.1583418142982,1063.9113913632464,"[50, 0, 204]",204,a,0.23028013482689857,colour,0.06
134,22,1,2,15,22,722,1064.4239648941439,1065.1353601170704,"[96, 0, 158]",158,l,0.18829694716259837,colour,0.06
134,22,1,2,15,23,723,1065.6427313373424,1066.423361916095,"[55, 0, 199]",199,a,0.2574326600879431,colour,0.06
134,22,1,2,15,24,724,1066.9395832479931,1067.6713253387716,"[77, 0, 177]",177,l,0.20848076278343797,colour,0.06
134,22,1,2,15,25,725,1068.1896769835148,1068.9993741789367,"[87, 0, 167]",167,l,0.28650557855144143,colour,0.06
134,22,1,2,15,26,726,1069.5177230664995,1070.2633848537225,"[67, 0, 187]",187,a,0.2223772224970162,colour,0.06
134,22,1,2,15,27,727,1070.7832862818614,1071.5193539825268,"[84, 0, 170]",170,l,0.2126551358960569,colour,0.06
134,22,1,2,15,28,728,1072.0334320049733,1072.7993784325663,"[53, 0, 201]",201,a,0.24264098913408816,colour,0.06
134,22,1,2,15,29,729,1073.3146234203596,1074.0393664753065,"[97, 0, 157]",157,l,0.20146203483454883,colour,0.06
134,22,1,2,15,30,730,1074.5508616562001,1075.3834235765971,"[57, 0, 197]",197,a,0.30921512795612216,colour,0.06
134,22,1,2,15,31,731,1075.8947060806677,1076.559347460512,"[78, 0, 176]",176,l,0.14138989802449942,colour,0.06
134,22,1,2,15,32,732,1077.0665079730097,1077.839346704306,"[64, 0, 190]",190,a,0.24946673261001706,colour,0.06
134,22,1,2,15,33,733,1078.347773037618,1079.1514085505623,"[21, 0, 233]",233,a,0.28029068978503346,colour,0.06
134,22,1,2,15,34,734,1079.6602984408382,1080.5113545779604,"[58, 0, 196]",196,a,0.3277983539737761,colour,0.06
134,22,1,2,15,35,735,1081.0196852069348,1081.7753483173437,"[95, 0, 159]",159,l,0.23240847792476416,colour,0.06
134,22,1,2,15,36,736,1082.2853153762408,1083.0473347660154,"[65, 0, 189]",189,a,0.2390680187381804,colour,0.06
134,22,1,2,15,37,737,1083.5664906438906,1084.255333461566,"[91, 0, 163]",163,l,0.16553816688247025,colour,0.06
134,22,1,2,15,38,738,1084.7696324316785,1085.551369323628,"[90, 0, 164]",164,l,0.25843814900144935,colour,0.06
134,22,1,2,15,39,739,1086.0664599239826,1086.8073534185532,"[70, 0, 184]",184,a,0.21754473308101296,colour,0.06
134,22,1,2,15,40,740,1087.3165115176234,1088.103364862036,"[7, 0, 247]",247,a,0.26356365950778127,colour,0.06
134,22,1,2,15,41,741,1088.613442985341,1089.3433647202328,"[76, 0, 178]",178,l,0.2072909544222057,colour,0.06
134,22,1,2,15,42,742,1089.863226763904,1090.855328971753,"[88, 0, 166]",166,l,0.4694198335055262,colour,0.06
134,22,1,2,15,43,743,1091.3633480684366,1092.1753461118788,"[72, 0, 182]",182,a,0.28869654331356287,colour,0.06
134,22,1,2,15,44,744,1092.6914681945927,1093.9353572812397,"[89, 0, 165]",165,l,0.720717555610463,colour,0.06
134,22,1,2,15,45,745,1094.4415012777317,1095.2713456612546,"[80, 0, 174]",174,l,0.306703572627157,colour,0.06
134,22,1,2,15,46,746,1095.7851948593743,1096.5673496217933,"[99, 0, 155]",155,l,0.25885523157194257,colour,0.06
134,22,1,2,15,47,747,1097.0820408624131,1097.8633161669131,"[56, 0, 198]",198,a,0.25793402595445514,colour,0.06
134,22,1,2,15,48,748,1098.3789967484772,1099.1273496849462,"[94, 0, 160]",160,l,0.22501914110034704,colour,0.06
134,22,1,2,15,49,749,1099.644606437767,1100.4233638853766,"[32, 0, 222]",222,a,0.25541931996122,colour,0.06
134,22,1,2,15,50,750,1100.941361068515,1101.6873253295198,"[81, 0, 173]",173,l,0.22261549928225577,colour,0.06
134,22,1,2,16,1,751,1106.206255927449,1106.919448663015,"[55, 0, 199]",199,a,0.18923902651295066,colour,0.06
134,22,1,2,16,2,752,1107.4257970654871,1108.0393775028642,"[99, 0, 155]",155,l,0.09057944174855947,colour,0.06
134,22,1,2,16,3,753,1108.5508679577615,1110.4073887071572,"[72, 0, 182]",182,a,1.3332023138646036,colour,0.06
134,22,1,2,16,4,754,1110.9257746161893,1111.5593557311222,"[82, 0, 172]",172,l,0.11032766406424344,colour,0.06
134,22,1,2,16,5,755,1112.0664449578617,1112.7193162520416,"[66, 0, 188]",188,a,0.12949850806035101,colour,0.06
134,22,1,2,16,6,756,1113.2383201054763,1113.9273555136751,"[87, 0, 167]",167,l,0.16581464651972055,colour,0.06
134,22,1,2,16,7,757,1114.441441413248,1115.3513022910338,"[78, 0, 176]",176,l,0.3867346392944455,colour,0.06
134,22,1,2,16,8,758,1115.8632310961839,1116.4953419843223,"[61, 0, 193]",193,a,0.10948640899732709,colour,0.06
134,22,1,2,16,9,759,1117.0038986809086,1117.7433357331902,"[81, 0, 173]",173,l,0.21608829079195857,colour,0.06
134,22,1,2,16,10,760,1118.2538687486667,1118.9113074741326,"[95, 0, 159]",159,l,0.13416479481384158,colour,0.06
134,22,1,2,16,11,761,1119.4257572870702,1120.1273536232766,"[69, 0, 185]",185,a,0.17830310692079365,colour,0.06
134,22,1,2,16,12,762,1120.6445249116514,1121.415344000794,"[0, 0, 254]",254,a,0.24750183522701263,colour,0.06
134,22,1,2,16,13,763,1121.9257360193878,1122.807356175501,"[64, 0, 190]",190,a,0.3582371298689395,colour,0.06
134,22,1,2,16,14,764,1123.3164047854953,1123.9193116046954,"[96, 0, 158]",158,l,0.07965021766722202,colour,0.06
134,22,1,2,16,15,765,1124.4257450778969,1125.543400245253,"[56, 0, 198]",198,a,0.5943004982545972,colour,0.06
134,22,1,2,16,16,766,1126.0508266040124,1126.8073829568457,"[63, 0, 191]",191,a,0.2333737942390144,colour,0.06
134,22,1,2,16,17,767,1127.316400846932,1127.9673379641026,"[80, 0, 174]",174,l,0.1276434939354658,colour,0.06
134,22,1,2,16,18,768,1128.488307896303,1129.2633880043868,"[58, 0, 196]",196,a,0.25186643563210964,colour,0.06
134,22,1,2,16,19,769,1129.7694831639528,1130.5273143963423,"[59, 0, 195]",195,a,0.23456163378432393,colour,0.06
134,22,1,2,16,20,770,1131.035012114793,1131.719312707428,"[75, 0, 179]",179,l,0.1600038439501077,colour,0.06
134,22,1,2,16,21,771,1132.2391601786949,1132.9273007691372,"[94, 0, 160]",160,l,0.163536248030141,colour,0.06
134,22,1,2,16,22,772,1133.4437328088097,1134.0714298656676,"[54, 0, 200]",200,a,0.10431284923106432,colour,0.06
134,22,1,2,16,23,773,1134.5843373779207,1135.2553062862717,"[85, 0, 169]",169,l,0.14757130993530154,colour,0.06
134,22,1,2,16,24,774,1135.7723830514587,1136.3433060373645,"[60, 0, 194]",194,a,0.04762069811113179,colour,0.06
134,22,1,2,16,25,775,1136.850465762196,1137.887334466679,"[70, 0, 184]",184,l,0.5136191919445992,colour,0.06
134,22,1,2,16,26,776,1138.3972463868558,1139.1033644683193,"[71, 0, 183]",183,a,0.1826519537717104,colour,0.06
134,22,1,2,16,27,777,1139.6159762023017,1140.5113817532547,"[90, 0, 164]",164,l,0.3715467588044703,colour,0.06
134,22,1,2,16,28,778,1141.0227772912476,1141.7512882701121,"[88, 0, 166]",166,l,0.20556866633705795,colour,0.06
134,22,1,2,16,29,779,1142.2571242789272,1142.9833517391235,"[23, 0, 231]",231,a,0.20299133844673634,colour,0.06
134,22,1,2,16,30,780,1143.4914830820635,1144.1833029810805,"[77, 0, 177]",177,l,0.16862040502019227,colour,0.06
134,22,1,2,16,31,781,1144.6946453496348,1145.3753331936896,"[51, 0, 203]",203,a,0.15766282379627228,colour,0.06
134,22,1,2,16,32,782,1145.882154211169,1146.759318788536,"[74, 0, 180]",180,l,0.3538520494475961,colour,0.06
134,22,1,2,16,33,783,1147.2727095496375,1148.0153127294034,"[89, 0, 165]",165,l,0.2192800180055201,colour,0.06
134,22,1,2,16,34,784,1148.5228009219281,1149.2793950843625,"[79, 0, 175]",175,l,0.23341790540143847,colour,0.06
134,22,1,2,16,35,785,1149.7883641375229,1150.5432962698396,"[83, 0, 171]",171,l,0.23162866313941777,colour,0.06
134,22,1,2,16,36,786,1151.0539458636194,1151.7913664248772,"[92, 0, 162]",162,l,0.21402217517606914,colour,0.06
134,22,1,2,16,37,787,1152.3039458636194,1153.1353152187075,"[73, 0, 181]",181,a,0.3082994364667684,colour,0.06
134,22,1,2,16,38,788,1153.6477394821122,1154.3593257202301,"[65, 0, 189]",189,a,0.18829182744957507,colour,0.06
134,22,1,2,16,39,789,1154.8664456666447,1155.5673354433384,"[52, 0, 202]",202,a,0.17825072538107634,colour,0.06
134,22,1,2,16,40,790,1156.0852160481736,1156.727340468904,"[97, 0, 157]",157,l,0.1188091360963881,colour,0.06
134,22,1,2,16,41,791,1157.241449605208,1157.967320241034,"[57, 0, 197]",197,a,0.20265814498998225,colour,0.06
134,22,1,2,16,42,792,1158.4758588206023,1159.183342365548,"[91, 0, 163]",163,l,0.1842100080102682,colour,0.06
134,22,1,2,16,43,793,1159.6952617184725,1160.3593725878745,"[53, 0, 201]",201,a,0.14080306771211326,colour,0.06
134,22,1,2,16,44,794,1160.867119536968,1161.623294253368,"[76, 0, 178]",178,a,0.2335919849574566,colour,0.06
134,22,1,2,16,45,795,1162.1327741246205,1162.9273511813954,"[27, 0, 227]",227,l,0.27132636262103915,colour,0.06
134,22,1,2,16,46,796,1163.4463278595358,1164.503298065858,"[98, 0, 156]",156,l,0.5336706754751503,colour,0.06
134,22,1,2,16,47,797,1165.024470434757,1166.0393475706223,"[62, 0, 192]",192,a,0.4917784663848579,colour,0.06
134,22,1,2,16,48,798,1166.5572687415406,1167.3834503581747,"[84, 0, 170]",170,l,0.3029951194766909,colour,0.06
134,22,1,2,16,49,799,1167.9010962308384,1168.7032713631634,"[86, 0, 168]",168,l,0.2788728445302695,colour,0.06
134,22,1,2,16,50,800,1169.2136109999847,1170.0633032489568,"[68, 0, 186]",186,a,0.3263541210908443,colour,0.06
