id,age,condition,counterbalance,block,trialinblock,trial,tstart,tend,trialstim,trialintensity,response,RT,trialtype,colourfreq
114,22,0,1,Practice,1,NA,5.5138953030109406e-06,2.4390640340279788,"[86, 0, 168]",168,l,1.7737602039705962,colour,0.5
114,22,0,1,Practice,2,NA,2.955648669274524,3.527135361218825,"[36, 0, 218]",218,a,0.04837367427535355,colour,0.5
114,22,0,1,Practice,3,NA,4.033621798967943,5.3110004579648376,"[79, 0, 175]",175,l,0.7542557953856885,colour,0.5
114,22,0,1,Practice,4,NA,5.83051766641438,6.415065061300993,"[76, 0, 178]",178,l,0.06140444497577846,colour,0.5
114,22,0,1,Practice,5,NA,6.924634915078059,7.527041231980547,"[20, 0, 234]",234,a,0.07801960315555334,colour,0.5
114,22,0,1,Practice,6,NA,8.035023494856432,8.655052820686251,"[44, 0, 210]",210,a,0.09651143522933125,colour,0.5
114,22,0,1,Practice,7,NA,9.175690519390628,9.871020733145997,"[40, 0, 214]",214,a,0.17260316479951143,colour,0.5
114,22,0,1,Practice,8,NA,10.378753297962248,10.911095689749345,"[50, 0, 204]",204,a,0.008950137766078115,colour,0.5
114,22,0,1,Practice,9,NA,11.427205741405487,15.03919707518071,"[98, 0, 156]",156,l,3.089174882043153,colour,0.5
114,22,0,1,Practice,10,NA,15.55218275054358,16.11102267098613,"[47, 0, 207]",207,a,0.035621352260932326,colour,0.5
114,22,0,1,1,1,1,4.351974957622588,5.928014896810055,"[1, 0, 253]",253,a,1.0519336434081197,colour,0.5
114,22,0,1,1,2,2,6.445026066619903,7.191964607452974,"[13, 0, 241]",241,a,0.22366050211712718,colour,0.5
114,22,0,1,1,3,3,7.710999355185777,8.471934769768268,"[63, 0, 191]",191,l,0.23527697380632162,colour,0.5
114,22,0,1,1,4,4,8.978945021983236,9.520000850548968,"[25, 0, 229]",229,a,0.01837761653587222,colour,0.5
114,22,0,1,1,5,5,10.029894839273766,10.775943289278075,"[39, 0, 215]",215,a,0.22684237943030894,colour,0.5
114,22,0,1,1,6,6,11.291366868186742,11.855934876715764,"[95, 0, 159]",159,l,0.041138733038678765,colour,0.5
114,22,0,1,1,7,7,12.369464452844113,12.92793612764217,"[32, 0, 222]",222,a,0.03508847928605974,colour,0.5
114,22,0,1,1,8,8,13.449242576025426,13.98391023161821,"[8, 0, 246]",246,a,0.011860656086355448,colour,0.5
114,22,0,1,1,9,9,14.496058591641486,15.303962439764291,"[47, 0, 207]",207,a,0.2845104127191007,colour,0.5
114,22,0,1,1,10,10,15.82423307443969,18.191958699841052,"[4, 0, 250]",250,a,1.844638995360583,colour,0.5
114,22,0,1,1,11,11,18.69914539461024,19.463949552970007,"[73, 0, 181]",181,l,0.24027054011821747,colour,0.5
114,22,0,1,1,12,12,19.981639318633825,20.735897477250546,"[26, 0, 228]",228,a,0.2315653741825372,colour,0.5
114,22,0,1,1,13,13,21.247343217022717,22.000122879631817,"[58, 0, 196]",196,l,0.22946932865306735,colour,0.5
114,22,0,1,1,14,14,22.51298606931232,23.27190893352963,"[93, 0, 161]",161,l,0.2356487640645355,colour,0.5
114,22,0,1,1,15,15,23.77856117999181,24.535914570093155,"[22, 0, 232]",232,a,0.23401863756589592,colour,0.5
114,22,0,1,1,16,16,25.044156376970932,25.78391393367201,"[92, 0, 162]",162,l,0.21636175806634128,colour,0.5
114,22,0,1,1,17,17,26.294282112270594,27.039950895356014,"[79, 0, 175]",175,l,0.22248211642727256,colour,0.5
114,22,0,1,1,18,18,27.55984343844466,28.29595122928731,"[90, 0, 164]",164,l,0.21279863826930523,colour,0.5
114,22,0,1,1,19,19,28.809838416986167,29.63990197959356,"[64, 0, 190]",190,l,0.3051368868909776,colour,0.5
114,22,0,1,1,20,20,30.15515108499676,30.7999269021675,"[5, 0, 249]",249,a,0.12138789566233754,colour,0.5
114,22,0,1,1,21,21,31.31134034669958,32.0798848553095,"[70, 0, 184]",184,l,0.24523771926760674,colour,0.5
114,22,0,1,1,22,22,32.59262083261274,33.34391451650299,"[20, 0, 234]",234,a,0.22835198906250298,colour,0.5
114,22,0,1,1,23,23,33.85819870047271,34.599890038371086,"[33, 0, 221]",221,a,0.21695449552498758,colour,0.5
114,22,0,1,1,24,24,35.109587891958654,35.87989879748784,"[74, 0, 180]",180,l,0.2469552792608738,colour,0.5
114,22,0,1,1,25,25,36.39082151046023,37.135922368383035,"[43, 0, 211]",211,a,0.2217920992989093,colour,0.5
114,22,0,1,1,26,26,37.65638047363609,38.44789365539327,"[10, 0, 244]",244,a,0.26806539576500654,colour,0.5
114,22,0,1,1,27,27,38.96891811047681,39.71991050243378,"[99, 0, 155]",155,l,0.2282318661455065,colour,0.5
114,22,0,1,1,28,28,40.23678146349266,40.99993580323644,"[11, 0, 243]",243,a,0.23985227663069963,colour,0.5
114,22,0,1,1,29,29,41.51785833132453,42.263861095299944,"[30, 0, 224]",224,a,0.22260066377930343,colour,0.5
114,22,0,1,1,30,30,42.783497639000416,43.50392132229172,"[80, 0, 174]",174,l,0.1971692752558738,colour,0.5
114,22,0,1,1,31,31,44.01880651433021,44.77589720953256,"[15, 0, 239]",239,a,0.23467163345776498,colour,0.5
114,22,0,1,1,32,32,45.283666401868686,46.04790263506584,"[23, 0, 231]",231,a,0.2412078925408423,colour,0.5
114,22,0,1,1,33,33,46.56620404263958,47.351866256445646,"[6, 0, 248]",248,a,0.2625054793898016,colour,0.5
114,22,0,1,1,34,34,47.86311901174486,48.61588843446225,"[97, 0, 157]",157,l,0.2294110395014286,colour,0.5
114,22,0,1,1,35,35,49.12868979037739,49.919833151157945,"[59, 0, 195]",195,l,0.2677755253389478,colour,0.5
114,22,0,1,1,36,36,50.42795050307177,51.18389471410774,"[3, 0, 251]",251,a,0.23264844925142825,colour,0.5
114,22,0,1,1,37,37,51.693557121558115,52.431847997708246,"[84, 0, 170]",170,l,0.21527238166891038,colour,0.5
114,22,0,1,1,38,38,52.94354107230902,53.71983803506009,"[86, 0, 168]",168,l,0.25301892403513193,colour,0.5
114,22,0,1,1,39,39,54.24036624468863,54.99983576638624,"[94, 0, 160]",160,l,0.2361765168607235,colour,0.5
114,22,0,1,1,40,40,55.50743757444434,56.399858688237146,"[53, 0, 201]",201,l,0.36904106894508004,colour,0.5
114,22,0,1,1,41,41,56.91367931594141,57.65586217306554,"[12, 0, 242]",242,a,0.2188425906933844,colour,0.5
114,22,0,1,1,42,42,58.16311148926616,58.919884745031595,"[35, 0, 219]",219,a,0.23349600471556187,colour,0.5
114,22,0,1,1,43,43,59.43110205442645,60.17586893122643,"[96, 0, 158]",158,l,0.22159084398299456,colour,0.5
114,22,0,1,1,44,44,60.696685042232275,61.45585209061392,"[91, 0, 163]",163,l,0.2358421420212835,colour,0.5
114,22,0,1,1,45,45,61.962279845261946,62.71987111796625,"[85, 0, 169]",169,l,0.2344798306003213,colour,0.5
114,22,0,1,1,46,46,63.22775491932407,64.0718445002567,"[71, 0, 183]",183,a,0.32081666216254234,colour,0.5
114,22,0,1,1,47,47,64.58939878316596,65.33592024142854,"[24, 0, 230]",230,a,0.22361205890774727,colour,0.5
114,22,0,1,1,48,48,65.85498216468841,66.60785871348344,"[83, 0, 171]",171,l,0.22987459576688707,colour,0.5
114,22,0,1,1,49,49,67.12069945363328,67.87987713585608,"[75, 0, 179]",179,l,0.23579291137866676,colour,0.5
114,22,0,1,1,50,50,68.38775542355143,69.15189634612761,"[42, 0, 212]",212,a,0.24078647792339325,colour,0.5
114,22,0,1,2,1,51,73.9822690775618,75.11982905538753,"[93, 0, 161]",161,l,0.6136458786204457,colour,0.5
114,22,0,1,2,2,52,75.63892563688569,76.39180533634499,"[79, 0, 175]",175,l,0.22954100859351456,colour,0.5
114,22,0,1,2,3,53,76.90456927684136,77.66386274946854,"[37, 0, 217]",217,a,0.23461373802274466,colour,0.5
114,22,0,1,2,4,54,78.17152836057357,78.9438057364896,"[70, 0, 184]",184,l,0.24880950362421572,colour,0.5
114,22,0,1,2,5,55,79.4528104220517,80.11191512458026,"[73, 0, 181]",181,l,0.13574789464473724,colour,0.5
114,22,0,1,2,6,56,80.62469048658386,81.43183618225157,"[6, 0, 248]",248,a,0.2837668324355036,colour,0.5
114,22,0,1,2,7,57,81.95276493299752,82.6317982156761,"[90, 0, 164]",164,l,0.155674111796543,colour,0.5
114,22,0,1,2,8,58,83.14032871136442,83.95180907007307,"[85, 0, 169]",169,l,0.28813379094935954,colour,0.5
114,22,0,1,2,9,59,84.46842324361205,85.16784236091189,"[18, 0, 236]",236,a,0.176060734083876,colour,0.5
114,22,0,1,2,10,60,85.68859624420293,86.48818365158513,"[36, 0, 218]",218,a,0.2769497614353895,colour,0.5
114,22,0,1,2,11,61,87.00096373981796,87.7438094385434,"[66, 0, 188]",188,l,0.21952394326217473,colour,0.5
114,22,0,1,2,12,62,88.2510461518541,89.00783437374048,"[25, 0, 229]",229,a,0.23347434308379889,colour,0.5
114,22,0,1,2,13,63,89.51799105736427,90.31179169355892,"[32, 0, 222]",222,a,0.2704749421682209,colour,0.5
114,22,0,1,2,14,64,90.83052711887285,91.56779990438372,"[97, 0, 157]",157,l,0.21400301763787866,colour,0.5
114,22,0,1,2,15,65,92.08050082949921,92.8157516126521,"[84, 0, 170]",170,l,0.2118534091860056,colour,0.5
114,22,0,1,2,16,66,93.33048871881329,94.02379102236591,"[38, 0, 216]",216,a,0.1698269483167678,colour,0.5
114,22,0,1,2,17,67,94.53505519940518,95.23979201796465,"[43, 0, 211]",211,a,0.18171359784901142,colour,0.5
114,22,0,1,2,18,68,95.75369889801368,96.51976887579076,"[61, 0, 193]",193,l,0.2428088744636625,colour,0.5
114,22,0,1,2,19,69,97.03499986417592,97.71976044750772,"[28, 0, 226]",226,a,0.16160109220072627,colour,0.5
114,22,0,1,2,20,70,98.238101239549,98.88780248793773,"[96, 0, 158]",158,l,0.1263015114236623,colour,0.5
114,22,0,1,2,21,71,99.39433855027892,100.11178712500259,"[41, 0, 213]",213,a,0.1941004313994199,colour,0.5
114,22,0,1,2,22,72,100.630129492376,101.29583031870425,"[1, 0, 253]",253,a,0.1424357844516635,colour,0.5
114,22,0,1,2,23,73,101.80197489866987,102.51175963459536,"[45, 0, 209]",209,a,0.186485429527238,colour,0.5
114,22,0,1,2,24,74,103.020661132643,104.19176256470382,"[3, 0, 251]",251,a,0.6478281195741147,colour,0.5
114,22,0,1,2,25,75,104.70816800021566,105.40779112954624,"[86, 0, 168]",168,l,0.17623914615251124,colour,0.5
114,22,0,1,2,26,76,105.92690464644693,106.67975756456144,"[47, 0, 207]",207,a,0.22813261742703617,colour,0.5
114,22,0,1,2,27,77,107.19395510246977,107.83977618557401,"[10, 0, 244]",244,a,0.12250050925649703,colour,0.5
114,22,0,1,2,28,78,108.35026881913655,109.04775021690875,"[44, 0, 210]",210,a,0.174338054144755,colour,0.5
114,22,0,1,2,29,79,109.55722594168037,110.24777920381166,"[54, 0, 200]",200,a,0.16990611120127141,colour,0.5
114,22,0,1,2,30,80,110.7576192356646,111.36773232044652,"[62, 0, 192]",192,a,0.0868062952067703,colour,0.5
114,22,0,1,2,31,81,111.88269470632076,112.5837746700272,"[52, 0, 202]",202,a,0.17789881094358861,colour,0.5
114,22,0,1,2,32,82,113.10136912483722,113.76775209163316,"[94, 0, 160]",160,l,0.1430844480637461,colour,0.5
114,22,0,1,2,33,83,114.2888604355976,115.2317808077205,"[71, 0, 183]",183,a,0.4203146274667233,colour,0.5
114,22,0,1,2,34,84,115.7423663889058,116.47174572385848,"[22, 0, 232]",232,a,0.2041005613282323,colour,0.5
114,22,0,1,2,35,85,116.97860552719794,117.76776666380465,"[59, 0, 195]",195,a,0.2664770169649273,colour,0.5
114,22,0,1,2,36,86,118.27459535328671,118.99176232842728,"[9, 0, 245]",245,a,0.1937621182296425,colour,0.5
114,22,0,1,2,37,87,119.50896254414693,120.17572635924444,"[11, 0, 243]",243,a,0.143407401163131,colour,0.5
114,22,0,1,2,38,88,120.69650347926654,121.48775632935576,"[74, 0, 180]",180,l,0.26562355388887227,colour,0.5
114,22,0,1,2,39,89,121.99581224122085,122.77572391740978,"[13, 0, 241]",241,a,0.2565741667058319,colour,0.5
114,22,0,1,2,40,90,123.29268900747411,124.08769796136767,"[53, 0, 201]",201,a,0.2716923183761537,colour,0.5
114,22,0,1,2,41,91,124.60524751804769,125.16776162269525,"[89, 0, 165]",165,l,0.039275056682527065,colour,0.5
114,22,0,1,2,42,92,125.68329508439638,126.41572396480478,"[20, 0, 234]",234,a,0.20929223229177296,colour,0.5
114,22,0,1,2,43,93,126.93329006270505,127.6557471700944,"[68, 0, 186]",186,l,0.19934920989908278,colour,0.5
114,22,0,1,2,44,94,128.17004750156775,128.8157594895456,"[17, 0, 237]",237,a,0.12237684149295092,colour,0.5
114,22,0,1,2,45,95,129.32626512018032,130.11176782636903,"[57, 0, 197]",197,a,0.26210139389149845,colour,0.5
114,22,0,1,2,46,96,130.62303712335415,131.35174731491134,"[56, 0, 198]",198,a,0.20524192531593144,colour,0.5
114,22,0,1,2,47,97,131.87291473592632,132.4317483548075,"[46, 0, 208]",208,a,0.035288552986457944,colour,0.5
114,22,0,1,2,48,98,132.95117694791406,134.4397733497899,"[34, 0, 220]",220,a,0.9652955199126154,colour,0.5
114,22,0,1,2,49,99,134.951224997174,135.71172363706864,"[35, 0, 219]",219,a,0.23590594506822526,colour,0.5
114,22,0,1,2,50,100,136.21813760721125,136.87173004890792,"[65, 0, 189]",189,l,0.1302891969680786,colour,0.5
114,22,0,1,3,1,101,144.3593052092474,144.94367064745165,"[32, 0, 222]",222,a,0.060146896401420236,colour,0.5
114,22,0,1,3,2,102,145.45389664778486,145.99176193447784,"[20, 0, 234]",234,a,0.014513205038383603,colour,0.5
114,22,0,1,3,3,103,146.50086586922407,147.68772781500593,"[81, 0, 173]",173,l,0.6636055684648454,colour,0.5
114,22,0,1,3,4,104,148.20386504172347,148.9117317502387,"[78, 0, 176]",176,l,0.18441025773063302,colour,0.5
114,22,0,1,3,5,105,149.42404946382158,150.09570877812803,"[40, 0, 214]",214,a,0.14841475244611502,colour,0.5
114,22,0,1,3,6,106,150.6115636175964,151.23970419052057,"[80, 0, 174]",174,l,0.10479479283094406,colour,0.5
114,22,0,1,3,7,107,151.75220937444828,152.31166723836213,"[23, 0, 231]",231,a,0.036507504526525736,colour,0.5
114,22,0,1,3,8,108,152.83031247300096,153.52767886780202,"[83, 0, 171]",171,l,0.17400643625296652,colour,0.5
114,22,0,1,3,9,109,154.04905502684414,155.11966364015825,"[42, 0, 212]",212,a,0.5471494055818766,colour,0.5
114,22,0,1,3,10,110,155.62867502123117,156.33566621108912,"[8, 0, 246]",246,a,0.18373441882431507,colour,0.5
114,22,0,1,3,11,111,156.84739433811046,158.49571200762875,"[87, 0, 167]",167,l,1.1249380186200142,colour,0.5
114,22,0,1,3,12,112,159.00358281214722,159.66371584520675,"[77, 0, 177]",177,l,0.13671360397711396,colour,0.5
114,22,0,1,3,13,113,160.17546523967758,160.8157027757261,"[29, 0, 225]",225,a,0.11675902991555631,colour,0.5
114,22,0,1,3,14,114,161.33173523959704,161.95966116688214,"[28, 0, 226]",226,a,0.10307211265899241,colour,0.5
114,22,0,1,3,15,115,162.474082802888,163.01566047687083,"[37, 0, 217]",217,a,0.018317752284929156,colour,0.5
114,22,0,1,3,16,116,163.53669517184608,164.13569393800572,"[47, 0, 207]",207,a,0.07558248774148524,colour,0.5
114,22,0,1,3,17,117,164.64605030114762,165.29566135909408,"[68, 0, 186]",186,l,0.1263790992088616,colour,0.5
114,22,0,1,3,18,118,165.80220214743167,166.52769107697532,"[51, 0, 203]",203,a,0.20135191385634243,colour,0.5
114,22,0,1,3,19,119,167.03757246257737,167.56768017541617,"[48, 0, 206]",206,a,0.006899384781718254,colour,0.5
114,22,0,1,3,20,120,168.0843561827205,169.39170923805796,"[91, 0, 163]",163,l,0.7841411826666445,colour,0.5
114,22,0,1,3,21,121,169.91243476443924,170.9036512230523,"[73, 0, 181]",181,l,0.46453480748459697,colour,0.5
114,22,0,1,3,22,122,171.41578697995283,172.1196482803207,"[18, 0, 236]",236,a,0.18071795674040914,colour,0.5
114,22,0,1,3,23,123,172.63235038681887,173.27169625693932,"[41, 0, 213]",213,a,0.11620961572043598,colour,0.5
114,22,0,1,3,24,124,173.7885427994188,174.45563783869147,"[64, 0, 190]",190,l,0.14380124676972628,colour,0.5
114,22,0,1,3,25,125,174.976094762329,175.56763409543782,"[10, 0, 244]",244,a,0.06584662781096995,colour,0.5
114,22,0,1,3,26,126,176.08723125467077,176.71162281255238,"[70, 0, 184]",184,l,0.10119425761513412,colour,0.5
114,22,0,1,3,27,127,177.2278955222573,177.78363469731994,"[34, 0, 220]",220,a,0.03261709911748767,colour,0.5
114,22,0,1,3,28,128,178.28951776376925,178.8796546133235,"[66, 0, 188]",188,l,0.06664889119565487,colour,0.5
114,22,0,1,3,29,129,179.3867865637876,179.94370963820256,"[13, 0, 241]",241,a,0.03350718994624913,colour,0.5
114,22,0,1,3,30,130,180.46487272693776,181.20764792733826,"[89, 0, 165]",165,l,0.21992763481102884,colour,0.5
114,22,0,1,3,31,131,181.71485904068686,182.32763806544244,"[14, 0, 240]",240,a,0.08940803841687739,colour,0.5
114,22,0,1,3,32,132,182.8398498345632,183.55168926226906,"[58, 0, 196]",196,l,0.188453869195655,colour,0.5
114,22,0,1,3,33,133,184.05860892985947,184.6956311117392,"[88, 0, 166]",166,l,0.11365277087315917,colour,0.5
114,22,0,1,3,34,134,185.21663981303573,185.93568582460284,"[35, 0, 219]",219,a,0.19586958503350616,colour,0.5
114,22,0,1,3,35,135,186.45091051165946,187.14366694539785,"[60, 0, 194]",194,l,0.16932085691951215,colour,0.5
114,22,0,1,3,36,136,187.65414776373655,188.2716462383978,"[76, 0, 178]",178,l,0.09410543320700526,colour,0.5
114,22,0,1,3,37,137,188.77915037283674,189.5356491182465,"[59, 0, 195]",195,l,0.23317344509996474,colour,0.5
114,22,0,1,3,38,138,190.0447124869097,190.6156537027564,"[90, 0, 164]",164,l,0.04778369376435876,colour,0.5
114,22,0,1,3,39,139,191.12284000380896,191.7836933801882,"[96, 0, 158]",158,l,0.13757770066149533,colour,0.5
114,22,0,1,3,40,140,192.29476654226892,192.9516015134286,"[17, 0, 237]",237,a,0.1335585080087185,colour,0.5
114,22,0,1,3,41,141,193.46825152705424,194.2316149987746,"[44, 0, 210]",210,a,0.23997870087623596,colour,0.5
114,22,0,1,3,42,142,194.74956273310818,195.27964681503363,"[95, 0, 159]",159,l,0.007022264413535595,colour,0.5
114,22,0,1,3,43,143,195.79639844084159,196.93559799715877,"[57, 0, 197]",197,a,0.6159813820850104,colour,0.5
114,22,0,1,3,44,144,197.4526111362502,198.00763981416821,"[31, 0, 223]",223,a,0.0317411869764328,colour,0.5
114,22,0,1,3,45,145,198.51515655149706,199.13559429510497,"[12, 0, 242]",242,a,0.09726328612305224,colour,0.5
114,22,0,1,3,46,146,199.65578931150958,200.29559716233052,"[2, 0, 252]",252,a,0.11438729288056493,colour,0.5
114,22,0,1,3,47,147,200.81399860652164,201.4076005083043,"[79, 0, 175]",175,l,0.07024982012808323,colour,0.5
114,22,0,1,3,48,148,201.92341202497482,202.63961762329563,"[33, 0, 221]",221,a,0.1937640872783959,colour,0.5
114,22,0,1,3,49,149,203.15773077262565,203.7916033724323,"[97, 0, 157]",157,l,0.11054296721704304,colour,0.5
114,22,0,1,3,50,150,204.2983592003584,204.9836018504575,"[38, 0, 216]",216,a,0.16189371910877526,colour,0.5
114,22,0,1,4,1,151,209.55033207079396,210.14359920402057,"[30, 0, 224]",224,a,0.06910806219093502,colour,0.5
114,22,0,1,4,2,152,210.660492220195,211.3035953757353,"[22, 0, 232]",232,a,0.11967309261672199,colour,0.5
114,22,0,1,4,3,153,211.81677009700797,212.47160709020682,"[21, 0, 233]",233,a,0.13177635706961155,colour,0.5
114,22,0,1,4,4,154,212.98884590272792,213.55959964822978,"[59, 0, 195]",195,a,0.04760803864337504,colour,0.5
114,22,0,1,4,5,155,214.06866734893993,214.8476306453813,"[51, 0, 203]",203,l,0.2556895900052041,colour,0.5
114,22,0,1,4,6,156,215.36547125387006,215.9275489775464,"[28, 0, 226]",226,a,0.03886506333947182,colour,0.5
114,22,0,1,4,7,157,216.44359601382166,216.99156304262578,"[95, 0, 159]",159,l,0.02485007280483842,colour,0.5
114,22,0,1,4,8,158,217.50604021083564,218.47959742695093,"[66, 0, 188]",188,l,0.45023191603831947,colour,0.5
114,22,0,1,4,9,159,218.99042522301897,219.65555300423875,"[1, 0, 253]",253,a,0.14186195167712867,colour,0.5
114,22,0,1,4,10,160,220.16447104373947,220.87956560426392,"[46, 0, 208]",208,a,0.1920993027742952,colour,0.5
114,22,0,1,4,11,161,221.39889416075312,222.5995485743042,"[80, 0, 174]",174,l,0.6778840415645391,colour,0.5
114,22,0,1,4,12,162,223.1175199393183,223.6875903629698,"[16, 0, 238]",238,a,0.047044052043929696,colour,0.5
114,22,0,1,4,13,163,224.1957703360822,224.92754031298682,"[36, 0, 218]",218,a,0.20888066361658275,colour,0.5
114,22,0,1,4,14,164,225.44564322242513,226.8155535084661,"[76, 0, 178]",178,l,0.8466818719170988,colour,0.5
114,22,0,1,4,15,165,227.32256494206376,228.06363006564789,"[3, 0, 251]",251,a,0.21770437713712454,colour,0.5
114,22,0,1,4,16,166,228.5725390468724,229.11954548652284,"[98, 0, 156]",156,l,0.02358385967090726,colour,0.5
114,22,0,1,4,17,167,229.63510218518786,230.32752385013737,"[83, 0, 171]",171,l,0.16945712734013796,colour,0.5
114,22,0,1,4,18,168,230.83823506813496,231.47952259634621,"[90, 0, 164]",164,l,0.11801224644295871,colour,0.5
114,22,0,1,4,19,169,231.99443378206342,232.6795637924224,"[72, 0, 182]",182,l,0.16028998047113419,colour,0.5
114,22,0,1,4,20,170,233.19912629318424,233.7915466586128,"[93, 0, 161]",161,l,0.06929001864045858,colour,0.5
114,22,0,1,4,21,171,234.30846015480347,234.9515833966434,"[71, 0, 183]",183,l,0.11983338766731322,colour,0.5
114,22,0,1,4,22,172,235.46471440093592,236.05552787682973,"[35, 0, 219]",219,a,0.06754607101902366,colour,0.5
114,22,0,1,4,23,173,236.57570359506644,237.19154476816766,"[43, 0, 211]",211,a,0.09251784207299352,colour,0.5
114,22,0,1,4,24,174,237.70077040116303,238.43151637981646,"[94, 0, 160]",160,l,0.20749235851690173,colour,0.5
114,22,0,1,4,25,175,238.95152077521197,239.5755429060664,"[4, 0, 250]",250,a,0.1015258755069226,colour,0.5
114,22,0,1,4,26,176,240.09133354877122,240.81552869617008,"[32, 0, 222]",222,a,0.20123415417037904,colour,0.5
114,22,0,1,4,27,177,241.32723594922572,242.44756085588597,"[25, 0, 229]",229,a,0.5968727881554514,colour,0.5
114,22,0,1,4,28,178,242.96791931823827,243.7755104531534,"[49, 0, 205]",205,a,0.28495506406761706,colour,0.5
114,22,0,1,4,29,179,244.2960804104805,244.83157002157532,"[96, 0, 158]",158,l,0.012476630276069045,colour,0.5
114,22,0,1,4,30,180,245.34287476469763,245.98354277363978,"[92, 0, 162]",162,l,0.11730765667743981,colour,0.5
114,22,0,1,4,31,181,246.49920659838244,247.11951476661488,"[67, 0, 187]",187,l,0.0970431265886873,colour,0.5
114,22,0,1,4,32,182,247.62628477299586,248.39154539839365,"[63, 0, 191]",191,l,0.24195934971794486,colour,0.5
114,22,0,1,4,33,183,248.90746719157323,249.59151176386513,"[50, 0, 204]",204,a,0.16091461945325136,colour,0.5
114,22,0,1,4,34,184,250.11053115176037,252.0715302117169,"[64, 0, 190]",190,l,1.4376631260383874,colour,0.5
114,22,0,1,4,35,185,252.57935296697542,253.32753566559404,"[69, 0, 185]",185,l,0.22488221060484648,colour,0.5
114,22,0,1,4,36,186,253.8450099977199,254.64755557850003,"[86, 0, 168]",168,l,0.2792809328529984,colour,0.5
114,22,0,1,4,37,187,255.15742199798115,255.96756446361542,"[37, 0, 217]",217,a,0.28680023015476763,colour,0.5
114,22,0,1,4,38,188,256.4869619430974,257.1115244301036,"[12, 0, 242]",242,a,0.10120883001945913,colour,0.5
114,22,0,1,4,39,189,257.6276017923374,258.5195337499026,"[97, 0, 157]",157,l,0.3686224112752825,colour,0.5
114,22,0,1,4,40,190,259.0340979578905,259.6635224670172,"[40, 0, 214]",214,a,0.10637017455883324,colour,0.5
114,22,0,1,4,41,191,260.17658573016524,260.8635435772594,"[15, 0, 239]",239,a,0.16356480563990772,colour,0.5
114,22,0,1,4,42,192,261.3797178254463,261.9675156266894,"[33, 0, 221]",221,a,0.06450322107411921,colour,0.5
114,22,0,1,4,43,193,262.4734794315882,263.27158558624797,"[60, 0, 194]",194,a,0.27480960520915687,colour,0.5
114,22,0,1,4,44,194,263.785900096409,264.35953285195865,"[78, 0, 176]",176,l,0.050270827719941735,colour,0.5
114,22,0,1,4,45,195,264.879757800838,265.4234996554442,"[41, 0, 213]",213,a,0.018452053423970938,colour,0.5
114,22,0,1,4,46,196,265.93258192855865,266.4794737594202,"[8, 0, 246]",246,a,0.028938188683241606,colour,0.5
114,22,0,1,4,47,197,266.98959223995917,267.5835832611192,"[31, 0, 223]",223,a,0.07053063204512,colour,0.5
114,22,0,1,4,48,198,268.0991041196976,268.7676158209797,"[0, 0, 254]",254,a,0.14535811776295304,colour,0.5
114,22,0,1,4,49,199,269.28660527663305,269.92753283004276,"[58, 0, 196]",196,l,0.11759161949157715,colour,0.5
114,22,0,1,4,50,200,270.4448346577119,271.0874734695535,"[18, 0, 236]",236,a,0.11935013928450644,colour,0.5
114,22,0,1,5,1,201,275.94653075328097,276.68749229540117,"[15, 0, 239]",239,a,0.2169355908408761,colour,0.5
114,22,0,1,5,2,202,277.1969664446078,277.79950312455185,"[67, 0, 187]",187,l,0.07962097879499197,colour,0.5
114,22,0,1,5,3,203,278.3051853298675,278.97550281253643,"[3, 0, 251]",251,a,0.14698351779952645,colour,0.5
114,22,0,1,5,4,204,279.49336311314255,280.12750470940955,"[0, 0, 254]",254,a,0.11183162964880466,colour,0.5
114,22,0,1,5,5,205,280.6368528280873,281.40744612086564,"[37, 0, 217]",217,a,0.24765435489825904,colour,0.5
114,22,0,1,5,6,206,281.918081326643,282.5754617739003,"[6, 0, 248]",248,a,0.1340476640034467,colour,0.5
114,22,0,1,5,7,207,283.08996769273654,283.8074564395938,"[5, 0, 249]",249,a,0.1941740803886205,colour,0.5
114,22,0,1,5,8,208,284.32430376973934,284.90348856477067,"[34, 0, 220]",220,a,0.0559303869958967,colour,0.5
114,22,0,1,5,9,209,285.41797833610326,286.0554451693315,"[12, 0, 242]",242,a,0.1143928065430373,colour,0.5
114,22,0,1,5,10,210,286.5757831519004,287.1035108563956,"[25, 0, 229]",229,a,0.004581997869536281,colour,0.5
114,22,0,1,5,11,211,287.6224888905417,288.9594358871691,"[16, 0, 238]",238,a,0.813397204503417,colour,0.5
114,22,0,1,5,12,212,289.46630041650496,290.43145533371717,"[19, 0, 235]",235,a,0.4422486685216427,colour,0.5
114,22,0,1,5,13,213,290.9508795947768,292.29545301478356,"[8, 0, 246]",246,a,0.8212650553323328,colour,0.5
114,22,0,1,5,14,214,292.81029921607114,293.51942071621306,"[94, 0, 160]",160,l,0.1857835967093706,colour,0.5
114,22,0,1,5,15,215,294.0289165270515,294.671483265236,"[99, 0, 155]",155,l,0.11923395469784737,colour,0.5
114,22,0,1,5,16,216,295.18525781319477,295.919477508869,"[38, 0, 216]",216,a,0.2109518968500197,colour,0.5
114,22,0,1,5,17,217,296.43653436470777,297.4714846042916,"[84, 0, 170]",170,l,0.5115942193660885,colour,0.5
114,22,0,1,5,18,218,297.9833970509935,298.73546306579374,"[86, 0, 168]",168,l,0.22891046199947596,colour,0.5
114,22,0,1,5,19,219,299.248998549534,300.08740612189285,"[59, 0, 195]",195,a,0.31500074616633356,colour,0.5
114,22,0,1,5,20,220,300.60841324785724,301.2234174993355,"[76, 0, 178]",178,l,0.09168288973160088,colour,0.5
114,22,0,1,5,21,221,301.7333587494213,302.4714944504667,"[97, 0, 157]",157,l,0.21247529122047126,colour,0.5
114,22,0,1,5,22,222,302.9860023385845,303.74342031939887,"[80, 0, 174]",174,l,0.2344447784125805,colour,0.5
114,22,0,1,5,23,223,304.2513395668939,304.919419613434,"[17, 0, 237]",237,a,0.14474923256784678,colour,0.5
114,22,0,1,5,24,224,305.438817092916,306.1513808025047,"[13, 0, 241]",241,a,0.1892380155622959,colour,0.5
114,22,0,1,5,25,225,306.6575687052682,307.31145022949204,"[43, 0, 211]",211,a,0.13063617469742894,colour,0.5
114,22,0,1,5,26,226,307.8293987514917,308.5114004474599,"[52, 0, 202]",202,a,0.15862874034792185,colour,0.5
114,22,0,1,5,27,227,309.0324851607438,309.68741392018273,"[58, 0, 196]",196,a,0.13157234527170658,colour,0.5
114,22,0,1,5,28,228,310.20440460997634,310.8153888809029,"[57, 0, 197]",197,a,0.08759083552286029,colour,0.5
114,22,0,1,5,29,229,311.329472203739,311.9513927754015,"[1, 0, 253]",253,a,0.0986527728382498,colour,0.5
114,22,0,1,5,30,230,312.4700478562154,313.0634544105269,"[51, 0, 203]",203,a,0.07016278011724353,colour,0.5
114,22,0,1,5,31,231,313.58128792978823,315.2073848384898,"[87, 0, 167]",167,l,1.102840137667954,colour,0.5
114,22,0,1,5,32,232,315.72185058519244,316.3513806448318,"[95, 0, 159]",159,l,0.1063185806851834,colour,0.5
114,22,0,1,5,33,233,316.86257983744144,317.59142157342285,"[53, 0, 201]",201,a,0.2042356503661722,colour,0.5
114,22,0,1,5,34,234,318.08752506319433,318.7114558222238,"[83, 0, 171]",171,l,0.10055544041097164,colour,0.5
114,22,0,1,5,35,235,319.22412208886817,319.85539215779863,"[7, 0, 247]",247,a,0.10812003002502024,colour,0.5
114,22,0,1,5,36,236,320.364704830572,321.09542836016044,"[9, 0, 245]",245,a,0.20738798938691616,colour,0.5
114,22,0,1,5,37,237,321.6147620365955,322.2714276541956,"[56, 0, 198]",198,l,0.13346437877044082,colour,0.5
114,22,0,1,5,38,238,322.7866503719706,323.58334892289713,"[47, 0, 207]",207,a,0.27349849371239543,colour,0.5
114,22,0,1,5,39,239,324.09910490736365,324.7673783323262,"[98, 0, 156]",156,l,0.14513323199935257,colour,0.5
114,22,0,1,5,40,240,325.28880766034126,326.0154170803726,"[44, 0, 210]",210,a,0.203197079943493,colour,0.5
114,22,0,1,5,41,241,326.5240590341855,327.22337614558637,"[68, 0, 186]",186,l,0.17680746503174305,colour,0.5
114,22,0,1,5,42,242,327.7419268572703,328.31141005735844,"[42, 0, 212]",212,a,0.046141752041876316,colour,0.5
114,22,0,1,5,43,243,328.8200409836136,329.3993663813453,"[82, 0, 172]",172,l,0.05447434028610587,colour,0.5
114,22,0,1,5,44,244,329.91535631008446,330.63140594563447,"[64, 0, 190]",190,l,0.1930358672980219,colour,0.5
114,22,0,1,5,45,245,331.13987618288957,331.68738753255457,"[23, 0, 231]",231,a,0.024047415936365724,colour,0.5
114,22,0,1,5,46,246,332.19650328252465,332.8393721000757,"[60, 0, 194]",194,l,0.1195565143134445,colour,0.5
114,22,0,1,5,47,247,333.3526685195975,335.031396178063,"[14, 0, 240]",240,a,1.1553763644769788,colour,0.5
114,22,0,1,5,48,248,335.5407104261685,337.30337088392116,"[65, 0, 189]",189,l,1.2402480912860483,colour,0.5
114,22,0,1,5,49,249,337.8220019401051,338.5033868739847,"[75, 0, 179]",179,l,0.15611285576596856,colour,0.5
114,22,0,1,5,50,250,339.01158575178124,339.55942871933803,"[18, 0, 236]",236,a,0.02450388274155557,colour,0.5
114,22,0,1,6,1,251,344.5288698563818,345.2953852734063,"[45, 0, 209]",209,l,0.2427631882019341,colour,0.5
114,22,0,1,6,2,252,345.80956114968285,346.3673223273363,"[21, 0, 233]",233,a,0.034354351460933685,colour,0.5
114,22,0,1,6,3,253,346.8878020942211,347.64735629269853,"[77, 0, 177]",177,l,0.23388000391423702,colour,0.5
114,22,0,1,6,4,254,348.1557863575872,348.7593517617788,"[72, 0, 182]",182,l,0.08020229474641383,colour,0.5
114,22,0,1,6,5,255,349.2807799084112,349.8233512544539,"[94, 0, 160]",160,l,0.019244076451286674,colour,0.5
114,22,0,1,6,6,256,350.3432875145227,351.0473910297733,"[60, 0, 194]",194,l,0.18083138414658606,colour,0.5
114,22,0,1,6,7,257,351.56207772367634,352.86333720223047,"[2, 0, 252]",252,a,0.777943630469963,colour,0.5
114,22,0,1,6,8,258,353.3758849215228,354.2714256851468,"[51, 0, 203]",203,l,0.372119365260005,colour,0.5
114,22,0,1,6,9,259,354.7821971613448,355.4393216089811,"[33, 0, 221]",221,a,0.13388579338788986,colour,0.5
114,22,0,1,6,10,260,355.9541788380593,356.47938396269456,"[66, 0, 188]",188,l,0.0019365381449460983,colour,0.5
114,22,0,1,6,11,261,357.000948773697,358.1993559051771,"[7, 0, 247]",247,a,0.6750018806196749,colour,0.5
114,22,0,1,6,12,262,358.7057281276211,359.2713618820999,"[34, 0, 220]",220,a,0.042294275714084506,colour,0.5
114,22,0,1,6,13,263,359.7838548568543,360.44730682554655,"[69, 0, 185]",185,l,0.1401022500358522,colour,0.5
114,22,0,1,6,14,264,360.9557018384803,361.7193150082603,"[93, 0, 161]",161,l,0.24025596817955375,colour,0.5
114,22,0,1,6,15,265,362.2370189521462,362.8553062994033,"[20, 0, 234]",234,a,0.09499001014046371,colour,0.5
114,22,0,1,6,16,266,363.3619786321651,363.95956782554276,"[75, 0, 179]",179,l,0.07428397913463414,colour,0.5
114,22,0,1,6,17,267,364.47266929154284,365.21530388924293,"[53, 0, 201]",201,l,0.21912734094075859,colour,0.5
114,22,0,1,6,18,268,365.7226827805862,366.4792851074599,"[16, 0, 238]",238,a,0.23316517448984087,colour,0.5
114,22,0,1,6,19,269,366.98841661121696,367.52729368698783,"[61, 0, 193]",193,l,0.015569104813039303,colour,0.5
114,22,0,1,6,20,270,368.0352893404197,368.5673123237211,"[84, 0, 170]",170,l,0.008787086000666022,colour,0.5
114,22,0,1,6,21,271,369.0821124452632,370.1353288432583,"[43, 0, 211]",211,a,0.5299596269614995,colour,0.5
114,22,0,1,6,22,272,370.65066892676987,371.42329682502896,"[48, 0, 206]",206,a,0.24921358888968825,colour,0.5
114,22,0,1,6,23,273,371.9320782003924,372.7993168355897,"[52, 0, 202]",202,a,0.34407363017089665,colour,0.5
114,22,0,1,6,24,274,373.3014189857058,374.18331694277003,"[56, 0, 198]",198,a,0.35858565382659435,colour,0.5
114,22,0,1,6,25,275,374.6919809519313,376.2953285595868,"[87, 0, 167]",167,l,1.0777994436211884,colour,0.5
114,22,0,1,6,26,276,376.80353019433096,377.4073429333512,"[32, 0, 222]",222,a,0.08048113738186657,colour,0.5
114,22,0,1,6,27,277,377.928555252729,378.9352852839511,"[54, 0, 200]",200,l,0.4834374201018363,colour,0.5
114,22,0,1,6,28,278,379.4441611820366,380.56730799144134,"[6, 0, 248]",248,a,0.5998703460209072,colour,0.5
114,22,0,1,6,29,279,381.08607886289246,382.0472720884718,"[96, 0, 158]",158,l,0.43784035625867546,colour,0.5
114,22,0,1,6,30,280,382.5555520984344,383.47129555861466,"[49, 0, 205]",205,a,0.39232718176208436,colour,0.5
114,22,0,1,6,31,281,383.9826341723092,384.87925013387576,"[88, 0, 166]",166,l,0.3791254819370806,colour,0.5
114,22,0,1,6,32,282,385.39949004887603,385.93529158551246,"[59, 0, 195]",195,l,0.012826364953070879,colour,0.5
114,22,0,1,6,33,283,386.4476022096351,386.98331985715777,"[27, 0, 227]",227,a,0.012306882767006755,colour,0.5
114,22,0,1,6,34,284,387.4945269266609,388.0872761530336,"[90, 0, 164]",164,l,0.06946724932640791,colour,0.5
114,22,0,1,6,35,285,388.60391671420075,390.16731303255074,"[46, 0, 208]",208,a,1.0400867718271911,colour,0.5
114,22,0,1,6,36,286,390.6820296589285,391.22339150565676,"[40, 0, 214]",214,a,0.016056291526183486,colour,0.5
114,22,0,1,6,37,287,391.7309318736661,392.3352652764879,"[82, 0, 172]",172,l,0.0809667487628758,colour,0.5
114,22,0,1,6,38,288,392.85604042746127,393.41525410697795,"[26, 0, 228]",228,a,0.035758804297074676,colour,0.5
114,22,0,1,6,39,289,393.9341273782775,394.5592258889228,"[86, 0, 168]",168,l,0.10183977033011615,colour,0.5
114,22,0,1,6,40,290,395.07475738134235,395.6312775518745,"[31, 0, 223]",223,a,0.03315115347504616,colour,0.5
114,22,0,1,6,41,291,396.1528711137362,396.7592710235622,"[11, 0, 243]",243,a,0.08321954496204853,colour,0.5
114,22,0,1,6,42,292,397.2778796304483,398.3192428557668,"[78, 0, 176]",176,l,0.5180773094762117,colour,0.5
114,22,0,1,6,43,293,398.82608729903586,400.01522409613244,"[30, 0, 224]",224,a,0.6660986102651805,colour,0.5
114,22,0,1,6,44,294,400.5292125020642,401.1032355586067,"[18, 0, 236]",236,a,0.050720205530524254,colour,0.5
114,22,0,1,6,45,295,401.62288903747685,402.15927031449974,"[73, 0, 181]",181,l,0.012932309182360768,colour,0.5
114,22,0,1,6,46,296,402.66992718190886,403.27124569774605,"[91, 0, 163]",163,l,0.07813421241007745,colour,0.5
114,22,0,1,6,47,297,403.779244502075,404.81523921969347,"[25, 0, 229]",229,a,0.5125886790920049,colour,0.5
114,22,0,1,6,48,298,405.3258732438553,406.15922699170187,"[1, 0, 253]",253,a,0.3099831552244723,colour,0.5
114,22,0,1,6,49,299,406.671131167328,407.7272655663546,"[29, 0, 225]",225,a,0.5327578987926245,colour,0.5
114,22,0,1,6,50,300,408.23365866276436,408.9672612026334,"[14, 0, 240]",240,a,0.21038791025057435,colour,0.5
114,22,0,1,7,1,301,418.111481894739,418.695221118629,"[91, 0, 163]",163,l,0.0595663683488965,colour,0.5
114,22,0,1,7,2,302,419.206088693114,420.1511937258765,"[9, 0, 245]",245,a,0.42211095662787557,colour,0.5
114,22,0,1,7,3,303,420.660467407899,421.4152190547902,"[39, 0, 215]",215,a,0.23143146676011384,colour,0.5
114,22,0,1,7,4,304,421.9260980510153,422.5752479159273,"[18, 0, 236]",236,a,0.13785339263267815,colour,0.5
114,22,0,1,7,5,305,423.09233115939423,423.67919121473096,"[60, 0, 194]",194,l,0.0634496845304966,colour,0.5
114,22,0,1,7,6,306,424.1778519432992,424.9272264181636,"[79, 0, 175]",175,l,0.22601175936870277,colour,0.5
114,22,0,1,7,7,307,425.44351370004006,426.1832271460444,"[68, 0, 186]",186,l,0.21641532122157514,colour,0.5
114,22,0,1,7,8,308,426.6934948938433,427.3752236550208,"[1, 0, 253]",253,a,0.15838298085145652,colour,0.5
114,22,0,1,7,9,309,427.8965927248355,428.6871921850834,"[41, 0, 213]",213,a,0.26730369846336544,colour,0.5
114,22,0,1,7,10,310,429.1935025739949,429.839208654128,"[55, 0, 199]",199,a,0.12269034259952605,colour,0.5
114,22,0,1,7,11,311,430.351088805357,430.99122669850476,"[66, 0, 188]",188,l,0.11676769447512925,colour,0.5
114,22,0,1,7,12,312,431.50740094692446,432.15119293821044,"[16, 0, 238]",238,a,0.1205915401224047,colour,0.5
114,22,0,1,7,13,313,432.6634661471471,433.37520396267064,"[29, 0, 225]",225,a,0.18827073089778423,colour,0.5
114,22,0,1,7,14,314,433.88229377171956,435.6951978816651,"[47, 0, 207]",207,a,1.2897706124931574,colour,0.5
114,22,0,1,7,15,315,436.21224134694785,436.8152266165707,"[87, 0, 167]",167,l,0.07964106486178935,colour,0.5
114,22,0,1,7,16,316,437.3206161947455,437.8555945942644,"[99, 0, 155]",155,l,0.011587327113375068,colour,0.5
114,22,0,1,7,17,317,438.36752003780566,439.063170054229,"[59, 0, 195]",195,l,0.17224240256473422,colour,0.5
114,22,0,1,7,18,318,439.57290374767035,440.23116443958133,"[35, 0, 219]",219,a,0.1348479581065476,colour,0.5
114,22,0,1,7,19,319,440.7448255599011,441.71115965023637,"[57, 0, 197]",197,a,0.44299106718972325,colour,0.5
114,22,0,1,7,20,320,442.2291357414797,442.8471607877873,"[51, 0, 203]",203,a,0.09458828787319362,colour,0.5
114,22,0,1,7,21,321,443.3555357144214,443.9352065147832,"[77, 0, 177]",177,l,0.05626358021982014,colour,0.5
114,22,0,1,7,22,322,444.449315831298,445.01515399152413,"[42, 0, 212]",212,a,0.04264716128818691,colour,0.5
114,22,0,1,7,23,323,445.5274055390619,446.1431868476793,"[34, 0, 220]",220,a,0.09285339852795005,colour,0.5
114,22,0,1,7,24,324,446.6523947576061,447.3191715697758,"[84, 0, 170]",170,l,0.14340779511258006,colour,0.5
114,22,0,1,7,25,325,447.8399053667672,448.4551896424964,"[64, 0, 190]",190,l,0.09045054740272462,colour,0.5
114,22,0,1,7,26,326,448.96630888432264,450.53519304515794,"[97, 0, 157]",157,l,1.0458337648306042,colour,0.5
114,22,0,1,7,27,327,451.04514729231596,452.6071769669652,"[24, 0, 230]",230,a,1.0393298009876162,colour,0.5
114,22,0,1,7,28,328,453.12380098667927,453.8151683274191,"[3, 0, 251]",251,a,0.16800423129461706,colour,0.5
114,22,0,1,7,29,329,454.32709180167876,454.99912526924163,"[28, 0, 226]",226,a,0.14873219188302755,colour,0.5
114,22,0,1,7,30,330,455.5141770578921,456.15117521514185,"[92, 0, 162]",162,l,0.1140647332649678,colour,0.5
114,22,0,1,7,31,331,456.67042894102633,457.44720954587683,"[54, 0, 200]",200,l,0.2534994154702872,colour,0.5
114,22,0,1,7,32,332,457.9673183101695,458.55113393999636,"[30, 0, 224]",224,a,0.059871598379686475,colour,0.5
114,22,0,1,7,33,333,459.062324074097,459.7351342048496,"[49, 0, 205]",205,a,0.14965575956739485,colour,0.5
114,22,0,1,7,34,334,460.2498457110487,460.79113863478415,"[43, 0, 211]",211,a,0.018301998265087605,colour,0.5
114,22,0,1,7,35,335,461.31240333546884,462.7351243586745,"[75, 0, 179]",179,l,0.8994441658724099,colour,0.5
114,22,0,1,7,36,336,463.25206857477315,463.9031301655341,"[76, 0, 178]",178,l,0.12769336136989295,colour,0.5
114,22,0,1,7,37,337,464.4239187070634,465.10315166949295,"[48, 0, 206]",206,a,0.1559738281648606,colour,0.5
114,22,0,1,7,38,338,465.61132691660896,466.1991180223413,"[82, 0, 172]",172,l,0.06423225533217192,colour,0.5
114,22,0,1,7,39,339,466.7051542948466,468.43910381244496,"[2, 0, 252]",252,a,1.2106529681477696,colour,0.5
114,22,0,1,7,40,340,468.95514572877437,469.53518201760016,"[94, 0, 160]",160,l,0.05532662197947502,colour,0.5
114,22,0,1,7,41,341,470.05032320925966,470.97515229019336,"[10, 0, 244]",244,a,0.40142501168884337,colour,0.5
114,22,0,1,7,42,342,471.48793237819336,472.0551296991762,"[78, 0, 176]",176,l,0.04376016859896481,colour,0.5
114,22,0,1,7,43,343,472.56597955082543,473.5191233630758,"[7, 0, 247]",247,a,0.4274782824795693,colour,0.5
114,22,0,1,7,44,344,474.03708763886243,474.60718996380456,"[17, 0, 237]",237,a,0.046592311235144734,colour,0.5
114,22,0,1,7,45,345,475.1284708122257,475.69514510640875,"[95, 0, 159]",159,l,0.042034337762743235,colour,0.5
114,22,0,1,7,46,346,476.2079949050676,476.7351684693713,"[93, 0, 161]",161,l,0.00403573433868587,colour,0.5
114,22,0,1,7,47,347,477.2548601513263,477.89509138581343,"[15, 0, 239]",239,a,0.11703472165390849,colour,0.5
114,22,0,1,7,48,348,478.4110297206789,479.0151287855115,"[58, 0, 196]",196,l,0.0808048783801496,colour,0.5
114,22,0,1,7,49,349,479.5218066321686,481.2071438052226,"[44, 0, 210]",210,a,1.1620548020582646,colour,0.5
114,22,0,1,7,50,350,481.7248705921229,482.2632049487438,"[31, 0, 223]",223,a,0.01504686544649303,colour,0.5
114,22,0,1,8,1,351,486.7886487438809,487.4631283853669,"[39, 0, 215]",215,a,0.1510314615443349,colour,0.5
114,22,0,1,8,2,352,487.97620464512147,488.55114693706855,"[30, 0, 224]",224,a,0.052405076334252954,colour,0.5
114,22,0,1,8,3,353,489.0700139065739,490.02308997744694,"[91, 0, 163]",163,l,0.4297637674026191,colour,0.5
114,22,0,1,8,4,354,490.5409616995603,491.18311135540716,"[0, 0, 254]",254,a,0.1189728353638202,colour,0.5
114,22,0,1,8,5,355,491.6972576933913,492.23913862835616,"[85, 0, 169]",169,l,0.018669062294065952,colour,0.5
114,22,0,1,8,6,356,492.7597979886923,493.751072736457,"[11, 0, 243]",243,a,0.46969654597342014,colour,0.5
114,22,0,1,8,7,357,494.2581901147496,494.85507393069565,"[99, 0, 155]",155,l,0.07361562340520322,colour,0.5
114,22,0,1,8,8,358,495.370100119384,496.02305453130975,"[25, 0, 229]",229,a,0.12953301332890987,colour,0.5
114,22,0,1,8,9,359,496.54217474372126,497.0711265199352,"[35, 0, 219]",219,a,0.005942733958363533,colour,0.5
114,22,0,1,8,10,360,497.5887394857127,498.1271155900322,"[98, 0, 156]",156,l,0.01492359209805727,colour,0.5
114,22,0,1,8,11,361,498.6356114272494,499.25509330793284,"[71, 0, 183]",183,l,0.0960285805631429,colour,0.5
114,22,0,1,8,12,362,499.776316260919,500.6950210451614,"[42, 0, 212]",212,a,0.39379425602965057,colour,0.5
114,22,0,1,8,13,363,501.2153795075137,501.75109085347503,"[84, 0, 170]",170,l,0.0125065625179559,colour,0.5
114,22,0,1,8,14,364,502.2622573566623,502.791094917804,"[6, 0, 248]",248,a,0.005544556304812431,colour,0.5
114,22,0,1,8,15,365,503.3090784922242,503.9350615795702,"[64, 0, 190]",190,l,0.10267629800364375,colour,0.5
114,22,0,1,8,16,366,504.44969707378186,505.0390848291572,"[58, 0, 196]",196,l,0.06628537178039551,colour,0.5
114,22,0,1,8,17,367,505.56033417000435,507.0310539265629,"[83, 0, 171]",171,l,0.9473708258010447,colour,0.5
114,22,0,1,8,18,368,507.5446189485956,508.29505877546035,"[49, 0, 205]",205,a,0.22716336348094046,colour,0.5
114,22,0,1,8,19,369,508.81030591158196,509.8790933834389,"[9, 0, 245]",245,a,0.5431010681204498,colour,0.5
114,22,0,1,8,20,370,510.3907187166624,510.9430857868865,"[96, 0, 158]",158,l,0.02887596096843481,colour,0.5
114,22,0,1,8,21,371,511.45325625501573,512.0950297885574,"[36, 0, 218]",218,a,0.11847855942323804,colour,0.5
114,22,0,1,8,22,372,512.6094939596951,513.1671468298882,"[89, 0, 165]",165,l,0.034306302201002836,colour,0.5
114,22,0,1,8,23,373,513.6876139936503,514.3910991714802,"[38, 0, 216]",216,a,0.18019965616986156,colour,0.5
114,22,0,1,8,24,374,514.9063400060404,515.439710334409,"[27, 0, 227]",227,a,0.008611824596300721,colour,0.5
114,22,0,1,8,25,375,515.9553836113773,516.5190532584675,"[31, 0, 223]",223,a,0.041198991471901536,colour,0.5
114,22,0,1,8,26,376,517.0326734189875,518.1430572725367,"[66, 0, 188]",188,l,0.5871353531256318,colour,0.5
114,22,0,1,8,27,377,518.6576833142899,519.335043935338,"[61, 0, 193]",193,l,0.1539801824837923,colour,0.5
114,22,0,1,8,28,378,519.8452726926189,520.8470418464858,"[15, 0, 239]",239,a,0.47680230578407645,colour,0.5
114,22,0,1,8,29,379,521.3624618805479,521.9830914267804,"[40, 0, 214]",214,a,0.09734205505810678,colour,0.5
114,22,0,1,8,30,380,522.5031111822464,523.3750302768312,"[5, 0, 249]",249,a,0.3492397009395063,colour,0.5
114,22,0,1,8,31,381,523.893656606786,524.4549927196931,"[62, 0, 192]",192,l,0.03792219748720527,colour,0.5
114,22,0,1,8,32,382,524.971797514474,525.631124739768,"[22, 0, 232]",232,a,0.13506929902359843,colour,0.5
114,22,0,1,8,33,383,526.1453088871203,526.7270205945242,"[32, 0, 222]",222,a,0.05827770591713488,colour,0.5
114,22,0,1,8,34,384,527.2389940870926,527.831054084003,"[7, 0, 247]",247,a,0.06865001982077956,colour,0.5
114,22,0,1,8,35,385,528.3484252286144,528.9110570929479,"[75, 0, 179]",179,l,0.03942156699486077,colour,0.5
114,22,0,1,8,36,386,529.4279012724292,529.9590176234487,"[87, 0, 167]",167,l,0.007825315464287996,colour,0.5
114,22,0,1,8,37,387,530.4746987770777,531.0550028809812,"[23, 0, 231]",231,a,0.05706111737526953,colour,0.5
114,22,0,1,8,38,388,531.568490709411,532.1830132878385,"[24, 0, 230]",230,a,0.09116419521160424,colour,0.5
114,22,0,1,8,39,389,532.6934665371664,533.63900913205,"[13, 0, 241]",241,a,0.4221775163896382,colour,0.5
114,22,0,1,8,40,390,534.1466621400323,535.1030043712817,"[86, 0, 168]",168,l,0.43309570010751486,colour,0.5
114,22,0,1,8,41,391,535.6167261437513,537.7989895499777,"[29, 0, 225]",225,a,1.6594843696802855,colour,0.5
114,22,0,1,8,42,392,538.3198241714854,538.8470564186573,"[95, 0, 159]",159,l,0.0038344792556017637,colour,0.5
114,22,0,1,8,43,393,539.3685916913673,539.9670008707326,"[53, 0, 201]",201,l,0.07507600239478052,colour,0.5
114,22,0,1,8,44,394,540.4779925066978,541.0630282696802,"[45, 0, 209]",209,a,0.06170219206251204,colour,0.5
114,22,0,1,8,45,395,541.5717667157296,542.6229618990328,"[54, 0, 200]",200,a,0.5280262397136539,colour,0.5
114,22,0,1,8,46,396,543.1341280085035,543.7110328320414,"[70, 0, 184]",184,l,0.05362639110535383,colour,0.5
114,22,0,1,8,47,397,544.2278317192104,544.8229936428834,"[79, 0, 175]",175,a,0.07177990977652371,colour,0.5
114,22,0,1,8,48,398,545.3390501313843,546.0390407184605,"[69, 0, 185]",185,l,0.1764923888258636,colour,0.5
114,22,0,1,8,49,399,546.5579313188791,547.1909764492884,"[55, 0, 199]",199,a,0.1099608635995537,colour,0.5
114,22,0,1,8,50,400,547.6985932234675,549.3509738026187,"[97, 0, 157]",157,l,1.1295022936537862,colour,0.5
114,22,0,1,9,1,401,553.7928077518009,554.4789952372666,"[68, 0, 186]",186,l,0.16205519600771368,colour,0.5
114,22,0,1,9,2,402,554.9966578274034,556.0309515267145,"[30, 0, 224]",224,a,0.5094552447553724,colour,0.5
114,22,0,1,9,3,403,556.5452290151734,557.5109498882666,"[77, 0, 177]",177,l,0.44257122790440917,colour,0.5
114,22,0,1,9,4,404,558.0294840584975,558.5989806491416,"[51, 0, 203]",203,a,0.04601690312847495,colour,0.5
114,22,0,1,9,5,405,559.1076029108372,559.6869810840581,"[22, 0, 232]",232,a,0.05606075003743172,colour,0.5
114,22,0,1,9,6,406,560.2014653412625,561.1589245183859,"[79, 0, 175]",175,l,0.4341196983586997,colour,0.5
114,22,0,1,9,7,407,561.6700910215732,562.3670289125293,"[62, 0, 192]",192,l,0.17353224637918174,colour,0.5
114,22,0,1,9,8,408,562.8733345752116,563.7989871869795,"[46, 0, 208]",208,a,0.4010863045696169,colour,0.5
114,22,0,1,9,9,409,564.3121095267124,565.0389580109622,"[42, 0, 212]",212,a,0.20349088869988918,colour,0.5
114,22,0,1,9,10,410,565.5465641513001,566.1029756204225,"[64, 0, 190]",190,l,0.033132642740383744,colour,0.5
114,22,0,1,9,11,411,566.6249523938168,567.2069634238724,"[56, 0, 198]",198,l,0.05904058460146189,colour,0.5
114,22,0,1,9,12,412,567.7183532374911,568.2552516337018,"[50, 0, 204]",204,a,0.013580185128375888,colour,0.5
114,22,0,1,9,13,413,568.7652708652895,569.6869487885851,"[34, 0, 220]",220,a,0.3985440321266651,colour,0.5
114,22,0,1,9,14,414,570.2027591236401,570.9189966234844,"[14, 0, 240]",240,a,0.19295749184675515,colour,0.5
114,22,0,1,9,15,415,571.4393558735028,572.0789569553453,"[0, 0, 254]",254,a,0.11679959599860013,colour,0.5
114,22,0,1,9,16,416,572.5957200026605,573.2470045099035,"[36, 0, 218]",218,a,0.1280671206768602,colour,0.5
114,22,0,1,9,17,417,573.7676402395591,574.3669347835239,"[58, 0, 196]",196,l,0.07609606208279729,colour,0.5
114,22,0,1,9,18,418,574.8770162425935,576.0149098073598,"[57, 0, 197]",197,l,0.6133914543315768,colour,0.5
114,22,0,1,9,19,419,576.5345266587101,577.142927697394,"[52, 0, 202]",202,l,0.08524391055107117,colour,0.5
114,22,0,1,9,20,420,577.6595064250287,578.246926134685,"[92, 0, 162]",162,l,0.06409086496569216,colour,0.5
114,22,0,1,9,21,421,578.7532656679396,579.7669439206365,"[13, 0, 241]",241,a,0.502800831804052,colour,0.5
114,22,0,1,9,22,422,580.2876182470936,580.8629181506112,"[5, 0, 249]",249,a,0.05188047420233488,colour,0.5
114,22,0,1,9,23,423,581.381340468768,581.9349394876044,"[96, 0, 158]",158,l,0.03023906028829515,colour,0.5
114,22,0,1,9,24,424,582.4438579210546,583.0309361666441,"[76, 0, 178]",178,l,0.06384274223819375,colour,0.5
114,22,0,1,9,25,425,583.5389881401788,584.0630385098048,"[98, 0, 156]",156,l,0.0006364542059600353,colour,0.5
114,22,0,1,9,26,426,584.5859703584574,585.1669420301914,"[4, 0, 250]",250,a,0.05760265467688441,colour,0.5
114,22,0,1,9,27,427,585.6797028200235,586.2789292286616,"[95, 0, 159]",159,l,0.07610078807920218,colour,0.5
114,22,0,1,9,28,428,586.7893297025003,587.3589436591137,"[47, 0, 207]",207,a,0.04618192417547107,colour,0.5
114,22,0,1,9,29,429,587.8675348069519,589.1108934895601,"[65, 0, 189]",189,l,0.7201562621630728,colour,0.5
114,22,0,1,9,30,430,589.618916318519,590.3508942457847,"[16, 0, 238]",238,a,0.20854628877714276,colour,0.5
114,22,0,1,9,31,431,590.8689491059631,591.5669314751867,"[24, 0, 230]",230,a,0.1747708902694285,colour,0.5
114,22,0,1,9,32,432,592.0876495183911,592.6788946490269,"[11, 0, 243]",243,a,0.06788359652273357,colour,0.5
114,22,0,1,9,33,433,593.1992263300344,594.1748921945691,"[28, 0, 226]",226,a,0.45242681656964123,colour,0.5
114,22,0,1,9,34,434,594.683526665438,595.2949311695993,"[18, 0, 236]",236,a,0.08823674218729138,colour,0.5
114,22,0,1,9,35,435,595.8085560561158,596.3589090008754,"[71, 0, 183]",183,l,0.027039853623136878,colour,0.5
114,22,0,1,9,36,436,596.8710739023518,597.3989402404986,"[87, 0, 167]",167,l,0.0045315856114029884,colour,0.5
114,22,0,1,9,37,437,597.9180301267188,598.5349228673149,"[19, 0, 235]",235,a,0.0923319470603019,colour,0.5
114,22,0,1,9,38,438,599.0442898906767,599.662921064999,"[27, 0, 227]",227,a,0.09526136959902942,colour,0.5
114,22,0,1,9,39,439,600.169248389313,600.7909417119808,"[88, 0, 166]",166,l,0.09829279803670943,colour,0.5
114,22,0,1,9,40,440,601.3098705154844,601.8395780811552,"[72, 0, 182]",182,l,0.006292074918746948,colour,0.5
114,22,0,1,9,41,441,602.374450536212,602.9029308797326,"[45, 0, 209]",209,a,0.0050967540591955185,colour,0.5
114,22,0,1,9,42,442,603.4213476839941,604.0308869360015,"[60, 0, 194]",194,l,0.08615684416145086,colour,0.5
114,22,0,1,9,43,443,604.5463573823217,605.6308939463925,"[53, 0, 201]",201,a,0.5612384390551597,colour,0.5
114,22,0,1,9,44,444,606.1393259807955,606.7188991073053,"[20, 0, 234]",234,a,0.05613479274325073,colour,0.5
114,22,0,1,9,45,445,607.233118700562,608.1429158819374,"[82, 0, 172]",172,l,0.3869338617660105,colour,0.5
114,22,0,1,9,46,446,608.657446219353,609.3908545933664,"[55, 0, 199]",199,l,0.21014057518914342,colour,0.5
114,22,0,1,9,47,447,609.9074262317736,611.1588910415303,"[31, 0, 223]",223,a,0.7285660442430526,colour,0.5
114,22,0,1,9,48,448,611.6729786964133,613.1028397439513,"[17, 0, 237]",237,a,0.9063994768075645,colour,0.5
114,22,0,1,9,49,449,613.6105049611069,614.8948712262791,"[8, 0, 246]",246,a,0.7607440056744963,colour,0.5
114,22,0,1,9,50,450,615.4073949209414,616.0308763021603,"[26, 0, 228]",228,a,0.10017971158958972,colour,0.5
114,22,0,1,10,1,451,620.4862514459528,621.2308607846498,"[28, 0, 226]",226,a,0.22049871063791215,colour,0.5
114,22,0,1,10,2,452,621.7370723183267,622.4948912335094,"[43, 0, 211]",211,a,0.23452079039998353,colour,0.5
114,22,0,1,10,3,453,623.0026198599953,623.6148983070161,"[18, 0, 236]",236,a,0.0888724084943533,colour,0.5
114,22,0,1,10,4,454,624.1276563399006,624.7028916527051,"[19, 0, 235]",235,a,0.05192222190089524,colour,0.5
114,22,0,1,10,5,455,625.2214002229739,625.7828615787439,"[70, 0, 184]",184,l,0.03611050848849118,colour,0.5
114,22,0,1,10,6,456,626.301581250038,626.9508914100006,"[48, 0, 206]",206,l,0.12595689669251442,colour,0.5
114,22,0,1,10,7,457,627.4579501051921,628.0148586074356,"[11, 0, 243]",243,a,0.03390773059800267,colour,0.5
114,22,0,1,10,8,458,628.5361465450842,629.078879367793,"[37, 0, 217]",217,a,0.0175599935464561,colour,0.5
114,22,0,1,10,9,459,629.585061756894,630.606823293725,"[7, 0, 247]",247,a,0.49834722746163607,colour,0.5
114,22,0,1,10,10,460,631.1162891723216,631.6708539002575,"[49, 0, 205]",205,a,0.034517797408625484,colour,0.5
114,22,0,1,10,11,461,632.1940181176178,633.1908441171981,"[97, 0, 157]",157,l,0.4734719486441463,colour,0.5
114,22,0,1,10,12,462,633.7096216839273,634.2548688158859,"[59, 0, 195]",195,a,0.01928976271301508,colour,0.5
114,22,0,1,10,13,463,634.7747570269275,635.3349084525835,"[17, 0, 237]",237,a,0.04148846794851124,colour,0.5
114,22,0,1,10,14,464,635.8515584662091,636.3908494734205,"[64, 0, 190]",190,l,0.01592592871747911,colour,0.5
114,22,0,1,10,15,465,636.8984315891284,637.4788802342955,"[99, 0, 155]",155,l,0.05645656445994973,colour,0.5
114,22,0,1,10,16,466,637.9930765905883,638.5588064433541,"[76, 0, 178]",178,l,0.040943779749795794,colour,0.5
114,22,0,1,10,17,467,639.072590837488,639.5988723416813,"[15, 0, 239]",239,a,0.0028971272986382246,colour,0.5
114,22,0,1,10,18,468,640.1195935357828,641.1908988617361,"[79, 0, 175]",175,l,0.5480276811867952,colour,0.5
114,22,0,1,10,19,469,641.697699588025,642.4468227894977,"[14, 0, 240]",240,a,0.22591802407987416,colour,0.5
114,22,0,1,10,20,470,642.9633511048742,643.6227779730689,"[84, 0, 170]",170,l,0.13471877668052912,colour,0.5
114,22,0,1,10,21,471,644.1366501946468,644.798828467261,"[22, 0, 232]",232,a,0.13871906488202512,colour,0.5
114,22,0,1,10,22,472,645.3085298654623,646.0067958033178,"[93, 0, 161]",161,l,0.17505445890128613,colour,0.5
114,22,0,1,10,23,473,646.5272834470961,647.4067687066272,"[62, 0, 192]",192,a,0.35628992854617536,colour,0.5
114,22,0,1,10,24,474,647.9178895240184,648.7988639133982,"[69, 0, 185]",185,l,0.3576561785303056,colour,0.5
114,22,0,1,10,25,475,649.3084822101519,649.9747883770615,"[9, 0, 245]",245,a,0.14316558022983372,colour,0.5
114,22,0,1,10,26,476,650.4817556999624,651.1187971802428,"[10, 0, 244]",244,a,0.11382645671255887,colour,0.5
114,22,0,1,10,27,477,651.638011521427,652.2708550030366,"[12, 0, 242]",242,a,0.10946146748028696,colour,0.5
114,22,0,1,10,28,478,652.7785777216777,653.4868047987111,"[4, 0, 250]",250,a,0.18499551201239228,colour,0.5
114,22,0,1,10,29,479,653.9973356353585,654.8707871828228,"[75, 0, 179]",179,l,0.3503649174235761,colour,0.5
114,22,0,1,10,30,480,655.3892126516439,656.0787824818399,"[5, 0, 249]",249,a,0.16606454248540103,colour,0.5
114,22,0,1,10,31,481,656.5925105561037,657.5027827150188,"[60, 0, 194]",194,l,0.3869480404537171,colour,0.5
114,22,0,1,10,32,482,658.0142961961683,658.686771558132,"[24, 0, 230]",230,a,0.14912091731093824,colour,0.5
114,22,0,1,10,33,483,659.2018391008023,659.8627574616112,"[39, 0, 215]",215,a,0.1376442606560886,colour,0.5
114,22,0,1,10,34,484,660.3736959283706,660.9667960710358,"[8, 0, 246]",246,a,0.06983982701785862,colour,0.5
114,22,0,1,10,35,485,661.4846630671527,662.070805929834,"[26, 0, 228]",228,a,0.06306489743292332,colour,0.5
114,22,0,1,10,36,486,662.5780816338956,663.6787808276713,"[0, 0, 254]",254,a,0.577342779841274,colour,0.5
114,22,0,1,10,37,487,664.1874842215329,665.1027810608502,"[90, 0, 164]",164,l,0.39175098575651646,colour,0.5
114,22,0,1,10,38,488,665.6109897848219,666.3348222004715,"[52, 0, 202]",202,a,0.2005882477387786,colour,0.5
114,22,0,1,10,39,489,666.8453227109276,667.5508338299114,"[54, 0, 200]",200,a,0.1822685261722654,colour,0.5
114,22,0,1,10,40,490,668.0639518373646,668.6868857734371,"[47, 0, 207]",207,a,0.09956491901539266,colour,0.5
114,22,0,1,10,41,491,669.2045849913266,669.7908141061198,"[74, 0, 180]",180,l,0.06289278692565858,colour,0.5
114,22,0,1,10,42,492,670.2983532927465,670.9108034565579,"[53, 0, 201]",201,a,0.08916030963882804,colour,0.5
114,22,0,1,10,43,493,671.4233338464983,672.0307561792433,"[1, 0, 253]",253,a,0.08410884789191186,colour,0.5
114,22,0,1,10,44,494,672.5484132557176,673.0868366213981,"[51, 0, 203]",203,a,0.015219763852655888,colour,0.5
114,22,0,1,10,45,495,673.5951906742994,674.1587787955068,"[94, 0, 160]",160,l,0.04022698104381561,colour,0.5
114,22,0,1,10,46,496,674.6733370958827,675.2788169826381,"[56, 0, 198]",198,a,0.08224398945458233,colour,0.5
114,22,0,1,10,47,497,675.7998595547397,676.3267893283628,"[82, 0, 172]",172,l,0.004051094176247716,colour,0.5
114,22,0,1,10,48,498,676.846525514964,677.599105498055,"[89, 0, 165]",165,l,0.22957054688595235,colour,0.5
114,22,0,1,10,49,499,678.1122286256868,678.6395290079527,"[85, 0, 169]",169,l,0.004025888163596392,colour,0.5
114,22,0,1,10,50,500,679.159076936543,679.750738755567,"[61, 0, 193]",193,a,0.06867443840019405,colour,0.5
114,22,0,1,11,1,501,684.2050414581317,684.7347620208748,"[45, 0, 209]",209,a,0.005483904154971242,colour,0.5
114,22,0,1,11,2,502,685.2548640898895,686.2387290291954,"[70, 0, 184]",184,l,0.46062274067662656,colour,0.5
114,22,0,1,11,3,503,686.7561131706461,687.5907626699191,"[52, 0, 202]",202,a,0.3117790906690061,colour,0.5
114,22,0,1,11,4,504,688.0998177677393,688.7347659592051,"[42, 0, 212]",212,a,0.11206045374274254,colour,0.5
114,22,0,1,11,5,505,689.2560720138717,689.7987548182718,"[65, 0, 189]",189,l,0.01918381848372519,colour,0.5
114,22,0,1,11,6,506,690.3186851704959,690.8547738203779,"[66, 0, 188]",188,l,0.012765318853780627,colour,0.5
114,22,0,1,11,7,507,691.3686105958186,692.2067424766719,"[37, 0, 217]",217,a,0.3147931897547096,colour,0.5
114,22,0,1,11,8,508,692.7257658028975,693.7187325106934,"[49, 0, 205]",205,a,0.4697650750167668,colour,0.5
114,22,0,1,11,9,509,694.2257463075221,694.7987493043765,"[82, 0, 172]",172,l,0.04957884130999446,colour,0.5
114,22,0,1,11,10,510,695.319507913664,695.9427029693034,"[90, 0, 164]",164,l,0.09983509709127247,colour,0.5
114,22,0,1,11,11,511,696.4601698182523,697.0787308881991,"[51, 0, 203]",203,a,0.09527515433728695,colour,0.5
114,22,0,1,11,12,512,697.586576486472,698.1427654330619,"[23, 0, 231]",231,a,0.03200663859024644,colour,0.5
114,22,0,1,11,13,513,698.649961974239,699.2387369060889,"[6, 0, 248]",248,a,0.0656067761592567,colour,0.5
114,22,0,1,11,14,514,699.7593234048691,700.3667288022116,"[21, 0, 233]",233,a,0.08429631823673844,colour,0.5
114,22,0,1,11,15,515,700.8840578054078,701.4787128500175,"[27, 0, 227]",227,a,0.07021161704324186,colour,0.5
114,22,0,1,11,16,516,701.994635431096,702.550740488572,"[28, 0, 226]",226,a,0.032735252752900124,colour,0.5
114,22,0,1,11,17,517,703.0573037259746,704.1507199297193,"[1, 0, 253]",253,a,0.570305549306795,colour,0.5
114,22,0,1,11,18,518,704.6665519264061,705.2387416323181,"[67, 0, 187]",187,l,0.04902588250115514,colour,0.5
114,22,0,1,11,19,519,705.7447022863198,706.7347868331708,"[0, 0, 254]",254,a,0.46440247539430857,colour,0.5
114,22,0,1,11,20,520,707.2469970267266,708.5027504197787,"[25, 0, 229]",229,a,0.7324178528506309,colour,0.5
114,22,0,1,11,21,521,709.0126345620956,710.2707222769968,"[96, 0, 158]",158,l,0.7348770236130804,colour,0.5
114,22,0,1,11,22,522,710.7919570456725,711.5107013718225,"[7, 0, 247]",247,a,0.19551079208031297,colour,0.5
114,22,0,1,11,23,523,712.0263332948089,712.5907146206591,"[89, 0, 165]",165,l,0.037123084999620914,colour,0.5
114,22,0,1,11,24,524,713.1085812228266,713.7587046737317,"[38, 0, 216]",216,a,0.12675482756458223,colour,0.5
114,22,0,1,11,25,525,714.2648535859771,714.9027079632506,"[10, 0, 244]",244,a,0.1145692493300885,colour,0.5
114,22,0,1,11,26,526,715.4212161395699,716.4867102757562,"[80, 0, 174]",174,l,0.5422015250660479,colour,0.5
114,22,0,1,11,27,527,717.0015552956611,717.5987061387859,"[64, 0, 190]",190,l,0.0738353889901191,colour,0.5
114,22,0,1,11,28,528,718.1109344495926,718.8547336482443,"[53, 0, 201]",201,l,0.22049083397723734,colour,0.5
114,22,0,1,11,29,529,719.3609341541305,719.8946809989866,"[62, 0, 192]",192,l,0.010737408651039004,colour,0.5
114,22,0,1,11,30,530,720.4077891602647,720.9826979751233,"[14, 0, 240]",240,a,0.05165046826004982,colour,0.5
114,22,0,1,11,31,531,721.5029260746669,722.1747263856232,"[41, 0, 213]",213,a,0.14840214932337403,colour,0.5
114,22,0,1,11,32,532,722.6903913917486,723.3347198006231,"[30, 0, 224]",224,a,0.1213882896117866,colour,0.5
114,22,0,1,11,33,533,723.8466133426409,724.8227199201938,"[88, 0, 166]",166,l,0.45269148075021803,colour,0.5
114,22,0,1,11,34,534,725.3324421923608,726.1906546773389,"[97, 0, 157]",157,l,0.3350143968127668,colour,0.5
114,22,0,1,11,35,535,726.7075579336379,727.5827097117435,"[63, 0, 191]",191,l,0.3519812591839582,colour,0.5
114,22,0,1,11,36,536,728.0980805153958,728.8946739097591,"[15, 0, 239]",239,a,0.273283060407266,colour,0.5
114,22,0,1,11,37,537,729.4106177582871,730.1666364062112,"[74, 0, 180]",180,l,0.23275399976409972,colour,0.5
114,22,0,1,11,38,538,730.6776890880428,731.8066399979871,"[99, 0, 155]",155,l,0.6056921696290374,colour,0.5
114,22,0,1,11,39,539,732.3183137741871,733.0786245497875,"[35, 0, 219]",219,a,0.23744194209575653,colour,0.5
114,22,0,1,11,40,540,733.5995903220028,734.3426857187878,"[4, 0, 250]",250,a,0.21989533957093954,colour,0.5
114,22,0,1,11,41,541,734.8495077127591,735.4947230615653,"[29, 0, 225]",225,a,0.1220558574423194,colour,0.5
114,22,0,1,11,42,542,736.0049061328173,736.6626508871559,"[79, 0, 175]",175,l,0.1320941906888038,colour,0.5
114,22,0,1,11,43,543,737.1790933441371,737.7586715908255,"[81, 0, 173]",173,l,0.056185992900282145,colour,0.5
114,22,0,1,11,44,544,738.2727092273999,738.9426336523611,"[69, 0, 185]",185,l,0.14643528498709202,colour,0.5
114,22,0,1,11,45,545,739.4603261749726,740.1746921211015,"[5, 0, 249]",249,a,0.19105285522527993,colour,0.5
114,22,0,1,11,46,546,740.6962766244542,741.3506579385139,"[50, 0, 204]",204,a,0.13104695547372103,colour,0.5
114,22,0,1,11,47,547,741.8681429044809,742.5346306338906,"[55, 0, 199]",199,a,0.14428646420128644,colour,0.5
114,22,0,1,11,48,548,743.0573612274602,743.6626012625638,"[22, 0, 232]",232,a,0.08485912345349789,colour,0.5
114,22,0,1,11,49,549,744.1794726173393,745.1106347329915,"[2, 0, 252]",252,a,0.407437062356621,colour,0.5
114,22,0,1,11,50,550,745.6197697815951,746.414673972642,"[72, 0, 182]",182,l,0.27284707338549197,colour,0.5
114,22,0,1,12,1,551,751.1672311127186,753.5666388480458,"[0, 0, 254]",254,l,1.8753660302609205,colour,0.5
114,22,0,1,12,2,552,754.0760184745304,754.6386215880048,"[15, 0, 239]",239,a,0.03929159790277481,colour,0.5
114,22,0,1,12,3,553,755.1541664714459,755.7188837474678,"[89, 0, 165]",165,l,0.042683789040893316,colour,0.5
114,22,0,1,12,4,554,756.2318721797783,756.8546552730259,"[38, 0, 216]",216,a,0.10021240101195872,colour,0.5
114,22,0,1,12,5,555,757.371758208843,758.046588372672,"[45, 0, 209]",209,a,0.15160805126652122,colour,0.5
114,22,0,1,12,6,556,758.5614357555751,759.1746621888597,"[62, 0, 192]",192,a,0.08991255448199809,colour,0.5
114,22,0,1,12,7,557,759.6865025616717,760.7506170573179,"[4, 0, 250]",250,a,0.5407446909230202,colour,0.5
114,22,0,1,12,8,558,761.264596011024,762.2145772443619,"[75, 0, 179]",179,l,0.4267441544216126,colour,0.5
114,22,0,1,12,9,559,762.733218934387,763.4225477310829,"[13, 0, 241]",241,a,0.16600664728321135,colour,0.5
114,22,0,1,12,10,560,763.9364195587113,764.8225962528959,"[86, 0, 168]",168,l,0.36279625562019646,colour,0.5
114,22,0,1,12,11,561,765.3426640571561,765.9265915392898,"[51, 0, 203]",203,a,0.060526169603690505,colour,0.5
114,22,0,1,12,12,562,766.4378159379121,767.1667797658592,"[18, 0, 236]",236,a,0.205790946027264,colour,0.5
114,22,0,1,12,13,563,767.6783720161766,768.3186024629977,"[78, 0, 176]",176,l,0.11685276520438492,colour,0.5
114,22,0,1,12,14,564,768.8347278744914,769.7266007552389,"[71, 0, 183]",183,l,0.36862359289079905,colour,0.5
114,22,0,1,12,15,565,770.240962526761,771.1425964734517,"[92, 0, 162]",162,l,0.37840198795311153,colour,0.5
114,22,0,1,12,16,566,771.6628300866578,772.2306205388159,"[21, 0, 233]",233,a,0.04283423791639507,colour,0.5
114,22,0,1,12,17,567,772.7426326284185,773.3586238566786,"[42, 0, 212]",212,a,0.09203813853673637,colour,0.5
114,22,0,1,12,18,568,773.8680471999105,774.4465860885102,"[34, 0, 220]",220,a,0.05523840058594942,colour,0.5
114,22,0,1,12,19,569,774.9618084123358,775.5106068488676,"[10, 0, 244]",244,a,0.02563697611913085,colour,0.5
114,22,0,1,12,20,570,776.0241458772216,776.5905562948901,"[32, 0, 222]",222,a,0.0431036283262074,colour,0.5
114,22,0,1,12,21,571,777.1022371603176,777.6866305614822,"[54, 0, 200]",200,a,0.060966882621869445,colour,0.5
114,22,0,1,12,22,572,778.1960397262592,779.1585574543569,"[90, 0, 164]",164,l,0.43947087647393346,colour,0.5
114,22,0,1,12,23,573,779.6661864377093,780.4865818822291,"[25, 0, 229]",229,a,0.297241467051208,colour,0.5
114,22,0,1,12,24,574,780.9943175977096,781.5745748339687,"[3, 0, 251]",251,a,0.05689097614958882,colour,0.5
114,22,0,1,12,25,575,782.0881040161476,782.6706014452502,"[29, 0, 225]",225,a,0.05910163070075214,colour,0.5
114,22,0,1,12,26,576,783.1818711361848,783.7745707379654,"[72, 0, 182]",182,l,0.06949836295098066,colour,0.5
114,22,0,1,12,27,577,784.2912302038167,785.2785834323149,"[77, 0, 177]",177,l,0.46401532529853284,colour,0.5
114,22,0,1,12,28,578,785.7929188162088,786.7265397091396,"[24, 0, 230]",230,a,0.4102829897310585,colour,0.5
114,22,0,1,12,29,579,787.2460191084538,787.822548203636,"[84, 0, 170]",170,l,0.053497209679335356,colour,0.5
114,22,0,1,12,30,580,788.3383077327162,788.9665806377307,"[5, 0, 249]",249,a,0.10476998053491116,colour,0.5
114,22,0,1,12,31,581,789.4789322218858,790.4706303535495,"[58, 0, 196]",196,l,0.4683763759676367,colour,0.5
114,22,0,1,12,32,582,790.9817472323775,791.8705512692686,"[76, 0, 178]",178,l,0.36611558496952057,colour,0.5
114,22,0,1,12,33,583,792.3880496260244,793.2546837085392,"[70, 0, 184]",184,l,0.34323907154612243,colour,0.5
114,22,0,1,12,34,584,793.7629570232239,794.5265548329335,"[73, 0, 181]",181,l,0.2403567924629897,colour,0.5
114,22,0,1,12,35,585,795.0442453862634,795.6145985906478,"[11, 0, 243]",243,a,0.046934956684708595,colour,0.5
114,22,0,1,12,36,586,796.122314614011,796.6945602458436,"[82, 0, 172]",172,l,0.04881911352276802,colour,0.5
114,22,0,1,12,37,587,797.2161538077053,797.7585849447642,"[59, 0, 195]",195,a,0.01936065498739481,colour,0.5
114,22,0,1,12,38,588,798.2784975741524,799.262532654684,"[96, 0, 158]",158,l,0.46059635281562805,colour,0.5
114,22,0,1,12,39,589,799.7801058420446,800.3905351846479,"[85, 0, 169]",169,l,0.08709655934944749,colour,0.5
114,22,0,1,12,40,590,800.905631871894,801.5025141125079,"[12, 0, 242]",242,a,0.07344705751165748,colour,0.5
114,22,0,1,12,41,591,802.0149456472136,802.5985749883112,"[83, 0, 171]",171,l,0.06041628681123257,colour,0.5
114,22,0,1,12,42,592,803.1087178871967,804.4625037463848,"[1, 0, 253]",253,a,0.8303821836598217,colour,0.5
114,22,0,1,12,43,593,804.9836888904683,805.6625394287985,"[64, 0, 190]",190,a,0.15345951868221164,colour,0.5
114,22,0,1,12,44,594,806.1731541545596,806.718519046437,"[47, 0, 207]",207,l,0.022144354414194822,colour,0.5
114,22,0,1,12,45,595,807.2355085548479,807.7825299608521,"[43, 0, 211]",211,a,0.02354486915282905,colour,0.5
114,22,0,1,12,46,596,808.2981024130713,808.83854659996,"[36, 0, 218]",218,a,0.017096043564379215,colour,0.5
114,22,0,1,12,47,597,809.3463965307456,809.8865429703146,"[39, 0, 215]",215,a,0.01680538570508361,colour,0.5
114,22,0,1,12,48,598,810.3933098260313,810.9185889933724,"[37, 0, 217]",217,a,0.0019444148056209087,colour,0.5
114,22,0,1,12,49,599,811.4403727825265,811.9985419840086,"[67, 0, 187]",187,a,0.03504161164164543,colour,0.5
114,22,0,1,12,50,600,812.5182809275575,813.5025290786289,"[50, 0, 204]",204,a,0.4610847213771194,colour,0.5
114,22,0,1,13,1,601,817.986185870599,818.7664913921617,"[13, 0, 241]",241,a,0.25456634256988764,colour,0.5
114,22,0,1,13,2,602,819.2855485891923,819.9984821195249,"[72, 0, 182]",182,l,0.18955348548479378,colour,0.5
114,22,0,1,13,3,603,820.5199323215056,821.7104857808445,"[10, 0, 244]",244,a,0.6672151621896774,colour,0.5
114,22,0,1,13,4,604,822.2230149894021,822.8305554755498,"[89, 0, 165]",165,l,0.0841848598793149,colour,0.5
114,22,0,1,13,5,605,823.3480215370655,823.942535978742,"[28, 0, 226]",226,a,0.07128090760670602,colour,0.5
114,22,0,1,13,6,606,824.4574310169555,825.398476684466,"[11, 0, 243]",243,a,0.417767628794536,colour,0.5
114,22,0,1,13,7,607,825.9127502345946,826.4545531882904,"[79, 0, 175]",175,l,0.018337444635108113,colour,0.5
114,22,0,1,13,8,608,826.9753106159624,827.5666317588184,"[25, 0, 229]",229,a,0.06824238994158804,colour,0.5
114,22,0,1,13,9,609,828.0846708652098,828.6385258836672,"[90, 0, 164]",164,l,0.03048718278296292,colour,0.5
114,22,0,1,13,10,610,829.148683354957,829.7025151364505,"[67, 0, 187]",187,l,0.030578555073589087,colour,0.5
114,22,0,1,13,11,611,830.2104186301585,831.3344496225473,"[92, 0, 162]",162,l,0.6007143568713218,colour,0.5
114,22,0,1,13,12,612,831.8510216546711,832.7744982703589,"[91, 0, 163]",163,l,0.4002166937571019,colour,0.5
114,22,0,1,13,13,613,833.2885055809747,833.8545229409356,"[27, 0, 227]",227,a,0.04262668150477111,colour,0.5
114,22,0,1,13,14,614,834.3665752026718,834.9024720496964,"[98, 0, 156]",156,l,0.012634956045076251,colour,0.5
114,22,0,1,13,15,615,835.4134853470605,835.9505003215745,"[6, 0, 248]",248,a,0.013692431151866913,colour,0.5
114,22,0,1,13,16,616,836.462929493282,837.4865401345305,"[99, 0, 155]",155,l,0.5002305964007974,colour,0.5
114,22,0,1,13,17,617,837.9941903855652,838.5185255056713,"[93, 0, 161]",161,l,0.0021244024392217398,colour,0.5
114,22,0,1,13,18,618,839.0283182759304,840.1825095596723,"[1, 0, 253]",253,a,0.635073040612042,colour,0.5
114,22,0,1,13,19,619,840.6886249948293,841.2704828190617,"[57, 0, 197]",197,a,0.0585518223233521,colour,0.5
114,22,0,1,13,20,620,841.7823822686914,842.5744736157358,"[8, 0, 246]",246,a,0.2690606431569904,colour,0.5
114,22,0,1,13,21,621,843.0949588962831,843.9904224660713,"[83, 0, 171]",171,l,0.3722816293593496,colour,0.5
114,22,0,1,13,22,622,844.5025444384664,845.1905487331096,"[18, 0, 236]",236,a,0.16479596658609807,colour,0.5
114,22,0,1,13,23,623,845.7120524980128,846.4304829293396,"[74, 0, 180]",180,l,0.19520083558745682,colour,0.5
114,22,0,1,13,24,624,846.9463417073712,847.5264827592764,"[58, 0, 196]",196,a,0.06386243458837271,colour,0.5
114,22,0,1,13,25,625,848.0330526921898,848.7424546102993,"[96, 0, 158]",158,l,0.1832933120895177,colour,0.5
114,22,0,1,13,26,626,849.254480090458,849.8944671407808,"[7, 0, 247]",247,a,0.11661409470252693,colour,0.5
114,22,0,1,13,27,627,850.3998027620837,851.0624504985753,"[50, 0, 204]",204,a,0.1394850944634527,colour,0.5
114,22,0,1,13,28,628,851.5717037005816,852.5345936124213,"[84, 0, 170]",170,l,0.4396421993151307,colour,0.5
114,22,0,1,13,29,629,853.0283462388907,853.7104751470033,"[52, 0, 202]",202,a,0.16611692402511835,colour,0.5
114,22,0,1,13,30,630,854.2242012517527,854.8304479557555,"[17, 0, 237]",237,a,0.08295566821470857,colour,0.5
114,22,0,1,13,31,631,855.3492857809179,855.9024610221386,"[59, 0, 195]",195,a,0.025189173873513937,colour,0.5
114,22,0,1,13,32,632,856.4166609230451,857.3344330810942,"[35, 0, 219]",219,a,0.3949683092068881,colour,0.5
114,22,0,1,13,33,633,857.8506593168713,858.5185188101605,"[16, 0, 238]",238,a,0.14486581087112427,colour,0.5
114,22,0,1,13,34,634,859.0381080924999,859.6624409675132,"[70, 0, 184]",184,l,0.1009303811006248,colour,0.5
114,22,0,1,13,35,635,860.1786593263969,860.7984472247772,"[82, 0, 172]",172,l,0.09220434119924903,colour,0.5
114,22,0,1,13,36,636,861.30801392789,861.8704405988101,"[40, 0, 214]",214,a,0.03906238009221852,colour,0.5
114,22,0,1,13,37,637,862.3857810762711,862.9264564502519,"[43, 0, 211]",211,a,0.01732368627563119,colour,0.5
114,22,0,1,13,38,638,863.4461201692466,864.2704135023523,"[0, 0, 254]",254,a,0.3010720079764724,colour,0.5
114,22,0,1,13,39,639,864.7898621815257,865.3504401419777,"[75, 0, 179]",179,l,0.04853278794325888,colour,0.5
114,22,0,1,13,40,640,865.8567899153568,866.5024983584881,"[64, 0, 190]",190,l,0.1225138995796442,colour,0.5
114,22,0,1,13,41,641,867.0129220692907,867.6304303903598,"[38, 0, 216]",216,a,0.09408298414200544,colour,0.5
114,22,0,1,13,42,642,868.1380219585262,869.0064051086083,"[94, 0, 160]",160,l,0.3450338253751397,colour,0.5
114,22,0,1,13,43,643,869.5134307206608,870.0944185403641,"[46, 0, 208]",208,a,0.057602654909715056,colour,0.5
114,22,0,1,13,44,644,870.6082545281388,871.190425853245,"[31, 0, 223]",223,a,0.05895472620613873,colour,0.5
114,22,0,1,13,45,645,871.7019893527031,872.6144004864618,"[23, 0, 231]",231,a,0.38901927368715405,colour,0.5
114,22,0,1,13,46,646,873.123908900423,873.6944416984916,"[41, 0, 213]",213,a,0.04734455607831478,colour,0.5
114,22,0,1,13,47,647,874.2020218449179,874.8703811280429,"[36, 0, 218]",218,a,0.14513126271776855,colour,0.5
114,22,0,1,13,48,648,875.3909191840794,876.3503846097738,"[33, 0, 221]",221,a,0.4360810487996787,colour,0.5
114,22,0,1,13,49,649,876.8598768759985,877.6784054930322,"[30, 0, 224]",224,a,0.2954282024875283,colour,0.5
114,22,0,1,13,50,650,878.1878445900511,879.2864067784976,"[65, 0, 189]",189,l,0.5752404327504337,colour,0.5
114,22,0,1,14,1,651,883.8143573997077,884.6464031867217,"[3, 0, 251]",251,a,0.30800565727986395,colour,0.5
114,22,0,1,14,2,652,885.158870561514,885.7503677532077,"[56, 0, 198]",198,a,0.0682061561383307,colour,0.5
114,22,0,1,14,3,653,886.2682434138842,887.1344588384964,"[70, 0, 184]",184,l,0.3428251401055604,colour,0.5
114,22,0,1,14,4,654,887.6451519397087,888.2943541859277,"[40, 0, 214]",214,a,0.1266102863010019,colour,0.5
114,22,0,1,14,5,655,888.8009142728988,889.4943851421122,"[50, 0, 204]",204,a,0.17018889216706157,colour,0.5
114,22,0,1,14,6,656,890.0040266758297,891.0703703367617,"[9, 0, 245]",245,a,0.5429797638207674,colour,0.5
114,22,0,1,14,7,657,891.5820878299419,892.2864044154994,"[32, 0, 222]",222,a,0.1811606390401721,colour,0.5
114,22,0,1,14,8,658,892.800885128323,893.446365141077,"[17, 0, 237]",237,a,0.1212791942525655,colour,0.5
114,22,0,1,14,9,659,893.9578983145766,894.5583850287367,"[87, 0, 167]",167,l,0.0771054879296571,colour,0.5
114,22,0,1,14,10,660,895.0672912530135,895.7503980791662,"[78, 0, 176]",176,l,0.159683458507061,colour,0.5
114,22,0,1,14,11,661,896.2704832127783,896.8784006093629,"[10, 0, 244]",244,a,0.08457909943535924,colour,0.5
114,22,0,1,14,12,662,897.3954653420951,898.0383440058213,"[91, 0, 163]",163,l,0.1196888464037329,colour,0.5
114,22,0,1,14,13,663,898.5530992290005,899.1344446600415,"[24, 0, 230]",230,a,0.0579901987221092,colour,0.5
114,22,0,1,14,14,664,899.6468064843211,900.2303885640576,"[13, 0, 241]",241,a,0.06031309929676354,colour,0.5
114,22,0,1,14,15,665,900.7405984166544,901.3743264749646,"[45, 0, 209]",209,a,0.11043741647154093,colour,0.5
114,22,0,1,14,16,666,901.8812197551597,902.4863569964655,"[47, 0, 207]",207,a,0.08074422623030841,colour,0.5
114,22,0,1,14,17,667,903.0075559250545,903.5583740011789,"[84, 0, 170]",170,l,0.02744748373515904,colour,0.5
114,22,0,1,14,18,668,904.0700934634078,904.6943424493074,"[49, 0, 205]",205,a,0.10095952567644417,colour,0.5
114,22,0,1,14,19,669,905.2107226788066,905.8143550367095,"[66, 0, 188]",188,l,0.08070523547939956,colour,0.5
114,22,0,1,14,20,670,906.3356634543743,906.8943844332825,"[67, 0, 187]",187,l,0.035357475746423006,colour,0.5
114,22,0,1,14,21,671,907.415263165487,908.6223813707475,"[79, 0, 175]",175,l,0.6840201539453119,colour,0.5
114,22,0,1,14,22,672,909.1348349610344,909.7263419989031,"[59, 0, 195]",195,a,0.0681557438801974,colour,0.5
114,22,0,1,14,23,673,910.2430593599565,910.982350997394,"[51, 0, 203]",203,a,0.21588599286042154,colour,0.5
114,22,0,1,14,24,674,911.4930393723771,912.5504029628355,"[75, 0, 179]",179,l,0.5339264383073896,colour,0.5
114,22,0,1,14,25,675,913.0742390807718,913.6623751951847,"[27, 0, 227]",227,a,0.06477930676192045,colour,0.5
114,22,0,1,14,26,676,914.1836757359561,914.8703913681675,"[6, 0, 248]",248,a,0.16336197522468865,colour,0.5
114,22,0,1,14,27,677,915.3867790806107,915.9743535716552,"[99, 0, 155]",155,l,0.06423776922747493,colour,0.5
114,22,0,1,14,28,678,916.4805123298429,917.0383184058592,"[83, 0, 171]",171,l,0.03446344658732414,colour,0.5
114,22,0,1,14,29,679,917.5586130653974,918.1903518103063,"[52, 0, 202]",202,a,0.10839020786806941,colour,0.5
114,22,0,1,14,30,680,918.6992139238864,919.6543805263937,"[82, 0, 172]",172,l,0.4319736345205456,colour,0.5
114,22,0,1,14,31,681,920.167898680782,920.7663417309523,"[55, 0, 199]",199,a,0.07504370692186058,colour,0.5
114,22,0,1,14,32,682,921.2773881114554,922.2303294872399,"[16, 0, 238]",238,a,0.42960819881409407,colour,0.5
114,22,0,1,14,33,683,922.7474284844939,923.3263442830648,"[25, 0, 229]",229,a,0.05548494774848223,colour,0.5
114,22,0,1,14,34,684,923.8411735491827,924.390514310915,"[76, 0, 178]",178,l,0.025908335577696562,colour,0.5
114,22,0,1,14,35,685,924.9037516536191,925.430344295688,"[14, 0, 240]",240,a,0.003310664789751172,colour,0.5
114,22,0,1,14,36,686,925.9505188323092,926.5182962876279,"[12, 0, 242]",242,a,0.04315758519805968,colour,0.5
114,22,0,1,14,37,687,927.030033866642,927.598348920932,"[20, 0, 234]",234,a,0.04492358793504536,colour,0.5
114,22,0,1,14,38,688,928.10808615922,928.7503350640181,"[36, 0, 218]",218,a,0.11882356787100434,colour,0.5
114,22,0,1,14,39,689,929.2642545469571,929.8463573430199,"[89, 0, 165]",165,l,0.058671551290899515,colour,0.5
114,22,0,1,14,40,690,930.3581043744925,931.3262954463717,"[8, 0, 246]",246,a,0.4448803439736366,colour,0.5
114,22,0,1,14,41,691,931.8439387381077,932.3743587704375,"[94, 0, 160]",160,l,0.007101427530869842,colour,0.5
114,22,0,1,14,42,692,932.9063852981199,933.7662925003096,"[18, 0, 236]",236,a,0.33653857884928584,colour,0.5
114,22,0,1,14,43,693,934.2813962765504,934.8782891510054,"[39, 0, 215]",215,a,0.07352306973189116,colour,0.5
114,22,0,1,14,44,694,935.3907175352797,935.9342923995573,"[96, 0, 158]",158,l,0.020108173601329327,colour,0.5
114,22,0,1,14,45,695,936.4533362057991,937.0382872920018,"[85, 0, 169]",169,l,0.06156828464008868,colour,0.5
114,22,0,1,14,46,696,937.5485298340209,938.1743179678451,"[30, 0, 224]",224,a,0.10251915361732244,colour,0.5
114,22,0,1,14,47,697,938.6891956769396,939.2384828757495,"[88, 0, 166]",166,l,0.02590282168239355,colour,0.5
114,22,0,1,14,48,698,939.7516871353146,941.0782515781466,"[31, 0, 223]",223,a,0.8033198807388544,colour,0.5
114,22,0,1,14,49,699,941.5953553016298,942.4462914920878,"[98, 0, 156]",156,l,0.3275872594676912,colour,0.5
114,22,0,1,14,50,700,942.954780634027,943.5183277952019,"[43, 0, 211]",211,a,0.03877881122753024,colour,0.5
114,22,0,1,15,1,701,948.4113377078902,949.0463154378813,"[39, 0, 215]",215,a,0.11105693550780416,colour,0.5
114,22,0,1,15,2,702,949.5543863158673,950.0942700605374,"[27, 0, 227]",227,a,0.016474161529913545,colour,0.5
114,22,0,1,15,3,703,950.6012728298083,951.2062769513577,"[62, 0, 192]",192,a,0.08173395972698927,colour,0.5
114,22,0,1,15,4,704,951.7261687067803,952.6223104784731,"[18, 0, 236]",236,a,0.37272194866091013,colour,0.5
114,22,0,1,15,5,705,953.1325187559705,953.7662357864901,"[42, 0, 212]",212,a,0.11062646238133311,colour,0.5
114,22,0,1,15,6,706,954.2731188265607,954.8942430426832,"[1, 0, 253]",253,a,0.09793715551495552,colour,0.5
114,22,0,1,15,7,707,955.4005238930695,956.0062763211317,"[81, 0, 173]",173,l,0.08251416753046215,colour,0.5
114,22,0,1,15,8,708,956.5241996371187,957.2142838293221,"[53, 0, 201]",201,a,0.16678015980869532,colour,0.5
114,22,0,1,15,9,709,957.7272840770893,958.7662468142807,"[68, 0, 186]",186,l,0.5154448465909809,colour,0.5
114,22,0,1,15,10,710,959.276408223901,960.294273447711,"[98, 0, 156]",156,l,0.4947927724570036,colour,0.5
114,22,0,1,15,11,711,960.807636033278,961.4862443567254,"[46, 0, 208]",208,a,0.15517077734693885,colour,0.5
114,22,0,1,15,12,712,961.9952529806178,962.5982575488742,"[57, 0, 197]",197,l,0.07974031404592097,colour,0.5
114,22,0,1,15,13,713,963.1045435192063,964.5022754420061,"[12, 0, 242]",242,a,0.8743278533220291,colour,0.5
114,22,0,1,15,14,714,965.0110895065591,965.5422657220624,"[67, 0, 187]",187,l,0.007759149419143796,colour,0.5
114,22,0,1,15,15,715,966.0580063464586,966.6462310762145,"[16, 0, 238]",238,a,0.0648494113702327,colour,0.5
114,22,0,1,15,16,716,967.1673933770508,968.3262410955504,"[94, 0, 160]",160,l,0.6354223815724254,colour,0.5
114,22,0,1,15,17,717,968.8416552222334,969.7822849887889,"[93, 0, 161]",161,l,0.41725247888825834,colour,0.5
114,22,0,1,15,18,718,970.2947803267743,970.9102402573917,"[92, 0, 162]",162,l,0.0924008700530976,colour,0.5
114,22,0,1,15,19,719,971.4195450532716,972.0142536608037,"[2, 0, 252]",252,a,0.07140890718437731,colour,0.5
114,22,0,1,15,20,720,972.5288753702771,973.1022123480216,"[95, 0, 159]",159,l,0.0502389264293015,colour,0.5
114,22,0,1,15,21,721,973.6225621458143,974.5662225533742,"[31, 0, 223]",223,a,0.4202086830046028,colour,0.5
114,22,0,1,15,22,722,975.0756699212361,975.8862680662423,"[58, 0, 196]",196,l,0.28752805665135384,colour,0.5
114,22,0,1,15,23,723,976.4054363274481,977.0382475138176,"[45, 0, 209]",209,a,0.10945910448208451,colour,0.5
114,22,0,1,15,24,724,977.5460344292223,978.4702250866685,"[97, 0, 157]",157,l,0.4008964712265879,colour,0.5
114,22,0,1,15,25,725,978.9835667982697,980.6062470977195,"[88, 0, 166]",166,l,1.0992459040135145,colour,0.5
114,22,0,1,15,26,726,981.1242365797516,981.7262139990926,"[10, 0, 244]",244,a,0.07865369459614158,colour,0.5
114,22,0,1,15,27,727,982.233643302694,982.9503128509969,"[20, 0, 234]",234,a,0.19324618042446673,colour,0.5
114,22,0,1,15,28,728,983.4678738291841,984.1102302537765,"[64, 0, 190]",190,l,0.11893699527718127,colour,0.5
114,22,0,1,15,29,729,984.6242407150567,985.22222966142,"[69, 0, 185]",185,l,0.0735136172734201,colour,0.5
114,22,0,1,15,30,730,985.7347691101022,986.3822337102611,"[14, 0, 240]",240,a,0.12407628470100462,colour,0.5
114,22,0,1,15,31,731,986.8909020517021,987.4942008224316,"[86, 0, 168]",168,l,0.07993014738894999,colour,0.5
114,22,0,1,15,32,732,988.0003205901012,988.6061872332357,"[79, 0, 175]",175,l,0.08246572455391288,colour,0.5
114,22,0,1,15,33,733,989.1253818823025,989.7501905227546,"[75, 0, 179]",179,l,0.101547930855304,colour,0.5
114,22,0,1,15,34,734,990.2659799838439,990.8142321568448,"[70, 0, 184]",184,l,0.02505408483557403,colour,0.5
114,22,0,1,15,35,735,991.3301275626291,991.9262303831056,"[40, 0, 214]",214,a,0.07281966181471944,colour,0.5
114,22,0,1,15,36,736,992.4393397259992,992.9902086080983,"[66, 0, 188]",188,l,0.027394708478823304,colour,0.5
114,22,0,1,15,37,737,993.5018705688417,994.3981608203612,"[32, 0, 222]",222,a,0.37293108040466905,colour,0.5
114,22,0,1,15,38,738,994.9081532703713,995.5422318512574,"[72, 0, 182]",182,l,0.11068750848062336,colour,0.5
114,22,0,1,15,39,739,996.0487891812809,996.630257886136,"[15, 0, 239]",239,a,0.05827494920231402,colour,0.5
114,22,0,1,15,40,740,997.1425708734896,997.7101490430068,"[44, 0, 210]",210,a,0.044251687824726105,colour,0.5
114,22,0,1,15,41,741,998.2226120855194,998.814165597083,"[41, 0, 213]",213,a,0.06832864205352962,colour,0.5
114,22,0,1,15,42,742,999.3317931350321,999.9262268384919,"[35, 0, 219]",219,a,0.07105641579255462,colour,0.5
114,22,0,1,15,43,743,1000.4411486580502,1001.0142300301231,"[73, 0, 181]",181,l,0.049731259467080235,colour,0.5
114,22,0,1,15,44,744,1001.5348484304268,1002.0701954693068,"[3, 0, 251]",251,a,0.012054821709170938,colour,0.5
114,22,0,1,15,45,745,1002.5818117442541,1003.1902092383243,"[85, 0, 169]",169,l,0.08520964602939785,colour,0.5
114,22,0,1,15,46,746,1003.7068935162388,1004.2942112199962,"[0, 0, 254]",254,a,0.06412631087005138,colour,0.5
114,22,0,1,15,47,747,1004.8006850548554,1005.3741740568075,"[37, 0, 217]",217,a,0.05022750492207706,colour,0.5
114,22,0,1,15,48,748,1005.8955659696367,1006.4541439828463,"[13, 0, 241]",241,a,0.03521451004780829,colour,0.5
114,22,0,1,15,49,749,1006.98872223543,1007.5661811996251,"[11, 0, 243]",243,a,0.0534310438670218,colour,0.5
114,22,0,1,15,50,750,1008.0830608250108,1008.6382033242844,"[99, 0, 155]",155,l,0.03250091476365924,colour,0.5
114,22,0,1,16,1,751,1013.0353712602518,1013.6222049279604,"[50, 0, 204]",204,a,0.06058524642139673,colour,0.5
114,22,0,1,16,2,752,1014.1320437781978,1015.4701667975169,"[87, 0, 167]",167,l,0.814955257344991,colour,0.5
114,22,0,1,16,3,753,1015.9914114121348,1016.9901219620369,"[52, 0, 202]",202,a,0.4753891881555319,colour,0.5
114,22,0,1,16,4,754,1017.5069641722366,1018.1581592764705,"[12, 0, 242]",242,a,0.1278087580576539,colour,0.5
114,22,0,1,16,5,755,1018.6788595968392,1019.2781163316686,"[27, 0, 227]",227,a,0.07598578534089029,colour,0.5
114,22,0,1,16,6,756,1019.7882395384368,1020.3501396379434,"[22, 0, 232]",232,a,0.03850193810649216,colour,0.5
114,22,0,1,16,7,757,1020.8664190429263,1021.886181420181,"[97, 0, 157]",157,l,0.49536345433443785,colour,0.5
114,22,0,1,16,8,758,1022.3987716748379,1023.5501308157109,"[18, 0, 236]",236,a,0.6281582959927619,colour,0.5
114,22,0,1,16,9,759,1024.070771271363,1024.6621357372496,"[41, 0, 213]",213,a,0.06789856287650764,colour,0.5
114,22,0,1,16,10,760,1025.1801957176067,1025.798110880889,"[82, 0, 172]",172,l,0.0946394877973944,colour,0.5
114,22,0,1,16,11,761,1026.3052294405643,1027.2301349274348,"[67, 0, 187]",187,l,0.4015632513910532,colour,0.5
114,22,0,1,16,12,762,1027.7445325388107,1028.2701571087819,"[66, 0, 188]",188,l,0.002225620672106743,colour,0.5
114,22,0,1,16,13,763,1028.7914084189106,1029.358129580738,"[63, 0, 191]",191,l,0.04338483395986259,colour,0.5
114,22,0,1,16,14,764,1029.869538298808,1030.446135529317,"[45, 0, 209]",209,l,0.05320182582363486,colour,0.5
114,22,0,1,16,15,765,1030.9633790678345,1031.846199017251,"[39, 0, 215]",215,a,0.35950567689724267,colour,0.5
114,22,0,1,16,16,766,1032.3539213419426,1033.4381294387858,"[62, 0, 192]",192,a,0.56149877095595,colour,0.5
114,22,0,1,16,17,767,1033.9476091021206,1034.8301187010948,"[75, 0, 179]",179,l,0.3591590926516801,colour,0.5
114,22,0,1,16,18,768,1035.338264803635,1035.9501167160925,"[46, 0, 208]",208,a,0.08716745162382722,colour,0.5
114,22,0,1,16,19,769,1036.4645017243456,1037.062587556662,"[61, 0, 193]",193,l,0.0747487167827785,colour,0.5
114,22,0,1,16,20,770,1037.5738765459973,1038.1101365187205,"[9, 0, 245]",245,a,0.01289213728159666,colour,0.5
114,22,0,1,16,21,771,1038.6208296197,1039.2301435919944,"[15, 0, 239]",239,a,0.08589572459459305,colour,0.5
114,22,0,1,16,22,772,1039.745770395035,1040.2780954579357,"[85, 0, 169]",169,l,0.00885167671367526,colour,0.5
114,22,0,1,16,23,773,1040.7925663245842,1041.3501376686618,"[3, 0, 251]",251,l,0.034138524206355214,colour,0.5
114,22,0,1,16,24,774,1041.8707493736874,1042.3981312820688,"[17, 0, 237]",237,a,0.002430420368909836,colour,0.5
114,22,0,1,16,25,775,1042.9198252742644,1043.5341221794952,"[47, 0, 207]",207,a,0.0916939175222069,colour,0.5
114,22,0,1,16,26,776,1044.044111478608,1044.6861473130994,"[98, 0, 156]",156,l,0.1189728353638202,colour,0.5
114,22,0,1,16,27,777,1045.2003684816882,1045.9340935074724,"[88, 0, 166]",166,l,0.2104942484293133,colour,0.5
114,22,0,1,16,28,778,1046.4503437678795,1047.318110943772,"[36, 0, 218]",218,a,0.344333962071687,colour,0.5
114,22,0,1,16,29,779,1047.8253000017721,1048.8860872911755,"[83, 0, 171]",171,l,0.5340560136828572,colour,0.5
114,22,0,1,16,30,780,1049.4067553160712,1050.5340796441305,"[35, 0, 219]",219,a,0.6042841719463468,colour,0.5
114,22,0,1,16,31,781,1051.0448617544025,1051.6381044690497,"[68, 0, 186]",186,l,0.06988236238248646,colour,0.5
114,22,0,1,16,32,782,1052.1429934694897,1053.2061028715689,"[8, 0, 246]",246,a,0.5398506617639214,colour,0.5
114,22,0,1,16,33,783,1053.721222795546,1055.2380646117963,"[29, 0, 225]",225,l,0.9935980420559645,colour,0.5
114,22,0,1,16,34,784,1055.7525465062354,1056.5580549864098,"[71, 0, 183]",183,l,0.2822989705018699,colour,0.5
114,22,0,1,16,35,785,1057.066954515176,1057.7500727628358,"[72, 0, 182]",182,l,0.15975631983019412,colour,0.5
114,22,0,1,16,36,786,1058.2700109921861,1059.182057424914,"[28, 0, 226]",226,a,0.3885647759307176,colour,0.5
114,22,0,1,16,37,787,1059.6920455426443,1060.3020479569677,"[53, 0, 201]",201,a,0.08681338466703892,colour,0.5
114,22,0,1,16,38,788,1060.8168787984177,1061.3501207332592,"[16, 0, 238]",238,a,0.009793361183255911,colour,0.5
114,22,0,1,16,39,789,1061.8637471953407,1062.4700840897858,"[59, 0, 195]",195,a,0.08291510213166475,colour,0.5
114,22,0,1,16,40,790,1062.9888514166232,1064.446392316604,"[79, 0, 175]",175,l,0.9327713684178889,colour,0.5
114,22,0,1,16,41,791,1064.9590932417195,1065.5980807123706,"[38, 0, 216]",216,a,0.11556134605780244,colour,0.5
114,22,0,1,16,42,792,1066.1153281894512,1066.6460577840917,"[32, 0, 222]",222,a,0.00802263175137341,colour,0.5
114,22,0,1,16,43,793,1067.1621879218146,1068.2701216626447,"[6, 0, 248]",248,a,0.5846525514498353,colour,0.5
114,22,0,1,16,44,794,1068.7869693867397,1069.6540461515542,"[21, 0, 233]",233,a,0.3411918629426509,colour,0.5
114,22,0,1,16,45,795,1070.1638105649035,1070.8060571067035,"[55, 0, 199]",199,l,0.11898031830787659,colour,0.5
114,22,0,1,16,46,796,1071.3200376357418,1072.278089550091,"[77, 0, 177]",177,l,0.4344769159797579,colour,0.5
114,22,0,1,16,47,797,1072.788742478937,1073.5020789131522,"[89, 0, 165]",165,l,0.18990715872496367,colour,0.5
114,22,0,1,16,48,798,1074.0232317617629,1074.7420442232396,"[42, 0, 212]",212,a,0.19555411487817764,colour,0.5
114,22,0,1,16,49,799,1075.257564294152,1075.8381373945158,"[26, 0, 228]",228,a,0.05711113568395376,colour,0.5
114,22,0,1,16,50,800,1076.3528083346318,1077.3020243262872,"[81, 0, 173]",173,l,0.42575875320471823,colour,0.5
