id,age,condition,counterbalance,block,trialinblock,trial,tstart,tend,trialstim,trialintensity,response,RT,trialtype,colourfreq
172,22,1,2,Practice,1,NA,5.90737909078598e-06,1.196650025434792,"[32, 0, 222]",222,a,0.6733571900986135,colour,0.5
172,22,1,2,Practice,2,NA,1.7041768147610128,2.78067784011364,"[15, 0, 239]",239,a,0.554335770662874,colour,0.5
172,22,1,2,Practice,3,NA,3.298002334777266,4.908671856857836,"[63, 0, 191]",191,a,1.0885448339395225,colour,0.5
172,22,1,2,Practice,4,NA,5.423094888217747,6.40466762566939,"[47, 0, 207]",207,a,0.4593519503250718,colour,0.5
172,22,1,2,Practice,5,NA,6.923253214452416,7.8446309347637,"[3, 0, 251]",251,a,0.39921640418469906,colour,0.5
172,22,1,2,Practice,6,NA,8.361174039077014,8.884649618994445,"[25, 0, 229]",229,a,0.0016663623973727226,colour,0.5
172,22,1,2,Practice,7,NA,9.407790035940707,9.940660022664815,"[89, 0, 165]",165,l,0.010692916810512543,colour,0.5
172,22,1,2,Practice,8,NA,10.454720715992153,11.54865730041638,"[52, 0, 202]",202,a,0.5709899393841624,colour,0.5
172,22,1,2,Practice,9,NA,12.06550090899691,12.916630695108324,"[71, 0, 183]",183,l,0.3292524330317974,colour,0.5
172,22,1,2,Practice,10,NA,13.425031035207212,14.324669641908258,"[58, 0, 196]",196,a,0.37739340169355273,colour,0.5
172,22,1,2,1,1,1,4.545346631668508,5.624006326775998,"[85, 0, 169]",169,l,0.555676422547549,colour,0.5
172,22,1,2,1,2,2,6.139960237313062,7.128184637986124,"[51, 0, 203]",203,a,0.465996524784714,colour,0.5
172,22,1,2,1,3,3,7.6400575172156096,8.560007939580828,"[77, 0, 177]",177,l,0.39756697742268443,colour,0.5
172,22,1,2,1,4,4,9.077725098468363,9.887995733879507,"[21, 0, 233]",233,a,0.2879836824722588,colour,0.5
172,22,1,2,1,5,5,10.406001975294203,11.191995554137975,"[81, 0, 173]",173,l,0.26379327196627855,colour,0.5
172,22,1,2,1,6,6,11.702897997107357,13.191986101679504,"[52, 0, 202]",202,l,0.9668641672469676,colour,0.5
172,22,1,2,1,7,7,13.703064593486488,14.471985345706344,"[36, 0, 218]",218,a,0.24665309768170118,colour,0.5
172,22,1,2,1,8,8,14.984413153491914,15.703988950233907,"[91, 0, 163]",163,l,0.19747080048546195,colour,0.5
172,22,1,2,1,9,9,16.21890940889716,16.975966340396553,"[31, 0, 223]",223,a,0.2350153443403542,colour,0.5
172,22,1,2,1,10,10,17.484740439802408,18.19202981889248,"[86, 0, 168]",168,l,0.1852560630068183,colour,0.5
172,22,1,2,1,11,11,18.703446230385453,19.59200516389683,"[55, 0, 199]",199,l,0.3663263311609626,colour,0.5
172,22,1,2,1,12,12,20.109840082470328,20.823968989774585,"[29, 0, 225]",225,a,0.1919159973040223,colour,0.5
172,22,1,2,1,13,13,21.344278836622834,22.039998203981668,"[37, 0, 217]",217,a,0.1734509253874421,colour,0.5
172,22,1,2,1,14,14,22.547578162513673,23.167976072989404,"[4, 0, 250]",250,a,0.098217295948416,colour,0.5
172,22,1,2,1,15,15,23.672651024069637,24.320010838564485,"[19, 0, 235]",235,a,0.12517486745491624,colour,0.5
172,22,1,2,1,16,16,24.828873947262764,25.583974251989275,"[82, 0, 172]",172,l,0.232742459513247,colour,0.5
172,22,1,2,1,17,17,26.094703008420765,26.7839959920384,"[44, 0, 210]",210,a,0.16778860241174698,colour,0.5
172,22,1,2,1,18,18,27.29788181791082,28.08799778157845,"[27, 0, 227]",227,a,0.2677852939814329,colour,0.5
172,22,1,2,1,19,19,28.594921987038106,29.29599214484915,"[94, 0, 160]",160,l,0.17883164808154106,colour,0.5
172,22,1,2,1,20,20,29.813688430003822,30.44799540285021,"[50, 0, 204]",204,a,0.11206058599054813,colour,0.5
172,22,1,2,1,21,21,30.954471411183476,31.559990610461682,"[15, 0, 239]",239,a,0.08329801820218563,colour,0.5
172,22,1,2,1,22,22,32.07950646383688,32.72799031436443,"[80, 0, 174]",174,l,0.12619256554171443,colour,0.5
172,22,1,2,1,23,23,33.235931429546326,33.87197447568178,"[46, 0, 208]",208,a,0.11407038196921349,colour,0.5
172,22,1,2,1,24,24,34.39219176815823,35.03996945312247,"[22, 0, 232]",232,a,0.12554626446217299,colour,0.5
172,22,1,2,1,25,25,35.54855805123225,36.17597744660452,"[68, 0, 186]",186,l,0.10514386417344213,colour,0.5
172,22,1,2,1,26,26,36.689366238657385,37.33597695827484,"[66, 0, 188]",188,l,0.12443483108654618,colour,0.5
172,22,1,2,1,27,27,37.845588373951614,38.471962502691895,"[14, 0, 240]",240,a,0.1041253786534071,colour,0.5
172,22,1,2,1,28,28,38.986292586196214,39.59196302248165,"[1, 0, 253]",253,a,0.0834181415848434,colour,0.5
172,22,1,2,1,29,29,40.1114040450193,40.75999187072739,"[59, 0, 195]",195,l,0.12620123010128736,colour,0.5
172,22,1,2,1,30,30,41.267884149216115,41.86401642486453,"[12, 0, 242]",242,a,0.07408714387565851,colour,0.5
172,22,1,2,1,31,31,42.37733353674412,43.032008251640946,"[6, 0, 248]",248,a,0.13239563861861825,colour,0.5
172,22,1,2,1,32,32,43.54002025909722,44.18398748477921,"[73, 0, 181]",181,l,0.12169917719438672,colour,0.5
172,22,1,2,1,33,33,44.69635779131204,45.34399369219318,"[23, 0, 231]",231,a,0.12533595087006688,colour,0.5
172,22,1,2,1,34,34,45.85339794494212,46.4799650576897,"[48, 0, 206]",206,l,0.10522026987746358,colour,0.5
172,22,1,2,1,35,35,46.993742181919515,47.63999607693404,"[63, 0, 191]",191,l,0.12423357553780079,colour,0.5
172,22,1,2,1,36,36,48.14973706845194,48.823995377868414,"[42, 0, 212]",212,a,0.1519567840732634,colour,0.5
172,22,1,2,1,37,37,49.337394803762436,49.95995020214468,"[40, 0, 214]",214,a,0.10036178724840283,colour,0.5
172,22,1,2,1,38,38,50.478092320263386,51.10395326744765,"[2, 0, 252]",252,a,0.10362283093854785,colour,0.5
172,22,1,2,1,39,39,51.61881228676066,52.24806267162785,"[3, 0, 251]",251,a,0.10722533939406276,colour,0.5
172,22,1,2,1,40,40,52.759520437102765,53.31999902287498,"[5, 0, 249]",249,a,0.03829009411856532,colour,0.5
172,22,1,2,1,41,41,53.837722877040505,54.51997428946197,"[84, 0, 170]",170,l,0.1602846560999751,colour,0.5
172,22,1,2,1,42,42,55.025389277376235,55.735964512918144,"[64, 0, 190]",190,l,0.18835720559582114,colour,0.5
172,22,1,2,1,43,43,56.24420692026615,56.85599575238302,"[57, 0, 197]",197,l,0.08958931313827634,colour,0.5
172,22,1,2,1,44,44,57.369263240136206,57.91997523466125,"[25, 0, 229]",229,a,0.028655835427343845,colour,0.5
172,22,1,2,1,45,45,58.43186268629506,60.59197365632281,"[76, 0, 178]",178,a,1.63788191229105,colour,0.5
172,22,1,2,1,46,46,61.10401076916605,61.711982446722686,"[71, 0, 183]",183,l,0.08583714300766587,colour,0.5
172,22,1,2,1,47,47,62.229045033920556,62.823965445160866,"[67, 0, 187]",187,l,0.07274609850719571,colour,0.5
172,22,1,2,1,48,48,63.33846842776984,63.96794803114608,"[58, 0, 196]",196,l,0.10718871233984828,colour,0.5
172,22,1,2,1,49,49,64.47921517537907,65.09596055839211,"[35, 0, 219]",219,a,0.0946486578322947,colour,0.5
172,22,1,2,1,50,50,65.60436207987368,66.19197428645566,"[78, 0, 176]",176,l,0.06534612737596035,colour,0.5
172,22,1,2,2,1,51,70.55702573852614,71.17594554508105,"[28, 0, 226]",226,a,0.09594204789027572,colour,0.5
172,22,1,2,2,2,52,71.68291267938912,72.79194498434663,"[68, 0, 186]",186,l,0.586868625599891,colour,0.5
172,22,1,2,2,3,53,73.3080410733819,73.91195219941437,"[72, 0, 182]",182,l,0.0818057362921536,colour,0.5
172,22,1,2,2,4,54,74.41748061496764,75.00794544722885,"[91, 0, 163]",163,l,0.06836416851729155,colour,0.5
172,22,1,2,2,5,55,75.52697214391083,76.07996490038931,"[25, 0, 229]",229,a,0.03079323749989271,colour,0.5
172,22,1,2,2,6,56,76.58957277145237,77.20793174160644,"[59, 0, 195]",195,l,0.09611730929464102,colour,0.5
172,22,1,2,2,7,57,77.71462436532602,78.26397129008546,"[14, 0, 240]",240,a,0.027036340907216072,colour,0.5
172,22,1,2,2,8,58,78.77720569446683,79.4479461722076,"[20, 0, 234]",234,a,0.1484503741376102,colour,0.5
172,22,1,2,2,9,59,79.9647574853152,80.55993429059163,"[75, 0, 179]",179,l,0.0728603140451014,colour,0.5
172,22,1,2,2,10,60,81.07426988845691,81.67197321495041,"[90, 0, 164]",164,l,0.0754081029444933,colour,0.5
172,22,1,2,2,11,61,82.18375984206796,82.75996587704867,"[89, 0, 165]",165,l,0.054586256854236126,colour,0.5
172,22,1,2,2,12,62,83.27757000178099,83.87196817388758,"[0, 0, 254]",254,a,0.07219944056123495,colour,0.5
172,22,1,2,2,13,63,84.38706034980714,85.03196099027991,"[49, 0, 205]",205,l,0.12260659830644727,colour,0.5
172,22,1,2,2,14,64,85.54328602971509,86.11196488142014,"[24, 0, 230]",230,a,0.04637141898274422,colour,0.5
172,22,1,2,2,15,65,86.62158220494166,87.30395925417542,"[50, 0, 204]",204,l,0.1601208164356649,colour,0.5
172,22,1,2,2,16,66,87.80918598314747,88.42395819863304,"[87, 0, 167]",167,l,0.092492351308465,colour,0.5
172,22,1,2,2,17,67,88.93421512795612,89.47194989956915,"[97, 0, 157]",157,l,0.015520680230110884,colour,0.5
172,22,1,2,2,18,68,89.98126947553828,90.59193230234087,"[98, 0, 156]",156,l,0.08853735076263547,colour,0.5
172,22,1,2,2,19,69,91.10631161695346,91.68793579051271,"[34, 0, 220]",220,a,0.059356519021093845,colour,0.5
172,22,1,2,2,20,70,92.20010326616466,92.83192585920915,"[86, 0, 168]",168,l,0.10953445825725794,colour,0.5
172,22,1,2,2,21,71,93.34082795865834,93.89594905823469,"[15, 0, 239]",239,a,0.03280027583241463,colour,0.5
172,22,1,2,2,22,72,94.40342070907354,95.01595666725188,"[40, 0, 214]",214,a,0.09026278974488378,colour,0.5
172,22,1,2,2,23,73,95.52851050626487,96.11195897357538,"[32, 0, 222]",222,a,0.061213108245283365,colour,0.5
172,22,1,2,2,24,74,96.62233838904649,97.79991248715669,"[30, 0, 224]",224,a,0.6552706034854054,colour,0.5
172,22,1,2,2,25,75,98.3099996689707,98.88794335210696,"[82, 0, 172]",172,l,0.05573392380028963,colour,0.5
172,22,1,2,2,26,76,99.40382479503751,99.96796575421467,"[5, 0, 249]",249,a,0.041870941407978535,colour,0.5
172,22,1,2,2,27,77,100.4820611057803,101.07996017392725,"[80, 0, 174]",174,l,0.07569679198786616,colour,0.5
172,22,1,2,2,28,78,101.59147741040215,102.1679362943396,"[48, 0, 206]",206,a,0.05426015239208937,colour,0.5
172,22,1,2,2,29,79,102.68535373639315,103.27195178996772,"[8, 0, 246]",246,a,0.0646127862855792,colour,0.5
172,22,1,2,2,30,80,103.77914144704118,104.36791865015402,"[69, 0, 185]",185,l,0.06705384328961372,colour,0.5
172,22,1,2,2,31,81,104.87300083786249,105.43993889074773,"[18, 0, 236]",236,a,0.04466724768280983,colour,0.5
172,22,1,2,2,32,82,105.95126353623345,106.61592972837389,"[38, 0, 216]",216,a,0.14260727586224675,colour,0.5
172,22,1,2,2,33,83,107.12335451180115,107.71996255312115,"[78, 0, 176]",176,l,0.07450501481071115,colour,0.5
172,22,1,2,2,34,84,108.23265699483454,108.77596074761823,"[16, 0, 238]",238,a,0.021066424436867237,colour,0.5
172,22,1,2,2,35,85,109.29525368381292,109.95193031756207,"[43, 0, 211]",211,l,0.13445269595831633,colour,0.5
172,22,1,2,2,36,86,110.46718830242753,111.0399438533932,"[96, 0, 158]",158,l,0.050556819420307875,colour,0.5
172,22,1,2,2,37,87,111.54538010852411,112.15190991619602,"[66, 0, 188]",188,l,0.08424443006515503,colour,0.5
172,22,1,2,2,38,88,112.67050417000428,113.21593114593998,"[79, 0, 175]",175,l,0.023171530570834875,colour,0.5
172,22,1,2,2,39,89,113.73312409594655,114.30411324789748,"[58, 0, 196]",196,l,0.04860255587846041,colour,0.5
172,22,1,2,2,40,90,114.81123358849436,115.35194071521983,"[22, 0, 232]",232,a,0.018392998725175858,colour,0.5
172,22,1,2,2,41,91,115.85819774493575,116.40792197408155,"[9, 0, 245]",245,a,0.027469965163618326,colour,0.5
172,22,1,2,2,42,92,116.92083578836173,117.46394891943783,"[10, 0, 244]",244,a,0.020863987505435944,colour,0.5
172,22,1,2,2,43,93,117.98368138773367,118.54393036151305,"[62, 0, 192]",192,l,0.03829678939655423,colour,0.5
172,22,1,2,2,44,94,119.06163216056302,119.66395569359884,"[26, 0, 228]",228,a,0.08011810621246696,colour,0.5
172,22,1,2,2,45,95,120.17113038478419,120.76795228477567,"[64, 0, 190]",190,l,0.08701001666486263,colour,0.5
172,22,1,2,2,46,96,121.28382073063403,122.24789568129927,"[21, 0, 233]",233,a,0.44191560382023454,colour,0.5
172,22,1,2,2,47,97,122.76825475832447,123.42392590316013,"[99, 0, 155]",155,l,0.13363704085350037,colour,0.5
172,22,1,2,2,48,98,123.94018977042288,124.55193803692237,"[67, 0, 187]",187,l,0.0893782121129334,colour,0.5
172,22,1,2,2,49,99,125.06530634872615,125.66391749074683,"[33, 0, 221]",221,a,0.07643367815762758,colour,0.5
172,22,1,2,2,50,100,126.17479472747073,126.76790738618001,"[52, 0, 202]",202,l,0.07091313973069191,colour,0.5
172,22,1,2,3,1,101,131.22132919821888,131.85599929699674,"[99, 0, 155]",155,l,0.11169785400852561,colour,0.5
172,22,1,2,3,2,102,132.36293689301237,134.09615157358348,"[59, 0, 195]",195,l,1.2111589149571955,colour,0.5
172,22,1,2,3,3,103,134.6137749971822,135.15991128981113,"[32, 0, 222]",222,a,0.023996244184672832,colour,0.5
172,22,1,2,3,4,104,135.6763452985324,136.5918779517524,"[26, 0, 228]",228,a,0.3933520382270217,colour,0.5
172,22,1,2,3,5,105,137.0983319049701,137.7838825643994,"[62, 0, 192]",192,l,0.1635039527900517,colour,0.5
172,22,1,2,3,6,106,138.30153198167682,138.9358956683427,"[77, 0, 177]",177,l,0.11236266558989882,colour,0.5
172,22,1,2,3,7,107,139.44226455083117,139.97597027849406,"[91, 0, 163]",163,l,0.011479427106678486,colour,0.5
172,22,1,2,3,8,108,140.48922083061188,141.10390403680503,"[15, 0, 239]",239,a,0.09244587738066912,colour,0.5
172,22,1,2,3,9,109,141.61433544009924,142.20794631401077,"[72, 0, 182]",182,l,0.07136527495458722,colour,0.5
172,22,1,2,3,10,110,142.72367927711457,143.2959058927372,"[12, 0, 242]",242,a,0.050008585676550865,colour,0.5
172,22,1,2,3,11,111,143.80201247381046,144.40789873711765,"[8, 0, 246]",246,a,0.08395849773660302,colour,0.5
172,22,1,2,3,12,112,144.92702231975272,145.50390970846638,"[98, 0, 156]",156,l,0.05480602337047458,colour,0.5
172,22,1,2,3,13,113,146.02095693536103,146.61589782685041,"[66, 0, 188]",188,l,0.07270120037719607,colour,0.5
172,22,1,2,3,14,114,147.13038899376988,147.66391276475042,"[83, 0, 171]",171,l,0.011240362655371428,colour,0.5
172,22,1,2,3,15,115,148.1796004353091,148.71192376408726,"[41, 0, 213]",213,a,0.010059612803161144,colour,0.5
172,22,1,2,3,16,116,149.22652245080099,149.79188511986285,"[1, 0, 253]",253,a,0.04381811572238803,colour,0.5
172,22,1,2,3,17,117,150.30472843535244,150.8798892032355,"[29, 0, 225]",225,a,0.05290414113551378,colour,0.5
172,22,1,2,3,18,118,151.39859452145174,151.94392618676648,"[3, 0, 251]",251,a,0.02312151249498129,colour,0.5
172,22,1,2,3,19,119,152.4611652167514,152.98398425523192,"[24, 0, 230]",230,a,0.0006014024838805199,colour,0.5
172,22,1,2,3,20,120,153.49246887816116,154.3838816192001,"[44, 0, 210]",210,a,0.3666528295725584,colour,0.5
172,22,1,2,3,21,121,154.90126952296123,155.4639359228313,"[84, 0, 170]",170,l,0.040527533274143934,colour,0.5
172,22,1,2,3,22,122,155.97951410431415,156.54391578910872,"[20, 0, 234]",234,a,0.042174202390015125,colour,0.5
172,22,1,2,3,23,123,157.0576365934685,157.66392339859158,"[60, 0, 194]",194,l,0.08390414761379361,colour,0.5
172,22,1,2,3,24,124,158.18277640873566,159.1038847384043,"[69, 0, 185]",185,l,0.3989344104193151,colour,0.5
172,22,1,2,3,25,125,159.62044989783317,160.23189765959978,"[48, 0, 206]",206,a,0.08929156558588147,colour,0.5
172,22,1,2,3,26,126,160.7454534424469,161.3199119833298,"[61, 0, 193]",193,l,0.05205619102343917,colour,0.5
172,22,1,2,3,27,127,161.83940735645592,162.415893021971,"[55, 0, 199]",199,l,0.05437436792999506,colour,0.5
172,22,1,2,3,28,128,162.93320333771408,163.50392152369022,"[96, 0, 158]",158,l,0.04860413121059537,colour,0.5
172,22,1,2,3,29,129,164.0113340979442,164.5519238584675,"[80, 0, 174]",174,l,0.0183756691403687,colour,0.5
172,22,1,2,3,30,130,165.05828643916175,165.6319009680301,"[28, 0, 226]",226,a,0.0514453356154263,colour,0.5
172,22,1,2,3,31,131,166.15213243896142,166.7520795064047,"[42, 0, 212]",212,a,0.07761088339611888,colour,0.5
172,22,1,2,3,32,132,167.26173109421507,167.8879216904752,"[63, 0, 191]",191,l,0.11365093570202589,colour,0.5
172,22,1,2,3,33,133,168.39296646323055,169.2718895622529,"[31, 0, 223]",223,a,0.3566491431556642,colour,0.5
172,22,1,2,3,34,134,169.78379355510697,170.3438755380921,"[97, 0, 157]",157,l,0.03846141695976257,colour,0.5
172,22,1,2,3,35,135,170.86194321978837,171.43192058149725,"[11, 0, 243]",243,a,0.04773373156785965,colour,0.5
172,22,1,2,3,36,136,171.94020237354562,172.55191913247108,"[56, 0, 198]",198,l,0.08950857492163777,colour,0.5
172,22,1,2,3,37,137,173.06519252760336,173.71192415757105,"[35, 0, 219]",219,a,0.13681813422590494,colour,0.5
172,22,1,2,3,38,138,174.22491831611842,174.85593352513388,"[2, 0, 252]",252,a,0.10945647722110152,colour,0.5
172,22,1,2,3,39,139,175.36558944545686,175.89588328590617,"[25, 0, 229]",229,a,0.008072659838944674,colour,0.5
172,22,1,2,3,40,140,176.41250634053722,176.99189386330545,"[68, 0, 186]",186,l,0.0570875727571547,colour,0.5
172,22,1,2,3,41,141,177.5063354051672,178.11990954121575,"[10, 0, 244]",244,a,0.09133483842015266,colour,0.5
172,22,1,2,3,42,142,178.63148467289284,179.2238691104576,"[58, 0, 196]",196,l,0.07017389079555869,colour,0.5
172,22,1,2,3,43,143,179.74087380198762,180.3919089869596,"[89, 0, 165]",165,l,0.12873838562518358,colour,0.5
172,22,1,2,3,44,144,180.89720936538652,181.51185121759772,"[4, 0, 250]",250,a,0.09241791488602757,colour,0.5
172,22,1,2,3,45,145,182.0223141280003,182.6399153387174,"[73, 0, 181]",181,l,0.09541547577828169,colour,0.5
172,22,1,2,3,46,146,183.14742322359234,183.71190722240135,"[22, 0, 232]",232,a,0.04224351979792118,colour,0.5
172,22,1,2,3,47,147,184.2256079404615,184.7759024584666,"[95, 0, 159]",159,l,0.02805206971243024,colour,0.5
172,22,1,2,3,48,148,185.28815421741456,185.90387205639854,"[13, 0, 241]",241,a,0.09414374735206366,colour,0.5
172,22,1,2,3,49,149,186.41334405122325,187.05589815741405,"[65, 0, 189]",189,l,0.12035891972482204,colour,0.5
172,22,1,2,3,50,150,187.56960123870522,188.09589202934876,"[49, 0, 205]",205,l,0.004047554451972246,colour,0.5
172,22,1,2,4,1,151,193.21041336469352,194.11992411362007,"[51, 0, 203]",203,a,0.38642113795503974,colour,0.5
172,22,1,2,4,2,152,194.63323846878484,195.51186697138473,"[4, 0, 250]",250,a,0.35649042343720794,colour,0.5
172,22,1,2,4,3,153,196.02386981947348,196.6718653012067,"[53, 0, 201]",201,l,0.12566559948027134,colour,0.5
172,22,1,2,4,4,154,197.18025106890127,197.71989087294787,"[73, 0, 181]",181,l,0.01732449419796467,colour,0.5
172,22,1,2,4,5,155,198.2271486655809,198.7678936016746,"[47, 0, 207]",207,a,0.018440654035657644,colour,0.5
172,22,1,2,4,6,156,199.27418174548075,199.86387936631218,"[1, 0, 253]",253,a,0.06743941875174642,colour,0.5
172,22,1,2,4,7,157,200.3854310088791,200.99186038598418,"[23, 0, 231]",231,a,0.0846111006103456,colour,0.5
172,22,1,2,4,8,158,201.51052710739896,202.0798636819236,"[34, 0, 220]",220,a,0.04708467377349734,colour,0.5
172,22,1,2,4,9,159,202.5887685380876,203.23189372150227,"[77, 0, 177]",177,l,0.1208445318043232,colour,0.5
172,22,1,2,4,10,160,203.74505447642878,204.279875182081,"[6, 0, 248]",248,a,0.01255186926573515,colour,0.5
172,22,1,2,4,11,161,204.7919926396571,205.32787318481132,"[65, 0, 189]",189,l,0.014078810345381498,colour,0.5
172,22,1,2,4,12,162,205.83896624902263,206.43187607685104,"[48, 0, 206]",206,l,0.0706035764887929,colour,0.5
172,22,1,2,4,13,163,206.94849558733404,207.47988747013733,"[46, 0, 208]",208,l,0.009183305315673351,colour,0.5
172,22,1,2,4,14,164,207.99541839025915,208.91188130714,"[58, 0, 196]",196,l,0.39421219751238823,colour,0.5
172,22,1,2,4,15,165,209.41736639942974,210.19983820803463,"[98, 0, 156]",156,l,0.26029946468770504,colour,0.5
172,22,1,2,4,16,166,210.71436009462923,211.3278920892626,"[52, 0, 202]",202,a,0.09124346636235714,colour,0.5
172,22,1,2,4,17,167,211.83951566368341,212.51986558828503,"[55, 0, 199]",199,l,0.15807557431980968,colour,0.5
172,22,1,2,4,18,168,213.0271052639,213.68784244870767,"[22, 0, 232]",232,a,0.15147786727175117,colour,0.5
172,22,1,2,4,19,169,214.20223003439605,214.80785714741796,"[89, 0, 165]",165,l,0.08363396907225251,colour,0.5
172,22,1,2,4,20,170,215.32732337573543,215.87190043227747,"[96, 0, 158]",158,l,0.022388171404600143,colour,0.5
172,22,1,2,4,21,171,216.39000237872824,217.01586135663092,"[42, 0, 212]",212,a,0.10371656622737646,colour,0.5
172,22,1,2,4,22,172,217.53070225846022,218.11990284593776,"[78, 0, 176]",176,l,0.06709913583472371,colour,0.5
172,22,1,2,4,23,173,218.64009611401707,219.27988542197272,"[67, 0, 187]",187,l,0.11751850275322795,colour,0.5
172,22,1,2,4,24,174,219.79624026780948,220.39187314687297,"[92, 0, 162]",162,l,0.07336325524374843,colour,0.5
172,22,1,2,4,25,175,220.90585900936276,221.51187445456162,"[84, 0, 170]",170,l,0.0844504120759666,colour,0.5
172,22,1,2,4,26,176,222.03093699086457,222.63185606943443,"[40, 0, 214]",214,a,0.07866678386926651,colour,0.5
172,22,1,2,4,27,177,223.14031194150448,223.70390742411837,"[15, 0, 239]",239,a,0.04125181585550308,colour,0.5
172,22,1,2,4,28,178,224.2186140245758,224.7998927948065,"[27, 0, 227]",227,a,0.05920528154820204,colour,0.5
172,22,1,2,4,29,179,225.3124568737112,225.87187246931717,"[83, 0, 171]",171,l,0.0371979596093297,colour,0.5
172,22,1,2,4,30,180,226.39057345502079,227.0078816441819,"[5, 0, 249]",249,a,0.09493970964103937,colour,0.5
172,22,1,2,4,31,181,227.51573650725186,228.06387235596776,"[12, 0, 242]",242,a,0.025909547694027424,colour,0.5
172,22,1,2,4,32,182,228.5783599782735,229.15984433609992,"[69, 0, 185]",185,l,0.059344309382140636,colour,0.5
172,22,1,2,4,33,183,229.67213941831142,230.24785432731733,"[56, 0, 198]",198,l,0.05339329782873392,colour,0.5
172,22,1,2,4,34,184,230.76605000859126,231.70379320858046,"[38, 0, 216]",216,a,0.41550705302506685,colour,0.5
172,22,1,2,4,35,185,232.21920085512102,232.8159085395746,"[28, 0, 226]",226,a,0.07470548246055841,colour,0.5
172,22,1,2,4,36,186,233.32869199011475,233.88786615850404,"[30, 0, 224]",224,a,0.03689312282949686,colour,0.5
172,22,1,2,4,37,187,234.40688379621133,235.0239458316937,"[90, 0, 164]",164,l,0.09524769755080342,colour,0.5
172,22,1,2,4,38,188,235.53199801174924,236.1198343168944,"[16, 0, 238]",238,a,0.06566159846261144,colour,0.5
172,22,1,2,4,39,189,236.625782571733,237.23984901513904,"[75, 0, 179]",179,l,0.09174207504838705,colour,0.5
172,22,1,2,4,40,190,237.75091135920957,238.3438873537816,"[43, 0, 211]",211,a,0.07087572431191802,colour,0.5
172,22,1,2,4,41,191,238.86038240836933,239.44788433844224,"[81, 0, 173]",173,l,0.06526381382718682,colour,0.5
172,22,1,2,4,42,192,239.95426424825564,241.71985030686483,"[29, 0, 225]",225,a,1.2433885084465146,colour,0.5
172,22,1,2,4,43,193,242.2357018175535,243.167857919354,"[82, 0, 172]",172,l,0.4101684717461467,colour,0.5
172,22,1,2,4,44,194,243.67339618038386,244.2318555181846,"[19, 0, 235]",235,a,0.036278723273426294,colour,0.5
172,22,1,2,4,45,195,244.75146943889558,245.7678703647107,"[25, 0, 229]",229,a,0.49431680329144,colour,0.5
172,22,1,2,4,46,196,246.28287707595155,246.9438422974199,"[93, 0, 161]",161,l,0.1387633392587304,colour,0.5
172,22,1,2,4,47,197,247.45483178040013,248.1118731154129,"[39, 0, 215]",215,a,0.1348138526082039,colour,0.5
172,22,1,2,4,48,198,248.62678333418444,249.22384075354785,"[99, 0, 155]",155,l,0.07477676775306463,colour,0.5
172,22,1,2,4,49,199,249.73625477729365,250.2958779297769,"[10, 0, 244]",244,a,0.03742954088374972,colour,0.5
172,22,1,2,4,50,200,250.81452180771157,251.3758747316897,"[95, 0, 159]",159,l,0.0391360754147172,colour,0.5
172,22,1,2,5,1,201,257.18917128490284,258.14386994577944,"[96, 0, 158]",158,l,0.43165158526971936,colour,0.4
172,22,1,2,5,2,202,258.6588041889481,259.21586734289303,"[80, 0, 174]",174,l,0.03479037946090102,colour,0.4
172,22,1,2,5,3,203,259.7214414444752,260.3358556535095,"[85, 0, 169]",169,l,0.0921441912651062,colour,0.4
172,22,1,2,5,4,204,260.84646980138496,261.4158835695125,"[91, 0, 163]",163,l,0.04716974450275302,colour,0.4
172,22,1,2,5,5,205,261.92471753340214,264.0798471402377,"[25, 0, 229]",229,a,1.632989164441824,colour,0.4
172,22,1,2,5,6,206,264.59680850896984,265.24781888118014,"[43, 0, 211]",211,a,0.12876122863963246,colour,0.4
172,22,1,2,5,7,207,265.7531578564085,266.32787791080773,"[7, 0, 247]",247,a,0.052522110752761364,colour,0.4
172,22,1,2,5,8,208,266.84700779477134,267.4558794107288,"[94, 0, 160]",160,l,0.08672881033271551,colour,0.4
172,22,1,2,5,9,209,267.9720948347822,268.6158320545219,"[37, 0, 217]",217,a,0.12154400208964944,colour,0.4
172,22,1,2,5,10,210,269.12842921633273,270.0478219529614,"[59, 0, 195]",195,l,0.3972121221013367,colour,0.4
172,22,1,2,5,11,211,270.566055837553,271.271821427159,"[73, 0, 181]",181,l,0.1837645685300231,colour,0.4
172,22,1,2,5,12,212,271.7848722990602,272.4558341181837,"[5, 0, 249]",249,a,0.14940663147717714,colour,0.4
172,22,1,2,5,13,213,272.9725048285909,273.58383876876906,"[42, 0, 212]",212,a,0.08921043341979384,colour,0.4
172,22,1,2,5,14,214,274.09753357898444,274.7038424392231,"[40, 0, 214]",214,a,0.0840435684658587,colour,0.4
172,22,1,2,5,15,215,275.22268205927685,275.8398689436726,"[90, 0, 164]",164,l,0.09492671303451061,colour,0.4
172,22,1,2,5,16,216,276.3477088403888,277.1278313579969,"[99, 0, 155]",155,l,0.257947810459882,colour,0.4
172,22,1,2,5,17,217,277.6447076559998,278.3518662783317,"[55, 0, 199]",199,l,0.18496816186234355,colour,0.4
172,22,1,2,5,18,218,278.86359028331935,279.55182579066604,"[15, 0, 239]",239,a,0.1660651327110827,colour,0.4
172,22,1,2,5,19,219,280.0667982371524,280.6798213827424,"[51, 0, 203]",203,a,0.09081732481718063,colour,0.4
172,22,1,2,5,20,220,281.19181162817404,281.7918532183394,"[66, 0, 188]",188,l,0.07774124667048454,colour,0.4
172,22,1,2,5,21,221,282.3013311200775,282.9038488199003,"[35, 0, 219]",219,a,0.08095187833532691,colour,0.4
172,22,1,2,5,22,222,283.41077381232753,284.0558520774357,"[92, 0, 162]",162,l,0.12285944726318121,colour,0.4
172,22,1,2,5,23,223,284.5671105571091,285.1118668136187,"[29, 0, 225]",225,a,0.02253034943714738,colour,0.4
172,22,1,2,5,24,224,285.629637141712,286.25581671018153,"[79, 0, 175]",175,l,0.10389655409380794,colour,0.4
172,22,1,2,5,25,225,286.770398855675,287.3678450011648,"[89, 0, 165]",165,l,0.07520684786140919,colour,0.4
172,22,1,2,5,26,226,287.8799049570225,288.56782459979877,"[77, 0, 177]",177,l,0.16567483125254512,colour,0.4
172,22,1,2,5,27,227,289.0830727382563,289.63186158332974,"[38, 0, 216]",216,a,0.026495590340346098,colour,0.4
172,22,1,2,5,28,228,290.14569817855954,290.74385048961267,"[83, 0, 171]",171,l,0.07598272431641817,colour,0.4
172,22,1,2,5,29,229,291.25510306144133,291.83185811759904,"[10, 0, 244]",244,a,0.05442123534157872,colour,0.4
172,22,1,2,5,30,230,292.3488943167031,292.9438218176365,"[60, 0, 194]",194,l,0.07265787711367011,colour,0.4
172,22,1,2,5,31,231,293.4584224736318,294.03181566111743,"[69, 0, 185]",185,l,0.05115861585363746,colour,0.4
172,22,1,2,5,32,232,294.552325187251,295.1039737476967,"[62, 0, 192]",192,l,0.029690074734389782,colour,0.4
172,22,1,2,5,33,233,295.60551447281614,296.21582323219627,"[32, 0, 222]",222,a,0.08807024918496609,colour,0.4
172,22,1,2,5,34,234,296.73057591263205,297.28784268535674,"[71, 0, 183]",183,l,0.03505110554397106,colour,0.4
172,22,1,2,5,35,235,297.79319426370785,298.68777746427804,"[70, 0, 184]",184,l,0.3726767026819289,colour,0.4
172,22,1,2,5,36,236,299.1996590080671,299.81581795495003,"[4, 0, 250]",250,a,0.09399526752531528,colour,0.4
172,22,1,2,5,37,237,300.3246857896447,300.9518109820783,"[41, 0, 213]",213,a,0.10495718102902174,colour,0.4
172,22,1,2,5,38,238,301.46541954018176,302.0398564194329,"[97, 0, 157]",157,l,0.05227556312456727,colour,0.4
172,22,1,2,5,39,239,302.5591706233099,303.14382347185165,"[98, 0, 156]",156,l,0.06227806769311428,colour,0.4
172,22,1,2,5,40,240,303.6530461618677,304.30382062029094,"[82, 0, 172]",172,l,0.1285820286720991,colour,0.4
172,22,1,2,5,41,241,304.8094108691439,305.42383610643446,"[56, 0, 198]",198,l,0.09224541019648314,colour,0.4
172,22,1,2,5,42,242,305.93446049373597,306.5678092399612,"[14, 0, 240]",240,a,0.11123469145968556,colour,0.4
172,22,1,2,5,43,243,307.07518085371703,307.78381679207087,"[53, 0, 201]",201,l,0.18643523752689362,colour,0.4
172,22,1,2,5,44,244,308.2940965644084,308.92780922399834,"[11, 0, 243]",243,a,0.11152653116732836,colour,0.4
172,22,1,2,5,45,245,309.43472200771794,310.0718004745431,"[87, 0, 167]",167,l,0.114979378413409,colour,0.4
172,22,1,2,5,46,246,310.5911028627306,311.25583049468696,"[76, 0, 178]",178,l,0.14249581703916192,colour,0.4
172,22,1,2,5,47,247,311.7630406320095,312.3598018796183,"[3, 0, 251]",251,a,0.07444042386487126,colour,0.4
172,22,1,2,5,48,248,312.8725932072848,313.43981404136866,"[31, 0, 223]",223,a,0.04502643458545208,colour,0.4
172,22,1,2,5,49,249,313.95071451505646,314.54382520448416,"[19, 0, 235]",235,a,0.07099781651049852,colour,0.4
172,22,1,2,5,50,250,315.0602332195267,315.63183165108785,"[64, 0, 190]",190,l,0.04944420466199517,colour,0.4
172,22,1,2,6,1,251,319.98169876774773,320.6398188462481,"[37, 0, 217]",217,a,0.13513404922559857,colour,0.28
172,22,1,2,6,2,252,321.1544549483806,322.0237969579175,"[89, 0, 165]",165,l,0.3470649025402963,colour,0.28
172,22,1,2,6,3,253,322.52955853007734,323.06384557439014,"[56, 0, 198]",198,l,0.012090675998479128,colour,0.28
172,22,1,2,6,4,254,323.5765073271468,324.4237652141601,"[94, 0, 160]",160,l,0.3249532110057771,colour,0.28
172,22,1,2,6,5,255,324.93597128707916,325.4718230809085,"[88, 0, 166]",166,l,0.01379799796268344,colour,0.28
172,22,1,2,6,6,256,325.9829169330187,326.5118236481212,"[4, 0, 250]",250,a,0.006636303849518299,colour,0.28
172,22,1,2,6,7,257,327.02987636392936,327.6158348112367,"[93, 0, 161]",161,l,0.06369788199663162,colour,0.28
172,22,1,2,6,8,258,328.1236652559601,328.68781172903255,"[61, 0, 193]",193,l,0.04185715690255165,colour,0.28
172,22,1,2,6,9,259,329.20254944311455,329.7518372912891,"[50, 0, 204]",204,l,0.027895319275557995,colour,0.28
172,22,1,2,6,10,260,330.26455142488703,330.8477895790711,"[11, 0, 243]",243,a,0.06099649332463741,colour,0.28
172,22,1,2,6,11,261,331.35840057581663,331.9358507702127,"[46, 0, 208]",208,a,0.055334958247840405,colour,0.28
172,22,1,2,6,12,262,332.4522552401759,333.01580818742514,"[67, 0, 187]",187,l,0.04156334791332483,colour,0.28
172,22,1,2,6,13,263,333.53037221590057,334.14382268395275,"[72, 0, 182]",182,l,0.09123243810608983,colour,0.28
172,22,1,2,6,14,264,334.6554754031822,335.22379231080413,"[85, 0, 169]",169,l,0.046034286729991436,colour,0.28
172,22,1,2,6,15,265,335.73376606497914,336.60777632985264,"[86, 0, 168]",168,l,0.35177411837503314,colour,0.28
172,22,1,2,6,16,266,337.12452974775806,337.68781527364627,"[78, 0, 176]",176,l,0.04110727412626147,colour,0.28
172,22,1,2,6,17,267,338.2026419970207,338.7837848905474,"[65, 0, 189]",189,l,0.059103669598698616,colour,0.28
172,22,1,2,6,18,268,339.2965159602463,340.12777976412326,"[76, 0, 178]",178,l,0.30905837705358863,colour,0.28
172,22,1,2,6,19,269,340.64029382448643,341.1678216853179,"[70, 0, 184]",184,l,0.005247997120022774,colour,0.28
172,22,1,2,6,20,270,341.6872512861155,342.28777730697766,"[68, 0, 186]",186,l,0.07825088314712048,colour,0.28
172,22,1,2,6,21,271,342.7967695966363,343.3678138870746,"[8, 0, 246]",246,a,0.04878845112398267,colour,0.28
172,22,1,2,6,22,272,343.87496534129605,344.5598181062378,"[63, 0, 191]",191,l,0.16268435958772898,colour,0.28
172,22,1,2,6,23,273,345.07827687682584,345.6318032941781,"[7, 0, 247]",247,a,0.03133556293323636,colour,0.28
172,22,1,2,6,24,274,346.14075935073197,346.7198065901175,"[71, 0, 183]",183,l,0.05682251416146755,colour,0.28
172,22,1,2,6,25,275,347.2346419780515,347.8397929314524,"[54, 0, 200]",200,l,0.08310424629598856,colour,0.28
172,22,1,2,6,26,276,348.3597246860154,348.9438293008134,"[64, 0, 190]",190,l,0.06189840054139495,colour,0.28
172,22,1,2,6,27,277,349.45351594127715,350.07179771736264,"[81, 0, 173]",173,l,0.09600270027294755,colour,0.28
172,22,1,2,6,28,278,350.5786691471003,351.44776697224006,"[36, 0, 218]",218,a,0.3468683734536171,colour,0.28
172,22,1,2,6,29,279,351.95371877169237,352.55178364925086,"[23, 0, 231]",231,a,0.07576492754742503,colour,0.28
172,22,1,2,6,30,280,353.06316815922037,353.6398223908618,"[59, 0, 195]",195,l,0.054299930576235056,colour,0.28
172,22,1,2,6,31,281,354.1570220361464,354.78379355510697,"[99, 0, 155]",155,l,0.10449559334665537,colour,0.28
172,22,1,2,6,32,282,355.2977471225895,355.87185002025217,"[18, 0, 236]",236,a,0.052149138413369656,colour,0.28
172,22,1,2,6,33,283,356.39163644518703,356.98382947407663,"[90, 0, 164]",164,l,0.07010221108794212,colour,0.28
172,22,1,2,6,34,284,357.50103227002546,358.19180335709825,"[38, 0, 216]",216,a,0.16860425705090165,colour,0.28
172,22,1,2,6,35,285,358.7042516451329,359.41581543395296,"[58, 0, 196]",196,l,0.18924493389204144,colour,0.28
172,22,1,2,6,36,286,359.92317759618163,360.5277941003442,"[62, 0, 192]",192,l,0.08245085598900914,colour,0.28
172,22,1,2,6,37,287,361.0325986267999,361.87181851267815,"[84, 0, 170]",170,l,0.317053843755275,colour,0.28
172,22,1,2,6,38,288,362.3921126052737,363.015813307371,"[82, 0, 172]",172,l,0.10149566922336817,colour,0.28
172,22,1,2,6,39,289,363.53272190038115,364.1437903889455,"[75, 0, 179]",179,l,0.0887709017843008,colour,0.28
172,22,1,2,6,40,290,364.6579270940274,365.2957759234123,"[52, 0, 202]",202,a,0.11561504518613219,colour,0.28
172,22,1,2,6,41,291,365.8142681713216,366.35177805647254,"[47, 0, 207]",207,a,0.015315486118197441,colour,0.28
172,22,1,2,6,42,292,366.8610200448893,367.4717801520601,"[20, 0, 234]",234,a,0.08694542571902275,colour,0.28
172,22,1,2,6,43,293,367.987663957756,368.5757649275474,"[98, 0, 156]",156,l,0.06581283500418067,colour,0.28
172,22,1,2,6,44,294,369.08154894877225,369.62378813605756,"[96, 0, 158]",158,l,0.020035729743540287,colour,0.28
172,22,1,2,6,45,295,370.14407395757735,370.7917846888304,"[57, 0, 197]",197,a,0.12612009746953845,colour,0.28
172,22,1,2,6,46,296,371.3004229115322,371.8878035368398,"[66, 0, 188]",188,l,0.06511218287050724,colour,0.28
172,22,1,2,6,47,297,372.3943311390467,372.93582910858095,"[97, 0, 157]",157,l,0.01929963193833828,colour,0.28
172,22,1,2,6,48,298,373.4412437020801,374.0077599459328,"[22, 0, 232]",232,a,0.04417493985965848,colour,0.28
172,22,1,2,6,49,299,374.5194520498626,375.1037969109602,"[12, 0, 242]",242,a,0.062353686429560184,colour,0.28
172,22,1,2,6,50,300,375.61331301601604,376.20777184003964,"[51, 0, 203]",203,a,0.07224276335909963,colour,0.28
172,22,1,2,7,1,301,380.59728033607826,381.83173248078674,"[95, 0, 159]",159,a,0.7114180657081306,colour,0.14
172,22,1,2,7,2,302,382.3482212340459,382.91180253820494,"[61, 0, 193]",193,a,0.042028873693197966,colour,0.14
172,22,1,2,7,3,303,383.42640319420025,383.9757985617034,"[57, 0, 197]",197,a,0.027146617881953716,colour,0.14
172,22,1,2,7,4,304,384.488964043092,385.0477557871491,"[64, 0, 190]",190,a,0.036462255753576756,colour,0.14
172,22,1,2,7,5,305,385.5671357633546,386.18377874651924,"[97, 0, 157]",157,l,0.09434185177087784,colour,0.14
172,22,1,2,7,6,306,386.6922550983727,387.22420506132767,"[96, 0, 158]",158,l,0.009737052954733372,colour,0.14
172,22,1,2,7,7,307,387.73918026452884,388.30378990015015,"[98, 0, 156]",156,l,0.04233804251998663,colour,0.14
172,22,1,2,7,8,308,388.81745005212724,389.4077920052223,"[80, 0, 174]",174,l,0.06818575691431761,colour,0.14
172,22,1,2,7,9,309,389.9269021968357,390.5277763772756,"[71, 0, 183]",183,l,0.07861282723024487,colour,0.14
172,22,1,2,7,10,310,391.0364035721868,391.58380174729973,"[72, 0, 182]",182,l,0.025305781979113817,colour,0.14
172,22,1,2,7,11,311,392.09899868583307,392.7597661972977,"[99, 0, 155]",155,l,0.13861801056191325,colour,0.14
172,22,1,2,7,12,312,393.2709006150253,393.8877696660347,"[8, 0, 246]",246,a,0.09453365486115217,colour,0.14
172,22,1,2,7,13,313,394.395938818343,395.3997666067444,"[51, 0, 203]",203,l,0.48150026937946677,colour,0.14
172,22,1,2,7,14,314,395.91654011048377,396.5997804701328,"[63, 0, 191]",191,l,0.1663341294042766,colour,0.14
172,22,1,2,7,15,315,397.11468163039535,397.63979285256937,"[79, 0, 175]",175,l,0.0029865335673093796,colour,0.14
172,22,1,2,7,16,316,398.16162176290527,398.79178075073287,"[62, 0, 192]",192,a,0.10794804710894823,colour,0.14
172,22,1,2,7,17,317,399.3023641780019,400.1997133586556,"[74, 0, 180]",180,l,0.37533398112282157,colour,0.14
172,22,1,2,7,18,318,400.7087332182564,401.4077770388685,"[54, 0, 200]",200,a,0.1767879817634821,colour,0.14
172,22,1,2,7,19,319,401.92753825802356,402.51977815432474,"[90, 0, 164]",164,l,0.06998130027204752,colour,0.14
172,22,1,2,7,20,320,403.0370097011328,403.6317965989001,"[50, 0, 204]",204,a,0.07261140318587422,colour,0.14
172,22,1,2,7,21,321,404.1464933534153,404.67179756006226,"[53, 0, 201]",201,a,0.0030369460582733154,colour,0.14
172,22,1,2,7,22,322,405.19347917148843,405.73577113449574,"[52, 0, 202]",202,a,0.02085020300000906,colour,0.14
172,22,1,2,7,23,323,406.256075466983,406.8237901837565,"[92, 0, 162]",162,l,0.04550101887434721,colour,0.14
172,22,1,2,7,24,324,407.3342483686283,407.87180078960955,"[59, 0, 195]",195,a,0.01544388011097908,colour,0.14
172,22,1,2,7,25,325,408.3811751101166,408.95174796693027,"[77, 0, 177]",177,l,0.04907241417095065,colour,0.14
172,22,1,2,7,26,326,409.45929681137204,410.023740244098,"[56, 0, 198]",198,a,0.04212063970044255,colour,0.14
172,22,1,2,7,27,327,410.5375921991654,411.167785057798,"[76, 0, 178]",178,l,0.1078850319609046,colour,0.14
172,22,1,2,7,28,328,411.67832713155076,412.2397852120921,"[83, 0, 171]",171,l,0.03923965711146593,colour,0.14
172,22,1,2,7,29,329,412.7565220883116,414.85578504484147,"[91, 0, 163]",163,l,1.576989394146949,colour,0.14
172,22,1,2,7,30,330,415.36606402974576,415.9517483608797,"[55, 0, 199]",199,l,0.06405549449846148,colour,0.14
172,22,1,2,7,31,331,416.45997225726023,417.047728611622,"[49, 0, 205]",205,a,0.06553989974781871,colour,0.14
172,22,1,2,7,32,332,417.5537820234895,418.13577838102356,"[2, 0, 252]",252,a,0.05976769374683499,colour,0.14
172,22,1,2,7,33,333,418.6475185342133,419.21574328141287,"[70, 0, 184]",184,l,0.045961818657815456,colour,0.14
172,22,1,2,7,34,334,419.72584464168176,420.3037300356664,"[69, 0, 185]",185,l,0.05569926556199789,colour,0.14
172,22,1,2,7,35,335,420.8196288077161,421.39173648227006,"[85, 0, 169]",169,l,0.0501031088642776,colour,0.14
172,22,1,2,7,36,336,421.89787535881624,422.43178746150807,"[67, 0, 187]",187,l,0.011730306781828403,colour,0.14
172,22,1,2,7,37,337,422.9448013124056,423.5117523618974,"[94, 0, 160]",160,l,0.044731838162988424,colour,0.14
172,22,1,2,7,38,338,424.02311560465023,424.8797470247373,"[88, 0, 166]",166,l,0.3345260298810899,colour,0.14
172,22,1,2,7,39,339,425.3981699552387,426.26369244698435,"[84, 0, 170]",170,l,0.3432729537598789,colour,0.14
172,22,1,2,7,40,340,426.7732306076214,427.3677642624825,"[11, 0, 243]",243,a,0.0722837233915925,colour,0.14
172,22,1,2,7,41,341,427.8826603027992,428.4637413630262,"[37, 0, 217]",217,a,0.05875708535313606,colour,0.14
172,22,1,2,7,42,342,428.9765051212162,429.5357860219665,"[89, 0, 165]",165,l,0.03699434129521251,colour,0.14
172,22,1,2,7,43,343,430.054718982894,430.5997509318404,"[3, 0, 251]",251,a,0.022676860447973013,colour,0.14
172,22,1,2,7,44,344,431.1173715982586,431.7117662252858,"[34, 0, 220]",220,a,0.07228923728689551,colour,0.14
172,22,1,2,7,45,345,432.2267654533498,432.83177147153765,"[75, 0, 179]",179,l,0.08985909773036838,colour,0.14
172,22,1,2,7,46,346,433.3448822083883,433.9197672843002,"[86, 0, 168]",168,l,0.05264577828347683,colour,0.14
172,22,1,2,7,47,347,434.4386549531482,434.96776804327965,"[65, 0, 189]",189,l,0.0067895096726715565,colour,0.14
172,22,1,2,7,48,348,435.4856328945607,436.01575304893777,"[60, 0, 194]",194,l,0.007980105932801962,colour,0.14
172,22,1,2,7,49,349,436.53269826993346,437.0797581314109,"[87, 0, 167]",167,l,0.024841831531375647,colour,0.14
172,22,1,2,7,50,350,437.59518310660496,438.47970787622035,"[66, 0, 188]",188,l,0.36295697931200266,colour,0.14
172,22,1,2,8,1,351,442.7823193897493,443.35974319651723,"[86, 0, 168]",168,l,0.05480366013944149,colour,0.06
172,22,1,2,8,2,352,443.876987346448,444.51173857739195,"[63, 0, 191]",191,l,0.11248593963682652,colour,0.06
172,22,1,2,8,3,353,445.0176868326962,445.5597633612342,"[74, 0, 180]",180,l,0.019956566393375397,colour,0.06
172,22,1,2,8,4,354,446.08027446316555,446.62378183426335,"[71, 0, 183]",183,l,0.021306276321411133,colour,0.06
172,22,1,2,8,5,355,447.14287981716916,447.67174754152074,"[98, 0, 156]",156,l,0.006694986950606108,colour,0.06
172,22,1,2,8,6,356,448.1897640232928,448.81575100077316,"[61, 0, 193]",193,l,0.10370790166780353,colour,0.06
172,22,1,2,8,7,357,449.33047886937857,449.9037716258317,"[59, 0, 195]",195,a,0.051016831304877996,colour,0.06
172,22,1,2,8,8,358,450.42433510906994,450.9597481591627,"[53, 0, 201]",201,a,0.013127278536558151,colour,0.06
172,22,1,2,8,9,359,451.4712906014174,452.0077930293046,"[88, 0, 166]",166,l,0.014212717767804861,colour,0.06
172,22,1,2,8,10,360,452.5182779952884,453.1277214749716,"[77, 0, 177]",177,l,0.08740543760359287,colour,0.06
172,22,1,2,8,11,361,453.64338709041476,454.2077210340649,"[57, 0, 197]",197,a,0.04218444274738431,colour,0.06
172,22,1,2,8,12,362,454.721539511811,455.25575330108404,"[73, 0, 181]",181,l,0.011902811471372843,colour,0.06
172,22,1,2,8,13,363,455.76847097976133,456.3117310157977,"[93, 0, 161]",161,l,0.02119245519861579,colour,0.06
172,22,1,2,8,14,364,456.83109681354836,457.40772071899846,"[96, 0, 158]",158,l,0.05444644158706069,colour,0.06
172,22,1,2,8,15,365,457.92495187185705,458.50370845291764,"[64, 0, 190]",190,l,0.056627954356372356,colour,0.06
172,22,1,2,8,16,366,459.01876400085166,459.8957080245018,"[42, 0, 212]",212,a,0.3548500551842153,colour,0.06
172,22,1,2,8,17,367,460.4095840039663,461.24770427215844,"[55, 0, 199]",199,a,0.31598573364317417,colour,0.06
172,22,1,2,8,18,368,461.75336856395006,462.3437546277419,"[50, 0, 204]",204,a,0.06821371987462044,colour,0.06
172,22,1,2,8,19,369,462.8627935331315,463.47976459003985,"[67, 0, 187]",187,l,0.09468410396948457,colour,0.06
172,22,1,2,8,20,370,463.98792980378494,464.6157276853919,"[60, 0, 194]",194,a,0.10553377168253064,colour,0.06
172,22,1,2,8,21,371,465.1286155055277,465.7677195216529,"[72, 0, 182]",182,l,0.11686983844265342,colour,0.06
172,22,1,2,8,22,372,466.2849794253707,466.93573379796,"[94, 0, 160]",160,l,0.12865922274067998,colour,0.06
172,22,1,2,8,23,373,467.44134531449527,468.1277616475709,"[65, 0, 189]",189,l,0.16423374926671386,colour,0.06
172,22,1,2,8,24,374,468.64456862816587,469.287868285086,"[51, 0, 203]",203,a,0.12111667916178703,colour,0.06
172,22,1,2,8,25,375,469.80086913891137,470.39170851930976,"[68, 0, 186]",186,l,0.06869933195412159,colour,0.06
172,22,1,2,8,26,376,470.9103153757751,471.5117381834425,"[78, 0, 176]",176,l,0.07912955293431878,colour,0.06
172,22,1,2,8,27,377,472.0197580680251,472.67174005834386,"[79, 0, 175]",175,l,0.1298352461308241,colour,0.06
172,22,1,2,8,28,378,473.19172064960003,473.8237275625579,"[85, 0, 169]",169,l,0.10985662462189794,colour,0.06
172,22,1,2,8,29,379,474.3325394708663,474.9437465928495,"[75, 0, 179]",179,l,0.08902296237647533,colour,0.06
172,22,1,2,8,30,380,475.4575942158699,476.04783967603,"[70, 0, 184]",184,l,0.06736576929688454,colour,0.06
172,22,1,2,8,31,381,476.56696798466146,477.4877253980376,"[54, 0, 200]",200,a,0.3984539187513292,colour,0.06
172,22,1,2,8,32,382,478.0046556526795,478.83977914694697,"[81, 0, 173]",173,l,0.31288459058851004,colour,0.06
172,22,1,2,8,33,383,479.3484949572012,480.10369805572554,"[92, 0, 162]",162,l,0.2329563181847334,colour,0.06
172,22,1,2,8,34,384,480.614206652157,481.2316908906214,"[82, 0, 172]",172,l,0.09522682381793857,colour,0.06
172,22,1,2,8,35,385,481.7392838462256,482.37574318703264,"[83, 0, 171]",171,l,0.11444847378879786,colour,0.06
172,22,1,2,8,36,386,482.89564973535016,483.57571097044274,"[52, 0, 202]",202,a,0.15783808520063758,colour,0.06
172,22,1,2,8,37,387,484.08329644287005,484.82373819639906,"[2, 0, 252]",252,a,0.21825759438797832,colour,0.06
172,22,1,2,8,38,388,485.3333618212491,485.93571843765676,"[95, 0, 159]",159,l,0.080116530880332,colour,0.06
172,22,1,2,8,39,389,486.44280215073377,487.0397162102163,"[87, 0, 167]",167,l,0.0746357711032033,colour,0.06
172,22,1,2,8,40,390,487.5522385411896,488.23172673070803,"[97, 0, 157]",157,l,0.15748244244605303,colour,0.06
172,22,1,2,8,41,391,488.739919513464,489.36772330245003,"[91, 0, 163]",163,l,0.10568303894251585,colour,0.06
172,22,1,2,8,42,392,489.88060600264,490.4557206905447,"[89, 0, 165]",165,l,0.053140842355787754,colour,0.06
172,22,1,2,8,43,393,490.9744437318295,491.63970384327695,"[17, 0, 237]",237,a,0.14304641354829073,colour,0.06
172,22,1,2,8,44,394,492.14637756254524,492.90370624745265,"[56, 0, 198]",198,l,0.2351500396616757,colour,0.06
172,22,1,2,8,45,395,493.41214282112196,494.11979414429516,"[76, 0, 178]",178,l,0.18547464720904827,colour,0.06
172,22,1,2,8,46,396,494.6309545561671,495.32773061236367,"[62, 0, 192]",192,l,0.1744768936187029,colour,0.06
172,22,1,2,8,47,397,495.834224737715,496.3917010361329,"[58, 0, 196]",196,l,0.035340188536792994,colour,0.06
172,22,1,2,8,48,398,496.8967221779749,497.51971395732835,"[84, 0, 170]",170,l,0.10067725740373135,colour,0.06
172,22,1,2,8,49,399,498.03746853163466,498.6957091274671,"[90, 0, 164]",164,l,0.13597097201272845,colour,0.06
172,22,1,2,8,50,400,499.2093661283143,499.91975743789226,"[66, 0, 188]",188,l,0.1881201104260981,colour,0.06
172,22,1,2,9,1,401,508.63445781590417,509.4797015748918,"[52, 0, 202]",202,a,0.32245032023638487,colour,0.06
172,22,1,2,9,2,402,509.9948260458186,510.69568864721805,"[90, 0, 164]",164,l,0.1786512667313218,colour,0.06
172,22,1,2,9,3,403,511.2135684643872,511.7437154003419,"[87, 0, 167]",167,l,0.020407126285135746,colour,0.06
172,22,1,2,9,4,404,512.2637511300854,512.8157159485854,"[67, 0, 187]",187,l,0.029778690077364445,colour,0.06
172,22,1,2,9,5,405,513.3262785025872,513.8877318571322,"[65, 0, 189]",189,l,0.039182549342513084,colour,0.06
172,22,1,2,9,6,406,514.4045392316766,514.9437009068206,"[68, 0, 186]",186,l,0.016910956241190434,colour,0.06
172,22,1,2,9,7,407,515.4514667605981,515.9917111187242,"[81, 0, 173]",173,l,0.018138180021196604,colour,0.06
172,22,1,2,9,8,408,516.4984324928373,517.0557244713418,"[57, 0, 197]",197,l,0.035001874435693026,colour,0.06
172,22,1,2,9,9,409,517.5610114592128,518.1117254230194,"[89, 0, 165]",165,l,0.028508930932730436,colour,0.06
172,22,1,2,9,10,410,518.6237558405846,519.1597427241504,"[85, 0, 169]",169,l,0.014352533500641584,colour,0.06
172,22,1,2,9,11,411,519.670362779405,520.2557662981562,"[61, 0, 193]",193,a,0.06296769203618169,colour,0.06
172,22,1,2,9,12,412,520.7644009757787,521.3357233214192,"[77, 0, 177]",177,l,0.04908304801210761,colour,0.06
172,22,1,2,9,13,413,521.8427038467489,522.399704772979,"[76, 0, 178]",178,l,0.0348132224753499,colour,0.06
172,22,1,2,9,14,414,522.9052052251063,523.4956905376166,"[59, 0, 195]",195,a,0.06823380570858717,colour,0.06
172,22,1,2,9,15,415,524.0147046311758,524.5437267431989,"[66, 0, 188]",188,l,0.00687418645247817,colour,0.06
172,22,1,2,9,16,416,525.0616412186064,525.6237243330106,"[82, 0, 172]",172,l,0.039908407256007195,colour,0.06
172,22,1,2,9,17,417,526.1398794986308,526.7117276284844,"[92, 0, 162]",162,l,0.04966751532629132,colour,0.06
172,22,1,2,9,18,418,527.218059095554,527.783713998273,"[98, 0, 156]",156,l,0.04353690939024091,colour,0.06
172,22,1,2,9,19,419,528.2962449942715,528.847697025165,"[74, 0, 180]",180,l,0.02924305945634842,colour,0.06
172,22,1,2,9,20,420,529.3588668894954,530.1916631483473,"[99, 0, 155]",155,l,0.31061721965670586,colour,0.06
172,22,1,2,9,21,421,530.7026904402301,531.4396931310184,"[83, 0, 171]",171,l,0.214991036336869,colour,0.06
172,22,1,2,9,22,422,531.9527826001868,532.4877104316838,"[80, 0, 174]",174,l,0.012931536883115768,colour,0.06
172,22,1,2,9,23,423,532.9998200121336,533.7197045837529,"[60, 0, 194]",194,a,0.19775436911731958,colour,0.06
172,22,1,2,9,24,424,534.2342501012608,534.8476769388653,"[51, 0, 203]",203,a,0.09131947811692953,colour,0.06
172,22,1,2,9,25,425,535.3593729813583,535.9437509253621,"[71, 0, 183]",183,l,0.062175667844712734,colour,0.06
172,22,1,2,9,26,426,536.45315596601,537.0797360758297,"[86, 0, 168]",168,l,0.1141901109367609,colour,0.06
172,22,1,2,9,27,427,537.5846004667692,538.1997165093198,"[29, 0, 225]",225,a,0.0928869848139584,colour,0.06
172,22,1,2,9,28,428,538.7098095989786,539.2717288732529,"[64, 0, 190]",190,l,0.03968824725598097,colour,0.06
172,22,1,2,9,29,429,539.7880963217467,540.3517004689202,"[93, 0, 161]",161,l,0.041877636685967445,colour,0.06
172,22,1,2,9,30,430,540.866262528114,541.4557147826999,"[88, 0, 166]",166,l,0.06720547378063202,colour,0.06
172,22,1,2,9,31,431,541.9757650848478,542.5117098265328,"[55, 0, 199]",199,a,0.013731437735259533,colour,0.06
172,22,1,2,9,32,432,543.022706004791,543.5837056487799,"[97, 0, 157]",157,l,0.03830033401027322,colour,0.06
172,22,1,2,9,33,433,544.1014350168407,544.6716998862103,"[62, 0, 192]",192,a,0.04817247623577714,colour,0.06
172,22,1,2,9,34,434,545.1796473027207,545.7676659584977,"[6, 0, 248]",248,a,0.06582740694284439,colour,0.06
172,22,1,2,9,35,435,546.2734310752712,546.8716731835157,"[75, 0, 179]",179,l,0.07600281061604619,colour,0.06
172,22,1,2,9,36,436,547.3829352073371,547.935683385469,"[50, 0, 204]",204,a,0.03051084978505969,colour,0.06
172,22,1,2,9,37,437,548.4455275642686,549.0236851060763,"[69, 0, 185]",185,l,0.0566929392516613,colour,0.06
172,22,1,2,9,38,438,549.5393617488444,550.1436671148986,"[79, 0, 175]",175,l,0.08208654820919037,colour,0.06
172,22,1,2,9,39,439,550.6487981397659,551.2476609488949,"[84, 0, 170]",170,l,0.07659003464505076,colour,0.06
172,22,1,2,9,40,440,551.758267219644,552.3436699504964,"[70, 0, 184]",184,l,0.06319336546584964,colour,0.06
172,22,1,2,9,41,441,552.852100616321,553.3996760221198,"[95, 0, 159]",159,l,0.02556926477700472,colour,0.06
172,22,1,2,9,42,442,553.9146760380827,554.4796960609965,"[54, 0, 200]",200,a,0.04278899636119604,colour,0.06
172,22,1,2,9,43,443,554.9928898992948,555.5516859753989,"[72, 0, 182]",182,l,0.03654496278613806,colour,0.06
172,22,1,2,9,44,444,556.0711006103083,556.6796752661467,"[78, 0, 176]",176,l,0.08624792471528053,colour,0.06
172,22,1,2,9,45,445,557.1961659886874,557.7516955067404,"[39, 0, 215]",215,a,0.03327289130538702,colour,0.06
172,22,1,2,9,46,446,558.2587394407019,558.8316962467507,"[73, 0, 181]",181,l,0.0507352314889431,colour,0.06
172,22,1,2,9,47,447,559.33698126534,559.9036747398786,"[63, 0, 191]",191,l,0.04446914279833436,colour,0.06
172,22,1,2,9,48,448,560.4151900070719,560.9677073913626,"[96, 0, 158]",158,a,0.030240671709179878,colour,0.06
172,22,1,2,9,49,449,561.4777697608806,562.3356453399174,"[91, 0, 163]",163,l,0.3356240722350776,colour,0.06
172,22,1,2,9,50,450,562.8532069297507,563.4236663589254,"[58, 0, 196]",196,a,0.048781361896544695,colour,0.06
172,22,1,2,10,1,451,567.6994230942801,569.487682074774,"[55, 0, 199]",199,l,1.2650976893492043,colour,0.06
172,22,1,2,10,2,452,569.9973387829959,570.5356863788329,"[69, 0, 185]",185,l,0.016168950591236353,colour,0.06
172,22,1,2,10,3,453,571.044236773625,572.1356751937419,"[76, 0, 178]",178,l,0.5691959718242288,colour,0.06
172,22,1,2,10,4,454,572.6537700504996,573.2476798533462,"[86, 0, 168]",168,l,0.07165356958284974,colour,0.06
172,22,1,2,10,5,455,573.763163512107,574.4316641879268,"[65, 0, 189]",189,l,0.14622475067153573,colour,0.06
172,22,1,2,10,6,456,574.9508220348507,575.4956909315661,"[66, 0, 188]",188,l,0.022766657173633575,colour,0.06
172,22,1,2,10,7,457,576.0134132103994,576.5917050535791,"[67, 0, 187]",187,l,0.05609232420101762,colour,0.06
172,22,1,2,10,8,458,577.107146570459,577.7037550057285,"[98, 0, 156]",156,l,0.07430690992623568,colour,0.06
172,22,1,2,10,9,459,578.216677878052,578.823657064233,"[59, 0, 195]",195,a,0.08474303921684623,colour,0.06
172,22,1,2,10,10,460,579.3417393178679,579.9916894570924,"[28, 0, 226]",226,a,0.1277376231737435,colour,0.06
172,22,1,2,10,11,461,580.4981189914979,581.0956517835148,"[10, 0, 244]",244,a,0.07526631886139512,colour,0.06
172,22,1,2,10,12,462,581.6074805515818,582.263671179302,"[92, 0, 162]",162,l,0.13381624082103372,colour,0.06
172,22,1,2,10,13,463,582.7795345056802,583.3356725154445,"[94, 0, 160]",160,l,0.04631155403330922,colour,0.06
172,22,1,2,10,14,464,583.8454048419371,584.4076514020562,"[85, 0, 169]",169,l,0.04000805038958788,colour,0.06
172,22,1,2,10,15,465,584.9234777064994,585.5036769453436,"[91, 0, 163]",163,l,0.05889217462390661,colour,0.06
172,22,1,2,10,16,466,586.0174241373315,586.5597019214183,"[74, 0, 180]",180,l,0.02010859129950404,colour,0.06
172,22,1,2,10,17,467,587.079988530837,587.6316981376149,"[99, 0, 155]",155,l,0.029438801109790802,colour,0.06
172,22,1,2,10,18,468,588.1425974294543,588.6716837384738,"[73, 0, 181]",181,l,0.007379097398370504,colour,0.06
172,22,1,2,10,19,469,589.1895887618884,589.7436464773491,"[50, 0, 204]",204,a,0.031805421225726604,colour,0.06
172,22,1,2,10,20,470,590.2522000232711,590.839779146947,"[54, 0, 200]",200,a,0.06617714278399944,colour,0.06
172,22,1,2,10,21,471,591.345904238522,593.591643219348,"[77, 0, 177]",177,l,1.7243913505226374,colour,0.06
172,22,1,2,10,22,472,594.1117675644346,595.0156876705587,"[16, 0, 238]",238,a,0.38164811907336116,colour,0.06
172,22,1,2,10,23,473,595.5337628354318,596.415650412906,"[75, 0, 179]",179,l,0.359853473957628,colour,0.06
172,22,1,2,10,24,474,596.9243595274165,597.5916633056477,"[95, 0, 159]",159,l,0.14487700955942273,colour,0.06
172,22,1,2,10,25,475,598.0964406565763,598.8476284961216,"[84, 0, 170]",170,l,0.22886701580137014,colour,0.06
172,22,1,2,10,26,476,599.3621874041855,599.9756741067395,"[79, 0, 175]",175,l,0.091278912499547,colour,0.06
172,22,1,2,10,27,477,600.4872697182,601.1196665382013,"[62, 0, 192]",192,l,0.11019336245954037,colour,0.06
172,22,1,2,10,28,478,601.6280385209247,602.2636566073634,"[53, 0, 201]",201,a,0.11340911453589797,colour,0.06
172,22,1,2,10,29,479,602.7687447024509,603.4076399807818,"[52, 0, 202]",202,a,0.11691867560148239,colour,0.06
172,22,1,2,10,30,480,603.9250897178426,604.5276668881997,"[64, 0, 190]",190,l,0.08036071574315429,colour,0.06
172,22,1,2,10,31,481,605.0345997577533,605.6796453339048,"[57, 0, 197]",197,a,0.1230177734978497,colour,0.06
172,22,1,2,10,32,482,606.1908707302064,606.8236334333196,"[70, 0, 184]",184,l,0.11051907343789935,colour,0.06
172,22,1,2,10,33,483,607.3316489853896,607.8716712142341,"[87, 0, 167]",167,l,0.01785973133519292,colour,0.06
172,22,1,2,10,34,484,608.3785406746902,609.0156825506128,"[81, 0, 173]",173,l,0.12387872068211436,colour,0.06
172,22,1,2,10,35,485,609.5261005628854,610.1036779694259,"[90, 0, 164]",164,l,0.05533850286155939,colour,0.06
172,22,1,2,10,36,486,610.619974526111,611.1437017736025,"[88, 0, 166]",166,l,0.0015423009172081947,colour,0.06
172,22,1,2,10,37,487,611.6668898458593,613.247662524227,"[82, 0, 172]",172,l,1.0586349931545556,colour,0.06
172,22,1,2,10,38,488,613.7607909841463,614.3116435818374,"[60, 0, 194]",194,a,0.02855501091107726,colour,0.06
172,22,1,2,10,39,489,614.8234128793702,615.3516839272343,"[58, 0, 196]",196,l,0.00602505449205637,colour,0.06
172,22,1,2,10,40,490,615.8703683717176,617.4316783663817,"[89, 0, 165]",165,l,1.0391345000825822,colour,0.06
172,22,1,2,10,41,491,617.9486743933521,618.8076243842952,"[61, 0, 193]",193,a,0.3369619669392705,colour,0.06
172,22,1,2,10,42,492,619.3234400548972,620.0716338776983,"[63, 0, 191]",191,a,0.22591829113662243,colour,0.06
172,22,1,2,10,43,493,620.5891356025822,621.1596635608003,"[71, 0, 183]",183,l,0.0481389993801713,colour,0.06
172,22,1,2,10,44,494,621.6673191380687,622.519776972942,"[78, 0, 176]",176,l,0.3310479768551886,colour,0.06
172,22,1,2,10,45,495,623.0268610795029,623.9516408406198,"[93, 0, 161]",161,l,0.4025117130950093,colour,0.06
172,22,1,2,10,46,496,624.4645306300372,625.0076729059219,"[68, 0, 186]",186,l,0.02096363063901663,colour,0.06
172,22,1,2,10,47,497,625.5270343716256,626.1036464618519,"[83, 0, 171]",171,l,0.05437870044261217,colour,0.06
172,22,1,2,10,48,498,626.6208925805986,627.2156586046331,"[72, 0, 182]",182,l,0.07239754498004913,colour,0.06
172,22,1,2,10,49,499,627.7303841100074,628.3196555892937,"[97, 0, 157]",157,l,0.0670506926253438,colour,0.06
172,22,1,2,10,50,500,628.8398524019867,629.4236620264128,"[80, 0, 174]",174,l,0.06156914494931698,colour,0.06
172,22,1,2,11,1,501,634.7615719805472,635.6956244502217,"[92, 0, 162]",162,l,0.4110002741217613,colour,0.06
172,22,1,2,11,2,502,636.2156211892143,636.8156474195421,"[61, 0, 193]",193,l,0.0777711789123714,colour,0.06
172,22,1,2,11,3,503,637.3250611247495,637.9196518873796,"[73, 0, 181]",181,l,0.07238336652517319,colour,0.06
172,22,1,2,11,4,504,638.4346137000248,639.0156266242266,"[2, 0, 252]",252,a,0.058968186378479004,colour,0.06
172,22,1,2,11,5,505,639.528373841662,640.1116561060771,"[63, 0, 191]",191,l,0.06100200675427914,colour,0.06
172,22,1,2,11,6,506,640.6222170847468,641.215652697254,"[55, 0, 199]",199,l,0.07118725683540106,colour,0.06
172,22,1,2,11,7,507,641.7316148784012,642.3436951567419,"[82, 0, 172]",172,l,0.08979371935129166,colour,0.06
172,22,1,2,11,8,508,642.8568295245059,643.4876222102903,"[94, 0, 160]",160,l,0.10863333893939853,colour,0.06
172,22,1,2,11,9,509,643.9974809614941,644.6476327497512,"[90, 0, 164]",164,l,0.12788177095353603,colour,0.06
172,22,1,2,11,10,510,645.1537842289545,645.7756247972138,"[66, 0, 188]",188,l,0.09955637203529477,colour,0.06
172,22,1,2,11,11,511,646.2945179794915,646.9036491396837,"[51, 0, 203]",203,a,0.08779337583109736,colour,0.06
172,22,1,2,11,12,512,647.4195865090005,648.0076311584562,"[54, 0, 200]",200,a,0.06599006569013,colour,0.06
172,22,1,2,11,13,513,648.5134163610637,649.1196515723132,"[88, 0, 166]",166,l,0.08404790097847581,colour,0.06
172,22,1,2,11,14,514,649.638526244089,650.2076552617364,"[93, 0, 161]",161,l,0.04687987361103296,colour,0.06
172,22,1,2,11,15,515,650.7167393178679,651.3756073103286,"[84, 0, 170]",170,l,0.1366003379225731,colour,0.06
172,22,1,2,11,16,516,651.8887176532298,652.4716293090023,"[52, 0, 202]",202,a,0.06062982277944684,colour,0.06
172,22,1,2,11,17,517,652.9825321454555,653.6076168222353,"[98, 0, 156]",156,l,0.10284065268933773,colour,0.06
172,22,1,2,11,18,518,654.1232922840863,654.7836060845293,"[62, 0, 192]",192,l,0.13817375199869275,colour,0.06
172,22,1,2,11,19,519,655.2952662869357,655.9356128871441,"[91, 0, 163]",163,l,0.11816716706380248,colour,0.06
172,22,1,2,11,20,520,656.4516187855043,657.0398351517506,"[83, 0, 171]",171,l,0.06636618869379163,colour,0.06
172,22,1,2,11,21,521,657.5416641719639,658.1276013520546,"[42, 0, 212]",212,a,0.06370694050565362,colour,0.06
172,22,1,2,11,22,522,658.6355015076697,659.2156215831637,"[77, 0, 177]",177,l,0.05813520262017846,colour,0.06
172,22,1,2,11,23,523,659.7293786210939,660.2796266656369,"[80, 0, 174]",174,l,0.028065460734069347,colour,0.06
172,22,1,2,11,24,524,660.7919237166643,661.4875962166116,"[60, 0, 194]",194,l,0.17400349117815495,colour,0.06
172,22,1,2,11,25,525,661.9951139474288,662.5516422586516,"[75, 0, 179]",179,l,0.03421536460518837,colour,0.06
172,22,1,2,11,26,526,663.0576862180606,663.6476036049426,"[81, 0, 173]",173,l,0.06762373866513371,colour,0.06
172,22,1,2,11,27,527,664.1671982272528,664.7356069004163,"[50, 0, 204]",204,a,0.04624184314161539,colour,0.06
172,22,1,2,11,28,528,665.2453648271039,665.8796103601344,"[96, 0, 158]",158,l,0.11202080780640244,colour,0.06
172,22,1,2,11,29,529,666.3861312670633,666.991625260096,"[57, 0, 197]",197,a,0.08348194463178515,colour,0.06
172,22,1,2,11,30,530,667.5121363620274,668.0956238200888,"[71, 0, 183]",183,l,0.06176488660275936,colour,0.06
172,22,1,2,11,31,531,668.6061020907946,669.1596155115403,"[70, 0, 184]",184,l,0.03118314454331994,colour,0.06
172,22,1,2,11,32,532,669.668751555495,670.4875335949473,"[78, 0, 176]",176,l,0.29676802176982164,colour,0.06
172,22,1,2,11,33,533,670.9969386355951,671.5436093769968,"[97, 0, 157]",157,l,0.0244263238273561,colour,0.06
172,22,1,2,11,34,534,672.0595613187179,672.679618945811,"[74, 0, 180]",180,l,0.09787504328414798,colour,0.06
172,22,1,2,11,35,535,673.1845955830067,673.7756023476832,"[37, 0, 217]",217,a,0.06889901170507073,colour,0.06
172,22,1,2,11,36,536,674.2940930197947,674.8796044522896,"[69, 0, 185]",185,l,0.06328040547668934,colour,0.06
172,22,1,2,11,37,537,675.3879193277098,676.0476041561924,"[89, 0, 165]",165,l,0.1374857034534216,colour,0.06
172,22,1,2,11,38,538,676.559948075097,677.1515968088061,"[65, 0, 189]",189,l,0.06949450680986047,colour,0.06
172,22,1,2,11,39,539,677.6693706815131,678.3355953213759,"[67, 0, 187]",187,a,0.1441775392740965,colour,0.06
172,22,1,2,11,40,540,678.8413257799111,679.5356241511181,"[64, 0, 190]",190,a,0.1720082676038146,colour,0.06
172,22,1,2,11,41,541,680.0445742998272,680.7356045376509,"[79, 0, 175]",175,l,0.16886419570073485,colour,0.06
172,22,1,2,11,42,542,681.2476845798083,681.999591187574,"[95, 0, 159]",159,l,0.22963383328169584,colour,0.06
172,22,1,2,11,43,543,682.5134415673092,683.0636006020941,"[85, 0, 169]",169,l,0.028553829062730074,colour,0.06
172,22,1,2,11,44,544,683.5761225395836,684.175591871608,"[86, 0, 168]",168,l,0.07731037912890315,colour,0.06
172,22,1,2,11,45,545,684.6733469497412,685.2875933805481,"[56, 0, 198]",198,a,0.09207763150334358,colour,0.06
172,22,1,2,11,46,546,685.7984261126257,686.3676398070529,"[58, 0, 196]",196,a,0.046953522600233555,colour,0.06
172,22,1,2,11,47,547,686.8766541527584,687.455608444754,"[87, 0, 167]",167,l,0.05671972036361694,colour,0.06
172,22,1,2,11,48,548,687.9704938512295,688.5436030756682,"[53, 0, 201]",201,a,0.05090222228318453,colour,0.06
172,22,1,2,11,49,549,689.048681718763,689.6316768699326,"[76, 0, 178]",178,l,0.06078893644735217,colour,0.06
172,22,1,2,11,50,550,690.1301093627699,690.7035888028331,"[68, 0, 186]",186,l,0.05126495473086834,colour,0.06
172,22,1,2,12,1,551,695.0359018123709,695.9356010719202,"[81, 0, 173]",173,l,0.3767502512782812,colour,0.06
172,22,1,2,12,2,552,696.4430175842717,697.2715843315236,"[94, 0, 160]",160,l,0.3062880649231374,colour,0.06
172,22,1,2,12,3,553,697.786960863974,698.3275994616561,"[87, 0, 167]",167,l,0.01885458594188094,colour,0.06
172,22,1,2,12,4,554,698.8339072978124,699.4635826428421,"[65, 0, 189]",189,a,0.10746401036158204,colour,0.06
172,22,1,2,12,5,555,699.9748328514397,700.5436050449498,"[89, 0, 165]",165,l,0.0466124527156353,colour,0.06
172,22,1,2,12,6,556,701.0526827992871,701.7115732408129,"[82, 0, 172]",172,l,0.14815262611955404,colour,0.06
172,22,1,2,12,7,557,702.2288347198628,702.7675824631006,"[66, 0, 188]",188,a,0.016477725468575954,colour,0.06
172,22,1,2,12,8,558,703.2758567724377,703.8956028674729,"[55, 0, 199]",199,a,0.09757887152954936,colour,0.06
172,22,1,2,12,9,559,704.4008583477698,704.9755756449886,"[52, 0, 202]",202,a,0.05254810443148017,colour,0.06
172,22,1,2,12,10,560,705.49470395362,706.055608286988,"[60, 0, 194]",194,a,0.03875522641465068,colour,0.06
172,22,1,2,12,11,561,706.5728922151029,707.151594445575,"[64, 0, 190]",190,a,0.056714600417762995,colour,0.06
172,22,1,2,12,12,562,707.6667649964802,708.2635794132948,"[91, 0, 163]",163,l,0.07530215848237276,colour,0.06
172,22,1,2,12,13,563,708.776129707694,709.3435915755108,"[56, 0, 198]",198,a,0.0450961459428072,colour,0.06
172,22,1,2,12,14,564,709.8544467566535,710.4396100295708,"[78, 0, 176]",176,l,0.06294445553794503,colour,0.06
172,22,1,2,12,15,565,710.9481982337311,711.5355599541217,"[98, 0, 156]",156,l,0.06564978277310729,colour,0.06
172,22,1,2,12,16,566,712.0420847996138,712.5915857180953,"[83, 0, 171]",171,l,0.027385682333260775,colour,0.06
172,22,1,2,12,17,567,713.10462359339,713.7035765931942,"[85, 0, 169]",169,l,0.07670936966314912,colour,0.06
172,22,1,2,12,18,568,714.2143498547375,714.7995903212577,"[73, 0, 181]",181,l,0.06323905196040869,colour,0.06
172,22,1,2,12,19,569,715.3078646301292,715.9355987086892,"[57, 0, 197]",197,a,0.1053183376789093,colour,0.06
172,22,1,2,12,20,570,716.4486866025254,717.3038127436303,"[88, 0, 166]",166,l,0.33279113890603185,colour,0.06
172,22,1,2,12,21,571,717.823767340742,718.4156031510793,"[72, 0, 182]",182,l,0.06954255560413003,colour,0.06
172,22,1,2,12,22,572,718.9291573585942,719.5275904820301,"[17, 0, 237]",237,a,0.07614144450053573,colour,0.06
172,22,1,2,12,23,573,720.0386354969814,720.6235727020539,"[68, 0, 186]",186,l,0.06272075045853853,colour,0.06
172,22,1,2,12,24,574,721.1324874046259,721.7115933271125,"[80, 0, 174]",174,l,0.05689143715426326,colour,0.06
172,22,1,2,12,25,575,722.2263322230428,722.8396353931166,"[77, 0, 177]",177,l,0.09109971253201365,colour,0.06
172,22,1,2,12,26,576,723.3514409246854,723.9675864805467,"[58, 0, 196]",196,a,0.09404764929786325,colour,0.06
172,22,1,2,12,27,577,724.4764795214869,725.0316077102907,"[92, 0, 162]",162,l,0.03287786338478327,colour,0.06
172,22,1,2,12,28,578,725.5391274103895,726.1675936486572,"[74, 0, 180]",180,l,0.10622182069346309,colour,0.06
172,22,1,2,12,29,579,726.6798379244283,727.2555930055678,"[51, 0, 203]",203,a,0.05353980837389827,colour,0.06
172,22,1,2,12,30,580,727.7736520227045,728.3835901734419,"[50, 0, 204]",204,a,0.08771618222817779,colour,0.06
172,22,1,2,12,31,581,728.8987433952279,729.4956204332411,"[75, 0, 179]",179,l,0.07469484815374017,colour,0.06
172,22,1,2,12,32,582,730.0081959334202,730.639619954396,"[61, 0, 193]",193,a,0.10817962838336825,colour,0.06
172,22,1,2,12,33,583,731.1499599851668,731.751574201975,"[93, 0, 161]",161,l,0.07941863592714071,colour,0.06
172,22,1,2,12,34,584,732.2593396618031,733.1515869623981,"[97, 0, 157]",157,l,0.36999343056231737,colour,0.06
172,22,1,2,12,35,585,733.6657571448013,734.2715792115778,"[62, 0, 192]",192,l,0.08355323038995266,colour,0.06
172,22,1,2,12,36,586,734.7908847508952,735.4155677049421,"[69, 0, 185]",185,l,0.10292178532108665,colour,0.06
172,22,1,2,12,37,587,735.9316051108763,736.5516127198935,"[53, 0, 201]",201,l,0.0987545014359057,colour,0.06
172,22,1,2,12,38,588,737.0566015662625,737.69556616107,"[70, 0, 184]",184,l,0.11666582617908716,colour,0.06
172,22,1,2,12,39,589,738.2128611169755,738.8636060371064,"[71, 0, 183]",183,l,0.12854894530028105,colour,0.06
172,22,1,2,12,40,590,739.3692620587535,739.9915862693451,"[59, 0, 195]",195,a,0.10014714067801833,colour,0.06
172,22,1,2,12,41,591,740.5099450033158,741.1435840134509,"[4, 0, 250]",250,a,0.11181128164753318,colour,0.06
172,22,1,2,12,42,592,741.6506157387048,742.2156649064273,"[86, 0, 168]",168,l,0.043880343437194824,colour,0.06
172,22,1,2,12,43,593,742.7288642586209,743.3036374822259,"[46, 0, 208]",208,a,0.05364890396595001,colour,0.06
172,22,1,2,12,44,594,743.822780362796,744.4797445042059,"[99, 0, 155]",155,l,0.13554207375273108,colour,0.06
172,22,1,2,12,45,595,744.9946539350785,745.6876703379676,"[63, 0, 191]",191,l,0.17142222449183464,colour,0.06
172,22,1,2,12,46,596,746.1979705905542,746.871590082068,"[90, 0, 164]",164,l,0.15236795926466584,colour,0.06
172,22,1,2,12,47,597,747.3854254949838,748.2156865675934,"[95, 0, 159]",159,l,0.30869525112211704,colour,0.06
172,22,1,2,12,48,598,748.7294412427582,749.2877060207538,"[84, 0, 170]",170,l,0.036863190587610006,colour,0.06
172,22,1,2,12,49,599,749.8075337996706,750.3755856486969,"[54, 0, 200]",200,a,0.04693973856046796,colour,0.06
172,22,1,2,12,50,600,750.8858169782907,751.4876466286369,"[67, 0, 187]",187,l,0.08058048179373145,colour,0.06
172,22,1,2,13,1,601,755.7917508180253,763.5835654395632,"[91, 0, 163]",163,l,7.269281514454633,colour,0.06
172,22,1,2,13,2,602,764.0899788266979,764.9035652508028,"[86, 0, 168]",168,l,0.2917330954223871,colour,0.06
172,22,1,2,13,3,603,765.4182872110978,766.0635631866753,"[61, 0, 193]",193,l,0.12315483158454299,colour,0.06
172,22,1,2,13,4,604,766.5745991435833,767.1595320161432,"[74, 0, 180]",180,l,0.06263804296031594,colour,0.06
172,22,1,2,13,5,605,767.6684242696501,768.2155668386258,"[96, 0, 158]",158,l,0.02503205882385373,colour,0.06
172,22,1,2,13,6,606,768.7310024481267,769.3115801727399,"[75, 0, 179]",179,l,0.05832976242527366,colour,0.06
172,22,1,2,13,7,607,769.8248515985906,770.4075545161031,"[82, 0, 172]",172,l,0.06042738584801555,colour,0.06
172,22,1,2,13,8,608,770.9187310757115,771.5275751221925,"[53, 0, 201]",201,a,0.08678394882008433,colour,0.06
172,22,1,2,13,9,609,772.0437925155275,772.58356465213,"[94, 0, 160]",160,l,0.017832161858677864,colour,0.06
172,22,1,2,13,10,610,773.0906960200518,773.6955704935826,"[79, 0, 175]",175,l,0.08259894186630845,colour,0.06
172,22,1,2,13,11,611,774.2158263833262,774.767560407985,"[80, 0, 174]",174,l,0.02947582257911563,colour,0.06
172,22,1,2,13,12,612,775.2784423707053,775.8395526856184,"[95, 0, 159]",159,l,0.03891355264931917,colour,0.06
172,22,1,2,13,13,613,776.3566298447549,776.9275689781643,"[41, 0, 213]",213,a,0.048678568098694086,colour,0.06
172,22,1,2,13,14,614,777.4350654412992,778.0315230335109,"[99, 0, 155]",155,l,0.0726287323050201,colour,0.06
172,22,1,2,13,15,615,778.5462260893546,779.1035290956497,"[70, 0, 184]",184,l,0.035428409930318594,colour,0.06
172,22,1,2,13,16,616,779.608664452564,780.1595840039663,"[77, 0, 177]",177,l,0.02863653702661395,colour,0.06
172,22,1,2,13,17,617,780.6714265570045,781.2395784431137,"[63, 0, 191]",191,l,0.04684600327163935,colour,0.06
172,22,1,2,13,18,618,781.7495033601299,782.3035803744569,"[50, 0, 204]",204,a,0.03252182714641094,colour,0.06
172,22,1,2,13,19,619,782.8120697233826,783.3835251885466,"[66, 0, 188]",188,l,0.049370949156582355,colour,0.06
172,22,1,2,13,20,620,783.8903871662915,784.4955511162989,"[68, 0, 186]",186,l,0.08294119406491518,colour,0.06
172,22,1,2,13,21,621,785.0154643598944,785.6075605023652,"[67, 0, 187]",187,l,0.06984069710597396,colour,0.06
172,22,1,2,13,22,622,786.1249448615126,786.7035789564252,"[62, 0, 192]",192,l,0.056313271168619394,colour,0.06
172,22,1,2,13,23,623,787.2187951938249,787.783544250764,"[71, 0, 183]",183,l,0.04272440541535616,colour,0.06
172,22,1,2,13,24,624,788.2969562797807,788.8555530696176,"[57, 0, 197]",197,a,0.036374821327626705,colour,0.06
172,22,1,2,13,25,625,789.3751575383358,789.9435075283982,"[73, 0, 181]",181,l,0.04608272947371006,colour,0.06
172,22,1,2,13,26,626,790.4534186613746,791.0235460782424,"[98, 0, 156]",156,l,0.047921990044415,colour,0.06
172,22,1,2,13,27,627,791.5316872671247,792.071578739211,"[87, 0, 167]",167,l,0.017767177429050207,colour,0.06
172,22,1,2,13,28,628,792.5786514240317,793.2155589614995,"[64, 0, 190]",190,a,0.11471510725095868,colour,0.06
172,22,1,2,13,29,629,793.734903098084,794.2715189531446,"[59, 0, 195]",195,a,0.014459265395998955,colour,0.06
172,22,1,2,13,30,630,794.7819184549153,795.6394903790206,"[56, 0, 198]",198,a,0.33615930937230587,colour,0.06
172,22,1,2,13,31,631,796.1569613842294,797.0235015735961,"[54, 0, 200]",200,a,0.34428750118240714,colour,0.06
172,22,1,2,13,32,632,797.5321165593341,798.1275485767983,"[90, 0, 164]",164,l,0.07325337221845984,colour,0.06
172,22,1,2,13,33,633,798.6415379839018,799.2314990875311,"[15, 0, 239]",239,a,0.06765918433666229,colour,0.06
172,22,1,2,13,34,634,799.7510153343901,800.3275218741037,"[69, 0, 185]",185,l,0.05434128502383828,colour,0.06
172,22,1,2,13,35,635,800.8448837837204,801.4235411155969,"[85, 0, 169]",169,l,0.05639204056933522,colour,0.06
172,22,1,2,13,36,636,801.9387242700905,802.5435416358523,"[6, 0, 248]",248,a,0.08252450544387102,colour,0.06
172,22,1,2,13,37,637,803.0637892545201,803.6475374386646,"[83, 0, 171]",171,l,0.06148249888792634,colour,0.06
172,22,1,2,13,38,638,804.1575679066591,804.8075200151652,"[78, 0, 176]",176,l,0.1276978445239365,colour,0.06
172,22,1,2,13,39,639,805.3139893282205,805.9195089214481,"[76, 0, 178]",178,l,0.08329762471839786,colour,0.06
172,22,1,2,13,40,640,806.439023592975,807.0715444744565,"[55, 0, 199]",199,a,0.11022841464728117,colour,0.06
172,22,1,2,13,41,641,807.5798136633821,808.119545627851,"[84, 0, 170]",170,l,0.017564740497618914,colour,0.06
172,22,1,2,13,42,642,808.6174086197279,809.239537876565,"[93, 0, 161]",161,l,0.10044646356254816,colour,0.06
172,22,1,2,13,43,643,809.7580639952794,810.4795180428773,"[60, 0, 194]",194,l,0.1990690273232758,colour,0.06
172,22,1,2,13,44,644,810.9926090873778,811.5435215495527,"[58, 0, 196]",196,a,0.028643626254051924,colour,0.06
172,22,1,2,13,45,645,812.0551549703814,812.6235471023247,"[92, 0, 162]",162,l,0.046062249690294266,colour,0.06
172,22,1,2,13,46,646,813.1335125854239,813.8475347608328,"[65, 0, 189]",189,l,0.19190654531121254,colour,0.06
172,22,1,2,13,47,647,814.3678493332118,815.2235213448294,"[81, 0, 173]",173,l,0.33352408604696393,colour,0.06
172,22,1,2,13,48,648,815.7429674868472,816.3835436995141,"[88, 0, 166]",166,l,0.11836605938151479,colour,0.06
172,22,1,2,13,49,649,816.8992632715963,817.7275047022849,"[89, 0, 165]",165,l,0.30601276690140367,colour,0.06
172,22,1,2,13,50,650,818.2431537760422,818.8235168550164,"[72, 0, 182]",182,l,0.058088728692382574,colour,0.06
172,22,1,2,14,1,651,823.9660934107378,824.7115110135637,"[64, 0, 190]",190,l,0.22237840434536338,colour,0.06
172,22,1,2,14,2,652,825.217018160969,825.7915436550975,"[63, 0, 191]",191,l,0.05236851051449776,colour,0.06
172,22,1,2,14,3,653,826.31073064683,826.887548324652,"[73, 0, 181]",181,l,0.054537813644856215,colour,0.06
172,22,1,2,14,4,654,827.4047058285214,827.9595138207078,"[72, 0, 182]",182,l,0.032641162164509296,colour,0.06
172,22,1,2,14,5,655,828.4672257178463,829.0475328704342,"[55, 0, 199]",199,a,0.058071399573236704,colour,0.06
172,22,1,2,14,6,656,829.5610000374727,830.1675263009965,"[69, 0, 185]",185,l,0.08415148267522454,colour,0.06
172,22,1,2,14,7,657,830.6812467114069,831.6074726749212,"[61, 0, 193]",193,l,0.4040032075718045,colour,0.06
172,22,1,2,14,8,658,832.1188599420711,832.6635661800392,"[53, 0, 201]",201,a,0.02271782048046589,colour,0.06
172,22,1,2,14,9,659,833.1686857831664,836.4715099735186,"[52, 0, 202]",202,l,2.780705409590155,colour,0.06
172,22,1,2,14,10,660,836.9815282323398,837.5675370921381,"[82, 0, 172]",172,l,0.06376601755619049,colour,0.06
172,22,1,2,14,11,661,838.0751241398975,838.6475134142675,"[13, 0, 241]",241,a,0.05002040136605501,colour,0.06
172,22,1,2,14,12,662,839.1535372873768,839.7194954515435,"[51, 0, 203]",203,l,0.04373422637581825,colour,0.06
172,22,1,2,14,13,663,840.2317574503832,840.7995068258606,"[56, 0, 198]",198,l,0.045504563953727484,colour,0.06
172,22,1,2,14,14,664,841.3099417737685,841.8555487375706,"[60, 0, 194]",194,l,0.02335585094988346,colour,0.06
172,22,1,2,14,15,665,842.3725274349563,842.967533311341,"[91, 0, 163]",163,l,0.07268780935555696,colour,0.06
172,22,1,2,14,16,666,843.4820169950835,844.0795021313243,"[54, 0, 200]",200,a,0.07525844173505902,colour,0.06
172,22,1,2,14,17,667,844.5914967088029,845.1435091826133,"[85, 0, 169]",169,l,0.029715674463659525,colour,0.06
172,22,1,2,14,18,668,845.6540461364202,846.2235170123167,"[59, 0, 195]",195,a,0.05963496770709753,colour,0.06
172,22,1,2,14,19,669,846.7354954420589,847.2795077241026,"[89, 0, 165]",165,l,0.02196518098935485,colour,0.06
172,22,1,2,14,20,670,847.7980708638206,848.3515220568515,"[66, 0, 188]",188,l,0.031123280059546232,colour,0.06
172,22,1,2,14,21,671,848.8606403777376,849.423530088272,"[65, 0, 189]",189,l,0.04063544701784849,colour,0.06
172,22,1,2,14,22,672,849.938868811354,850.8315056255087,"[50, 0, 204]",204,a,0.370364039670676,colour,0.06
172,22,1,2,14,23,673,851.3452701466158,851.9115130612627,"[71, 0, 183]",183,l,0.04402527865022421,colour,0.06
172,22,1,2,14,24,674,852.4234721926041,852.9995325049385,"[79, 0, 175]",175,l,0.053802897688001394,colour,0.06
172,22,1,2,14,25,675,853.517194524873,854.0955025157891,"[74, 0, 180]",180,l,0.055936360731720924,colour,0.06
172,22,1,2,14,26,676,854.6111118108965,855.2314919983037,"[93, 0, 161]",161,l,0.09810820035636425,colour,0.06
172,22,1,2,14,27,677,855.7518431986682,856.3595068887807,"[84, 0, 170]",170,l,0.08557444764301181,colour,0.06
172,22,1,2,14,28,678,856.8769684415311,857.4635243536904,"[12, 0, 242]",242,a,0.07677080994471908,colour,0.06
172,22,1,2,14,29,679,857.9739486677572,858.5274896575138,"[83, 0, 171]",171,l,0.03137455368414521,colour,0.06
172,22,1,2,14,30,680,859.0365260583349,859.6074774009176,"[58, 0, 196]",196,a,0.04888061108067632,colour,0.06
172,22,1,2,14,31,681,860.1148509844206,860.6955771888606,"[75, 0, 179]",179,l,0.05864759627729654,colour,0.06
172,22,1,2,14,32,682,861.2085796180181,861.7355222236365,"[94, 0, 160]",160,l,0.004773412365466356,colour,0.06
172,22,1,2,14,33,683,862.2555213258602,863.1915020649321,"[70, 0, 184]",184,l,0.4137497120536864,colour,0.06
172,22,1,2,14,34,684,863.70877339039,864.2955226805061,"[67, 0, 187]",187,a,0.06507791811600327,colour,0.06
172,22,1,2,14,35,685,864.802585913334,865.3914899346419,"[77, 0, 177]",177,l,0.0692692268639803,colour,0.06
172,22,1,2,14,36,686,865.9093925948255,866.4635164765641,"[81, 0, 173]",173,l,0.03184283617883921,colour,0.06
172,22,1,2,14,37,687,866.9720452101901,867.5034969579428,"[80, 0, 174]",174,l,0.009216388687491417,colour,0.06
172,22,1,2,14,38,688,868.0189916440286,868.8154571917839,"[86, 0, 168]",168,l,0.2744306563399732,colour,0.06
172,22,1,2,14,39,689,869.3316186591983,870.0394661179744,"[78, 0, 176]",176,l,0.1856833854690194,colour,0.06
172,22,1,2,14,40,690,870.5504792314023,871.5035056225024,"[88, 0, 166]",166,l,0.43109980691224337,colour,0.06
172,22,1,2,14,41,691,872.0193350776099,872.65547697898,"[76, 0, 178]",178,l,0.11421807436272502,colour,0.06
172,22,1,2,14,42,692,873.1756765483879,873.7434826376848,"[87, 0, 167]",167,l,0.045645167119801044,colour,0.06
172,22,1,2,14,43,693,874.2573196263984,875.0314611997455,"[4, 0, 250]",250,a,0.2518282327800989,colour,0.06
172,22,1,2,14,44,694,875.53859690018,876.1354668489657,"[96, 0, 158]",158,l,0.07455345755442977,colour,0.06
172,22,1,2,14,45,695,876.6479927245528,877.2794955149293,"[98, 0, 156]",156,l,0.10922450199723244,colour,0.06
172,22,1,2,14,46,696,877.7888265121728,878.3434824799187,"[95, 0, 159]",159,l,0.03278885455802083,colour,0.06
172,22,1,2,14,47,697,878.8514086292125,879.4315082249232,"[97, 0, 157]",157,l,0.05797569500282407,colour,0.06
172,22,1,2,14,48,698,879.9452266660519,880.4954814054072,"[68, 0, 186]",186,l,0.02802922623232007,colour,0.06
172,22,1,2,14,49,699,881.007724893745,881.5515134707093,"[62, 0, 192]",192,l,0.021344873122870922,colour,0.06
172,22,1,2,14,50,700,882.070367269218,882.6394762005657,"[90, 0, 164]",164,l,0.04683143086731434,colour,0.06
172,22,1,2,15,1,701,887.1793952416629,887.8794784219936,"[54, 0, 200]",200,a,0.1771507142111659,colour,0.06
172,22,1,2,15,2,702,888.3989958502352,888.9594756173901,"[89, 0, 165]",165,l,0.038289306219667196,colour,0.06
172,22,1,2,15,3,703,889.4772357055917,890.0794718051329,"[95, 0, 159]",159,l,0.08002318954095244,colour,0.06
172,22,1,2,15,4,704,890.5867335363291,891.151499922853,"[81, 0, 173]",173,l,0.04278505779802799,colour,0.06
172,22,1,2,15,5,705,891.6648867456242,892.199486897327,"[94, 0, 160]",160,l,0.012493974063545465,colour,0.06
172,22,1,2,15,6,706,892.7118871361017,893.2795089054853,"[63, 0, 191]",191,a,0.04613117268308997,colour,0.06
172,22,1,2,15,7,707,893.7900777608156,894.3994507421739,"[69, 0, 185]",185,l,0.0876708896830678,colour,0.06
172,22,1,2,15,8,708,894.9151774039492,895.4634963907301,"[51, 0, 203]",203,a,0.026034003123641014,colour,0.06
172,22,1,2,15,9,709,895.9777532191947,896.6074860654771,"[68, 0, 186]",186,l,0.10748409619554877,colour,0.06
172,22,1,2,15,10,710,897.1134213237092,897.6794688906521,"[93, 0, 161]",161,l,0.04383071884512901,colour,0.06
172,22,1,2,15,11,711,898.1915422375314,898.8074861443602,"[79, 0, 175]",175,l,0.09368491685017943,colour,0.06
172,22,1,2,15,12,712,899.3167375852354,899.9194904104806,"[86, 0, 168]",168,l,0.08044027257710695,colour,0.06
172,22,1,2,15,13,713,900.4261708250269,900.9994927262887,"[62, 0, 192]",192,a,0.050949877593666315,colour,0.06
172,22,1,2,15,14,714,901.5199971324764,902.1034838031046,"[85, 0, 169]",169,l,0.0614919513463974,colour,0.06
172,22,1,2,15,15,715,902.6138108372688,903.1994628729299,"[67, 0, 187]",187,l,0.0633745351806283,colour,0.06
172,22,1,2,15,16,716,903.7076178463176,904.2955171666108,"[66, 0, 188]",188,a,0.06558243511244655,colour,0.06
172,22,1,2,15,17,717,904.8015091386624,905.3595013753511,"[99, 0, 155]",155,l,0.035859277471899986,colour,0.06
172,22,1,2,15,18,718,905.879712366499,906.4794573904946,"[55, 0, 199]",199,a,0.0774218374863267,colour,0.06
172,22,1,2,15,19,719,906.9892271324061,907.6074608592317,"[88, 0, 166]",166,l,0.09594874316826463,colour,0.06
172,22,1,2,15,20,720,908.1143015692942,908.6954519459978,"[73, 0, 181]",181,l,0.05894770659506321,colour,0.06
172,22,1,2,15,21,721,909.2081270893104,909.7834843862802,"[75, 0, 179]",179,l,0.0530565595254302,colour,0.06
172,22,1,2,15,22,722,910.3020152305253,910.8954567508772,"[76, 0, 178]",178,l,0.07140308385714889,colour,0.06
172,22,1,2,15,23,723,911.4114791904576,911.9594610454515,"[1, 0, 253]",253,a,0.025857954286038876,colour,0.06
172,22,1,2,15,24,724,912.4739463045262,913.0474663102068,"[84, 0, 170]",170,l,0.051151526626199484,colour,0.06
172,22,1,2,15,25,725,913.5679179411381,914.1434619212523,"[92, 0, 162]",162,l,0.05341062694787979,colour,0.06
172,22,1,2,15,26,726,914.6616579964757,915.2394823445939,"[56, 0, 198]",198,a,0.055537001229822636,colour,0.06
172,22,1,2,15,27,727,915.7555036027916,916.3914446425624,"[53, 0, 201]",201,a,0.11361312679946423,colour,0.06
172,22,1,2,15,28,728,916.8962456244044,917.5514567573555,"[64, 0, 190]",190,a,0.1330214599147439,colour,0.06
172,22,1,2,15,29,729,918.0681837871671,918.63146379916,"[50, 0, 204]",204,a,0.0410639513283968,colour,0.06
172,22,1,2,15,30,730,919.1464122212492,919.7434550682083,"[83, 0, 171]",171,l,0.0748086697421968,colour,0.06
172,22,1,2,15,31,731,920.2558789378963,920.8394786422141,"[20, 0, 234]",234,a,0.06138364365324378,colour,0.06
172,22,1,2,15,32,732,921.3496875222772,921.9434614484198,"[65, 0, 189]",189,l,0.0715125729329884,colour,0.06
172,22,1,2,15,33,733,922.4591810209677,923.3834747765213,"[57, 0, 197]",197,a,0.4020485505461693,colour,0.06
172,22,1,2,15,34,734,923.8967989776284,924.8874601032585,"[60, 0, 194]",194,a,0.4684478216804564,colour,0.06
172,22,1,2,15,35,735,925.396837180946,925.9994446770288,"[87, 0, 167]",167,l,0.0802622539922595,colour,0.06
172,22,1,2,15,36,736,926.5064996392466,927.1994589343667,"[78, 0, 176]",176,l,0.17091258848086,colour,0.06
172,22,1,2,15,37,737,927.7095878636464,928.2715063500218,"[90, 0, 164]",164,l,0.03969888109713793,colour,0.06
172,22,1,2,15,38,738,928.7877958174795,929.3834818657488,"[74, 0, 180]",180,l,0.07385753188282251,colour,0.06
172,22,1,2,15,39,739,929.8972392976284,930.4794747196138,"[77, 0, 177]",177,l,0.05997170601040125,colour,0.06
172,22,1,2,15,40,740,930.9910620604642,931.5354630681686,"[97, 0, 157]",157,l,0.02208018396049738,colour,0.06
172,22,1,2,15,41,741,932.053643389605,932.6394781698473,"[91, 0, 163]",163,l,0.06358957476913929,colour,0.06
172,22,1,2,15,42,742,933.1475382265635,933.7114798994735,"[70, 0, 184]",184,l,0.041753181256353855,colour,0.06
172,22,1,2,15,43,743,934.225782413967,934.7914755200036,"[71, 0, 183]",183,l,0.04353060806170106,colour,0.06
172,22,1,2,15,44,744,935.3039486203343,935.8714774418622,"[80, 0, 174]",174,l,0.045271800830960274,colour,0.06
172,22,1,2,15,45,745,936.382139638532,936.9674683269113,"[82, 0, 172]",172,l,0.06305867061018944,colour,0.06
172,22,1,2,15,46,746,937.4760033618659,938.0474690673873,"[58, 0, 196]",196,a,0.049172057304531336,colour,0.06
172,22,1,2,15,47,747,938.5642622634768,939.0875062621199,"[72, 0, 182]",182,l,0.000988159328699112,colour,0.06
172,22,1,2,15,48,748,939.595596251078,940.1594749088399,"[52, 0, 202]",202,a,0.05119681917130947,colour,0.06
172,22,1,2,15,49,749,940.6645078659058,941.2234512399882,"[46, 0, 208]",208,a,0.036640667356550694,colour,0.06
172,22,1,2,15,50,750,941.7427386627533,942.319487023633,"[98, 0, 156]",156,l,0.05451497109606862,colour,0.06
172,22,1,2,16,1,751,946.6954732136801,947.399468859192,"[77, 0, 177]",177,l,0.18097259476780891,colour,0.06
172,22,1,2,16,2,752,947.9151218715124,948.7674261066131,"[80, 0, 174]",174,l,0.3300838419236243,colour,0.06
172,22,1,2,16,3,753,949.2744814623147,949.8314304011874,"[74, 0, 180]",180,l,0.043866952881217,colour,0.06
172,22,1,2,16,4,754,950.3434797232039,950.9034376447089,"[99, 0, 155]",155,l,0.037750525400042534,colour,0.06
172,22,1,2,16,5,755,951.4217908643186,951.9754866356961,"[75, 0, 179]",179,l,0.03161873808130622,colour,0.06
172,22,1,2,16,6,756,952.4842890920117,953.0794367529452,"[94, 0, 160]",160,l,0.07293159980326891,colour,0.06
172,22,1,2,16,7,757,953.5937254829332,954.1834695776924,"[66, 0, 188]",188,l,0.06750597851350904,colour,0.06
172,22,1,2,16,8,758,954.7032311903313,955.3114060927182,"[95, 0, 159]",159,l,0.08617545664310455,colour,0.06
172,22,1,2,16,9,759,955.828321381472,956.3914596084505,"[78, 0, 176]",176,l,0.041093883104622364,colour,0.06
172,22,1,2,16,10,760,956.9066758458503,957.5114463437349,"[55, 0, 199]",199,l,0.08267692336812615,colour,0.06
172,22,1,2,16,11,761,958.0315376059152,958.5916408565827,"[96, 0, 158]",158,l,0.03827788541093469,colour,0.06
172,22,1,2,16,12,762,959.1098117255606,959.7274243580177,"[58, 0, 196]",196,l,0.095366639085114,colour,0.06
172,22,1,2,16,13,763,960.234882617835,960.919425426051,"[83, 0, 171]",171,l,0.16241024248301983,colour,0.06
172,22,1,2,16,14,764,961.4381331070326,962.2954600593075,"[93, 0, 161]",161,l,0.3351325527764857,colour,0.06
172,22,1,2,16,15,765,962.8132327501662,963.4234194173478,"[70, 0, 184]",184,l,0.08790483418852091,colour,0.06
172,22,1,2,16,16,766,963.9382504732348,964.5754132228903,"[73, 0, 181]",181,l,0.11483286740258336,colour,0.06
172,22,1,2,16,17,767,965.0946841039695,965.7514402945526,"[92, 0, 162]",162,l,0.1347740744240582,colour,0.06
172,22,1,2,16,18,768,966.2665706733242,966.903427798301,"[81, 0, 173]",173,l,0.11459183366969228,colour,0.06
172,22,1,2,16,19,769,967.4228337686509,968.0954599804245,"[61, 0, 193]",193,l,0.15022701304405928,colour,0.06
172,22,1,2,16,20,770,968.6105289193802,969.2154313558713,"[87, 0, 167]",167,l,0.08269346505403519,colour,0.06
172,22,1,2,16,21,771,969.7356218667701,970.6474279495887,"[53, 0, 201]",201,a,0.38974756048992276,colour,0.06
172,22,1,2,16,22,772,971.1575954761356,971.8714392390102,"[68, 0, 186]",186,l,0.1915442068129778,colour,0.06
172,22,1,2,16,23,773,972.37644738378,973.183430980891,"[56, 0, 198]",198,a,0.2847454813309014,colour,0.06
172,22,1,2,16,24,774,973.689052737318,974.7754223602824,"[71, 0, 183]",183,l,0.5641003930941224,colour,0.06
172,22,1,2,16,25,775,975.2829014942981,975.9034088938497,"[82, 0, 172]",172,l,0.0982535295188427,colour,0.06
172,22,1,2,16,26,776,976.4237652141601,977.167419962585,"[45, 0, 209]",209,a,0.2214713771827519,colour,0.06
172,22,1,2,16,27,777,977.6737171649002,978.2794384071603,"[62, 0, 192]",192,l,0.08341735368594527,colour,0.06
172,22,1,2,16,28,778,978.7987919957377,979.3994401083328,"[59, 0, 195]",195,a,0.079096470028162,colour,0.06
172,22,1,2,16,29,779,979.9083559922874,980.4394599739462,"[65, 0, 189]",189,a,0.008793397806584835,colour,0.06
172,22,1,2,16,30,780,980.9552598907612,981.5194311761297,"[91, 0, 163]",163,l,0.04189339093863964,colour,0.06
172,22,1,2,16,31,781,982.0334615432657,982.6074222624302,"[88, 0, 166]",166,l,0.05173756927251816,colour,0.06
172,22,1,2,16,32,782,983.1272850940004,983.6954472195357,"[52, 0, 202]",202,a,0.04594921553507447,colour,0.06
172,22,1,2,16,33,783,984.2055454291403,984.783442244865,"[50, 0, 204]",204,a,0.05567484721541405,colour,0.06
172,22,1,2,16,34,784,985.3001035023481,985.8714459342882,"[76, 0, 178]",178,l,0.049792364705353975,colour,0.06
172,22,1,2,16,35,785,986.3969683316536,986.9754500081763,"[90, 0, 164]",164,l,0.06007489375770092,colour,0.06
172,22,1,2,16,36,786,987.4870889429003,988.0554373576306,"[84, 0, 170]",170,l,0.04624341847375035,colour,0.06
172,22,1,2,16,37,787,988.5652181273326,989.1674239011481,"[79, 0, 175]",175,l,0.07991566974669695,colour,0.06
172,22,1,2,16,38,788,989.67461158894,990.2714346703142,"[60, 0, 194]",194,a,0.0744219128973782,colour,0.06
172,22,1,2,16,39,789,990.784167708829,991.3514200504869,"[54, 0, 200]",200,a,0.045539616141468287,colour,0.06
172,22,1,2,16,40,790,991.8623295826837,992.4554162477143,"[64, 0, 190]",190,a,0.07085721334442496,colour,0.06
172,22,1,2,16,41,791,992.9717994504608,993.5674327230081,"[67, 0, 187]",187,l,0.07343769213184714,colour,0.06
172,22,1,2,16,42,792,994.081272862386,994.6474291309714,"[98, 0, 156]",156,l,0.043925635516643524,colour,0.06
172,22,1,2,16,43,793,995.159465062432,995.7594278836623,"[63, 0, 191]",191,a,0.07769713597372174,colour,0.06
172,22,1,2,16,44,794,996.2689085425809,996.8074384890497,"[46, 0, 208]",208,a,0.016432039439678192,colour,0.06
172,22,1,2,16,45,795,997.3159089330584,997.9113901816308,"[57, 0, 197]",197,a,0.07327621523290873,colour,0.06
172,22,1,2,16,46,796,998.4254067637958,998.9594259932637,"[89, 0, 165]",165,l,0.021440578158944845,colour,0.06
172,22,1,2,16,47,797,999.4782876679674,1000.3914064392447,"[85, 0, 169]",169,l,0.3909184643998742,colour,0.06
172,22,1,2,16,48,798,1000.9002825450152,1001.8234691997059,"[35, 0, 219]",219,a,0.40102021861821413,colour,0.06
172,22,1,2,16,49,799,1002.3379016830586,1003.2713870150037,"[69, 0, 185]",185,l,0.41132795391604304,colour,0.06
172,22,1,2,16,50,800,1003.7910781293176,1004.3594115781598,"[86, 0, 168]",168,l,0.046531320083886385,colour,0.06
