id,age,condition,counterbalance,block,trialinblock,trial,tstart,tend,trialstim,trialintensity,response,RT,trialtype,colourfreq
006,74,0,1,Practice,1,NA,5.513662472367287e-06,1.9599726512096822,"[60, 0, 194]",194,a,1.3426806097850204,colour,0.5
006,74,0,1,Practice,2,NA,2.5070715034380555,3.77594420616515,"[26, 0, 228]",228,a,0.7401298275217414,colour,0.5
006,74,0,1,Practice,3,NA,4.2948369949590415,5.559983127517626,"[27, 0, 227]",227,a,0.7387328557670116,colour,0.5
006,74,0,1,Practice,4,NA,6.07926779310219,7.32001241389662,"[14, 0, 240]",240,a,0.7145837992429733,colour,0.5
006,74,0,1,Practice,5,NA,7.837659468175843,9.039977723965421,"[54, 0, 200]",200,a,0.6749699888750911,colour,0.5
006,74,0,1,Practice,6,NA,9.56052545341663,10.887937050778419,"[0, 0, 254]",254,a,0.7978503103367984,colour,0.5
006,74,0,1,Practice,7,NA,11.405615218682215,12.959959260420874,"[86, 0, 168]",168,l,1.0231159985996783,colour,0.5
006,74,0,1,Practice,8,NA,13.474803707096726,14.583970707142726,"[76, 0, 178]",178,l,0.5877071234863251,colour,0.5
006,74,0,1,Practice,9,NA,15.103434572694823,16.239921876695007,"[48, 0, 206]",206,a,0.6130767087452114,colour,0.5
006,74,0,1,Practice,10,NA,16.759620868135244,18.08977127005346,"[96, 0, 158]",158,l,0.8188194548711181,colour,0.5
006,74,0,1,1,1,1,5.731565254041925,6.904026838252321,"[37, 0, 217]",217,a,0.6488977826666087,colour,0.5
006,74,0,1,1,2,2,7.427271624561399,8.06398854078725,"[60, 0, 194]",194,a,0.11075734999030828,colour,0.5
006,74,0,1,1,3,3,8.578472224529833,9.144008579663932,"[66, 0, 188]",188,a,0.035046773264184594,colour,0.5
006,74,0,1,1,4,4,9.658819549251348,10.583997095003724,"[72, 0, 182]",182,l,0.40380943519994617,colour,0.5
006,74,0,1,1,5,5,11.101574438624084,92.68808978446759,"[17, 0, 237]",237,a,81.05241852905601,colour,0.5
006,74,0,1,1,6,6,93.20684315171093,101.96796811744571,"[74, 0, 180]",180,l,8.237660019658506,colour,0.5
006,74,0,1,1,7,7,102.48265935806558,103.63193444535136,"[14, 0, 240]",240,a,0.6258447996806353,colour,0.5
006,74,0,1,1,8,8,104.12648598081432,105.14396998286247,"[44, 0, 210]",210,a,0.4940521391108632,colour,0.5
006,74,0,1,1,9,9,105.65777940233238,106.3039076605346,"[10, 0, 244]",244,a,0.12781757372431457,colour,0.5
006,74,0,1,1,10,10,106.81409015296958,107.383931244025,"[90, 0, 164]",164,l,0.05251226434484124,colour,0.5
006,74,0,1,1,11,11,107.90167203359306,108.50391246541403,"[19, 0, 235]",235,a,0.07883613789454103,colour,0.5
006,74,0,1,1,12,12,109.01112102740444,109.5759646075312,"[7, 0, 247]",247,a,0.041330978740006685,colour,0.5
006,74,0,1,1,13,13,110.08930495660752,110.63193720206618,"[80, 0, 174]",174,l,0.019339803839102387,colour,0.5
006,74,0,1,1,14,14,111.15165785513818,123.05594266252592,"[13, 0, 241]",241,l,11.38101442111656,colour,0.5
006,74,0,1,1,15,15,123.56772338156588,124.19193253898993,"[89, 0, 165]",165,l,0.10081825428642333,colour,0.5
006,74,0,1,1,16,16,124.70835788315162,129.03994818567298,"[68, 0, 186]",186,l,3.8082486300263554,colour,0.5
006,74,0,1,1,17,17,129.55557638569735,130.15994870569557,"[11, 0, 243]",243,a,0.08106885058805346,colour,0.5
006,74,0,1,1,18,18,130.67218746757135,131.23993566143326,"[77, 0, 177]",177,l,0.04292684234678745,colour,0.5
006,74,0,1,1,19,19,131.75168644823134,134.57589962286875,"[16, 0, 238]",238,a,2.3008431452326477,colour,0.5
006,74,0,1,1,20,20,135.0831365417689,135.64795530959964,"[97, 0, 157]",157,l,0.05351105751469731,colour,0.5
006,74,0,1,1,21,21,136.17200393532403,139.1439195703715,"[25, 0, 229]",229,a,2.4279584917239845,colour,0.5
006,74,0,1,1,22,22,139.66379500483163,146.38388516404666,"[41, 0, 213]",213,l,6.194632352562621,colour,0.5
006,74,0,1,1,23,23,146.9046932256315,147.51191344531253,"[27, 0, 227]",227,a,0.08942232257686555,colour,0.5
006,74,0,1,1,24,24,148.0310059140902,148.57599926600233,"[18, 0, 236]",236,a,0.026660611853003502,colour,0.5
006,74,0,1,1,25,25,149.09909320925362,181.11196370003745,"[26, 0, 228]",228,l,31.480725180590525,colour,0.5
006,74,0,1,1,26,26,181.6349115264602,182.2399269968737,"[51, 0, 203]",203,a,0.08300105878151953,colour,0.5
006,74,0,1,1,27,27,182.75183886662126,184.11989339394495,"[22, 0, 232]",232,a,0.8471251612063497,colour,0.5
006,74,0,1,1,28,28,184.61770873051137,185.78391525382176,"[86, 0, 168]",168,l,0.6428231031168252,colour,0.5
006,74,0,1,1,29,29,186.3069914742373,187.6239118038211,"[98, 0, 156]",156,l,0.7978365255985409,colour,0.5
006,74,0,1,1,30,30,188.1334464198444,189.4479134832509,"[43, 0, 211]",211,a,0.7911108187399805,colour,0.5
006,74,0,1,1,31,31,189.96152125368826,191.00794269074686,"[67, 0, 187]",187,l,0.5213751995470375,colour,0.5
006,74,0,1,1,32,32,191.51793968188576,192.71990268863738,"[73, 0, 181]",181,l,0.6785354760941118,colour,0.5
006,74,0,1,1,33,33,193.23668997711502,194.22389707388356,"[70, 0, 184]",184,l,0.4640591964125633,colour,0.5
006,74,0,1,1,34,34,194.73664547270164,195.27988266549073,"[3, 0, 251]",251,a,0.020276369526982307,colour,0.5
006,74,0,1,1,35,35,195.7991539402865,196.4558770477306,"[24, 0, 230]",230,a,0.14222327596507967,colour,0.5
006,74,0,1,1,36,36,196.97090423875488,198.00786786014214,"[49, 0, 205]",205,a,0.5049329202156514,colour,0.5
006,74,0,1,1,37,37,198.52707060566172,199.42393102357164,"[65, 0, 189]",189,l,0.37206269707530737,colour,0.5
006,74,0,1,1,38,38,199.93471294944175,200.81591484113596,"[81, 0, 173]",173,l,0.35778263164684176,colour,0.5
006,74,0,1,1,39,39,201.31313704582863,202.23988918750547,"[58, 0, 196]",196,a,0.403341940138489,colour,0.5
006,74,0,1,1,40,40,202.75138200540096,203.71185877965763,"[2, 0, 252]",252,a,0.4378381168935448,colour,0.5
006,74,0,1,1,41,41,204.21941116894595,205.16794299008325,"[92, 0, 162]",162,l,0.4252437117975205,colour,0.5
006,74,0,1,1,42,42,205.6881622520741,206.52792052505538,"[62, 0, 192]",192,a,0.3163957267533988,colour,0.5
006,74,0,1,1,43,43,207.04349988815375,208.1518815595191,"[31, 0, 223]",223,a,0.578197319759056,colour,0.5
006,74,0,1,1,44,44,208.6600325948093,209.78390028770082,"[96, 0, 158]",158,l,0.5953402512241155,colour,0.5
006,74,0,1,1,45,45,210.30602340074256,211.19188448973,"[59, 0, 195]",195,a,0.35569761134684086,colour,0.5
006,74,0,1,1,46,46,211.71077097719535,212.6799269337207,"[32, 0, 222]",222,a,0.44818838755600154,colour,0.5
006,74,0,1,1,47,47,213.1984306029044,213.94394587934949,"[75, 0, 179]",179,l,0.22809665300883353,colour,0.5
006,74,0,1,1,48,48,214.4500910572242,215.30392656521872,"[38, 0, 216]",216,a,0.332088123774156,colour,0.5
006,74,0,1,1,49,49,215.8235148859676,216.7199239563197,"[0, 0, 254]",254,a,0.3733895639888942,colour,0.5
006,74,0,1,1,50,50,217.2420380108524,218.11987094464712,"[87, 0, 167]",167,l,0.3502881375607103,colour,0.5
006,74,0,1,2,1,51,225.17813572264276,227.5038695363328,"[62, 0, 192]",192,a,1.801680461736396,colour,0.5
006,74,0,1,2,2,52,228.02365635544993,229.05587610253133,"[61, 0, 193]",193,a,0.508776462636888,colour,0.5
006,74,0,1,2,3,53,229.57152163167484,230.50390261923894,"[19, 0, 235]",235,a,0.4079806574154645,colour,0.5
006,74,0,1,2,4,54,231.0104101356119,231.95989545760676,"[56, 0, 198]",198,a,0.42002013325691223,colour,0.5
006,74,0,1,2,5,55,232.46963605494238,233.15187959047034,"[86, 0, 168]",168,l,0.159025136847049,colour,0.5
006,74,0,1,2,6,56,233.6727372764144,234.55989884468727,"[12, 0, 242]",242,a,0.3637167082633823,colour,0.5
006,74,0,1,2,7,57,235.07903266721405,235.97587614972144,"[0, 0, 254]",254,a,0.3705735655967146,colour,0.5
006,74,0,1,2,8,58,236.48838154552504,237.27187617169693,"[97, 0, 157]",157,l,0.26483105565421283,colour,0.5
006,74,0,1,2,9,59,237.78537839162163,238.4479170278646,"[51, 0, 203]",203,a,0.1314196886960417,colour,0.5
006,74,0,1,2,10,60,238.97001769160852,240.06384399929084,"[83, 0, 171]",171,l,0.5635564916301519,colour,0.5
006,74,0,1,2,11,61,240.58406286733225,241.34391728625633,"[20, 0, 234]",234,a,0.2285310651641339,colour,0.5
006,74,0,1,2,12,62,241.8658730147872,242.8799258309882,"[41, 0, 213]",213,a,0.4908123624045402,colour,0.5
006,74,0,1,2,13,63,243.39095666771755,244.3918676332105,"[24, 0, 230]",230,a,0.4822903242893517,colour,0.5
006,74,0,1,2,14,64,244.9126221316401,245.63183952844702,"[87, 0, 167]",167,l,0.19590998906642199,colour,0.5
006,74,0,1,2,15,65,246.14700417174026,247.1598726932425,"[47, 0, 207]",207,a,0.49366577598266304,colour,0.5
006,74,0,1,2,16,66,247.68792397528887,249.19187621911988,"[81, 0, 173]",173,l,0.9869298292323947,colour,0.5
006,74,0,1,2,17,67,249.70608027209528,250.84786322852597,"[52, 0, 202]",202,a,0.6119164386764169,colour,0.5
006,74,0,1,2,18,68,251.3656741224695,252.56787658762187,"[59, 0, 195]",195,a,0.681810304755345,colour,0.5
006,74,0,1,2,19,69,253.085618164856,254.30383913149126,"[69, 0, 185]",185,l,0.6997527435887605,colour,0.5
006,74,0,1,2,20,70,254.81112173642032,256.1599301949609,"[65, 0, 189]",189,a,0.8253206694498658,colour,0.5
006,74,0,1,2,21,71,256.6706707670819,257.85581300826743,"[77, 0, 177]",177,l,0.666867790510878,colour,0.5
006,74,0,1,2,22,72,258.37477511400357,259.3358269033488,"[38, 0, 216]",216,a,0.43762780306860805,colour,0.5
006,74,0,1,2,23,73,259.8435250155162,260.85582521767356,"[72, 0, 182]",182,l,0.5016194945201278,colour,0.5
006,74,0,1,2,24,74,261.3624071707018,262.55184508953243,"[93, 0, 161]",161,l,0.6644082230050117,colour,0.5
006,74,0,1,2,25,75,263.0677757631056,264.1998386019841,"[1, 0, 253]",253,a,0.6085833203978837,colour,0.5
006,74,0,1,2,26,76,264.7084835199639,266.6478245528415,"[68, 0, 186]",186,a,1.4140261923894286,colour,0.5
006,74,0,1,2,27,77,267.1633334173821,268.16784492251463,"[75, 0, 179]",179,l,0.48564589163288474,colour,0.5
006,74,0,1,2,28,78,268.6815527298022,269.6638922847342,"[31, 0, 223]",223,a,0.4589348672889173,colour,0.5
006,74,0,1,2,29,79,270.1817149943672,271.18384727602825,"[17, 0, 237]",237,a,0.4769521364942193,colour,0.5
006,74,0,1,2,30,80,271.6992320793215,272.7119021026883,"[40, 0, 214]",214,a,0.48652653116732836,colour,0.5
006,74,0,1,2,31,81,273.21763177309185,274.5038199117407,"[99, 0, 155]",155,l,0.7627491862513125,colour,0.5
006,74,0,1,2,32,82,275.0165068702772,276.07982744835317,"[4, 0, 250]",250,a,0.5382534665986896,colour,0.5
006,74,0,1,2,33,83,276.583938018186,277.631846223725,"[34, 0, 220]",220,a,0.5222373283468187,colour,0.5
006,74,0,1,2,34,84,278.14615031378344,279.1758325116243,"[66, 0, 188]",188,l,0.4990724928211421,colour,0.5
006,74,0,1,2,35,85,279.6843911772594,280.8718775897287,"[70, 0, 184]",184,l,0.6574922886211425,colour,0.5
006,74,0,1,2,36,86,281.3890638439916,282.65583537891507,"[35, 0, 219]",219,a,0.7361283528152853,colour,0.5
006,74,0,1,2,37,87,283.16927143232897,284.7678368880879,"[78, 0, 176]",176,l,1.0737059011589736,colour,0.5
006,74,0,1,2,38,88,285.28017056686804,286.8798080710694,"[18, 0, 236]",236,a,1.0816682840231806,colour,0.5
006,74,0,1,2,39,89,287.38765742024407,288.7198219501879,"[46, 0, 208]",208,a,0.814407592639327,colour,0.5
006,74,0,1,2,40,90,289.22694189683534,290.60786258243024,"[53, 0, 201]",201,a,0.8575746810529381,colour,0.5
006,74,0,1,2,41,91,291.1175846690312,292.4158485175576,"[82, 0, 172]",172,l,0.7748957884032279,colour,0.5
006,74,0,1,2,42,92,292.92907504504547,295.8318604810629,"[98, 0, 156]",156,l,2.3794067420531064,colour,0.5
006,74,0,1,2,43,93,296.3533495021984,297.6158052731771,"[22, 0, 232]",232,a,0.7393185046967119,colour,0.5
006,74,0,1,2,44,94,298.1380012477748,299.4158922343049,"[5, 0, 249]",249,a,0.755400808993727,colour,0.5
006,74,0,1,2,45,95,299.92944604787044,301.4718104782514,"[36, 0, 218]",218,a,1.0210057720541954,colour,0.5
006,74,0,1,2,46,96,301.98614883283153,303.23179762321524,"[48, 0, 206]",206,a,0.7226903301198035,colour,0.5
006,74,0,1,2,47,97,303.75364465033635,304.96785862836987,"[44, 0, 210]",210,a,0.6814215790946037,colour,0.5
006,74,0,1,2,48,98,305.48678253102116,306.855808282271,"[6, 0, 248]",248,a,0.8458538264967501,colour,0.5
006,74,0,1,2,49,99,307.3671388356015,311.23982184007764,"[13, 0, 241]",241,a,3.3538926157634705,colour,0.5
006,74,0,1,2,50,100,311.7614183810074,312.96785626513883,"[42, 0, 212]",212,a,0.6789584665093571,colour,0.5
006,74,0,1,3,1,101,319.14990681619383,320.367784349015,"[24, 0, 230]",230,a,0.6937123285606503,colour,0.5
006,74,0,1,3,2,102,320.8817536700517,321.991837937152,"[26, 0, 228]",228,a,0.5866945455782115,colour,0.5
006,74,0,1,3,3,103,322.51034987717867,323.60782477329485,"[31, 0, 223]",223,a,0.5741351931355894,colour,0.5
006,74,0,1,3,4,104,324.1196708709467,325.2638106010854,"[65, 0, 189]",189,l,0.6209185745101422,colour,0.5
006,74,0,1,3,5,105,325.77597728930414,326.95982180838473,"[85, 0, 169]",169,l,0.6592315121088177,colour,0.5
006,74,0,1,3,6,106,327.4695064795669,328.71980462106876,"[8, 0, 246]",246,a,0.7326632963959128,colour,0.5
006,74,0,1,3,7,107,329.23814248107374,330.4237849067431,"[48, 0, 206]",206,a,0.6610652587842196,colour,0.5
006,74,0,1,3,8,108,330.9425871109124,332.9437891286798,"[62, 0, 192]",192,a,1.4779997668229043,colour,0.5
006,74,0,1,3,9,109,333.4609013402369,334.5838344367221,"[70, 0, 184]",184,l,0.6038162093609571,colour,0.5
006,74,0,1,3,10,110,335.09730554255657,336.22383996634744,"[57, 0, 197]",197,a,0.615581568563357,colour,0.5
006,74,0,1,3,11,111,336.74113019602373,337.9677719823085,"[30, 0, 224]",224,a,0.703364310786128,colour,0.5
006,74,0,1,3,12,112,338.48082206677645,339.599777713418,"[84, 0, 170]",170,l,0.5886531413998455,colour,0.5
006,74,0,1,3,13,113,340.1105068640318,341.11985912919044,"[1, 0, 253]",253,a,0.47990440553985536,colour,0.5
006,74,0,1,3,14,114,341.6316307899542,342.98381844651885,"[59, 0, 195]",195,a,0.8210533487144858,colour,0.5
006,74,0,1,3,15,115,343.501867223531,344.6958410658408,"[67, 0, 187]",187,l,0.6720019660424441,colour,0.5
006,74,0,1,3,16,116,345.2057187217288,346.25582970748655,"[13, 0, 241]",241,a,0.5265704211778939,colour,0.5
006,74,0,1,3,17,117,346.7684079646133,347.87980137579143,"[34, 0, 220]",220,a,0.5880529202986509,colour,0.5
006,74,0,1,3,18,118,348.4031060265843,349.63179029757157,"[47, 0, 207]",207,a,0.7011512904427946,colour,0.5
006,74,0,1,3,19,119,350.14364427211694,351.2157830602955,"[66, 0, 188]",188,l,0.549598986050114,colour,0.5
006,74,0,1,3,20,120,351.73736896761693,352.86377617903054,"[38, 0, 216]",216,a,0.6027933915611356,colour,0.5
006,74,0,1,3,21,121,353.3719134295825,354.39978039171547,"[97, 0, 157]",157,l,0.5149476344231516,colour,0.5
006,74,0,1,3,22,122,354.9095060226973,355.91197622451,"[53, 0, 201]",201,a,0.47898674476891756,colour,0.5
006,74,0,1,3,23,123,356.4268600556534,357.5037817086559,"[25, 0, 229]",229,a,0.5535732852295041,colour,0.5
006,74,0,1,3,24,124,358.012874429347,359.0317880921066,"[83, 0, 171]",171,l,0.4993147081695497,colour,0.5
006,74,0,1,3,25,125,359.5400438902434,360.5758393644355,"[95, 0, 159]",159,l,0.5058174980804324,colour,0.5
006,74,0,1,3,26,126,361.09249471477233,362.16780514409766,"[51, 0, 203]",203,a,0.5465262001380324,colour,0.5
006,74,0,1,3,27,127,362.6888404546771,363.63978733913973,"[9, 0, 245]",245,a,0.42802583961747587,colour,0.5
006,74,0,1,3,28,128,364.1487477275077,365.1997984298505,"[36, 0, 218]",218,a,0.5317766705993563,colour,0.5
006,74,0,1,3,29,129,365.71813195734285,366.7517790021375,"[71, 0, 183]",183,l,0.5131528784986585,colour,0.5
006,74,0,1,3,30,130,367.26212572841905,368.35981527063996,"[35, 0, 219]",219,a,0.5727323140017688,colour,0.5
006,74,0,1,3,31,131,368.8747806278989,369.911798206158,"[17, 0, 237]",237,a,0.5068722176365554,colour,0.5
006,74,0,1,3,32,132,370.4262598345522,371.45580182317644,"[82, 0, 172]",172,l,0.4996486895252019,colour,0.5
006,74,0,1,3,33,133,371.96434749197215,373.1038004558068,"[49, 0, 205]",205,a,0.6087207728996873,colour,0.5
006,74,0,1,3,34,134,373.62117930082604,374.9677735576406,"[63, 0, 191]",191,l,0.8258196720853448,colour,0.5
006,74,0,1,3,35,135,375.49021253501996,376.52774880826473,"[18, 0, 236]",236,a,0.5164434609469026,colour,0.5
006,74,0,1,3,36,136,377.0350227486342,378.07981957145967,"[99, 0, 155]",155,l,0.5214681474026293,colour,0.5
006,74,0,1,3,37,137,378.5956344543956,379.6558278957382,"[50, 0, 204]",204,a,0.5285404385067523,colour,0.5
006,74,0,1,3,38,138,380.15518632065505,381.20778720034286,"[69, 0, 185]",185,l,0.5292064319364727,colour,0.5
006,74,0,1,3,39,139,381.7177203884348,382.79980811825953,"[77, 0, 177]",177,l,0.557069061556831,colour,0.5
006,74,0,1,3,40,140,383.31216267100535,384.3997650316451,"[79, 0, 175]",175,l,0.5642870757728815,colour,0.5
006,74,0,1,3,41,141,384.9077987007331,386.271772590233,"[12, 0, 242]",242,a,0.840571564855054,colour,0.5
006,74,0,1,3,42,142,386.7859305634629,387.9037798969075,"[44, 0, 210]",210,a,0.5945785532239825,colour,0.5
006,74,0,1,3,43,143,388.421672710916,389.4557868570555,"[20, 0, 234]",234,a,0.5076083156745881,colour,0.5
006,74,0,1,3,44,144,389.9696195134893,391.3037489405833,"[58, 0, 196]",196,a,0.803335796110332,colour,0.5
006,74,0,1,3,45,145,391.81495070643723,392.92776983976364,"[21, 0, 233]",233,a,0.5831956185866147,colour,0.5
006,74,0,1,3,46,146,393.4511981580872,394.5037773763761,"[2, 0, 252]",252,a,0.5295624686405063,colour,0.5
006,74,0,1,3,47,147,395.0186627828516,396.1918423483148,"[91, 0, 163]",163,l,0.6546774716116488,colour,0.5
006,74,0,1,3,48,148,396.7005652477965,397.7037786366418,"[27, 0, 227]",227,a,0.48581563914194703,colour,0.5
006,74,0,1,3,49,149,398.2031559662428,399.1757631946821,"[7, 0, 247]",247,a,0.4506066015455872,colour,0.5
006,74,0,1,3,50,150,399.6927099907771,400.7758043911308,"[87, 0, 167]",167,l,0.5628948307130486,colour,0.5
006,74,0,1,4,1,151,407.6445729609113,408.47176282294095,"[7, 0, 247]",247,a,0.30830455641262233,colour,0.5
006,74,0,1,4,2,152,408.9902271074243,410.10379927419126,"[45, 0, 209]",209,a,0.592141434783116,colour,0.5
006,74,0,1,4,3,153,410.61333822249435,411.55176986497827,"[28, 0, 226]",226,a,0.41505097947083414,colour,0.5
006,74,0,1,4,4,154,412.057139166398,412.78377622622065,"[78, 0, 176]",176,l,0.2032166183926165,colour,0.5
006,74,0,1,4,5,155,413.2879718670156,414.37579044885933,"[81, 0, 173]",173,l,0.5651547184679657,colour,0.5
006,74,0,1,4,6,156,414.8973802945111,415.8957769477274,"[1, 0, 253]",253,a,0.47510775621049106,colour,0.5
006,74,0,1,4,7,157,416.4129742300138,417.69575363211334,"[63, 0, 191]",191,l,0.7597673789132386,colour,0.5
006,74,0,1,4,8,158,418.19962789444253,419.3917597194668,"[86, 0, 168]",168,l,0.6735753805842251,colour,0.5
006,74,0,1,4,9,159,419.9066494582221,420.9598048729822,"[38, 0, 216]",216,a,0.5325249775778502,colour,0.5
006,74,0,1,4,10,160,421.46648174291477,422.5277641683351,"[40, 0, 214]",214,a,0.5349632778670639,colour,0.5
006,74,0,1,4,11,161,423.04820634704083,424.15975296427496,"[79, 0, 175]",175,l,0.5859576601069421,colour,0.5
006,74,0,1,4,12,162,424.6789730389137,425.75973508367315,"[74, 0, 180]",180,l,0.5545890140347183,colour,0.5
006,74,0,1,4,13,163,426.27559289569035,427.37572940276004,"[18, 0, 236]",236,a,0.5768074376974255,colour,0.5
006,74,0,1,4,14,164,427.884902468184,428.887747611152,"[41, 0, 213]",213,a,0.4789032496046275,colour,0.5
006,74,0,1,4,15,165,429.40306782349944,430.431726021925,"[98, 0, 156]",156,l,0.49800162576138973,colour,0.5
006,74,0,1,4,16,166,430.95358565216884,432.0077906663064,"[22, 0, 232]",232,a,0.5255684773437679,colour,0.5
006,74,0,1,4,17,167,432.5188033860177,433.99177413410507,"[54, 0, 200]",200,a,0.9441676144488156,colour,0.5
006,74,0,1,4,18,168,434.5089091886766,435.7517707312945,"[20, 0, 234]",234,a,0.7206120048649609,colour,0.5
006,74,0,1,4,19,169,436.2664430672303,437.311729834415,"[71, 0, 183]",183,l,0.5230226572602987,colour,0.5
006,74,0,1,4,20,170,437.8277140711434,438.98370935115963,"[83, 0, 171]",171,l,0.6324050908442587,colour,0.5
006,74,0,1,4,21,171,439.50874062255025,440.57587599218823,"[5, 0, 249]",249,a,0.5377950300462544,colour,0.5
006,74,0,1,4,22,172,441.0982822806109,442.1677114088088,"[47, 0, 207]",207,a,0.5382152637466788,colour,0.5
006,74,0,1,4,23,173,442.68318600882776,443.91978303832,"[57, 0, 197]",197,a,0.7052791896276176,colour,0.5
006,74,0,1,4,24,174,444.4286607191898,445.6078074441757,"[55, 0, 199]",199,a,0.6561847201082855,colour,0.5
006,74,0,1,4,25,175,446.11899188067764,447.56772495713085,"[50, 0, 204]",204,a,0.9190634817350656,colour,0.5
006,74,0,1,4,26,176,448.0782894799486,448.9757197930012,"[59, 0, 195]",195,a,0.3827280446421355,colour,0.5
006,74,0,1,4,27,177,449.49474885244854,450.57572081685066,"[87, 0, 167]",167,l,0.5502421364653856,colour,0.5
006,74,0,1,4,28,178,451.0935147756245,452.20775805576704,"[24, 0, 230]",230,a,0.5849647743161768,colour,0.5
006,74,0,1,4,29,179,452.72055489756167,453.79175121244043,"[51, 0, 203]",203,a,0.5543148971628398,colour,0.5
006,74,0,1,4,30,180,454.31447297125123,455.3997386440169,"[25, 0, 229]",229,a,0.5627132675144821,colour,0.5
006,74,0,1,4,31,181,455.9127528886311,457.09574158047326,"[39, 0, 215]",215,a,0.6491482688579708,colour,0.5
006,74,0,1,4,32,182,457.60781138250604,458.70371128898114,"[77, 0, 177]",177,l,0.5724995511118323,colour,0.5
006,74,0,1,4,33,183,459.21383627993055,460.3037453959696,"[89, 0, 165]",165,l,0.562109895516187,colour,0.5
006,74,0,1,4,34,184,460.82508711889386,461.9677132992074,"[4, 0, 250]",250,a,0.6240618589799851,colour,0.5
006,74,0,1,4,35,185,462.48472626134753,463.711734324228,"[85, 0, 169]",169,l,0.6962215208914131,colour,0.5
006,74,0,1,4,36,186,464.2296653413214,465.2957928592805,"[37, 0, 217]",217,a,0.5439059433992952,colour,0.5
006,74,0,1,4,37,187,465.81034310301766,466.9197310504969,"[34, 0, 220]",220,a,0.5848186574876308,colour,0.5
006,74,0,1,4,38,188,467.43757620919496,468.43978214031085,"[21, 0, 233]",233,a,0.4811186327133328,colour,0.5
006,74,0,1,4,39,189,468.94722622213885,470.07971165771596,"[90, 0, 164]",164,l,0.6046830643899739,colour,0.5
006,74,0,1,4,40,190,470.59176176739857,471.65570737887174,"[84, 0, 170]",170,l,0.5328471437096596,colour,0.5
006,74,0,1,4,41,191,472.1730460517574,473.27172611653805,"[11, 0, 243]",243,a,0.5680754797067493,colour,0.5
006,74,0,1,4,42,192,473.7910277172923,474.8637958713807,"[2, 0, 252]",252,a,0.550123588880524,colour,0.5
006,74,0,1,4,43,193,475.3759003318846,476.86373285599984,"[66, 0, 188]",188,l,0.9692280304152519,colour,0.5
006,74,0,1,4,44,194,477.37625085469335,478.4797374152113,"[93, 0, 161]",161,l,0.5793461685534567,colour,0.5
006,74,0,1,4,45,195,478.98996756295674,480.50374941318296,"[69, 0, 185]",185,l,0.9951041012536734,colour,0.5
006,74,0,1,4,46,196,481.01507681584917,482.0957388235256,"[30, 0, 224]",224,a,0.5507123884744942,colour,0.5
006,74,0,1,4,47,197,482.6132968685124,483.83971416251734,"[73, 0, 181]",181,l,0.6947820142377168,colour,0.5
006,74,0,1,4,48,198,484.3599728089757,485.4717332844157,"[9, 0, 245]",245,a,0.5879489448852837,colour,0.5
006,74,0,1,4,49,199,485.98874427750707,487.01570263691247,"[23, 0, 231]",231,a,0.49819461023434997,colour,0.5
006,74,0,1,4,50,200,487.5262588891201,488.52769997133873,"[35, 0, 219]",219,a,0.47701751510612667,colour,0.5
006,74,0,1,5,1,201,495.64067349233665,497.0557177765295,"[51, 0, 203]",203,a,0.8944906471297145,colour,0.5
006,74,0,1,5,2,202,497.57444357452914,498.89576040627435,"[62, 0, 192]",192,a,0.7978944208007306,colour,0.5
006,74,0,1,5,3,203,499.4163297971245,500.39175066095777,"[5, 0, 249]",249,a,0.44614747795276344,colour,0.5
006,74,0,1,5,4,204,500.9145003829617,501.9916867003776,"[77, 0, 177]",177,l,0.5456680099014193,colour,0.5
006,74,0,1,5,5,205,502.5139925580006,503.55971964471973,"[7, 0, 247]",247,a,0.517273688223213,colour,0.5
006,74,0,1,5,6,206,504.0786998674739,505.08771736361086,"[17, 0, 237]",237,a,0.48351715435273945,colour,0.5
006,74,0,1,5,7,207,505.6057448729407,506.6717120956164,"[45, 0, 209]",209,a,0.5462847726885229,colour,0.5
006,74,0,1,5,8,208,507.19151269923896,508.19975038059056,"[16, 0, 238]",238,a,0.48239154275506735,colour,0.5
006,74,0,1,5,9,209,508.70961622078903,509.6397136899177,"[15, 0, 239]",239,a,0.41672994452528656,colour,0.5
006,74,0,1,5,10,210,510.1549102347344,511.16769171645865,"[2, 0, 252]",252,a,0.4896733600180596,colour,0.5
006,74,0,1,5,11,211,511.6792546387296,512.8237251995597,"[99, 0, 155]",155,l,0.6148608305957168,colour,0.5
006,74,0,1,5,12,212,513.3384617324919,514.3116939943284,"[89, 0, 165]",165,l,0.44320426718331873,colour,0.5
006,74,0,1,5,13,213,514.8217669976875,515.959729648428,"[70, 0, 184]",184,l,0.6138986649457365,colour,0.5
006,74,0,1,5,14,214,516.4831300040241,517.5836847752798,"[95, 0, 159]",159,l,0.5817466594744474,colour,0.5
006,74,0,1,5,15,215,518.0928905298933,519.223703695694,"[44, 0, 210]",210,a,0.6073813028633595,colour,0.5
006,74,0,1,5,16,216,519.7365753680933,520.791677956935,"[43, 0, 211]",211,a,0.5290614964906126,colour,0.5
006,74,0,1,5,17,217,521.3015150465071,522.3596860892139,"[38, 0, 216]",216,a,0.5273352700751275,colour,0.5
006,74,0,1,5,18,218,522.8687150068581,523.9196952106431,"[14, 0, 240]",240,a,0.5208068799693137,colour,0.5
006,74,0,1,5,19,219,524.4414374746848,525.9116926554125,"[55, 0, 199]",199,a,0.9493167561013252,colour,0.5
006,74,0,1,5,20,220,526.42237730138,527.5277287221979,"[82, 0, 172]",172,l,0.5776735048275441,colour,0.5
006,74,0,1,5,21,221,528.036053837277,529.1757301117759,"[46, 0, 208]",208,a,0.6164279435761273,colour,0.5
006,74,0,1,5,22,222,529.6997464420274,531.4797704981174,"[56, 0, 198]",198,a,1.2483864130917937,colour,0.5
006,74,0,1,5,23,223,532.0025091925636,532.8076787353493,"[92, 0, 162]",162,l,0.2744661024771631,colour,0.5
006,74,0,1,5,24,224,533.3266369025223,534.5836946214549,"[49, 0, 205]",205,a,0.7280202468391508,colour,0.5
006,74,0,1,5,25,225,535.1025535394438,536.1437384013552,"[74, 0, 180]",180,l,0.5176907710265368,colour,0.5
006,74,0,1,5,26,226,536.6528823222034,537.6556932004169,"[47, 0, 207]",207,a,0.47270805295556784,colour,0.5
006,74,0,1,5,27,227,538.1753736811224,539.2476928506512,"[18, 0, 236]",236,a,0.5488672202918679,colour,0.5
006,74,0,1,5,28,228,539.758213263005,541.4636870124377,"[58, 0, 196]",196,a,1.1680071870796382,colour,0.5
006,74,0,1,5,29,229,541.9728395976126,543.1597474503797,"[81, 0, 173]",173,l,0.6619474736507982,colour,0.5
006,74,0,1,5,30,230,543.6700453397352,544.783693912439,"[87, 0, 167]",167,l,0.5883928092662245,colour,0.5
006,74,0,1,5,31,231,545.2997707030736,546.4076462823432,"[86, 0, 168]",168,l,0.5905656572431326,colour,0.5
006,74,0,1,5,32,232,546.9211867051199,548.1277053277008,"[72, 0, 182]",182,l,0.6852883582469076,colour,0.5
006,74,0,1,5,33,233,548.6379149956629,549.9276520798448,"[88, 0, 166]",166,l,0.7663528765551746,colour,0.5
006,74,0,1,5,34,234,550.4443712329958,551.5117102209479,"[80, 0, 174]",174,l,0.5495466047432274,colour,0.5
006,74,0,1,5,35,235,552.0305809543934,554.3436738892924,"[60, 0, 194]",194,a,1.7939662015996873,colour,0.5
006,74,0,1,5,36,236,554.8578905456234,555.9516443856992,"[97, 0, 157]",157,l,0.5670806251000613,colour,0.5
006,74,0,1,5,37,237,556.4722634011414,557.5996461689938,"[27, 0, 227]",227,a,0.6066345709841698,colour,0.5
006,74,0,1,5,38,238,558.0976714254357,559.3036658391356,"[78, 0, 176]",176,l,0.6824014675803483,colour,0.5
006,74,0,1,5,39,239,559.8104352629744,560.8476773332804,"[23, 0, 231]",231,a,0.5181547217071056,colour,0.5
006,74,0,1,5,40,240,561.3595758122392,562.3757191628683,"[84, 0, 170]",170,l,0.4927095181774348,colour,0.5
006,74,0,1,5,41,241,562.8930259339977,563.9916559804697,"[79, 0, 175]",175,l,0.5741911192890257,colour,0.5
006,74,0,1,5,42,242,564.4928867488634,565.567685178481,"[33, 0, 221]",221,a,0.550376437837258,colour,0.5
006,74,0,1,5,43,243,566.0878607234918,568.8236483996734,"[65, 0, 189]",189,a,2.21237747464329,colour,0.5
006,74,0,1,5,44,244,569.3378658436704,570.4236884145066,"[34, 0, 220]",220,a,0.5640090208034962,colour,0.5
006,74,0,1,5,45,245,570.9348086540122,571.9676813976839,"[32, 0, 222]",222,a,0.5095381606370211,colour,0.5
006,74,0,1,5,46,246,572.4817318508867,573.5356513266452,"[28, 0, 226]",226,a,0.5305711079854518,colour,0.5
006,74,0,1,5,47,247,574.0405259577092,575.2156456080265,"[40, 0, 214]",214,a,0.6487516658380628,colour,0.5
006,74,0,1,5,48,248,575.7229337268509,576.8236405227799,"[4, 0, 250]",250,a,0.5890954304486513,colour,0.5
006,74,0,1,5,49,249,577.3362140536774,578.5516588003375,"[13, 0, 241]",241,a,0.6922058679629117,colour,0.5
006,74,0,1,5,50,250,579.0705909738317,580.135677556973,"[12, 0, 242]",242,a,0.5538631558883935,colour,0.5
006,74,0,1,6,1,251,585.5176269682124,587.0237016475294,"[74, 0, 180]",180,l,0.9836420034989715,colour,0.5
006,74,0,1,6,2,252,587.5438771925401,588.527664919151,"[16, 0, 238]",238,a,0.4596209470182657,colour,0.5
006,74,0,1,6,3,253,589.0323737410363,590.0076500633731,"[9, 0, 245]",245,a,0.4519905762281269,colour,0.5
006,74,0,1,6,4,254,590.5263801936526,591.647661894327,"[26, 0, 228]",228,a,0.588914655148983,colour,0.5
006,74,0,1,6,5,255,592.1566124367528,593.2476944259834,"[86, 0, 168]",168,l,0.5697808326222003,colour,0.5
006,74,0,1,6,6,256,593.7638358073309,594.7356777931564,"[85, 0, 169]",169,l,0.4422165018040687,colour,0.5
006,74,0,1,6,7,257,595.2452931473963,596.351644936949,"[39, 0, 215]",215,a,0.5841132795903832,colour,0.5
006,74,0,1,6,8,258,596.8748688495252,597.8956686402671,"[6, 0, 248]",248,a,0.5015348175074905,colour,0.5
006,74,0,1,6,9,259,598.4071587012149,599.5276523160283,"[81, 0, 173]",173,l,0.5971231916919351,colour,0.5
006,74,0,1,6,10,260,600.0450150135439,601.3596754553728,"[48, 0, 206]",206,a,0.7959685144014657,colour,0.5
006,74,0,1,6,11,261,601.875719556585,602.9677058160305,"[5, 0, 249]",249,a,0.5685102855786681,colour,0.5
006,74,0,1,6,12,262,603.4851449197158,604.7036628460046,"[68, 0, 186]",186,l,0.695132143329829,colour,0.5
006,74,0,1,6,13,263,605.2105130080599,606.2556461752392,"[37, 0, 217]",217,a,0.5218560856301337,colour,0.5
006,74,0,1,6,14,264,606.7729887864552,607.9436185935047,"[21, 0, 233]",233,a,0.6472708054352552,colour,0.5
006,74,0,1,6,15,265,608.4605094634462,609.6556695697363,"[83, 0, 171]",171,l,0.674620253732428,colour,0.5
006,74,0,1,6,16,266,610.1650836686604,611.2236658863258,"[35, 0, 219]",219,a,0.4985939699690789,colour,0.5
006,74,0,1,6,17,267,611.731937044533,613.3596348892897,"[59, 0, 195]",195,a,1.1158139377366751,colour,0.5
006,74,0,1,6,18,268,613.8768388666213,615.1196169140749,"[7, 0, 247]",247,a,0.7201823191717267,colour,0.5
006,74,0,1,6,19,269,615.6273563802242,616.8476450378075,"[49, 0, 205]",205,a,0.6970560804475099,colour,0.5
006,74,0,1,6,20,270,617.3616801309399,618.3756486643106,"[23, 0, 231]",231,a,0.49058196251280606,colour,0.5
006,74,0,1,6,21,271,618.8929223525338,619.9996522341389,"[90, 0, 164]",164,l,0.5832909292075783,colour,0.5
006,74,0,1,6,22,272,620.5164131349884,621.6156804240309,"[25, 0, 229]",229,a,0.5694299158640206,colour,0.5
006,74,0,1,6,23,273,622.1387684596702,623.2076485666912,"[97, 0, 157]",157,l,0.5450414011720568,colour,0.5
006,74,0,1,6,24,274,623.730808282271,624.8636883513536,"[53, 0, 201]",201,a,0.6029513238463551,colour,0.5
006,74,0,1,6,25,275,625.3830955030862,626.3756506335922,"[36, 0, 218]",218,a,0.46803349582478404,colour,0.5
006,74,0,1,6,26,276,626.889200902544,628.6796370632946,"[60, 0, 194]",194,a,1.2584452382288873,colour,0.5
006,74,0,1,6,27,277,629.1930833568331,630.951649505645,"[66, 0, 188]",188,l,1.2351177441887558,colour,0.5
006,74,0,1,6,28,278,631.4717801520601,632.5116625656374,"[10, 0, 244]",244,a,0.5165253810118884,colour,0.5
006,74,0,1,6,29,279,633.0186572691891,634.1436139459256,"[89, 0, 165]",165,l,0.5986186247318983,colour,0.5
006,74,0,1,6,30,280,634.6622554610949,635.775636218721,"[50, 0, 204]",204,a,0.5884136829990894,colour,0.5
006,74,0,1,6,31,281,636.2773986794055,637.2795971273445,"[1, 0, 253]",253,a,0.4788729234132916,colour,0.5
006,74,0,1,6,32,282,637.7930331807584,638.8876156725455,"[14, 0, 240]",240,a,0.5711136071477085,colour,0.5
006,74,0,1,6,33,283,639.3906203231309,640.9996396310162,"[57, 0, 197]",197,a,1.085664638550952,colour,0.5
006,74,0,1,6,34,284,641.5059514057357,642.575678281486,"[75, 0, 179]",179,l,0.5468779045622796,colour,0.5
006,74,0,1,6,35,285,643.0715952808969,644.0796439161059,"[41, 0, 213]",213,a,0.48458487051539123,colour,0.5
006,74,0,1,6,36,286,644.5896184579469,645.7116464965511,"[95, 0, 159]",159,l,0.5956722635310143,colour,0.5
006,74,0,1,6,37,287,646.2107221402694,647.9596213409677,"[70, 0, 184]",184,l,1.225491362158209,colour,0.5
006,74,0,1,6,38,288,648.4775818963535,649.7916291202419,"[80, 0, 174]",174,l,0.7907437544781715,colour,0.5
006,74,0,1,6,39,289,650.3048623430077,651.5036088102497,"[31, 0, 223]",223,a,0.6804609887767583,colour,0.5
006,74,0,1,6,40,290,652.0111749842763,653.1596738011576,"[98, 0, 156]",156,l,0.6344708129763603,colour,0.5
006,74,0,1,6,41,291,653.6737360698171,654.6636599157937,"[28, 0, 226]",226,a,0.4665522414725274,colour,0.5
006,74,0,1,6,42,292,655.1612125572283,656.1837338483892,"[99, 0, 155]",155,l,0.504762384807691,colour,0.5
006,74,0,1,6,43,293,656.7026317573618,657.983611283591,"[52, 0, 202]",202,a,0.7699022158049047,colour,0.5
006,74,0,1,6,44,294,658.5027742506936,659.6636256510392,"[29, 0, 225]",225,a,0.6376097647007555,colour,0.5
006,74,0,1,6,45,295,660.1774441290181,661.2555953690317,"[72, 0, 182]",182,l,0.5581915224902332,colour,0.5
006,74,0,1,6,46,296,661.7650839050766,662.8235802643467,"[4, 0, 250]",250,a,0.5350333824753761,colour,0.5
006,74,0,1,6,47,297,663.3431402281858,664.4156575021334,"[2, 0, 252]",252,a,0.5451745209284127,colour,0.5
006,74,0,1,6,48,298,664.9251948751044,666.1036133789457,"[51, 0, 203]",203,a,0.6640238293912262,colour,0.5
006,74,0,1,6,49,299,666.6193168035243,667.7195947011933,"[13, 0, 241]",241,a,0.5877807727083564,colour,0.5
006,74,0,1,6,50,300,668.233361979248,669.4796291075181,"[58, 0, 196]",196,l,0.7228785883635283,colour,0.5
006,74,0,1,7,1,301,675.0752056664787,677.4316342559177,"[59, 0, 195]",195,a,1.836973782395944,colour,0.5
006,74,0,1,7,2,302,677.9486862088088,679.0556043488905,"[99, 0, 155]",155,l,0.5877023974899203,colour,0.5
006,74,0,1,7,3,303,679.5695476760156,680.5036056595854,"[2, 0, 252]",252,a,0.41075490810908377,colour,0.5
006,74,0,1,7,4,304,681.0224452791736,682.0876480469014,"[91, 0, 163]",163,l,0.5421946828719229,colour,0.5
006,74,0,1,7,5,305,682.5976497640368,683.9436528580263,"[63, 0, 191]",191,l,0.8154820043127984,colour,0.5
006,74,0,1,7,6,306,684.4597926638089,685.5996540458873,"[83, 0, 171]",171,l,0.6097341382410377,colour,0.5
006,74,0,1,7,7,307,686.1107790116221,687.1276111984625,"[15, 0, 239]",239,a,0.49335975758731365,colour,0.5
006,74,0,1,7,8,308,687.6461377106607,688.9355991028715,"[61, 0, 193]",193,a,0.7708761969115585,colour,0.5
006,74,0,1,7,9,309,689.4388219439425,690.4555651217233,"[73, 0, 181]",181,l,0.49141218955628574,colour,0.5
006,74,0,1,7,10,310,690.9710731988307,691.9916512542404,"[88, 0, 166]",166,l,0.5031846379861236,colour,0.5
006,74,0,1,7,11,311,692.5096397728194,693.6075731057208,"[32, 0, 222]",222,a,0.571785114472732,colour,0.5
006,74,0,1,7,12,312,694.1174086199608,695.0956151559949,"[21, 0, 233]",233,a,0.4548691960517317,colour,0.5
006,74,0,1,7,13,313,695.6017453677487,696.567555997055,"[16, 0, 238]",238,a,0.4385092300362885,colour,0.5
006,74,0,1,7,14,314,697.0750398573,698.215597952716,"[5, 0, 249]",249,a,0.6170324969571084,colour,0.5
006,74,0,1,7,15,315,698.7190007814206,699.8555944238324,"[90, 0, 164]",164,l,0.6132783575449139,colour,0.5
006,74,0,1,7,16,316,700.3770476051141,701.5174138974398,"[1, 0, 253]",253,a,0.6163409035652876,colour,0.5
006,74,0,1,7,17,317,702.0368931228295,702.9995986712165,"[69, 0, 185]",185,l,0.4395734020508826,colour,0.5
006,74,0,1,7,18,318,703.5063011411112,704.4875859767199,"[29, 0, 225]",225,a,0.45501216198317707,colour,0.5
006,74,0,1,7,19,319,704.9935956716072,706.2315770694986,"[46, 0, 208]",208,a,0.7146251532249153,colour,0.5
006,74,0,1,7,20,320,706.745143485954,707.9435551841743,"[26, 0, 228]",228,a,0.6750633304473013,colour,0.5
006,74,0,1,7,21,321,708.4638796029612,709.631570531521,"[36, 0, 218]",218,a,0.6413178241346031,colour,0.5
006,74,0,1,7,22,322,710.1407333570533,711.559571164893,"[13, 0, 241]",241,a,0.8954961355775595,colour,0.5
006,74,0,1,7,23,323,712.1232336012181,713.2556170306634,"[25, 0, 229]",229,a,0.6060264727566391,colour,0.5
006,74,0,1,7,24,324,713.7764912582934,714.7595590343699,"[9, 0, 245]",245,a,0.45335013209842145,colour,0.5
006,74,0,1,7,25,325,715.272679223679,716.3197060020175,"[4, 0, 250]",250,a,0.5173650605138391,colour,0.5
006,74,0,1,7,26,326,716.8337060429621,717.8556074209046,"[98, 0, 156]",156,l,0.500521058216691,colour,0.5
006,74,0,1,7,27,327,718.3665173465852,719.4316236220766,"[74, 0, 180]",180,l,0.5406775882001966,colour,0.5
006,74,0,1,7,28,328,719.9460257797036,720.9996278157923,"[94, 0, 160]",160,l,0.5398694165050983,colour,0.5
006,74,0,1,7,29,329,721.5175092082936,722.6636221064255,"[96, 0, 158]",158,l,0.6142602155450732,colour,0.5
006,74,0,1,7,30,330,723.1829122859053,725.9595807746518,"[68, 0, 186]",186,l,2.257872585905716,colour,0.5
006,74,0,1,7,31,331,726.4825341149699,728.471601346042,"[31, 0, 223]",223,a,1.4618729578796774,colour,0.5
006,74,0,1,7,32,332,728.9869892999995,730.0395893920213,"[45, 0, 209]",209,a,0.5294569178950042,colour,0.5
006,74,0,1,7,33,333,730.5407122469041,731.8235704181716,"[82, 0, 172]",172,l,0.7628941216971725,colour,0.5
006,74,0,1,7,34,334,732.331426462857,733.4555785125121,"[20, 0, 234]",234,a,0.6070059675257653,colour,0.5
006,74,0,1,7,35,335,733.9673482039943,735.2235922373366,"[38, 0, 216]",216,a,0.7328972409013659,colour,0.5
006,74,0,1,7,36,336,735.7240380707663,736.7275842595845,"[86, 0, 168]",168,l,0.48838312085717916,colour,0.5
006,74,0,1,7,37,337,737.249072493054,738.2475872999057,"[19, 0, 235]",235,a,0.47242842242121696,colour,0.5
006,74,0,1,7,38,338,738.7637857887894,739.7355482177809,"[44, 0, 210]",210,a,0.4483530151192099,colour,0.5
006,74,0,1,7,39,339,740.2481686165556,741.3115447268356,"[41, 0, 213]",213,a,0.539967090357095,colour,0.5
006,74,0,1,7,40,340,741.8355472725816,742.8235542704351,"[47, 0, 207]",207,a,0.42198306135833263,colour,0.5
006,74,0,1,7,41,341,743.333355126204,744.3035795870237,"[50, 0, 204]",204,a,0.4471584805287421,colour,0.5
006,74,0,1,7,42,342,744.8173563173041,745.9515967301559,"[67, 0, 187]",187,l,0.6233395454473794,colour,0.5
006,74,0,1,7,43,343,746.4610061030835,747.5036285025999,"[92, 0, 162]",162,l,0.5192952994257212,colour,0.5
006,74,0,1,7,44,344,748.0234645523597,749.8555215622764,"[62, 0, 192]",192,a,1.3086306606419384,colour,0.5
006,74,0,1,7,45,345,750.36730897706,751.3195610668045,"[49, 0, 205]",205,a,0.44133271160535514,colour,0.5
006,74,0,1,7,46,346,751.8332653294783,752.8315599765629,"[89, 0, 165]",165,l,0.46597840776667,colour,0.5
006,74,0,1,7,47,347,753.3493649628945,754.3595856584143,"[52, 0, 202]",202,a,0.4867931646294892,colour,0.5
006,74,0,1,7,48,348,754.8792688960675,756.2796164257452,"[66, 0, 188]",188,l,0.8693943910766393,colour,0.5
006,74,0,1,7,49,349,756.7932600360364,757.9115764708258,"[57, 0, 197]",197,a,0.5977151421830058,colour,0.5
006,74,0,1,7,50,350,758.4332525688224,759.5515363141894,"[14, 0, 240]",240,a,0.5877004282083362,colour,0.5
006,74,0,1,8,1,351,765.2180185297038,766.5036056595854,"[70, 0, 184]",184,l,0.7549758495297283,colour,0.5
006,74,0,1,8,2,352,767.0239954567514,768.0795998054091,"[99, 0, 155]",155,l,0.5325568793341517,colour,0.5
006,74,0,1,8,3,353,768.5902505805716,769.5675658432301,"[19, 0, 235]",235,a,0.4550925064831972,colour,0.5
006,74,0,1,8,4,354,770.0734944059514,771.0715649547055,"[13, 0, 241]",241,a,0.4750392269343138,colour,0.5
006,74,0,1,8,5,355,771.5807793738786,772.5595849496312,"[2, 0, 252]",252,a,0.45993326674215496,colour,0.5
006,74,0,1,8,6,356,773.0664524408057,774.2075701912399,"[71, 0, 183]",183,l,0.6177693826612085,colour,0.5
006,74,0,1,8,7,357,774.7230526683852,775.8475800531451,"[77, 0, 177]",177,l,0.6011955586727709,colour,0.5
006,74,0,1,8,8,358,776.371025307104,777.6155732979532,"[91, 0, 163]",163,l,0.7209806446917355,colour,0.5
006,74,0,1,8,9,359,778.1366409040056,779.4395367742982,"[74, 0, 180]",180,l,0.7909454035107046,colour,0.5
006,74,0,1,8,10,360,779.9532784523908,781.3435388002545,"[73, 0, 181]",181,l,0.867026983294636,colour,0.5
006,74,0,1,8,11,361,781.8547086643521,783.0315183077473,"[81, 0, 173]",173,l,0.6583201526664197,colour,0.5
006,74,0,1,8,12,362,783.5515146527905,784.6315595039632,"[8, 0, 246]",246,a,0.5526217536535114,colour,0.5
006,74,0,1,8,13,363,785.1448734651785,785.9275674028322,"[92, 0, 162]",162,l,0.25553550431504846,colour,0.5
006,74,0,1,8,14,364,786.4381693413015,787.9675431577489,"[16, 0, 238]",238,a,1.0044055604375899,colour,0.5
006,74,0,1,8,15,365,788.4844655354973,789.7195368057583,"[62, 0, 192]",192,l,0.6999035864137113,colour,0.5
006,74,0,1,8,16,366,790.2373658167198,791.3835397611838,"[9, 0, 245]",245,a,0.622952395118773,colour,0.5
006,74,0,1,8,17,367,791.8951849974692,793.2715410089586,"[52, 0, 202]",202,a,0.8578972409013659,colour,0.5
006,74,0,1,8,18,368,793.7786680446006,795.1435115460772,"[86, 0, 168]",168,l,0.8538937971461564,colour,0.5
006,74,0,1,8,19,369,795.6569227874279,797.3275017882697,"[79, 0, 175]",175,l,1.1471817961428314,colour,0.5
006,74,0,1,8,20,370,797.8443111320958,799.2075520744547,"[69, 0, 185]",185,l,0.839945743791759,colour,0.5
006,74,0,1,8,21,371,799.7214524722658,802.5435739313252,"[66, 0, 188]",188,l,2.300592659274116,colour,0.5
006,74,0,1,8,22,372,803.060782634886,804.3275443236344,"[36, 0, 218]",218,a,0.7434605823364109,colour,0.5
006,74,0,1,8,23,373,804.8420378533192,806.191528453026,"[80, 0, 174]",174,l,0.8239221223630011,colour,0.5
006,74,0,1,8,24,374,806.6983801906463,807.9755748575553,"[1, 0, 253]",253,a,0.7640063425060362,colour,0.5
006,74,0,1,8,25,375,808.48509175051,809.6635535773821,"[87, 0, 167]",167,l,0.6520958116743714,colour,0.5
006,74,0,1,8,26,376,810.1756284993608,811.4475531142671,"[42, 0, 212]",212,a,0.7485467086080462,colour,0.5
006,74,0,1,8,27,377,811.9666483397596,813.7035399659071,"[23, 0, 231]",231,a,1.1901842567604035,colour,0.5
006,74,0,1,8,28,378,814.2154577434994,816.007501189597,"[11, 0, 243]",243,a,1.2615755256265402,colour,0.5
006,74,0,1,8,29,379,816.5210959629621,817.999517145101,"[39, 0, 215]",215,a,0.9571086037904024,colour,0.5
006,74,0,1,8,30,380,818.5129394140095,820.0875279237516,"[34, 0, 220]",220,a,1.0548371367622167,colour,0.5
006,74,0,1,8,31,381,820.6068303124048,822.3195240451023,"[78, 0, 176]",176,l,1.189275260316208,colour,0.5
006,74,0,1,8,32,382,822.8340278151445,824.3755718644243,"[55, 0, 199]",199,a,1.0101529541425407,colour,0.5
006,74,0,1,8,33,383,824.8919601871166,825.9995458957274,"[45, 0, 209]",209,a,0.576421468751505,colour,0.5
006,74,0,1,8,34,384,826.5206812433898,828.3115037668031,"[24, 0, 230]",230,a,1.2695064006838948,colour,0.5
006,74,0,1,8,35,385,828.8226251879241,830.5115589839406,"[30, 0, 224]",224,a,1.1704391853418201,colour,0.5
006,74,0,1,8,36,386,831.0064653747249,832.3755163322203,"[51, 0, 203]",203,a,0.8456809280905873,colour,0.5
006,74,0,1,8,37,387,832.8933666108642,835.2714823258575,"[35, 0, 219]",219,a,1.8553277901373804,colour,0.5
006,74,0,1,8,38,388,835.7944628414698,839.3355456972495,"[12, 0, 242]",242,a,3.0109233167022467,colour,0.5
006,74,0,1,8,39,389,839.8418661365286,841.0874905083328,"[84, 0, 170]",170,l,0.71984006697312,colour,0.5
006,74,0,1,8,40,390,841.5943099504802,842.8795473452192,"[22, 0, 232]",232,a,0.7616290885489434,colour,0.5
006,74,0,1,8,41,391,843.3907073631417,845.1675471749622,"[44, 0, 210]",210,a,1.2442750555928797,colour,0.5
006,74,0,1,8,42,392,845.6788470083848,847.0955371744931,"[97, 0, 157]",157,l,0.8855424677021801,colour,0.5
006,74,0,1,8,43,393,847.6144902217202,848.8395625317935,"[29, 0, 225]",225,a,0.699610565090552,colour,0.5
006,74,0,1,8,44,394,849.3511258480139,850.8235294581391,"[40, 0, 214]",214,a,0.9475015201605856,colour,0.5
006,74,0,1,8,45,395,851.3278479787987,853.0314903445542,"[18, 0, 236]",236,a,1.1873076062183827,colour,0.5
006,74,0,1,8,46,396,853.530574652832,855.1035133420955,"[37, 0, 217]",217,a,1.0573108831886202,colour,0.5
006,74,0,1,8,47,397,855.6165787866339,857.2315116911195,"[7, 0, 247]",247,a,1.0914821368642151,colour,0.5
006,74,0,1,8,48,398,857.7398045107257,859.0154875970911,"[63, 0, 191]",191,l,0.7523311739787459,colour,0.5
006,74,0,1,8,49,399,859.5369506245479,860.7514729837421,"[68, 0, 186]",186,l,0.6913366499356925,colour,0.5
006,74,0,1,8,50,400,861.2713511751499,862.9491249532439,"[67, 0, 187]",187,l,1.151540882885456,colour,0.5
006,74,0,1,9,1,401,869.2862531233113,870.5834791876841,"[71, 0, 183]",183,l,0.778076094109565,colour,0.5
006,74,0,1,9,2,402,871.1034349666443,872.1995357344858,"[65, 0, 189]",189,l,0.5729245108086616,colour,0.5
006,74,0,1,9,3,403,872.7164246353786,873.8554951746482,"[56, 0, 198]",198,a,0.611992844613269,colour,0.5
006,74,0,1,9,4,404,874.3762154085562,875.4714973708615,"[37, 0, 217]",217,a,0.5784801014233381,colour,0.5
006,74,0,1,9,5,405,875.9919261587784,877.231477426365,"[88, 0, 166]",166,l,0.7092558518052101,colour,0.5
006,74,0,1,9,6,406,877.7418115495238,878.8794989020098,"[8, 0, 246]",246,a,0.6098893135786057,colour,0.5
006,74,0,1,9,7,407,879.388126096921,880.4954802242573,"[33, 0, 221]",221,a,0.5876846741884947,colour,0.5
006,74,0,1,9,8,408,881.0112576920073,882.2874468702357,"[40, 0, 214]",214,a,0.7503111381083727,colour,0.5
006,74,0,1,9,9,409,882.8039265652187,884.183473122539,"[73, 0, 181]",181,l,0.8493322737049311,colour,0.5
006,74,0,1,9,10,410,884.7077222159132,886.0794966176618,"[93, 0, 161]",161,l,0.8411816321313381,colour,0.5
006,74,0,1,9,11,411,886.5956261835527,887.9515061457641,"[47, 0, 207]",207,a,0.8248740481212735,colour,0.5
006,74,0,1,9,12,412,888.4658551341854,889.7514883438125,"[5, 0, 249]",249,a,0.762239943491295,colour,0.5
006,74,0,1,9,13,413,890.2728611803614,892.1834794241004,"[29, 0, 225]",225,a,1.3873514020815492,colour,0.5
006,74,0,1,9,14,414,892.6908738811035,895.7914967879187,"[94, 0, 160]",160,l,2.569469694280997,colour,0.5
006,74,0,1,9,15,415,896.2858242250513,898.1674345349893,"[99, 0, 155]",155,l,1.3566838016267866,colour,0.5
006,74,0,1,9,16,416,898.6816314989701,900.5034930196125,"[85, 0, 169]",169,l,1.3078106734901667,colour,0.5
006,74,0,1,9,17,417,901.019042450469,902.3994724040385,"[58, 0, 196]",196,a,0.8571044290438294,colour,0.5
006,74,0,1,9,18,418,902.9179095132276,904.3994861887768,"[64, 0, 190]",190,a,0.9644191719125956,colour,0.5
006,74,0,1,9,19,419,904.9160856127273,906.3755320860073,"[82, 0, 172]",172,l,0.9286532360129058,colour,0.5
006,74,0,1,9,20,420,906.8995046995115,908.1354837846011,"[18, 0, 236]",236,a,0.7050487895030528,colour,0.5
006,74,0,1,9,21,421,908.6464315196499,910.1834565808531,"[68, 0, 186]",186,l,1.0156778243836015,colour,0.5
006,74,0,1,9,22,422,910.6927044771146,911.911514243111,"[12, 0, 242]",242,a,0.6938017315696925,colour,0.5
006,74,0,1,9,23,423,912.4287851743866,913.5994669690263,"[74, 0, 180]",180,l,0.6436052813660353,colour,0.5
006,74,0,1,9,24,424,914.1205066118855,915.2874937378801,"[41, 0, 213]",213,a,0.6420066605787724,colour,0.5
006,74,0,1,9,25,425,915.794103260152,917.1274887125473,"[78, 0, 176]",176,l,0.8100910414941609,colour,0.5
006,74,0,1,9,26,426,917.6399429081939,919.0634450335056,"[69, 0, 185]",185,l,0.9001663606613874,colour,0.5
006,74,0,1,9,27,427,919.5774305020459,920.9914586637169,"[84, 0, 170]",170,l,0.8908109446056187,colour,0.5
006,74,0,1,9,28,428,921.4992402712815,922.7434720040765,"[28, 0, 226]",226,a,0.7212008049245924,colour,0.5
006,74,0,1,9,29,429,923.2606381722726,924.487498936709,"[38, 0, 216]",216,a,0.6971088559366763,colour,0.5
006,74,0,1,9,30,430,925.0118476732168,926.1755095580593,"[14, 0, 240]",240,a,0.6342199330683798,colour,0.5
006,74,0,1,9,31,431,926.6876081107184,927.9194439370185,"[97, 0, 157]",157,l,0.701688890112564,colour,0.5
006,74,0,1,9,32,432,928.431299486896,929.4875091766007,"[31, 0, 223]",223,a,0.5360877078492194,colour,0.5
006,74,0,1,9,33,433,930.0096917606425,931.471463106107,"[54, 0, 200]",200,a,0.9348523707594723,colour,0.5
006,74,0,1,9,34,434,931.9820496845059,933.3194756021257,"[4, 0, 250]",250,a,0.8265817640349269,colour,0.5
006,74,0,1,9,35,435,933.8420575456694,935.3034263809677,"[43, 0, 211]",211,a,0.9418687359429896,colour,0.5
006,74,0,1,9,36,436,935.816463862313,937.0954611622728,"[46, 0, 208]",208,a,0.7487637177109718,colour,0.5
006,74,0,1,9,37,437,937.6140361174475,938.9354321120773,"[26, 0, 228]",228,a,0.7983926360029727,colour,0.5
006,74,0,1,9,38,438,939.4491631563287,940.6154705041554,"[86, 0, 168]",168,l,0.6468931070994586,colour,0.5
006,74,0,1,9,39,439,941.1330368199851,944.6794724357314,"[57, 0, 197]",197,l,3.0214484550524503,colour,0.5
006,74,0,1,9,40,440,945.192402003333,946.4234284760896,"[36, 0, 218]",218,a,0.7057092692703009,colour,0.5
006,74,0,1,9,41,441,946.9443535099272,948.1754788379185,"[34, 0, 220]",220,a,0.7077616003807634,colour,0.5
006,74,0,1,9,42,442,948.686318265507,949.9434346673079,"[53, 0, 201]",201,a,0.733876735670492,colour,0.5
006,74,0,1,9,43,443,950.4519760038238,951.6154886211734,"[7, 0, 247]",247,a,0.6401418002787977,colour,0.5
006,74,0,1,9,44,444,952.12379680085,953.2154085128568,"[77, 0, 177]",177,l,0.5689001930877566,colour,0.5
006,74,0,1,9,45,445,953.7284589912742,954.8474201518111,"[61, 0, 193]",193,l,0.5852916666772217,colour,0.5
006,74,0,1,9,46,446,955.364841532195,956.3034444977529,"[52, 0, 202]",202,a,0.41518606850877404,colour,0.5
006,74,0,1,9,47,447,956.8179147907067,957.8154288353398,"[27, 0, 227]",227,a,0.4741117199882865,colour,0.5
006,74,0,1,9,48,448,958.3213408563752,959.3594289077446,"[21, 0, 233]",233,a,0.5146361021324992,colour,0.5
006,74,0,1,9,49,449,959.8682353026234,960.8154457707424,"[42, 0, 212]",212,a,0.4237746666185558,colour,0.5
006,74,0,1,9,50,450,961.321347551886,962.5354307729285,"[24, 0, 230]",230,a,0.7001938507892191,colour,0.5
006,74,0,1,10,1,451,968.8094199281186,970.7914136864711,"[17, 0, 237]",237,a,1.4584323200397193,colour,0.5
006,74,0,1,10,2,452,971.3047319799662,972.1594288290944,"[82, 0, 172]",172,l,0.34374596318230033,colour,0.5
006,74,0,1,10,3,453,972.6672541536391,973.7194233781192,"[10, 0, 244]",244,a,0.527070211712271,colour,0.5
006,74,0,1,10,4,454,974.2339878003113,975.2234496651217,"[87, 0, 167]",167,l,0.4726430685259402,colour,0.5
006,74,0,1,10,5,455,975.7422451740131,976.8474800162949,"[15, 0, 239]",239,a,0.5864318504463881,colour,0.5
006,74,0,1,10,6,456,977.3605781502556,978.4954073629342,"[76, 0, 178]",178,l,0.6177181829698384,colour,0.5
006,74,0,1,10,7,457,979.0066248823423,980.1994282146916,"[46, 0, 208]",208,a,0.6653766899835318,colour,0.5
006,74,0,1,10,8,458,980.7162158968858,982.1194062065333,"[4, 0, 250]",250,a,0.873840517597273,colour,0.5
006,74,0,1,10,9,459,982.6241930099204,983.7994083648082,"[89, 0, 165]",165,l,0.6516665196977556,colour,0.5
006,74,0,1,10,10,460,984.3179620523006,985.6154689288232,"[40, 0, 214]",214,a,0.7678258602973074,colour,0.5
006,74,0,1,10,11,461,986.1294673944358,987.1594311920926,"[65, 0, 189]",189,l,0.5005966764874756,colour,0.5
006,74,0,1,10,12,462,987.681677184999,988.4794317907654,"[19, 0, 235]",235,a,0.2677600879687816,colour,0.5
006,74,0,1,10,13,463,988.9960142793134,990.1353995017707,"[29, 0, 225]",225,a,0.6206877811346203,colour,0.5
006,74,0,1,10,14,464,990.6523017932195,992.0074121803045,"[5, 0, 249]",249,a,0.8316537116188556,colour,0.5
006,74,0,1,10,15,465,992.5212861907203,993.6314070855733,"[69, 0, 185]",185,l,0.5838320734910667,colour,0.5
006,74,0,1,10,16,466,994.1536507154815,995.2794423457235,"[3, 0, 251]",251,a,0.5979750806000084,colour,0.5
006,74,0,1,10,17,467,995.7992492509075,996.8713801621925,"[36, 0, 218]",218,a,0.5455541883129627,colour,0.5
006,74,0,1,10,18,468,997.38056110451,998.6153901596554,"[91, 0, 163]",163,l,0.7210318448487669,colour,0.5
006,74,0,1,10,19,469,999.1222611956764,1001.1434544385411,"[28, 0, 226]",226,a,1.4958496517501771,colour,0.5
006,74,0,1,10,20,470,1001.6554746159818,1002.935429749079,"[49, 0, 205]",205,a,0.7668790547177196,colour,0.5
006,74,0,1,10,21,471,1003.4409463489428,1004.6394116100855,"[73, 0, 181]",181,l,0.6801703304518014,colour,0.5
006,74,0,1,10,22,472,1005.1544175334275,1006.5033862872515,"[80, 0, 174]",174,l,0.8258476350456476,colour,0.5
006,74,0,1,10,23,473,1007.0134175429121,1009.215410875855,"[94, 0, 160]",160,l,1.6786492974497378,colour,0.5
006,74,0,1,10,24,474,1009.728787065018,1010.8954090957996,"[51, 0, 203]",203,a,0.6432555462233722,colour,0.5
006,74,0,1,10,25,475,1011.4168402215,1012.8874053589534,"[45, 0, 209]",209,a,0.9484506889712065,colour,0.5
006,74,0,1,10,26,476,1013.3888747980818,1014.5514197358862,"[86, 0, 168]",168,l,0.6412906488403678,colour,0.5
006,74,0,1,10,27,477,1015.0723778526299,1016.2713720491156,"[41, 0, 213]",213,a,0.6756032933481038,colour,0.5
006,74,0,1,10,28,478,1016.7927539441735,1018.1193821819033,"[90, 0, 164]",164,l,0.8032715993467718,colour,0.5
006,74,0,1,10,29,479,1018.6312306425534,1019.8233849166427,"[14, 0, 240]",240,a,0.6687988170888275,colour,0.5
006,74,0,1,10,30,480,1020.3343401348684,1021.8314004689455,"[77, 0, 177]",177,l,0.9737509570550174,colour,0.5
006,74,0,1,10,31,481,1022.3499450979289,1023.4794593600091,"[18, 0, 236]",236,a,0.6060792482458055,colour,0.5
006,74,0,1,10,32,482,1023.989381126361,1025.4154247392435,"[57, 0, 197]",197,a,0.9076309222728014,colour,0.5
006,74,0,1,10,33,483,1025.9303349582478,1027.2473954970483,"[98, 0, 156]",156,l,0.7926145226228982,colour,0.5
006,74,0,1,10,34,484,1027.765589603223,1028.9594047255814,"[24, 0, 230]",230,a,0.6705175607930869,colour,0.5
006,74,0,1,10,35,485,1029.4720030690078,1030.8234014583286,"[70, 0, 184]",184,l,0.829161454923451,colour,0.5
006,74,0,1,10,36,486,1031.3388855105732,1032.447413298767,"[54, 0, 200]",200,a,0.5858225708361715,colour,0.5
006,74,0,1,10,37,487,1032.9639036275912,1034.3913871413097,"[48, 0, 206]",206,a,0.9040370783768594,colour,0.5
006,74,0,1,10,38,488,1034.9083902572747,1036.343375354074,"[23, 0, 231]",231,a,0.9122034732718021,colour,0.5
006,74,0,1,10,39,489,1036.8527776377741,1038.831418192014,"[58, 0, 196]",196,a,1.447789421537891,colour,0.5
006,74,0,1,10,40,490,1039.350854094373,1040.4234245377593,"[85, 0, 169]",169,l,0.5523098276462406,colour,0.5
006,74,0,1,10,41,491,1040.9453526970465,1042.1194018742535,"[47, 0, 207]",207,a,0.652050519362092,colour,0.5
006,74,0,1,10,42,492,1042.6314133871347,1043.791409747908,"[35, 0, 219]",219,a,0.6366885593160987,colour,0.5
006,74,0,1,10,43,493,1044.3060367915314,1045.615383070428,"[37, 0, 217]",217,a,0.7809921293519437,colour,0.5
006,74,0,1,10,44,494,1046.1267971191555,1047.3034133838955,"[84, 0, 170]",170,l,0.6511903598438948,colour,0.5
006,74,0,1,10,45,495,1047.8253663554788,1049.287409454817,"[88, 0, 166]",166,l,0.9363021175377071,colour,0.5
006,74,0,1,10,46,496,1049.7970315045677,1051.8153662139084,"[63, 0, 191]",191,a,1.49370870529674,colour,0.5
006,74,0,1,10,47,497,1052.3333637907635,1053.4953939721454,"[92, 0, 162]",162,l,0.6386526690330356,colour,0.5
006,74,0,1,10,48,498,1053.995768519584,1055.0553960043471,"[26, 0, 228]",228,a,0.541502695530653,colour,0.5
006,74,0,1,10,49,499,1055.5718898775522,1056.6313661255408,"[34, 0, 220]",220,a,0.5337171491701156,colour,0.5
006,74,0,1,10,50,500,1057.1554316866677,1058.2474092815537,"[71, 0, 183]",183,l,0.5686150486581028,colour,0.5
006,74,0,1,11,1,501,1064.040820948314,1065.6153728303034,"[62, 0, 192]",192,a,1.056177000515163,colour,0.5
006,74,0,1,11,2,502,1066.12926180684,1067.2313517895527,"[27, 0, 227]",227,a,0.5882120339665562,colour,0.5
006,74,0,1,11,3,503,1067.7449757077266,1068.9193419308867,"[17, 0, 237]",237,a,0.6510615723673254,colour,0.5
006,74,0,1,11,4,504,1069.4388904732186,1070.743358970154,"[21, 0, 233]",233,a,0.7789701244328171,colour,0.5
006,74,0,1,11,5,505,1071.253444576636,1072.4553930109832,"[73, 0, 181]",181,l,0.6786725344136357,colour,0.5
006,74,0,1,11,6,506,1072.9722275610548,1074.1673447382636,"[56, 0, 198]",198,a,0.6717892894521356,colour,0.5
006,74,0,1,11,7,507,1074.6858889732976,1075.975377934752,"[49, 0, 205]",205,a,0.7586527948733419,colour,0.5
006,74,0,1,11,8,508,1076.48631070368,1077.7433625147678,"[53, 0, 201]",201,a,0.7400636612437665,colour,0.5
006,74,0,1,11,9,509,1078.2598410281353,1079.3513999648858,"[85, 0, 169]",169,l,0.5730473906733096,colour,0.5
006,74,0,1,11,10,510,1079.8746735018212,1081.1513455354143,"[36, 0, 218]",218,a,0.7510232117492706,colour,0.5
006,74,0,1,11,11,511,1081.6724596151616,1082.959372824058,"[33, 0, 221]",221,a,0.7682968999724835,colour,0.5
006,74,0,1,11,12,512,1083.4802458703052,1084.6233497858047,"[72, 0, 182]",182,l,0.6168599925003946,colour,0.5
006,74,0,1,11,13,513,1085.1414816642646,1087.1033471389674,"[59, 0, 195]",195,a,1.4443535096943378,colour,0.5
006,74,0,1,11,14,514,1087.6185830684844,1088.7193690275308,"[97, 0, 157]",157,l,0.5685221012681723,colour,0.5
006,74,0,1,11,15,515,1089.2401566090994,1090.3353527127765,"[38, 0, 216]",216,a,0.567773399874568,colour,0.5
006,74,0,1,11,16,516,1090.8471042872407,1092.0073609803803,"[76, 0, 178]",178,l,0.6409011352807283,colour,0.5
006,74,0,1,11,17,517,1092.5236287862062,1093.5833598524332,"[8, 0, 246]",246,a,0.536461861571297,colour,0.5
006,74,0,1,11,18,518,1094.0910126725212,1095.1115604019724,"[39, 0, 215]",215,a,0.5027411677874625,colour,0.5
006,74,0,1,11,19,519,1095.622519164579,1096.7034036952537,"[90, 0, 164]",164,l,0.5557701578363776,colour,0.5
006,74,0,1,11,20,520,1097.2077525421046,1098.2793655458372,"[16, 0, 238]",238,a,0.5482272207736969,colour,0.5
006,74,0,1,11,21,521,1098.7963135235477,1099.7273534657434,"[14, 0, 240]",240,a,0.42019697022624314,colour,0.5
006,74,0,1,11,22,522,1100.241273949854,1101.2953655363526,"[50, 0, 204]",204,a,0.5307546402327716,colour,0.5
006,74,0,1,11,23,523,1101.7919788553845,1102.887348645134,"[7, 0, 247]",247,a,0.5718457668554038,colour,0.5
006,74,0,1,11,24,524,1103.3890118564013,1104.4633924155496,"[87, 0, 167]",167,l,0.5509861113969237,colour,0.5
006,74,0,1,11,25,525,1104.984711689176,1105.9673548995052,"[1, 0, 253]",253,a,0.45707552088424563,colour,0.5
006,74,0,1,11,26,526,1106.486714789411,1107.6073423121125,"[30, 0, 224]",224,a,0.5910630847793072,colour,0.5
006,74,0,1,11,27,527,1108.1292141515296,1109.2873460457195,"[20, 0, 234]",234,a,0.6269152727909386,colour,0.5
006,74,0,1,11,28,528,1109.79819138092,1111.2153340759687,"[24, 0, 230]",230,a,0.893305170815438,colour,0.5
006,74,0,1,11,29,529,1111.733587258961,1112.9593590395525,"[79, 0, 175]",175,l,0.707849821774289,colour,0.5
006,74,0,1,11,30,530,1113.4782526160125,1116.2873491966166,"[60, 0, 194]",194,l,2.2981622363440692,colour,0.5
006,74,0,1,11,31,531,1116.799591503106,1118.1273264479823,"[66, 0, 188]",188,l,0.8044102077838033,colour,0.5
006,74,0,1,11,32,532,1118.645210991148,1119.9033234296367,"[19, 0, 235]",235,a,0.7347542245406657,colour,0.5
006,74,0,1,11,33,533,1120.4013018184341,1121.5833440986462,"[89, 0, 165]",165,l,0.6587203000672162,colour,0.5
006,74,0,1,11,34,534,1122.1043778338935,1123.2874311164487,"[80, 0, 174]",174,l,0.6579507251735777,colour,0.5
006,74,0,1,11,35,535,1123.7935262760147,1124.9353324691765,"[32, 0, 222]",222,a,0.6183826008345932,colour,0.5
006,74,0,1,11,36,536,1125.467562850099,1126.855400257744,"[42, 0, 212]",212,a,0.8657469837926328,colour,0.5
006,74,0,1,11,37,537,1127.3742150652688,1128.7113511122297,"[13, 0, 241]",241,a,0.813128774985671,colour,0.5
006,74,0,1,11,38,538,1129.230489660753,1130.4313353267498,"[18, 0, 236]",236,a,0.6792798447422683,colour,0.5
006,74,0,1,11,39,539,1130.9526991050225,1132.2873413194902,"[77, 0, 177]",177,l,0.8133741409983486,colour,0.5
006,74,0,1,11,40,540,1132.8066047173925,1133.9593456487637,"[83, 0, 171]",171,l,0.6293614497408271,colour,0.5
006,74,0,1,11,41,541,1134.478416849859,1135.6713131295983,"[70, 0, 184]",184,l,0.6740783217828721,colour,0.5
006,74,0,1,11,42,542,1136.1821836710442,1137.3353649219498,"[86, 0, 168]",168,l,0.6298931417986751,colour,0.5
006,74,0,1,11,43,543,1137.8540399139747,1139.0153359663673,"[81, 0, 173]",173,l,0.638162330724299,colour,0.5
006,74,0,1,11,44,544,1139.5267500150949,1140.7672906236257,"[22, 0, 232]",232,a,0.7129327971488237,colour,0.5
006,74,0,1,11,45,545,1141.2685820444021,1142.3673593893182,"[96, 0, 158]",158,l,0.5755144415888935,colour,0.5
006,74,0,1,11,46,546,1142.8744084434584,1143.9833316530567,"[44, 0, 210]",210,a,0.5856059556826949,colour,0.5
006,74,0,1,11,47,547,1144.5013315931428,1145.5273273931816,"[29, 0, 225]",225,a,0.5077028386294842,colour,0.5
006,74,0,1,11,48,548,1146.0370845319703,1147.0793583777267,"[88, 0, 166]",166,l,0.5191212194040418,colour,0.5
006,74,0,1,11,49,549,1147.6002326055896,1149.1592890135944,"[65, 0, 189]",189,l,1.0345552533399314,colour,0.5
006,74,0,1,11,50,550,1149.6821045079269,1150.7192965596914,"[47, 0, 207]",207,a,0.5141343423165381,colour,0.5
006,74,0,1,12,1,551,1156.1340064685792,1157.4073221471626,"[32, 0, 222]",222,a,0.7492127020377666,colour,0.5
006,74,0,1,12,2,552,1157.911035720259,1158.8633023824077,"[46, 0, 208]",208,a,0.42898642970249057,colour,0.5
006,74,0,1,12,3,553,1159.3677193643525,1160.3673428476322,"[76, 0, 178]",178,l,0.47995166713371873,colour,0.5
006,74,0,1,12,4,554,1160.8743899327237,1161.9433507781941,"[41, 0, 213]",213,a,0.5463316403329372,colour,0.5
006,74,0,1,12,5,555,1162.4525392034557,1163.5833232246805,"[17, 0, 237]",237,a,0.6074738565366715,colour,0.5
006,74,0,1,12,6,556,1164.0931548003573,1165.343336363323,"[7, 0, 247]",247,a,0.7268599765375257,colour,0.5
006,74,0,1,12,7,557,1165.8643062957563,1168.111321337521,"[59, 0, 195]",195,a,1.7231786989141256,colour,0.5
006,74,0,1,12,8,558,1168.6323282911908,1169.679324743338,"[26, 0, 228]",228,a,0.5209959261119366,colour,0.5
006,74,0,1,12,9,559,1170.197589741787,1171.2073197052814,"[65, 0, 189]",189,l,0.4921876722946763,colour,0.5
006,74,0,1,12,10,560,1171.7276673610322,1172.8313079150394,"[2, 0, 252]",252,a,0.5827222156804055,colour,0.5
006,74,0,1,12,11,561,1173.3515673493966,1174.455319361994,"[8, 0, 246]",246,a,0.5804733557160944,colour,0.5
006,74,0,1,12,12,562,1174.9742806798313,1176.1752811272163,"[1, 0, 253]",253,a,0.6816669448744506,colour,0.5
006,74,0,1,12,13,563,1176.688741993159,1177.879294889979,"[43, 0, 211]",211,a,0.6647961612325162,colour,0.5
006,74,0,1,12,14,564,1178.39416178572,1179.4074466025922,"[27, 0, 227]",227,a,0.4889459265395999,colour,0.5
006,74,0,1,12,15,565,1179.9347909309436,1181.0152965818997,"[85, 0, 169]",169,l,0.569607540499419,colour,0.5
006,74,0,1,12,16,566,1181.5317510706373,1183.04730955977,"[92, 0, 162]",162,l,0.9921998814679682,colour,0.5
006,74,0,1,12,17,567,1183.5629680859856,1184.7993221124634,"[98, 0, 156]",156,l,0.7129670619033277,colour,0.5
006,74,0,1,12,18,568,1185.3097495771945,1186.4312876714393,"[90, 0, 164]",164,l,0.6034030651208013,colour,0.5
006,74,0,1,12,19,569,1186.9516302072443,1188.055263672024,"[66, 0, 188]",188,l,0.5773556712083519,colour,0.5
006,74,0,1,12,20,570,1188.5547284353524,1189.8552860424388,"[73, 0, 181]",181,l,0.7773455099668354,colour,0.5
006,74,0,1,12,21,571,1190.3665291620418,1191.415303434711,"[15, 0, 239]",239,a,0.5254601694177836,colour,0.5
006,74,0,1,12,22,572,1191.9291329404805,1193.3432926465757,"[39, 0, 215]",215,a,0.903224574169144,colour,0.5
006,74,0,1,12,23,573,1193.8416912690736,1194.951318281237,"[97, 0, 157]",157,l,0.5863400844391435,colour,0.5
006,74,0,1,12,24,574,1195.4598210207187,1196.7033009014558,"[13, 0, 241]",241,a,0.7250057500787079,colour,0.5
006,74,0,1,12,25,575,1197.212430643849,1198.7913164065685,"[62, 0, 192]",192,l,1.0519384308718145,colour,0.5
006,74,0,1,12,26,576,1199.309846857097,1204.3352979682386,"[57, 0, 197]",197,l,4.502137401839718,colour,0.5
006,74,0,1,12,27,577,1204.8455730143469,1205.9113161386922,"[22, 0, 232]",232,a,0.5522873783484101,colour,0.5
006,74,0,1,12,28,578,1206.4284956976771,1207.6392808530945,"[38, 0, 216]",216,a,0.700135167920962,colour,0.5
006,74,0,1,12,29,579,1208.1505058559123,1209.4393197651953,"[58, 0, 196]",196,a,0.7653725941199809,colour,0.5
006,74,0,1,12,30,580,1209.9475216064602,1211.0472583598457,"[87, 0, 167]",167,l,0.586570484098047,colour,0.5
006,74,0,1,12,31,581,1211.5625439139549,1212.6313338303007,"[83, 0, 171]",171,l,0.549110223306343,colour,0.5
006,74,0,1,12,32,582,1213.1525684269145,1214.351355854189,"[53, 0, 201]",201,a,0.6754685980267823,colour,0.5
006,74,0,1,12,33,583,1214.8714494791348,1215.9673131518066,"[6, 0, 248]",248,a,0.5779098125640303,colour,0.5
006,74,0,1,12,34,584,1216.4874233182054,1217.66325149755,"[9, 0, 245]",245,a,0.6441070409491658,colour,0.5
006,74,0,1,12,35,585,1218.1833908087574,1219.2872763350606,"[72, 0, 182]",182,l,0.5740367316175252,colour,0.5
006,74,0,1,12,36,586,1219.7985765621997,1221.0633906826843,"[99, 0, 155]",155,l,0.7330307546071708,colour,0.5
006,74,0,1,12,37,587,1221.5762044596486,1223.0312500984874,"[63, 0, 191]",191,l,0.9345435954164714,colour,0.5
006,74,0,1,12,38,588,1223.54819965153,1224.6792837835383,"[20, 0, 234]",234,a,0.6078003549482673,colour,0.5
006,74,0,1,12,39,589,1225.188774288632,1226.4232819655444,"[55, 0, 199]",199,a,0.7131691048853099,colour,0.5
006,74,0,1,12,40,590,1226.9412511854898,1228.0392731337342,"[51, 0, 203]",203,a,0.5746093834750354,colour,0.5
006,74,0,1,12,41,591,1228.5507179023698,1229.623269441072,"[84, 0, 170]",170,l,0.5492768201511353,colour,0.5
006,74,0,1,12,42,592,1230.1443539825268,1231.199343537679,"[11, 0, 243]",243,a,0.5265948395244777,colour,0.5
006,74,0,1,12,43,593,1231.7026408158708,1232.799267761875,"[4, 0, 250]",250,a,0.5719918836839497,colour,0.5
006,74,0,1,12,44,594,1233.3136258085724,1234.4072654333431,"[79, 0, 175]",175,l,0.5674071232788265,colour,0.5
006,74,0,1,12,45,595,1234.9259427883662,1235.9752558423206,"[44, 0, 210]",210,a,0.5314308735541999,colour,0.5
006,74,0,1,12,46,596,1236.4986313856207,1237.5752828603145,"[88, 0, 166]",166,l,0.5460441329050809,colour,0.5
006,74,0,1,12,47,597,1238.0852251066826,1239.1752586781513,"[34, 0, 220]",220,a,0.5576476212590933,colour,0.5
006,74,0,1,12,48,598,1239.698641310446,1241.015265074093,"[37, 0, 217]",217,a,0.7849502807948738,colour,0.5
006,74,0,1,12,49,599,1241.5258032095153,1243.0073491649237,"[50, 0, 204]",204,a,0.9533737627789378,colour,0.5
006,74,0,1,12,50,600,1243.5195461793337,1244.655262333108,"[12, 0, 242]",242,a,0.6124288321007043,colour,0.5
006,74,0,1,13,1,601,1251.4836723296903,1252.7752845142968,"[18, 0, 236]",236,a,0.7647810373455286,colour,0.5
006,74,0,1,13,2,602,1253.2979609810282,1254.4792750400957,"[26, 0, 228]",228,a,0.6667307324241847,colour,0.5
006,74,0,1,13,3,603,1254.9922621091828,1256.1352718956769,"[84, 0, 170]",170,l,0.6196306985802948,colour,0.5
006,74,0,1,13,4,604,1256.648114029551,1257.9032698664814,"[4, 0, 250]",250,a,0.7376485981512815,colour,0.5
006,74,0,1,13,5,605,1258.4211433820892,1259.8232557352167,"[28, 0, 226]",226,a,0.8702537626959383,colour,0.5
006,74,0,1,13,6,606,1260.343490357278,1261.6552560315467,"[77, 0, 177]",177,l,0.78791239624843,colour,0.5
006,74,0,1,13,7,607,1262.1751046844292,1265.0232302141376,"[60, 0, 194]",194,l,2.329618316143751,colour,0.5
006,74,0,1,13,8,608,1265.5393235459924,1266.7192685967311,"[32, 0, 222]",222,a,0.6659347696695477,colour,0.5
006,74,0,1,13,9,609,1267.2294128860813,1268.3352613404859,"[94, 0, 160]",160,l,0.5760847304482013,colour,0.5
006,74,0,1,13,10,610,1268.8559414020274,1270.047278839862,"[1, 0, 253]",253,a,0.6614484707824886,colour,0.5
006,74,0,1,13,11,611,1270.5623265109025,1271.7272376751062,"[90, 0, 164]",164,l,0.642523780465126,colour,0.5
006,74,0,1,13,12,612,1272.239178295713,1273.6152664921246,"[74, 0, 180]",180,l,0.85595873137936,colour,0.5
006,74,0,1,13,13,613,1274.1319462605752,1275.3272414559033,"[34, 0, 220]",220,a,0.6718085876200348,colour,0.5
006,74,0,1,13,14,614,1275.827884212602,1277.1992163255345,"[71, 0, 183]",183,l,0.8527477055322379,colour,0.5
006,74,0,1,13,15,615,1277.7206569036935,1279.1593378505204,"[12, 0, 242]",242,a,0.9182226206175983,colour,0.5
006,74,0,1,13,16,616,1279.6734820392448,1281.0312327693682,"[54, 0, 200]",200,a,0.832628874341026,colour,0.5
006,74,0,1,13,17,617,1281.5277621990535,1283.031267821556,"[57, 0, 197]",197,a,0.980126928538084,colour,0.5
006,74,0,1,13,18,618,1283.5434372667223,1284.7512488854118,"[42, 0, 212]",212,a,0.6845061802305281,colour,0.5
006,74,0,1,13,19,619,1285.2621351806447,1286.2952686503995,"[64, 0, 190]",190,l,0.5103928062599152,colour,0.5
006,74,0,1,13,20,620,1286.8133898950182,1288.1672876304947,"[44, 0, 210]",210,a,0.8235589964315295,colour,0.5
006,74,0,1,13,21,621,1288.6883107319009,1289.9672674655449,"[21, 0, 233]",233,a,0.7460906852502376,colour,0.5
006,74,0,1,13,22,622,1290.4867348757107,1291.3112493422814,"[75, 0, 179]",179,l,0.30653028027154505,colour,0.5
006,74,0,1,13,23,623,1291.8219012990594,1292.959276725771,"[49, 0, 205]",205,a,0.6098684398457408,colour,0.5
006,74,0,1,13,24,624,1293.4825742873363,1294.655218616128,"[43, 0, 211]",211,a,0.652457756223157,colour,0.5
006,74,0,1,13,25,625,1295.1668465230614,1296.2232255667914,"[83, 0, 171]",171,l,0.5423526151571423,colour,0.5
006,74,0,1,13,26,626,1296.7872913011815,1297.815238213865,"[17, 0, 237]",237,a,0.5064326855354011,colour,0.5
006,74,0,1,13,27,627,1298.3348060545977,1299.5032519858796,"[39, 0, 215]",215,a,0.6580680911429226,colour,0.5
006,74,0,1,13,28,628,1300.0099867510144,1301.1672612428665,"[20, 0, 234]",234,a,0.6340009546838701,colour,0.5
006,74,0,1,13,29,629,1301.6839398299344,1302.751270153094,"[70, 0, 184]",184,l,0.5446617335546762,colour,0.5
006,74,0,1,13,30,630,1303.2620922513306,1304.2872302550822,"[46, 0, 208]",208,a,0.5017018083017319,colour,0.5
006,74,0,1,13,31,631,1304.7911395695992,1305.8952535265125,"[3, 0, 251]",251,a,0.58994534984231,colour,0.5
006,74,0,1,13,32,632,1306.4026834298857,1307.6072418813128,"[2, 0, 252]",252,a,0.6694585089571774,colour,0.5
006,74,0,1,13,33,633,1308.1255442951806,1309.3992573642172,"[92, 0, 162]",162,l,0.7502170091029257,colour,0.5
006,74,0,1,13,34,634,1309.9068392920308,1311.0632551996969,"[66, 0, 188]",188,l,0.6330718721728772,colour,0.5
006,74,0,1,13,35,635,1311.5768519423436,1312.7112274444662,"[72, 0, 182]",182,l,0.6108916513621807,colour,0.5
006,74,0,1,13,36,636,1313.2175277976785,1314.2792044628877,"[10, 0, 244]",244,a,0.5382392881438136,colour,0.5
006,74,0,1,13,37,637,1314.7955880593508,1315.8072754370514,"[78, 0, 176]",176,l,0.4854785071220249,colour,0.5
006,74,0,1,13,38,638,1316.3087818976492,1317.567315751221,"[63, 0, 191]",191,l,0.7402684611734003,colour,0.5
006,74,0,1,13,39,639,1318.0626376492437,1319.063201242825,"[48, 0, 206]",206,a,0.4895477232057601,colour,0.5
006,74,0,1,13,40,640,1319.5815721857361,1320.6152499504387,"[76, 0, 178]",178,l,0.5103104922454804,colour,0.5
006,74,0,1,13,41,641,1321.1284410320222,1322.151266372297,"[7, 0, 247]",247,a,0.49837577948346734,colour,0.5
006,74,0,1,13,42,642,1322.6608084712643,1323.7832240543794,"[59, 0, 195]",195,l,0.596140940207988,colour,0.5
006,74,0,1,13,43,643,1324.2935018574353,1325.3272906867787,"[33, 0, 221]",221,a,0.5071821741294116,colour,0.5
006,74,0,1,13,44,644,1325.8442965596914,1326.7592033916153,"[65, 0, 189]",189,l,0.3977709896862507,colour,0.5
006,74,0,1,13,45,645,1327.272961611161,1328.4472510344349,"[96, 0, 158]",158,l,0.6561134341172874,colour,0.5
006,74,0,1,13,46,646,1328.96636319533,1330.0393664753065,"[85, 0, 169]",169,l,0.5425621410831809,colour,0.5
006,74,0,1,13,47,647,1330.5629755691625,1331.6392241395079,"[29, 0, 225]",225,a,0.5465604648925364,colour,0.5
006,74,0,1,13,48,648,1332.155282419175,1333.2312241834588,"[97, 0, 157]",157,l,0.553600066807121,colour,0.5
006,74,0,1,13,49,649,1333.7493753605522,1334.8072076954413,"[82, 0, 172]",172,l,0.5359451356343925,colour,0.5
006,74,0,1,13,50,650,1335.3261052104644,1336.3353113590274,"[40, 0, 214]",214,a,0.48581563914194703,colour,0.5
006,74,0,1,14,1,651,1341.4337866238784,1342.871197417844,"[5, 0, 249]",249,a,0.9162140064872801,colour,0.5
006,74,0,1,14,2,652,1343.3872371867765,1344.5912158968858,"[85, 0, 169]",169,l,0.6853730350267142,colour,0.5
006,74,0,1,14,3,653,1345.1083517391235,1346.1991982085165,"[97, 0, 157]",157,l,0.5677403167355806,colour,0.5
006,74,0,1,14,4,654,1346.7157137433533,1348.0072247097269,"[72, 0, 182]",182,l,0.7632655184715986,colour,0.5
006,74,0,1,14,5,655,1348.5169786978513,1349.607204465894,"[39, 0, 215]",215,a,0.5668663727119565,colour,0.5
006,74,0,1,14,6,656,1350.1263501038775,1351.2631895062514,"[3, 0, 251]",251,a,0.6133689424023032,colour,0.5
006,74,0,1,14,7,657,1351.7717528981157,1353.151218323037,"[8, 0, 246]",246,a,0.8544002829585224,colour,0.5
006,74,0,1,14,8,658,1353.664043127792,1354.9751680148765,"[20, 0, 234]",234,a,0.7999975583516061,colour,0.5
006,74,0,1,14,9,659,1355.4961328268982,1356.5831838033628,"[76, 0, 178]",178,l,0.5635852424893528,colour,0.5
006,74,0,1,14,10,660,1357.0991692214739,1358.3191983345896,"[64, 0, 190]",190,l,0.6931763042230159,colour,0.5
006,74,0,1,14,11,661,1358.8326599881984,1359.8952161113266,"[77, 0, 177]",177,l,0.5322118701878935,colour,0.5
006,74,0,1,14,12,662,1360.413962783292,1361.4232398238964,"[31, 0, 223]",223,a,0.4778378962073475,colour,0.5
006,74,0,1,14,13,663,1361.9453278847504,1363.0471858922392,"[17, 0, 237]",237,a,0.5779436831362545,colour,0.5
006,74,0,1,14,14,664,1363.55856843316,1364.7431774071883,"[24, 0, 230]",230,a,0.6661931325215846,colour,0.5
006,74,0,1,14,15,665,1365.2425602506846,1366.4552051464561,"[34, 0, 220]",220,a,0.689278804929927,colour,0.5
006,74,0,1,14,16,666,1366.9705667127855,1368.6072024968453,"[4, 0, 250]",250,a,1.1158166946843266,colour,0.5
006,74,0,1,14,17,667,1369.103932000231,1370.2631879306864,"[12, 0, 242]",242,a,0.636581433005631,colour,0.5
006,74,0,1,14,18,668,1370.7751895976253,1371.8391714429017,"[23, 0, 231]",231,a,0.5406224499456584,colour,0.5
006,74,0,1,14,19,669,1372.3548555688467,1373.447234492749,"[80, 0, 174]",174,l,0.5691345313098282,colour,0.5
006,74,0,1,14,20,670,1373.9652683036402,1375.039199484745,"[87, 0, 167]",167,l,0.550657250219956,colour,0.5
006,74,0,1,14,21,671,1375.5589618852828,1376.9432149012573,"[43, 0, 211]",211,a,0.8584462620783597,colour,0.5
006,74,0,1,14,22,672,1377.4599080607295,1379.647162497742,"[61, 0, 193]",193,a,1.6282346565276384,colour,0.5
006,74,0,1,14,23,673,1380.1588557832874,1381.3832187769003,"[22, 0, 232]",232,a,0.6947820142377168,colour,0.5
006,74,0,1,14,24,674,1381.8985035431106,1382.9991914343555,"[75, 0, 179]",179,l,0.5798191772773862,colour,0.5
006,74,0,1,14,25,675,1383.509973754175,1384.8471468226053,"[59, 0, 195]",195,l,0.817388218594715,colour,0.5
006,74,0,1,14,26,676,1385.3651885106228,1386.4311628222931,"[99, 0, 155]",155,l,0.5408985358662903,colour,0.5
006,74,0,1,14,27,677,1386.9337551160716,1388.0632043934893,"[1, 0, 253]",253,a,0.6088972156867385,colour,0.5
006,74,0,1,14,28,678,1388.5769346500747,1389.6071741399355,"[86, 0, 168]",168,l,0.5039443669375032,colour,0.5
006,74,0,1,14,29,679,1390.126659272937,1391.1752437120304,"[42, 0, 212]",212,a,0.5250257574953139,colour,0.5
006,74,0,1,14,30,680,1391.6888668423053,1392.775168329943,"[66, 0, 188]",188,l,0.5607168627902865,colour,0.5
006,74,0,1,14,31,681,1393.2723732052837,1394.4231992578134,"[46, 0, 208]",208,a,0.6303759969305247,colour,0.5
006,74,0,1,14,32,682,1394.941312231589,1396.079188236501,"[36, 0, 218]",218,a,0.61443508323282,colour,0.5
006,74,0,1,14,33,683,1396.5975650870241,1397.8151673215907,"[0, 0, 254]",254,a,0.6914744961541146,colour,0.5
006,74,0,1,14,34,684,1398.3314717551693,1399.5271741871256,"[14, 0, 240]",240,a,0.6723583966959268,colour,0.5
006,74,0,1,14,35,685,1400.0345777028706,1401.1431452694815,"[57, 0, 197]",197,l,0.5852077775634825,colour,0.5
006,74,0,1,14,36,686,1401.6579432422295,1402.6712083667517,"[13, 0, 241]",241,a,0.49203761713579297,colour,0.5
006,74,0,1,14,37,687,1403.188192971982,1404.215170630021,"[67, 0, 187]",187,l,0.503767924150452,colour,0.5
006,74,0,1,14,38,688,1404.735066938214,1405.8231927198358,"[37, 0, 217]",217,a,0.564694706350565,colour,0.5
006,74,0,1,14,39,689,1406.3444489780813,1408.0871577085927,"[55, 0, 199]",199,a,1.2193682396318763,colour,0.5
006,74,0,1,14,40,690,1408.5991503170226,1409.5511578284204,"[74, 0, 180]",180,l,0.42863118066452444,colour,0.5
006,74,0,1,14,41,691,1410.0679080954287,1411.1831529256888,"[82, 0, 172]",172,l,0.5919299395754933,colour,0.5
006,74,0,1,14,42,692,1411.6929585076869,1412.8871824422386,"[83, 0, 171]",171,l,0.6816720650531352,colour,0.5
006,74,0,1,14,43,693,1413.4009497200605,1414.479175396962,"[70, 0, 184]",184,l,0.5549509583506733,colour,0.5
006,74,0,1,14,44,694,1414.988848646637,1416.3992132535204,"[60, 0, 194]",194,l,0.884557459037751,colour,0.5
006,74,0,1,14,45,695,1416.913162882207,1417.8632295208517,"[52, 0, 202]",202,a,0.4228991470299661,colour,0.5
006,74,0,1,14,46,696,1418.3748668802436,1419.6951589249074,"[65, 0, 189]",189,l,0.7969031108077615,colour,0.5
006,74,0,1,14,47,697,1420.2029515602626,1421.31113867159,"[21, 0, 233]",233,a,0.5819175883661956,colour,0.5
006,74,0,1,14,48,698,1421.8308380569797,1422.8951590035576,"[90, 0, 164]",164,l,0.539142376743257,colour,0.5
006,74,0,1,14,49,699,1423.404523084173,1424.543213956058,"[32, 0, 222]",222,a,0.6156410393305123,colour,0.5
006,74,0,1,14,50,700,1425.0622170218267,1426.103238043841,"[28, 0, 226]",226,a,0.517659263452515,colour,0.5
006,74,0,1,15,1,701,1430.9731030806433,1432.463173437165,"[69, 0, 185]",185,l,0.9723760408814996,colour,0.5
006,74,0,1,15,2,702,1432.9843194186687,1434.5991727660876,"[99, 0, 155]",155,l,1.0873621145728976,colour,0.5
006,74,0,1,15,3,703,1435.1169580603018,1437.5351787116379,"[10, 0, 244]",244,a,1.8934741306584328,colour,0.5
006,74,0,1,15,4,704,1438.04405363556,1439.1271622141358,"[70, 0, 184]",184,l,0.5653291922062635,colour,0.5
006,74,0,1,15,5,705,1439.6478269158397,1440.8231360060163,"[1, 0, 253]",253,a,0.6651573176495731,colour,0.5
006,74,0,1,15,6,706,1441.3385097817518,1442.5431296729948,"[2, 0, 252]",252,a,0.6812837328761816,colour,0.5
006,74,0,1,15,7,707,1443.058732273057,1444.1191612342373,"[82, 0, 172]",172,l,0.5476360579486936,colour,0.5
006,74,0,1,15,8,708,1444.6268156298902,1445.9031324142125,"[12, 0, 242]",242,a,0.7528719243127853,colour,0.5
006,74,0,1,15,9,709,1446.423732131254,1447.5592261559796,"[3, 0, 251]",251,a,0.6100586673710495,colour,0.5
006,74,0,1,15,10,710,1448.0683854366653,1449.4151714963373,"[23, 0, 231]",231,a,0.8123887383844703,colour,0.5
006,74,0,1,15,11,711,1449.9231236393098,1451.167173809139,"[29, 0, 225]",225,a,0.7206706881988794,colour,0.5
006,74,0,1,15,12,712,1451.6887715316843,1452.8551438641734,"[21, 0, 233]",233,a,0.641867239261046,colour,0.5
006,74,0,1,15,13,713,1453.3658273285255,1454.6391532472335,"[86, 0, 168]",168,l,0.7500567138195038,colour,0.5
006,74,0,1,15,14,714,1455.1346389851533,1456.6151325844694,"[51, 0, 203]",203,l,0.9570963946171105,colour,0.5
006,74,0,1,15,15,715,1457.134609446628,1458.5191389427055,"[81, 0, 173]",173,l,0.8624134720303118,colour,0.5
006,74,0,1,15,16,716,1459.024700440932,1460.3431835512165,"[92, 0, 162]",162,l,0.8073534183204174,colour,0.5
006,74,0,1,15,17,717,1460.856962644495,1462.4231460886076,"[27, 0, 227]",227,a,1.0428197162691504,colour,0.5
006,74,0,1,15,18,718,1462.9389700300526,1464.4631049081217,"[26, 0, 228]",228,a,1.0010129718575627,colour,0.5
006,74,0,1,15,19,719,1464.9702933838125,1466.3431256557815,"[30, 0, 224]",224,a,0.8510959155391902,colour,0.5
006,74,0,1,15,20,720,1466.859337535454,1468.1511037140153,"[9, 0, 245]",245,a,0.7664040764793754,colour,0.5
006,74,0,1,15,21,721,1468.6605961883906,1470.0311457293574,"[5, 0, 249]",249,a,0.8537531939800829,colour,0.5
006,74,0,1,15,22,722,1470.5527245474514,1472.015136680333,"[88, 0, 166]",166,l,0.9280762516427785,colour,0.5
006,74,0,1,15,23,723,1472.529339158209,1473.5511215946171,"[80, 0, 174]",174,l,0.4952632151544094,colour,0.5
006,74,0,1,15,24,724,1474.0614186960738,1475.4151388071477,"[74, 0, 180]",180,l,0.8344374147709459,colour,0.5
006,74,0,1,15,25,725,1475.924305964727,1477.10313131148,"[35, 0, 219]",219,a,0.6554584682453424,colour,0.5
006,74,0,1,15,26,726,1477.6125859767199,1481.9351320015267,"[55, 0, 199]",199,a,3.803264510119334,colour,0.5
006,74,0,1,15,27,727,1482.456626930274,1483.4951115844306,"[64, 0, 190]",190,l,0.5240092410240322,colour,0.5
006,74,0,1,15,28,728,1484.0101344434079,1485.5510873298626,"[52, 0, 202]",202,a,1.0175391403026879,colour,0.5
006,74,0,1,15,29,729,1486.0726358217653,1487.2551050309557,"[25, 0, 229]",229,a,0.6590278937947005,colour,0.5
006,74,0,1,15,30,730,1487.7670810976997,1489.1031360377092,"[42, 0, 212]",212,a,0.818041215185076,colour,0.5
006,74,0,1,15,31,731,1489.6117254232522,1490.671139443526,"[95, 0, 159]",159,l,0.5330629711970687,colour,0.5
006,74,0,1,15,32,732,1491.1788052606862,1492.295087087201,"[76, 0, 178]",178,l,0.6021876563318074,colour,0.5
006,74,0,1,15,33,733,1492.805622071959,1493.9351895030122,"[22, 0, 232]",232,a,0.6062403311952949,colour,0.5
006,74,0,1,15,34,734,1494.4412921455223,1495.535121603869,"[45, 0, 209]",209,a,0.5703779028262943,colour,0.5
006,74,0,1,15,35,735,1496.0506714286748,1497.2310938204173,"[14, 0, 240]",240,a,0.6541063950862736,colour,0.5
006,74,0,1,15,36,736,1497.7495423511136,1498.7831460728776,"[72, 0, 182]",182,l,0.51470344979316,colour,0.5
006,74,0,1,15,37,737,1499.2939197279047,1500.7351717010606,"[50, 0, 204]",204,a,0.9183825219515711,colour,0.5
006,74,0,1,15,38,738,1501.2590946902055,1502.247113503283,"[87, 0, 167]",167,l,0.4635412890929729,colour,0.5
006,74,0,1,15,39,739,1502.761527870316,1503.8230907139368,"[31, 0, 223]",223,a,0.5383838296402246,colour,0.5
006,74,0,1,15,40,740,1504.3470058259554,1505.407134676585,"[89, 0, 165]",165,l,0.5403652684763074,colour,0.5
006,74,0,1,15,41,741,1505.9194718999788,1506.9991524436045,"[98, 0, 156]",156,l,0.5559540838003159,colour,0.5
006,74,0,1,15,42,742,1507.513675905764,1508.6757364131045,"[53, 0, 201]",201,a,0.6397684342227876,colour,0.5
006,74,0,1,15,43,743,1509.1965141487308,1510.263165875338,"[77, 0, 177]",177,l,0.543287605047226,colour,0.5
006,74,0,1,15,44,744,1510.7771147163585,1511.6950903956313,"[24, 0, 230]",230,a,0.39141786098480225,colour,0.5
006,74,0,1,15,45,745,1512.2089029659983,1513.2791260874365,"[0, 0, 254]",254,a,0.5593695156276226,colour,0.5
006,74,0,1,15,46,746,1513.786158994073,1514.911099523306,"[75, 0, 179]",179,l,0.6015960997901857,colour,0.5
006,74,0,1,15,47,747,1515.427863181103,1517.4151466840412,"[56, 0, 198]",198,a,1.4637023722752929,colour,0.5
006,74,0,1,15,48,748,1517.9324199785478,1518.9431384953205,"[13, 0, 241]",241,a,0.4908986147493124,colour,0.5
006,74,0,1,15,49,749,1519.4434094612952,1520.647129414836,"[49, 0, 205]",205,a,0.6809552654158324,colour,0.5
006,74,0,1,15,50,750,1521.1621664520353,1522.1751011398155,"[4, 0, 250]",250,a,0.4896099509205669,colour,0.5
006,74,0,1,16,1,751,1526.6967165854294,1528.039083693875,"[26, 0, 228]",228,a,0.8277148585766554,colour,0.5
006,74,0,1,16,2,752,1528.562067754101,1529.6791097035166,"[93, 0, 161]",161,l,0.5852676418144256,colour,0.5
006,74,0,1,16,3,753,1530.1910219672136,1531.447106098989,"[53, 0, 201]",201,a,0.726793416775763,colour,0.5
006,74,0,1,16,4,754,1531.95966663328,1533.0790933195967,"[64, 0, 190]",190,l,0.590213165152818,colour,0.5
006,74,0,1,16,5,755,1533.5962401893921,1534.6550768315792,"[96, 0, 158]",158,l,0.5380285806022584,colour,0.5
006,74,0,1,16,6,756,1535.1756155025214,1539.1590743677225,"[61, 0, 193]",193,a,3.4639083535876125,colour,0.5
006,74,0,1,16,7,757,1539.6697026935872,1540.7030925571453,"[90, 0, 164]",164,l,0.5100860001984984,colour,0.5
006,74,0,1,16,8,758,1541.2171922409907,1542.279078432126,"[89, 0, 165]",165,l,0.5385228572413325,colour,0.5
006,74,0,1,16,9,759,1542.7953426933382,1543.8790845761541,"[20, 0, 234]",234,a,0.5677635536994785,colour,0.5
006,74,0,1,16,10,760,1544.3975937590003,1545.4710885586683,"[43, 0, 211]",211,a,0.5501535211224109,colour,0.5
006,74,0,1,16,11,761,1545.9913795005996,1547.1351064802147,"[66, 0, 188]",188,l,0.6324838600121439,colour,0.5
006,74,0,1,16,12,762,1547.651072600158,1548.7431143918075,"[12, 0, 242]",242,a,0.5683614118024707,colour,0.5
006,74,0,1,16,13,763,1549.2588221486658,1550.4630867911037,"[49, 0, 205]",205,a,0.6724663104396313,colour,0.5
006,74,0,1,16,14,764,1550.972353985766,1552.383140401449,"[63, 0, 191]",191,l,0.8797789264936,colour,0.5
006,74,0,1,16,15,765,1552.9000332406722,1553.9190930202603,"[3, 0, 251]",251,a,0.4985341054853052,colour,0.5
006,74,0,1,16,16,766,1554.4369570834097,1555.8151452662423,"[51, 0, 203]",203,a,0.8569614628795534,colour,0.5
006,74,0,1,16,17,767,1556.323358135298,1557.4630954556633,"[34, 0, 220]",220,a,0.6163881649263203,colour,0.5
006,74,0,1,16,18,768,1557.9802285409532,1559.055100619793,"[97, 0, 157]",157,l,0.5524669720325619,colour,0.5
006,74,0,1,16,19,769,1559.578859768808,1561.6231075704563,"[57, 0, 197]",197,a,1.520359470974654,colour,0.5
006,74,0,1,16,20,770,1562.1437706965953,1563.1031009852886,"[28, 0, 226]",226,a,0.4345888877287507,colour,0.5
006,74,0,1,16,21,771,1563.6220839649905,1564.8150818571448,"[82, 0, 172]",172,l,0.6702737703453749,colour,0.5
006,74,0,1,16,22,772,1565.3267708101775,1566.3351250698324,"[48, 0, 206]",206,a,0.48871631431393325,colour,0.5
006,74,0,1,16,23,773,1566.844467488816,1567.7670929131564,"[38, 0, 216]",216,a,0.39918607799336314,colour,0.5
006,74,0,1,16,24,774,1568.2820208549965,1569.4070885966066,"[36, 0, 218]",218,a,0.6003141314722598,colour,0.5
006,74,0,1,16,25,775,1569.923925115727,1570.983071320923,"[70, 0, 184]",184,l,0.5357773574069142,colour,0.5
006,74,0,1,16,26,776,1571.5026194693055,1572.5111096058972,"[32, 0, 222]",222,a,0.4850236149504781,colour,0.5
006,74,0,1,16,27,777,1573.0183118663263,1574.0870872102678,"[84, 0, 170]",170,l,0.5516631326172501,colour,0.5
006,74,0,1,16,28,778,1574.6058236421086,1575.679115217412,"[47, 0, 207]",207,a,0.550264191813767,colour,0.5
006,74,0,1,16,29,779,1576.2005865154788,1577.3670777895022,"[5, 0, 249]",249,a,0.6403686555568129,colour,0.5
006,74,0,1,16,30,780,1577.875318621518,1579.039068727754,"[39, 0, 215]",215,a,0.637373851146549,colour,0.5
006,74,0,1,16,31,781,1579.559764149366,1580.7991094356403,"[29, 0, 225]",225,a,0.7139737319666892,colour,0.5
006,74,0,1,16,32,782,1581.3148254633415,1582.4550929004326,"[7, 0, 247]",247,a,0.6164921403396875,colour,0.5
006,74,0,1,16,33,783,1582.967636499321,1584.0790692949668,"[85, 0, 169]",169,l,0.5815379209816456,colour,0.5
006,74,0,1,16,34,784,1584.590538481949,1585.639086687239,"[27, 0, 227]",227,a,0.5269126733765006,colour,0.5
006,74,0,1,16,35,785,1586.1565506029874,1587.2710392491426,"[31, 0, 223]",223,a,0.5962114385329187,colour,0.5
006,74,0,1,16,36,786,1587.7920981906354,1589.087082877988,"[42, 0, 212]",212,a,0.7719254025723785,colour,0.5
006,74,0,1,16,37,787,1589.6032947576605,1590.735130741261,"[11, 0, 243]",243,a,0.6024739826098084,colour,0.5
006,74,0,1,16,38,788,1591.2487456009258,1592.3990982505493,"[21, 0, 233]",233,a,0.6189863667823374,colour,0.5
006,74,0,1,16,39,789,1592.910146416165,1593.9910384300165,"[59, 0, 195]",195,l,0.5497833059635013,colour,0.5
006,74,0,1,16,40,790,1594.5044146189466,1595.5590505006257,"[6, 0, 248]",248,a,0.5319105780217797,colour,0.5
006,74,0,1,16,41,791,1596.0709340136964,1597.0310697171371,"[77, 0, 177]",177,l,0.4386864607222378,colour,0.5
006,74,0,1,16,42,792,1597.537782033207,1598.8710367286112,"[52, 0, 202]",202,a,0.8101225490681827,colour,0.5
006,74,0,1,16,43,793,1599.38968690834,1600.3190502484795,"[72, 0, 182]",182,l,0.39846455212682486,colour,0.5
006,74,0,1,16,44,794,1600.8339919750579,1601.9030630972702,"[75, 0, 179]",179,l,0.5389430907089263,colour,0.5
006,74,0,1,16,45,795,1602.4156563207507,1603.6471404423937,"[80, 0, 174]",174,l,0.7014856655150652,colour,0.5
006,74,0,1,16,46,796,1604.1613641879521,1605.3831195277162,"[55, 0, 199]",199,a,0.7002438695635647,colour,0.5
006,74,0,1,16,47,797,1605.895697784843,1606.6790360542946,"[86, 0, 168]",168,l,0.2651843356434256,colour,0.5
006,74,0,1,16,48,798,1607.1938044887502,1608.0790460580029,"[4, 0, 250]",250,a,0.35888618789613247,colour,0.5
006,74,0,1,16,49,799,1608.5879906928167,1609.8710812332574,"[9, 0, 245]",245,a,0.7565981007646769,colour,0.5
006,74,0,1,16,50,800,1610.3775265216827,1611.4230551102664,"[95, 0, 159]",159,l,0.5207537109963596,colour,0.5
