id,age,condition,counterbalance,block,trialinblock,trial,tstart,tend,trialstim,trialintensity,response,RT,trialtype,colourfreq
155,22,0,2,Practice,1,NA,5.907728336751461e-06,1.2446909570135176,"[87, 0, 167]",167,l,0.7203678205842152,colour,0.5
155,22,0,2,Practice,2,NA,1.7521405526204035,2.5567650126758963,"[50, 0, 204]",204,a,0.2812760923989117,colour,0.5
155,22,0,2,Practice,3,NA,3.064548589522019,4.932653135154396,"[64, 0, 190]",190,a,1.3447569655254483,colour,0.5
155,22,0,2,Practice,4,NA,5.439624995691702,6.364750947570428,"[41, 0, 213]",213,a,0.40187210717704147,colour,0.5
155,22,0,2,Practice,5,NA,6.877464687800966,7.829056297894567,"[98, 0, 156]",156,l,0.4272696552798152,colour,0.5
155,22,0,2,Practice,6,NA,8.347115314914845,9.204659276059829,"[17, 0, 237]",237,a,0.3340392365353182,colour,0.5
155,22,0,2,Practice,7,NA,9.722120828810148,10.500754214939661,"[11, 0, 243]",243,a,0.25538387370761484,colour,0.5
155,22,0,2,Practice,8,NA,11.018908936530352,11.908696669270284,"[71, 0, 183]",183,l,0.36700492771342397,colour,0.5
155,22,0,2,Practice,9,NA,12.42513146577403,13.212805191171356,"[12, 0, 242]",242,a,0.2643663176568225,colour,0.5
155,22,0,2,Practice,10,NA,13.723617443232797,14.492694552056491,"[6, 0, 248]",248,a,0.24581656872760504,colour,0.5
155,22,0,2,1,1,1,4.463928833603859,5.39998361596372,"[60, 0, 194]",194,a,0.41242402710486203,colour,0.5
155,22,0,2,1,2,2,5.919597536674701,6.791958769084886,"[42, 0, 212]",212,a,0.3491282614413649,colour,0.5
155,22,0,2,1,3,3,7.310128850629553,8.104017858509906,"[3, 0, 251]",251,a,0.27053000626619905,colour,0.5
155,22,0,2,1,4,4,8.622701515210792,9.568115652073175,"[53, 0, 201]",201,a,0.42031551792752,colour,0.5
155,22,0,2,1,5,5,10.077495880308561,10.99197538930457,"[90, 0, 164]",164,l,0.39104173821397126,colour,0.5
155,22,0,2,1,6,6,11.49952344642952,12.304056928027421,"[49, 0, 205]",205,a,0.281375341466628,colour,0.5
155,22,0,2,1,7,7,12.811966929468326,13.671982667641714,"[1, 0, 253]",253,a,0.33661065658088773,colour,0.5
155,22,0,2,1,8,8,14.186981895705685,14.968049643444829,"[78, 0, 176]",176,l,0.2576851154444739,colour,0.5
155,22,0,2,1,9,9,15.485330814844929,16.18394416209776,"[7, 0, 247]",247,a,0.1752764011034742,colour,0.5
155,22,0,2,1,10,10,16.704181934706867,17.479981993325055,"[25, 0, 229]",229,a,0.2527730690781027,colour,0.5
155,22,0,2,1,11,11,18.001055113156326,18.767945983214304,"[93, 0, 161]",161,l,0.24362324073445052,colour,0.5
155,22,0,2,1,12,12,19.282253617886454,20.008067933726124,"[86, 0, 168]",168,l,0.20279520330950618,colour,0.5
155,22,0,2,1,13,13,20.51684321463108,21.3439472183818,"[35, 0, 219]",219,a,0.30283797497395426,colour,0.5
155,22,0,2,1,14,14,21.861563552520238,22.551924646249972,"[21, 0, 233]",233,a,0.1672238273313269,colour,0.5
155,22,0,2,1,15,15,23.064721487928182,23.791936319787055,"[6, 0, 248]",248,a,0.204111042432487,colour,0.5
155,22,0,2,1,16,16,24.300516647053882,25.07198676362168,"[84, 0, 170]",170,l,0.24832379177678376,colour,0.5
155,22,0,2,1,17,17,25.58161196403671,26.151954420958646,"[19, 0, 235]",235,a,0.048049990087747574,colour,0.5
155,22,0,2,1,18,18,26.65877583238762,27.47996308875736,"[61, 0, 193]",193,a,0.29781959019601345,colour,0.5
155,22,0,2,1,19,19,27.98687035846524,28.599915165570565,"[14, 0, 240]",240,a,0.08972558390814811,colour,0.5
155,22,0,2,1,20,20,29.111979847657494,29.79195916291792,"[58, 0, 196]",196,a,0.15665969823021442,colour,0.5
155,22,0,2,1,21,21,30.30075453000609,30.943960845354013,"[77, 0, 177]",177,l,0.11986582458484918,colour,0.5
155,22,0,2,1,22,22,31.45705110230483,32.11998082755599,"[98, 0, 156]",156,l,0.13964634214062244,colour,0.5
155,22,0,2,1,23,23,32.629000292974524,33.27194430702366,"[16, 0, 238]",238,a,0.11922149267047644,colour,0.5
155,22,0,2,1,24,24,33.78566747426521,34.53598215722013,"[56, 0, 198]",198,a,0.22703366284258664,colour,0.5
155,22,0,2,1,25,25,35.05133978498634,35.77593829855323,"[89, 0, 165]",165,l,0.2083153477869928,colour,0.5
155,22,0,2,1,26,26,36.29427615844179,36.89597741526086,"[32, 0, 222]",222,a,0.07880463032051921,colour,0.5
155,22,0,2,1,27,27,37.4038665429689,38.03198422724381,"[27, 0, 227]",227,a,0.10501468263100833,colour,0.5
155,22,0,2,1,28,28,38.544301364570856,39.17597390222363,"[8, 0, 246]",246,a,0.10840687749441713,colour,0.5
155,22,0,2,1,29,29,39.684838192304596,40.48793610557914,"[83, 0, 171]",171,l,0.2798460377380252,colour,0.5
155,22,0,2,1,30,30,40.9987018838292,41.53598885261454,"[43, 0, 211]",211,a,0.014221382443793118,colour,0.5
155,22,0,2,1,31,31,42.04551677312702,42.82400837470777,"[15, 0, 239]",239,a,0.25507864309474826,colour,0.5
155,22,0,2,1,32,32,43.34241437003948,44.023932441254146,"[71, 0, 183]",183,l,0.15826068189926445,colour,0.5
155,22,0,2,1,33,33,44.529958677710965,45.27994292380754,"[97, 0, 157]",157,l,0.22571191587485373,colour,0.5
155,22,0,2,1,34,34,45.79653565248009,46.58399315655697,"[23, 0, 231]",231,a,0.2641394624952227,colour,0.5
155,22,0,2,1,35,35,47.09347539092414,47.887970921583474,"[55, 0, 199]",199,a,0.271257045911625,colour,0.5
155,22,0,2,1,36,36,48.40598937240429,49.28798604523763,"[54, 0, 200]",200,a,0.35873180034104735,colour,0.5
155,22,0,2,1,37,37,49.79650296329055,50.58392659656238,"[4, 0, 250]",250,a,0.26410441019106656,colour,0.5
155,22,0,2,1,38,38,51.09474987629801,51.83995716529898,"[13, 0, 241]",241,a,0.22190185042563826,colour,0.5
155,22,0,2,1,39,39,52.36035208252724,53.055995831498876,"[26, 0, 228]",228,a,0.17296649469062686,colour,0.5
155,22,0,2,1,40,40,53.563476540963165,54.31194566190243,"[92, 0, 162]",162,l,0.22319878509733826,colour,0.5
155,22,0,2,1,41,41,54.83140834572259,55.53604123403784,"[40, 0, 214]",214,a,0.18157990498002619,colour,0.5
155,22,0,2,1,42,42,56.04871165123768,56.727950929896906,"[74, 0, 180]",180,l,0.15612367389257997,colour,0.5
155,22,0,2,1,43,43,57.23623390344437,58.0959778878605,"[99, 0, 155]",155,l,0.3363920720294118,colour,0.5
155,22,0,2,1,44,44,58.61130006960593,59.67195982451085,"[59, 0, 195]",195,a,0.5373669194523245,colour,0.5
155,22,0,2,1,45,45,60.18931543279905,60.967946455813944,"[28, 0, 226]",226,a,0.25528107990976423,colour,0.5
155,22,0,2,1,46,46,61.48625792807434,62.239954565884545,"[62, 0, 192]",192,l,0.23047942074481398,colour,0.5
155,22,0,2,1,47,47,62.75188691576477,63.431942637078464,"[0, 0, 254]",254,a,0.15543365583289415,colour,0.5
155,22,0,2,1,48,48,63.94072382571176,64.55197584617417,"[96, 0, 158]",158,l,0.08794579422101378,colour,0.5
155,22,0,2,1,49,49,65.06563914893195,65.71194463782012,"[75, 0, 179]",179,l,0.12323478260077536,colour,0.5
155,22,0,2,1,50,50,66.22171871212777,66.8799746677978,"[10, 0, 244]",244,a,0.13496824027970433,colour,0.5
155,22,0,2,2,1,51,71.69608997646719,72.95199254527688,"[61, 0, 193]",193,l,0.7302285409532487,colour,0.5
155,22,0,2,2,2,52,73.4642403657781,74.5999387963675,"[96, 0, 158]",158,l,0.6124918474815786,colour,0.5
155,22,0,2,2,3,53,75.12046171340626,75.87191894336138,"[23, 0, 231]",231,a,0.22843378502875566,colour,0.5
155,22,0,2,2,4,54,76.3861052733846,77.1519406363368,"[30, 0, 224]",224,a,0.24249369057361037,colour,0.5
155,22,0,2,2,5,55,77.66739199950825,78.57594609668013,"[40, 0, 214]",214,a,0.38312661671079695,colour,0.5
155,22,0,2,2,6,56,79.09165503503755,79.91190730128437,"[10, 0, 244]",244,a,0.29723433521576226,colour,0.5
155,22,0,2,2,7,57,80.41984723496716,81.72791548375972,"[17, 0, 237]",237,a,0.7848277947632596,colour,0.5
155,22,0,2,2,8,58,82.24791143508628,83.23194058914669,"[58, 0, 196]",196,l,0.46082729706540704,colour,0.5
155,22,0,2,2,9,59,83.74797366268467,84.50394869921729,"[66, 0, 188]",188,l,0.23141283565200865,colour,0.5
155,22,0,2,2,10,60,85.0149862311082,85.76792353403289,"[16, 0, 238]",238,a,0.2297338704811409,colour,0.5
155,22,0,2,2,11,61,86.28053644963074,87.07198636978865,"[12, 0, 242]",242,a,0.2689715580781922,colour,0.5
155,22,0,2,2,12,62,87.59306697268039,88.45592785370536,"[79, 0, 175]",175,l,0.339564107125625,colour,0.5
155,22,0,2,2,13,63,88.96812959422823,89.70396807638463,"[69, 0, 185]",185,l,0.2125184714095667,colour,0.5
155,22,0,2,2,14,64,90.21808312041685,90.99994486151263,"[95, 0, 159]",159,l,0.25842042570002377,colour,0.5
155,22,0,2,2,15,65,91.51503900648095,92.28792184835766,"[44, 0, 210]",210,a,0.25004371686372906,colour,0.5
155,22,0,2,2,16,66,92.79613471729681,93.59996597166173,"[59, 0, 195]",195,a,0.28042617277242243,colour,0.5
155,22,0,2,2,17,67,94.10866169573274,94.84790733910631,"[29, 0, 225]",225,a,0.21585710323415697,colour,0.5
155,22,0,2,2,18,68,95.35874164651614,96.15192803333048,"[46, 0, 208]",208,a,0.26788533094804734,colour,0.5
155,22,0,2,2,19,69,96.6732362791663,97.33589228149503,"[22, 0, 232]",232,a,0.1393151176162064,colour,0.5
155,22,0,2,2,20,70,97.8451720791636,98.53591796034016,"[94, 0, 160]",160,l,0.1674227196490392,colour,0.5
155,22,0,2,2,21,71,99.04825557768345,99.75198852806352,"[86, 0, 168]",168,l,0.18050864420365542,colour,0.5
155,22,0,2,2,22,72,100.26701296225656,100.9201142626116,"[15, 0, 239]",239,a,0.13039214455056936,colour,0.5
155,22,0,2,2,23,73,101.4388081592042,101.97597776190378,"[84, 0, 170]",170,l,0.012900029309093952,colour,0.5
155,22,0,2,2,24,74,102.48666358937044,103.10415767377708,"[80, 0, 174]",174,l,0.09434894111473113,colour,0.5
155,22,0,2,2,25,75,103.61165925709065,104.31192675721832,"[53, 0, 201]",201,a,0.17695615394040942,colour,0.5
155,22,0,2,2,26,76,104.83042018627748,105.56794196600094,"[42, 0, 212]",212,a,0.21420019341167063,colour,0.5
155,22,0,2,2,27,77,106.08035835251212,106.82393708860036,"[57, 0, 197]",197,a,0.22030283603817225,colour,0.5
155,22,0,2,2,28,78,107.33492578368168,108.13595482427627,"[45, 0, 209]",209,a,0.27772320818621665,colour,0.5
155,22,0,2,2,29,79,108.64432365621906,109.54389609710779,"[98, 0, 156]",156,l,0.37686525424942374,colour,0.5
155,22,0,2,2,30,80,110.05030948412605,110.79992272739764,"[18, 0, 236]",236,a,0.22636963857803494,colour,0.5
155,22,0,2,2,31,81,111.32015971234068,112.14389475807548,"[24, 0, 230]",230,a,0.30029530567117035,colour,0.5
155,22,0,2,2,32,82,112.66389464773238,113.63187379285228,"[63, 0, 191]",191,l,0.4451656200690195,colour,0.5
155,22,0,2,2,33,83,114.14817980164662,114.89592463988811,"[67, 0, 187]",187,l,0.2244842981453985,colour,0.5
155,22,0,2,2,34,84,115.41385959542822,116.16787170385942,"[87, 0, 167]",167,l,0.23098945117089897,colour,0.5
155,22,0,2,2,35,85,116.67958192469086,117.46392804593779,"[43, 0, 211]",211,a,0.27350433077663183,colour,0.5
155,22,0,2,2,36,86,117.97966022125911,118.85593864507973,"[52, 0, 202]",202,a,0.35330420976970345,colour,0.5
155,22,0,2,2,37,87,119.37027896894142,120.06388732220512,"[70, 0, 184]",184,l,0.1702454132027924,colour,0.5
155,22,0,2,2,38,88,120.57337940274738,121.3118554711109,"[68, 0, 186]",186,l,0.21512573130894452,colour,0.5
155,22,0,2,2,39,89,121.823406184325,122.55194000620395,"[49, 0, 205]",205,a,0.20525910332798958,colour,0.5
155,22,0,2,2,40,90,123.07335143967066,123.83990832837299,"[27, 0, 227]",227,a,0.24321994243655354,colour,0.5
155,22,0,2,2,41,91,124.35455860896036,125.00792063528206,"[99, 0, 155]",155,l,0.129959701676853,colour,0.5
155,22,0,2,2,42,92,125.52648023050278,126.3358572293073,"[28, 0, 226]",226,a,0.2846871918300167,colour,0.5
155,22,0,2,2,43,93,126.85592801123857,127.61588483001105,"[36, 0, 218]",218,a,0.2365883649326861,colour,0.5
155,22,0,2,2,44,94,128.1372167066438,128.85591540823225,"[91, 0, 163]",163,l,0.195635084528476,colour,0.5
155,22,0,2,2,45,95,129.37294530577492,130.13590126123745,"[77, 0, 177]",177,l,0.23956899077165872,colour,0.5
155,22,0,2,2,46,96,130.65419028431643,131.36018745484762,"[21, 0, 233]",233,a,0.18268306739628315,colour,0.5
155,22,0,2,2,47,97,131.87301737966482,132.51988449285273,"[9, 0, 245]",245,a,0.12370227766223252,colour,0.5
155,22,0,2,2,48,98,133.0291721674148,133.70394956564996,"[7, 0, 247]",247,a,0.15149047051090747,colour,0.5
155,22,0,2,2,49,99,134.2167089919094,135.61588286072947,"[3, 0, 251]",251,a,0.8758975748205557,colour,0.5
155,22,0,2,2,50,100,136.1242142773699,136.96787950198632,"[56, 0, 198]",198,l,0.3208170412108302,colour,0.5
155,22,0,2,3,1,101,156.23480581818148,156.8398752453504,"[34, 0, 220]",220,a,0.08097196451853961,colour,0.5
155,22,0,2,3,2,102,157.3606506177457,158.51189020834863,"[20, 0, 234]",234,a,0.6279042197857052,colour,0.5
155,22,0,2,3,3,103,159.0324997715652,159.9998932677554,"[52, 0, 202]",202,a,0.4443168821744621,colour,0.5
155,22,0,2,3,4,104,160.51686054386664,161.3038643373875,"[84, 0, 170]",170,l,0.26259991875849664,colour,0.5
155,22,0,2,3,5,105,161.8150318384869,162.47985871962737,"[18, 0, 236]",236,a,0.1415998178999871,colour,0.5
155,22,0,2,3,6,106,162.9868955645943,163.95192007767037,"[61, 0, 193]",193,l,0.44213340035639703,colour,0.5
155,22,0,2,3,7,107,164.47127406008076,165.2478562965989,"[96, 0, 158]",158,l,0.2533086995827034,colour,0.5
155,22,0,2,3,8,108,165.7681803215528,166.53591008333024,"[98, 0, 156]",156,l,0.24446646473370492,colour,0.5
155,22,0,2,3,9,109,167.04938591539394,167.80787565815262,"[76, 0, 178]",178,l,0.23534893174655735,colour,0.5
155,22,0,2,3,10,110,168.31642644689418,168.87187640799675,"[45, 0, 209]",209,a,0.032105137943290174,colour,0.5
155,22,0,2,3,11,111,169.37896051455755,170.10385756322648,"[72, 0, 182]",182,l,0.2016754993237555,colour,0.5
155,22,0,2,3,12,112,170.61320628388785,171.3679560656892,"[44, 0, 210]",210,a,0.23176532774232328,colour,0.5
155,22,0,2,3,13,113,171.87855642859358,172.81588924105745,"[4, 0, 250]",250,a,0.41385683859698474,colour,0.5
155,22,0,2,3,14,114,173.33168364397716,174.15985851478763,"[89, 0, 165]",165,l,0.30480090307537466,colour,0.5
155,22,0,2,3,15,115,174.67701326159295,175.40790031279903,"[30, 0, 224]",224,a,0.20781161868944764,colour,0.5
155,22,0,2,3,16,116,175.9269604862202,176.67207561526448,"[24, 0, 230]",230,a,0.2217297398019582,colour,0.5
155,22,0,2,3,17,117,177.192635947722,177.9438549008919,"[97, 0, 157]",157,l,0.2279103638138622,colour,0.5
155,22,0,2,3,18,118,178.45833188924007,179.22383484616876,"[13, 0, 241]",241,a,0.24219948763493448,colour,0.5
155,22,0,2,3,19,119,179.73945871391334,180.46390874742065,"[73, 0, 181]",181,l,0.19864249182865024,colour,0.5
155,22,0,2,3,20,120,180.96805909578688,181.62392952677328,"[9, 0, 245]",245,a,0.13252600166015327,colour,0.5
155,22,0,2,3,21,121,182.13997047732119,182.91990040417295,"[46, 0, 208]",208,a,0.256694199051708,colour,0.5
155,22,0,2,3,22,122,183.43600240082014,184.17586086841766,"[12, 0, 242]",242,a,0.21652900439221412,colour,0.5
155,22,0,2,3,23,123,184.6859941300936,185.41588160046376,"[10, 0, 244]",244,a,0.20679864706471562,colour,0.5
155,22,0,2,3,24,124,185.93600594543386,186.64788796182256,"[82, 0, 172]",172,l,0.18747105228248984,colour,0.5
155,22,0,2,3,25,125,187.1561272185063,187.89587619691156,"[93, 0, 161]",161,l,0.21655342285521328,colour,0.5
155,22,0,2,3,26,126,188.40607680624817,189.17584629612975,"[3, 0, 251]",251,a,0.2464309682836756,colour,0.5
155,22,0,2,3,27,127,189.6874167015776,190.45588807528839,"[99, 0, 155]",155,l,0.2452210736228153,colour,0.5
155,22,0,2,3,28,128,190.96847342164256,191.56784862454515,"[49, 0, 205]",205,a,0.07592285983264446,colour,0.5
155,22,0,2,3,29,129,192.0804902908858,192.8560571926646,"[36, 0, 218]",218,a,0.2521787555888295,colour,0.5
155,22,0,2,3,30,130,193.37733944470529,194.063845968456,"[83, 0, 171]",171,l,0.1634243958396837,colour,0.5
155,22,0,2,3,31,131,194.58044460474048,195.31995136791375,"[19, 0, 235]",235,a,0.21707841951865703,colour,0.5
155,22,0,2,3,32,132,195.82872940576635,196.4558782291133,"[95, 0, 159]",159,l,0.10451252898201346,colour,0.5
155,22,0,2,3,33,133,196.9693327934947,197.71984715620056,"[28, 0, 226]",226,a,0.22729832725599408,colour,0.5
155,22,0,2,3,34,134,198.2229293944547,198.97586157731712,"[90, 0, 164]",164,l,0.22994930413551629,colour,0.5
155,22,0,2,3,35,135,199.48853514518123,200.0718079576036,"[14, 0, 240]",240,a,0.05988899851217866,colour,0.5
155,22,0,2,3,36,136,200.5823275820585,201.30400966654997,"[48, 0, 206]",206,a,0.20135018264409155,colour,0.5
155,22,0,2,3,37,137,201.81414332205895,202.59986317786388,"[42, 0, 212]",212,a,0.26269916782621294,colour,0.5
155,22,0,2,3,38,138,203.11075538070872,203.80787053809036,"[81, 0, 173]",173,l,0.17387549113482237,colour,0.5
155,22,0,2,3,39,139,204.31555683515035,204.98392872337718,"[91, 0, 163]",163,l,0.14564461552072316,colour,0.5
155,22,0,2,3,40,140,205.5029951982433,206.27187105163466,"[77, 0, 177]",177,l,0.24672162649221718,colour,0.5
155,22,0,2,3,41,141,206.78308305738028,207.31190942798276,"[87, 0, 167]",167,l,0.005594187416136265,colour,0.5
155,22,0,2,3,42,142,207.8301637925906,208.383882407099,"[23, 0, 231]",231,a,0.03066366189159453,colour,0.5
155,22,0,2,3,43,143,208.8924536758568,209.4878644256387,"[0, 0, 254]",254,a,0.07201630214694887,colour,0.5
155,22,0,2,3,44,144,210.00172583281528,210.83986224839464,"[67, 0, 187]",187,l,0.3146856479579583,colour,0.5
155,22,0,2,3,45,145,211.36149384186137,212.0238631243119,"[32, 0, 222]",222,a,0.13922453310806304,colour,0.5
155,22,0,2,3,46,146,212.53307399887126,213.12786050292198,"[85, 0, 169]",169,l,0.0705279583344236,colour,0.5
155,22,0,2,3,47,147,213.6433803952532,214.24786535510793,"[80, 0, 174]",174,l,0.08110075211152434,colour,0.5
155,22,0,2,3,48,148,214.7683859091485,215.42383689421695,"[47, 0, 207]",207,a,0.1320455096429214,colour,0.5
155,22,0,2,3,49,149,215.94012163532898,216.69583870272618,"[79, 0, 175]",175,l,0.232413204270415,colour,0.5
155,22,0,2,3,50,150,217.20570651232265,218.1199197814567,"[65, 0, 189]",189,l,0.3908979845000431,colour,0.5
155,22,0,2,4,1,151,231.26141286711209,232.39982962224167,"[77, 0, 177]",177,a,0.6143145663663745,colour,0.5
155,22,0,2,4,2,152,232.9184561711736,233.52789886354003,"[56, 0, 198]",198,a,0.08645784435793757,colour,0.5
155,22,0,2,4,3,153,234.04378266946878,234.90398824133445,"[29, 0, 225]",225,a,0.33688319788780063,colour,0.5
155,22,0,2,4,4,154,235.41878424491733,236.88786852161866,"[27, 0, 227]",227,a,0.9460754041792825,colour,0.5
155,22,0,2,4,5,155,237.40322575566825,238.08781740046106,"[80, 0, 174]",174,l,0.16131692624185234,colour,0.5
155,22,0,2,4,6,156,238.6063884170726,239.35191196436062,"[66, 0, 188]",188,l,0.22227167175151408,colour,0.5
155,22,0,2,4,7,157,239.87186734948773,240.8799234678736,"[7, 0, 247]",247,a,0.48465733835473657,colour,0.5
155,22,0,2,4,8,158,241.3897830066271,242.19179705588613,"[17, 0, 237]",237,a,0.2787739891791716,colour,0.5
155,22,0,2,4,9,159,242.70231352967676,243.29581767134368,"[99, 0, 155]",155,l,0.07009354629553854,colour,0.5
155,22,0,2,4,10,160,243.8116652435856,244.51182049757335,"[12, 0, 242]",242,a,0.17680334171745926,colour,0.5
155,22,0,2,4,11,161,245.0304001789773,245.7119198255241,"[13, 0, 241]",241,a,0.15849698940292,colour,0.5
155,22,0,2,4,12,162,246.21954350103624,247.44799225218594,"[18, 0, 236]",236,a,0.7051389802945778,colour,0.5
155,22,0,2,4,13,163,247.96939344576094,248.59983167028986,"[83, 0, 171]",171,l,0.10701620765030384,colour,0.5
155,22,0,2,4,14,164,249.1100192826707,249.8558327005012,"[24, 0, 230]",230,a,0.22238549322355539,colour,0.5
155,22,0,2,4,15,165,250.3758168363711,251.17581045615952,"[3, 0, 251]",251,a,0.27677364577539265,colour,0.5
155,22,0,2,4,16,166,251.68813940882683,252.39195939921774,"[33, 0, 221]",221,a,0.17810815328266472,colour,0.5
155,22,0,2,4,17,167,252.9092126074247,253.65582592634019,"[19, 0, 235]",235,a,0.22333269263617694,colour,0.5
155,22,0,2,4,18,168,254.174864438246,254.943807245465,"[59, 0, 195]",195,l,0.24570707941893488,colour,0.5
155,22,0,2,4,19,169,255.45537646941375,256.2159366600681,"[35, 0, 219]",219,a,0.2371078475844115,colour,0.5
155,22,0,2,4,20,170,256.73670573090203,257.2798231947236,"[82, 0, 172]",172,l,0.0199010344222188,colour,0.5
155,22,0,2,4,21,171,257.7978495224379,258.40782469441183,"[67, 0, 187]",187,l,0.08677292102947831,colour,0.5
155,22,0,2,4,22,172,258.92282195331063,259.7038164457772,"[30, 0, 224]",224,a,0.2578115400392562,colour,0.5
155,22,0,2,4,23,173,260.219701039372,260.91187382431235,"[36, 0, 218]",218,a,0.16878818336408585,colour,0.5
155,22,0,2,4,24,174,261.4229038732592,262.0798215405084,"[6, 0, 248]",248,a,0.1339351823553443,colour,0.5
155,22,0,2,4,25,175,262.59471797477454,263.2238076708745,"[75, 0, 179]",179,l,0.10570115607697517,colour,0.5
155,22,0,2,4,26,176,263.735387134715,264.54382126638666,"[55, 0, 199]",199,a,0.2852921391604468,colour,0.5
155,22,0,2,4,27,177,265.0634915070841,265.6877999136923,"[39, 0, 215]",215,a,0.10105968185234815,colour,0.5
155,22,0,2,4,28,178,266.2053406294435,266.7598457541317,"[74, 0, 180]",180,l,0.031126037007197738,colour,0.5
155,22,0,2,4,29,179,267.26789438945707,267.95981668832246,"[85, 0, 169]",169,l,0.16904300160240382,colour,0.5
155,22,0,2,4,30,180,268.4710779247107,269.16781892848667,"[45, 0, 209]",209,l,0.17354584205895662,colour,0.5
155,22,0,2,4,31,181,269.67417284473777,270.39183612540364,"[49, 0, 205]",205,l,0.1943952573928982,colour,0.5
155,22,0,2,4,32,182,270.9085147124715,271.52780237130355,"[26, 0, 228]",228,a,0.09595425717998296,colour,0.5
155,22,0,2,4,33,183,272.0491244017612,273.1038453540532,"[9, 0, 245]",245,a,0.5317120797699317,colour,0.5
155,22,0,2,4,34,184,273.61300857318565,274.60783265007194,"[58, 0, 196]",196,a,0.4715336044318974,colour,0.5
155,22,0,2,4,35,185,275.1286946685286,275.6797922383994,"[72, 0, 182]",182,l,0.027816943591460586,colour,0.5
155,22,0,2,4,36,186,276.1907797518652,276.8798533632653,"[92, 0, 162]",162,l,0.16574375436175615,colour,0.5
155,22,0,2,4,37,187,277.39392902259715,277.9998074093601,"[41, 0, 213]",213,a,0.0828569111181423,colour,0.5
155,22,0,2,4,38,188,278.51926576090045,279.18383270374034,"[10, 0, 244]",244,a,0.13889055186882615,colour,0.5
155,22,0,2,4,39,189,279.6936229255516,280.5120087559335,"[54, 0, 200]",200,l,0.30763344280421734,colour,0.5
155,22,0,2,4,40,190,281.024811111507,281.895794276963,"[96, 0, 158]",158,l,0.3476304654031992,colour,0.5
155,22,0,2,4,41,191,282.4155031144619,283.1438419827027,"[61, 0, 193]",193,a,0.20517639571335167,colour,0.5
155,22,0,2,4,42,192,283.66543261613697,284.2398561044829,"[63, 0, 191]",191,a,0.051538283471018076,colour,0.5
155,22,0,2,4,43,193,284.7592734959908,285.94384899316356,"[51, 0, 203]",203,a,0.6599916347768158,colour,0.5
155,22,0,2,4,44,194,286.4636200583773,287.2158606478479,"[8, 0, 246]",246,a,0.228797304793261,colour,0.5
155,22,0,2,4,45,195,287.72931639372837,288.31980564491823,"[70, 0, 184]",184,l,0.06713733880314976,colour,0.5
155,22,0,2,4,46,196,288.83873427368235,289.71189816400874,"[87, 0, 167]",167,l,0.34985333180520684,colour,0.5
155,22,0,2,4,47,197,290.2292490460677,290.9838219911326,"[79, 0, 175]",175,l,0.23115565429907292,colour,0.5
155,22,0,2,4,48,198,291.4962269560201,292.35982432891615,"[47, 0, 207]",207,a,0.3416180135682225,colour,0.5
155,22,0,2,4,49,199,292.8698874861002,293.77577406470664,"[53, 0, 201]",201,a,0.3826134355040267,colour,0.5
155,22,0,2,4,50,200,294.2930036422331,294.9998298585415,"[0, 0, 254]",254,a,0.18705987720750272,colour,0.5
155,22,0,2,5,1,201,309.68572355795186,310.38397299160715,"[1, 0, 253]",253,a,0.17440245696343482,colour,0.5
155,22,0,2,5,2,202,310.9052670589881,311.6877624982735,"[37, 0, 217]",217,a,0.2591955146053806,colour,0.5
155,22,0,2,5,3,203,312.2021642620675,312.7918087136932,"[9, 0, 245]",245,a,0.06638272991403937,colour,0.5
155,22,0,2,5,4,204,313.3114521729294,314.0317861227086,"[52, 0, 202]",202,l,0.19686939753592014,colour,0.5
155,22,0,2,5,5,205,314.54592282825615,315.4477980862139,"[84, 0, 170]",170,l,0.3775655123172328,colour,0.5
155,22,0,2,5,6,206,315.9687825907022,316.57581179519184,"[28, 0, 226]",226,a,0.08379032590892166,colour,0.5
155,22,0,2,5,7,207,317.0937798337545,317.8557495990535,"[27, 0, 227]",227,a,0.23892702197190374,colour,0.5
155,22,0,2,5,8,208,318.37497518770397,319.0797679774696,"[43, 0, 211]",211,a,0.18146923428867012,colour,0.5
155,22,0,2,5,9,209,319.59375541540794,320.30390608508606,"[40, 0, 214]",214,a,0.18687004351522774,colour,0.5
155,22,0,2,5,10,210,320.8146395679796,321.3597991227871,"[86, 0, 168]",168,l,0.021812368649989367,colour,0.5
155,22,0,2,5,11,211,321.8772327124607,322.45579315838404,"[35, 0, 219]",219,a,0.0552912411512807,colour,0.5
155,22,0,2,5,12,212,322.97095937712584,323.5118275868008,"[24, 0, 230]",230,a,0.017481638817116618,colour,0.5
155,22,0,2,5,13,213,324.0335135309724,324.6238405175973,"[62, 0, 192]",192,l,0.06715663720387965,colour,0.5
155,22,0,2,5,14,214,325.14283413102385,325.799791182857,"[83, 0, 171]",171,l,0.13365200720727444,colour,0.5
155,22,0,2,5,15,215,326.31474472477566,326.9517940469086,"[14, 0, 240]",240,a,0.11422792018856853,colour,0.5
155,22,0,2,5,16,216,327.472214957932,328.2557962303981,"[19, 0, 235]",235,a,0.2609823935199529,colour,0.5
155,22,0,2,5,17,217,328.76918817323167,329.3358627430862,"[92, 0, 162]",162,l,0.045364354737102985,colour,0.5
155,22,0,2,5,18,218,329.84528905141633,330.64774775272235,"[64, 0, 190]",190,l,0.2777850420679897,colour,0.5
155,22,0,2,5,19,219,331.1592846813146,331.87978168332484,"[29, 0, 225]",225,a,0.20646584732457995,colour,0.5
155,22,0,2,5,20,220,332.39987924683373,333.39987570222,"[56, 0, 198]",198,a,0.47658349690027535,colour,0.5
155,22,0,2,5,21,221,333.90869942621794,334.68777825217694,"[6, 0, 248]",248,a,0.25574896892067045,colour,0.5
155,22,0,2,5,22,222,335.2055603954941,335.93576451798435,"[12, 0, 242]",242,a,0.20678761939052492,colour,0.5
155,22,0,2,5,23,223,336.4484999196138,337.0957388234092,"[61, 0, 193]",193,l,0.12402050523087382,colour,0.5
155,22,0,2,5,24,224,337.6047669535037,338.28773280233145,"[51, 0, 203]",203,a,0.1597186995204538,colour,0.5
155,22,0,2,5,25,225,338.80793946108315,339.4797358396463,"[5, 0, 249]",249,a,0.1485645892098546,colour,0.5
155,22,0,2,5,26,226,339.9953797934577,340.6797725460492,"[81, 0, 173]",173,l,0.1611735662445426,colour,0.5
155,22,0,2,5,27,227,341.19847786426544,341.75177900202107,"[82, 0, 172]",172,l,0.030175686813890934,colour,0.5
155,22,0,2,5,28,228,342.2622222204227,343.3438739629928,"[94, 0, 160]",160,l,0.5581860087113455,colour,0.5
155,22,0,2,5,29,229,343.85608121729456,344.6477524788352,"[53, 0, 201]",201,a,0.2686832627514377,colour,0.5
155,22,0,2,5,30,230,345.1685337588424,345.9517948345747,"[71, 0, 183]",183,a,0.25995839410461485,colour,0.5
155,22,0,2,5,31,231,346.4654195404146,347.1598994747037,"[18, 0, 236]",236,a,0.17138126480858773,colour,0.5
155,22,0,2,5,32,232,347.6685747188749,348.2559202918783,"[26, 0, 228]",228,a,0.061918486491777,colour,0.5
155,22,0,2,5,33,233,348.76446320372634,349.35177411837503,"[79, 0, 175]",175,l,0.06414647295605391,colour,0.5
155,22,0,2,5,34,234,349.85820286523085,351.18374960217625,"[22, 0, 232]",232,a,0.802255870657973,colour,0.5
155,22,0,2,5,35,235,351.7019393760711,352.31983124488033,"[77, 0, 177]",177,l,0.09460139647126198,colour,0.5
155,22,0,2,5,36,236,352.8269106253283,353.7438260712661,"[54, 0, 200]",200,l,0.3939262656494975,colour,0.5
155,22,0,2,5,37,237,354.2647538620513,354.9917768909363,"[98, 0, 156]",156,l,0.2038633133051917,colour,0.5
155,22,0,2,5,38,238,355.4991032128455,356.19982836197596,"[10, 0, 244]",244,a,0.1778970519080758,colour,0.5
155,22,0,2,5,39,239,356.7178625667002,357.43175359105226,"[78, 0, 176]",176,l,0.19058361661154777,colour,0.5
155,22,0,2,5,40,240,357.95228674821556,358.6717849569395,"[65, 0, 189]",189,l,0.19627626554574817,colour,0.5
155,22,0,2,5,41,241,359.18657229596283,359.8957635569386,"[66, 0, 188]",188,l,0.18583895487245172,colour,0.5
155,22,0,2,5,42,242,360.4067475257907,361.04774436564185,"[47, 0, 207]",207,a,0.11807264410890639,colour,0.5
155,22,0,2,5,43,243,361.56306497193873,362.2157795155654,"[25, 0, 229]",229,a,0.12949181266594678,colour,0.5
155,22,0,2,5,44,244,362.7348806489026,363.37573531037197,"[4, 0, 250]",250,a,0.11762444744817913,colour,0.5
155,22,0,2,5,45,245,363.8911567411851,364.55178207403515,"[7, 0, 247]",247,a,0.1372923250310123,colour,0.5
155,22,0,2,5,46,246,365.0630255873548,365.8077831043629,"[33, 0, 221]",221,a,0.22149461379740387,colour,0.5
155,22,0,2,5,47,247,366.31476441712584,366.99977629550267,"[70, 0, 184]",184,l,0.16178166447207332,colour,0.5
155,22,0,2,5,48,248,367.5179381063208,368.5277929189615,"[90, 0, 164]",164,l,0.48660096793901175,colour,0.5
155,22,0,2,5,49,249,369.0344256780809,369.65576881868765,"[44, 0, 210]",210,a,0.09802706819027662,colour,0.5
155,22,0,2,5,50,250,370.1750223704148,370.72794817306567,"[87, 0, 167]",167,l,0.029592794831842184,colour,0.5
155,22,0,2,6,1,251,393.75784580456093,394.51976043137256,"[28, 0, 226]",226,a,0.23774312110617757,colour,0.5
155,22,0,2,6,2,252,395.0399540932849,395.7997179275844,"[56, 0, 198]",198,l,0.23655567574314773,colour,0.5
155,22,0,2,6,3,253,396.3054416902596,397.2477003335953,"[73, 0, 181]",181,l,0.4192095984471962,colour,0.5
155,22,0,2,6,4,254,397.758631133358,398.4558258475736,"[87, 0, 167]",167,l,0.17388258036226034,colour,0.5
155,22,0,2,6,5,255,398.9618099424988,400.3758337717736,"[29, 0, 225]",225,a,0.8908692336408421,colour,0.5
155,22,0,2,6,6,256,400.8836689424934,401.67978869378567,"[99, 0, 155]",155,l,0.2727895004209131,colour,0.5
155,22,0,2,6,7,257,402.19830772280693,402.8797233940568,"[67, 0, 187]",187,l,0.15819766651839018,colour,0.5
155,22,0,2,6,8,258,403.3871836235048,403.9677956128726,"[14, 0, 240]",240,a,0.05705212627071887,colour,0.5
155,22,0,2,6,9,259,404.4810115066357,405.23182479839306,"[35, 0, 219]",219,a,0.2274948563426733,colour,0.5
155,22,0,2,6,10,260,405.74666648812126,406.41571460978594,"[47, 0, 207]",207,a,0.15162319655064493,colour,0.5
155,22,0,2,6,11,261,406.9283483992331,407.6797469460871,"[81, 0, 173]",173,l,0.22802615445107222,colour,0.5
155,22,0,2,6,12,262,408.186638855841,408.8717137495987,"[84, 0, 170]",170,l,0.16166311677079648,colour,0.5
155,22,0,2,6,13,263,409.389748348156,409.99982828320935,"[50, 0, 204]",204,a,0.08677528414409608,colour,0.5
155,22,0,2,6,14,264,410.51480112352874,411.5357029204024,"[90, 0, 164]",164,l,0.497751533635892,colour,0.5
155,22,0,2,6,15,265,412.0460976958275,412.68776525522117,"[45, 0, 209]",209,a,0.11839599162340164,colour,0.5
155,22,0,2,6,16,266,413.20225366507657,413.9917465648614,"[49, 0, 205]",205,a,0.2661409873981029,colour,0.5
155,22,0,2,6,17,267,414.50052972277626,415.2557580273133,"[48, 0, 206]",206,a,0.23199730296619236,colour,0.5
155,22,0,2,6,18,268,415.7661279904423,416.5117275499506,"[18, 0, 236]",236,a,0.22197353036608547,colour,0.5
155,22,0,2,6,19,269,417.03174595045857,417.7117674071342,"[17, 0, 237]",237,a,0.15722959325648844,colour,0.5
155,22,0,2,6,20,270,418.21929695352446,418.9437528947601,"[2, 0, 252]",252,a,0.20108512428123504,colour,0.5
155,22,0,2,6,21,271,419.4536785996752,420.19969130354,"[30, 0, 224]",224,a,0.22258674853947014,colour,0.5
155,22,0,2,6,22,272,420.7192453596508,421.2638094194699,"[91, 0, 163]",163,l,0.021185365854762495,colour,0.5
155,22,0,2,6,23,273,421.78173137817066,422.479705513455,"[55, 0, 199]",199,a,0.17473604436963797,colour,0.5
155,22,0,2,6,24,274,422.98936773545574,423.66456694272347,"[7, 0, 247]",247,a,0.15169251337647438,colour,0.5
155,22,0,2,6,25,275,424.1775831566192,425.1757116008084,"[83, 0, 171]",171,l,0.4757489374605939,colour,0.5
155,22,0,2,6,26,276,425.69239648943767,426.7118961948436,"[61, 0, 193]",193,l,0.4992800496984273,colour,0.5
155,22,0,2,6,27,277,427.2204544666456,427.7597681664629,"[92, 0, 162]",162,l,0.015949578257277608,colour,0.5
155,22,0,2,6,28,278,428.2672591159353,428.9126355223125,"[23, 0, 231]",231,a,0.12253925064578652,colour,0.5
155,22,0,2,6,29,279,429.42484947212506,430.1197019846877,"[42, 0, 212]",212,a,0.1714202556759119,colour,0.5
155,22,0,2,6,30,280,430.6279928351287,431.3117188066244,"[32, 0, 222]",222,a,0.16064266208559275,colour,0.5
155,22,0,2,6,31,281,431.83085853687953,432.5117295192322,"[94, 0, 160]",160,l,0.157603353029117,colour,0.5
155,22,0,2,6,32,282,433.0183705490781,433.83969880233053,"[86, 0, 168]",168,l,0.2986143712187186,colour,0.5
155,22,0,2,6,33,283,434.3464465645375,434.97571073437575,"[64, 0, 190]",190,a,0.10593706974759698,colour,0.5
155,22,0,2,6,34,284,435.4870731891133,436.2477058474906,"[0, 0, 254]",254,a,0.2371968567604199,colour,0.5
155,22,0,2,6,35,285,436.7683567645727,437.42370022961404,"[21, 0, 233]",233,a,0.1320309373550117,colour,0.5
155,22,0,2,6,36,286,437.9401795306476,438.583751335158,"[71, 0, 183]",183,l,0.1201797197572887,colour,0.5
155,22,0,2,6,37,287,439.0963945768308,439.7118201825069,"[24, 0, 230]",230,a,0.09196893020998687,colour,0.5
155,22,0,2,6,38,288,440.2214170261286,440.84770450845826,"[16, 0, 238]",238,a,0.10540183319244534,colour,0.5
155,22,0,2,6,39,289,441.36267183499876,442.04775539331604,"[52, 0, 202]",202,a,0.16171904292423278,colour,0.5
155,22,0,2,6,40,290,442.5658018072136,443.2877934545977,"[59, 0, 195]",195,a,0.19807771686464548,colour,0.5
155,22,0,2,6,41,291,443.8008856807137,444.37569750112016,"[82, 0, 172]",172,l,0.05295179644599557,colour,0.5
155,22,0,2,6,42,292,444.89339654298965,445.5118287684163,"[88, 0, 166]",166,l,0.09548124822322279,colour,0.5
155,22,0,2,6,43,293,446.0184004814364,446.559780296986,"[39, 0, 215]",215,a,0.018802598118782043,colour,0.5
155,22,0,2,6,44,294,447.08093336760066,447.631699712947,"[41, 0, 213]",213,a,0.027845300501212478,colour,0.5
155,22,0,2,6,45,295,448.14330753381364,448.79168504616246,"[98, 0, 156]",156,l,0.12504647381138057,colour,0.5
155,22,0,2,6,46,296,449.2996442783624,449.8637427020585,"[54, 0, 200]",200,a,0.04093752661719918,colour,0.5
155,22,0,2,6,47,297,450.3801349630812,451.35968096903525,"[11, 0, 243]",243,a,0.4565020811278373,colour,0.5
155,22,0,2,6,48,298,451.88011172623374,452.6397164466325,"[31, 0, 223]",223,a,0.23628155887126923,colour,0.5
155,22,0,2,6,49,299,453.14538704021834,453.6957012505736,"[77, 0, 177]",177,l,0.026983959483914077,colour,0.5
155,22,0,2,6,50,300,454.2078466709936,454.76770731259603,"[25, 0, 229]",229,a,0.03657135064713657,colour,0.5
155,22,0,2,7,1,301,463.64808330941014,464.95971743913833,"[20, 0, 234]",234,a,0.7877375284442678,colour,0.5
155,22,0,2,7,2,302,465.47947944595944,466.45565452461597,"[4, 0, 250]",250,a,0.4528771231416613,colour,0.5
155,22,0,2,7,3,303,466.9638961444143,467.7757705200929,"[88, 0, 166]",166,l,0.2885374295292422,colour,0.5
155,22,0,2,7,4,304,468.2919733413728,469.10375949565787,"[42, 0, 212]",212,a,0.2886922110337764,colour,0.5
155,22,0,2,7,5,305,469.62004463060293,470.38370832719374,"[94, 0, 160]",160,l,0.24026570422574878,colour,0.5
155,22,0,2,7,6,306,470.90353728772607,471.6077456101775,"[62, 0, 192]",192,l,0.18093714851420373,colour,0.5
155,22,0,2,7,7,307,472.1221969985636,473.1438006288372,"[8, 0, 246]",246,a,0.49821548408363014,colour,0.5
155,22,0,2,7,8,308,473.6535085369833,474.4636850429233,"[21, 0, 233]",233,a,0.2872117441147566,colour,0.5
155,22,0,2,7,9,309,474.9815884908894,475.56768754147924,"[78, 0, 176]",176,l,0.06723934481851757,colour,0.5
155,22,0,2,7,10,310,476.07620879192837,476.8236905410886,"[34, 0, 220]",220,a,0.224032950703986,colour,0.5
155,22,0,2,7,11,311,477.3419354533544,478.0799723834498,"[15, 0, 239]",239,a,0.21462397160939872,colour,0.5
155,22,0,2,7,12,312,478.5918854349293,479.19969130354,"[40, 0, 214]",214,a,0.08436927932780236,colour,0.5
155,22,0,2,7,13,313,479.7169456933625,480.38370399479754,"[29, 0, 225]",225,a,0.143493035226129,colour,0.5
155,22,0,2,7,14,314,480.89047341851983,481.61569027008954,"[82, 0, 172]",172,l,0.2018038930837065,colour,0.5
155,22,0,2,7,15,315,482.1248676677933,483.18368855607696,"[39, 0, 215]",215,a,0.5354599175043404,colour,0.5
155,22,0,2,7,16,316,483.70299133856315,484.79967617988586,"[60, 0, 194]",194,l,0.573268732172437,colour,0.5
155,22,0,2,7,17,317,485.31229500321206,486.11973900615703,"[63, 0, 191]",191,l,0.2842189089860767,colour,0.5
155,22,0,2,7,18,318,486.62622407311574,487.2959019544069,"[31, 0, 223]",223,a,0.14671587641350925,colour,0.5
155,22,0,2,7,19,319,487.81370300229173,488.51174133457243,"[59, 0, 195]",195,l,0.17467696755193174,colour,0.5
155,22,0,2,7,20,320,489.032439906965,489.8478837083094,"[45, 0, 209]",209,a,0.2928508301265538,colour,0.5
155,22,0,2,7,21,321,490.36054112855345,490.9917213587323,"[96, 0, 158]",158,l,0.10782989324070513,colour,0.5
155,22,0,2,7,22,322,491.5012106823269,492.199666885077,"[30, 0, 224]",224,a,0.17411219247151166,colour,0.5
155,22,0,2,7,23,323,492.72108501393814,493.39967247773893,"[19, 0, 235]",235,a,0.15535173588432372,colour,0.5
155,22,0,2,7,24,324,493.90856079244986,494.6396908466704,"[35, 0, 219]",219,a,0.20794355717953295,colour,0.5
155,22,0,2,7,25,325,495.1585548847215,495.7596846711822,"[9, 0, 245]",245,a,0.07793816935736686,colour,0.5
155,22,0,2,7,26,326,496.26786957716104,496.9116997444071,"[25, 0, 229]",229,a,0.12080711626913399,colour,0.5
155,22,0,2,7,27,327,497.4241263709264,498.10372247407213,"[92, 0, 162]",162,l,0.15647301520220935,colour,0.5
155,22,0,2,7,28,328,498.6116505925311,499.18372597149573,"[43, 0, 211]",211,a,0.04880971892271191,colour,0.5
155,22,0,2,7,29,329,499.70538749708794,500.34369909542147,"[2, 0, 252]",252,a,0.11500182747840881,colour,0.5
155,22,0,2,7,30,330,500.86169155244716,501.4877600563923,"[90, 0, 164]",164,l,0.10149921383708715,colour,0.5
155,22,0,2,7,31,331,502.0036241702037,502.59167393972166,"[86, 0, 168]",168,l,0.06477308180183172,colour,0.5
155,22,0,2,7,32,332,503.112950284034,503.7276732685277,"[93, 0, 161]",161,l,0.09143133054021746,colour,0.5
155,22,0,2,7,33,333,504.23903217876796,504.98364830506034,"[68, 0, 186]",186,l,0.22165412141475827,colour,0.5
155,22,0,2,7,34,334,505.50451938190963,506.1596367795719,"[11, 0, 243]",243,a,0.1319702852051705,colour,0.5
155,22,0,2,7,35,335,506.67624329274986,507.2396906891372,"[51, 0, 203]",203,a,0.040068308589980006,colour,0.5
155,22,0,2,7,36,336,507.7544626680901,508.3037497282494,"[57, 0, 197]",197,a,0.025957203120924532,colour,0.5
155,22,0,2,7,37,337,508.8176926615415,509.47972205502447,"[72, 0, 182]",182,l,0.15025497588794678,colour,0.5
155,22,0,2,7,38,338,509.9936350560747,510.6477217588108,"[98, 0, 156]",156,l,0.13081946724560112,colour,0.5
155,22,0,2,7,39,339,511.16543025302235,511.807631079806,"[81, 0, 173]",173,l,0.11890917283017188,colour,0.5
155,22,0,2,7,40,340,512.3217193422606,513.0076902353903,"[53, 0, 201]",201,a,0.1626926299650222,colour,0.5
155,22,0,2,7,41,341,513.5261978430208,514.2956475298852,"[27, 0, 227]",227,a,0.24603397154714912,colour,0.5
155,22,0,2,7,42,342,514.8074329752708,515.3357725524111,"[58, 0, 196]",196,a,0.011096608825027943,colour,0.5
155,22,0,2,7,43,343,515.8482381696813,516.4236569065833,"[7, 0, 247]",247,a,0.06092087470460683,colour,0.5
155,22,0,2,7,44,344,516.9330166549189,517.6636670047883,"[69, 0, 185]",185,l,0.2076974033843726,colour,0.5
155,22,0,2,7,45,345,518.1854305366287,518.8559614880942,"[61, 0, 193]",193,l,0.14789544488303363,colour,0.5
155,22,0,2,7,46,346,519.3721497370861,520.3516768383561,"[54, 0, 200]",200,l,0.45658360712695867,colour,0.5
155,22,0,2,7,47,347,520.8721816386096,521.5517111817608,"[1, 0, 253]",253,a,0.15600867092143744,colour,0.5
155,22,0,2,7,48,348,522.059675927856,522.6636827586917,"[32, 0, 222]",222,a,0.08070139237679541,colour,0.5
155,22,0,2,7,49,349,523.1847606046358,524.255657202797,"[3, 0, 251]",251,a,0.5475950980326161,colour,0.5
155,22,0,2,7,50,350,524.7629023923073,525.5677442552987,"[85, 0, 169]",169,l,0.2795431702397764,colour,0.5
155,22,0,2,8,1,351,539.6880228304071,540.3276833510026,"[66, 0, 188]",188,l,0.11549492250196636,colour,0.5
155,22,0,2,8,2,352,540.8451122145634,541.8397188885137,"[23, 0, 231]",231,a,0.47154935833532363,colour,0.5
155,22,0,2,8,3,353,542.3607880698983,543.3436443507671,"[92, 0, 162]",162,l,0.4595441468991339,colour,0.5
155,22,0,2,8,4,354,543.8621917368146,544.5756948229391,"[26, 0, 228]",228,a,0.19017362303566188,colour,0.5
155,22,0,2,8,5,355,545.0966147367144,545.9676530406578,"[57, 0, 197]",197,l,0.34805739438161254,colour,0.5
155,22,0,2,8,6,356,546.4869589738082,547.2636617273092,"[86, 0, 168]",168,l,0.2532693149987608,colour,0.5
155,22,0,2,8,7,357,547.7838668107288,548.4079534820048,"[59, 0, 195]",195,a,0.10071742965374142,colour,0.5
155,22,0,2,8,8,358,548.924460352282,549.5996863411274,"[62, 0, 192]",192,a,0.1519016457023099,colour,0.5
155,22,0,2,8,9,359,550.111972364597,550.7597354772734,"[64, 0, 190]",190,a,0.1248826339142397,colour,0.5
155,22,0,2,8,10,360,551.2682740568416,551.8636052497895,"[7, 0, 247]",247,a,0.0723798219114542,colour,0.5
155,22,0,2,8,11,361,552.3806705935858,552.959646940697,"[29, 0, 225]",225,a,0.055767007055692375,colour,0.5
155,22,0,2,8,12,362,553.474404347362,554.1436970473733,"[14, 0, 240]",240,a,0.14589785842690617,colour,0.5
155,22,0,2,8,13,363,554.6619868581183,555.199715722003,"[28, 0, 226]",226,a,0.016820765449665487,colour,0.5
155,22,0,2,8,14,364,555.7238435108447,556.3756317287916,"[68, 0, 186]",186,l,0.13071509811561555,colour,0.5
155,22,0,2,8,15,365,556.8939235088183,557.5756853705971,"[82, 0, 172]",172,l,0.15852337703108788,colour,0.5
155,22,0,2,8,16,366,558.0882659909548,558.8156194565818,"[77, 0, 177]",177,l,0.20411064859945327,colour,0.5
155,22,0,2,8,17,367,559.3228654338745,560.1116667401511,"[91, 0, 163]",163,l,0.26579676603432745,colour,0.5
155,22,0,2,8,18,368,560.6193865140667,561.3436116615776,"[85, 0, 169]",169,l,0.20080352446530014,colour,0.5
155,22,0,2,8,19,369,561.8538158155279,562.5116625654045,"[94, 0, 160]",160,l,0.1344991697696969,colour,0.5
155,22,0,2,8,20,370,563.0257106556091,563.7516360359732,"[16, 0, 238]",238,a,0.2030319047626108,colour,0.5
155,22,0,2,8,21,371,564.2624640418217,564.9276497166138,"[38, 0, 216]",216,a,0.1421811345499009,colour,0.5
155,22,0,2,8,22,372,565.4344360756222,566.1196551169269,"[89, 0, 165]",165,l,0.16250673471949995,colour,0.5
155,22,0,2,8,23,373,566.6374833403388,567.3436813723529,"[21, 0, 233]",233,a,0.18289574433583766,colour,0.5
155,22,0,2,8,24,374,567.8561202080455,568.4877092503011,"[1, 0, 253]",253,a,0.10810125304851681,colour,0.5
155,22,0,2,8,25,375,568.9843568338547,569.6156311931554,"[5, 0, 249]",249,a,0.10821271140594035,colour,0.5
155,22,0,2,8,26,376,570.1249491939088,570.8156371796504,"[44, 0, 210]",210,a,0.1672127996571362,colour,0.5
155,22,0,2,8,27,377,571.3281721137464,571.9116438183701,"[45, 0, 209]",209,a,0.06005677685607225,colour,0.5
155,22,0,2,8,28,378,572.4219507661182,573.0956643865211,"[24, 0, 230]",230,a,0.15033571422100067,colour,0.5
155,22,0,2,8,29,379,573.6113524511456,574.2237009386299,"[11, 0, 243]",243,a,0.08905131975188851,colour,0.5
155,22,0,2,8,30,380,574.7362748634769,575.2877024761401,"[56, 0, 198]",198,a,0.028014260344207287,colour,0.5
155,22,0,2,8,31,381,575.7988494972233,576.4236545435851,"[96, 0, 158]",158,l,0.10159728152211756,colour,0.5
155,22,0,2,8,32,382,576.9393367004814,577.5836351505714,"[4, 0, 250]",250,a,0.12085083324927837,colour,0.5
155,22,0,2,8,33,383,578.0957604849245,579.0476604764117,"[67, 0, 187]",187,l,0.4286540236789733,colour,0.5
155,22,0,2,8,34,384,579.5648034078768,580.12763443531,"[39, 0, 215]",215,a,0.03967209963593632,colour,0.5
155,22,0,2,8,35,385,580.6429451955482,581.4476472432725,"[99, 0, 155]",155,l,0.28151594451628625,colour,0.5
155,22,0,2,8,36,386,581.9552248386899,582.607664084062,"[84, 0, 170]",170,l,0.1290030499221757,colour,0.5
155,22,0,2,8,37,387,583.1273173893569,583.8556152975652,"[37, 0, 217]",217,a,0.20502830960322171,colour,0.5
155,22,0,2,8,38,388,584.36165610631,584.9436485256301,"[3, 0, 251]",251,a,0.058681466965936124,colour,0.5
155,22,0,2,8,39,389,585.4578096495243,585.9918418755988,"[30, 0, 224]",224,a,0.010700399870984256,colour,0.5
155,22,0,2,8,40,390,586.5047706556506,587.0397453549085,"[31, 0, 223]",223,a,0.01172715611755848,colour,0.5
155,22,0,2,8,41,391,587.5515997232869,588.1356436860515,"[65, 0, 189]",189,l,0.06247853545937687,colour,0.5
155,22,0,2,8,42,392,588.643660419737,589.5916837857803,"[79, 0, 175]",175,l,0.4246163152856752,colour,0.5
155,22,0,2,8,43,393,590.1090728709241,590.8396409070119,"[48, 0, 206]",206,a,0.20727047440595925,colour,0.5
155,22,0,2,8,44,394,591.3590575109702,592.0077690046746,"[27, 0, 227]",227,a,0.12591490417253226,colour,0.5
155,22,0,2,8,45,395,592.5290961550782,593.0876760097453,"[50, 0, 204]",204,a,0.03530789306387305,colour,0.5
155,22,0,2,8,46,396,593.6073060780764,594.151684636483,"[73, 0, 181]",181,l,0.03300310659687966,colour,0.5
155,22,0,2,8,47,397,594.6735159098171,595.2156318234047,"[63, 0, 191]",191,l,0.018828198197297752,colour,0.5
155,22,0,2,8,48,398,595.7357825561194,596.7276409731712,"[33, 0, 221]",221,a,0.468362357118167,colour,0.5
155,22,0,2,8,49,399,597.2359814482043,597.9436059902655,"[35, 0, 219]",219,a,0.18496934312861413,colour,0.5
155,22,0,2,8,50,400,598.4547687651357,599.159604484099,"[60, 0, 194]",194,l,0.18163346801884472,colour,0.5
155,22,0,2,9,1,401,617.9887537297327,618.6556179757463,"[82, 0, 172]",172,l,0.1428234971826896,colour,0.5
155,22,0,2,9,2,402,619.1769723015605,620.3836256194627,"[97, 0, 157]",157,l,0.6835621314821765,colour,0.5
155,22,0,2,9,3,403,620.8957225970225,621.9755969129037,"[57, 0, 197]",197,a,0.5549982198281214,colour,0.5
155,22,0,2,9,4,404,622.4909758083522,623.023615001468,"[8, 0, 246]",246,a,0.009348720661364496,colour,0.5
155,22,0,2,9,5,405,623.5379604452755,624.0726669355063,"[41, 0, 213]",213,a,0.011441224021837115,colour,0.5
155,22,0,2,9,6,406,624.5847528852755,625.6476142389001,"[17, 0, 237]",237,a,0.5395173181314021,colour,0.5
155,22,0,2,9,7,407,626.1629214545246,626.9356349426089,"[67, 0, 187]",187,l,0.2494698833907023,colour,0.5
155,22,0,2,9,8,408,627.4451762539102,628.159589124145,"[18, 0, 236]",236,a,0.19120274239685386,colour,0.5
155,22,0,2,9,9,409,628.6794558939291,629.3756017965497,"[79, 0, 175]",175,l,0.17272821790538728,colour,0.5
155,22,0,2,9,10,410,629.8854948122753,630.423619491281,"[10, 0, 244]",244,a,0.01482239121105522,colour,0.5
155,22,0,2,9,11,411,630.9323215169134,631.9996175755514,"[34, 0, 220]",220,a,0.5442111738957465,colour,0.5
155,22,0,2,9,12,412,632.5105121415108,633.119600766222,"[90, 0, 164]",164,l,0.08576782618183643,colour,0.5
155,22,0,2,9,13,413,633.635514110676,634.3435852739494,"[80, 0, 174]",174,l,0.184867336996831,colour,0.5
155,22,0,2,9,14,414,634.8543656244874,635.4315736035351,"[46, 0, 208]",208,a,0.05403290351387113,colour,0.5
155,22,0,2,9,15,415,635.9501721893903,636.4876166965114,"[63, 0, 191]",191,a,0.014155216282233596,colour,0.5
155,22,0,2,9,16,416,636.9972698600031,637.5915699643083,"[88, 0, 166]",166,l,0.07126326858997345,colour,0.5
155,22,0,2,9,17,417,638.1063478509896,638.631586679141,"[0, 0, 254]",254,a,0.002231924794614315,colour,0.5
155,22,0,2,9,18,418,639.1532403279562,639.7116559487768,"[38, 0, 216]",216,a,0.03514996077865362,colour,0.5
155,22,0,2,9,19,419,640.2313474571565,640.8636253359728,"[37, 0, 217]",217,a,0.1090642063645646,colour,0.5
155,22,0,2,9,20,420,641.371921700309,641.9515912162606,"[95, 0, 159]",159,l,0.05626640364062041,colour,0.5
155,22,0,2,9,21,421,642.4672375331866,643.0076677862089,"[4, 0, 250]",250,a,0.017108666826970875,colour,0.5
155,22,0,2,9,22,422,643.5141477331053,644.0398493303219,"[71, 0, 183]",183,l,0.0023323555942624807,colour,0.5
155,22,0,2,9,23,423,644.5610079147154,645.5595896755112,"[12, 0, 242]",242,a,0.4753448514966294,colour,0.5
155,22,0,2,9,24,424,646.0765589209041,646.87961508648,"[96, 0, 158]",158,l,0.2799827022245154,colour,0.5
155,22,0,2,9,25,425,647.3890524224844,647.99955495412,"[47, 0, 207]",207,a,0.08706673013512045,colour,0.5
155,22,0,2,9,26,426,648.5156348953024,649.1995483374922,"[50, 0, 204]",204,a,0.16071000962983817,colour,0.5
155,22,0,2,9,27,427,649.7188140983926,650.3755962826544,"[32, 0, 222]",222,a,0.13356260408181697,colour,0.5
155,22,0,2,9,28,428,650.8905722738709,651.4715899244184,"[58, 0, 196]",196,l,0.05759602750185877,colour,0.5
155,22,0,2,9,29,429,651.9843773138709,652.9115926183295,"[87, 0, 167]",167,l,0.40390356443822384,colour,0.5
155,22,0,2,9,30,430,653.4218452153727,654.263625887339,"[85, 0, 169]",169,l,0.3185228888178244,colour,0.5
155,22,0,2,9,31,431,654.7812563999323,655.5516926710261,"[86, 0, 168]",168,l,0.24722850625403225,colour,0.5
155,22,0,2,9,32,432,656.062333993963,656.7755980156362,"[81, 0, 173]",173,l,0.1901791369309649,colour,0.5
155,22,0,2,9,33,433,657.2826431314461,658.047537202714,"[62, 0, 192]",192,a,0.24184896482620388,colour,0.5
155,22,0,2,9,34,434,658.5637301777024,659.1355893352302,"[40, 0, 214]",214,a,0.04859467898495495,colour,0.5
155,22,0,2,9,35,435,659.641907411511,660.2555674059549,"[14, 0, 240]",240,a,0.09022301132790744,colour,0.5
155,22,0,2,9,36,436,660.7669389192015,661.5355705881957,"[66, 0, 188]",188,l,0.24530535656958818,colour,0.5
155,22,0,2,9,37,437,662.0482079222566,662.7596157481894,"[33, 0, 221]",221,a,0.18822723650373518,colour,0.5
155,22,0,2,9,38,438,663.2702216249891,663.9436146548251,"[99, 0, 155]",155,l,0.15044205263257027,colour,0.5
155,22,0,2,9,39,439,664.4533867598511,665.0635860301554,"[44, 0, 210]",210,a,0.0868414503056556,colour,0.5
155,22,0,2,9,40,440,665.5783186245244,666.2237615908962,"[21, 0, 233]",233,a,0.12003320909570903,colour,0.5
155,22,0,2,9,41,441,666.7367340878118,667.5117689038161,"[35, 0, 219]",219,a,0.2520893525797874,colour,0.5
155,22,0,2,9,42,442,668.0331456788117,668.599575670436,"[24, 0, 230]",230,a,0.04369366040918976,colour,0.5
155,22,0,2,9,43,443,669.1134540128987,669.8395499286707,"[19, 0, 235]",235,a,0.20292438473552465,colour,0.5
155,22,0,2,9,44,444,670.347757677664,671.0396185365971,"[72, 0, 182]",182,l,0.16862552496604621,colour,0.5
155,22,0,2,9,45,445,671.5508722899249,672.3515905861277,"[36, 0, 218]",218,a,0.27796148497145623,colour,0.5
155,22,0,2,9,46,446,672.8628490655683,673.6955937305465,"[54, 0, 200]",200,a,0.30940259876661,colour,0.5
155,22,0,2,9,47,447,674.206617477932,674.983617585036,"[59, 0, 195]",195,a,0.25372184393927455,colour,0.5
155,22,0,2,9,48,448,675.4898627997609,676.2235717570875,"[94, 0, 160]",160,l,0.2104299063794315,colour,0.5
155,22,0,2,9,49,449,676.739777729148,677.4715781090781,"[28, 0, 226]",226,a,0.20844334759749472,colour,0.5
155,22,0,2,9,50,450,677.9897997844964,678.775626372546,"[7, 0, 247]",247,a,0.2625014572404325,colour,0.5
155,22,0,2,10,1,451,683.1453078772174,684.0555885948706,"[36, 0, 218]",218,a,0.3867704792646691,colour,0.5
155,22,0,2,10,2,452,684.5703396999743,685.2155896818731,"[62, 0, 192]",192,l,0.12188546650577337,colour,0.5
155,22,0,2,10,3,453,685.7265161492396,686.3755663504126,"[28, 0, 226]",226,a,0.12566481193061918,colour,0.5
155,22,0,2,10,4,454,686.8827977554174,687.5115853715688,"[89, 0, 165]",165,l,0.10574644827283919,colour,0.5
155,22,0,2,10,5,455,688.0234294999391,688.6796855061548,"[88, 0, 166]",166,l,0.1337260502623394,colour,0.5
155,22,0,2,10,6,456,689.195334186079,689.8556456237566,"[44, 0, 210]",210,a,0.13697882369160652,colour,0.5
155,22,0,2,10,7,457,690.3685996099375,691.0795785376104,"[60, 0, 194]",194,a,0.18757739069405943,colour,0.5
155,22,0,2,10,8,458,691.5872542007128,692.2155538419029,"[48, 0, 206]",206,a,0.10490007349289954,colour,0.5
155,22,0,2,10,9,459,692.7279792868067,693.3919215899659,"[41, 0, 213]",213,a,0.1406687661074102,colour,0.5
155,22,0,2,10,10,460,693.8998575853184,694.5835630767979,"[46, 0, 208]",208,a,0.16068440966773778,colour,0.5
155,22,0,2,10,11,461,695.102920997655,695.7675958542386,"[93, 0, 161]",161,l,0.14132806425914168,colour,0.5
155,22,0,2,10,12,462,696.276111590676,696.8955496986164,"[6, 0, 248]",248,a,0.0965647182893008,colour,0.5
155,22,0,2,10,13,463,697.4168280122103,698.0235456845257,"[32, 0, 222]",222,a,0.08357843675184995,colour,0.5
155,22,0,2,10,14,464,698.5417476675939,700.247575090616,"[23, 0, 231]",231,a,1.1826109936228022,colour,0.5
155,22,0,2,10,15,465,700.7604680306977,701.5195875329664,"[86, 0, 168]",168,l,0.23619215574581176,colour,0.5
155,22,0,2,10,16,466,702.027356143808,703.319558309624,"[3, 0, 251]",251,a,0.7695792622398585,colour,0.5
155,22,0,2,10,17,467,703.8397129807854,704.5915612997487,"[98, 0, 156]",156,l,0.23750799510162324,colour,0.5
155,22,0,2,10,18,468,705.1121035153046,705.7595570650883,"[90, 0, 164]",164,l,0.12417646811809391,colour,0.5
155,22,0,2,10,19,469,706.2765968089225,706.8315461918246,"[45, 0, 209]",209,a,0.03186331654433161,colour,0.5
155,22,0,2,10,20,470,707.3390757380985,707.9675526099745,"[1, 0, 253]",253,a,0.10506312572397292,colour,0.5
155,22,0,2,10,21,471,708.4884855205892,709.0315718705533,"[37, 0, 217]",217,a,0.01996168668847531,colour,0.5
155,22,0,2,10,22,472,709.5508616560837,710.1116265679011,"[52, 0, 202]",202,a,0.03822156507521868,colour,0.5
155,22,0,2,10,23,473,710.6290711852489,711.239541421528,"[15, 0, 239]",239,a,0.09488772240001708,colour,0.5
155,22,0,2,10,24,474,711.7462962729624,712.3355819309363,"[34, 0, 220]",220,a,0.06637564080301672,colour,0.5
155,22,0,2,10,25,475,712.8557350267656,713.5115621347213,"[66, 0, 188]",188,l,0.12966589268762618,colour,0.5
155,22,0,2,10,26,476,714.0304757973645,714.6715510124341,"[30, 0, 224]",224,a,0.11809548712335527,colour,0.5
155,22,0,2,10,27,477,715.1868850095198,715.9275709473295,"[58, 0, 196]",196,l,0.2172993669519201,colour,0.5
155,22,0,2,10,28,478,716.4367885172833,716.9755992759019,"[82, 0, 172]",172,l,0.015551400021649897,colour,0.5
155,22,0,2,10,29,479,717.4836711480748,718.1195676831994,"[5, 0, 249]",249,a,0.11253359506372362,colour,0.5
155,22,0,2,10,30,480,718.639950784971,719.2315435924102,"[67, 0, 187]",187,l,0.06829130731057376,colour,0.5
155,22,0,2,10,31,481,719.749304468045,720.3357245031511,"[10, 0, 244]",244,a,0.06071765022352338,colour,0.5
155,22,0,2,10,32,482,720.8454339866294,721.4076061099768,"[71, 0, 183]",183,l,0.03881666634697467,colour,0.5
155,22,0,2,10,33,483,721.9235419036122,722.4561070535565,"[43, 0, 211]",211,a,0.009254591423086822,colour,0.5
155,22,0,2,10,34,484,722.9706108234823,723.5115971870255,"[49, 0, 205]",205,a,0.018127940129488707,colour,0.5
155,22,0,2,10,35,485,724.0171693190932,724.5755231061485,"[47, 0, 207]",207,a,0.034884902532212436,colour,0.5
155,22,0,2,10,36,486,725.0955265404191,726.1276064722333,"[56, 0, 198]",198,a,0.5089359700214118,colour,0.5
155,22,0,2,10,37,487,726.6435911027947,727.255558741279,"[76, 0, 178]",178,l,0.08860784920398146,colour,0.5
155,22,0,2,10,38,488,727.7685662904987,728.2956160223112,"[69, 0, 185]",185,l,0.0037604408571496606,colour,0.5
155,22,0,2,10,39,489,728.8154627059121,729.3915080517763,"[64, 0, 190]",190,l,0.05310657783411443,colour,0.5
155,22,0,2,10,40,490,729.9089530629572,730.5435152481077,"[8, 0, 246]",246,a,0.11152889404911548,colour,0.5
155,22,0,2,10,41,491,731.0496198598994,731.5995473135263,"[55, 0, 199]",199,a,0.027141497819684446,colour,0.5
155,22,0,2,10,42,492,732.1120787030086,732.7195458641509,"[91, 0, 163]",163,l,0.08410579652991146,colour,0.5
155,22,0,2,10,43,493,733.2370960322442,733.7835600047838,"[25, 0, 229]",229,a,0.022998238680884242,colour,0.5
155,22,0,2,10,44,494,734.2996108013904,734.9355116687948,"[72, 0, 182]",182,l,0.1127821117406711,colour,0.5
155,22,0,2,10,45,495,735.4416564529529,736.7435243853834,"[22, 0, 232]",232,a,0.7785262600518763,colour,0.5
155,22,0,2,10,46,496,737.2540700037498,737.9995364433853,"[51, 0, 203]",203,a,0.22200149355921894,colour,0.5
155,22,0,2,10,47,497,738.5196643329691,739.0875302867498,"[92, 0, 162]",162,l,0.05624237912707031,colour,0.5
155,22,0,2,10,48,498,739.601830044412,740.327526994166,"[85, 0, 169]",169,l,0.20295077236369252,colour,0.5
155,22,0,2,10,49,499,740.8361388291232,741.5755223184824,"[87, 0, 167]",167,l,0.21607962623238564,colour,0.5
155,22,0,2,10,50,500,742.0908937308704,742.7675478049787,"[16, 0, 238]",238,a,0.153345484752208,colour,0.5
155,22,0,2,11,1,501,747.7945286136819,748.4715139121981,"[3, 0, 251]",251,a,0.1529666050337255,colour,0.5
155,22,0,2,11,2,502,748.9827302502235,749.5355315974448,"[88, 0, 166]",166,l,0.029750333167612553,colour,0.5
155,22,0,2,11,3,503,750.0452954316279,750.7755271233618,"[20, 0, 234]",234,a,0.2069341300521046,colour,0.5
155,22,0,2,11,4,504,751.2952064224519,751.9117084090831,"[84, 0, 170]",170,l,0.09310123731847852,colour,0.5
155,22,0,2,11,5,505,752.4203604162904,753.0235192968976,"[43, 0, 211]",211,a,0.07992275897413492,colour,0.5
155,22,0,2,11,6,506,753.5318357473006,754.1755355516216,"[92, 0, 162]",162,l,0.12082444550469518,colour,0.5
155,22,0,2,11,7,507,754.6879519381328,755.655508486554,"[57, 0, 197]",197,a,0.44430664216633886,colour,0.5
155,22,0,2,11,8,508,756.1722934120335,756.8955382771092,"[62, 0, 192]",192,a,0.1999445465626195,colour,0.5
155,22,0,2,11,9,509,757.4067301966716,757.9834990374511,"[83, 0, 171]",171,l,0.05352996219880879,colour,0.5
155,22,0,2,11,10,510,758.5003595813178,759.0635222271085,"[29, 0, 225]",225,a,0.039767016540281475,colour,0.5
155,22,0,2,11,11,511,759.5785513874143,760.2395319691859,"[40, 0, 214]",214,a,0.1376704170834273,colour,0.5
155,22,0,2,11,12,512,760.7504623751156,761.4635468031047,"[9, 0, 245]",245,a,0.1882622888078913,colour,0.5
155,22,0,2,11,13,513,761.9583551260876,762.5275577929569,"[27, 0, 227]",227,a,0.04605673591140658,colour,0.5
155,22,0,2,11,14,514,763.0363693077816,763.6635086787865,"[26, 0, 228]",228,a,0.10376579721923918,colour,0.5
155,22,0,2,11,15,515,764.1770183815388,765.2635179734789,"[30, 0, 224]",224,a,0.5632319626165554,colour,0.5
155,22,0,2,11,16,516,765.78419409669,766.6074844903778,"[60, 0, 194]",194,l,0.30067024705931544,colour,0.5
155,22,0,2,11,17,517,767.1276383737568,767.7275137609104,"[13, 0, 241]",241,a,0.0765305639943108,colour,0.5
155,22,0,2,11,18,518,768.2370267153019,769.0235358383507,"[67, 0, 187]",187,l,0.2637566440971568,colour,0.5
155,22,0,2,11,19,519,769.5338845337974,770.1595268965466,"[71, 0, 183]",183,l,0.10235031496267766,colour,0.5
155,22,0,2,11,20,520,770.674508401542,771.2795108748833,"[8, 0, 246]",246,a,0.0817643825430423,colour,0.5
155,22,0,2,11,21,521,771.7995458168443,772.6235266224248,"[50, 0, 204]",204,l,0.30100422841496766,colour,0.5
155,22,0,2,11,22,522,773.1433177738218,773.8555325899506,"[51, 0, 203]",203,l,0.18895978992804885,colour,0.5
155,22,0,2,11,23,523,774.3632925361162,775.2074886651244,"[44, 0, 210]",210,l,0.32085406279657036,colour,0.5
155,22,0,2,11,24,524,775.7226793023292,776.3115234590368,"[12, 0, 242]",242,a,0.06589042267296463,colour,0.5
155,22,0,2,11,25,525,776.8316253548255,777.4235387528315,"[80, 0, 174]",174,l,0.06855794100556523,colour,0.5
155,22,0,2,11,26,526,777.9411617824808,778.4955073995516,"[98, 0, 156]",156,a,0.031081138527952135,colour,0.5
155,22,0,2,11,27,527,779.0011886269785,779.9835281820269,"[87, 0, 167]",167,l,0.4590963441878557,colour,0.5
155,22,0,2,11,28,528,780.5011811439181,781.2875508455327,"[49, 0, 205]",205,a,0.26317887229379267,colour,0.5
155,22,0,2,11,29,529,781.797932230169,782.5755294077098,"[68, 0, 186]",186,l,0.25428228673990816,colour,0.5
155,22,0,2,11,30,530,783.0948715746636,783.6795149708632,"[14, 0, 240]",240,a,0.06162979744840413,colour,0.5
155,22,0,2,11,31,531,784.1887333284831,784.9275421965867,"[54, 0, 200]",200,l,0.21560267871245742,colour,0.5
155,22,0,2,11,32,532,785.4385190763278,786.0475344457664,"[90, 0, 164]",164,l,0.08548622648231685,colour,0.5
155,22,0,2,11,33,533,786.5655477766413,787.1195263293339,"[17, 0, 237]",237,a,0.031136276898905635,colour,0.5
155,22,0,2,11,34,534,787.6280148904771,788.2715760610299,"[38, 0, 216]",216,a,0.12029944884125143,colour,0.5
155,22,0,2,11,35,535,788.7842768043047,790.4875107519329,"[47, 0, 207]",207,a,1.1802234996575862,colour,0.5
155,22,0,2,11,36,536,791.0027691306313,791.8235393041978,"[58, 0, 196]",196,l,0.2974182611797005,colour,0.5
155,22,0,2,11,37,537,792.3309184013633,793.423466285225,"[53, 0, 201]",201,l,0.5693227899027988,colour,0.5
155,22,0,2,11,38,538,793.9403520352207,794.5755250753136,"[78, 0, 176]",176,l,0.11199323844630271,colour,0.5
155,22,0,2,11,39,539,795.0965099737514,795.7754967971705,"[25, 0, 229]",229,a,0.15566326794214547,colour,0.5
155,22,0,2,11,40,540,796.2868529504631,797.015483658528,"[74, 0, 180]",180,l,0.20518072799313813,colour,0.5
155,22,0,2,11,41,541,797.5367856029188,798.0795269437367,"[18, 0, 236]",236,a,0.020123951137065887,colour,0.5
155,22,0,2,11,42,542,798.5985804217635,799.5435310020112,"[70, 0, 184]",184,l,0.4216837385902181,colour,0.5
155,22,0,2,11,43,543,800.0517938893754,800.7274720133282,"[75, 0, 179]",179,l,0.15235968853812665,colour,0.5
155,22,0,2,11,44,544,801.2428205827018,801.9835478742607,"[32, 0, 222]",222,a,0.2174084623111412,colour,0.5
155,22,0,2,11,45,545,802.4928965949221,803.1914969453355,"[33, 0, 221]",221,a,0.17531814880203456,colour,0.5
155,22,0,2,11,46,546,803.7115941150114,804.431538945064,"[11, 0, 243]",243,a,0.1966074900701642,colour,0.5
155,22,0,2,11,47,547,804.9459308626829,805.5915286105592,"[76, 0, 178]",178,l,0.12224110937677324,colour,0.5
155,22,0,2,11,48,548,806.1041624000063,806.7434885454131,"[0, 0, 254]",254,a,0.11621566058602184,colour,0.5
155,22,0,2,11,49,549,807.2605826398358,807.8474768655142,"[23, 0, 231]",231,a,0.06374435627367347,colour,0.5
155,22,0,2,11,50,550,808.354180516908,809.1755083763273,"[93, 0, 161]",161,l,0.2978648825082928,colour,0.5
155,22,0,2,12,1,551,817.9824021764798,818.9755252328468,"[15, 0, 239]",239,a,0.46925363037735224,colour,0.5
155,22,0,2,12,2,552,819.4832040468464,820.0234759737505,"[7, 0, 247]",247,a,0.017132691340520978,colour,0.5
155,22,0,2,12,3,553,820.5300272068707,821.1434548321413,"[68, 0, 186]",186,l,0.09003790374845266,colour,0.5
155,22,0,2,12,4,554,821.6550949483644,822.2314786078641,"[64, 0, 190]",190,l,0.05315895937383175,colour,0.5
155,22,0,2,12,5,555,822.7488220068626,823.3595573013881,"[13, 0, 241]",241,a,0.08791783114429563,colour,0.5
155,22,0,2,12,6,556,823.8736900684889,824.5435231250012,"[65, 0, 189]",189,l,0.14654888573568314,colour,0.5
155,22,0,2,12,7,557,825.0613123576622,825.5915510597406,"[11, 0, 243]",243,a,0.007179811131209135,colour,0.5
155,22,0,2,12,8,558,826.1081465453608,826.6955019645393,"[58, 0, 196]",196,l,0.06428628822322935,colour,0.5
155,22,0,2,12,9,559,827.2019862437155,828.5754967184039,"[20, 0, 234]",234,a,0.8502310299081728,colour,0.5
155,22,0,2,12,10,560,829.0940102336463,829.7354560578242,"[49, 0, 205]",205,l,0.1181781948544085,colour,0.5
155,22,0,2,12,11,561,830.2502374891192,831.223508741823,"[89, 0, 165]",165,l,0.4499969279859215,colour,0.5
155,22,0,2,12,12,562,831.7346427659504,832.5675292154774,"[75, 0, 179]",179,l,0.3096507217269391,colour,0.5
155,22,0,2,12,13,563,833.0783402860397,833.823455021251,"[46, 0, 208]",208,a,0.22228033642750233,colour,0.5
155,22,0,2,12,14,564,834.3297707344173,835.0875141390134,"[96, 0, 158]",158,l,0.2343540769070387,colour,0.5
155,22,0,2,12,15,565,835.5954139005626,836.3195157742593,"[78, 0, 176]",176,l,0.20071924140211195,colour,0.5
155,22,0,2,12,16,566,836.8296935405815,837.5354394374881,"[72, 0, 182]",182,l,0.18139322206843644,colour,0.5
155,22,0,2,12,17,567,838.0494686230086,838.663486229605,"[79, 0, 175]",175,l,0.09089727560058236,colour,0.5
155,22,0,2,12,18,568,839.1744339646539,839.9435087102465,"[21, 0, 233]",233,a,0.24567754101008177,colour,0.5
155,22,0,2,12,19,569,840.4556580692297,841.1754634778481,"[83, 0, 171]",171,l,0.1964424685575068,colour,0.5
155,22,0,2,12,20,570,841.6902886260068,842.4875753427623,"[45, 0, 209]",209,a,0.2739690690068528,colour,0.5
155,22,0,2,12,21,571,843.0036808839068,843.5834819445154,"[51, 0, 203]",203,a,0.05682290799450129,colour,0.5
155,22,0,2,12,22,572,844.0974867115729,845.0234625830781,"[36, 0, 218]",218,a,0.4027369929244742,colour,0.5
155,22,0,2,12,23,573,845.5349565823562,846.3114777728915,"[53, 0, 201]",201,a,0.2508826086996123,colour,0.5
155,22,0,2,12,24,574,846.81846026727,847.5194867084501,"[40, 0, 214]",214,a,0.17766743968240917,colour,0.5
155,22,0,2,12,25,575,848.0371798425913,848.775464501814,"[18, 0, 236]",236,a,0.2155648695770651,colour,0.5
155,22,0,2,12,26,576,849.2872747594956,850.8634642529069,"[42, 0, 212]",212,a,1.0528395503060892,colour,0.5
155,22,0,2,12,27,577,851.3803054983728,852.1594630934997,"[82, 0, 172]",172,l,0.2558521565515548,colour,0.5
155,22,0,2,12,28,578,852.6788540973794,853.4316165327327,"[37, 0, 217]",217,a,0.2294495137175545,colour,0.5
155,22,0,2,12,29,579,853.9408518256387,854.6634980449453,"[74, 0, 180]",180,l,0.1992371992673725,colour,0.5
155,22,0,2,12,30,580,855.1639230046421,855.823486528825,"[28, 0, 226]",226,a,0.13722852198407054,colour,0.5
155,22,0,2,12,31,581,856.3356441586511,857.1274355431087,"[22, 0, 232]",232,a,0.2682701183948666,colour,0.5
155,22,0,2,12,32,582,857.6482215493452,858.3435210770695,"[2, 0, 252]",252,a,0.1719062615884468,colour,0.5
155,22,0,2,12,33,583,858.8512329739751,859.5434735004092,"[62, 0, 192]",192,l,0.1692564660916105,colour,0.5
155,22,0,2,12,34,584,860.0546047677053,860.719556497992,"[77, 0, 177]",177,l,0.14196727611124516,colour,0.5
155,22,0,2,12,35,585,861.2279158775927,862.0954221712891,"[44, 0, 210]",210,a,0.3442422089865431,colour,0.5
155,22,0,2,12,36,586,862.6029143022606,863.351458253921,"[1, 0, 253]",253,a,0.2252207900164649,colour,0.5
155,22,0,2,12,37,587,863.8684105639113,864.5114416178549,"[24, 0, 230]",230,a,0.11965944932308048,colour,0.5
155,22,0,2,12,38,588,865.0247063484276,865.7434668838978,"[92, 0, 162]",162,l,0.195439736940898,colour,0.5
155,22,0,2,12,39,589,866.2612978640245,867.1194924586453,"[90, 0, 164]",164,l,0.3348769467556849,colour,0.5
155,22,0,2,12,40,590,867.6362880179659,868.3034567068098,"[50, 0, 204]",204,a,0.1437647888669744,colour,0.5
155,22,0,2,12,41,591,868.8237657656427,869.5754545769887,"[0, 0, 254]",254,a,0.22847316972911358,colour,0.5
155,22,0,2,12,42,592,870.0893447349081,870.6874222153565,"[93, 0, 161]",161,l,0.07478267571423203,colour,0.5
155,22,0,2,12,43,593,871.1987578887492,872.5994429442799,"[47, 0, 207]",207,a,0.8775410938542336,colour,0.5
155,22,0,2,12,44,594,873.1206393379252,873.9114858860848,"[27, 0, 227]",227,a,0.26749739272054285,colour,0.5
155,22,0,2,12,45,595,874.4331466241274,875.0554649272235,"[73, 0, 181]",181,l,0.09935432905331254,colour,0.5
155,22,0,2,12,46,596,875.5737452856265,876.3034803376067,"[84, 0, 170]",170,l,0.20441745466087013,colour,0.5
155,22,0,2,12,47,597,876.8101127028931,877.5834433475975,"[5, 0, 249]",249,a,0.24996494769584388,colour,0.5
155,22,0,2,12,48,598,878.0914789859671,878.7274613794871,"[55, 0, 199]",199,a,0.11261748429387808,colour,0.5
155,22,0,2,12,49,599,879.2476227460429,879.9514624286676,"[19, 0, 235]",235,a,0.18044641648884863,colour,0.5
155,22,0,2,12,50,600,880.4665317613399,881.0315001906129,"[86, 0, 168]",168,l,0.042039507534354925,colour,0.5
155,22,0,2,13,1,601,891.8641085848212,892.6154846824938,"[83, 0, 171]",171,l,0.22740663483273238,colour,0.5
155,22,0,2,13,2,602,893.130503602908,893.7755145202391,"[26, 0, 228]",228,a,0.1217401372268796,colour,0.5
155,22,0,2,13,3,603,894.294335629209,894.8874778264435,"[25, 0, 229]",229,a,0.0699088325491175,colour,0.5
155,22,0,2,13,4,604,895.4036570169264,896.223444544943,"[77, 0, 177]",177,l,0.29648563417140394,colour,0.5
155,22,0,2,13,5,605,896.7371940998128,897.3994286870584,"[11, 0, 243]",243,a,0.13930133311077952,colour,0.5
155,22,0,2,13,6,606,897.9090735798236,898.6154543564189,"[21, 0, 233]",233,a,0.1830804580822587,colour,0.5
155,22,0,2,13,7,607,899.127836084459,899.9195270382334,"[48, 0, 206]",206,l,0.2683969368226826,colour,0.5
155,22,0,2,13,8,608,900.4263937419746,901.0554330257,"[86, 0, 168]",168,l,0.10574172216001898,colour,0.5
155,22,0,2,13,9,609,901.567013671156,902.2394551692996,"[0, 0, 254]",254,a,0.1490994319319725,colour,0.5
155,22,0,2,13,10,610,902.7545567973284,903.3914312517736,"[54, 0, 200]",200,l,0.11405738489702344,colour,0.5
155,22,0,2,13,11,611,903.910487486748,904.5034307917813,"[76, 0, 178]",178,l,0.06965086341369897,colour,0.5
155,22,0,2,13,12,612,905.0199077297002,905.8554628791753,"[29, 0, 225]",225,a,0.3122130832634866,colour,0.5
155,22,0,2,13,13,613,906.3650636612438,907.0394964442821,"[15, 0, 239]",239,a,0.15117972600273788,colour,0.5
155,22,0,2,13,14,614,907.5524965105578,908.2234248525929,"[33, 0, 221]",221,a,0.14752326055895537,colour,0.5
155,22,0,2,13,15,615,908.740050270455,909.5194666223833,"[59, 0, 195]",195,a,0.2562070117564872,colour,0.5
155,22,0,2,13,16,616,910.0369116335642,910.7034292952158,"[62, 0, 192]",192,l,0.1438939704094082,colour,0.5
155,22,0,2,13,17,617,911.224348815158,912.0394578474807,"[93, 0, 161]",161,l,0.29176184616517276,colour,0.5
155,22,0,2,13,18,618,912.5538470081519,913.2394390215632,"[56, 0, 198]",198,a,0.16224994719959795,colour,0.5
155,22,0,2,13,19,619,913.7569691035897,914.4794302152004,"[44, 0, 210]",210,a,0.19921120535582304,colour,0.5
155,22,0,2,13,20,620,914.9912857650779,915.7674056265969,"[92, 0, 162]",162,l,0.2527840967522934,colour,0.5
155,22,0,2,13,21,621,916.2882207774092,916.8394593440462,"[97, 0, 157]",157,l,0.02797211881261319,colour,0.5
155,22,0,2,13,22,622,917.3507434235653,918.0954265035689,"[66, 0, 188]",188,l,0.22171122895088047,colour,0.5
155,22,0,2,13,23,623,918.6032096866984,919.2394472924061,"[22, 0, 232]",232,a,0.11298061022534966,colour,0.5
155,22,0,2,13,24,624,919.7594129175413,920.4714816168416,"[81, 0, 173]",173,l,0.18877350084949285,colour,0.5
155,22,0,2,13,25,625,920.9782203205395,921.6074305333896,"[89, 0, 165]",165,l,0.1060044172918424,colour,0.5
155,22,0,2,13,26,626,922.1187307606451,922.8554467315553,"[72, 0, 182]",182,l,0.21345582464709878,colour,0.5
155,22,0,2,13,27,627,923.3687500590459,923.9198216350051,"[68, 0, 186]",186,l,0.028106814133934677,colour,0.5
155,22,0,2,13,28,628,924.4325838182122,925.0954907004489,"[3, 0, 251]",251,a,0.13980978808831424,colour,0.5
155,22,0,2,13,29,629,925.6045089843683,926.1434721613768,"[84, 0, 170]",170,l,0.027692882111296058,colour,0.5
155,22,0,2,13,30,630,926.6549799453933,927.8473894316703,"[42, 0, 212]",212,a,0.6691497339634225,colour,0.5
155,22,0,2,13,31,631,928.3580953453202,929.0314241783926,"[19, 0, 235]",235,a,0.1504121203906834,colour,0.5
155,22,0,2,13,32,632,929.5508277853951,930.2715756671969,"[50, 0, 204]",204,l,0.20092561666388065,colour,0.5
155,22,0,2,13,33,633,930.7819661103422,931.4314121266361,"[99, 0, 155]",155,l,0.12610276858322322,colour,0.5
155,22,0,2,13,34,634,931.9383733533323,932.5275282544317,"[18, 0, 236]",236,a,0.06626615161076188,colour,0.5
155,22,0,2,13,35,635,933.0477475164225,933.6314133870183,"[1, 0, 253]",253,a,0.0611331578111276,colour,0.5
155,22,0,2,13,36,636,934.1414544887375,935.1754437856143,"[96, 0, 158]",158,l,0.51097372896038,colour,0.5
155,22,0,2,13,37,637,935.6883670517709,936.3834511457244,"[27, 0, 227]",227,a,0.16971175197977573,colour,0.5
155,22,0,2,13,38,638,936.8935970105231,937.4554477555212,"[87, 0, 167]",167,l,0.03852837102022022,colour,0.5
155,22,0,2,13,39,639,937.9717226505745,940.3354145464255,"[57, 0, 197]",197,l,1.8403072942746803,colour,0.5
155,22,0,2,13,40,640,940.8454623435391,941.3914458240615,"[7, 0, 247]",247,a,0.022647321922704577,colour,0.5
155,22,0,2,13,41,641,941.9080334327882,942.5674744709395,"[70, 0, 184]",184,l,0.13613717502448708,colour,0.5
155,22,0,2,13,42,642,943.0798333558487,943.607398238033,"[47, 0, 207]",207,a,0.004251566715538502,colour,0.5
155,22,0,2,13,43,643,944.1266777835554,944.8153922074707,"[32, 0, 222]",222,a,0.16527704696636647,colour,0.5
155,22,0,2,13,44,644,945.3313760503661,946.1354298276128,"[58, 0, 196]",196,l,0.28083537868224084,colour,0.5
155,22,0,2,13,45,645,946.6436872011982,947.26344826282,"[17, 0, 237]",237,a,0.09684946900233626,colour,0.5
155,22,0,2,13,46,646,947.784396139672,948.6794031185564,"[24, 0, 230]",230,a,0.37203118938487023,colour,0.5
155,22,0,2,13,47,647,949.1903595182812,949.9994454649277,"[16, 0, 238]",238,a,0.2858131972607225,colour,0.5
155,22,0,2,13,48,648,950.518546598265,951.1994494821411,"[79, 0, 175]",175,l,0.1576198945986107,colour,0.5
155,22,0,2,13,49,649,951.7060070167063,952.335432269494,"[10, 0, 244]",244,a,0.1060603434452787,colour,0.5
155,22,0,2,13,50,650,952.8465997705935,953.4394465833902,"[4, 0, 250]",250,a,0.06954137422144413,colour,0.5
155,22,0,2,14,1,651,969.3062707359204,969.8715050112223,"[15, 0, 239]",239,a,0.04145622160285711,colour,0.5
155,22,0,2,14,2,652,970.3852770153899,971.2793852379546,"[50, 0, 204]",204,l,0.3708642239216715,colour,0.5
155,22,0,2,14,3,653,971.7913802093826,972.5114175932249,"[54, 0, 200]",200,l,0.1967157976469025,colour,0.5
155,22,0,2,14,4,654,973.02581384324,973.6874828677392,"[71, 0, 183]",183,l,0.13835373986512423,colour,0.5
155,22,0,2,14,5,655,974.1976968677482,975.0313591937302,"[87, 0, 167]",167,l,0.3103041120339185,colour,0.5
155,22,0,2,14,6,656,975.5427854516311,976.2393791570794,"[4, 0, 250]",250,a,0.17328629770781845,colour,0.5
155,22,0,2,14,7,657,976.7459906485165,977.5993933196878,"[49, 0, 205]",205,l,0.3301614294759929,colour,0.5
155,22,0,2,14,8,658,978.1209784392267,978.8714502666844,"[65, 0, 189]",189,l,0.22711991507094353,colour,0.5
155,22,0,2,14,9,659,979.3865176300751,980.0236000352306,"[36, 0, 218]",218,a,0.1137415204429999,colour,0.5
155,22,0,2,14,10,660,980.5427992362529,981.2154849187937,"[68, 0, 186]",186,l,0.14940111781470478,colour,0.5
155,22,0,2,14,11,661,981.7317267308244,982.3753906951752,"[38, 0, 216]",216,a,0.12038215657230467,colour,0.5
155,22,0,2,14,12,662,982.8880646568723,983.5674256340135,"[62, 0, 192]",192,l,0.15621307701803744,colour,0.5
155,22,0,2,14,13,663,984.075466786162,984.6873946462292,"[24, 0, 230]",230,a,0.08859091380145401,colour,0.5
155,22,0,2,14,14,664,985.2005676106783,985.7273893055972,"[85, 0, 169]",169,l,0.0035639116540551186,colour,0.5
155,22,0,2,14,15,665,986.2473494169535,986.7997013860149,"[83, 0, 171]",171,l,0.029030776699073613,colour,0.5
155,22,0,2,14,16,666,987.3112387084402,987.9433897688286,"[3, 0, 251]",251,a,0.10882435424719006,colour,0.5
155,22,0,2,14,17,667,988.4518267360982,989.1913921822561,"[93, 0, 161]",161,l,0.21685235190670937,colour,0.5
155,22,0,2,14,18,668,989.7018452468328,990.3753702151589,"[6, 0, 248]",248,a,0.15018841589335352,colour,0.5
155,22,0,2,14,19,669,990.8892745515332,991.583346855361,"[37, 0, 217]",217,a,0.17061365919653326,colour,0.5
155,22,0,2,14,20,670,992.0924943207065,992.8313874718733,"[52, 0, 202]",202,a,0.21562512801028788,colour,0.5
155,22,0,2,14,21,671,993.3438349722419,993.927418135223,"[13, 0, 241]",241,a,0.06023715832270682,colour,0.5
155,22,0,2,14,22,672,994.4375592737924,995.1753878594609,"[58, 0, 196]",196,l,0.21441877796314657,colour,0.5
155,22,0,2,14,23,673,995.6875057107536,996.3433710217942,"[70, 0, 184]",184,l,0.1324728325707838,colour,0.5
155,22,0,2,14,24,674,996.8594013383845,997.6393895545043,"[57, 0, 197]",197,l,0.25663984834682196,colour,0.5
155,22,0,2,14,25,675,998.1562571877148,998.9193974629743,"[94, 0, 160]",160,l,0.2397678829729557,colour,0.5
155,22,0,2,14,26,676,999.438999568345,1000.1757344438229,"[41, 0, 213]",213,a,0.21352002152707428,colour,0.5
155,22,0,2,14,27,677,1000.6896919494029,1001.255406322889,"[9, 0, 245]",245,a,0.04716423049103469,colour,0.5
155,22,0,2,14,28,678,1001.763083167607,1002.3433619632851,"[88, 0, 166]",166,l,0.05380722973495722,colour,0.5
155,22,0,2,14,29,679,1002.8604548762087,1003.4953908211319,"[10, 0, 244]",244,a,0.11178686318453401,colour,0.5
155,22,0,2,14,30,680,1004.0164682733594,1004.6233860193752,"[16, 0, 238]",238,a,0.0823295513400808,colour,0.5
155,22,0,2,14,31,681,1005.1427785987034,1005.7833457526285,"[20, 0, 234]",234,a,0.11717900773510337,colour,0.5
155,22,0,2,14,32,682,1006.2990263340762,1007.1034712004475,"[44, 0, 210]",210,a,0.28125088615342975,colour,0.5
155,22,0,2,14,33,683,1007.6114261002513,1008.6314007838955,"[19, 0, 235]",235,a,0.4957657625200227,colour,0.5
155,22,0,2,14,34,684,1009.1436167028733,1009.6714958740631,"[8, 0, 246]",246,a,0.004679677193053067,colour,0.5
155,22,0,2,14,35,685,1010.206010955153,1010.7993437738623,"[21, 0, 233]",233,a,0.06979343562852591,colour,0.5
155,22,0,2,14,36,686,1011.3173244155478,1012.0553514995845,"[77, 0, 177]",177,l,0.2146787162637338,colour,0.5
155,22,0,2,14,37,687,1012.5672791233519,1013.2073634221451,"[35, 0, 219]",219,a,0.1167729526059702,colour,0.5
155,22,0,2,14,38,688,1013.7235276463907,1014.2794183210935,"[32, 0, 222]",222,a,0.0325868115760386,colour,0.5
155,22,0,2,14,39,689,1014.7859979110071,1015.7993693739409,"[0, 0, 254]",254,a,0.49011683044955134,colour,0.5
155,22,0,2,14,40,690,1016.3172566740541,1016.8633681545034,"[61, 0, 193]",193,l,0.022825340274721384,colour,0.5
155,22,0,2,14,41,691,1017.3813704577042,1018.2714055257384,"[73, 0, 181]",181,l,0.36736687214579433,colour,0.5
155,22,0,2,14,42,692,1018.787596925511,1019.7914081724593,"[74, 0, 180]",180,l,0.48042388854082674,colour,0.5
155,22,0,2,14,43,693,1020.3031900731148,1020.9353474350646,"[23, 0, 231]",231,a,0.1090551478555426,colour,0.5
155,22,0,2,14,44,694,1021.443791491678,1022.0874172529439,"[31, 0, 223]",223,a,0.12032859353348613,colour,0.5
155,22,0,2,14,45,695,1022.6000364701031,1023.4073575931834,"[48, 0, 206]",206,l,0.28407515527214855,colour,0.5
155,22,0,2,14,46,696,1023.9282180361915,1024.8153370690998,"[84, 0, 170]",170,l,0.3638147758319974,colour,0.5
155,22,0,2,14,47,697,1025.3344704977935,1026.1833384271013,"[90, 0, 164]",164,l,0.325907499762252,colour,0.5
155,22,0,2,14,48,698,1026.6951770415762,1027.4713870937703,"[72, 0, 182]",182,l,0.2528849213849753,colour,0.5
155,22,0,2,14,49,699,1027.9920254077297,1028.535350034479,"[92, 0, 162]",162,l,0.01995538512710482,colour,0.5
155,22,0,2,14,50,700,1029.0546709338669,1029.8074873259757,"[99, 0, 155]",155,l,0.22963422734756023,colour,0.5
155,22,0,2,15,1,701,1057.2160552077694,1057.9593322578585,"[92, 0, 162]",162,l,0.2192989228060469,colour,0.5
155,22,0,2,15,2,702,1058.4668677118607,1059.0153655047761,"[2, 0, 252]",252,a,0.025338865001685917,colour,0.5
155,22,0,2,15,3,703,1059.5293312810827,1060.9033265801845,"[90, 0, 164]",164,l,0.8507091589272022,colour,0.5
155,22,0,2,15,4,704,1061.4199173395755,1062.143709256663,"[81, 0, 173]",173,l,0.20048805396072567,colour,0.5
155,22,0,2,15,5,705,1062.6565155505668,1065.0553357457975,"[10, 0, 244]",244,a,1.8755312982248142,colour,0.5
155,22,0,2,15,6,706,1065.562834178214,1066.2553433076246,"[42, 0, 212]",212,a,0.16931475535966456,colour,0.5
155,22,0,2,15,7,707,1066.7658834120957,1067.5193335023941,"[56, 0, 198]",198,l,0.23027934704441577,colour,0.5
155,22,0,2,15,8,708,1068.0313123260858,1068.839344341075,"[72, 0, 182]",182,l,0.28495303785894066,colour,0.5
155,22,0,2,15,9,709,1069.3596096829278,1069.999319040333,"[77, 0, 177]",177,l,0.11632081738207489,colour,0.5
155,22,0,2,15,10,710,1070.5158924706047,1071.0873443915043,"[25, 0, 229]",229,a,0.048333559185266495,colour,0.5
155,22,0,2,15,11,711,1071.5952658144524,1072.1917360097868,"[39, 0, 215]",215,a,0.07313049223739654,colour,0.5
155,22,0,2,15,12,712,1072.7047049620887,1073.2313691186719,"[29, 0, 225]",225,a,0.0033484779996797442,colour,0.5
155,22,0,2,15,13,713,1073.7515537221916,1074.32733361586,"[79, 0, 175]",175,l,0.05244964291341603,colour,0.5
155,22,0,2,15,14,714,1074.8452713283477,1075.463390446268,"[88, 0, 166]",166,l,0.09480028867255896,colour,0.5
155,22,0,2,15,15,715,1075.9703646698035,1076.527356143808,"[38, 0, 216]",216,a,0.03286565444432199,colour,0.5
155,22,0,2,15,16,716,1077.0491500017233,1077.7193422458367,"[70, 0, 184]",184,l,0.1475004175445065,colour,0.5
155,22,0,2,15,17,717,1078.236487146467,1079.0953181959921,"[63, 0, 191]",191,l,0.3353255372494459,colour,0.5
155,22,0,2,15,18,718,1079.6027378592407,1080.511314405594,"[83, 0, 171]",171,l,0.39113429200369865,colour,0.5
155,22,0,2,15,19,719,1081.0190483579645,1081.6553576436127,"[30, 0, 224]",224,a,0.11425785254687071,colour,0.5
155,22,0,2,15,20,720,1082.174080684781,1083.2313328848686,"[28, 0, 226]",226,a,0.534008989110589,colour,0.5
155,22,0,2,15,21,721,1083.752140158671,1084.4873799951747,"[45, 0, 209]",209,a,0.2122120592975989,colour,0.5
155,22,0,2,15,22,722,1085.0022063248325,1085.6713938679313,"[76, 0, 178]",178,l,0.1459396060090512,colour,0.5
155,22,0,2,15,23,723,1086.1895694633713,1086.7433274623472,"[1, 0, 253]",253,a,0.030263514374382794,colour,0.5
155,22,0,2,15,24,724,1087.2521437032847,1088.327309197397,"[6, 0, 248]",248,a,0.5518490278627723,colour,0.5
155,22,0,2,15,25,725,1088.8458695802838,1089.7514434453333,"[23, 0, 231]",231,a,0.38087933196220547,colour,0.5
155,22,0,2,15,26,726,1090.2690664748661,1091.0153099724557,"[17, 0, 237]",237,a,0.2233468710910529,colour,0.5
155,22,0,2,15,27,727,1091.5344674257794,1092.27134329814,"[41, 0, 213]",213,a,0.21378429210744798,colour,0.5
155,22,0,2,15,28,728,1092.7841212352505,1093.4633038000902,"[65, 0, 189]",189,l,0.15621110773645341,colour,0.5
155,22,0,2,15,29,729,1093.971730133635,1094.5193937608274,"[18, 0, 236]",236,a,0.024454287136904895,colour,0.5
155,22,0,2,15,30,730,1095.0364398061065,1095.7033221691381,"[13, 0, 241]",241,a,0.14431420399341732,colour,0.5
155,22,0,2,15,31,731,1096.2238860462094,1096.8793681451352,"[57, 0, 197]",197,l,0.1321305804885924,colour,0.5
155,22,0,2,15,32,732,1097.3958872245857,1097.9753105868585,"[9, 0, 245]",245,a,0.05633532674983144,colour,0.5
155,22,0,2,15,33,733,1098.4894492615713,1099.1913579177344,"[24, 0, 230]",230,a,0.1784263807348907,colour,0.5
155,22,0,2,15,34,734,1099.7083157415036,1100.2473435092252,"[89, 0, 165]",165,l,0.015720359981060028,colour,0.5
155,22,0,2,15,35,735,1100.7552188523114,1101.4232729068026,"[37, 0, 217]",217,a,0.14329177991021425,colour,0.5
155,22,0,2,15,36,736,1101.944299946772,1102.5993322735885,"[67, 0, 187]",187,l,0.13172491907607764,colour,0.5
155,22,0,2,15,37,737,1103.1161187744,1103.8153217090294,"[48, 0, 206]",206,l,0.17607433290686458,colour,0.5
155,22,0,2,15,38,738,1104.3347989652539,1105.11135914654,"[51, 0, 203]",203,l,0.25320984434802085,colour,0.5
155,22,0,2,15,39,739,1105.6317178298486,1106.3993069886928,"[7, 0, 247]",247,a,0.24427978182211518,colour,0.5
155,22,0,2,15,40,740,1106.912952962215,1107.5913179029012,"[78, 0, 176]",176,l,0.15506737912073731,colour,0.5
155,22,0,2,15,41,741,1108.100479152985,1109.0713380994275,"[49, 0, 205]",205,a,0.44760155712720007,colour,0.5
155,22,0,2,15,42,742,1109.584760762169,1110.127302029403,"[91, 0, 163]",163,l,0.01916533021721989,colour,0.5
155,22,0,2,15,43,743,1110.6473235806916,1111.3433469971642,"[21, 0, 233]",233,a,0.17270970717072487,colour,0.5
155,22,0,2,15,44,744,1111.850534685189,1112.4552961247973,"[73, 0, 181]",181,l,0.0814390656305477,colour,0.5
155,22,0,2,15,45,745,1112.9754444945138,1113.7353438116843,"[64, 0, 190]",190,l,0.23658442636951804,colour,0.5
155,22,0,2,15,46,746,1114.2526277399156,1114.9513230072334,"[69, 0, 185]",185,l,0.17547017324250191,colour,0.5
155,22,0,2,15,47,747,1115.471324866172,1116.1433012322523,"[87, 0, 167]",167,l,0.1485307184047997,colour,0.5
155,22,0,2,15,48,748,1116.6641270169057,1117.311297785258,"[68, 0, 186]",186,l,0.12678648508153856,colour,0.5
155,22,0,2,15,49,749,1117.8175197631354,1118.359313116991,"[4, 0, 250]",250,a,0.018488309113308787,colour,0.5
155,22,0,2,15,50,750,1118.8799025940243,1119.5113266148837,"[58, 0, 196]",196,l,0.10911343712359667,colour,0.5
155,22,0,2,16,1,751,1154.5584112885408,1155.6074135981034,"[65, 0, 189]",189,l,0.5391100815031677,colour,0.5
155,22,0,2,16,2,752,1156.1231193856802,1156.7912758402526,"[23, 0, 231]",231,a,0.14487188984639943,colour,0.5
155,22,0,2,16,3,753,1157.3106247026008,1157.9273240059847,"[13, 0, 241]",241,a,0.0935348616912961,colour,0.5
155,22,0,2,16,4,754,1158.4356420318363,1159.3512499093777,"[16, 0, 238]",238,a,0.39239026664290577,colour,0.5
155,22,0,2,16,5,755,1159.8575727117714,1160.3833038473967,"[6, 0, 248]",248,a,0.002643493819050491,colour,0.5
155,22,0,2,16,6,756,1160.9043840564555,1161.5113037717529,"[18, 0, 236]",236,a,0.08359773526899517,colour,0.5
155,22,0,2,16,7,757,1162.0293702718336,1162.7113314197632,"[93, 0, 161]",161,l,0.15871321083977818,colour,0.5
155,22,0,2,16,8,758,1163.2324581026332,1163.8153051675763,"[96, 0, 158]",158,l,0.059620789368636906,colour,0.5
155,22,0,2,16,9,759,1164.3267345761415,1164.8713104514172,"[67, 0, 187]",187,l,0.021390953566879034,colour,0.5
155,22,0,2,16,10,760,1165.389055967098,1165.9433251781156,"[42, 0, 212]",212,a,0.030799144878983498,colour,0.5
155,22,0,2,16,11,761,1166.4537278304342,1167.0392467459897,"[92, 0, 162]",162,l,0.06216188322287053,colour,0.5
155,22,0,2,16,12,762,1167.547529325704,1168.1112713188631,"[37, 0, 217]",217,a,0.040540923713706434,colour,0.5
155,22,0,2,16,13,763,1168.6256746579893,1169.287271214882,"[32, 0, 222]",222,a,0.1390654193237424,colour,0.5
155,22,0,2,16,14,764,1169.7975261749234,1170.935274573625,"[71, 0, 183]",183,l,0.613226370071061,colour,0.5
155,22,0,2,16,15,765,1171.4552023895085,1172.0472630859585,"[55, 0, 199]",199,a,0.06882930092979223,colour,0.5
155,22,0,2,16,16,766,1172.5645143250003,1173.2152753927512,"[20, 0, 234]",234,a,0.1274079738650471,colour,0.5
155,22,0,2,16,17,767,1173.7364079833496,1174.343271378777,"[10, 0, 244]",244,a,0.08354692917782813,colour,0.5
155,22,0,2,16,18,768,1174.86141546641,1175.9272885598475,"[88, 0, 166]",166,l,0.5426779317203909,colour,0.5
155,22,0,2,16,19,769,1176.4414926130557,1177.0632945841644,"[30, 0, 224]",224,a,0.09856072952970862,colour,0.5
155,22,0,2,16,20,770,1177.5821649237769,1178.16726557503,"[50, 0, 204]",204,a,0.062001588055863976,colour,0.5
155,22,0,2,16,21,771,1178.675888043712,1179.2952454132028,"[81, 0, 173]",173,l,0.0970133087830618,colour,0.5
155,22,0,2,16,22,772,1179.8155398997478,1180.4312604960287,"[44, 0, 210]",210,a,0.09256048686802387,colour,0.5
155,22,0,2,16,23,773,1180.9405383242993,1181.8872899619164,"[90, 0, 164]",164,l,0.42354229744523764,colour,0.5
155,22,0,2,16,24,774,1182.3959738706471,1183.3112962099258,"[80, 0, 174]",174,l,0.39206061756704,colour,0.5
155,22,0,2,16,25,775,1183.8179191229865,1184.5672858187463,"[61, 0, 193]",193,l,0.22615696187131107,colour,0.5
155,22,0,2,16,26,776,1185.0834965168033,1185.751260306919,"[48, 0, 206]",206,a,0.1446221914375201,colour,0.5
155,22,0,2,16,27,777,1186.2709419691237,1186.9032875894336,"[97, 0, 157]",157,l,0.10992633504793048,colour,0.5
155,22,0,2,16,28,778,1187.411610341398,1188.1672836919315,"[72, 0, 182]",182,l,0.2324029642622918,colour,0.5
155,22,0,2,16,29,779,1188.677087698481,1189.295280071674,"[49, 0, 205]",205,a,0.09482707013376057,colour,0.5
155,22,0,2,16,30,780,1189.8124619938899,1190.4072662208928,"[33, 0, 221]",221,a,0.07154132390860468,colour,0.5
155,22,0,2,16,31,781,1190.9218775107292,1191.823278578231,"[45, 0, 209]",209,a,0.37815116124693304,colour,0.5
155,22,0,2,16,32,782,1192.3349505959777,1192.9512540841242,"[76, 0, 178]",178,l,0.09308351424988359,colour,0.5
155,22,0,2,16,33,783,1193.459972257493,1194.127278792439,"[75, 0, 179]",179,l,0.14798445405904204,colour,0.5
155,22,0,2,16,34,784,1194.6435643213335,1195.2553200706607,"[85, 0, 169]",169,l,0.08851884002797306,colour,0.5
155,22,0,2,16,35,785,1195.7684245060664,1196.4152896499727,"[68, 0, 186]",186,l,0.12543362425640225,colour,0.5
155,22,0,2,16,36,786,1196.922947983956,1197.495271485881,"[54, 0, 200]",200,a,0.04902790952473879,colour,0.5
155,22,0,2,16,37,787,1198.0166588947177,1198.9112448524684,"[35, 0, 219]",219,a,0.37129469763021916,colour,0.5
155,22,0,2,16,38,788,1199.4228782731807,1200.143231127644,"[70, 0, 184]",184,l,0.19685955136083066,colour,0.5
155,22,0,2,16,39,789,1200.6573375070002,1201.2313179187477,"[39, 0, 215]",215,a,0.05067536700516939,colour,0.5
155,22,0,2,16,40,790,1201.751032663975,1202.3193093989976,"[19, 0, 235]",235,a,0.04494333337061107,colour,0.5
155,22,0,2,16,41,791,1202.8292721254984,1203.383265644312,"[34, 0, 220]",220,a,0.027423097635619342,colour,0.5
155,22,0,2,16,42,792,1203.8953421418555,1204.5032980657415,"[40, 0, 214]",214,a,0.0848564668558538,colour,0.5
155,22,0,2,16,43,793,1205.0201460064854,1205.6712894988013,"[0, 0, 254]",254,a,0.12781993683893234,colour,0.5
155,22,0,2,16,44,794,1206.1894387064967,1206.9192808845546,"[63, 0, 191]",191,l,0.20642646262422204,colour,0.5
155,22,0,2,16,45,795,1207.4395044788253,1208.087251049932,"[94, 0, 160]",160,l,0.12464790174271911,colour,0.5
155,22,0,2,16,46,796,1208.5957734818803,1209.1752334717894,"[26, 0, 228]",228,l,0.056160065229050815,colour,0.5
155,22,0,2,16,47,797,1209.68948281731,1210.319340512855,"[98, 0, 156]",156,l,0.10637423873413354,colour,0.5
155,22,0,2,16,48,798,1210.8301637925906,1211.5912808814319,"[29, 0, 225]",225,a,0.23812830238603055,colour,0.5
155,22,0,2,16,49,799,1212.1133760315133,1212.6953239460709,"[5, 0, 249]",249,a,0.05861490685492754,colour,0.5
155,22,0,2,16,50,800,1213.2072039145278,1214.0872475053184,"[62, 0, 192]",192,l,0.3567747799679637,colour,0.5
