id,age,condition,counterbalance,block,trialinblock,trial,tstart,tend,trialstim,trialintensity,response,RT,trialtype,colourfreq
015,62,1,2,Practice,1,NA,5.907611921429634e-06,1.667541792965494,"[57, 0, 197]",197,a,1.146667942753993,colour,0.5
015,62,1,2,Practice,2,NA,2.17723946867045,3.1475694567197934,"[19, 0, 235]",235,a,0.45212483988143504,colour,0.5
015,62,1,2,Practice,3,NA,3.6565046461764723,4.507504346081987,"[56, 0, 198]",198,a,0.3333612964488566,colour,0.5
015,62,1,2,Practice,4,NA,5.016624643234536,5.580587634234689,"[31, 0, 223]",223,a,0.045861030579544604,colour,0.5
015,62,1,2,Practice,5,NA,6.0906523746671155,7.531531723099761,"[95, 0, 159]",159,l,0.9243299297522753,colour,0.5
015,62,1,2,Practice,6,NA,8.040991515736096,8.62754631426651,"[71, 0, 183]",183,a,0.06965721980668604,colour,0.5
015,62,1,2,Practice,7,NA,9.137072273064405,10.587511450983584,"[3, 0, 251]",251,a,0.9306424970272928,colour,0.5
015,62,1,2,Practice,8,NA,11.098320954712108,11.80360739515163,"[10, 0, 244]",244,a,0.18578396271914244,colour,0.5
015,62,1,2,Practice,9,NA,12.312869870802388,12.97955898672808,"[28, 0, 226]",226,a,0.14601021958515048,colour,0.5
015,62,1,2,Practice,10,NA,13.48873205925338,14.09156097797677,"[76, 0, 178]",178,l,0.08604004152584821,colour,0.5
015,62,1,2,1,1,1,5.268168717506342,5.967973212245852,"[73, 0, 181]",181,l,0.18102708796504885,colour,0.5
015,62,1,2,1,2,2,6.477136438596062,10.864017105544917,"[57, 0, 197]",197,a,3.8698590266285464,colour,0.5
015,62,1,2,1,3,3,11.372933784266934,12.135990771465003,"[34, 0, 220]",220,a,0.24455094046425074,colour,0.5
015,62,1,2,1,4,4,12.645264274789952,13.448027657461353,"[45, 0, 209]",209,a,0.28401275747455657,colour,0.5
015,62,1,2,1,5,5,13.957088877796195,14.552157056517899,"[92, 0, 162]",162,l,0.07694455678574741,colour,0.5
015,62,1,2,1,6,6,15.061828344478272,17.62398358131759,"[23, 0, 231]",231,a,2.045805104309693,colour,0.5
015,62,1,2,1,7,7,18.133914020261727,20.719970209524035,"[82, 0, 172]",172,l,2.06739221024327,colour,0.5
015,62,1,2,1,8,8,21.228975503589027,22.328052643104456,"[15, 0, 239]",239,a,0.5807959790108725,colour,0.5
015,62,1,2,1,9,9,22.83744863269385,23.408019969589077,"[6, 0, 248]",248,l,0.05197785631753504,colour,0.5
015,62,1,2,1,10,10,23.917060709907673,24.60801784286741,"[96, 0, 158]",158,l,0.17485276062507182,colour,0.5
015,62,1,2,1,11,11,25.117486693896353,26.11203428672161,"[29, 0, 225]",225,a,0.4755693244514987,colour,0.5
015,62,1,2,1,12,12,26.621535039390437,27.344171587843448,"[90, 0, 164]",164,l,0.2051840404747054,colour,0.5
015,62,1,2,1,13,13,27.8536049927352,28.39203532645479,"[31, 0, 223]",223,a,0.020956557942554355,colour,0.5
015,62,1,2,1,14,14,28.901316706789657,29.472029434517026,"[7, 0, 247]",247,l,0.0536335859214887,colour,0.5
015,62,1,2,1,15,15,29.981274974765256,30.944023816729896,"[25, 0, 229]",229,a,0.44535304768942297,colour,0.5
015,62,1,2,1,16,16,31.453328433912247,32.04004549712408,"[89, 0, 165]",165,l,0.06700939161237329,colour,0.5
015,62,1,2,1,17,17,32.55075102543924,35.02398956788238,"[0, 0, 254]",254,a,1.9537919909926131,colour,0.5
015,62,1,2,1,18,18,35.53285622806288,36.16833933163434,"[88, 0, 166]",166,l,0.11720076156780124,colour,0.5
015,62,1,2,1,19,19,36.67764079803601,37.59198830125388,"[33, 0, 221]",221,a,0.3974786752369255,colour,0.5
015,62,1,2,1,20,20,38.1015311954543,38.85596767626703,"[51, 0, 203]",203,a,0.23638808343093842,colour,0.5
015,62,1,2,1,21,21,39.36666257074103,40.16005359461997,"[9, 0, 245]",245,a,0.2734935184707865,colour,0.5
015,62,1,2,1,22,22,40.66890213789884,41.27997465210501,"[81, 0, 173]",173,l,0.09482084331102669,colour,0.5
015,62,1,2,1,23,23,41.79015518329106,42.647979844594374,"[83, 0, 171]",171,l,0.3391390206525102,colour,0.5
015,62,1,2,1,24,24,43.156951661687344,43.87201887939591,"[97, 0, 157]",157,l,0.19762376812286675,colour,0.5
015,62,1,2,1,25,25,44.38118446897715,44.976150247617625,"[19, 0, 235]",235,a,0.07492491323500872,colour,0.5
015,62,1,2,1,26,26,45.4856970802648,46.70407851401251,"[65, 0, 189]",189,a,0.7001298116520047,colour,0.5
015,62,1,2,1,27,27,47.21330160507932,47.824006266891956,"[5, 0, 249]",249,a,0.09252432594075799,colour,0.5
015,62,1,2,1,28,28,48.333986724261194,48.9199873812031,"[43, 0, 211]",211,a,0.06698891171254218,colour,0.5
015,62,1,2,1,29,29,49.428719739895314,49.97613016143441,"[76, 0, 178]",178,l,0.02857511944603175,colour,0.5
015,62,1,2,1,30,30,50.4855194556294,51.23999729042407,"[95, 0, 159]",159,l,0.23820568388327956,colour,0.5
015,62,1,2,1,31,31,51.74878596898634,52.296295246109366,"[98, 0, 156]",156,l,0.02981967362575233,colour,0.5
015,62,1,2,1,32,32,52.806894042063504,53.77599680516869,"[49, 0, 205]",205,a,0.4513056396972388,colour,0.5
015,62,1,2,1,33,33,54.28539830853697,54.97601476451382,"[35, 0, 219]",219,a,0.17330691404640675,colour,0.5
015,62,1,2,1,34,34,55.48538042791188,56.775990109774284,"[66, 0, 188]",188,a,0.7706727917538956,colour,0.5
015,62,1,2,1,35,35,57.285580265452154,57.839998787036166,"[75, 0, 179]",179,l,0.03324140969198197,colour,0.5
015,62,1,2,1,36,36,58.34949953958858,59.025031685014255,"[32, 0, 222]",222,a,0.15506435057614,colour,0.5
015,62,1,2,1,37,37,59.53524411772378,60.29604003368877,"[26, 0, 228]",228,a,0.2438305956311524,colour,0.5
015,62,1,2,1,38,38,60.80600276798941,61.40799003734719,"[41, 0, 213]",213,a,0.08493648446165025,colour,0.5
015,62,1,2,1,39,39,61.916547922068276,62.94405571825337,"[61, 0, 193]",193,l,0.5104641005164012,colour,0.5
015,62,1,2,1,40,40,63.45277074771002,63.9923700169893,"[27, 0, 227]",227,a,0.021697776624932885,colour,0.5
015,62,1,2,1,41,41,64.50214331119787,65.04814770177472,"[54, 0, 200]",200,a,0.029774381197057664,colour,0.5
015,62,1,2,1,42,42,65.55913167935796,66.16804709774442,"[17, 0, 237]",237,a,0.0886350943474099,colour,0.5
015,62,1,2,1,43,43,66.67726900719572,67.32801404618658,"[79, 0, 175]",175,l,0.13082075188867748,colour,0.5
015,62,1,2,1,44,44,67.83689606632106,68.56803693645634,"[77, 0, 177]",177,l,0.21334768505766988,colour,0.5
015,62,1,2,1,45,45,69.0782584277913,69.68835380941164,"[91, 0, 163]",163,l,0.09072641783859581,colour,0.5
015,62,1,2,1,46,46,70.19854221760761,70.76802220661193,"[42, 0, 212]",212,a,0.05179826251696795,colour,0.5
015,62,1,2,1,47,47,71.27796446089633,72.18397305777762,"[70, 0, 184]",184,l,0.3853277312591672,colour,0.5
015,62,1,2,1,48,48,72.69356597040314,74.95201219979208,"[99, 0, 155]",155,l,1.7396676409989595,colour,0.5
015,62,1,2,1,49,49,75.46078433690127,77.03998878330458,"[4, 0, 250]",250,a,1.060042645665817,colour,0.5
015,62,1,2,1,50,50,77.54929379431996,78.23198212566786,"[36, 0, 218]",218,a,0.16503338632173836,colour,0.5
015,62,1,2,2,1,51,83.53119931695983,87.56797549652401,"[45, 0, 209]",209,a,3.519484754651785,colour,0.5
015,62,1,2,2,2,52,88.0769618859049,89.0079895646777,"[44, 0, 210]",210,a,0.4123369180597365,colour,0.5
015,62,1,2,2,3,53,89.51726267416961,90.71998163103126,"[31, 0, 223]",223,a,0.6847473594825715,colour,0.5
015,62,1,2,2,4,54,91.22929097444285,93.27997622743715,"[70, 0, 184]",184,l,1.5297042765887454,colour,0.5
015,62,1,2,2,5,55,93.78894528769888,94.52806311938912,"[58, 0, 196]",196,a,0.22099814808461815,colour,0.5
015,62,1,2,2,6,56,95.03692111501005,96.19202878861688,"[63, 0, 191]",191,l,0.6379879656014964,colour,0.5
015,62,1,2,2,7,57,96.701093159616,97.24837951967493,"[71, 0, 183]",183,a,0.029499870375730097,colour,0.5
015,62,1,2,2,8,58,97.75855729402974,98.34395615395624,"[28, 0, 226]",226,a,0.0677935394924134,colour,0.5
015,62,1,2,2,9,59,98.85404373740312,99.63208224147093,"[39, 0, 215]",215,a,0.2579641615739092,colour,0.5
015,62,1,2,2,10,60,100.14121474779677,100.85601218091324,"[10, 0, 244]",244,a,0.19858120835851878,colour,0.5
015,62,1,2,2,11,61,101.36580634897109,102.20000614400487,"[55, 0, 199]",199,a,0.3133976247627288,colour,0.5
015,62,1,2,2,12,62,102.70902325352654,103.24802860268392,"[74, 0, 180]",180,l,0.022238921257667243,colour,0.5
015,62,1,2,2,13,63,103.75693661672994,104.28798824141268,"[33, 0, 221]",221,a,0.014637689106166363,colour,0.5
015,62,1,2,2,14,64,104.79708057548851,105.46423758065794,"[17, 0, 237]",237,a,0.14719097048509866,colour,0.5
015,62,1,2,2,15,65,105.97352801938541,106.58399991807528,"[68, 0, 186]",186,l,0.09282679972238839,colour,0.5
015,62,1,2,2,16,66,107.09230219665915,108.93627922446467,"[80, 0, 174]",174,l,1.326783670578152,colour,0.5
015,62,1,2,2,17,67,109.44594302936457,110.46404380828608,"[82, 0, 172]",172,l,0.4990071136271581,colour,0.5
015,62,1,2,2,18,68,110.97318497940432,111.53604638250545,"[30, 0, 224]",224,a,0.04509736271575093,colour,0.5
015,62,1,2,2,19,69,112.04563378135208,112.80001551762689,"[91, 0, 163]",163,l,0.23537314182613045,colour,0.5
015,62,1,2,2,20,70,113.30961512564681,114.00798759539612,"[73, 0, 181]",181,l,0.1804662508657202,colour,0.5
015,62,1,2,2,21,71,114.51775773894042,115.1919913731981,"[27, 0, 227]",227,a,0.15598279994446784,colour,0.5
015,62,1,2,2,22,72,115.70155671669636,116.49597528541926,"[46, 0, 208]",208,a,0.2758136666379869,colour,0.5
015,62,1,2,2,23,73,117.00600064126775,119.37600105872843,"[99, 0, 155]",155,l,1.8512143461266533,colour,0.5
015,62,1,2,2,24,74,119.8850870912429,120.5600678519113,"[36, 0, 218]",218,a,0.15809499728493392,colour,0.5
015,62,1,2,2,25,75,121.06996205693576,121.92806162277702,"[87, 0, 167]",167,l,0.33658177708275616,colour,0.5
015,62,1,2,2,26,76,122.43727526150178,123.04007424798328,"[2, 0, 252]",252,a,0.0826817147899419,colour,0.5
015,62,1,2,2,27,77,123.54968764062505,124.68798635085113,"[64, 0, 190]",190,a,0.6225440732669085,colour,0.5
015,62,1,2,2,28,78,125.19802312820684,125.74404012190644,"[75, 0, 179]",179,l,0.025971008115448058,colour,0.5
015,62,1,2,2,29,79,126.25373149616644,126.97602579218801,"[96, 0, 158]",158,l,0.20073357794899493,colour,0.5
015,62,1,2,2,30,80,127.48551000328735,128.06399725575466,"[13, 0, 241]",241,a,0.06087484280578792,colour,0.5
015,62,1,2,2,31,81,128.5730698974803,130.83199937618338,"[40, 0, 214]",214,a,1.742129179998301,colour,0.5
015,62,1,2,2,32,82,131.34312080603559,131.90423353191,"[79, 0, 175]",175,l,0.04132864810526371,colour,0.5
015,62,1,2,2,33,83,132.41421162616462,133.3360382693354,"[92, 0, 162]",162,l,0.40407481195870787,colour,0.5
015,62,1,2,2,34,84,133.84680129913613,134.47203770524357,"[97, 0, 157]",157,l,0.10521641455125064,colour,0.5
015,62,1,2,2,35,85,134.98097092553508,135.5127732210094,"[43, 0, 211]",211,a,0.014337972039356828,colour,0.5
015,62,1,2,2,36,86,136.02297541382723,136.78405844361987,"[0, 0, 254]",254,a,0.24311734014190733,colour,0.5
015,62,1,2,2,37,87,137.2929963900242,138.08003309892956,"[20, 0, 234]",234,a,0.270124951726757,colour,0.5
015,62,1,2,2,38,88,138.58945665764622,139.2640152150998,"[32, 0, 222]",222,a,0.15682248014491051,colour,0.5
015,62,1,2,2,39,89,139.77330250304658,140.72812755266204,"[57, 0, 197]",197,a,0.43814841855783015,colour,0.5
015,62,1,2,2,40,90,141.23747273604386,141.93604134127963,"[69, 0, 185]",185,l,0.1794272845145315,colour,0.5
015,62,1,2,2,41,91,142.4458721370902,144.8160017360933,"[21, 0, 233]",233,a,1.8528767710085958,colour,0.5
015,62,1,2,2,42,92,145.32486879010685,146.02402107557282,"[29, 0, 225]",225,a,0.1805292663630098,colour,0.5
015,62,1,2,2,43,93,146.53362974198535,147.24003825034015,"[89, 0, 165]",165,l,0.18932070187292993,colour,0.5
015,62,1,2,2,44,94,147.74972056609113,148.50402117008343,"[18, 0, 236]",236,a,0.2366992220049724,colour,0.5
015,62,1,2,2,45,95,149.01259717170615,149.58406962885056,"[98, 0, 156]",156,l,0.05434684141073376,colour,0.5
015,62,1,2,2,46,96,150.0941268862225,150.71200073102955,"[12, 0, 242]",242,a,0.10080730600748211,colour,0.5
015,62,1,2,2,47,97,151.22152156976517,152.095994898933,"[37, 0, 217]",217,a,0.3562981132417917,colour,0.5
015,62,1,2,2,48,98,152.60489424841944,153.21607861493248,"[34, 0, 220]",220,a,0.09040543320588768,colour,0.5
015,62,1,2,2,49,99,153.72455930581782,154.36002980626654,"[52, 0, 202]",202,a,0.11781082930974662,colour,0.5
015,62,1,2,2,50,100,154.86898193112575,155.51207729475573,"[51, 0, 203]",203,a,0.12601504020858556,colour,0.5
015,62,1,2,3,1,101,160.4203926490154,162.19199885625858,"[16, 0, 238]",238,a,1.2527638159226626,colour,0.5
015,62,1,2,3,2,102,162.70077611343004,163.48812868690584,"[39, 0, 215]",215,a,0.270325813209638,colour,0.5
015,62,1,2,3,3,103,163.9973765902687,164.52800443628803,"[76, 0, 178]",178,l,0.01289964560419321,colour,0.5
015,62,1,2,3,4,104,165.03854730608873,165.64054205850698,"[41, 0, 213]",213,a,0.0821456901030615,colour,0.5
015,62,1,2,3,5,105,166.15087815898005,166.80801926064305,"[80, 0, 174]",174,l,0.13857440266292542,colour,0.5
015,62,1,2,3,6,106,167.31781973026227,169.95998561673332,"[33, 0, 221]",221,a,2.123317193472758,colour,0.5
015,62,1,2,3,7,107,170.46892710775137,171.24799473199528,"[55, 0, 199]",199,a,0.2618872639723122,colour,0.5
015,62,1,2,3,8,108,171.75697993987706,172.52007709932514,"[60, 0, 194]",194,a,0.24594988219905645,colour,0.5
015,62,1,2,3,9,109,173.0288500242168,177.32802271074615,"[93, 0, 161]",161,l,3.7819482154445723,colour,0.5
015,62,1,2,3,10,110,177.836504583247,181.88802597182803,"[18, 0, 236]",236,a,3.5345560683635995,colour,0.5
015,62,1,2,3,11,111,182.39668507513124,182.97617899847683,"[94, 0, 160]",160,l,0.061683015315793455,colour,0.5
015,62,1,2,3,12,112,183.48621695733164,184.2160120549379,"[28, 0, 226]",226,a,0.2127092604059726,colour,0.5
015,62,1,2,3,13,113,184.7252674413612,185.43204065121245,"[29, 0, 225]",225,a,0.18968107108958066,colour,0.5
015,62,1,2,3,14,114,185.94100183458067,188.65600603690837,"[38, 0, 216]",216,a,2.1959325923817232,colour,0.5
015,62,1,2,3,15,115,189.16590536187869,192.8560283286497,"[87, 0, 167]",167,l,3.1704129320569336,colour,0.5
015,62,1,2,3,16,116,193.3652191242436,196.83202221931424,"[68, 0, 186]",186,a,2.950170968659222,colour,0.5
015,62,1,2,3,17,117,197.34112794417888,199.44006684364285,"[70, 0, 184]",184,l,1.5817219115560874,colour,0.5
015,62,1,2,3,18,118,199.9496345501393,205.2800002520671,"[12, 0, 242]",242,a,4.811483138240874,colour,0.5
015,62,1,2,3,19,119,205.78900712158065,206.7839863698464,"[61, 0, 193]",193,a,0.4780434664571658,colour,0.5
015,62,1,2,3,20,120,207.29409128252883,207.84003305155784,"[4, 0, 250]",250,a,0.02954988880082965,colour,0.5
015,62,1,2,3,21,121,208.34939792728983,212.31210541538894,"[50, 0, 204]",204,a,3.4447039891965687,colour,0.5
015,62,1,2,3,22,122,212.8204687400721,213.8560417193221,"[30, 0, 224]",224,a,0.5192007913719863,colour,0.5
015,62,1,2,3,23,123,214.36539084126707,214.96801574761048,"[14, 0, 240]",240,a,0.08538074302487075,colour,0.5
015,62,1,2,3,24,124,215.47689855552744,216.0400577064138,"[57, 0, 197]",197,a,0.04659043380524963,colour,0.5
015,62,1,2,3,25,125,216.5499424590962,217.15282060857862,"[25, 0, 229]",229,a,0.08232961618341506,colour,0.5
015,62,1,2,3,26,126,217.66356000758242,218.28802565671504,"[15, 0, 239]",239,a,0.1082179166842252,colour,0.5
015,62,1,2,3,27,127,218.7983349757269,219.40045260812622,"[21, 0, 233]",233,a,0.08174593606963754,colour,0.5
015,62,1,2,3,28,128,219.91007781622466,220.44805562053807,"[26, 0, 228]",228,a,0.020854945643804967,colour,0.5
015,62,1,2,3,29,129,220.95765325939283,221.5520160595188,"[78, 0, 176]",176,l,0.07588195952121168,colour,0.5
015,62,1,2,3,30,130,222.06084333511535,225.3199925799854,"[10, 0, 244]",244,a,2.7424927001120523,colour,0.5
015,62,1,2,3,31,131,225.83053702511825,226.48826613929123,"[24, 0, 230]",230,a,0.13752125785686076,colour,0.5
015,62,1,2,3,32,132,226.99778343341313,227.78401393909007,"[5, 0, 249]",249,a,0.2688681883737445,colour,0.5
015,62,1,2,3,33,133,228.29326420545112,228.89604586269706,"[73, 0, 181]",181,l,0.08490340143907815,colour,0.5
015,62,1,2,3,34,134,229.4053280305816,231.3200414169114,"[52, 0, 202]",202,a,1.3948584161698818,colour,0.5
015,62,1,2,3,35,135,231.82892973860726,232.48811765923165,"[45, 0, 209]",209,a,0.14113125239964575,colour,0.5
015,62,1,2,3,36,136,232.99738722410984,233.71214606030844,"[37, 0, 217]",217,a,0.1946395953418687,colour,0.5
015,62,1,2,3,37,137,234.22178662836086,234.76004406355787,"[43, 0, 211]",211,a,0.020751364063471556,colour,0.5
015,62,1,2,3,38,138,235.26920886535663,235.92003227968235,"[97, 0, 157]",157,l,0.13452054338995367,colour,0.5
015,62,1,2,3,39,139,236.43072993098758,237.0803623542888,"[88, 0, 166]",166,l,0.12859000684693456,colour,0.5
015,62,1,2,3,40,140,237.5899438454071,238.2082202010788,"[54, 0, 200]",200,a,0.09960253047756851,colour,0.5
015,62,1,2,3,41,141,238.71775443060324,239.30400005995762,"[99, 0, 155]",155,l,0.06844574888236821,colour,0.5
015,62,1,2,3,42,142,239.8128856247058,240.5200132962782,"[71, 0, 183]",183,a,0.18989453581161797,colour,0.5
015,62,1,2,3,43,143,241.03064990148414,241.80805549456272,"[27, 0, 227]",227,a,0.2568113736342639,colour,0.5
015,62,1,2,3,44,144,242.31711632094812,243.11201735131908,"[81, 0, 173]",173,l,0.27823779021855444,colour,0.5
015,62,1,2,3,45,145,243.62178079935256,244.21601166098844,"[49, 0, 205]",205,a,0.07692762126680464,colour,0.5
015,62,1,2,3,46,146,244.7256092998432,245.40001425729133,"[62, 0, 192]",192,a,0.15595562453381717,colour,0.5
015,62,1,2,3,47,147,245.9085642651189,246.58404717966914,"[75, 0, 179]",179,l,0.15809499728493392,colour,0.5
015,62,1,2,3,48,148,247.09315054141916,247.63234769378323,"[3, 0, 251]",251,a,0.019337062258273363,colour,0.5
015,62,1,2,3,49,149,248.14199692651164,248.72802751569543,"[89, 0, 165]",165,l,0.06846859189681709,colour,0.5
015,62,1,2,3,50,150,249.23688078508712,249.81598755763844,"[83, 0, 171]",171,l,0.05717150669079274,colour,0.5
015,62,1,2,4,1,151,254.68444291630294,257.9920600600308,"[77, 0, 177]",177,l,2.7901807833695784,colour,0.5
015,62,1,2,4,2,152,258.50113506487105,259.22448093036655,"[64, 0, 190]",190,a,0.20606192364357412,colour,0.5
015,62,1,2,4,3,153,259.7342325630598,260.360143627855,"[29, 0, 225]",225,a,0.10792331967968494,colour,0.5
015,62,1,2,4,4,154,260.8699807252269,263.4960201838985,"[44, 0, 210]",210,a,2.10928720922675,colour,0.5
015,62,1,2,4,5,155,264.0049809733173,264.6160526998574,"[14, 0, 240]",240,a,0.09309303993359208,colour,0.5
015,62,1,2,4,6,156,265.12507099076174,265.84002517466433,"[55, 0, 199]",199,a,0.1980061928043142,colour,0.5
015,62,1,2,4,7,157,266.35053496132605,268.0240088662831,"[21, 0, 233]",233,a,1.15269733464811,colour,0.5
015,62,1,2,4,8,158,268.5328499265015,269.12007544527296,"[90, 0, 164]",164,l,0.07094667246565223,colour,0.5
015,62,1,2,4,9,159,269.6289673115825,270.15203685464803,"[34, 0, 220]",220,l,0.005915176589041948,colour,0.5
015,62,1,2,4,10,160,270.668055762304,273.3681119248504,"[71, 0, 183]",183,a,2.18153869418893,colour,0.5
015,62,1,2,4,11,161,273.8771120989695,275.00002717541065,"[72, 0, 182]",182,a,0.60546296229586,colour,0.5
015,62,1,2,4,12,162,275.50855394639075,276.0720395958051,"[97, 0, 157]",157,l,0.04643171385396272,colour,0.5
015,62,1,2,4,13,163,276.5813898991328,277.352059540106,"[70, 0, 184]",184,a,0.2500230399891734,colour,0.5
015,62,1,2,4,14,164,277.8618635543389,278.4480445928639,"[74, 0, 180]",180,a,0.06835516425780952,colour,0.5
015,62,1,2,4,15,165,278.9570546131581,284.82404171302915,"[43, 0, 211]",211,a,5.350349065847695,colour,0.5
015,62,1,2,4,16,166,285.3338126442395,286.0560269894777,"[57, 0, 197]",197,a,0.2026366429636255,colour,0.5
015,62,1,2,4,17,167,286.5654068313306,290.4000437957002,"[58, 0, 196]",196,a,3.3149808866437525,colour,0.5
015,62,1,2,4,18,168,290.90931375452783,291.6240824367851,"[31, 0, 223]",223,a,0.19674627878703177,colour,0.5
015,62,1,2,4,19,169,292.13218149065506,292.6653638234129,"[46, 0, 208]",208,a,0.014672347577288747,colour,0.5
015,62,1,2,4,20,170,293.1756235177163,293.88811616261955,"[3, 0, 251]",251,a,0.194829429150559,colour,0.5
015,62,1,2,4,21,171,294.3963396719191,295.0480842925608,"[49, 0, 205]",205,a,0.1348431034712121,colour,0.5
015,62,1,2,4,22,172,295.5569804912666,296.2401355303591,"[61, 0, 193]",193,a,0.16479077702388167,colour,0.5
015,62,1,2,4,23,173,296.7490829291055,297.38404064183123,"[80, 0, 174]",174,l,0.11802429403178394,colour,0.5
015,62,1,2,4,24,174,297.89309516665526,298.48002372530755,"[32, 0, 222]",222,a,0.06973126297816634,colour,0.5
015,62,1,2,4,25,175,298.99083519820124,299.9200082550524,"[67, 0, 187]",187,a,0.4092909113969654,colour,0.5
015,62,1,2,4,26,176,300.4291250075912,301.00807896780316,"[6, 0, 248]",248,a,0.06250772927887738,colour,0.5
015,62,1,2,4,27,177,301.517619892722,302.05630189424846,"[22, 0, 232]",232,a,0.01836071745492518,colour,0.5
015,62,1,2,4,28,178,302.5660216253018,303.17610361624975,"[30, 0, 224]",224,a,0.09313006140291691,colour,0.5
015,62,1,2,4,29,179,303.68545982730575,304.208051634836,"[52, 0, 202]",202,a,0.005525662563741207,colour,0.5
015,62,1,2,4,30,180,304.7193057909608,305.32808572612703,"[51, 0, 203]",203,a,0.09231913194525987,colour,0.5
015,62,1,2,4,31,181,305.83632735244464,306.46420528530143,"[89, 0, 165]",165,l,0.11045929556712508,colour,0.5
015,62,1,2,4,32,182,306.97247487457935,307.66402750310954,"[96, 0, 158]",158,l,0.17479250207543373,colour,0.5
015,62,1,2,4,33,183,308.1728547787061,308.8002809699392,"[20, 0, 234]",234,a,0.10822500591166317,colour,0.5
015,62,1,2,4,34,184,309.3095974025782,309.9760569060454,"[99, 0, 155]",155,l,0.14776677370537072,colour,0.5
015,62,1,2,4,35,185,310.48534104332794,311.10457562678494,"[54, 0, 200]",200,a,0.10027797671500593,colour,0.5
015,62,1,2,4,36,186,311.6144229640486,312.28831552760676,"[23, 0, 231]",231,a,0.15631560003384948,colour,0.5
015,62,1,2,4,37,187,312.79949879134074,313.376384664909,"[0, 0, 254]",254,a,0.05582376488018781,colour,0.5
015,62,1,2,4,38,188,313.8860961253522,314.45602391753346,"[36, 0, 218]",218,a,0.05315466888714582,colour,0.5
015,62,1,2,4,39,189,314.96533759322483,315.5440320087364,"[4, 0, 250]",250,a,0.06047311960719526,colour,0.5
015,62,1,2,4,40,190,316.053805696778,316.64833154925145,"[1, 0, 253]",253,a,0.07485283934511244,colour,0.5
015,62,1,2,4,41,191,317.157777951099,317.88001435180195,"[48, 0, 206]",206,a,0.20527816971298307,colour,0.5
015,62,1,2,4,42,192,318.38969351677224,319.16828379931394,"[60, 0, 194]",194,a,0.2580252076731995,colour,0.5
015,62,1,2,4,43,193,319.6778172411723,320.4720794529421,"[10, 0, 244]",244,a,0.2767443251796067,colour,0.5
015,62,1,2,4,44,194,320.98178343032487,321.6243600983871,"[83, 0, 171]",171,l,0.12251453485805541,colour,0.5
015,62,1,2,4,45,195,322.1344354726607,322.7120822571451,"[47, 0, 207]",207,a,0.06047902721911669,colour,0.5
015,62,1,2,4,46,196,323.22164011758287,324.00804234005045,"[63, 0, 191]",191,a,0.26682609564159065,colour,0.5
015,62,1,2,4,47,197,324.5171161633916,325.1761008593021,"[73, 0, 181]",181,l,0.1408654061378911,colour,0.5
015,62,1,2,4,48,198,325.68600057822186,326.4085000681225,"[98, 0, 156]",156,l,0.20243381208274513,colour,0.5
015,62,1,2,4,49,199,326.9183218055405,327.52003377629444,"[5, 0, 249]",249,a,0.08510150597430766,colour,0.5
015,62,1,2,4,50,200,328.0290583688766,328.6562939385185,"[19, 0, 235]",235,a,0.10927657538559288,colour,0.5
015,62,1,2,5,1,201,333.9408214529976,337.8560925255297,"[62, 0, 192]",192,a,3.3976767798885703,colour,0.4
015,62,1,2,5,2,202,338.36517540737987,339.0480961080175,"[1, 0, 253]",253,a,0.16346784762572497,colour,0.4
015,62,1,2,5,3,203,339.55800370371435,340.1680455224123,"[21, 0, 233]",233,a,0.09273070143535733,colour,0.4
015,62,1,2,5,4,204,340.6769980409881,341.288033927558,"[39, 0, 215]",215,a,0.0933836983749643,colour,0.4
015,62,1,2,5,5,205,341.79683678469155,342.36804182024207,"[48, 0, 206]",206,a,0.054255863069556653,colour,0.4
015,62,1,2,5,6,206,342.87776982213836,343.5360644994071,"[86, 0, 168]",168,l,0.13829280261415988,colour,0.4
015,62,1,2,5,7,207,344.0472457939759,344.81604427145794,"[60, 0, 194]",194,l,0.2492928490974009,colour,0.4
015,62,1,2,5,8,208,345.32497985474765,346.0961118713021,"[35, 0, 219]",219,a,0.2533864869037643,colour,0.4
015,62,1,2,5,9,209,346.60566264239606,347.2960711475462,"[75, 0, 179]",179,l,0.17362356651574373,colour,0.4
015,62,1,2,5,10,210,347.8059169094777,348.4640308114467,"[54, 0, 200]",200,a,0.14082090160809457,colour,0.4
015,62,1,2,5,11,211,348.9737997733755,349.56017419032287,"[74, 0, 180]",180,a,0.0680215765023604,colour,0.4
015,62,1,2,5,12,212,350.06920153985266,351.008084087749,"[17, 0, 237]",237,a,0.42267656314652413,colour,0.4
015,62,1,2,5,13,213,351.517302452703,352.16807309153955,"[83, 0, 171]",171,l,0.13385376171208918,colour,0.4
015,62,1,2,5,14,214,352.67753918573726,353.5280308240326,"[23, 0, 231]",231,a,0.3339524596231058,colour,0.4
015,62,1,2,5,15,215,354.0380171890138,354.6880560616264,"[12, 0, 242]",242,a,0.13184632745105773,colour,0.4
015,62,1,2,5,16,216,355.19688176189084,355.8080531314481,"[87, 0, 167]",167,l,0.09316865832079202,colour,0.4
015,62,1,2,5,17,217,356.31729000713676,356.9520826982334,"[96, 0, 158]",158,l,0.11846618948038667,colour,0.4
015,62,1,2,5,18,218,357.46280004188884,358.1440677699866,"[91, 0, 163]",163,l,0.16242730582598597,colour,0.4
015,62,1,2,5,19,219,358.6523704424035,359.3040244784206,"[73, 0, 181]",181,l,0.13459773734211922,colour,0.4
015,62,1,2,5,20,220,359.81299275089987,360.5121257378487,"[50, 0, 204]",204,a,0.18236380210146308,colour,0.4
015,62,1,2,5,21,221,361.0210235118866,361.54406469792593,"[32, 0, 222]",222,a,0.004353970056399703,colour,0.4
015,62,1,2,5,22,222,362.0547414753819,362.6490373216802,"[26, 0, 228]",228,a,0.0733877313323319,colour,0.4
015,62,1,2,5,23,223,363.1593454590766,364.5200310193468,"[68, 0, 186]",186,l,0.8434985046042129,colour,0.4
015,62,1,2,5,24,224,365.0290430088062,365.70402022486087,"[24, 0, 230]",230,a,0.15621556306723505,colour,0.4
015,62,1,2,5,25,225,366.2125832296442,366.94403996434994,"[84, 0, 170]",170,l,0.21399241127073765,colour,0.4
015,62,1,2,5,26,226,367.4530712523265,367.9770604262594,"[52, 0, 202]",202,a,0.004962068633176386,colour,0.4
015,62,1,2,5,27,227,368.48896797327325,369.2560768504627,"[56, 0, 198]",198,a,0.2496701538329944,colour,0.4
015,62,1,2,5,28,228,369.766661861795,370.44011252978817,"[97, 0, 157]",157,l,0.1531400178791955,colour,0.4
015,62,1,2,5,29,229,370.94982950401027,371.54406942415517,"[4, 0, 250]",250,a,0.07588511041831225,colour,0.4
015,62,1,2,5,30,230,372.0530873212265,372.76805253280327,"[81, 0, 173]",173,l,0.19840870366897434,colour,0.4
015,62,1,2,5,31,231,373.27707554993685,373.9200618180912,"[45, 0, 209]",209,a,0.12607372319325805,colour,0.4
015,62,1,2,5,32,232,374.43068385100923,375.1523885593051,"[36, 0, 218]",218,a,0.20193599059712142,colour,0.4
015,62,1,2,5,33,233,375.6630121675553,376.27240729064215,"[44, 0, 210]",210,a,0.09036092855967581,colour,0.4
015,62,1,2,5,34,234,376.7819371878868,377.4641150945099,"[77, 0, 177]",177,l,0.16556114028207958,colour,0.4
015,62,1,2,5,35,235,377.9731538655469,380.04807011410594,"[20, 0, 234]",234,a,1.558273094589822,colour,0.4
015,62,1,2,5,36,236,380.55707540817093,381.1920500562992,"[93, 0, 161]",161,l,0.11771788157057017,colour,0.4
015,62,1,2,5,37,237,381.7013983904617,382.49601506383624,"[71, 0, 183]",183,a,0.27805307623930275,colour,0.4
015,62,1,2,5,38,238,383.0057572443038,383.7040895418031,"[64, 0, 190]",190,a,0.1793063738150522,colour,0.4
015,62,1,2,5,39,239,384.21255920501426,384.8640568840783,"[89, 0, 165]",165,l,0.13365250639617443,colour,0.4
015,62,1,2,5,40,240,385.37430082447827,385.9760565122124,"[98, 0, 156]",156,l,0.08144267450552434,colour,0.4
015,62,1,2,5,41,241,386.4856214617612,387.0720714973286,"[78, 0, 176]",176,l,0.06937404442578554,colour,0.4
015,62,1,2,5,42,242,387.5818550315453,388.28907565085683,"[65, 0, 189]",189,a,0.18695565534289926,colour,0.4
015,62,1,2,5,43,243,388.79923255124595,389.58403260738123,"[30, 0, 224]",224,a,0.26775675429962575,colour,0.4
015,62,1,2,5,44,244,390.0935758954147,390.672119073919,"[14, 0, 240]",240,a,0.06041089189238846,colour,0.4
015,62,1,2,5,45,245,391.18166748201475,391.89622269955,"[95, 0, 159]",159,l,0.19607358938083053,colour,0.4
015,62,1,2,5,46,246,392.4059408553876,393.10403605748434,"[58, 0, 196]",196,a,0.18082465103361756,colour,0.4
015,62,1,2,5,47,247,393.61299054534175,394.4880637022434,"[88, 0, 166]",166,l,0.35810468590352684,colour,0.4
015,62,1,2,5,48,248,394.997544368729,395.64824372157454,"[42, 0, 212]",212,a,0.13041981647256762,colour,0.4
015,62,1,2,5,49,249,396.15768106491305,396.80805470689666,"[85, 0, 169]",169,l,0.1342661187518388,colour,0.4
015,62,1,2,5,50,250,397.31708205631,397.96009471220896,"[29, 0, 225]",225,a,0.12665464647579938,colour,0.4
015,62,1,2,6,1,251,402.94048747140914,405.6560942584183,"[78, 0, 176]",176,l,2.1977049004053697,colour,0.28
015,62,1,2,6,2,252,406.1656434541801,406.736137597356,"[36, 0, 218]",218,a,0.05344257061369717,colour,0.28
015,62,1,2,6,3,253,407.246921501006,407.8642309641,"[64, 0, 190]",190,a,0.09788339165970683,colour,0.28
015,62,1,2,6,4,254,408.3744532429846,408.97607502306346,"[68, 0, 186]",186,a,0.08233473624568433,colour,0.28
015,62,1,2,6,5,255,409.4844005384948,410.1841471377993,"[72, 0, 182]",182,a,0.18149103876203299,colour,0.28
015,62,1,2,6,6,256,410.692258794792,411.50407000700943,"[69, 0, 185]",185,a,0.2948084765812382,colour,0.28
015,62,1,2,6,7,257,412.01263261795975,412.6721564893378,"[76, 0, 178]",178,l,0.1423151541966945,colour,0.28
015,62,1,2,6,8,258,413.181621795753,413.84811280702706,"[22, 0, 232]",232,a,0.14716537052299827,colour,0.28
015,62,1,2,6,9,259,414.35851349832956,415.05613766028546,"[96, 0, 158]",158,l,0.1802472723647952,colour,0.28
015,62,1,2,6,10,260,415.566196886939,416.34439253550954,"[56, 0, 198]",198,a,0.25860376784112304,colour,0.28
015,62,1,2,6,11,261,416.8541347159771,417.49627618386876,"[83, 0, 171]",171,l,0.12426793831400573,colour,0.28
015,62,1,2,6,12,262,418.0051507210592,418.68804109550547,"[50, 0, 204]",204,a,0.16495816165115684,colour,0.28
015,62,1,2,6,13,263,419.1978348697303,419.82416026084684,"[57, 0, 197]",197,a,0.11006466171238571,colour,0.28
015,62,1,2,6,14,264,420.33355428115465,420.96034086612053,"[20, 0, 234]",234,a,0.10709151648916304,colour,0.28
015,62,1,2,6,15,265,421.4703386526089,422.0481496710563,"[60, 0, 194]",194,a,0.06000168563332409,colour,0.28
015,62,1,2,6,16,266,422.5573034451809,423.3760932186851,"[37, 0, 217]",217,a,0.30177640402689576,colour,0.28
015,62,1,2,6,17,267,423.8850890605245,424.4960800484987,"[79, 0, 175]",175,l,0.0946735447505489,colour,0.28
015,62,1,2,6,18,268,425.0049943641061,425.6560320307035,"[94, 0, 160]",160,l,0.1327620199881494,colour,0.28
015,62,1,2,6,19,269,426.16495894943364,426.8241011839127,"[77, 0, 177]",177,l,0.14305046515073627,colour,0.28
015,62,1,2,6,20,270,427.33351332112215,427.98402480920777,"[75, 0, 179]",179,l,0.13276910921558738,colour,0.28
015,62,1,2,6,21,271,428.49438414664473,429.27206228126306,"[58, 0, 196]",196,l,0.2567511150846258,colour,0.28
015,62,1,2,6,22,272,429.7811534338398,430.3760664372239,"[2, 0, 252]",252,a,0.078237947775051,colour,0.28
015,62,1,2,6,23,273,430.8849831158295,431.64008440915495,"[74, 0, 180]",180,l,0.23817811463959515,colour,0.28
015,62,1,2,6,24,274,432.14918501407374,432.8243477315409,"[28, 0, 226]",226,a,0.15789452951867133,colour,0.28
015,62,1,2,6,25,275,433.33486893982626,433.928216798231,"[53, 0, 201]",201,a,0.07207189116161317,colour,0.28
015,62,1,2,6,26,276,434.43877148337197,435.0801244712202,"[85, 0, 169]",169,l,0.1220497963950038,colour,0.28
015,62,1,2,6,27,277,435.58899861446116,436.2484827074222,"[21, 0, 233]",233,a,0.1415495170513168,colour,0.28
015,62,1,2,6,28,278,436.75816541700624,437.4640887067653,"[48, 0, 206]",206,a,0.18872126785572618,colour,0.28
015,62,1,2,6,29,279,437.9731105423998,438.5920985782286,"[84, 0, 170]",170,l,0.10124644462484866,colour,0.28
015,62,1,2,6,30,280,439.10099910909776,439.78406828979496,"[88, 0, 166]",166,l,0.16479510930366814,colour,0.28
015,62,1,2,6,31,281,440.2932417562697,440.9680535568623,"[80, 0, 174]",174,l,0.15655190777033567,colour,0.28
015,62,1,2,6,32,282,441.4765594538767,442.1040746544022,"[97, 0, 157]",157,l,0.11030490789562464,colour,0.28
015,62,1,2,6,33,283,442.614478496369,443.21604592562653,"[49, 0, 205]",205,a,0.08183218841440976,colour,0.28
015,62,1,2,6,34,284,443.7250575212529,444.3600628894055,"[93, 0, 161]",161,l,0.11616415821481496,colour,0.28
015,62,1,2,6,35,285,444.86946833122056,445.52814110100735,"[89, 0, 165]",165,l,0.1422226004069671,colour,0.28
015,62,1,2,6,36,286,446.03798922593705,447.02405691554304,"[73, 0, 181]",181,l,0.46606896561570466,colour,0.28
015,62,1,2,6,37,287,447.53396844980307,448.28048901527654,"[92, 0, 162]",162,l,0.22530879511032254,colour,0.28
015,62,1,2,6,38,288,448.7916084759636,449.5200719793793,"[87, 0, 167]",167,l,0.20891849033068866,colour,0.28
015,62,1,2,6,39,289,450.0305297783343,450.71259583265055,"[41, 0, 213]",213,a,0.16148640715982765,colour,0.28
015,62,1,2,6,40,290,451.22258022846654,451.82422130694613,"[34, 0, 220]",220,a,0.08497311209794134,colour,0.28
015,62,1,2,6,41,291,452.332654736354,453.35210916481446,"[63, 0, 191]",191,a,0.5017746711382642,colour,0.28
015,62,1,2,6,42,292,453.8611274557188,454.4640339622274,"[17, 0, 237]",237,a,0.08634290937334299,colour,0.28
015,62,1,2,6,43,293,454.9737162779784,455.58411610277835,"[47, 0, 207]",207,a,0.09222027659416199,colour,0.28
015,62,1,2,6,44,294,456.09310839988757,456.76004406355787,"[62, 0, 192]",192,a,0.1498092602705583,colour,0.28
015,62,1,2,6,45,295,457.26910882839,457.88810710411053,"[95, 0, 159]",159,l,0.10281828476581722,colour,0.28
015,62,1,2,6,46,296,458.39736997371074,458.9684281045338,"[98, 0, 156]",156,l,0.05304124113172293,colour,0.28
015,62,1,2,6,47,297,459.47885242663324,460.5920505289687,"[70, 0, 184]",184,a,0.5955904189031571,colour,0.28
015,62,1,2,6,48,298,461.10102352767717,461.7440783249913,"[23, 0, 231]",231,a,0.12568145245313644,colour,0.28
015,62,1,2,6,49,299,462.25463222246617,463.0721073372988,"[86, 0, 168]",168,l,0.2962365628918633,colour,0.28
015,62,1,2,6,50,300,463.5806474989513,464.24892932910006,"[90, 0, 164]",164,l,0.1485020846594125,colour,0.28
015,62,1,2,7,1,301,469.7003657256719,473.92008781200275,"[52, 0, 202]",202,a,3.700890722684562,colour,0.14
015,62,1,2,7,2,302,474.4290738075506,475.52806351322215,"[71, 0, 183]",183,a,0.5807018496561795,colour,0.14
015,62,1,2,7,3,303,476.03744965663645,476.70409466174897,"[67, 0, 187]",187,a,0.14572625642176718,colour,0.14
015,62,1,2,7,4,304,477.2134453590261,477.83215888391715,"[50, 0, 204]",204,a,0.10263869096525013,colour,0.14
015,62,1,2,7,5,305,478.3411460610805,478.94431093055755,"[58, 0, 196]",196,a,0.08610266307368875,colour,0.14
015,62,1,2,7,6,306,479.4539160524728,480.0803568405099,"[84, 0, 170]",170,l,0.10827502445317805,colour,0.14
015,62,1,2,7,7,307,480.58997968549374,481.19214182253927,"[79, 0, 175]",175,l,0.08474665053654462,colour,0.14
015,62,1,2,7,8,308,481.700962008792,482.2405151982093,"[90, 0, 164]",164,l,0.021398059674538672,colour,0.14
015,62,1,2,7,9,309,482.75039483082946,484.81606632692274,"[81, 0, 173]",173,l,1.549152797437273,colour,0.14
015,62,1,2,7,10,310,485.32481640856713,486.1441012468422,"[65, 0, 189]",189,l,0.3024022256722674,colour,0.14
015,62,1,2,7,11,311,486.6536563503323,487.17620010860264,"[56, 0, 198]",198,a,0.002212628140114248,colour,0.14
015,62,1,2,7,12,312,487.686353070545,488.2244246103801,"[61, 0, 193]",193,a,0.018936126842163503,colour,0.14
015,62,1,2,7,13,313,488.7342959722737,489.3520741123939,"[74, 0, 180]",180,a,0.1002953058341518,colour,0.14
015,62,1,2,7,14,314,489.86278751760256,490.5200597700896,"[75, 0, 179]",179,a,0.13762877776753157,colour,0.14
015,62,1,2,7,15,315,491.02945575967897,491.6405499354005,"[55, 0, 199]",199,a,0.09179452888201922,colour,0.14
015,62,1,2,7,16,316,492.1502925095847,492.7520978220273,"[42, 0, 212]",212,a,0.08556112460792065,colour,0.14
015,62,1,2,7,17,317,493.2616706484696,493.9761589122936,"[80, 0, 174]",174,l,0.1962327032815665,colour,0.14
015,62,1,2,7,18,318,494.48560413264204,495.06407720653806,"[97, 0, 157]",157,l,0.062046929146163166,colour,0.14
015,62,1,2,7,19,319,495.57299939903896,496.2480849227868,"[32, 0, 222]",222,a,0.15846757590770721,colour,0.14
015,62,1,2,7,20,320,496.75703192758374,497.44806428521406,"[72, 0, 182]",182,a,0.17398472351487726,colour,0.14
015,62,1,2,7,21,321,497.9570620962186,498.6160916906083,"[59, 0, 195]",195,a,0.1426046311389655,colour,0.14
015,62,1,2,7,22,322,499.12583584024105,499.6880603940226,"[98, 0, 156]",156,l,0.04360507940873504,colour,0.14
015,62,1,2,7,23,323,500.19726851885207,500.7601795466617,"[94, 0, 160]",160,l,0.046476612216793,colour,0.14
015,62,1,2,7,24,324,501.26971850241534,501.82448557775933,"[86, 0, 168]",168,l,0.03580337937455624,colour,0.14
015,62,1,2,7,25,325,502.3346263305284,503.00848974939436,"[68, 0, 186]",186,a,0.15512382134329528,colour,0.14
015,62,1,2,7,26,326,503.5187844960019,504.08822825120296,"[26, 0, 228]",228,a,0.04900274192914367,colour,0.14
015,62,1,2,7,27,327,504.5987750594504,505.2800931998063,"[48, 0, 206]",206,a,0.1620043149450794,colour,0.14
015,62,1,2,7,28,328,505.7890929800924,506.5281052609207,"[57, 0, 197]",197,a,0.22160033893305808,colour,0.14
015,62,1,2,7,29,329,507.03692111501005,507.67231599707156,"[60, 0, 194]",194,a,0.11735554318875074,colour,0.14
015,62,1,2,7,30,330,508.18377455929294,508.95214177528396,"[66, 0, 188]",188,a,0.2478253780864179,colour,0.14
015,62,1,2,7,31,331,509.46111831848975,510.01619850168936,"[91, 0, 163]",163,l,0.037433902733027935,colour,0.14
015,62,1,2,7,32,332,510.5245405586902,511.28008138446603,"[25, 0, 229]",229,a,0.2394399979384616,colour,0.14
015,62,1,2,7,33,333,511.78912921389565,512.520100336289,"[62, 0, 192]",192,a,0.2138195128645748,colour,0.14
015,62,1,2,7,34,334,513.0291568303946,513.6240757413907,"[54, 0, 200]",200,a,0.07763575681019574,colour,0.14
015,62,1,2,7,35,335,514.1330786723411,514.7284008819843,"[88, 0, 166]",166,l,0.07767907995730639,colour,0.14
015,62,1,2,7,36,336,515.2379764653742,515.9040677227313,"[87, 0, 167]",167,l,0.14722759823780507,colour,0.14
015,62,1,2,7,37,337,516.4139512939146,517.0080962970387,"[83, 0, 171]",171,l,0.07657906739041209,colour,0.14
015,62,1,2,7,38,338,517.5170972588239,518.1291988932062,"[69, 0, 185]",185,a,0.09407529246527702,colour,0.14
015,62,1,2,7,39,339,518.6397740583634,519.4801080083707,"[76, 0, 178]",178,a,0.32145178015343845,colour,0.14
015,62,1,2,7,40,340,519.9895016348455,520.6085491414415,"[92, 0, 162]",162,l,0.10026104131247848,colour,0.14
015,62,1,2,7,41,341,521.1191971681546,522.1360762360273,"[78, 0, 176]",176,a,0.49766291643027216,colour,0.14
015,62,1,2,7,42,342,522.6466423427919,523.3600624955725,"[70, 0, 184]",184,a,0.19476680760271847,colour,0.14
015,62,1,2,7,43,343,523.8691477404209,524.4804475038545,"[89, 0, 165]",165,l,0.0926692612702027,colour,0.14
015,62,1,2,7,44,344,524.9901550257346,525.6642610538984,"[7, 0, 247]",247,a,0.15696741547435522,colour,0.14
015,62,1,2,7,45,345,526.1736022988334,527.0080919647589,"[82, 0, 172]",172,l,0.3172833117423579,colour,0.14
015,62,1,2,7,46,346,527.5178317819955,528.4401117421221,"[63, 0, 191]",191,a,0.40265854087192565,colour,0.14
015,62,1,2,7,47,347,528.949302143883,529.5608965043211,"[93, 0, 161]",161,l,0.09350579068996012,colour,0.14
015,62,1,2,7,48,348,530.0731061314,530.8000702621648,"[85, 0, 169]",169,l,0.20665544993244112,colour,0.14
015,62,1,2,7,49,349,531.3096092179185,531.9681153906276,"[96, 0, 158]",158,l,0.13749132549855858,colour,0.14
015,62,1,2,7,50,350,532.4789075651206,533.16014536086,"[35, 0, 219]",219,a,0.16121032100636512,colour,0.14
015,62,1,2,8,1,351,538.3325326439226,539.8161592745455,"[90, 0, 164]",164,l,0.9631147249601781,colour,0.06
015,62,1,2,8,2,352,540.3268750428688,540.976156943012,"[98, 0, 156]",156,l,0.130534031894058,colour,0.06
015,62,1,2,8,3,353,541.4852268279064,542.1761193701532,"[65, 0, 189]",189,a,0.17304264334961772,colour,0.06
015,62,1,2,8,4,354,542.6858737596776,543.3284622431966,"[50, 0, 204]",204,a,0.1217284178128466,colour,0.06
015,62,1,2,8,5,355,543.8380827250658,544.5360841917573,"[67, 0, 187]",187,a,0.17935324145946652,colour,0.06
015,62,1,2,8,6,356,545.0453769935993,545.672070236993,"[74, 0, 180]",180,a,0.11006032931618392,colour,0.06
015,62,1,2,8,7,357,546.180968798697,546.9121447212528,"[57, 0, 197]",197,a,0.21519482391886413,colour,0.06
015,62,1,2,8,8,358,547.4211921568494,548.0320913787,"[66, 0, 188]",188,a,0.09352902765385807,colour,0.06
015,62,1,2,8,9,359,548.5412014358444,549.200147141004,"[93, 0, 161]",161,l,0.14161844016052783,colour,0.06
015,62,1,2,8,10,360,549.7095573090483,550.3600967602106,"[51, 0, 203]",203,a,0.1314942289609462,colour,0.06
015,62,1,2,8,11,361,550.869957488263,551.5121064393315,"[97, 0, 157]",157,l,0.12112819612957537,colour,0.06
015,62,1,2,8,12,362,552.0211979857413,552.6562596738804,"[58, 0, 196]",196,a,0.11645442293956876,colour,0.06
015,62,1,2,8,13,363,553.1662550973706,553.8560909501975,"[72, 0, 182]",182,a,0.17183117230888456,colour,0.06
015,62,1,2,8,14,364,554.3666204292094,555.0560738572385,"[68, 0, 186]",186,a,0.16926329489797354,colour,0.06
015,62,1,2,8,15,365,555.5649444558658,556.1930744503625,"[94, 0, 160]",160,l,0.10868856299202889,colour,0.06
015,62,1,2,8,16,366,556.7031852707732,557.3600569816772,"[18, 0, 236]",236,a,0.1400737751973793,colour,0.06
015,62,1,2,8,17,367,557.8691158388974,558.6241072490811,"[92, 0, 162]",162,l,0.2381383361062035,colour,0.06
015,62,1,2,8,18,368,559.1340869187843,559.8241409623297,"[84, 0, 170]",170,l,0.1734924156917259,colour,0.06
015,62,1,2,8,19,369,560.3341761643533,560.992104564677,"[85, 0, 169]",169,l,0.1403073261026293,colour,0.06
015,62,1,2,8,20,370,561.5010070648277,562.1681203531334,"[55, 0, 199]",199,a,0.15061743278056383,colour,0.06
015,62,1,2,8,21,371,562.6776092903456,563.416126900469,"[60, 0, 194]",194,a,0.2209946035873145,colour,0.06
015,62,1,2,8,22,372,563.9268084040377,564.4881011176622,"[91, 0, 163]",163,l,0.04104704805649817,colour,0.06
015,62,1,2,8,23,373,564.9985313474899,565.6160932659404,"[86, 0, 168]",168,l,0.09813387773465365,colour,0.06
015,62,1,2,8,24,374,566.1249906461453,566.8403012609342,"[87, 0, 167]",167,l,0.19745480816345662,colour,0.06
015,62,1,2,8,25,375,567.3497673550155,568.0640646034153,"[52, 0, 202]",202,a,0.19729333114810288,colour,0.06
015,62,1,2,8,26,376,568.5752817379544,569.312578424695,"[80, 0, 174]",174,l,0.21642086724750698,colour,0.06
015,62,1,2,8,27,377,569.821993318852,570.3841075956589,"[59, 0, 195]",195,a,0.043777583981864154,colour,0.06
015,62,1,2,8,28,378,570.893221197417,571.6163193336688,"[81, 0, 173]",173,l,0.20464801567140967,colour,0.06
015,62,1,2,8,29,379,572.1262757664081,572.7841399698518,"[96, 0, 158]",158,l,0.13811754109337926,colour,0.06
015,62,1,2,8,30,380,573.2935024824692,573.9680949107278,"[77, 0, 177]",177,a,0.15391235041897744,colour,0.06
015,62,1,2,8,31,381,574.4777071217541,575.2803295075428,"[70, 0, 184]",184,a,0.2843794282525778,colour,0.06
015,62,1,2,8,32,382,575.7898964263732,576.4640879190993,"[54, 0, 200]",200,a,0.1571355878841132,colour,0.06
015,62,1,2,8,33,383,576.9733657548204,577.53609679488,"[88, 0, 166]",166,l,0.04625527071766555,colour,0.06
015,62,1,2,8,34,384,578.0452946797013,579.0081270170631,"[78, 0, 176]",176,l,0.4458280262770131,colour,0.06
015,62,1,2,8,35,385,579.5172855173005,580.2804740491556,"[95, 0, 159]",159,l,0.243899125023745,colour,0.06
015,62,1,2,8,36,386,580.7901587279048,581.4081330035115,"[69, 0, 185]",185,a,0.10060605057515204,colour,0.06
015,62,1,2,8,37,387,581.9176707776496,582.608084796695,"[73, 0, 181]",181,a,0.17284887097775936,colour,0.06
015,62,1,2,8,38,388,583.1169762691716,583.8081606514752,"[5, 0, 249]",249,l,0.17435651435516775,colour,0.06
015,62,1,2,8,39,389,584.3162707331358,585.1520994761959,"[63, 0, 191]",191,a,0.3170769363641739,colour,0.06
015,62,1,2,8,40,390,585.6611567579675,586.3600538308965,"[82, 0, 172]",172,l,0.18231260206084698,colour,0.06
015,62,1,2,8,41,391,586.8690681834705,587.7041104156524,"[75, 0, 179]",179,l,0.31800405040849,colour,0.06
015,62,1,2,8,42,392,588.2131267373916,588.9041472795652,"[53, 0, 201]",201,a,0.1744569450384006,colour,0.06
015,62,1,2,8,43,393,589.4146239832044,591.2960837506689,"[61, 0, 193]",193,a,1.3637205393752083,colour,0.06
015,62,1,2,8,44,394,591.8051181893097,593.2481093412498,"[56, 0, 198]",198,a,0.9231460279552266,colour,0.06
015,62,1,2,8,45,395,593.7570496506523,594.4960985592334,"[83, 0, 171]",171,l,0.22099460347089916,colour,0.06
015,62,1,2,8,46,396,595.0059155704221,595.6240950399078,"[99, 0, 155]",155,l,0.10121887538116425,colour,0.06
015,62,1,2,8,47,397,596.1334807893727,596.768104914343,"[49, 0, 205]",205,a,0.11825705715455115,colour,0.06
015,62,1,2,8,48,398,597.277226393111,598.2481290334836,"[76, 0, 178]",178,a,0.45406453241594136,colour,0.06
015,62,1,2,8,49,399,598.7569732444827,599.4641083991155,"[79, 0, 175]",175,a,0.18974290508776903,colour,0.06
015,62,1,2,8,50,400,599.9733641793719,600.6241466336651,"[64, 0, 190]",190,l,0.13108423503581434,colour,0.06
015,62,1,2,9,1,401,604.7721308105392,605.5681314596441,"[9, 0, 245]",245,a,0.27645721135195345,colour,0.06
015,62,1,2,9,2,402,606.0781339723617,607.1441272407537,"[94, 0, 160]",160,l,0.546979947714135,colour,0.06
015,62,1,2,9,3,403,607.6537843503756,608.2480750766117,"[52, 0, 202]",202,a,0.07438810088206083,colour,0.06
015,62,1,2,9,4,404,608.7569035337074,609.4882759854663,"[41, 0, 213]",213,a,0.21389985759742558,colour,0.06
015,62,1,2,9,5,405,609.9976321965223,610.6400710183661,"[50, 0, 204]",204,a,0.12512652308214456,colour,0.06
015,62,1,2,9,6,406,611.1494351064321,611.7681478436571,"[84, 0, 170]",170,l,0.10040715825743973,colour,0.06
015,62,1,2,9,7,407,612.2774331623223,613.3921219726326,"[69, 0, 185]",185,a,0.5944600801449269,colour,0.06
015,62,1,2,9,8,408,613.9014840914169,614.6080698305741,"[87, 0, 167]",167,l,0.18797886779066175,colour,0.06
015,62,1,2,9,9,409,615.1172771677375,615.6800924908603,"[58, 0, 196]",196,a,0.045553042786195874,colour,0.06
015,62,1,2,9,10,410,616.1892777726753,616.7280767464545,"[91, 0, 163]",163,l,0.02136615803465247,colour,0.06
015,62,1,2,9,11,411,617.2375940406928,618.0161232770188,"[99, 0, 155]",155,l,0.2616923099849373,colour,0.06
015,62,1,2,9,12,412,618.5258737282129,619.0881230942905,"[73, 0, 181]",181,a,0.0439327594358474,colour,0.06
015,62,1,2,9,13,413,619.5968440313591,620.2321026426507,"[76, 0, 178]",178,a,0.11797742627095431,colour,0.06
015,62,1,2,9,14,414,620.7416549891932,621.3841304387897,"[74, 0, 180]",180,a,0.12385558139067143,colour,0.06
015,62,1,2,9,15,415,621.8931254928466,622.7121692971559,"[95, 0, 159]",159,l,0.301844539353624,colour,0.06
015,62,1,2,9,16,416,623.2211635635467,623.9521354737226,"[86, 0, 168]",168,l,0.21386953140608966,colour,0.06
015,62,1,2,9,17,417,624.4618418141035,625.0965092621045,"[55, 0, 199]",199,a,0.11744494619779289,colour,0.06
015,62,1,2,9,18,418,625.606607873342,628.2721032412956,"[78, 0, 176]",176,a,2.147644681390375,colour,0.06
015,62,1,2,9,19,419,628.7822546279058,629.5681117672939,"[67, 0, 187]",187,a,0.2651431906269863,colour,0.06
015,62,1,2,9,20,420,630.0770808275556,630.744130312698,"[77, 0, 177]",177,a,0.1501849895576015,colour,0.06
015,62,1,2,9,21,421,631.2531147329137,631.8321911792737,"[68, 0, 186]",186,a,0.062469132244586945,colour,0.06
015,62,1,2,9,22,422,632.340476916288,632.904185088817,"[54, 0, 200]",200,a,0.04579053202178329,colour,0.06
015,62,1,2,9,23,423,633.4132337060291,634.064165821881,"[97, 0, 157]",157,l,0.13290104770567268,colour,0.06
015,62,1,2,9,24,424,634.5746263777837,635.4561353760073,"[59, 0, 195]",195,a,0.3599620647728443,colour,0.06
015,62,1,2,9,25,425,635.965153273195,636.696117700194,"[60, 0, 194]",194,a,0.212734860368073,colour,0.06
015,62,1,2,9,26,426,637.2059410129441,637.9520897875773,"[75, 0, 179]",179,a,0.2292949128895998,colour,0.06
015,62,1,2,9,27,427,638.4628965342417,639.0970815207111,"[63, 0, 191]",191,a,0.11259866831824183,colour,0.06
015,62,1,2,9,28,428,639.607153744204,640.1921394594247,"[51, 0, 203]",203,a,0.06859462277498096,colour,0.06
015,62,1,2,9,29,429,640.7009868212044,641.2801164367702,"[72, 0, 182]",182,a,0.062364763114601374,colour,0.06
015,62,1,2,9,30,430,641.7895431462675,642.3841749434359,"[71, 0, 183]",183,a,0.07422623003367335,colour,0.06
015,62,1,2,9,31,431,642.8932357698213,643.4721089914674,"[62, 0, 192]",192,a,0.062220615334808826,colour,0.06
015,62,1,2,9,32,432,643.9811678486876,645.0165001879213,"[79, 0, 175]",175,a,0.5164292955305427,colour,0.06
015,62,1,2,9,33,433,645.5265830452554,647.112163074431,"[81, 0, 173]",173,l,1.0655990282539278,colour,0.06
015,62,1,2,9,34,434,647.6223054025322,649.3201241246425,"[82, 0, 172]",172,l,1.1796974630560726,colour,0.06
015,62,1,2,9,35,435,649.8294941203203,650.4561082005966,"[92, 0, 162]",162,l,0.10865666135214269,colour,0.06
015,62,1,2,9,36,436,650.9652273162501,651.6800999739207,"[98, 0, 156]",156,l,0.196372912498191,colour,0.06
015,62,1,2,9,37,437,652.1890477665002,652.7126222203951,"[89, 0, 165]",165,l,0.0039124684408307076,colour,0.06
015,62,1,2,9,38,438,653.2368658189662,653.9363481474575,"[20, 0, 234]",234,a,0.17749468109104782,colour,0.06
015,62,1,2,9,39,439,654.4464723587735,655.6881470402004,"[70, 0, 184]",184,a,0.721639723633416,colour,0.06
015,62,1,2,9,40,440,656.197627312853,656.8481191085884,"[88, 0, 166]",166,l,0.13190894899889827,colour,0.06
015,62,1,2,9,41,441,657.357648612,658.0161201262381,"[80, 0, 174]",174,l,0.14037585526239127,colour,0.06
015,62,1,2,9,42,442,658.5254696420161,661.008092752425,"[83, 0, 171]",171,l,1.964961076155305,colour,0.06
015,62,1,2,9,43,443,661.5170503910631,662.320122943027,"[53, 0, 201]",201,a,0.2857508008601144,colour,0.06
015,62,1,2,9,44,444,662.8291573817842,663.4721377422102,"[57, 0, 197]",197,a,0.12615918787196279,colour,0.06
015,62,1,2,9,45,445,663.9823411165271,664.5521633579629,"[93, 0, 161]",161,l,0.05001098825596273,colour,0.06
015,62,1,2,9,46,446,665.0612627813825,665.648153924616,"[56, 0, 198]",198,a,0.06987304764334112,colour,0.06
015,62,1,2,9,47,447,666.1571088063065,666.9840992460959,"[85, 0, 169]",169,l,0.30947452248074114,colour,0.06
015,62,1,2,9,48,448,667.494804774411,668.1056098670233,"[65, 0, 189]",189,a,0.08914709452074021,colour,0.06
015,62,1,2,9,49,449,668.6154961950378,669.2641034366097,"[96, 0, 158]",158,l,0.13000194553751498,colour,0.06
015,62,1,2,9,50,450,669.7731177891837,670.4401365544181,"[66, 0, 188]",188,a,0.15036655275616795,colour,0.06
015,62,1,2,10,1,451,675.8043844538042,677.2881189982872,"[61, 0, 193]",193,a,0.9655132485786453,colour,0.06
015,62,1,2,10,2,452,677.7979686986655,678.8161187084625,"[73, 0, 181]",181,a,0.4984829043969512,colour,0.06
015,62,1,2,10,3,453,679.3249676455744,680.1281394468388,"[91, 0, 163]",163,l,0.286318727186881,colour,0.06
015,62,1,2,10,4,454,680.6362404699903,683.5121119532268,"[94, 0, 160]",160,l,2.3588809568900615,colour,0.06
015,62,1,2,10,5,455,684.0215583550744,685.0080955093727,"[92, 0, 162]",162,l,0.4656140733277425,colour,0.06
015,62,1,2,10,6,456,685.5167609141208,686.2161050025607,"[56, 0, 198]",198,a,0.1808636417845264,colour,0.06
015,62,1,2,10,7,457,686.7255789736519,687.3521052262513,"[74, 0, 180]",180,a,0.10905129532329738,colour,0.06
015,62,1,2,10,8,458,687.8612653019372,688.5441537072184,"[42, 0, 212]",212,a,0.1654374726349488,colour,0.06
015,62,1,2,10,9,459,689.0535591490334,689.6721297077602,"[53, 0, 201]",201,a,0.10027206898666918,colour,0.06
015,62,1,2,10,10,460,690.1813965158071,690.8321163485525,"[99, 0, 155]",155,l,0.13389669102616608,colour,0.06
015,62,1,2,10,11,461,691.3416777534876,692.6640755523695,"[78, 0, 176]",176,l,0.8028504226822406,colour,0.06
015,62,1,2,10,12,462,693.1728713202756,694.9280899796868,"[75, 0, 179]",179,a,1.2384794069221243,colour,0.06
015,62,1,2,10,13,463,695.4375757662347,696.2721280535916,"[76, 0, 178]",178,a,0.3182285426883027,colour,0.06
015,62,1,2,10,14,464,696.7832384557696,697.4242795173777,"[57, 0, 197]",197,a,0.12117663922253996,colour,0.06
015,62,1,2,10,15,465,697.9329354699003,698.5041617731331,"[64, 0, 190]",190,a,0.05496478616259992,colour,0.06
015,62,1,2,10,16,466,699.013059547171,699.8882268334273,"[86, 0, 168]",168,l,0.3563134733121842,colour,0.06
015,62,1,2,10,17,467,700.3979237214662,701.0321488801856,"[89, 0, 165]",165,l,0.1153162072878331,colour,0.06
015,62,1,2,10,18,468,701.5412057681242,702.4161454112036,"[62, 0, 192]",192,a,0.3575749626616016,colour,0.06
015,62,1,2,10,19,469,702.9254519976676,703.632214179961,"[88, 0, 166]",166,l,0.18807969242334366,colour,0.06
015,62,1,2,10,20,470,704.1395696521504,704.7281165249879,"[95, 0, 159]",159,l,0.0720053311670199,colour,0.06
015,62,1,2,10,21,471,705.2378819423029,705.8881248271791,"[54, 0, 200]",200,a,0.13384194625541568,colour,0.06
015,62,1,2,10,22,472,706.3964456166141,707.0561404172331,"[66, 0, 188]",188,a,0.14362469292245805,colour,0.06
015,62,1,2,10,23,473,707.5658089483622,708.2490683568176,"[96, 0, 158]",158,l,0.16273214283864945,colour,0.06
015,62,1,2,10,24,474,708.7591701187193,709.5121458239155,"[77, 0, 177]",177,a,0.23570594179909676,colour,0.06
015,62,1,2,10,25,475,710.0214090873487,710.608108821325,"[2, 0, 252]",252,a,0.06901131209451705,colour,0.06
015,62,1,2,10,26,476,711.117571370909,711.8401240301318,"[72, 0, 182]",182,a,0.2048744773492217,colour,0.06
015,62,1,2,10,27,477,712.350631847512,712.952109085978,"[98, 0, 156]",156,l,0.08118076669052243,colour,0.06
015,62,1,2,10,28,478,713.4613172109239,714.1041156144347,"[80, 0, 174]",174,a,0.12590200640261173,colour,0.06
015,62,1,2,10,29,479,714.6131228776649,715.2081465517404,"[51, 0, 203]",203,a,0.07747191679663956,colour,0.06
015,62,1,2,10,30,480,715.7165075134253,716.2491758768447,"[59, 0, 195]",195,a,0.014865725999698043,colour,0.06
015,62,1,2,10,31,481,716.7584371708799,717.2808344183723,"[52, 0, 202]",202,a,0.005329527193680406,colour,0.06
015,62,1,2,10,32,482,717.8017571056262,718.4402157175355,"[69, 0, 185]",185,a,0.12036649754736573,colour,0.06
015,62,1,2,10,33,483,718.9493990300689,719.696133060148,"[3, 0, 251]",251,a,0.2305122915422544,colour,0.06
015,62,1,2,10,34,484,720.2051273265388,720.7761460728943,"[55, 0, 199]",199,a,0.052395727252587676,colour,0.06
015,62,1,2,10,35,485,721.2852132008411,722.1121437759139,"[83, 0, 171]",171,a,0.31010507023893297,colour,0.06
015,62,1,2,10,36,486,722.6205772053218,723.3121207753429,"[68, 0, 186]",186,a,0.1747326374752447,colour,0.06
015,62,1,2,10,37,487,723.8211725433357,725.8241315099876,"[50, 0, 204]",204,a,1.4868093020049855,colour,0.06
015,62,1,2,10,38,488,726.3335334073054,727.0721400266048,"[84, 0, 170]",170,l,0.22045030805747956,colour,0.06
015,62,1,2,10,39,489,727.5811240529874,728.2162507256726,"[97, 0, 157]",157,l,0.11469708103686571,colour,0.06
015,62,1,2,10,40,490,728.7254139521392,729.3523076632991,"[71, 0, 183]",183,a,0.10776932584121823,colour,0.06
015,62,1,2,10,41,491,729.8617702127667,730.5121111654444,"[87, 0, 167]",167,l,0.13391480781137943,colour,0.06
015,62,1,2,10,42,492,731.0218639797531,731.6401222184068,"[58, 0, 196]",196,a,0.10000267811119556,colour,0.06
015,62,1,2,10,43,493,732.1497324602678,732.8642419917742,"[65, 0, 189]",189,a,0.19715863571036607,colour,0.06
015,62,1,2,10,44,494,733.3725556918653,733.9921167738503,"[82, 0, 172]",172,l,0.10085141682066023,colour,0.06
015,62,1,2,10,45,495,734.501427692594,735.10413727595,"[60, 0, 194]",194,a,0.08505897060967982,colour,0.06
015,62,1,2,10,46,496,735.6137924162904,736.2401264719665,"[90, 0, 164]",164,l,0.10792922740802169,colour,0.06
015,62,1,2,10,47,497,736.7495736614801,737.3683797402773,"[67, 0, 187]",187,a,0.1002905797213316,colour,0.06
015,62,1,2,10,48,498,737.8808185857488,738.6001168936491,"[63, 0, 191]",191,a,0.1989770238287747,colour,0.06
015,62,1,2,10,49,499,739.1099579293514,739.8001892038155,"[81, 0, 173]",173,l,0.17138336913194507,colour,0.06
015,62,1,2,10,50,500,740.3112621905748,740.984133510734,"[85, 0, 169]",169,l,0.15258075622841716,colour,0.06
015,62,1,2,11,1,501,746.4849771293812,748.7441693034489,"[52, 0, 202]",202,a,1.7399189148563892,colour,0.06
015,62,1,2,11,2,502,749.2531832621899,750.3201343646506,"[75, 0, 179]",179,a,0.5493729574372992,colour,0.06
015,62,1,2,11,3,503,750.8292231541127,751.4083051142516,"[65, 0, 189]",189,a,0.06053062109276652,colour,0.06
015,62,1,2,11,4,504,751.9184202670585,752.5602761965711,"[54, 0, 200]",200,a,0.12329435045830905,colour,0.06
015,62,1,2,11,5,505,753.0717331833439,753.7201592556667,"[62, 0, 192]",192,a,0.12702722498215735,colour,0.06
015,62,1,2,11,6,506,754.2293665929465,754.8801734657027,"[82, 0, 172]",172,l,0.13340714015066624,colour,0.06
015,62,1,2,11,7,507,755.3892031782307,756.0721392388223,"[78, 0, 176]",176,l,0.16453438310418278,colour,0.06
015,62,1,2,11,8,508,756.5811260221526,757.8721141902497,"[70, 0, 184]",184,l,0.7721646813442931,colour,0.06
015,62,1,2,11,9,509,758.381091915071,759.488148379256,"[72, 0, 182]",182,l,0.5897032053908333,colour,0.06
015,62,1,2,11,10,510,759.9965483316919,760.6561856308253,"[51, 0, 203]",203,a,0.14068856928497553,colour,0.06
015,62,1,2,11,11,511,761.1666351590538,761.8081118145492,"[55, 0, 199]",199,a,0.1223971686558798,colour,0.06
015,62,1,2,11,12,512,762.317587361089,763.0321012248751,"[86, 0, 168]",168,l,0.19674312800634652,colour,0.06
015,62,1,2,11,13,513,763.5411281804554,764.1841199623886,"[83, 0, 171]",171,l,0.12562395085114986,colour,0.06
015,62,1,2,11,14,514,764.6932973673102,765.4961529100547,"[67, 0, 187]",187,l,0.28562949621118605,colour,0.06
015,62,1,2,11,15,515,766.0050357179716,767.1441544161644,"[69, 0, 185]",185,a,0.6203294760780409,colour,0.06
015,62,1,2,11,16,516,767.6532219379442,768.6561746031512,"[84, 0, 170]",170,l,0.48568093264475465,colour,0.06
015,62,1,2,11,17,517,769.1658612511819,769.9921337092528,"[50, 0, 204]",204,a,0.3061654263874516,colour,0.06
015,62,1,2,11,18,518,770.5008908802411,771.4721404991578,"[58, 0, 196]",196,a,0.4533926307922229,colour,0.06
015,62,1,2,11,19,519,771.9814088825369,772.7283894603606,"[56, 0, 198]",198,a,0.22773725097067654,colour,0.06
015,62,1,2,11,20,520,773.2389764409745,774.0561825587647,"[74, 0, 180]",180,l,0.29887533269356936,colour,0.06
015,62,1,2,11,21,521,774.5660515576601,775.3365829585819,"[89, 0, 165]",165,l,0.2506193231092766,colour,0.06
015,62,1,2,11,22,522,775.8465764129069,776.440126708243,"[95, 0, 159]",159,l,0.07643098116386682,colour,0.06
015,62,1,2,11,23,523,776.9492032885319,777.7042065140558,"[37, 0, 217]",217,a,0.23658815736416727,colour,0.06
015,62,1,2,11,24,524,778.2134835621109,778.9361142028356,"[63, 0, 191]",191,a,0.2065050007076934,colour,0.06
015,62,1,2,11,25,525,779.4466929126065,780.1121130560059,"[66, 0, 188]",188,a,0.14570380724035203,colour,0.06
015,62,1,2,11,26,526,780.6215641839663,781.3921562372707,"[7, 0, 247]",247,a,0.2505318893818185,colour,0.06
015,62,1,2,11,27,527,781.9014521898935,782.6241186705884,"[81, 0, 173]",173,l,0.20360983698628843,colour,0.06
015,62,1,2,11,28,528,783.1346453926526,783.888108285726,"[73, 0, 181]",181,l,0.2344054615823552,colour,0.06
015,62,1,2,11,29,529,784.3975164844887,785.0001406031661,"[98, 0, 156]",156,l,0.08504282287321985,colour,0.06
015,62,1,2,11,30,530,785.509423165,786.2081304041203,"[71, 0, 183]",183,a,0.18056431866716594,colour,0.06
015,62,1,2,11,31,531,786.7175059136935,787.440141674364,"[76, 0, 178]",178,a,0.2029848030069843,colour,0.06
015,62,1,2,11,32,532,787.9507770980708,788.6481243860908,"[87, 0, 167]",167,l,0.17839461972471327,colour,0.06
015,62,1,2,11,33,533,789.1575700002722,789.8321104408242,"[79, 0, 175]",175,l,0.1566925108199939,colour,0.06
015,62,1,2,11,34,534,790.3411728426581,790.9680996368406,"[80, 0, 174]",174,l,0.11060383717995137,colour,0.06
015,62,1,2,11,35,535,791.4774239463732,792.1041691774735,"[88, 0, 166]",166,l,0.10965388000477105,colour,0.06
015,62,1,2,11,36,536,792.6147939672228,793.2088865888072,"[85, 0, 169]",169,l,0.07383317139465362,colour,0.06
015,62,1,2,11,37,537,793.7192699508741,794.4401676682755,"[64, 0, 190]",190,a,0.20464171411003917,colour,0.06
015,62,1,2,11,38,538,794.9498464394128,795.5767444828525,"[68, 0, 186]",186,a,0.10631288250442594,colour,0.06
015,62,1,2,11,39,539,796.086541407858,796.800334532978,"[53, 0, 201]",201,a,0.1962063155369833,colour,0.06
015,62,1,2,11,40,540,797.3104284181027,797.9681658030022,"[96, 0, 158]",158,l,0.13998712913598865,colour,0.06
015,62,1,2,11,41,541,798.4771982724778,799.160126850009,"[94, 0, 160]",160,l,0.16672338044736534,colour,0.06
015,62,1,2,11,42,542,799.6693424580153,800.3921341819223,"[99, 0, 155]",155,l,0.2043632649583742,colour,0.06
015,62,1,2,11,43,543,800.9012418759521,801.5846623674734,"[91, 0, 163]",163,l,0.163826247677207,colour,0.06
015,62,1,2,11,44,544,802.0948629848426,802.7121842633933,"[93, 0, 161]",161,l,0.0978345547337085,colour,0.06
015,62,1,2,11,45,545,803.2211395389168,804.0241951555945,"[90, 0, 164]",164,l,0.28616237023379654,colour,0.06
015,62,1,2,11,46,546,804.534293766832,805.6081489936914,"[77, 0, 177]",177,a,0.5529152104863897,colour,0.06
015,62,1,2,11,47,547,806.1174315555254,806.7441362204263,"[60, 0, 194]",194,l,0.10974800935946405,colour,0.06
015,62,1,2,11,48,548,807.2546353732469,808.0881530266488,"[61, 0, 193]",193,a,0.31234172312542796,colour,0.06
015,62,1,2,11,49,549,808.5970594652463,809.3681461894885,"[44, 0, 210]",210,a,0.25421395781449974,colour,0.06
015,62,1,2,11,50,550,809.877241280512,810.6961484202184,"[92, 0, 162]",162,l,0.30156648403499275,colour,0.06
015,62,1,2,12,1,551,818.2123898511054,820.1441674130037,"[64, 0, 190]",190,a,1.4112514778971672,colour,0.06
015,62,1,2,12,2,552,820.6538194026798,821.3601408709073,"[87, 0, 167]",167,l,0.18445158086251467,colour,0.06
015,62,1,2,12,3,553,821.8697881343542,822.4886245393427,"[95, 0, 159]",159,l,0.09955290576908737,colour,0.06
015,62,1,2,12,4,554,822.9980764550855,823.7681663543917,"[96, 0, 158]",158,l,0.25252672052010894,colour,0.06
015,62,1,2,12,5,555,824.2771070576273,825.0961721297354,"[80, 0, 174]",174,l,0.30285081651527435,colour,0.06
015,62,1,2,12,6,556,825.6062018178636,826.2401115057291,"[14, 0, 240]",240,a,0.11282709904480726,colour,0.06
015,62,1,2,12,7,557,826.7503176369937,827.3841170480009,"[52, 0, 202]",202,a,0.11576440429780632,colour,0.06
015,62,1,2,12,8,558,827.8930786250858,828.5124502670951,"[97, 0, 157]",157,l,0.10184312157798558,colour,0.06
015,62,1,2,12,9,559,829.0217544904444,829.6561742092017,"[84, 0, 170]",170,l,0.11673208442516625,colour,0.06
015,62,1,2,12,10,560,830.1657096203417,830.8566624210216,"[59, 0, 195]",195,a,0.17190521536394954,colour,0.06
015,62,1,2,12,11,561,831.3670264845714,831.9441592998337,"[99, 0, 155]",155,l,0.059735051821917295,colour,0.06
015,62,1,2,12,12,562,832.4540436586831,833.0882085589692,"[98, 0, 156]",156,l,0.11306655767839402,colour,0.06
015,62,1,2,12,13,563,833.5983244994422,834.3041390876751,"[68, 0, 186]",186,a,0.18611912592314184,colour,0.06
015,62,1,2,12,14,564,834.8132534770994,835.4721282899845,"[72, 0, 182]",182,a,0.14068108622450382,colour,0.06
015,62,1,2,12,15,565,835.9809106671019,836.6561568799661,"[60, 0, 194]",194,a,0.15898312046192586,colour,0.06
015,62,1,2,12,16,566,837.1661235527135,837.8481888193637,"[77, 0, 177]",177,a,0.1639739399543032,colour,0.06
015,62,1,2,12,17,567,838.3587486245669,838.9601159798913,"[69, 0, 185]",185,a,0.07954472955316305,colour,0.06
015,62,1,2,12,18,568,839.469075981644,840.0642327757087,"[74, 0, 180]",180,a,0.07758219365496188,colour,0.06
015,62,1,2,12,19,569,840.5732506728964,841.208231622586,"[70, 0, 184]",184,a,0.11875015264376998,colour,0.06
015,62,1,2,12,20,570,841.7179769537179,842.5521574503509,"[82, 0, 172]",172,l,0.31464926816988736,colour,0.06
015,62,1,2,12,21,571,843.061099729035,843.6721667293459,"[67, 0, 187]",187,a,0.09397880011238158,colour,0.06
015,62,1,2,12,22,572,844.1810932541266,844.8161825115094,"[40, 0, 214]",214,a,0.11821137089282274,colour,0.06
015,62,1,2,12,23,573,845.3254256887594,845.9681618645554,"[92, 0, 162]",162,l,0.12551485549192876,colour,0.06
015,62,1,2,12,24,574,846.477126986254,847.0563129219227,"[88, 0, 166]",166,l,0.0609067443292588,colour,0.06
015,62,1,2,12,25,575,847.5662433607504,848.1922391025582,"[83, 0, 171]",171,l,0.10624592867679894,colour,0.06
015,62,1,2,12,26,576,848.7020155475475,849.4007113650441,"[51, 0, 203]",203,a,0.18164739571511745,colour,0.06
015,62,1,2,12,27,577,849.9108284871327,850.6401931106811,"[41, 0, 213]",213,a,0.21243750641588122,colour,0.06
015,62,1,2,12,28,578,851.1497383679962,851.8641671609366,"[81, 0, 173]",173,l,0.19612636475358158,colour,0.06
015,62,1,2,12,29,579,852.372958990396,853.0241443493869,"[61, 0, 193]",193,a,0.1328490599989891,colour,0.06
015,62,1,2,12,30,580,853.534675403731,854.3045124538476,"[65, 0, 189]",189,a,0.2496189537923783,colour,0.06
015,62,1,2,12,31,581,854.8152581544127,855.5041676808614,"[78, 0, 176]",176,l,0.1709119351580739,colour,0.06
015,62,1,2,12,32,582,856.0135435842676,856.8001612407388,"[90, 0, 164]",164,a,0.26766695734113455,colour,0.06
015,62,1,2,12,33,583,857.3113921597833,857.9681602891069,"[58, 0, 196]",196,a,0.13642833451740444,colour,0.06
015,62,1,2,12,34,584,858.4770190723939,859.2162168548675,"[91, 0, 163]",163,l,0.22263339767232537,colour,0.06
015,62,1,2,12,35,585,859.7257483275607,860.4081688434817,"[94, 0, 160]",160,l,0.16437920776661485,colour,0.06
015,62,1,2,12,36,586,860.9186435778392,861.6321625860874,"[50, 0, 204]",204,a,0.19585185393225402,colour,0.06
015,62,1,2,12,37,587,862.1415900832508,862.7601645805407,"[89, 0, 165]",165,l,0.10093924449756742,colour,0.06
015,62,1,2,12,38,588,863.269273456186,863.9521689505782,"[53, 0, 201]",201,a,0.16537878941744566,colour,0.06
015,62,1,2,12,39,589,864.4611435247352,865.2561524689663,"[73, 0, 181]",181,l,0.27823503327090293,colour,0.06
015,62,1,2,12,40,590,865.7669454310089,866.4241704220185,"[66, 0, 188]",188,a,0.13643384841270745,colour,0.06
015,62,1,2,12,41,591,866.9347290456062,867.6729461509967,"[79, 0, 175]",175,l,0.21706126118078828,colour,0.06
015,62,1,2,12,42,592,868.1832917038118,868.8561563285766,"[62, 0, 192]",192,a,0.15442119957879186,colour,0.06
015,62,1,2,12,43,593,869.3661371797789,869.9761478846194,"[93, 0, 161]",161,l,0.08920617145486176,colour,0.06
015,62,1,2,12,44,594,870.4864146681502,871.160184351611,"[76, 0, 178]",178,a,0.1558303814381361,colour,0.06
015,62,1,2,12,45,595,871.669409805676,872.3041516906815,"[85, 0, 169]",169,l,0.11859970330260694,colour,0.06
015,62,1,2,12,46,596,872.8130333170993,873.5281722148648,"[86, 0, 168]",168,l,0.19764306664001197,colour,0.06
015,62,1,2,12,47,597,874.0374126350507,874.8002687606495,"[71, 0, 183]",183,a,0.24484868813306093,colour,0.06
015,62,1,2,12,48,598,875.3103795811767,876.0407717495691,"[56, 0, 198]",198,a,0.20985938899684697,colour,0.06
015,62,1,2,12,49,599,876.5517458809773,877.3281692216406,"[63, 0, 191]",191,a,0.257896026247181,colour,0.06
015,62,1,2,12,50,600,877.8376605219673,878.6084081444424,"[57, 0, 197]",197,a,0.25185166799928993,colour,0.06
015,62,1,2,13,1,601,884.0523772165179,886.2322763288394,"[77, 0, 177]",177,a,1.6625218288972974,colour,0.06
015,62,1,2,13,2,602,886.742190226214,887.74413976504,"[75, 0, 179]",179,a,0.48294567049015313,colour,0.06
015,62,1,2,13,3,603,888.2544569609454,888.9841847107746,"[52, 0, 202]",202,a,0.2085900226375088,colour,0.06
015,62,1,2,13,4,604,889.4938701773062,890.0481362802675,"[98, 0, 156]",156,l,0.03539259766694158,colour,0.06
015,62,1,2,13,5,605,890.557663814514,891.3041489337338,"[62, 0, 192]",192,a,0.22777033399324864,colour,0.06
015,62,1,2,13,6,606,891.8149411082268,892.4242877882207,"[71, 0, 183]",183,a,0.090092325466685,colour,0.06
015,62,1,2,13,7,607,892.9336640854599,893.569165699766,"[84, 0, 170]",170,l,0.11743155540898442,colour,0.06
015,62,1,2,13,8,608,894.0793352033943,894.7281783588696,"[97, 0, 157]",157,l,0.13226695533376187,colour,0.06
015,62,1,2,13,9,609,895.2373742745258,895.9602203491377,"[85, 0, 169]",169,l,0.20496033574454486,colour,0.06
015,62,1,2,13,10,610,896.4698337417794,897.1601552069187,"[74, 0, 180]",180,a,0.17222383699845523,colour,0.06
015,62,1,2,13,11,611,897.6689533379395,898.3681438263739,"[95, 0, 159]",159,l,0.18230984511319548,colour,0.06
015,62,1,2,13,12,612,898.8772038650932,899.4884323424194,"[66, 0, 188]",188,a,0.09205525508150458,colour,0.06
015,62,1,2,13,13,613,899.9984210705152,900.664654506254,"[94, 0, 160]",160,l,0.14601494558155537,colour,0.06
015,62,1,2,13,14,614,901.1743403666187,902.4481469929451,"[80, 0, 174]",174,a,0.7565226843580604,colour,0.06
015,62,1,2,13,15,615,902.9572007301031,903.720189188025,"[59, 0, 195]",195,a,0.24529452214483172,colour,0.06
015,62,1,2,13,16,616,904.2294945928734,904.9201756396797,"[92, 0, 162]",162,l,0.17218090768437833,colour,0.06
015,62,1,2,13,17,617,905.4291860538069,906.1041565743508,"[68, 0, 186]",186,a,0.15772675105836242,colour,0.06
015,62,1,2,13,18,618,906.6143997272011,907.296181818354,"[36, 0, 218]",218,a,0.16463205707259476,colour,0.06
015,62,1,2,13,19,619,907.8059645649046,908.4883287608391,"[57, 0, 197]",197,a,0.16316891834139824,colour,0.06
015,62,1,2,13,20,620,908.9980630642967,909.6563270215411,"[70, 0, 184]",184,a,0.1393896642839536,colour,0.06
015,62,1,2,13,21,621,910.1654792203335,910.8163699823199,"[83, 0, 171]",171,l,0.13370173703879118,colour,0.06
015,62,1,2,13,22,622,911.3246253931429,912.024129383266,"[69, 0, 185]",185,a,0.18194120505359024,colour,0.06
015,62,1,2,13,23,623,912.5323001171928,914.840175230056,"[79, 0, 175]",175,a,1.7885270229307935,colour,0.06
015,62,1,2,13,24,624,915.3490710349288,916.832164397696,"[78, 0, 176]",176,a,0.9652643377194181,colour,0.06
015,62,1,2,13,25,625,917.3412098641274,918.0001240615966,"[65, 0, 189]",189,l,0.14106902468483895,colour,0.06
015,62,1,2,13,26,626,918.509388900362,920.7361887972802,"[72, 0, 182]",182,a,1.709018527297303,colour,0.06
015,62,1,2,13,27,627,921.2451141405618,921.9681287814165,"[54, 0, 200]",200,a,0.20637384988367558,colour,0.06
015,62,1,2,13,28,628,922.4763003030093,923.2322716027265,"[58, 0, 196]",196,a,0.23789927153848112,colour,0.06
015,62,1,2,13,29,629,923.7416309645632,924.4401294651907,"[53, 0, 201]",201,a,0.18147764808963984,colour,0.06
015,62,1,2,13,30,630,924.9493281377945,925.6962055278709,"[87, 0, 167]",167,l,0.22823231562506407,colour,0.06
015,62,1,2,13,31,631,926.2054869082058,926.936154375202,"[82, 0, 172]",172,l,0.2110365953994915,colour,0.06
015,62,1,2,13,32,632,927.4455728139728,928.1121815851657,"[50, 0, 204]",204,a,0.14836345077492297,colour,0.06
015,62,1,2,13,33,633,928.6212542270077,929.6241675075144,"[67, 0, 187]",187,a,0.4855608093785122,colour,0.06
015,62,1,2,13,34,634,930.1332854416687,931.1522282639053,"[55, 0, 199]",199,a,0.5012591264676303,colour,0.06
015,62,1,2,13,35,635,931.6613619518466,932.3761483571725,"[76, 0, 178]",178,l,0.19718344800639898,colour,0.06
015,62,1,2,13,36,636,932.8848661434604,933.5041861915961,"[30, 0, 224]",224,a,0.10009247506968677,colour,0.06
015,62,1,2,13,37,637,934.0137676827144,934.816249071504,"[90, 0, 164]",164,l,0.2830222340999171,colour,0.06
015,62,1,2,13,38,638,935.3268411720637,936.0164068463491,"[91, 0, 163]",163,l,0.1680683654267341,colour,0.06
015,62,1,2,13,39,639,936.5275987746427,937.232206224231,"[39, 0, 215]",215,a,0.18550315033644438,colour,0.06
015,62,1,2,13,40,640,937.7419452538015,938.4161859774031,"[63, 0, 191]",191,a,0.1538717842195183,colour,0.06
015,62,1,2,13,41,641,938.9251940284157,939.6561757846503,"[96, 0, 158]",158,l,0.21397114370483905,colour,0.06
015,62,1,2,13,42,642,940.164467429393,940.8801364441169,"[61, 0, 193]",193,a,0.1988781683612615,colour,0.06
015,62,1,2,13,43,643,941.3890921135899,942.4321473835735,"[86, 0, 168]",168,l,0.5240214692894369,colour,0.06
015,62,1,2,13,44,644,942.9410581545671,943.9201846981887,"[93, 0, 161]",161,l,0.46247078652959317,colour,0.06
015,62,1,2,13,45,645,944.430190361687,945.1684433070477,"[60, 0, 194]",194,a,0.21980833867564797,colour,0.06
015,62,1,2,13,46,646,945.6780834812671,946.4962340423372,"[56, 0, 198]",198,a,0.299566532834433,colour,0.06
015,62,1,2,13,47,647,947.0054807642009,947.7841588744195,"[88, 0, 166]",166,l,0.26071360206697136,colour,0.06
015,62,1,2,13,48,648,948.2932606608374,949.3202277062228,"[89, 0, 165]",165,l,0.5097252450650558,colour,0.06
015,62,1,2,13,49,649,949.829204643378,950.360460674041,"[64, 0, 190]",190,a,0.014161528903059661,colour,0.06
015,62,1,2,13,50,650,950.8746844307752,951.8801655886928,"[99, 0, 155]",155,l,0.4867935481015593,colour,0.06
015,62,1,2,14,1,651,957.1404861323535,959.3921991664683,"[54, 0, 200]",200,a,1.7334755905903876,colour,0.06
015,62,1,2,14,2,652,959.9014395867707,960.6001543089515,"[53, 0, 201]",201,a,0.18120865104719996,colour,0.06
015,62,1,2,14,3,653,961.1093277754262,961.6962453064043,"[90, 0, 164]",164,l,0.0700211338698864,colour,0.06
015,62,1,2,14,4,654,962.2057677205885,962.8402004363015,"[91, 0, 163]",163,l,0.1171243553981185,colour,0.06
015,62,1,2,14,5,655,963.3503018043702,963.9284074198222,"[65, 0, 189]",189,a,0.05863740236964077,colour,0.06
015,62,1,2,14,6,656,964.4379097478231,965.0242357216775,"[95, 0, 159]",159,l,0.06938861671369523,colour,0.06
015,62,1,2,14,7,657,965.5333075758535,966.1602635147283,"[73, 0, 181]",181,a,0.10960661852732301,colour,0.06
015,62,1,2,14,8,658,966.6701620520325,967.2807221722323,"[2, 0, 252]",252,a,0.09237663354724646,colour,0.06
015,62,1,2,14,9,659,967.7909558727406,968.5602446887642,"[77, 0, 177]",177,a,0.25042752001900226,colour,0.06
015,62,1,2,14,10,660,969.0702353861416,969.8082343006972,"[61, 0, 193]",193,a,0.22114938509184867,colour,0.06
015,62,1,2,14,11,661,970.3173534163507,971.2401457703672,"[62, 0, 192]",192,a,0.40573211677838117,colour,0.06
015,62,1,2,14,12,662,971.749377132277,972.6001625797944,"[64, 0, 190]",190,a,0.3310265759937465,colour,0.06
015,62,1,2,14,13,663,973.109765338595,973.6721935109235,"[37, 0, 217]",217,a,0.04379215638618916,colour,0.06
015,62,1,2,14,14,664,974.1814662265824,975.1521821838105,"[74, 0, 180]",180,a,0.4515340704238042,colour,0.06
015,62,1,2,14,15,665,975.6624580258504,976.2721670443425,"[59, 0, 195]",195,a,0.09008405462373048,colour,0.06
015,62,1,2,14,16,666,976.7810628492152,977.4650059746346,"[31, 0, 223]",223,a,0.16452374926302582,colour,0.06
015,62,1,2,14,17,667,977.9753542843973,978.7603492944036,"[67, 0, 187]",187,a,0.26749760343227535,colour,0.06
015,62,1,2,14,18,668,979.2704124593874,979.8483522655442,"[97, 0, 157]",157,l,0.05992134101688862,colour,0.06
015,62,1,2,14,19,669,980.357696267427,981.0801654312527,"[66, 0, 188]",188,a,0.20496466814074665,colour,0.06
015,62,1,2,14,20,670,981.5901128054829,982.2085986873135,"[78, 0, 176]",176,l,0.09664592682383955,colour,0.06
015,62,1,2,14,21,671,982.719341630931,983.4722322652815,"[63, 0, 191]",191,a,0.23610884649679065,colour,0.06
015,62,1,2,14,22,672,983.9822205996606,984.6721742124064,"[89, 0, 165]",165,l,0.1711446982808411,colour,0.06
015,62,1,2,14,23,673,985.1817647620337,985.8572173503926,"[57, 0, 197]",197,a,0.15351141488645226,colour,0.06
015,62,1,2,14,24,674,986.3673147800146,987.0081790047698,"[75, 0, 179]",179,a,0.12366771674714983,colour,0.06
015,62,1,2,14,25,675,987.517244163435,988.376156627899,"[52, 0, 202]",202,a,0.34167499642353505,colour,0.06
015,62,1,2,14,26,676,988.8854584882502,989.5282529533142,"[69, 0, 185]",185,a,0.12386030750349164,colour,0.06
015,62,1,2,14,27,677,990.0380282168044,990.7522116434993,"[84, 0, 170]",170,l,0.19585776154417545,colour,0.06
015,62,1,2,14,28,678,991.2628502179869,991.912137631909,"[83, 0, 171]",171,l,0.12984873936511576,colour,0.06
015,62,1,2,14,29,679,992.4215099907015,993.2081426132936,"[79, 0, 175]",175,l,0.2684258989756927,colour,0.06
015,62,1,2,14,30,680,993.7188406585483,994.448528236011,"[88, 0, 166]",166,l,0.20867666869889945,colour,0.06
015,62,1,2,14,31,681,994.9581179979723,995.6241596306209,"[55, 0, 199]",199,a,0.14939060166943818,colour,0.06
015,62,1,2,14,32,682,996.1332050970523,996.8404331994243,"[93, 0, 161]",161,l,0.18958536663558334,colour,0.06
015,62,1,2,14,33,683,997.3499674289487,997.9601986876223,"[99, 0, 155]",155,l,0.09249833214562386,colour,0.06
015,62,1,2,14,34,684,998.4692142216954,999.1444147485308,"[87, 0, 167]",167,l,0.15595601848326623,colour,0.06
015,62,1,2,14,35,685,999.6540033288766,1000.3042631491553,"[51, 0, 203]",203,a,0.1334106846479699,colour,0.06
015,62,1,2,14,36,686,1000.8133413047763,1001.9682126706466,"[80, 0, 174]",174,l,0.6379836333217099,colour,0.06
015,62,1,2,14,37,687,1002.4772872817703,1003.184159740922,"[81, 0, 173]",173,l,0.18986499740276486,colour,0.06
015,62,1,2,14,38,688,1003.6941937613301,1004.3761948309839,"[50, 0, 204]",204,a,0.16239028424024582,colour,0.06
015,62,1,2,14,39,689,1004.8852304512402,1005.728142518783,"[82, 0, 172]",172,a,0.32591011957265437,colour,0.06
015,62,1,2,14,40,690,1006.2376283053309,1007.3282452338608,"[92, 0, 162]",162,l,0.5710364693077281,colour,0.06
015,62,1,2,14,41,691,1007.8369263925124,1008.5042425115826,"[96, 0, 158]",158,l,0.15110422659199685,colour,0.06
015,62,1,2,14,42,692,1009.0139122243272,1009.8481998470379,"[68, 0, 186]",186,a,0.3146252434235066,colour,0.06
015,62,1,2,14,43,693,1010.357306359685,1011.2641999289626,"[58, 0, 196]",196,a,0.38908029813319445,colour,0.06
015,62,1,2,14,44,694,1011.7741563617019,1012.4321655004751,"[98, 0, 156]",156,l,0.1378123101312667,colour,0.06
015,62,1,2,14,45,695,1012.9419517916394,1013.9522000644356,"[72, 0, 182]",182,a,0.4899273825576529,colour,0.06
015,62,1,2,14,46,696,1014.4614944417262,1015.1841947932262,"[85, 0, 169]",169,a,0.2051915235351771,colour,0.06
015,62,1,2,14,47,697,1015.6933721981477,1016.496281303931,"[76, 0, 178]",178,a,0.2856905424268916,colour,0.06
015,62,1,2,14,48,698,1017.0056639027316,1017.9601466999156,"[86, 0, 168]",168,a,0.4362122705206275,colour,0.06
015,62,1,2,14,49,699,1018.4697766341269,1019.712153937202,"[94, 0, 160]",160,l,0.7221493606921285,colour,0.06
015,62,1,2,14,50,700,1020.2212506035576,1021.30417729076,"[71, 0, 183]",183,a,0.5658825977006927,colour,0.06
015,62,1,2,15,1,701,1026.7565132321324,1028.8241897992557,"[20, 0, 234]",234,l,1.5504686376079917,colour,0.06
015,62,1,2,15,2,702,1029.3337697150419,1030.0405929434346,"[51, 0, 203]",203,a,0.18691193836275488,colour,0.06
015,62,1,2,15,3,703,1030.55164269323,1031.1044803160476,"[54, 0, 200]",200,a,0.03213036945089698,colour,0.06
015,62,1,2,15,4,704,1031.6135876162443,1032.2641896889545,"[70, 0, 184]",184,a,0.13442602031864226,colour,0.06
015,62,1,2,15,5,705,1032.7731914384058,1033.9521626491332,"[83, 0, 171]",171,a,0.661039391765371,colour,0.06
015,62,1,2,15,6,706,1034.462165949517,1035.2561737366486,"[73, 0, 181]",181,a,0.27761157462373376,colour,0.06
015,62,1,2,15,7,707,1035.7671774064656,1036.4325853405753,"[62, 0, 192]",192,a,0.14493817009497434,colour,0.06
015,62,1,2,15,8,708,1036.9423759640194,1037.5521767487517,"[39, 0, 215]",215,l,0.09152119955979288,colour,0.06
015,62,1,2,15,9,709,1038.0609910273924,1041.0562589649344,"[90, 0, 164]",164,l,2.4772419893415645,colour,0.06
015,62,1,2,15,10,710,1041.566157896188,1042.2004311041674,"[56, 0, 198]",198,a,0.11450133949983865,colour,0.06
015,62,1,2,15,11,711,1042.7098621459445,1043.7121897771722,"[61, 0, 193]",193,a,0.48473688308149576,colour,0.06
015,62,1,2,15,12,712,1044.2216444498627,1044.944243582897,"[99, 0, 155]",155,l,0.2026165567804128,colour,0.06
015,62,1,2,15,13,713,1045.4531941323075,1046.1281886775978,"[86, 0, 168]",168,l,0.15811784041579813,colour,0.06
015,62,1,2,15,14,714,1046.637019103975,1047.9601333091268,"[75, 0, 179]",179,a,0.8026015119394287,colour,0.06
015,62,1,2,15,15,715,1048.4691531754797,1049.0324533233652,"[84, 0, 170]",170,l,0.04518637200817466,colour,0.06
015,62,1,2,15,16,716,1049.541847737506,1050.2883564876392,"[96, 0, 158]",158,l,0.22910547291394323,colour,0.06
015,62,1,2,15,17,717,1050.7995220283046,1051.4326826205943,"[94, 0, 160]",160,l,0.11202207743190229,colour,0.06
015,62,1,2,15,18,718,1051.9423224009806,1052.8561850794358,"[74, 0, 180]",180,a,0.3974440167658031,colour,0.06
015,62,1,2,15,19,719,1053.3651297211181,1054.0966880683554,"[60, 0, 194]",194,a,0.21354578982573003,colour,0.06
015,62,1,2,15,20,720,1054.6065669133095,1055.7921842790674,"[78, 0, 176]",176,a,0.6676528576062992,colour,0.06
015,62,1,2,15,21,721,1056.3024817826226,1057.0802095419494,"[66, 0, 188]",188,a,0.2590145494323224,colour,0.06
015,62,1,2,15,22,722,1057.5899154884974,1058.2802243506303,"[72, 0, 182]",182,a,0.17248968326020986,colour,0.06
015,62,1,2,15,23,723,1058.789150875411,1059.440173969837,"[82, 0, 172]",172,a,0.13194085063878447,colour,0.06
015,62,1,2,15,24,724,1059.9498460455798,1060.896271536476,"[52, 0, 202]",202,a,0.4271801948780194,colour,0.06
015,62,1,2,15,25,725,1061.405343390652,1062.0161988955224,"[55, 0, 199]",199,a,0.0910588240949437,colour,0.06
015,62,1,2,15,26,726,1062.5255783435423,1063.3765918280696,"[58, 0, 196]",196,a,0.33266655169427395,colour,0.06
015,62,1,2,15,27,727,1063.8863091961248,1064.4722468376858,"[85, 0, 169]",169,l,0.06989667844027281,colour,0.06
015,62,1,2,15,28,728,1064.981418334879,1065.7201824926306,"[77, 0, 177]",177,l,0.2223139883717522,colour,0.06
015,62,1,2,15,29,729,1066.2298163652886,1066.9841882553883,"[81, 0, 173]",173,l,0.23819623154122382,colour,0.06
015,62,1,2,15,30,730,1067.493621266447,1068.2082142933505,"[64, 0, 190]",190,a,0.19542413693852723,colour,0.06
015,62,1,2,15,31,731,1068.7174618028803,1069.3121826092247,"[65, 0, 189]",189,a,0.07752902456559241,colour,0.06
015,62,1,2,15,32,732,1069.8211808140622,1070.456172397593,"[87, 0, 167]",167,l,0.11822239868342876,colour,0.06
015,62,1,2,15,33,733,1070.9671063566348,1071.5363681549206,"[98, 0, 156]",156,l,0.049174065119586885,colour,0.06
015,62,1,2,15,34,734,1072.0467046492267,1072.728191355709,"[50, 0, 204]",204,a,0.1626687335083261,colour,0.06
015,62,1,2,15,35,735,1073.2380245146342,1074.0482075664913,"[67, 0, 187]",187,a,0.29386994102969766,colour,0.06
015,62,1,2,15,36,736,1074.5572290081764,1075.3202320385026,"[71, 0, 183]",183,a,0.24575374682899565,colour,0.06
015,62,1,2,15,37,737,1075.8293806925649,1076.5682385858381,"[68, 0, 186]",186,a,0.219743354129605,colour,0.06
015,62,1,2,15,38,738,1077.0772891722154,1077.7601889990037,"[91, 0, 163]",163,l,0.16618893120903522,colour,0.06
015,62,1,2,15,39,739,1078.2695152777014,1079.0561715310905,"[97, 0, 157]",157,l,0.2686110067879781,colour,0.06
015,62,1,2,15,40,740,1079.5663367023226,1080.2801597598009,"[80, 0, 174]",174,l,0.19299883185885847,colour,0.06
015,62,1,2,15,41,741,1080.7906656080158,1081.4562066622311,"[89, 0, 165]",165,l,0.14518629328813404,colour,0.06
015,62,1,2,15,42,742,1081.964997310075,1082.7761909713736,"[28, 0, 226]",226,a,0.2922362667741254,colour,0.06
015,62,1,2,15,43,743,1083.285145853064,1084.0162378862733,"[69, 0, 185]",185,a,0.21357729739975184,colour,0.06
015,62,1,2,15,44,744,1084.5252246696036,1085.2162117349217,"[76, 0, 178]",178,a,0.17383978806901723,colour,0.06
015,62,1,2,15,45,745,1085.7256270229118,1086.4001773096388,"[57, 0, 197]",197,a,0.15629787696525455,colour,0.06
015,62,1,2,15,46,746,1086.9095457298681,1087.600185816642,"[59, 0, 195]",195,a,0.1718957630218938,colour,0.06
015,62,1,2,15,47,747,1088.1097428892972,1088.8802238779608,"[63, 0, 191]",191,a,0.25342272059060633,colour,0.06
015,62,1,2,15,48,748,1089.3894973814022,1090.096321791294,"[95, 0, 159]",159,l,0.1881297108484432,colour,0.06
015,62,1,2,15,49,749,1090.6060734239873,1091.3522556755925,"[93, 0, 161]",161,l,0.2258708137087524,colour,0.06
015,62,1,2,15,50,750,1091.861361400457,1092.4161788881756,"[88, 0, 166]",166,l,0.036934899631887674,colour,0.06
015,62,1,2,16,1,751,1097.0924333474832,1098.4401857851772,"[56, 0, 198]",198,a,0.8300017880974337,colour,0.06
015,62,1,2,16,2,752,1098.9497806670843,1099.9761675768532,"[80, 0, 174]",174,a,0.5064610474510118,colour,0.06
015,62,1,2,16,3,753,1100.4867884281557,1101.3761968002655,"[51, 0, 203]",203,a,0.36797880474478006,colour,0.06
015,62,1,2,16,4,754,1101.885209971224,1102.90421738429,"[79, 0, 175]",175,a,0.501422178815119,colour,0.06
015,62,1,2,16,5,755,1103.4132530045463,1104.144231216167,"[74, 0, 180]",180,a,0.21329806046560407,colour,0.06
015,62,1,2,16,6,756,1104.6537918334361,1105.3682237771573,"[76, 0, 178]",178,a,0.19519806921016425,colour,0.06
015,62,1,2,16,7,757,1105.8769514096202,1106.680177167873,"[68, 0, 186]",186,a,0.28612495481502265,colour,0.06
015,62,1,2,16,8,758,1107.1889626956545,1107.9443243213464,"[26, 0, 228]",228,a,0.23565474175848067,colour,0.06
015,62,1,2,16,9,759,1108.4535064523807,1109.2082170502981,"[85, 0, 169]",169,l,0.23727975133806467,colour,0.06
015,62,1,2,16,10,760,1109.7176138275536,1110.3361670570448,"[96, 0, 158]",158,l,0.10026813053991646,colour,0.06
015,62,1,2,16,11,761,1110.845231428044,1111.504185010097,"[50, 0, 204]",204,a,0.1414707478834316,colour,0.06
015,62,1,2,16,12,762,1112.0147861690493,1112.6481795245782,"[99, 0, 155]",155,l,0.11299448378849775,colour,0.06
015,62,1,2,16,13,763,1113.1563782215817,1113.7683278312907,"[93, 0, 161]",161,l,0.09330374759156257,colour,0.06
015,62,1,2,16,14,764,1114.2776785285678,1114.8481691270135,"[97, 0, 157]",157,l,0.05397426290437579,colour,0.06
015,62,1,2,16,15,765,1115.3571586672915,1115.9922006630804,"[57, 0, 197]",197,a,0.11707433685660362,colour,0.06
015,62,1,2,16,16,766,1116.5014001233503,1117.1843495748471,"[55, 0, 199]",199,a,0.16587779275141656,colour,0.06
015,62,1,2,16,17,767,1117.6942819829565,1118.3444496432785,"[90, 0, 164]",164,l,0.1293753362260759,colour,0.06
015,62,1,2,16,18,768,1118.8540996635566,1119.728190568043,"[78, 0, 176]",176,l,0.3537310234969482,colour,0.06
015,62,1,2,16,19,769,1120.2381560592912,1121.5282356240787,"[82, 0, 172]",172,a,0.767512175720185,colour,0.06
015,62,1,2,16,20,770,1122.036902210326,1122.944196321303,"[86, 0, 168]",168,a,0.3908435476478189,colour,0.06
015,62,1,2,16,21,771,1123.4540554740233,1124.121095900773,"[66, 0, 188]",188,a,0.14493541314732283,colour,0.06
015,62,1,2,16,22,772,1124.630753404228,1125.232190864277,"[73, 0, 181]",181,a,0.0852298999670893,colour,0.06
015,62,1,2,16,23,773,1125.7412524783285,1126.3602373632602,"[54, 0, 200]",200,a,0.10244452476035804,colour,0.06
015,62,1,2,16,24,774,1126.8711878638715,1127.536195650231,"[92, 0, 162]",162,l,0.144067769870162,colour,0.06
015,62,1,2,16,25,775,1128.045843701344,1128.816225046874,"[61, 0, 193]",193,a,0.25088832015171647,colour,0.06
015,62,1,2,16,26,776,1129.325239399448,1129.9282301890198,"[70, 0, 184]",184,a,0.08624523552134633,colour,0.06
015,62,1,2,16,27,777,1130.437490301556,1131.0802134803962,"[65, 0, 189]",189,a,0.12631712015718222,colour,0.06
015,62,1,2,16,28,778,1131.5901155624306,1132.2324307166273,"[84, 0, 170]",170,l,0.12173196254298091,colour,0.06
015,62,1,2,16,29,779,1132.7418381276075,1133.4161985804094,"[77, 0, 177]",177,l,0.15755857864860445,colour,0.06
015,62,1,2,16,30,780,1133.9266807979438,1134.5122088394128,"[83, 0, 171]",171,l,0.06459944660309702,colour,0.06
015,62,1,2,16,31,781,1135.0215638688533,1136.0722219465533,"[67, 0, 187]",187,a,0.5299996612593532,colour,0.06
015,62,1,2,16,32,782,1136.5812752898782,1137.200244421023,"[52, 0, 202]",202,l,0.10169779229909182,colour,0.06
015,62,1,2,16,33,783,1137.7092812227784,1138.6081714428728,"[60, 0, 194]",194,a,0.3817323090042919,colour,0.06
015,62,1,2,16,34,784,1139.1187253403477,1139.664522173931,"[59, 0, 195]",195,a,0.025078158709220588,colour,0.06
015,62,1,2,16,35,785,1140.174417954404,1140.8082201222423,"[91, 0, 163]",163,l,0.11647214600816369,colour,0.06
015,62,1,2,16,36,786,1141.3172990656458,1141.9289462014567,"[81, 0, 173]",173,l,0.09351288003381342,colour,0.06
015,62,1,2,16,37,787,1142.4405485175084,1142.9842426062096,"[89, 0, 165]",165,l,0.024714244878850877,colour,0.06
015,62,1,2,16,38,788,1143.49485400517,1145.4321911005536,"[95, 0, 159]",159,l,1.4177389130927622,colour,0.06
015,62,1,2,16,39,789,1145.9416800377658,1146.920205965871,"[72, 0, 182]",182,a,0.4601849028840661,colour,0.06
015,62,1,2,16,40,790,1147.4309181894641,1148.1122095482424,"[58, 0, 196]",196,a,0.16028990224003792,colour,0.06
015,62,1,2,16,41,791,1148.6217095132452,1149.320196198416,"[53, 0, 201]",201,a,0.17830088431946933,colour,0.06
015,62,1,2,16,42,792,1149.8299182927003,1150.5042885916773,"[71, 0, 183]",183,a,0.15688943397253752,colour,0.06
015,62,1,2,16,43,793,1151.0135699718958,1151.6481905522523,"[94, 0, 160]",160,l,0.11715034919325262,colour,0.06
015,62,1,2,16,44,794,1152.1572052986594,1152.7122579126153,"[88, 0, 166]",166,l,0.03865443228278309,colour,0.06
015,62,1,2,16,45,795,1153.2214238959132,1153.960240829154,"[64, 0, 190]",190,a,0.22183546528685838,colour,0.06
015,62,1,2,16,46,796,1154.4691661724355,1155.1202538575744,"[62, 0, 192]",192,a,0.13308576156850904,colour,0.06
015,62,1,2,16,47,797,1155.629636062542,1156.3202505492372,"[69, 0, 185]",185,a,0.17384608963038772,colour,0.06
015,62,1,2,16,48,798,1156.8299017511308,1157.4962139562704,"[63, 0, 191]",191,a,0.14932207250967622,colour,0.06
015,62,1,2,16,49,799,1158.0059108443093,1158.704216360231,"[33, 0, 221]",221,a,0.18012006010394543,colour,0.06
015,62,1,2,16,50,800,1159.2150644608773,1159.864216785645,"[34, 0, 220]",220,a,0.1300385732902214,colour,0.06
