id,age,condition,counterbalance,block,trialinblock,trial,tstart,tend,trialstim,trialintensity,response,RT,trialtype,colourfreq
124,21,0,1,Practice,1,NA,5.5138953030109406e-06,0.5703153954818845,"[20, 0, 234]",234,a,0.014576614135876298,colour,0.5
124,21,0,1,Practice,2,NA,1.0790227276738733,1.7302824226208031,"[91, 0, 163]",163,l,0.1279852008447051,colour,0.5
124,21,0,1,Practice,3,NA,2.250803543254733,4.898270112695172,"[97, 0, 157]",157,l,2.12419995223172,colour,0.5
124,21,0,1,Practice,4,NA,5.408315731678158,5.938295444706455,"[28, 0, 226]",226,a,0.006453551584854722,colour,0.5
124,21,0,1,Practice,5,NA,6.4556153893936425,9.498292089207098,"[38, 0, 216]",216,a,2.5199051462113857,colour,0.5
124,21,0,1,Practice,6,NA,10.004463450517505,10.722241279901937,"[1, 0, 253]",253,a,0.1956659669522196,colour,0.5
124,21,0,1,Practice,7,NA,11.237575455801561,11.994266397785395,"[54, 0, 200]",200,a,0.23336642934009433,colour,0.5
124,21,0,1,Practice,8,NA,12.503222246654332,13.258343320572749,"[49, 0, 205]",205,a,0.2318938411772251,colour,0.5
124,21,0,1,Practice,9,NA,13.771462509641424,14.506281244335696,"[62, 0, 192]",192,a,0.2115127327851951,colour,0.5
124,21,0,1,Practice,10,NA,15.021388171240687,15.674259481951594,"[58, 0, 196]",196,a,0.12952986266463995,colour,0.5
124,21,0,1,1,1,1,4.449184680823237,5.248027326539159,"[56, 0, 198]",198,a,0.2749955002218485,colour,0.5
124,21,0,1,1,2,2,5.778927062638104,6.512054231017828,"[42, 0, 212]",212,a,0.21099049388431013,colour,0.5
124,21,0,1,1,3,3,7.028056368697435,7.807981435675174,"[34, 0, 220]",220,a,0.2546013949904591,colour,0.5
124,21,0,1,1,4,4,8.32678696536459,9.119973596651107,"[94, 0, 160]",160,l,0.26980107254348695,colour,0.5
124,21,0,1,1,5,5,9.639256860828027,10.447972424561158,"[77, 0, 177]",177,l,0.2854162573348731,colour,0.5
124,21,0,1,1,6,6,10.967397473286837,11.54393365746364,"[38, 0, 216]",216,a,0.05343695147894323,colour,0.5
124,21,0,1,1,7,7,12.061120482394472,12.799939111573622,"[89, 0, 165]",165,l,0.2148470284882933,colour,0.5
124,21,0,1,1,8,8,13.311544752446935,14.08003963669762,"[11, 0, 243]",243,a,0.24506048881448805,colour,0.5
124,21,0,1,1,9,9,14.59279727563262,15.287960498826578,"[71, 0, 183]",183,l,0.17184698162600398,colour,0.5
124,21,0,1,1,10,10,15.79607548750937,16.543887183768675,"[18, 0, 236]",236,a,0.22452932503074408,colour,0.5
124,21,0,1,1,11,11,17.061541109345853,17.87993778823875,"[1, 0, 253]",253,a,0.29497134196572006,colour,0.5
124,21,0,1,1,12,12,18.389608072582632,19.152060973690823,"[24, 0, 230]",230,a,0.2399176547769457,colour,0.5
124,21,0,1,1,13,13,19.672115781111643,20.607907944126055,"[84, 0, 170]",170,l,0.41236879536882043,colour,0.5
124,21,0,1,1,14,14,21.12518023350276,21.919970997143537,"[74, 0, 180]",180,l,0.27140599279664457,colour,0.5
124,21,0,1,1,15,15,22.437557575292885,23.207953945267946,"[17, 0, 237]",237,a,0.24785679136402905,colour,0.5
124,21,0,1,1,16,16,23.71908697183244,24.472028505057096,"[86, 0, 168]",168,l,0.2301802197471261,colour,0.5
124,21,0,1,1,17,17,24.9860578707885,25.77595195407048,"[87, 0, 167]",167,l,0.26694529922679067,colour,0.5
124,21,0,1,1,18,18,26.282908643130213,27.02393359458074,"[29, 0, 225]",225,a,0.21760670351795852,colour,0.5
124,21,0,1,1,19,19,27.53198832483031,28.29596737702377,"[98, 0, 156]",156,l,0.2406553274486214,colour,0.5
124,21,0,1,1,20,20,28.813199494266883,29.55191611731425,"[50, 0, 204]",204,a,0.21520385262556374,colour,0.5
124,21,0,1,1,21,21,30.063502065837383,30.84792209113948,"[66, 0, 188]",188,l,0.26136332750320435,colour,0.5
124,21,0,1,1,22,22,31.360038943355903,32.119929092004895,"[58, 0, 196]",196,l,0.23642345773987472,colour,0.5
124,21,0,1,1,23,23,32.64139071549289,33.35993142356165,"[59, 0, 195]",195,l,0.19524809694848955,colour,0.5
124,21,0,1,1,24,24,33.87699536886066,34.447931464528665,"[61, 0, 193]",193,l,0.04684437229298055,colour,0.5
124,21,0,1,1,25,25,34.955773912137374,35.69593200972304,"[69, 0, 185]",185,l,0.2171522059943527,colour,0.5
124,21,0,1,1,26,26,36.205742109334096,36.91994776041247,"[41, 0, 213]",213,a,0.1922702316660434,colour,0.5
124,21,0,1,1,27,27,37.44130422710441,38.159881562925875,"[21, 0, 233]",233,a,0.19526227563619614,colour,0.5
124,21,0,1,1,28,28,38.67563085188158,39.29595201695338,"[44, 0, 210]",210,a,0.097285341238603,colour,0.5
124,21,0,1,1,29,29,39.816323476377875,40.55989857693203,"[10, 0, 244]",244,a,0.2202883972786367,colour,0.5
124,21,0,1,1,30,30,41.066263316432014,41.82394674886018,"[57, 0, 197]",197,l,0.23438767064362764,colour,0.5
124,21,0,1,1,31,31,42.33192192250863,43.079864769242704,"[83, 0, 171]",171,l,0.22445370675995946,colour,0.5
124,21,0,1,1,32,32,43.59897198458202,44.31993366079405,"[78, 0, 176]",176,l,0.1976103822235018,colour,0.5
124,21,0,1,1,33,33,44.83331357548013,45.55988203547895,"[4, 0, 250]",250,a,0.20385519578121603,colour,0.5
124,21,0,1,1,34,34,46.06769179389812,46.81594853545539,"[30, 0, 224]",224,a,0.22497555194422603,colour,0.5
124,21,0,1,1,35,35,47.333279113983735,48.07992699672468,"[14, 0, 240]",240,a,0.22326547489501536,colour,0.5
124,21,0,1,1,36,36,48.60101643647067,49.31195041327737,"[51, 0, 203]",203,l,0.1875405414029956,colour,0.5
124,21,0,1,1,37,37,49.81979010393843,50.407843904802576,"[63, 0, 191]",191,l,0.06530351494438946,colour,0.5
124,21,0,1,1,38,38,50.92908930731937,52.08795986883342,"[9, 0, 245]",245,a,0.6355027260724455,colour,0.5
124,21,0,1,1,39,39,52.60107236239128,53.311911422526464,"[27, 0, 227]",227,a,0.1874861908145249,colour,0.5
124,21,0,1,1,40,40,53.81969755026512,54.511936077382416,"[99, 0, 155]",155,l,0.16963790240697563,colour,0.5
124,21,0,1,1,41,41,55.02286627329886,55.71193040604703,"[13, 0, 241]",241,a,0.1656344635412097,colour,0.5
124,21,0,1,1,42,42,56.22602160554379,56.95189807913266,"[40, 0, 214]",214,a,0.20290878508239985,colour,0.5
124,21,0,1,1,43,43,57.460445903940126,58.143817788222805,"[6, 0, 248]",248,a,0.15542086912319064,colour,0.5
124,21,0,1,1,44,44,58.65263342787512,59.2398546396289,"[28, 0, 226]",226,a,0.06391324056312442,colour,0.5
124,21,0,1,1,45,45,59.746136671397835,60.47183748986572,"[49, 0, 205]",205,l,0.20228217681869864,colour,0.5
124,21,0,1,1,46,46,60.98058696370572,61.70386248175055,"[54, 0, 200]",200,l,0.19991595344617963,colour,0.5
124,21,0,1,1,47,47,62.2149805421941,62.879890526644886,"[91, 0, 163]",163,l,0.1416059520561248,colour,0.5
124,21,0,1,1,48,48,63.38925794395618,64.08786810282618,"[45, 0, 209]",209,a,0.17561726411804557,colour,0.5
124,21,0,1,1,49,49,64.6080020731315,65.2959130264353,"[67, 0, 187]",187,l,0.16451042843982577,colour,0.5
124,21,0,1,1,50,50,65.81112156552263,66.51986773102544,"[39, 0, 215]",215,a,0.18536887760274112,colour,0.5
124,21,0,1,2,1,51,71.24824236612767,71.84780433122069,"[94, 0, 160]",160,l,0.075383989373222,colour,0.5
124,21,0,1,2,2,52,72.35945132607594,72.98383815796115,"[24, 0, 230]",230,a,0.10114935925230384,colour,0.5
124,21,0,1,2,3,53,73.50004982156679,74.22386333253235,"[0, 0, 254]",254,a,0.20047600171528757,colour,0.5
124,21,0,1,2,4,54,74.73440007679164,75.47986130346544,"[45, 0, 209]",209,l,0.22209496633149683,colour,0.5
124,21,0,1,2,5,55,76.00001693540253,76.59181266184896,"[47, 0, 207]",207,l,0.06659532804042101,colour,0.5
124,21,0,1,2,6,56,77.11154372850433,77.83985140989535,"[1, 0, 253]",253,a,0.2048335075378418,colour,0.5
124,21,0,1,2,7,57,78.36158675607294,78.99985585268587,"[9, 0, 245]",245,a,0.11497609177604318,colour,0.5
124,21,0,1,2,8,58,79.51660708454438,80.14389773877338,"[26, 0, 228]",228,a,0.10397480637766421,colour,0.5
124,21,0,1,2,9,59,80.65725087211467,81.35984950372949,"[84, 0, 170]",170,l,0.1796041615307331,colour,0.5
124,21,0,1,2,10,60,81.8784608677961,82.48781619383954,"[95, 0, 159]",159,l,0.08597134286537766,colour,0.5
124,21,0,1,2,11,61,83.003444572445,83.71187920612283,"[83, 0, 171]",171,l,0.18536927155219018,colour,0.5
124,21,0,1,2,12,62,84.22223635693081,84.88779776194133,"[82, 0, 172]",172,l,0.1423125108703971,colour,0.5
124,21,0,1,2,13,63,85.3940620708745,86.07985177240334,"[65, 0, 189]",189,l,0.16237657377496362,colour,0.5
124,21,0,1,2,14,64,86.59719337848946,87.27182228746824,"[31, 0, 223]",223,a,0.15165649424307048,colour,0.5
124,21,0,1,2,15,65,87.7880697909277,88.48777602170594,"[85, 0, 169]",169,l,0.17632106598466635,colour,0.5
124,21,0,1,2,16,66,89.00451583205722,89.73582934215665,"[53, 0, 201]",201,l,0.207987422356382,colour,0.5
124,21,0,1,2,17,67,90.25453798589297,90.95990889566019,"[68, 0, 186]",186,l,0.18207199731841683,colour,0.5
124,21,0,1,2,18,68,91.46292161638848,92.18381515727378,"[28, 0, 226]",226,a,0.19758281274698675,colour,0.5
124,21,0,1,2,19,69,92.69728014268912,93.2317863216158,"[66, 0, 188]",188,l,0.011254133889451623,colour,0.5
124,21,0,1,2,20,70,93.73912740382366,94.35193242249079,"[54, 0, 200]",200,l,0.08963056118227541,colour,0.5
124,21,0,1,2,21,71,94.8641000809148,95.42382339667529,"[64, 0, 190]",190,l,0.03644488309510052,colour,0.5
124,21,0,1,2,22,72,95.94217049027793,96.54378281463869,"[42, 0, 212]",212,a,0.08555741142481565,colour,0.5
124,21,0,1,2,23,73,97.0597601402551,97.6238244206179,"[34, 0, 220]",220,a,0.04061491880565882,colour,0.5
124,21,0,1,2,24,74,98.13807276450098,98.72780513484031,"[20, 0, 234]",234,a,0.07384129683487117,colour,0.5
124,21,0,1,2,25,75,99.23997200559825,99.86384683824144,"[32, 0, 222]",222,a,0.10063381539657712,colour,0.5
124,21,0,1,2,26,76,100.37370853149332,101.08778145676479,"[73, 0, 181]",181,l,0.19095399999059737,colour,0.5
124,21,0,1,2,27,77,101.60802058386616,102.27179905050434,"[33, 0, 221]",221,l,0.14039960340596735,colour,0.5
124,21,0,1,2,28,78,102.7797931288369,103.43978398363106,"[63, 0, 191]",191,l,0.136467844247818,colour,0.5
124,21,0,1,2,29,79,103.95180631312542,104.55178181594238,"[90, 0, 164]",164,l,0.07692431914620101,colour,0.5
124,21,0,1,2,30,80,105.06107873492874,105.63974326010793,"[86, 0, 168]",168,l,0.055156087037175894,colour,0.5
124,21,0,1,2,31,81,106.15490690083243,106.7997874810826,"[19, 0, 235]",235,a,0.12016658089123666,colour,0.5
124,21,0,1,2,32,82,107.31259868294,107.95182049158029,"[18, 0, 236]",236,a,0.11589020700193942,colour,0.5
124,21,0,1,2,33,83,108.46891515655443,109.15172738651745,"[89, 0, 165]",165,l,0.15957003110088408,colour,0.5
124,21,0,1,2,34,84,109.67191964620724,110.36781305889599,"[4, 0, 250]",250,l,0.1725228202994913,colour,0.5
124,21,0,1,2,35,85,110.87501511373557,111.60779412277043,"[5, 0, 249]",249,a,0.20938242273405194,colour,0.5
124,21,0,1,2,36,86,112.12503332924098,112.68777035037056,"[87, 0, 167]",167,l,0.0393057765904814,colour,0.5
124,21,0,1,2,37,87,113.20321086444892,113.94376162579283,"[50, 0, 204]",204,l,0.21720813191495836,colour,0.5
124,21,0,1,2,38,88,114.45314479689114,115.18376316968352,"[25, 0, 229]",229,a,0.20728952786885202,colour,0.5
124,21,0,1,2,39,89,115.70309684611857,116.33574655582197,"[91, 0, 163]",163,l,0.10925233573652804,colour,0.5
124,21,0,1,2,40,90,116.84373866464011,117.5997966970317,"[60, 0, 194]",194,l,0.23042479786090553,colour,0.5
124,21,0,1,2,41,91,118.1115835069213,118.85600734455511,"[70, 0, 184]",184,l,0.22948744567111135,colour,0.5
124,21,0,1,2,42,92,119.36887604789808,119.99176272237673,"[77, 0, 177]",177,l,0.09944519004784524,colour,0.5
124,21,0,1,2,43,93,120.50102380127646,121.21576626366004,"[3, 0, 251]",251,a,0.1912493840791285,colour,0.5
124,21,0,1,2,44,94,121.72222158778459,122.45572369685397,"[43, 0, 211]",211,a,0.21016499353572726,colour,0.5
124,21,0,1,2,45,95,122.97223783377558,123.69575005304068,"[62, 0, 192]",192,l,0.2074510045349598,colour,0.5
124,21,0,1,2,46,96,124.20525216544047,124.88772844523191,"[23, 0, 231]",231,a,0.15910174883902073,colour,0.5
124,21,0,1,2,47,97,125.40843270393088,126.15181048796512,"[41, 0, 213]",213,a,0.22005169629119337,colour,0.5
124,21,0,1,2,48,98,126.66086164722219,127.27174706291407,"[17, 0, 237]",237,a,0.08755893399938941,colour,0.5
124,21,0,1,2,49,99,127.78596468712203,128.44773336034268,"[12, 0, 242]",242,a,0.13846660987474024,colour,0.5
124,21,0,1,2,50,100,128.95771163189784,129.55976860783994,"[56, 0, 198]",198,l,0.0786828389391303,colour,0.5
124,21,0,1,3,1,101,134.00493173277937,134.7117744430434,"[42, 0, 212]",212,a,0.18281990964896977,colour,0.5
124,21,0,1,3,2,102,135.22455019899644,135.83175434125587,"[23, 0, 231]",231,a,0.08394028199836612,colour,0.5
124,21,0,1,3,3,103,136.34954965743236,136.95171651639976,"[11, 0, 243]",243,a,0.0788407709915191,colour,0.5
124,21,0,1,3,4,104,137.45882089762017,138.1437476836145,"[35, 0, 219]",219,a,0.16151956585235894,colour,0.5
124,21,0,1,3,5,105,138.66331491060555,139.2716994076036,"[14, 0, 240]",240,a,0.08482800959609449,colour,0.5
124,21,0,1,3,6,106,139.78840692271478,140.43972175614908,"[64, 0, 190]",190,l,0.12804033933207393,colour,0.5
124,21,0,1,3,7,107,140.96024839044549,141.66370599903166,"[70, 0, 184]",184,l,0.18008977314457297,colour,0.5
124,21,0,1,3,8,108,142.1790389935486,142.8477566759102,"[10, 0, 244]",244,a,0.14494930603541434,colour,0.5
124,21,0,1,3,9,109,143.36647319677286,144.03170731617138,"[20, 0, 234]",234,a,0.14057250157929957,colour,0.5
124,21,0,1,3,10,110,144.53955291444436,145.19173932797275,"[28, 0, 226]",226,a,0.1287882518954575,colour,0.5
124,21,0,1,3,11,111,145.7114625175018,147.17570036556572,"[90, 0, 164]",164,l,0.940767218824476,colour,0.5
124,21,0,1,3,12,112,147.68157555512153,149.46374278422445,"[40, 0, 214]",214,a,1.2587722181342542,colour,0.5
124,21,0,1,3,13,113,149.97856811177917,150.559698109515,"[22, 0, 232]",232,a,0.057855503633618355,colour,0.5
124,21,0,1,3,14,114,151.0722820626106,151.71969428146258,"[80, 0, 174]",174,l,0.12299202824942768,colour,0.5
124,21,0,1,3,15,115,152.22981000505388,152.95167319336906,"[83, 0, 171]",171,l,0.1984725098591298,colour,0.5
124,21,0,1,3,16,116,153.46418270957656,154.1917153033428,"[3, 0, 251]",251,a,0.20414230902679265,colour,0.5
124,21,0,1,3,17,117,154.69855068810284,155.47170515777543,"[61, 0, 193]",193,l,0.2497893909458071,colour,0.5
124,21,0,1,3,18,118,155.97978903283365,156.71966868150048,"[57, 0, 197]",197,l,0.21637593652121723,colour,0.5
124,21,0,1,3,19,119,157.22973832511343,157.95970921614207,"[30, 0, 224]",224,a,0.20660344930365682,colour,0.5
124,21,0,1,3,20,120,158.4797396052163,159.01567938155495,"[5, 0, 249]",249,a,0.011215537087991834,colour,0.5
124,21,0,1,3,21,121,159.52797464584,160.167741142679,"[6, 0, 248]",248,a,0.11619110475294292,colour,0.5
124,21,0,1,3,22,122,160.68431475036778,161.27968344278634,"[71, 0, 183]",183,l,0.07194768777117133,colour,0.5
124,21,0,1,3,23,123,161.793648611987,162.49574390915222,"[74, 0, 180]",180,l,0.1787388832308352,colour,0.5
124,21,0,1,3,24,124,163.0124167657923,163.56768214469776,"[19, 0, 235]",235,a,0.03034342941828072,colour,0.5
124,21,0,1,3,25,125,164.07654307666235,164.68766873818822,"[97, 0, 157]",157,l,0.08784407819621265,colour,0.5
124,21,0,1,3,26,126,165.20147518767044,165.82367105712183,"[63, 0, 191]",191,l,0.09877250180579722,colour,0.5
124,21,0,1,3,27,127,166.34210991673172,166.91181485168636,"[96, 0, 158]",158,l,0.04708107351325452,colour,0.5
124,21,0,1,3,28,128,167.42027130443603,168.00769810331985,"[33, 0, 221]",221,a,0.06407708022743464,colour,0.5
124,21,0,1,3,29,129,168.5140557535924,169.16763598588295,"[75, 0, 179]",179,l,0.13035811972804368,colour,0.5
124,21,0,1,3,30,130,169.6872685912531,170.2717183122877,"[16, 0, 238]",238,a,0.06152535555884242,colour,0.5
124,21,0,1,3,31,131,170.78105264646,171.4076871543657,"[94, 0, 160]",160,l,0.10340057988651097,colour,0.5
124,21,0,1,3,32,132,171.92158576357178,172.46365771372803,"[4, 0, 250]",250,a,0.018609197810292244,colour,0.5
124,21,0,1,3,33,133,172.9840425637085,174.11965024960227,"[92, 0, 162]",162,l,0.612060256768018,colour,0.5
124,21,0,1,3,34,134,174.62628556089476,175.63171078194864,"[58, 0, 196]",196,l,0.48205069033429027,colour,0.5
124,21,0,1,3,35,135,176.14198246831074,176.86364085716195,"[27, 0, 227]",227,a,0.19840988842770457,colour,0.5
124,21,0,1,3,36,136,177.37620945018716,178.89568136655726,"[87, 0, 167]",167,l,0.9961430716793984,colour,0.5
124,21,0,1,3,37,137,179.40716570289806,180.16765292128548,"[53, 0, 201]",201,l,0.23739665001630783,colour,0.5
124,21,0,1,3,38,138,180.68834694009274,181.29566805437207,"[60, 0, 194]",194,l,0.08399581420235336,colour,0.5
124,21,0,1,3,39,139,181.81334600457922,182.46367031661794,"[36, 0, 218]",218,a,0.12684974423609674,colour,0.5
124,21,0,1,3,40,140,182.9852540323045,183.73566038231365,"[73, 0, 181]",181,l,0.22635716176591814,colour,0.5
124,21,0,1,3,41,141,184.25169520941563,184.9196342593059,"[89, 0, 165]",165,l,0.14458578685298562,colour,0.5
124,21,0,1,3,42,142,185.43936965824105,186.1436362254899,"[59, 0, 195]",195,l,0.181268552551046,colour,0.5
124,21,0,1,3,43,143,186.65781604032964,187.35163270612247,"[38, 0, 216]",216,a,0.17038778425194323,colour,0.5
124,21,0,1,3,44,144,187.86251327744685,188.58376167318784,"[34, 0, 220]",220,a,0.19783054175786674,colour,0.5
124,21,0,1,3,45,145,189.09686550218612,189.8316334306728,"[69, 0, 185]",185,l,0.21129926852881908,colour,0.5
124,21,0,1,3,46,146,190.346882536076,191.0316608424764,"[32, 0, 222]",222,a,0.1613955048378557,colour,0.5
124,21,0,1,3,47,147,191.5500185699202,192.15161277749576,"[98, 0, 156]",156,l,0.07826457521878183,colour,0.5
124,21,0,1,3,48,148,192.65975809236988,193.39961017179303,"[31, 0, 223]",223,a,0.2165634068660438,colour,0.5
124,21,0,1,3,49,149,193.91199444513768,194.53561682300642,"[85, 0, 169]",169,l,0.10149239865131676,colour,0.5
124,21,0,1,3,50,150,195.05184502806515,195.7516304217279,"[0, 0, 254]",254,a,0.1768629972357303,colour,0.5
124,21,0,1,4,1,151,200.25405591889285,200.91158011974767,"[26, 0, 228]",228,a,0.1333576466422528,colour,0.5
124,21,0,1,4,2,152,201.42669768072665,202.00762327271514,"[48, 0, 206]",206,a,0.05748883355408907,colour,0.5
124,21,0,1,4,3,153,202.52055577887222,203.11967112333514,"[14, 0, 240]",240,a,0.0758782655466348,colour,0.5
124,21,0,1,4,4,154,203.62982189911418,204.23966086748987,"[62, 0, 192]",192,l,0.0864274159539491,colour,0.5
124,21,0,1,4,5,155,204.75618445663713,205.43967685778625,"[78, 0, 176]",176,l,0.16006706398911774,colour,0.5
124,21,0,1,4,6,156,205.9593858688604,206.80760098109022,"[41, 0, 213]",213,a,0.3249512519687414,colour,0.5
124,21,0,1,4,7,157,207.31874818587676,207.91961614252068,"[96, 0, 158]",158,l,0.07758361636660993,colour,0.5
124,21,0,1,4,8,158,208.4280832291115,209.1916361404583,"[77, 0, 177]",177,l,0.2404469831380993,colour,0.5
124,21,0,1,4,9,159,209.70910653402098,210.335586654488,"[68, 0, 186]",186,l,0.10314930649474263,colour,0.5
124,21,0,1,4,10,160,210.8518447917886,211.38358853873797,"[7, 0, 247]",247,a,0.008446409832686186,colour,0.5
124,21,0,1,4,11,161,211.89864426571876,212.51155247190036,"[33, 0, 221]",221,a,0.08952973666600883,colour,0.5
124,21,0,1,4,12,162,213.0235547150951,213.647563849343,"[75, 0, 179]",179,l,0.10076929838396609,colour,0.5
124,21,0,1,4,13,163,214.16419771523215,214.8075765625108,"[35, 0, 219]",219,a,0.11876094643957913,colour,0.5
124,21,0,1,4,14,164,215.32183002657257,216.12765437061898,"[50, 0, 204]",204,a,0.2824301209766418,colour,0.5
124,21,0,1,4,15,165,216.6343219773844,217.31158531852998,"[31, 0, 223]",223,a,0.15390298864804208,colour,0.5
124,21,0,1,4,16,166,217.82185424794443,218.45559687865898,"[1, 0, 253]",253,a,0.11115972907282412,colour,0.5
124,21,0,1,4,17,167,218.96259610331617,219.8875634239521,"[25, 0, 229]",229,a,0.4016873126383871,colour,0.5
124,21,0,1,4,18,168,220.40005167247728,221.15958302794024,"[55, 0, 199]",199,l,0.236265919636935,colour,0.5
124,21,0,1,4,19,169,221.68127308180556,222.3195902274456,"[82, 0, 172]",172,l,0.1150052361190319,colour,0.5
124,21,0,1,4,20,170,222.8374804602936,223.54369656252675,"[2, 0, 252]",252,a,0.18142412160523236,colour,0.5
124,21,0,1,4,21,171,224.057741682278,224.69556337036192,"[29, 0, 225]",225,a,0.11466849828138947,colour,0.5
124,21,0,1,4,22,172,225.21396126993932,225.8635400326457,"[23, 0, 231]",231,a,0.12625031173229218,colour,0.5
124,21,0,1,4,23,173,226.3703328820411,227.10358174866997,"[44, 0, 210]",210,l,0.21000666776672006,colour,0.5
124,21,0,1,4,24,174,227.62033022358082,228.31953075667843,"[84, 0, 170]",170,l,0.17596581717953086,colour,0.5
124,21,0,1,4,25,175,228.8403094522655,229.50363539042883,"[5, 0, 249]",249,a,0.14024994219653308,colour,0.5
124,21,0,1,4,26,176,230.01234075357206,230.6635370394215,"[8, 0, 246]",246,a,0.1279556625522673,colour,0.5
124,21,0,1,4,27,177,231.1841003014706,231.83159050159156,"[63, 0, 191]",191,l,0.12404714012518525,colour,0.5
124,21,0,1,4,28,178,232.34033327992074,232.9275753654074,"[34, 0, 220]",220,a,0.06406053877435625,colour,0.5
124,21,0,1,4,29,179,233.43405353231356,234.1995354986284,"[57, 0, 197]",197,l,0.240918809780851,colour,0.5
124,21,0,1,4,30,180,234.71676800958812,235.39153318922035,"[53, 0, 201]",201,a,0.15144578693434596,colour,0.5
124,21,0,1,4,31,181,235.90428846492432,236.59964388492517,"[87, 0, 167]",167,l,0.17245271592400968,colour,0.5
124,21,0,1,4,32,182,237.1074130772613,237.79154035705142,"[65, 0, 189]",189,l,0.15943927434273064,colour,0.5
124,21,0,1,4,33,183,238.31189173040912,238.91156633524224,"[17, 0, 237]",237,a,0.07644343376159668,colour,0.5
124,21,0,1,4,34,184,239.42119802278467,241.30357568361796,"[13, 0, 241]",241,a,1.3589928899891675,colour,0.5
124,21,0,1,4,35,185,241.81337318010628,242.55962564214133,"[91, 0, 163]",163,l,0.22278104536235332,colour,0.5
124,21,0,1,4,36,186,243.07910937373526,243.68753207381815,"[70, 0, 184]",184,l,0.09106100792996585,colour,0.5
124,21,0,1,4,37,187,244.20383195881732,245.65554158273153,"[92, 0, 162]",162,l,0.9283213084563613,colour,0.5
124,21,0,1,4,38,188,246.17262010020204,247.04756353423,"[99, 0, 155]",155,l,0.35179693973623216,colour,0.5
124,21,0,1,4,39,189,247.5630367374979,248.30353787424974,"[42, 0, 212]",212,a,0.2169852154329419,colour,0.5
124,21,0,1,4,40,190,248.81308646057732,249.487592095742,"[97, 0, 157]",157,l,0.15118112275376916,colour,0.5
124,21,0,1,4,41,191,250.00068174651824,250.77549509331584,"[98, 0, 156]",156,l,0.251459295861423,colour,0.5
124,21,0,1,4,42,192,251.28182793129236,252.01562739396468,"[36, 0, 218]",218,a,0.21040602726861835,colour,0.5
124,21,0,1,4,43,193,252.53191073727794,253.10350219206885,"[12, 0, 242]",242,a,0.048302782233804464,colour,0.5
124,21,0,1,4,44,194,253.61263251421042,254.36753461021,"[60, 0, 194]",194,l,0.23145746067166328,colour,0.5
124,21,0,1,4,45,195,254.87826867122203,255.66354964254424,"[85, 0, 169]",169,l,0.2632065243087709,colour,0.5
124,21,0,1,4,46,196,256.173808332067,257.11950964666903,"[45, 0, 209]",209,a,0.42259538639336824,colour,0.5
124,21,0,1,4,47,197,257.6269810919184,258.39151861681603,"[30, 0, 224]",224,a,0.24128548009321094,colour,0.5
124,21,0,1,4,48,198,258.91060141380876,259.5435086982325,"[72, 0, 182]",182,l,0.10978678381070495,colour,0.5
124,21,0,1,4,49,199,260.0512298415415,260.807531664148,"[24, 0, 230]",230,a,0.23295013466849923,colour,0.5
124,21,0,1,4,50,200,261.31687190616503,262.25547218718566,"[83, 0, 171]",171,l,0.4152753746602684,colour,0.5
124,21,0,1,5,1,201,267.1932481499389,268.04749185428955,"[57, 0, 197]",197,l,0.3303630822338164,colour,0.5
124,21,0,1,5,2,202,268.569254769478,269.1834847209975,"[95, 0, 159]",159,l,0.09177780663594604,colour,0.5
124,21,0,1,5,3,203,269.69327473430894,270.40752646536566,"[84, 0, 170]",170,l,0.19088547094725072,colour,0.5
124,21,0,1,5,4,204,270.9142011613585,271.4474820869509,"[1, 0, 253]",253,a,0.010423907777294517,colour,0.5
124,21,0,1,5,5,205,271.96107192127965,272.63150834548287,"[0, 0, 254]",254,a,0.14708434254862368,colour,0.5
124,21,0,1,5,6,206,273.14849982294254,273.7195142940618,"[93, 0, 161]",161,l,0.04762497404590249,colour,0.5
124,21,0,1,5,7,207,274.22660410311073,275.0555058217142,"[38, 0, 216]",216,a,0.30546692945063114,colour,0.5
124,21,0,1,5,8,208,275.5703524169512,276.20746754622087,"[46, 0, 208]",208,a,0.11371617997065187,colour,0.5
124,21,0,1,5,9,209,276.7281513249036,277.3514838325791,"[36, 0, 218]",218,a,0.10002847504802048,colour,0.5
124,21,0,1,5,10,210,277.86871988815255,278.55150966881774,"[77, 0, 177]",177,l,0.1594873236026615,colour,0.5
124,21,0,1,5,11,211,279.07183701731265,279.79947082931176,"[9, 0, 245]",245,a,0.20435813628137112,colour,0.5
124,21,0,1,5,12,212,280.3061994819436,281.0315084240865,"[11, 0, 243]",243,a,0.20196710037998855,colour,0.5
124,21,0,1,5,13,213,281.5405694297515,283.41543212532997,"[23, 0, 231]",231,a,1.3517315613571554,colour,0.5
124,21,0,1,5,14,214,283.9327733376995,284.6554443030618,"[10, 0, 244]",244,a,0.1994212835561484,colour,0.5
124,21,0,1,5,15,215,285.1670192240272,285.9915019965265,"[61, 0, 193]",193,l,0.30120591539889574,colour,0.5
124,21,0,1,5,16,216,286.5107549347449,287.20744509692304,"[91, 0, 163]",163,l,0.17329278821125627,colour,0.5
124,21,0,1,5,17,217,287.71382480254397,288.43946103029884,"[41, 0, 213]",213,a,0.20231525972485542,colour,0.5
124,21,0,1,5,18,218,288.94820262724534,289.53544668178074,"[96, 0, 158]",158,l,0.0625158769544214,colour,0.5
124,21,0,1,5,19,219,290.0435825444292,290.7594852754846,"[82, 0, 172]",172,l,0.1926215416751802,colour,0.5
124,21,0,1,5,20,220,291.2779962087516,292.01543007721193,"[69, 0, 185]",185,l,0.21418024809099734,colour,0.5
124,21,0,1,5,21,221,292.5280002458021,293.30341893294826,"[59, 0, 195]",195,l,0.25203352235257626,colour,0.5
124,21,0,1,5,22,222,293.8248498365283,294.53545574028976,"[71, 0, 183]",183,l,0.18790012248791754,colour,0.5
124,21,0,1,5,23,223,295.0435825444292,295.7114668497816,"[88, 0, 166]",166,l,0.1445905128493905,colour,0.5
124,21,0,1,5,24,224,296.23101083980873,296.8634746542666,"[25, 0, 229]",229,a,0.10915820649825037,colour,0.5
124,21,0,1,5,25,225,297.3715699505992,298.0634618937038,"[90, 0, 164]",164,l,0.1688939284067601,colour,0.5
124,21,0,1,5,26,226,298.57614352041855,299.31946852919646,"[98, 0, 156]",156,l,0.2201974189374596,colour,0.5
124,21,0,1,5,27,227,299.8259821422398,300.4314655738417,"[18, 0, 236]",236,a,0.08195845177397132,colour,0.5
124,21,0,1,5,28,228,300.9459624341689,301.5114630688913,"[30, 0, 224]",224,a,0.03701320197433233,colour,0.5
124,21,0,1,5,29,229,302.02948484616354,302.6794519403484,"[60, 0, 194]",194,l,0.12660437868908048,colour,0.5
124,21,0,1,5,30,230,303.1857245201245,303.83943826612085,"[16, 0, 238]",238,a,0.13068737462162971,colour,0.5
124,21,0,1,5,31,231,304.3575561416801,305.2153948675841,"[99, 0, 155]",155,l,0.3342613645363599,colour,0.5
124,21,0,1,5,32,232,305.732604929246,306.4155128635466,"[86, 0, 168]",168,l,0.16020412207581103,colour,0.5
124,21,0,1,5,33,233,306.93563895719126,307.5677404338494,"[20, 0, 234]",234,l,0.10675141704268754,colour,0.5
124,21,0,1,5,34,234,308.07859382987954,308.7836000388488,"[15, 0, 239]",239,a,0.18196211429312825,colour,0.5
124,21,0,1,5,35,235,309.297143005766,309.9114599968307,"[76, 0, 178]",178,l,0.09100311249494553,colour,0.5
124,21,0,1,5,36,236,310.42221414414234,311.1914250392001,"[28, 0, 226]",226,a,0.24579697963781655,colour,0.5
124,21,0,1,5,37,237,311.70351077779196,312.32740845368244,"[7, 0, 247]",247,a,0.10106625780463219,colour,0.5
124,21,0,1,5,38,238,312.8441904054489,313.62343293824233,"[54, 0, 200]",200,l,0.2558195588644594,colour,0.5
124,21,0,1,5,39,239,314.1423349601682,315.559435414616,"[55, 0, 199]",199,l,0.8937290743924677,colour,0.5
124,21,0,1,5,40,240,316.0796843881253,317.94339219876565,"[65, 0, 189]",189,l,1.3395310167688876,colour,0.5
124,21,0,1,5,41,241,318.455557100242,319.1754644520115,"[19, 0, 235]",235,a,0.19666751590557396,colour,0.5
124,21,0,1,5,42,242,319.6898931772448,320.31941181537695,"[79, 0, 175]",175,l,0.10642964509315789,colour,0.5
124,21,0,1,5,43,243,320.83048812812194,321.47142355842516,"[64, 0, 190]",190,l,0.11582364700734615,colour,0.5
124,21,0,1,5,44,244,321.9893063080963,322.7594002049882,"[40, 0, 214]",214,a,0.24716126057319343,colour,0.5
124,21,0,1,5,45,245,323.2705068436917,323.8554071239196,"[92, 0, 162]",162,l,0.06158758304081857,colour,0.5
124,21,0,1,5,46,246,324.36426017899066,324.9833667248022,"[27, 0, 227]",227,a,0.0958678915631026,colour,0.5
124,21,0,1,5,47,247,325.50475784996524,326.15141546097584,"[14, 0, 240]",240,a,0.12322518485598266,colour,0.5
124,21,0,1,5,48,248,326.6611341882963,327.2554201995954,"[33, 0, 221]",221,a,0.07094377581961453,colour,0.5
124,21,0,1,5,49,249,327.77188471192494,328.32741987518966,"[32, 0, 222]",222,a,0.03217599238269031,colour,0.5
124,21,0,1,5,50,250,328.83443957963027,329.58341115061194,"[43, 0, 211]",211,l,0.22582310740835965,colour,0.5
124,21,0,1,6,1,251,334.88168449280784,335.43939722748473,"[87, 0, 167]",167,l,0.03360328823328018,colour,0.5
124,21,0,1,6,2,252,335.96062963292934,336.6553407215979,"[62, 0, 192]",192,l,0.1713479794561863,colour,0.5
124,21,0,1,6,3,253,337.1637361282483,337.87935804761946,"[44, 0, 210]",210,a,0.19225526531226933,colour,0.5
124,21,0,1,6,4,254,338.39817657438107,338.9593523920048,"[88, 0, 166]",166,l,0.03793598199263215,colour,0.5
124,21,0,1,6,5,255,339.47625407297164,340.087410060456,"[42, 0, 212]",212,a,0.08784486586228013,colour,0.5
124,21,0,1,6,6,256,340.60126337758265,341.25533040286973,"[92, 0, 162]",162,l,0.13117259205318987,colour,0.5
124,21,0,1,6,7,257,341.77304025460035,342.99936393951066,"[26, 0, 228]",228,a,0.703161830548197,colour,0.5
124,21,0,1,6,8,258,343.5075061037205,344.1113251443021,"[69, 0, 185]",185,l,0.08066033711656928,colour,0.5
124,21,0,1,6,9,259,344.6325083191041,345.34340054844506,"[36, 0, 218]",218,a,0.18783631944097579,colour,0.5
124,21,0,1,6,10,260,345.8526529627852,346.91138280322775,"[41, 0, 213]",213,a,0.5353738204576075,colour,0.5
124,21,0,1,6,11,261,347.43085393169895,348.15145563310944,"[59, 0, 195]",195,a,0.1974130654707551,colour,0.5
124,21,0,1,6,12,262,348.6650690981187,349.1913923500106,"[58, 0, 196]",196,a,0.0029447823762893677,colour,0.5
124,21,0,1,6,13,263,349.7145943765063,350.4313742015511,"[5, 0, 249]",249,a,0.19343798328191042,colour,0.5
124,21,0,1,6,14,264,350.94898244109936,351.6394108545501,"[31, 0, 223]",223,a,0.16705348854884505,colour,0.5
124,21,0,1,6,15,265,352.1521113857161,352.8553830992896,"[46, 0, 208]",208,a,0.17994168703444302,colour,0.5
124,21,0,1,6,16,266,353.3709279827308,353.99133776314557,"[71, 0, 183]",183,l,0.09721563081257045,colour,0.5
124,21,0,1,6,17,267,354.5115497149527,355.20734033407643,"[54, 0, 200]",200,l,0.17247989121824503,colour,0.5
124,21,0,1,6,18,268,355.71464951499365,356.2473640907556,"[53, 0, 201]",201,a,0.009499946143478155,colour,0.5
124,21,0,1,6,19,269,356.7614320535213,357.48735421313904,"[17, 0, 237]",237,a,0.2024913087952882,colour,0.5
124,21,0,1,6,20,270,357.99583547818474,358.7194150448777,"[80, 0, 174]",174,l,0.20017195283435285,colour,0.5
124,21,0,1,6,21,271,359.23147754673846,359.79932746943086,"[81, 0, 173]",173,l,0.044505324214696884,colour,0.5
124,21,0,1,6,22,272,360.3096917096991,360.9273217287846,"[83, 0, 171]",171,l,0.09440554352477193,colour,0.5
124,21,0,1,6,23,273,361.43467698968016,362.1912970393896,"[98, 0, 156]",156,l,0.24290024628862739,colour,0.5
124,21,0,1,6,24,274,362.70633307425305,363.36734280735254,"[91, 0, 163]",163,l,0.13782661105506122,colour,0.5
124,21,0,1,6,25,275,363.8745188685134,364.45546730351634,"[29, 0, 225]",225,a,0.05776098067872226,colour,0.5
124,21,0,1,6,26,276,364.96820288710296,366.2153192490805,"[74, 0, 180]",180,l,0.7237607357092202,colour,0.5
124,21,0,1,6,27,277,366.733745111851,367.46331743127666,"[28, 0, 226]",226,a,0.20621314854361117,colour,0.5
124,21,0,1,6,28,278,367.9838019241579,368.6073443512432,"[15, 0, 239]",239,a,0.10019467771053314,colour,0.5
124,21,0,1,6,29,279,369.1257548541762,369.8393342909403,"[37, 0, 217]",217,a,0.1903585058171302,colour,0.5
124,21,0,1,6,30,280,370.36008384195156,370.9673013749998,"[96, 0, 158]",158,l,0.08391822664998472,colour,0.5
124,21,0,1,6,31,281,371.4851703401655,372.4073027612176,"[18, 0, 236]",236,a,0.39890952059067786,colour,0.5
124,21,0,1,6,32,282,372.92254280811176,373.91930185374804,"[70, 0, 184]",184,l,0.47107539884746075,colour,0.5
124,21,0,1,6,33,283,374.4404925117269,375.1832917367574,"[67, 0, 187]",187,l,0.2196661215275526,colour,0.5
124,21,0,1,6,34,284,375.6894134734757,376.39130042656325,"[43, 0, 211]",211,a,0.17867311113514006,colour,0.5
124,21,0,1,6,35,285,376.9079811600968,377.6712847673334,"[33, 0, 221]",221,a,0.2400397469755262,colour,0.5
124,21,0,1,6,36,286,378.18934356607497,378.8713279326912,"[76, 0, 178]",178,l,0.15519952797330916,colour,0.5
124,21,0,1,6,37,287,379.3803137135692,380.13533829548396,"[47, 0, 207]",207,a,0.23249878780916333,colour,0.5
124,21,0,1,6,38,288,380.64591796905734,381.26327190268785,"[23, 0, 231]",231,a,0.09406959335319698,colour,0.5
124,21,0,1,6,39,289,381.80866278824396,382.4316116904374,"[97, 0, 157]",157,l,0.1060692765749991,colour,0.5
124,21,0,1,6,40,290,382.9426911538467,383.61529963556677,"[4, 0, 250]",250,a,0.14911658479832113,colour,0.5
124,21,0,1,6,41,291,384.13151366240345,384.83927915245295,"[55, 0, 199]",199,a,0.18442167923785746,colour,0.5
124,21,0,1,6,42,292,385.35035310219973,385.99123536329716,"[6, 0, 248]",248,a,0.11748331179842353,colour,0.5
124,21,0,1,6,43,293,386.5064927393105,387.0953444710467,"[82, 0, 172]",172,l,0.06571587128564715,colour,0.5
124,21,0,1,6,44,294,387.61591600370593,388.29533052886836,"[93, 0, 161]",161,l,0.15611679409630597,colour,0.5
124,21,0,1,6,45,295,388.80479719513096,389.4633099480998,"[11, 0, 243]",243,a,0.13526740320958197,colour,0.5
124,21,0,1,6,46,296,389.9767158566974,390.56730484077707,"[39, 0, 215]",215,a,0.06735663139261305,colour,0.5
124,21,0,1,6,47,297,391.0860705920495,391.79925697110593,"[65, 0, 189]",189,l,0.19019663520157337,colour,0.5
124,21,0,1,6,48,298,392.3203865829855,392.9992950167507,"[25, 0, 229]",229,a,0.15556107833981514,colour,0.5
124,21,0,1,6,49,299,393.50997590855695,394.1992984036915,"[9, 0, 245]",245,a,0.16601294884458184,colour,0.5
124,21,0,1,6,50,300,394.71300284704193,395.3113013559487,"[22, 0, 232]",232,a,0.07480464270338416,colour,0.5
124,21,0,1,7,1,301,399.88651225040667,400.8632229871582,"[87, 0, 167]",167,l,0.45280727138742805,colour,0.5
124,21,0,1,7,2,302,401.371758996509,401.95128880022094,"[25, 0, 229]",229,a,0.05626830644905567,colour,0.5
124,21,0,1,7,3,303,402.4653516430408,403.06326772784814,"[23, 0, 231]",231,a,0.07452580030076206,colour,0.5
124,21,0,1,7,4,304,403.57721556769684,404.4312194203958,"[50, 0, 204]",204,a,0.330653740093112,colour,0.5
124,21,0,1,7,5,305,404.9522501770407,405.71930201142095,"[64, 0, 190]",190,l,0.24365997430868447,colour,0.5
124,21,0,1,7,6,306,406.2335621707607,406.81525457976386,"[90, 0, 164]",164,l,0.05836356431245804,colour,0.5
124,21,0,1,7,7,307,407.32722374005243,408.00725620868616,"[56, 0, 198]",198,l,0.15662761172279716,colour,0.5
124,21,0,1,7,8,308,408.5170474036131,410.27124215313233,"[48, 0, 206]",206,a,1.231051405891776,colour,0.5
124,21,0,1,7,9,309,410.781954158796,412.44725759513676,"[69, 0, 185]",185,l,1.1418178409803659,colour,0.5
124,21,0,1,7,10,310,412.95383382961154,413.9512584740296,"[0, 0, 254]",254,a,0.47414463642053306,colour,0.5
124,21,0,1,7,11,311,414.47136448160745,415.3592981202528,"[7, 0, 247]",247,a,0.36456619715318084,colour,0.5
124,21,0,1,7,12,312,415.8775904693175,416.5352080115117,"[39, 0, 215]",215,a,0.13421898684464395,colour,0.5
124,21,0,1,7,13,313,417.04951385688037,417.6472503482364,"[91, 0, 163]",163,l,0.07436550501734018,colour,0.5
124,21,0,1,7,14,314,418.158918610774,418.81519747222774,"[45, 0, 209]",209,a,0.13298821984790266,colour,0.5
124,21,0,1,7,15,315,419.33070415235125,419.9512214525603,"[58, 0, 196]",196,a,0.09714788920246065,colour,0.5
124,21,0,1,7,16,316,420.4714267090894,421.09527042810805,"[63, 0, 191]",191,a,0.10053732339292765,colour,0.5
124,21,0,1,7,17,317,421.61338790971786,422.27921279752627,"[77, 0, 177]",177,l,0.14238537242636085,colour,0.5
124,21,0,1,7,18,318,422.7883734458592,423.5272428810131,"[17, 0, 237]",237,a,0.21549017820507288,colour,0.5
124,21,0,1,7,19,319,424.03496008575894,424.6952951615676,"[8, 0, 246]",246,a,0.1370475848671049,colour,0.5
124,21,0,1,7,20,320,425.2068180949427,425.8232650025748,"[55, 0, 199]",199,a,0.09325866564176977,colour,0.5
124,21,0,1,7,21,321,426.32259251130745,426.8952319887467,"[68, 0, 186]",186,a,0.04940791241824627,colour,0.5
124,21,0,1,7,22,322,427.41634939145297,427.9752271207981,"[26, 0, 228]",228,a,0.035565820056945086,colour,0.5
124,21,0,1,7,23,323,428.49462853884324,429.03920298279263,"[19, 0, 235]",235,a,0.026854746276512742,colour,0.5
124,21,0,1,7,24,324,429.5515817424748,431.2472207311075,"[53, 0, 201]",201,a,1.1726610602345318,colour,0.5
124,21,0,1,7,25,325,431.76209962158464,432.97519325022586,"[93, 0, 161]",161,l,0.6898029868025333,colour,0.5
124,21,0,1,7,26,326,433.49635752034374,434.45521799940616,"[89, 0, 165]",165,l,0.4420292966533452,colour,0.5
124,21,0,1,7,27,327,434.97452528821304,435.8952508934308,"[43, 0, 211]",211,a,0.40369671233929694,colour,0.5
124,21,0,1,7,28,328,436.40584750217386,437.15922029619105,"[30, 0, 224]",224,a,0.23027671175077558,colour,0.5
124,21,0,1,7,29,329,437.671277678106,438.39121141750365,"[96, 0, 158]",158,l,0.19648871035315096,colour,0.5
124,21,0,1,7,30,330,438.90572600089945,439.9032128730323,"[52, 0, 202]",202,a,0.4722384244669229,colour,0.5
124,21,0,1,7,31,331,440.4235587324947,441.2151735264342,"[1, 0, 253]",253,a,0.2684198566712439,colour,0.5
124,21,0,1,7,32,332,441.73475611326285,442.40727991820313,"[97, 0, 157]",157,l,0.14913312648423016,colour,0.5
124,21,0,1,7,33,333,442.92235573148355,443.6071690900717,"[16, 0, 238]",238,a,0.161543590715155,colour,0.5
124,21,0,1,7,34,334,444.1254799498711,445.1111935998779,"[36, 0, 218]",218,a,0.4628778996411711,colour,0.5
124,21,0,1,7,35,335,445.62555773439817,446.38317342544906,"[11, 0, 243]",243,a,0.2344762859866023,colour,0.5
124,21,0,1,7,36,336,446.89104462391697,447.671195758041,"[32, 0, 222]",222,a,0.25679905246943235,colour,0.5
124,21,0,1,7,37,337,448.18790169782005,449.16716179600917,"[4, 0, 250]",250,a,0.4558666627854109,colour,0.5
124,21,0,1,7,38,338,449.68795309448615,450.6472046622075,"[88, 0, 166]",166,l,0.43595068575814366,colour,0.5
124,21,0,1,7,39,339,451.1581817257684,451.903160097776,"[10, 0, 244]",244,a,0.22189174219965935,colour,0.5
124,21,0,1,7,40,340,452.4236520738341,453.4151997563895,"[95, 0, 159]",159,l,0.46842836355790496,colour,0.5
124,21,0,1,7,41,341,453.92342147720046,454.71118249348365,"[84, 0, 170]",170,l,0.26461688498966396,colour,0.5
124,21,0,1,7,42,342,455.22029981878586,456.3271623002365,"[49, 0, 205]",205,a,0.5835627811029553,colour,0.5
124,21,0,1,7,43,343,456.846614130307,457.53513396857306,"[6, 0, 248]",248,a,0.16544778062961996,colour,0.5
124,21,0,1,7,44,344,458.0498316902667,458.65518554649316,"[18, 0, 236]",236,a,0.08205888234078884,colour,0.5
124,21,0,1,7,45,345,459.17482602852397,459.9281310811639,"[12, 0, 242]",242,a,0.23006206611171365,colour,0.5
124,21,0,1,7,46,346,460.4403786903713,461.0311819263734,"[47, 0, 207]",207,a,0.06762956641614437,colour,0.5
124,21,0,1,7,47,347,461.5498429147992,462.23917052987963,"[59, 0, 195]",195,a,0.16598931793123484,colour,0.5
124,21,0,1,7,48,348,462.7543392907828,463.49523309152573,"[99, 0, 155]",155,l,0.217616549693048,colour,0.5
124,21,0,1,7,49,349,464.0043488414958,464.79918135283515,"[80, 0, 174]",174,l,0.27168798609636724,colour,0.5
124,21,0,1,7,50,350,465.3167265772354,465.99917449988425,"[75, 0, 179]",179,l,0.15916476398706436,colour,0.5
124,21,0,1,8,1,351,471.3649482270703,471.96712611359544,"[31, 0, 223]",223,a,0.0781184583902359,colour,0.5
124,21,0,1,8,2,352,472.47515209321864,473.1271459162235,"[53, 0, 201]",201,a,0.12879100861027837,colour,0.5
124,21,0,1,8,3,353,473.64701128401794,474.4071507367771,"[28, 0, 226]",226,a,0.23536558891646564,colour,0.5
124,21,0,1,8,4,354,474.9140696169343,475.63111804449,"[82, 0, 172]",172,l,0.1939976376015693,colour,0.5
124,21,0,1,8,5,355,476.1485171522945,476.8231263689231,"[34, 0, 220]",220,a,0.1513678056653589,colour,0.5
124,21,0,1,8,6,356,477.33601830899715,477.967105633812,"[10, 0, 244]",244,a,0.10782740288414061,colour,0.5
124,21,0,1,8,7,357,478.4766333459411,479.1031087404117,"[37, 0, 217]",217,a,0.1032237431500107,colour,0.5
124,21,0,1,8,8,358,479.6172405059915,480.29521473823115,"[72, 0, 182]",182,a,0.15466035343706608,colour,0.5
124,21,0,1,8,9,359,480.80619770963676,481.4151717934292,"[62, 0, 192]",192,l,0.08589651226066053,colour,0.5
124,21,0,1,8,10,360,481.9310502638109,482.5511118848808,"[86, 0, 168]",168,l,0.09690606826916337,colour,0.5
124,21,0,1,8,11,361,483.0717062605545,483.74310327367857,"[96, 0, 158]",158,l,0.15181166934780777,colour,0.5
124,21,0,1,8,12,362,484.2612361155916,484.97512117633596,"[69, 0, 185]",185,l,0.19090083078481257,colour,0.5
124,21,0,1,8,13,363,485.49555407557636,486.23912720708176,"[25, 0, 229]",229,a,0.2202679174952209,colour,0.5
124,21,0,1,8,14,364,486.74556559557095,487.3190557791386,"[48, 0, 206]",206,a,0.05020190472714603,colour,0.5
124,21,0,1,8,15,365,487.83930475241505,488.4631161761936,"[2, 0, 252]",252,a,0.10068501555360854,colour,0.5
124,21,0,1,8,16,366,488.97980714961886,489.7030838492792,"[79, 0, 175]",175,l,0.19982812576927245,colour,0.5
124,21,0,1,8,17,367,490.21421766350977,490.79911794373766,"[30, 0, 224]",224,a,0.06045764056034386,colour,0.5
124,21,0,1,8,18,368,491.3090847937856,491.91110435454175,"[49, 0, 205]",205,a,0.07868953444994986,colour,0.5
124,21,0,1,8,19,369,492.41844149841927,493.0710918616969,"[45, 0, 209]",209,a,0.12928252783603966,colour,0.5
124,21,0,1,8,20,370,493.59032313828357,494.2951458154712,"[89, 0, 165]",165,l,0.18154424452222884,colour,0.5
124,21,0,1,8,21,371,494.8090491506737,495.5351434207987,"[87, 0, 167]",167,l,0.20279535744339228,colour,0.5
124,21,0,1,8,22,372,496.04341712919995,496.7910913734231,"[77, 0, 177]",177,l,0.22431192244403064,colour,0.5
124,21,0,1,8,23,373,497.3090383200906,497.9911022435408,"[75, 0, 179]",179,l,0.15878549101762474,colour,0.5
124,21,0,1,8,24,374,498.5122227969114,499.0790865307208,"[40, 0, 214]",214,a,0.04265937069430947,colour,0.5
124,21,0,1,8,25,375,499.5916448838543,500.3752181411255,"[74, 0, 180]",180,l,0.26029640017077327,colour,0.5
124,21,0,1,8,26,376,500.88860868965276,501.5590825290419,"[61, 0, 193]",193,a,0.1473182865884155,colour,0.5
124,21,0,1,8,27,377,502.0760558899492,502.7430768860504,"[26, 0, 228]",228,a,0.14439319632947445,colour,0.5
124,21,0,1,8,28,378,503.263505453011,503.8311025269795,"[58, 0, 196]",196,a,0.044260352151468396,colour,0.5
124,21,0,1,8,29,379,504.34380935993977,504.96711272280663,"[83, 0, 171]",171,l,0.09993513347581029,colour,0.5
124,21,0,1,8,30,380,505.48438580008224,506.08708631945774,"[32, 0, 222]",222,a,0.07923107175156474,colour,0.5
124,21,0,1,8,31,381,506.593638923252,507.28725748485886,"[93, 0, 161]",161,l,0.1699911819305271,colour,0.5
124,21,0,1,8,32,382,507.79691910464317,508.5350587440189,"[5, 0, 249]",249,a,0.21320311748422682,colour,0.5
124,21,0,1,8,33,383,509.0486316429451,509.65510047599673,"[95, 0, 159]",159,l,0.08313762512989342,colour,0.5
124,21,0,1,8,34,384,510.17356651090086,510.75106997974217,"[22, 0, 232]",232,a,0.05531953275203705,colour,0.5
124,21,0,1,8,35,385,511.2662269251887,511.9750514656771,"[1, 0, 253]",253,a,0.1855488650035113,colour,0.5
124,21,0,1,8,36,386,512.4849328512792,513.1750501266215,"[54, 0, 200]",200,a,0.1666994213592261,colour,0.5
124,21,0,1,8,37,387,513.6881126021035,514.3030585644301,"[16, 0, 238]",238,a,0.0895927520468831,colour,0.5
124,21,0,1,8,38,388,514.8141427540686,515.3430500258692,"[11, 0, 243]",243,a,0.005641836207360029,colour,0.5
124,21,0,1,8,39,389,515.8610666831955,516.5670224535279,"[18, 0, 236]",236,a,0.18155093980021775,colour,0.5
124,21,0,1,8,40,390,517.0808816782665,517.7830415661447,"[76, 0, 178]",178,l,0.1774537656456232,colour,0.5
124,21,0,1,8,41,391,518.3010042665992,518.9910478927195,"[23, 0, 231]",231,a,0.16671675047837198,colour,0.5
124,21,0,1,8,42,392,519.5041351804975,520.2310801565181,"[52, 0, 202]",202,a,0.2035456330049783,colour,0.5
124,21,0,1,8,43,393,520.7385791710112,521.471067521954,"[17, 0, 237]",237,a,0.20921346289105713,colour,0.5
124,21,0,1,8,44,394,521.9884520573542,522.6870720623992,"[51, 0, 203]",203,a,0.17308050557039678,colour,0.5
124,21,0,1,8,45,395,523.1938251333777,523.7350251097232,"[57, 0, 197]",197,a,0.030284352600574493,colour,0.5
124,21,0,1,8,46,396,524.2553689996712,524.8231106151361,"[38, 0, 216]",216,a,0.0444812998175621,colour,0.5
124,21,0,1,8,47,397,525.3334606767166,525.8950862658676,"[94, 0, 160]",160,l,0.038231759797781706,colour,0.5
124,21,0,1,8,48,398,526.4138772233855,527.0550422654487,"[36, 0, 218]",218,a,0.1178728248924017,colour,0.5
124,21,0,1,8,49,399,527.5701145341154,528.1430482142605,"[43, 0, 211]",211,a,0.049685179721564054,colour,0.5
124,21,0,1,8,50,400,528.6637954020407,529.391224414343,"[85, 0, 169]",169,l,0.20423525641672313,colour,0.5
124,21,0,1,9,1,401,533.7739626406692,534.8552086257841,"[32, 0, 222]",222,a,0.5571148772723973,colour,0.5
124,21,0,1,9,2,402,535.3798091977369,536.4150516705122,"[36, 0, 218]",218,a,0.5076640355400741,colour,0.5
124,21,0,1,9,3,403,536.9310250575654,537.6790482487995,"[1, 0, 253]",253,a,0.22460691258311272,colour,0.5
124,21,0,1,9,4,404,538.1971499768551,538.8071098558139,"[69, 0, 185]",185,l,0.08768693380989134,colour,0.5
124,21,0,1,9,5,405,539.3216559467837,539.9430609748233,"[96, 0, 158]",158,l,0.09854840394109488,colour,0.5
124,21,0,1,9,6,406,540.4622020609677,541.03907340765,"[78, 0, 176]",176,l,0.054112396435812116,colour,0.5
124,21,0,1,9,7,407,541.5579565248918,542.1590284935664,"[64, 0, 190]",190,a,0.07780141290277243,colour,0.5
124,21,0,1,9,8,408,542.6674810077529,543.3110394487157,"[49, 0, 205]",205,a,0.12088928720913827,colour,0.5
124,21,0,1,9,9,409,543.8235355743673,544.3910629376769,"[47, 0, 207]",207,a,0.04672306799329817,colour,0.5
124,21,0,1,9,10,410,544.9054814230185,545.4630437085871,"[38, 0, 216]",216,a,0.03503019013442099,colour,0.5
124,21,0,1,9,11,411,545.9834195000585,546.6630329173058,"[15, 0, 239]",239,a,0.15702775865793228,colour,0.5
124,21,0,1,9,12,412,547.1708123495337,547.807022028137,"[42, 0, 212]",212,a,0.11271384335123003,colour,0.5
124,21,0,1,9,13,413,548.327065808,549.0709800096229,"[19, 0, 235]",235,a,0.22158611798658967,colour,0.5
124,21,0,1,9,14,414,549.5770115558989,550.3110012458637,"[86, 0, 168]",168,l,0.2113855208735913,colour,0.5
124,21,0,1,9,15,415,550.8294093853328,551.7829738247674,"[61, 0, 193]",193,a,0.43113041133619845,colour,0.5
124,21,0,1,9,16,416,552.2970027967822,553.0150567118544,"[37, 0, 217]",217,a,0.19528157403692603,colour,0.5
124,21,0,1,9,17,417,553.531336510554,554.1990510688629,"[83, 0, 171]",171,l,0.14521869644522667,colour,0.5
124,21,0,1,9,18,418,554.7190318333451,555.3750259445515,"[52, 0, 202]",202,a,0.1325809834524989,colour,0.5
124,21,0,1,9,19,419,555.8911005498376,556.4710108083673,"[0, 0, 254]",254,a,0.0566582134924829,colour,0.5
124,21,0,1,9,20,420,556.9858321973588,557.7030629755463,"[82, 0, 172]",172,l,0.19493499002419412,colour,0.5
124,21,0,1,9,21,421,558.2202017512172,558.886981714284,"[18, 0, 236]",236,a,0.14472835906781256,colour,0.5
124,21,0,1,9,22,422,559.4072042999323,560.1270084641874,"[95, 0, 159]",159,l,0.19668878382071853,colour,0.5
124,21,0,1,9,23,423,560.641736905789,561.3670391526539,"[67, 0, 187]",187,l,0.2020084543619305,colour,0.5
124,21,0,1,9,24,424,561.8729438805021,562.5669708598871,"[33, 0, 221]",221,a,0.17087890952825546,colour,0.5
124,21,0,1,9,25,425,563.0760850342922,563.6949875683058,"[43, 0, 211]",211,a,0.0954736522398889,colour,0.5
124,21,0,1,9,26,426,564.2011498711072,564.7429736985359,"[75, 0, 179]",179,l,0.018478047102689743,colour,0.5
124,21,0,1,9,27,427,565.2635909174569,565.8789303314406,"[14, 0, 240]",240,a,0.0920101753436029,colour,0.5
124,21,0,1,9,28,428,566.3886719020084,567.0230092392303,"[81, 0, 173]",173,l,0.11160359298810363,colour,0.5
124,21,0,1,9,29,429,567.5296630612575,568.1109951017424,"[2, 0, 252]",252,a,0.05800792179070413,colour,0.5
124,21,0,1,9,30,430,568.6233699228615,569.2549767296296,"[72, 0, 182]",182,l,0.10860209679231048,colour,0.5
124,21,0,1,9,31,431,569.7639542398974,570.4069872910623,"[68, 0, 186]",186,l,0.11973020015284419,colour,0.5
124,21,0,1,9,32,432,570.9201962768566,571.5269916076213,"[40, 0, 214]",214,a,0.08334951382130384,colour,0.5
124,21,0,1,9,33,433,572.0452398459893,572.7669565237593,"[97, 0, 157]",157,l,0.1983523869421333,colour,0.5
124,21,0,1,9,34,434,573.2796097937971,573.838906180812,"[24, 0, 230]",230,a,0.0359927483368665,colour,0.5
124,21,0,1,9,35,435,574.3576991076116,574.9189509374555,"[87, 0, 167]",167,l,0.03788163117133081,colour,0.5
124,21,0,1,9,36,436,575.4358081137761,576.014975973405,"[60, 0, 194]",194,a,0.05579451029188931,colour,0.5
124,21,0,1,9,37,437,576.5312045724131,577.2069590915926,"[22, 0, 232]",232,a,0.1524418219923973,colour,0.5
124,21,0,1,9,38,438,577.718641532585,578.3029494693037,"[63, 0, 191]",191,a,0.06100626732222736,colour,0.5
124,21,0,1,9,39,439,578.8132491186261,579.3829824104905,"[71, 0, 183]",183,l,0.04736346076242626,colour,0.5
124,21,0,1,9,40,440,579.8904672465287,580.5029264686164,"[59, 0, 195]",195,l,0.08933793380856514,colour,0.5
124,21,0,1,9,41,441,581.0156045507174,581.6629218528979,"[54, 0, 200]",200,l,0.12414363236166537,colour,0.5
124,21,0,1,9,42,442,582.1717910554726,582.9029576613102,"[13, 0, 241]",241,a,0.2066613445058465,colour,0.5
124,21,0,1,9,43,443,583.4236126891337,584.3909404517617,"[57, 0, 197]",197,a,0.4445286397822201,colour,0.5
124,21,0,1,9,44,444,584.9080331476871,585.5909351741429,"[34, 0, 220]",220,a,0.16086302557960153,colour,0.5
124,21,0,1,9,45,445,586.1102219831664,586.7349483098369,"[35, 0, 219]",219,a,0.10143607878126204,colour,0.5
124,21,0,1,9,46,446,587.2508311124984,588.5509421373717,"[21, 0, 233]",233,a,0.7767794232349843,colour,0.5
124,21,0,1,9,47,447,589.0659281539265,589.6950293160044,"[99, 0, 155]",155,l,0.10708579188212752,colour,0.5
124,21,0,1,9,48,448,590.2052947008051,590.8468969112728,"[25, 0, 229]",229,a,0.11838639923371375,colour,0.5
124,21,0,1,9,49,449,591.360951089533,591.9030356425792,"[94, 0, 160]",160,l,0.01934056868776679,colour,0.5
124,21,0,1,9,50,450,592.4108749395236,592.9429566056933,"[30, 0, 224]",224,a,0.00881465501151979,colour,0.5
124,21,0,1,10,1,451,600.6143591327127,601.2388940504752,"[59, 0, 195]",195,a,0.10042035137303174,colour,0.5
124,21,0,1,10,2,452,601.7572639870923,602.342881066259,"[3, 0, 251]",251,a,0.06250484939664602,colour,0.5
124,21,0,1,10,3,453,602.8510275625158,603.3828788290266,"[0, 0, 254]",254,a,0.008527935482561588,colour,0.5
124,21,0,1,10,4,454,603.8979573992547,604.430911827134,"[38, 0, 216]",216,a,0.009664573706686497,colour,0.5
124,21,0,1,10,5,455,604.9447155194357,605.5189169880468,"[39, 0, 215]",215,a,0.05674485955387354,colour,0.5
124,21,0,1,10,6,456,606.0330578121357,606.7188920183107,"[84, 0, 170]",170,l,0.1551124881953001,colour,0.5
124,21,0,1,10,7,457,607.2281515218783,607.8149237495381,"[71, 0, 183]",183,l,0.06340478616766632,colour,0.5
124,21,0,1,10,8,458,608.3218477496412,608.8548789771739,"[69, 0, 185]",185,l,0.009695293614640832,colour,0.5
124,21,0,1,10,9,459,609.3688528109342,609.9348815924022,"[99, 0, 155]",155,l,0.042726324405521154,colour,0.5
124,21,0,1,10,10,460,610.4470027771313,611.0148373399861,"[5, 0, 249]",249,a,0.04487987142056227,colour,0.5
124,21,0,1,10,11,461,611.5251314754132,612.0868960921653,"[61, 0, 193]",193,a,0.03855471312999725,colour,0.5
124,21,0,1,10,12,462,612.6049525279086,613.2708857229445,"[4, 0, 250]",250,a,0.14263388863764703,colour,0.5
124,21,0,1,10,13,463,613.792443838669,614.3188824872486,"[52, 0, 202]",202,a,0.0030845976434648037,colour,0.5
124,21,0,1,10,14,464,614.8392858479638,615.4068793773185,"[98, 0, 156]",156,l,0.04496257868595421,colour,0.5
124,21,0,1,10,15,465,615.9174322695471,616.542857671855,"[26, 0, 228]",228,a,0.10209183138795197,colour,0.5
124,21,0,1,10,16,466,617.0580339157023,617.6469262135215,"[12, 0, 242]",242,a,0.06543821026571095,colour,0.5
124,21,0,1,10,17,467,618.1675087739713,619.3588814316317,"[83, 0, 171]",171,a,0.6656878294888884,colour,0.5
124,21,0,1,10,18,468,619.8729249760509,620.7428555449005,"[58, 0, 196]",196,l,0.3466970347799361,colour,0.5
124,21,0,1,10,19,469,621.2635802836157,621.8868907359429,"[80, 0, 174]",174,l,0.1000599826220423,colour,0.5
124,21,0,1,10,20,470,622.4042024097871,622.9908639669884,"[18, 0, 236]",236,a,0.06339021376334131,colour,0.5
124,21,0,1,10,21,471,623.4978891853243,624.0548284074757,"[68, 0, 186]",186,l,0.03386637684889138,colour,0.5
124,21,0,1,10,22,472,624.5619182165246,625.7108583585359,"[86, 0, 168]",168,l,0.6263166745193303,colour,0.5
124,21,0,1,10,23,473,626.2180466288701,627.0710016710218,"[19, 0, 235]",235,a,0.32961083739064634,colour,0.5
124,21,0,1,10,24,474,627.5773585336283,628.3108697014395,"[67, 0, 187]",187,l,0.21040287637151778,colour,0.5
124,21,0,1,10,25,475,628.8281246614642,629.4228726536967,"[8, 0, 246]",246,a,0.07212609983980656,colour,0.5
124,21,0,1,10,26,476,629.9367507828865,630.646869499702,"[60, 0, 194]",194,a,0.18665163218975067,colour,0.5
124,21,0,1,10,27,477,631.155546111986,631.7508738446049,"[50, 0, 204]",204,a,0.07093314197845757,colour,0.5
124,21,0,1,10,28,478,632.2661706053186,632.8948286909144,"[49, 0, 205]",205,a,0.10549111128784716,colour,0.5
124,21,0,1,10,29,479,633.4068982820027,633.9508315455168,"[15, 0, 239]",239,a,0.020770621486008167,colour,0.5
124,21,0,1,10,30,480,634.46938698343,635.1750658804085,"[88, 0, 166]",166,l,0.18232878437265754,colour,0.5
124,21,0,1,10,31,481,635.688089759089,637.6948540546,"[33, 0, 221]",221,a,1.4834602631162852,colour,0.5
124,21,0,1,10,32,482,638.2055184049532,638.8388534055557,"[37, 0, 217]",217,a,0.11036376748234034,colour,0.5
124,21,0,1,10,33,483,639.3458798055071,639.9268798341509,"[53, 0, 201]",201,a,0.05757863027974963,colour,0.5
124,21,0,1,10,34,484,640.4397296330426,641.1828490544576,"[90, 0, 164]",164,l,0.21998434863053262,colour,0.5
124,21,0,1,10,35,485,641.6896324516274,642.3188407395501,"[75, 0, 179]",179,l,0.10607636580243707,colour,0.5
124,21,0,1,10,36,486,642.833501833491,643.4628475734498,"[13, 0, 241]",241,a,0.1066761922556907,colour,0.5
124,21,0,1,10,37,487,643.9728561711963,644.5908213527873,"[46, 0, 208]",208,a,0.0947576411999762,colour,0.5
124,21,0,1,10,38,488,645.0978765033651,645.8308130507357,"[31, 0, 223]",223,a,0.20962148695252836,colour,0.5
124,21,0,1,10,39,489,646.3506772369146,646.9187906424049,"[65, 0, 189]",189,l,0.04484009277075529,colour,0.5
124,21,0,1,10,40,490,647.4287515848409,648.1028330484405,"[9, 0, 245]",245,a,0.15077940025366843,colour,0.5
124,21,0,1,10,41,491,648.6163074860815,649.198811610695,"[28, 0, 226]",226,a,0.06171361356973648,colour,0.5
124,21,0,1,10,42,492,649.7092120845336,650.2787949275225,"[29, 0, 225]",225,a,0.04626029962673783,colour,0.5
124,21,0,1,10,43,493,650.7880000802688,651.7347848638892,"[2, 0, 252]",252,a,0.4241644667927176,colour,0.5
124,21,0,1,10,44,494,652.2560680753086,652.9427785875741,"[24, 0, 230]",230,a,0.16341317491605878,colour,0.5
124,21,0,1,10,45,495,653.4591603924055,654.1188007248566,"[87, 0, 167]",167,l,0.13714013854041696,colour,0.5
124,21,0,1,10,46,496,654.632999838097,655.6868369365111,"[54, 0, 200]",200,l,0.5305464565753937,colour,0.5
124,21,0,1,10,47,497,656.1954631367698,656.870837595081,"[48, 0, 206]",206,a,0.15202749660238624,colour,0.5
124,21,0,1,10,48,498,657.3829130937811,658.1188141156454,"[57, 0, 197]",197,a,0.21243236190639436,colour,0.5
124,21,0,1,10,49,499,658.6329057090916,659.2789575855713,"[79, 0, 175]",175,l,0.12542008538730443,colour,0.5
124,21,0,1,10,50,500,659.7868595039472,660.4068222697824,"[47, 0, 207]",207,a,0.10754934791475534,colour,0.5
124,21,0,1,11,1,501,664.7453710359987,665.423005773453,"[14, 0, 240]",240,a,0.15338232507929206,colour,0.5
124,21,0,1,11,2,502,665.9337618898135,666.5827951764222,"[50, 0, 204]",204,a,0.13442418025806546,colour,0.5
124,21,0,1,11,3,503,667.0969584498089,667.7187695323955,"[55, 0, 199]",199,a,0.10593379382044077,colour,0.5
124,21,0,1,11,4,504,668.2303539055865,668.8627763662953,"[83, 0, 171]",171,l,0.10911448975093663,colour,0.5
124,21,0,1,11,5,505,669.3739070296288,670.0228115287609,"[25, 0, 229]",229,a,0.12582968454807997,colour,0.5
124,21,0,1,11,6,506,670.530149854254,671.0788029618561,"[10, 0, 244]",244,a,0.025265185860916972,colour,0.5
124,21,0,1,11,7,507,671.5926003528293,672.1588036078028,"[86, 0, 168]",168,l,0.042805093340575695,colour,0.5
124,21,0,1,11,8,508,672.6708566572051,673.2787709028926,"[5, 0, 249]",249,a,0.08468071138486266,colour,0.5
124,21,0,1,11,9,509,673.7957891619299,674.3987937301863,"[99, 0, 155]",155,l,0.07955914526246488,colour,0.5
124,21,0,1,11,10,510,674.9050596144516,675.6227574932855,"[70, 0, 184]",184,l,0.19454468903131783,colour,0.5
124,21,0,1,11,11,511,676.1395681956783,676.8468248376157,"[90, 0, 164]",164,l,0.18247017497196794,colour,0.5
124,21,0,1,11,12,512,677.3597348947078,677.9427581075579,"[27, 0, 227]",227,a,0.05963883572258055,colour,0.5
124,21,0,1,11,13,513,678.4535457314923,679.1027326178737,"[73, 0, 181]",181,l,0.12582653388381004,colour,0.5
124,21,0,1,11,14,514,679.6098192762583,680.4787648376077,"[89, 0, 165]",165,l,0.34569233492948115,colour,0.5
124,21,0,1,11,15,515,681.0004359870218,681.5907847252674,"[79, 0, 175]",175,l,0.06529957661405206,colour,0.5
124,21,0,1,11,16,516,682.1115094639827,682.7507328479551,"[91, 0, 163]",163,l,0.11585673014633358,colour,0.5
124,21,0,1,11,17,517,683.2677156608552,683.9027686154004,"[7, 0, 247]",247,a,0.11166266980580986,colour,0.5
124,21,0,1,11,18,518,684.4232661053538,685.0067457850091,"[87, 0, 167]",167,l,0.060323339188471437,colour,0.5
124,21,0,1,11,19,519,685.5170733975247,686.1507392283529,"[44, 0, 210]",210,a,0.1103669183794409,colour,0.5
124,21,0,1,11,20,520,686.657637628261,687.2951627506409,"[1, 0, 253]",253,a,0.11424196348525584,colour,0.5
124,21,0,1,11,21,521,687.8018638342619,688.3670840510167,"[13, 0, 241]",241,a,0.04189846105873585,colour,0.5
124,21,0,1,11,22,522,688.8798153023235,689.4867638389114,"[20, 0, 234]",234,a,0.08354092272929847,colour,0.5
124,21,0,1,11,23,523,690.0049486681819,690.558757606661,"[47, 0, 207]",207,a,0.030532081378623843,colour,0.5
124,21,0,1,11,24,524,691.0673550560605,691.614801421063,"[31, 0, 223]",223,a,0.022705584298819304,colour,0.5
124,21,0,1,11,25,525,692.1312356074341,692.7267133952118,"[84, 0, 170]",170,l,0.07208947231993079,colour,0.5
124,21,0,1,11,26,526,693.2406679303385,693.9107522566337,"[17, 0, 237]",237,a,0.14727496355772018,colour,0.5
124,21,0,1,11,27,527,694.4279095432721,695.110749342246,"[65, 0, 189]",189,l,0.15948259737342596,colour,0.5
124,21,0,1,11,28,528,695.6310514847282,696.5827762717381,"[68, 0, 186]",186,l,0.4284030315466225,colour,0.5
124,21,0,1,11,29,529,697.1012092237361,697.862755886279,"[45, 0, 209]",209,a,0.23817646387033165,colour,0.5
124,21,0,1,11,30,530,698.3824554453604,698.9907481763512,"[95, 0, 159]",159,l,0.08493434777483344,colour,0.5
124,21,0,1,11,31,531,699.5075600603595,700.4307515320834,"[32, 0, 222]",222,a,0.3998645960818976,colour,0.5
124,21,0,1,11,32,532,700.9450309898239,701.5987270127516,"[40, 0, 214]",214,a,0.13036717823706567,colour,0.5
124,21,0,1,11,33,533,702.1168330728542,702.8306878078729,"[0, 0, 254]",254,a,0.1891092280857265,colour,0.5
124,21,0,1,11,34,534,703.3369005229324,703.9827074275818,"[76, 0, 178]",178,l,0.12241031834855676,colour,0.5
124,21,0,1,11,35,535,704.4932717410848,705.1587374417577,"[2, 0, 252]",252,a,0.14220341574400663,colour,0.5
124,21,0,1,11,36,536,705.665058858227,706.2227302391548,"[28, 0, 226]",226,a,0.03438546531833708,colour,0.5
124,21,0,1,11,37,537,706.7445266311988,707.3507737291511,"[30, 0, 224]",224,a,0.08280521933920681,colour,0.5
124,21,0,1,11,38,538,707.8695186066907,708.6387192618567,"[4, 0, 250]",250,a,0.24583675805479288,colour,0.5
124,21,0,1,11,39,539,709.1507888527121,709.8627381632105,"[36, 0, 218]",218,a,0.188656305661425,colour,0.5
124,21,0,1,11,40,540,710.3695731542539,710.9827007323038,"[39, 0, 215]",215,a,0.08983417926356196,colour,0.5
124,21,0,1,11,41,541,711.4967100119684,712.1347274412401,"[77, 0, 177]",177,l,0.1145822461694479,colour,0.5
124,21,0,1,11,42,542,712.6529882827308,713.3027505772188,"[97, 0, 157]",157,l,0.12643817579373717,colour,0.5
124,21,0,1,11,43,543,713.8092602519318,714.423011681065,"[15, 0, 239]",239,a,0.09049190115183592,colour,0.5
124,21,0,1,11,44,544,714.9342345043551,715.5266804697458,"[72, 0, 182]",182,l,0.06933728023432195,colour,0.5
124,21,0,1,11,45,545,716.043553005904,716.6707644974813,"[41, 0, 213]",213,a,0.1036010473035276,colour,0.5
124,21,0,1,11,46,546,717.1842570519075,717.9107439857908,"[60, 0, 194]",194,l,0.20170676847919822,colour,0.5
124,21,0,1,11,47,547,718.4201291261707,719.1107430406846,"[66, 0, 188]",188,l,0.1673618694767356,colour,0.5
124,21,0,1,11,48,548,719.623179695569,720.3507146523334,"[94, 0, 160]",160,l,0.20480042486451566,colour,0.5
124,21,0,1,11,49,549,720.8575634278823,721.6226755734533,"[81, 0, 173]",173,l,0.24180456856265664,colour,0.5
124,21,0,1,11,50,550,722.138887237059,722.8387135905214,"[92, 0, 162]",162,l,0.17700281250290573,colour,0.5
124,21,0,1,12,1,551,727.1686280826107,727.9506732197478,"[86, 0, 168]",168,l,0.26704060984775424,colour,0.5
124,21,0,1,12,2,552,728.4572368510999,729.1266866924707,"[93, 0, 161]",161,l,0.14637817745096982,colour,0.5
124,21,0,1,12,3,553,729.6415687338449,730.3826996295247,"[62, 0, 192]",192,l,0.21794147230684757,colour,0.5
124,21,0,1,12,4,554,730.8914825799875,731.5026558968239,"[90, 0, 164]",164,l,0.08778657671064138,colour,0.5
124,21,0,1,12,5,555,732.0164950354956,732.9027627077885,"[58, 0, 196]",196,a,0.36301523353904486,colour,0.5
124,21,0,1,12,6,556,733.4240388299804,734.1826741870027,"[42, 0, 212]",212,a,0.24775439174845815,colour,0.5
124,21,0,1,12,7,557,734.6928135412745,735.342655786546,"[95, 0, 159]",159,l,0.1264373881276697,colour,0.5
124,21,0,1,12,8,558,735.8608039882965,736.5667121033184,"[81, 0, 173]",173,l,0.18265803926624358,colour,0.5
124,21,0,1,12,9,559,737.0794752561487,737.6946346827317,"[44, 0, 210]",210,a,0.09177780663594604,colour,0.5
124,21,0,1,12,10,560,738.2045081914403,738.8306456662249,"[2, 0, 252]",252,a,0.09836802259087563,colour,0.5
124,21,0,1,12,11,561,739.3499076629523,740.0146443555132,"[45, 0, 209]",209,a,0.14144998928532004,colour,0.5
124,21,0,1,12,12,562,740.521725106053,741.1426776056178,"[15, 0, 239]",239,a,0.09767642989754677,colour,0.5
124,21,0,1,12,13,563,741.6624086722732,742.3026702327188,"[76, 0, 178]",178,l,0.11704574944451451,colour,0.5
124,21,0,1,12,14,564,742.8184742664453,743.3906612154096,"[98, 0, 156]",156,l,0.048799027455970645,colour,0.5
124,21,0,1,12,15,565,743.9123733246233,744.5826226719655,"[47, 0, 207]",207,a,0.1473761817906052,colour,0.5
124,21,0,1,12,16,566,745.0997831092682,745.6786303787958,"[31, 0, 223]",223,a,0.05558655993081629,colour,0.5
124,21,0,1,12,17,567,746.1934513740707,746.9266498284414,"[3, 0, 251]",251,a,0.20994956023059785,colour,0.5
124,21,0,1,12,18,568,747.4434841617476,748.1346498536877,"[96, 0, 158]",158,l,0.16829055710695684,colour,0.5
124,21,0,1,12,19,569,748.6603776111733,749.2628575772978,"[92, 0, 162]",162,l,0.07785930833779275,colour,0.5
124,21,0,1,12,20,570,749.771575543331,750.4546567695215,"[0, 0, 254]",254,l,0.15927582839503884,colour,0.5
124,21,0,1,12,21,571,750.9756166338921,751.5987376465928,"[23, 0, 231]",231,a,0.09973663557320833,colour,0.5
124,21,0,1,12,22,572,752.1162994124461,752.7828241633251,"[13, 0, 241]",241,a,0.14331760443747044,colour,0.5
124,21,0,1,12,23,573,753.3038694921415,753.9027048123535,"[10, 0, 244]",244,a,0.07566322572529316,colour,0.5
124,21,0,1,12,24,574,754.4131718461867,755.254641567124,"[61, 0, 193]",193,l,0.3180506855715066,colour,0.5
124,21,0,1,12,25,575,755.7725329815876,756.3666701193433,"[77, 0, 177]",177,l,0.06903401901945472,colour,0.5
124,21,0,1,12,26,576,756.8837785690557,757.4628751426935,"[33, 0, 221]",221,a,0.05632580793462694,colour,0.5
124,21,0,1,12,27,577,757.9774803107139,758.5986415483057,"[6, 0, 248]",248,a,0.09772093454375863,colour,0.5
124,21,0,1,12,28,578,759.118162301369,759.7426353853662,"[84, 0, 170]",170,l,0.10119543899782002,colour,0.5
124,21,0,1,12,29,579,760.2587560706306,760.8546473961323,"[40, 0, 214]",214,a,0.07261958834715188,colour,0.5
124,21,0,1,12,30,580,761.3681100183167,762.054666537093,"[26, 0, 228]",228,a,0.16316938470117748,colour,0.5
124,21,0,1,12,31,581,762.5729474646505,763.1426228610799,"[85, 0, 169]",169,l,0.0468171969987452,colour,0.5
124,21,0,1,12,32,582,763.6507847174071,764.4546677973121,"[52, 0, 202]",202,l,0.2806601794436574,colour,0.5
124,21,0,1,12,33,583,764.9631053453777,765.6385849604849,"[38, 0, 216]",216,a,0.1527411446440965,colour,0.5
124,21,0,1,12,34,584,766.1507289882284,766.8306054940913,"[70, 0, 184]",184,l,0.15631923056207597,colour,0.5
124,21,0,1,12,35,585,767.3385972091928,767.9746292633936,"[28, 0, 226]",226,a,0.11275834776461124,colour,0.5
124,21,0,1,12,36,586,768.4948357015382,769.1506285576615,"[27, 0, 227]",227,a,0.13047745497897267,colour,0.5
124,21,0,1,12,37,587,769.6686274919193,770.3985940504353,"[9, 0, 245]",245,a,0.20654279692098498,colour,0.5
124,21,0,1,12,38,588,770.9187804025132,771.4786687393207,"[41, 0, 213]",213,a,0.036673707189038396,colour,0.5
124,21,0,1,12,39,589,771.9968193040695,772.9665932408534,"[19, 0, 235]",235,a,0.4465652147773653,colour,0.5
124,21,0,1,12,40,590,773.4811720210128,774.1186041960027,"[57, 0, 197]",197,a,0.11405094875954092,colour,0.5
124,21,0,1,12,41,591,774.6402040591929,775.1906310468912,"[29, 0, 225]",225,a,0.027411249931901693,colour,0.5
124,21,0,1,12,42,592,775.7029479725752,776.5826045551803,"[71, 0, 183]",183,l,0.35658413101918995,colour,0.5
124,21,0,1,12,43,593,777.093379575992,777.8226419389248,"[51, 0, 203]",203,l,0.20595714868977666,colour,0.5
124,21,0,1,12,44,594,778.3431914164685,779.1985800296534,"[53, 0, 201]",201,l,0.3318880519364029,colour,0.5
124,21,0,1,12,45,595,779.7182283885777,780.4706685566343,"[75, 0, 179]",179,l,0.22913928632624447,colour,0.5
124,21,0,1,12,46,596,780.9838696655352,781.6226129520219,"[20, 0, 234]",234,a,0.11407851800322533,colour,0.5
124,21,0,1,12,47,597,782.1415838967077,783.0705723795108,"[73, 0, 181]",181,l,0.40572934853844345,colour,0.5
124,21,0,1,12,48,598,783.5789067400619,784.2066093569156,"[68, 0, 186]",186,l,0.10437259031459689,colour,0.5
124,21,0,1,12,49,599,784.719547376968,785.2545797333587,"[8, 0, 246]",246,a,0.011726748431101441,colour,0.5
124,21,0,1,12,50,600,785.7664295586292,786.4145467607304,"[54, 0, 200]",200,l,0.12480292958207428,colour,0.5
124,21,0,1,13,1,601,790.9548286830541,791.6945976612624,"[7, 0, 247]",247,a,0.21577256522141397,colour,0.5
124,21,0,1,13,2,602,792.2055763003882,792.8146240331698,"[66, 0, 188]",188,l,0.08196751005016267,colour,0.5
124,21,0,1,13,3,603,793.3341979554389,794.2545253827702,"[25, 0, 229]",229,a,0.3969060289673507,colour,0.5
124,21,0,1,13,4,604,794.7712269900367,795.5025877614971,"[32, 0, 222]",222,a,0.20802286826074123,colour,0.5
124,21,0,1,13,5,605,796.0212589900475,797.1825666672084,"[8, 0, 246]",246,a,0.6359241406898946,colour,0.5
124,21,0,1,13,6,606,797.695420010481,798.3665929257404,"[21, 0, 233]",233,a,0.14786179340444505,colour,0.5
124,21,0,1,13,7,607,798.8829176228028,799.5905366025399,"[37, 0, 217]",217,a,0.18418891658075154,colour,0.5
124,21,0,1,13,8,608,800.1017109828535,800.7345639166888,"[19, 0, 235]",235,a,0.10961112892255187,colour,0.5
124,21,0,1,13,9,609,801.2423457121477,801.8389558054041,"[14, 0, 240]",240,a,0.07324265176430345,colour,0.5
124,21,0,1,13,10,610,802.3517776411027,802.9905437706038,"[82, 0, 172]",172,l,0.11547942599281669,colour,0.5
124,21,0,1,13,11,611,803.5079389398452,804.150571843842,"[10, 0, 244]",244,a,0.11729072127491236,colour,0.5
124,21,0,1,13,12,612,804.6663120745216,805.3825724173803,"[42, 0, 212]",212,a,0.1930004209280014,colour,0.5
124,21,0,1,13,13,613,805.9006623299792,806.5265457744244,"[90, 0, 164]",164,l,0.10277160862460732,colour,0.5
124,21,0,1,13,14,614,807.0412549176253,807.6950982387643,"[5, 0, 249]",249,a,0.13056764542125165,colour,0.5
124,21,0,1,13,15,615,808.2130168287549,808.9585887256544,"[51, 0, 203]",203,a,0.22206464014016092,colour,0.5
124,21,0,1,13,16,616,809.4787136376835,810.1025514490902,"[78, 0, 176]",176,l,0.1004762772936374,colour,0.5
124,21,0,1,13,17,617,810.6217764241155,811.2225494640879,"[29, 0, 225]",225,a,0.07750405953265727,colour,0.5
124,21,0,1,13,18,618,811.7309732276481,812.3825133405626,"[95, 0, 159]",159,l,0.12810217286460102,colour,0.5
124,21,0,1,13,19,619,812.9029588426929,814.214529982768,"[76, 0, 178]",178,l,0.7884955378249288,colour,0.5
124,21,0,1,13,20,620,814.7310693259351,815.3745426961686,"[59, 0, 195]",195,l,0.12012522714212537,colour,0.5
124,21,0,1,13,21,621,815.8873814672697,816.5185967916623,"[38, 0, 216]",216,a,0.10791719960980117,colour,0.5
124,21,0,1,13,22,622,817.0279972918797,817.6705096794758,"[87, 0, 167]",167,l,0.11913352436386049,colour,0.5
124,21,0,1,13,23,623,818.1842101842631,818.8464770722203,"[22, 0, 232]",232,a,0.13895419077016413,colour,0.5
124,21,0,1,13,24,624,819.3583611617796,820.0305056937505,"[55, 0, 199]",199,a,0.14882356394082308,colour,0.5
124,21,0,1,13,25,625,820.5458418386988,821.4385016227607,"[13, 0, 241]",241,a,0.3693246375769377,colour,0.5
124,21,0,1,13,26,626,821.9521091803908,823.0864947636146,"[56, 0, 198]",198,l,0.6110362585168332,colour,0.5
124,21,0,1,13,27,627,823.5941698269453,824.2065762740094,"[99, 0, 155]",155,l,0.0890035592019558,colour,0.5
124,21,0,1,13,28,628,824.7191109962296,825.2944841550197,"[52, 0, 202]",202,a,0.05271660815924406,colour,0.5
124,21,0,1,13,29,629,825.8128087995574,826.470542919822,"[12, 0, 242]",242,a,0.13439779239706695,colour,0.5
124,21,0,1,13,30,630,826.9848089870065,827.5185160534456,"[81, 0, 173]",173,l,0.01044241851195693,colour,0.5
124,21,0,1,13,31,631,828.0316600545775,828.9425261325669,"[4, 0, 250]",250,a,0.3861906754318625,colour,0.5
124,21,0,1,13,32,632,829.4558375182096,830.1105153979734,"[2, 0, 252]",252,a,0.1315365054178983,colour,0.5
124,21,0,1,13,33,633,830.6277809920721,831.2865060276818,"[41, 0, 213]",213,a,0.13542218459770083,colour,0.5
124,21,0,1,13,34,634,831.7985724678729,832.4544799330179,"[43, 0, 211]",211,a,0.13123915204778314,colour,0.5
124,21,0,1,13,35,635,832.972244923003,833.5985107915476,"[74, 0, 180]",180,l,0.10359474550932646,colour,0.5
124,21,0,1,13,36,636,834.1128702000715,834.8864945273381,"[53, 0, 201]",201,l,0.2502198643051088,colour,0.5
124,21,0,1,13,37,637,835.394187707454,836.1664851696696,"[98, 0, 156]",156,l,0.24894616822712123,colour,0.5
124,21,0,1,13,38,638,836.6753768215422,837.4064422089141,"[11, 0, 243]",243,a,0.2076861304230988,colour,0.5
124,21,0,1,13,39,639,837.9255344581325,838.6864596325904,"[93, 0, 161]",161,l,0.2376628895290196,colour,0.5
124,21,0,1,13,40,640,839.2078649362084,839.9824648187496,"[69, 0, 185]",185,l,0.2512938806321472,colour,0.5
124,21,0,1,13,41,641,840.4891670837533,841.2305118376389,"[89, 0, 165]",165,l,0.218171478016302,colour,0.5
124,21,0,1,13,42,642,841.7391935698688,842.4384933521505,"[47, 0, 207]",207,a,0.17621512152254581,colour,0.5
124,21,0,1,13,43,643,842.9579034345224,843.7425361364149,"[84, 0, 170]",170,l,0.2608525101095438,colour,0.5
124,21,0,1,13,44,644,844.2555450487416,845.150491499342,"[49, 0, 205]",205,a,0.37164596281945705,colour,0.5
124,21,0,1,13,45,645,845.6618053009734,846.3664759534877,"[80, 0, 174]",174,l,0.1812122326809913,colour,0.5
124,21,0,1,13,46,646,846.8806010240223,847.5664588606451,"[54, 0, 200]",200,a,0.1604435802437365,colour,0.5
124,21,0,1,13,47,647,848.0857897803653,848.9024834712036,"[62, 0, 192]",192,l,0.29336799681186676,colour,0.5
124,21,0,1,13,48,648,849.4120525373146,850.1507116591092,"[20, 0, 234]",234,a,0.21526844310574234,colour,0.5
124,21,0,1,13,49,649,850.6634582702536,851.4544771760702,"[58, 0, 196]",196,a,0.2680972970556468,colour,0.5
124,21,0,1,13,50,650,851.9759695194662,852.7424605179112,"[35, 0, 219]",219,a,0.24314994434826076,colour,0.5
124,21,0,1,14,1,651,857.1955285149161,858.0704428043682,"[54, 0, 200]",200,a,0.3506697539705783,colour,0.5
124,21,0,1,14,2,652,858.5883893573191,859.2304551238194,"[34, 0, 220]",220,a,0.11873495252802968,colour,0.5
124,21,0,1,14,3,653,859.7446286373306,860.3664653196465,"[84, 0, 170]",170,l,0.09850744367577136,colour,0.5
124,21,0,1,14,4,654,860.8852763632312,861.622447143076,"[89, 0, 165]",165,l,0.2138616272713989,colour,0.5
124,21,0,1,14,5,655,862.1352150219027,862.7584608835168,"[53, 0, 201]",201,a,0.09992489381693304,colour,0.5
124,21,0,1,14,6,656,863.2757827974856,863.878490800038,"[96, 0, 158]",158,l,0.07918656733818352,colour,0.5
124,21,0,1,14,7,657,864.3864517949987,865.1904431825969,"[61, 0, 193]",193,l,0.2806975948624313,colour,0.5
124,21,0,1,14,8,658,865.6989405951463,866.4224567527417,"[22, 0, 232]",232,a,0.2001109067350626,colour,0.5
124,21,0,1,14,9,659,866.933329053456,867.5344270160422,"[6, 0, 248]",248,a,0.07773957937024534,colour,0.5
124,21,0,1,14,10,660,868.0427137212828,868.6064507160336,"[9, 0, 245]",245,a,0.04047707305289805,colour,0.5
124,21,0,1,14,11,661,869.1208491150755,869.7264290386811,"[37, 0, 217]",217,a,0.08230818645097315,colour,0.5
124,21,0,1,14,12,662,870.2458198228851,870.8224178408273,"[10, 0, 244]",244,a,0.05326641630381346,colour,0.5
124,21,0,1,14,13,663,871.3419216587208,871.9504463647027,"[95, 0, 159]",159,l,0.08503005234524608,colour,0.5
124,21,0,1,14,14,664,872.4670254860539,873.142386553809,"[72, 0, 182]",182,l,0.1520617613568902,colour,0.5
124,21,0,1,14,15,665,873.6544864708558,874.2304240101948,"[21, 0, 233]",233,a,0.05264335288666189,colour,0.5
124,21,0,1,14,16,666,874.7481712771114,875.3984329677187,"[81, 0, 173]",173,l,0.12692457507364452,colour,0.5
124,21,0,1,14,17,667,875.9201411383692,876.670454147039,"[48, 0, 206]",206,a,0.2271968403365463,colour,0.5
124,21,0,1,14,18,668,877.1857607539278,877.7664311339613,"[44, 0, 210]",210,a,0.05747898737899959,colour,0.5
124,21,0,1,14,19,669,878.279391997261,878.8624116654973,"[33, 0, 221]",221,a,0.059794404776766896,colour,0.5
124,21,0,1,14,20,670,879.3744209979195,879.9504290355835,"[2, 0, 252]",252,a,0.052643746603280306,colour,0.5
124,21,0,1,14,21,671,880.4681491272058,881.134432451101,"[62, 0, 192]",192,l,0.1428095439914614,colour,0.5
124,21,0,1,14,22,672,881.6556817917153,882.3504046958406,"[73, 0, 181]",181,l,0.171509062172845,colour,0.5
124,21,0,1,14,23,673,882.8602203093469,883.5264614915941,"[55, 0, 199]",199,l,0.14237828296609223,colour,0.5
124,21,0,1,14,24,674,884.0481436685659,884.72639438021,"[15, 0, 239]",239,a,0.15494313440285623,colour,0.5
124,21,0,1,14,25,675,885.2356798776891,885.886414182838,"[38, 0, 216]",216,a,0.12785798870027065,colour,0.5
124,21,0,1,14,26,676,886.4070479432121,887.0144600358326,"[25, 0, 229]",229,a,0.08422581991180778,colour,0.5
124,21,0,1,14,27,677,887.5320182570722,888.0628829409834,"[0, 0, 254]",254,a,0.007405476178973913,colour,0.5
124,21,0,1,14,28,678,888.5945691862144,889.174405795522,"[92, 0, 162]",162,l,0.05434437142685056,colour,0.5
124,21,0,1,14,29,679,889.690246850485,890.2464117724448,"[82, 0, 172]",172,l,0.0329668337944895,colour,0.5
124,21,0,1,14,30,680,890.7526583583094,891.4064012488816,"[3, 0, 251]",251,a,0.13055149768479168,colour,0.5
124,21,0,1,14,31,681,891.9244131802116,892.5503998121712,"[13, 0, 241]",241,a,0.10265896865166724,colour,0.5
124,21,0,1,14,32,682,893.0650301862042,893.6703627749812,"[78, 0, 176]",176,l,0.08214434678666294,colour,0.5
124,21,0,1,14,33,683,894.1900650907774,894.870392549783,"[75, 0, 179]",179,l,0.15540747856721282,colour,0.5
124,21,0,1,14,34,684,895.3792692355346,895.9263887088746,"[45, 0, 209]",209,a,0.023642936488613486,colour,0.5
124,21,0,1,14,35,685,896.4417799925432,897.1823815598618,"[5, 0, 249]",249,a,0.21737866709008813,colour,0.5
124,21,0,1,14,36,686,897.6917730015703,898.3023945409805,"[63, 0, 191]",191,l,0.08731396216899157,colour,0.5
124,21,0,1,14,37,687,898.8183569004759,899.3663908829913,"[70, 0, 184]",184,l,0.027319877641275525,colour,0.5
124,21,0,1,14,38,688,899.8786703934893,900.5343903882895,"[65, 0, 189]",189,l,0.1312029182445258,colour,0.5
124,21,0,1,14,39,689,901.0517146652564,901.6624000074808,"[76, 0, 178]",178,l,0.08741833106614649,colour,0.5
124,21,0,1,14,40,690,902.1766006962862,902.766385053983,"[24, 0, 230]",230,a,0.06646142061799765,colour,0.5
124,21,0,1,14,41,691,903.2860026932321,903.8784140001517,"[67, 0, 187]",187,l,0.06911042518913746,colour,0.5
124,21,0,1,14,42,692,904.3953763330355,904.9743854731787,"[80, 0, 174]",174,l,0.05571416602469981,colour,0.5
124,21,0,1,14,43,693,905.4891131271143,906.0784421993885,"[8, 0, 246]",246,a,0.06608963059261441,colour,0.5
124,21,0,1,14,44,694,906.5852433196269,907.2543930506799,"[68, 0, 186]",186,l,0.14615171635523438,colour,0.5
124,21,0,1,14,45,695,907.7727346303873,908.4463249689434,"[66, 0, 188]",188,l,0.15039225039072335,colour,0.5
124,21,0,1,14,46,696,908.9584973535966,909.9023609852884,"[14, 0, 240]",240,a,0.4206261590588838,colour,0.5
124,21,0,1,14,47,697,910.4146538865753,911.0703809706029,"[28, 0, 226]",226,a,0.1325128481257707,colour,0.5
124,21,0,1,14,48,698,911.5864362774882,912.3263765785377,"[47, 0, 207]",207,l,0.21695173857733607,colour,0.5
124,21,0,1,14,49,699,912.8363312194124,913.558312561363,"[94, 0, 160]",160,l,0.19848274975083768,colour,0.5
124,21,0,1,14,50,700,914.0678678427357,914.5983434072696,"[12, 0, 242]",242,a,0.007077796617522836,colour,0.5
124,21,0,1,15,1,701,919.0391281521879,919.718447760446,"[27, 0, 227]",227,a,0.15322833135724068,colour,0.5
124,21,0,1,15,2,702,920.2294779932126,920.8543563443236,"[28, 0, 226]",226,a,0.10170901357196271,colour,0.5
124,21,0,1,15,3,703,921.3699004398659,922.0223207974341,"[82, 0, 172]",172,l,0.128987931413576,colour,0.5
124,21,0,1,15,4,704,922.541755692102,923.2785416848492,"[51, 0, 203]",203,l,0.21334056952036917,colour,0.5
124,21,0,1,15,5,705,923.7917829658836,924.37429536134,"[15, 0, 239]",239,a,0.0576920579187572,colour,0.5
124,21,0,1,15,6,706,924.887194784591,925.798358609667,"[91, 0, 163]",163,l,0.38782552792690694,colour,0.5
124,21,0,1,15,7,707,926.3090170524083,927.1983232423663,"[87, 0, 167]",167,l,0.3660576897673309,colour,0.5
124,21,0,1,15,8,708,927.7152631261852,928.2705005421303,"[3, 0, 251]",251,a,0.031113003380596638,colour,0.5
124,21,0,1,15,9,709,928.7777514338959,929.5023230975494,"[41, 0, 213]",213,a,0.20117783430032432,colour,0.5
124,21,0,1,15,10,710,930.0120910555124,930.6703867996112,"[0, 0, 254]",254,a,0.13494838844053447,colour,0.5
124,21,0,1,15,11,711,931.184051070828,931.8143270737492,"[97, 0, 157]",157,l,0.10550174536183476,colour,0.5
124,21,0,1,15,12,712,932.326045748312,933.0382931998465,"[88, 0, 166]",166,l,0.18882841616868973,colour,0.5
124,21,0,1,15,13,713,933.5448588004801,934.1503146628384,"[42, 0, 212]",212,a,0.0821927897632122,colour,0.5
124,21,0,1,15,14,714,934.6698338405695,935.3103021699935,"[31, 0, 223]",223,a,0.11723085679113865,colour,0.5
124,21,0,1,15,15,715,935.8260325544979,936.4623174576554,"[37, 0, 217]",217,a,0.1130167106166482,colour,0.5
124,21,0,1,15,16,716,936.9822875882965,937.6302771845367,"[85, 0, 169]",169,l,0.1246229421813041,colour,0.5
124,21,0,1,15,17,717,938.1385386837646,938.78226332739,"[63, 0, 191]",191,l,0.12078964430838823,colour,0.5
124,21,0,1,15,18,718,939.296226527309,939.9103150882293,"[94, 0, 160]",160,l,0.09128983202390373,colour,0.5
124,21,0,1,15,19,719,940.4209365092684,941.0143300669733,"[43, 0, 211]",211,a,0.06998358061537147,colour,0.5
124,21,0,1,15,20,720,941.5303463831078,942.1422443755437,"[60, 0, 194]",194,a,0.08855693833902478,colour,0.5
124,21,0,1,15,21,721,942.6572099120822,943.2783467313275,"[47, 0, 207]",207,a,0.09809272456914186,colour,0.5
124,21,0,1,15,22,722,943.7978044692427,944.3823463500012,"[45, 0, 209]",209,a,0.061276051215827465,colour,0.5
124,21,0,1,15,23,723,944.891507786233,945.6222726695705,"[38, 0, 216]",216,a,0.20770464115776122,colour,0.5
124,21,0,1,15,24,724,946.1411557868123,946.7183729298413,"[24, 0, 230]",230,a,0.052460608538240194,colour,0.5
124,21,0,1,15,25,725,947.2363379935268,947.9262918229215,"[7, 0, 247]",247,a,0.16659741546027362,colour,0.5
124,21,0,1,15,26,726,948.439464181196,949.0862990224268,"[6, 0, 248]",248,a,0.12362611922435462,colour,0.5
124,21,0,1,15,27,727,949.595417923294,950.1902986411005,"[57, 0, 197]",197,a,0.07155305449850857,colour,0.5
124,21,0,1,15,28,728,950.7047399694566,951.3263045048807,"[80, 0, 174]",174,l,0.09818015829659998,colour,0.5
124,21,0,1,15,29,729,951.8475030395202,952.5022951343562,"[12, 0, 242]",242,a,0.1315971575677395,colour,0.5
124,21,0,1,15,30,730,953.0193366303574,953.7502925286535,"[13, 0, 241]",241,a,0.20757900434546173,colour,0.5
124,21,0,1,15,31,731,954.2692008521408,954.7983156805858,"[69, 0, 185]",185,a,0.005671374499797821,colour,0.5
124,21,0,1,15,32,732,955.3162208795547,955.9822312684264,"[39, 0, 215]",215,a,0.14270399324595928,colour,0.5
124,21,0,1,15,33,733,956.5037574826274,957.4304344863631,"[33, 0, 221]",221,a,0.40331940818578005,colour,0.5
124,21,0,1,15,34,734,957.9436391398776,959.5422795065679,"[50, 0, 204]",204,a,1.075362721690908,colour,0.5
124,21,0,1,15,35,735,960.0516666162293,960.7502555071842,"[1, 0, 253]",253,a,0.17528367694467306,colour,0.5
124,21,0,1,15,36,736,961.273101891391,961.9342797964346,"[52, 0, 202]",202,l,0.1380164446309209,colour,0.5
124,21,0,1,15,37,737,962.4450697836,963.166712024482,"[54, 0, 200]",200,l,0.19834135915152729,colour,0.5
124,21,0,1,15,38,738,963.6792770731263,965.6142559451982,"[98, 0, 156]",156,l,1.4136291006579995,colour,0.5
124,21,0,1,15,39,739,966.1320087260101,966.8862660969608,"[2, 0, 252]",252,a,0.22948232549242675,colour,0.5
124,21,0,1,15,40,740,967.3991273173597,968.0783331042621,"[70, 0, 184]",184,l,0.15625582146458328,colour,0.5
124,21,0,1,15,41,741,968.5865520681255,969.2942356385756,"[19, 0, 235]",235,a,0.1843657533172518,colour,0.5
124,21,0,1,15,42,742,969.8054202587809,970.6062581255101,"[76, 0, 178]",178,l,0.2754291242454201,colour,0.5
124,21,0,1,15,43,743,971.1200200703461,971.7102345074527,"[17, 0, 237]",237,a,0.07288543391041458,colour,0.5
124,21,0,1,15,44,744,972.2241283904295,973.6622436509933,"[55, 0, 199]",199,l,0.9109688717871904,colour,0.5
124,21,0,1,15,45,745,974.1811834820546,974.9102694022004,"[58, 0, 196]",196,l,0.20586380758322775,colour,0.5
124,21,0,1,15,46,746,975.4312229650095,976.0702313093934,"[34, 0, 220]",220,a,0.11572597338818014,colour,0.5
124,21,0,1,15,47,747,976.5887221565936,977.1982228117995,"[86, 0, 168]",168,l,0.08622616110369563,colour,0.5
124,21,0,1,15,48,748,977.713770058006,978.358222528128,"[66, 0, 188]",188,l,0.12126974179409444,colour,0.5
124,21,0,1,15,49,749,978.8699207229074,979.5742050132249,"[99, 0, 155]",155,l,0.1808648610021919,colour,0.5
124,21,0,1,15,50,750,980.0887664642651,980.6783086070791,"[75, 0, 179]",179,l,0.06627788860350847,colour,0.5
124,21,0,1,16,1,751,985.0894190662075,985.7982176130172,"[1, 0, 253]",253,a,0.18532397923991084,colour,0.5
124,21,0,1,16,2,752,986.3089174095076,986.9421949086245,"[14, 0, 240]",240,a,0.10994392819702625,colour,0.5
124,21,0,1,16,3,753,987.4495442616753,988.0462335180491,"[74, 0, 180]",180,l,0.07336592534556985,colour,0.5
124,21,0,1,16,4,754,988.5589899753686,989.4061988124158,"[40, 0, 214]",214,a,0.32207578606903553,colour,0.5
124,21,0,1,16,5,755,989.9201919445768,990.5182135801297,"[82, 0, 172]",172,l,0.07463174476288259,colour,0.5
124,21,0,1,16,6,756,991.0295005999506,991.5582074045669,"[12, 0, 242]",242,a,0.005220421589910984,colour,0.5
124,21,0,1,16,7,757,992.0764071999583,992.8382740588859,"[56, 0, 198]",198,l,0.23852186650037766,colour,0.5
124,21,0,1,16,8,758,993.3577314028516,994.0462382442784,"[39, 0, 215]",215,l,0.16523943631909788,colour,0.5
124,21,0,1,16,9,759,994.560767006129,995.2302077889908,"[54, 0, 200]",200,l,0.1460552243515849,colour,0.5
124,21,0,1,16,10,760,995.7490227709059,996.5342489976902,"[37, 0, 217]",217,a,0.260349175427109,colour,0.5
124,21,0,1,16,11,761,997.0474737375043,997.6061884148512,"[92, 0, 162]",162,l,0.03546814643777907,colour,0.5
124,21,0,1,16,12,762,998.125448442297,998.8301828978583,"[46, 0, 208]",208,a,0.18190697603859007,colour,0.5
124,21,0,1,16,13,763,999.3443319927901,999.9661919123027,"[83, 0, 171]",171,l,0.09833887801505625,colour,0.5
124,21,0,1,16,14,764,1000.4850261926185,1001.286181105068,"[77, 0, 177]",177,l,0.27816044236533344,colour,0.5
124,21,0,1,16,15,765,1001.7974602482282,1002.4541853365954,"[84, 0, 170]",170,l,0.13236239925026894,colour,0.5
124,21,0,1,16,16,766,1002.9702788465656,1003.542233820539,"[68, 0, 186]",186,l,0.04830041900277138,colour,0.5
124,21,0,1,16,17,767,1004.0487056861166,1004.6861733070109,"[63, 0, 191]",191,l,0.11445188336074352,colour,0.5
124,21,0,1,16,18,768,1005.2049678091425,1005.7661822235677,"[18, 0, 236]",236,a,0.038081310922279954,colour,0.5
124,21,0,1,16,19,769,1006.2830480644479,1006.9981560155284,"[17, 0, 237]",237,a,0.191899229073897,colour,0.5
124,21,0,1,16,20,770,1007.5173301845789,1008.0941656916402,"[23, 0, 231]",231,a,0.05357519118115306,colour,0.5
124,21,0,1,16,21,771,1008.611191827571,1009.2302121212706,"[26, 0, 228]",228,a,0.09350009285844862,colour,0.5
124,21,0,1,16,22,772,1009.7382944207639,1010.2782100669574,"[43, 0, 211]",211,a,0.016528118401765823,colour,0.5
124,21,0,1,16,23,773,1010.785253796028,1011.358225679025,"[35, 0, 219]",219,a,0.04967651516199112,colour,0.5
124,21,0,1,16,24,774,1011.8789445098955,1012.5581558106933,"[69, 0, 185]",185,l,0.15578438830561936,colour,0.5
124,21,0,1,16,25,775,1013.0664913528599,1013.7901276336052,"[51, 0, 203]",203,l,0.2003275218885392,colour,0.5
124,21,0,1,16,26,776,1014.3008427899331,1015.0141595317982,"[94, 0, 160]",160,l,0.18995520798489451,colour,0.5
124,21,0,1,16,27,777,1015.5351520853583,1016.2542012480553,"[96, 0, 158]",158,l,0.19564036722294986,colour,0.5
124,21,0,1,16,28,778,1016.7696157682221,1017.3581626636442,"[11, 0, 243]",243,a,0.06525664729997516,colour,0.5
124,21,0,1,16,29,779,1017.8789720791392,1018.5661654458381,"[95, 0, 159]",159,l,0.1638590081129223,colour,0.5
124,21,0,1,16,30,780,1019.0842687492259,1019.8381338499021,"[57, 0, 197]",197,l,0.23065283428877592,colour,0.5
124,21,0,1,16,31,781,1020.349784389371,1021.0941842023749,"[49, 0, 205]",205,a,0.22116942959837615,colour,0.5
124,21,0,1,16,32,782,1021.6153917955235,1022.3741764200386,"[20, 0, 234]",234,a,0.23551682569086552,colour,0.5
124,21,0,1,16,33,783,1022.8809763586614,1023.5341481734067,"[66, 0, 188]",188,l,0.12769572460092604,colour,0.5
124,21,0,1,16,34,784,1024.0549745240714,1024.7502176980488,"[38, 0, 216]",216,a,0.1719316584058106,colour,0.5
124,21,0,1,16,35,785,1025.2581345825456,1026.0861013119575,"[60, 0, 194]",194,l,0.30470247520133853,colour,0.5
124,21,0,1,16,36,786,1026.601755290525,1027.37415869697,"[47, 0, 207]",207,a,0.24901942326687276,colour,0.5
124,21,0,1,16,37,787,1027.8845095462166,1028.5181391432416,"[31, 0, 223]",223,a,0.11038070288486779,colour,0.5
124,21,0,1,16,38,788,1029.0251675122418,1029.606170298066,"[15, 0, 239]",239,a,0.05785117135383189,colour,0.5
124,21,0,1,16,39,789,1030.1188928845804,1030.7181764009874,"[24, 0, 230]",230,a,0.07662814715877175,colour,0.5
124,21,0,1,16,40,790,1031.2282838539686,1031.8461163097527,"[91, 0, 163]",163,l,0.09448864497244358,colour,0.5
124,21,0,1,16,41,791,1032.3547295129392,1033.0061546228826,"[97, 0, 157]",157,l,0.12812304659746587,colour,0.5
124,21,0,1,16,42,792,1033.5266028821934,1034.1661023518536,"[16, 0, 238]",238,a,0.11648727674037218,colour,0.5
124,21,0,1,16,43,793,1034.6829347158782,1035.3262505480088,"[21, 0, 233]",233,a,0.12010199017822742,colour,0.5
124,21,0,1,16,44,794,1035.8390944390558,1036.4861297477037,"[98, 0, 156]",156,l,0.12421058607287705,colour,0.5
124,21,0,1,16,45,795,1036.995304968441,1037.6383045425173,"[64, 0, 190]",190,l,0.1195915665011853,colour,0.5
124,21,0,1,16,46,796,1038.151558820624,1038.7421237800736,"[65, 0, 189]",189,l,0.06484429119154811,colour,0.5
124,21,0,1,16,47,797,1039.263307348825,1039.8621190381236,"[33, 0, 221]",221,a,0.07538005081005394,colour,0.5
124,21,0,1,16,48,798,1040.3726924103685,1040.9741145074368,"[52, 0, 202]",202,a,0.078218495240435,colour,0.5
124,21,0,1,16,49,799,1041.4820546286646,1042.086137152044,"[79, 0, 175]",175,l,0.08070996170863509,colour,0.5
124,21,0,1,16,50,800,1042.6071486100554,1043.254122872604,"[22, 0, 232]",232,a,0.12384549109265208,colour,0.5
