id,age,condition,counterbalance,block,trialinblock,trial,tstart,tend,trialstim,trialintensity,response,RT,trialtype,colourfreq
034,69,1,2,Practice,1,NA,7.876893505454063e-06,2.536517000058666,"[93, 0, 161]",161,l,2.012597555760294,colour,0.5
034,69,1,2,Practice,2,NA,3.0478550363332033,3.704486377770081,"[88, 0, 166]",166,l,0.13236885727383196,colour,0.5
034,69,1,2,Practice,3,NA,4.222419757861644,6.504480391275138,"[41, 0, 213]",213,a,1.7589639332145452,colour,0.5
034,69,1,2,Practice,4,NA,7.0193583148065954,7.73649384197779,"[76, 0, 178]",178,l,0.19414555933326483,colour,0.5
034,69,1,2,Practice,5,NA,8.253779345424846,9.376616737572476,"[4, 0, 250]",250,a,0.6001278425101191,colour,0.5
034,69,1,2,Practice,6,NA,9.894693083828315,11.168481771368533,"[61, 0, 193]",193,a,0.7510125779081136,colour,0.5
034,69,1,2,Practice,7,NA,11.675532400840893,12.344504510285333,"[0, 0, 254]",254,a,0.1583878940436989,colour,0.5
034,69,1,2,Practice,8,NA,12.866133346920833,13.496471928199753,"[83, 0, 171]",171,l,0.10704850289039314,colour,0.5
034,69,1,2,Practice,9,NA,14.007091195788234,14.736502112587914,"[42, 0, 212]",212,a,0.20615313365124166,colour,0.5
034,69,1,2,Practice,10,NA,15.257037238916382,15.816507185343653,"[30, 0, 224]",224,a,0.03622082783840597,colour,0.5
034,69,1,2,1,1,1,4.850470094475895,6.432267166208476,"[97, 0, 157]",157,l,1.0580300458241254,colour,0.5
034,69,1,2,1,2,2,6.9450935462955385,8.271948639303446,"[8, 0, 246]",246,a,0.8035953405778855,colour,0.5
034,69,1,2,1,3,3,8.789815065683797,9.511850035982206,"[77, 0, 177]",177,l,0.1985806580632925,colour,0.5
034,69,1,2,1,4,4,10.024179382715374,12.26394096412696,"[70, 0, 184]",184,a,1.7164376322180033,colour,0.5
034,69,1,2,1,5,5,12.774230976356193,13.415867815958336,"[96, 0, 158]",158,l,0.11847633635625243,colour,0.5
034,69,1,2,1,6,6,13.930660274811089,14.575901198200881,"[68, 0, 186]",186,a,0.12206506007350981,colour,0.5
034,69,1,2,1,7,7,15.086712662596256,15.647898201830685,"[56, 0, 198]",198,a,0.03827276499941945,colour,0.5
034,69,1,2,1,8,8,16.16480443184264,16.775904034031555,"[3, 0, 251]",251,a,0.08776423125527799,colour,0.5
034,69,1,2,1,9,9,17.289783951826394,17.919909856515005,"[19, 0, 235]",235,a,0.10668892157264054,colour,0.5
034,69,1,2,1,10,10,18.430349136469886,19.135963095119223,"[24, 0, 230]",230,a,0.18221754161641002,colour,0.5
034,69,1,2,1,11,11,19.649188834941015,20.264221382327378,"[79, 0, 175]",175,l,0.09191576112061739,colour,0.5
034,69,1,2,1,12,12,20.761859882157296,21.351891878293827,"[73, 0, 181]",181,l,0.06679390510544181,colour,0.5
034,69,1,2,1,13,13,21.868590945377946,22.528028438799083,"[74, 0, 180]",180,l,0.13605446717701852,colour,0.5
034,69,1,2,1,14,14,23.040489329956472,23.6878912858665,"[33, 0, 221]",221,a,0.12408588360995054,colour,0.5
034,69,1,2,1,15,15,24.196738640777767,24.783861296949908,"[83, 0, 171]",171,l,0.06383966701105237,colour,0.5
034,69,1,2,1,16,16,25.290494056185707,25.94390531303361,"[34, 0, 220]",220,a,0.13013535691425204,colour,0.5
034,69,1,2,1,17,17,26.46235108678229,27.031890491954982,"[48, 0, 206]",206,a,0.04620048962533474,colour,0.5
034,69,1,2,1,18,18,27.540472788503394,28.19986183894798,"[39, 0, 215]",215,a,0.13601862732321024,colour,0.5
034,69,1,2,1,19,19,28.71240346832201,29.335902127670124,"[69, 0, 185]",185,l,0.10024835914373398,colour,0.5
034,69,1,2,1,20,20,29.852970622247085,30.767868789378554,"[32, 0, 222]",222,a,0.3923252820968628,colour,0.5
034,69,1,2,1,21,21,31.274879640666768,31.95203389902599,"[45, 0, 209]",209,a,0.15170235955156386,colour,0.5
034,69,1,2,1,22,22,32.464544414775446,33.19989374047145,"[75, 0, 179]",179,l,0.21209587482735515,colour,0.5
034,69,1,2,1,23,23,33.714605854824185,34.35989443352446,"[44, 0, 210]",210,a,0.12202803860418499,colour,0.5
034,69,1,2,1,24,24,34.8707578855101,35.68792870128527,"[1, 0, 253]",253,a,0.29384135245345533,colour,0.5
034,69,1,2,1,25,25,36.19890636857599,37.02392101963051,"[18, 0, 236]",236,a,0.29990815510973334,colour,0.5
034,69,1,2,1,26,26,37.544533733744174,38.40786053449847,"[49, 0, 205]",205,a,0.33998276526108384,colour,0.5
034,69,1,2,1,27,27,38.919523493619636,39.53587739425711,"[12, 0, 242]",242,a,0.0930843020323664,colour,0.5
034,69,1,2,1,28,28,40.04448332148604,40.887886638520285,"[2, 0, 252]",252,a,0.3200785801745951,colour,0.5
034,69,1,2,1,29,29,41.403807072201744,42.00790291232988,"[7, 0, 247]",247,a,0.08067618636414409,colour,0.5
034,69,1,2,1,30,30,42.529211945831776,43.167898485437036,"[88, 0, 166]",166,l,0.11532123642973602,colour,0.5
034,69,1,2,1,31,31,43.685537268873304,46.032079144148156,"[98, 0, 156]",156,l,1.8232415567617863,colour,0.5
034,69,1,2,1,32,32,46.54485708125867,47.2238754122518,"[51, 0, 203]",203,a,0.1544372255448252,colour,0.5
034,69,1,2,1,33,33,47.73367784358561,48.7198396732565,"[67, 0, 187]",187,l,0.4631454742047936,colour,0.5
034,69,1,2,1,34,34,49.233657363569364,49.89588210452348,"[23, 0, 231]",231,a,0.13919381308369339,colour,0.5
034,69,1,2,1,35,35,50.405551021918654,51.095916447928175,"[47, 0, 207]",207,a,0.16705723060294986,colour,0.5
034,69,1,2,1,36,36,51.60861719120294,52.36788084101863,"[50, 0, 204]",204,a,0.23588141123764217,colour,0.5
034,69,1,2,1,37,37,52.87425090512261,53.56793723977171,"[66, 0, 188]",188,l,0.17042579455301166,colour,0.5
034,69,1,2,1,38,38,54.07735685282387,54.75186998047866,"[0, 0, 254]",254,a,0.15120138763450086,colour,0.5
034,69,1,2,1,39,39,55.26483499421738,55.935923631768674,"[16, 0, 238]",238,a,0.1477619311772287,colour,0.5
034,69,1,2,1,40,40,56.454320568591356,57.175902222283185,"[29, 0, 225]",225,a,0.19826636905781925,colour,0.5
034,69,1,2,1,41,41,57.68872033152729,58.58415187639184,"[58, 0, 196]",196,l,0.37220369395799935,colour,0.5
034,69,1,2,1,42,42,59.094948374666274,59.90383700444363,"[80, 0, 174]",174,l,0.28563478495925665,colour,0.5
034,69,1,2,1,43,43,60.42297240253538,61.09583728481084,"[94, 0, 160]",160,l,0.14953108690679073,colour,0.5
034,69,1,2,1,44,44,61.6105438855011,62.41585954511538,"[57, 0, 197]",197,a,0.28201691643334925,colour,0.5
034,69,1,2,1,45,45,62.92301808856428,64.07192729297094,"[99, 0, 155]",155,l,0.6256612674333155,colour,0.5
034,69,1,2,1,46,46,64.57924731308594,65.4238695835229,"[65, 0, 189]",189,a,0.32131249946542084,colour,0.5
034,69,1,2,1,47,47,65.93866204237565,66.9278462457005,"[28, 0, 226]",226,a,0.4658866417594254,colour,0.5
034,69,1,2,1,48,48,67.43980695237406,68.33593442314304,"[62, 0, 192]",192,a,0.37280903523787856,colour,0.5
034,69,1,2,1,49,49,68.84605980780907,69.49587210081518,"[26, 0, 228]",228,a,0.1272575247567147,colour,0.5
034,69,1,2,1,50,50,70.00233550625853,70.91190218133852,"[36, 0, 218]",218,a,0.38477683113887906,colour,0.5
034,69,1,2,2,1,51,76.58223069598898,80.9518704530783,"[81, 0, 173]",173,l,3.8457088912837207,colour,0.5
034,69,1,2,2,2,52,81.45801956951618,82.42388848797418,"[75, 0, 179]",179,l,0.4414099052082747,colour,0.5
034,69,1,2,2,3,53,82.94357960252091,83.77584023098461,"[94, 0, 160]",160,l,0.30897527607157826,colour,0.5
034,69,1,2,2,4,54,84.28815067280084,84.93582438258454,"[6, 0, 248]",248,a,0.12424657284282148,colour,0.5
034,69,1,2,2,5,55,85.44436768814921,86.06381958071142,"[33, 0, 221]",221,a,0.09612439852207899,colour,0.5
034,69,1,2,2,6,56,86.58507977752015,87.23985807364807,"[85, 0, 169]",169,l,0.1315181499812752,colour,0.5
034,69,1,2,2,7,57,87.75690333126113,88.4718959426973,"[82, 0, 172]",172,l,0.19163676048628986,colour,0.5
034,69,1,2,2,8,58,88.99326877947897,89.8318671763409,"[88, 0, 166]",166,l,0.31526617682538927,colour,0.5
034,69,1,2,2,9,59,90.35260670864955,91.19985514343716,"[69, 0, 185]",185,l,0.3239492978900671,colour,0.5
034,69,1,2,2,10,60,91.7120155300945,92.479876836529,"[41, 0, 213]",213,a,0.24460706789977849,colour,0.5
034,69,1,2,2,11,61,92.99410885269754,93.89583523687907,"[1, 0, 253]",253,a,0.37847805325873196,colour,0.5
034,69,1,2,2,12,62,94.41600960027426,95.25587303028442,"[7, 0, 247]",247,a,0.3167789389844984,colour,0.5
034,69,1,2,2,13,63,95.77533413888887,96.67986706923693,"[66, 0, 188]",188,l,0.38117156573571265,colour,0.5
034,69,1,2,2,14,64,97.19722858513705,97.95986316213384,"[30, 0, 224]",224,a,0.23936970462091267,colour,0.5
034,69,1,2,2,15,65,98.47857556957752,99.27986297314055,"[99, 0, 155]",155,l,0.27808436495251954,colour,0.5
034,69,1,2,2,16,66,99.79096745885909,100.59983679023571,"[18, 0, 236]",236,a,0.2856383298058063,colour,0.5
034,69,1,2,2,17,67,101.11908679734915,101.78385735838674,"[89, 0, 165]",165,l,0.14146945485845208,colour,0.5
034,69,1,2,2,18,68,102.29097691108473,103.2078431264963,"[74, 0, 180]",180,l,0.39358716434799135,colour,0.5
034,69,1,2,2,19,69,103.72852830798365,104.42384004499763,"[51, 0, 203]",203,a,0.1720330798998475,colour,0.5
034,69,1,2,2,20,70,104.93160038511269,105.78387035545893,"[45, 0, 209]",209,a,0.3289889502339065,colour,0.5
034,69,1,2,2,21,71,106.2909264988266,107.13583036907949,"[36, 0, 218]",218,a,0.3196205373387784,colour,0.5
034,69,1,2,2,22,72,107.65226792241447,108.64781785733066,"[70, 0, 184]",184,l,0.4723149947822094,colour,0.5
034,69,1,2,2,23,73,109.15384369995445,109.9759123835247,"[78, 0, 176]",176,l,0.29871677118353546,colour,0.5
034,69,1,2,2,24,74,110.49753846297972,111.23185000452213,"[73, 0, 181]",181,l,0.21109038591384888,colour,0.5
034,69,1,2,2,25,75,111.746330143651,112.45585144753568,"[49, 0, 205]",205,a,0.18616427155211568,colour,0.5
034,69,1,2,2,26,76,112.96520331897773,113.79183195065707,"[4, 0, 250]",250,a,0.30349372839555144,colour,0.5
034,69,1,2,2,27,77,114.30889611295424,115.03979340428486,"[38, 0, 216]",216,a,0.20764344674535096,colour,0.5
034,69,1,2,2,28,78,115.55961133702658,116.37582983332686,"[16, 0, 238]",238,a,0.293687752680853,colour,0.5
034,69,1,2,2,29,79,116.88697409746237,117.70384519640356,"[48, 0, 206]",206,a,0.2942509523127228,colour,0.5
034,69,1,2,2,30,80,118.2151430605445,119.03984814882278,"[32, 0, 222]",222,a,0.30154812964610755,colour,0.5
034,69,1,2,2,31,81,119.5595971585717,120.40810235589743,"[21, 0, 233]",233,a,0.3384392831940204,colour,0.5
034,69,1,2,2,32,82,120.92135684634559,121.74382922216319,"[52, 0, 202]",202,a,0.2991299156565219,colour,0.5
034,69,1,2,2,33,83,122.26276927255094,122.87981516029686,"[79, 0, 175]",175,l,0.0937660492490977,colour,0.5
034,69,1,2,2,34,84,123.3876845955383,124.19985829433426,"[39, 0, 215]",215,a,0.2888103649020195,colour,0.5
034,69,1,2,2,35,85,124.71585395256989,125.58383246744052,"[62, 0, 192]",192,a,0.3447821717709303,colour,0.5
034,69,1,2,2,36,86,126.09075824799947,126.94381000241265,"[64, 0, 190]",190,l,0.32968999608419836,colour,0.5
034,69,1,2,2,37,87,127.45023559872061,128.25582695030607,"[28, 0, 226]",226,a,0.28254230692982674,colour,0.5
034,69,1,2,2,38,88,128.76269404799677,129.53580768336542,"[98, 0, 156]",156,l,0.2498377354349941,colour,0.5
034,69,1,2,2,39,89,130.04389885417186,130.98383932025172,"[65, 0, 189]",189,l,0.4144936874508858,colour,0.5
034,69,1,2,2,40,90,131.49990468937904,132.16782089788467,"[23, 0, 231]",231,a,0.14665167964994907,colour,0.5
034,69,1,2,2,41,91,132.68533798283897,133.4078384791501,"[95, 0, 159]",159,l,0.19916709465906024,colour,0.5
034,69,1,2,2,42,92,133.9197531058453,134.688116959529,"[5, 0, 249]",249,a,0.2450918920803815,colour,0.5
034,69,1,2,2,43,93,135.20099965971895,135.93597916397266,"[77, 0, 177]",177,l,0.21136332117021084,colour,0.5
034,69,1,2,2,44,94,136.45109181967564,137.2478149428498,"[25, 0, 229]",229,a,0.2734610077459365,colour,0.5
034,69,1,2,2,45,95,137.7634636228904,138.59188779792748,"[37, 0, 217]",217,a,0.30511007201857865,colour,0.5
034,69,1,2,2,46,96,139.10721903829835,139.84790930827148,"[11, 0, 243]",243,a,0.21739704068750143,colour,0.5
034,69,1,2,2,47,97,140.35723754903302,141.03979852423072,"[97, 0, 157]",157,l,0.15932918596081436,colour,0.5
034,69,1,2,2,48,98,141.5604250228498,142.3678182195872,"[22, 0, 232]",232,a,0.28452177648432553,colour,0.5
034,69,1,2,2,49,99,142.88849513046443,143.68780936603434,"[31, 0, 223]",223,a,0.2760343970730901,colour,0.5
034,69,1,2,2,50,100,144.20095161045901,145.0321843009442,"[72, 0, 182]",182,l,0.30792410112917423,colour,0.5
034,69,1,2,3,1,101,151.61131542967632,153.09578726650216,"[72, 0, 182]",182,l,0.9603574387729168,colour,0.5
034,69,1,2,3,2,102,153.61220040149055,154.351982856635,"[9, 0, 245]",245,a,0.2165443643461913,colour,0.5
034,69,1,2,3,3,103,154.8620377429761,155.59978677192703,"[37, 0, 217]",217,a,0.2143856950569898,colour,0.5
034,69,1,2,3,4,104,156.11206255527213,156.79982584132813,"[34, 0, 220]",220,a,0.16490525635890663,colour,0.5
034,69,1,2,3,5,105,157.31769659998827,157.967818062054,"[98, 0, 156]",156,l,0.12722168490290642,colour,0.5
034,69,1,2,3,6,106,158.46747423452325,159.1838169498369,"[3, 0, 251]",251,a,0.19389664847403765,colour,0.5
034,69,1,2,3,7,107,159.70180901302956,160.34380504,"[84, 0, 170]",170,l,0.13122000871226192,colour,0.5
034,69,1,2,3,8,108,160.8581197638996,161.6080579299014,"[93, 0, 161]",161,l,0.22665675217285752,colour,0.5
034,69,1,2,3,9,109,162.12896602833644,162.8798068894539,"[11, 0, 243]",243,a,0.22752793948166072,colour,0.5
034,69,1,2,3,10,110,163.39459580392577,164.15177994733676,"[90, 0, 164]",164,l,0.23387949261814356,colour,0.5
034,69,1,2,3,11,111,164.6602547238581,165.31177709577605,"[94, 0, 160]",160,l,0.13347044424153864,colour,0.5
034,69,1,2,3,12,112,165.82679247157648,166.91981100128032,"[56, 0, 198]",198,a,0.5696370790246874,colour,0.5
034,69,1,2,3,13,113,167.4267994032707,168.0718524621334,"[97, 0, 157]",157,l,0.12169366353191435,colour,0.5
034,69,1,2,3,14,114,168.5830022401642,169.30378793133423,"[49, 0, 205]",205,a,0.19767481251619756,colour,0.5
034,69,1,2,3,15,115,169.81734095723368,170.76782349706627,"[27, 0, 227]",227,a,0.42738229501992464,colour,0.5
034,69,1,2,3,16,116,171.28616884024814,171.98379324027337,"[14, 0, 240]",240,a,0.17439851840026677,colour,0.5
034,69,1,2,3,17,117,172.50491559086367,173.36775284120813,"[4, 0, 250]",250,a,0.3395006977953017,colour,0.5
034,69,1,2,3,18,118,173.87989196018316,174.74383237282746,"[39, 0, 215]",215,a,0.340605829609558,colour,0.5
034,69,1,2,3,19,119,175.2548368216958,176.07981208828278,"[81, 0, 173]",173,l,0.3016174465883523,colour,0.5
034,69,1,2,3,20,120,176.5985961756669,177.41580480057746,"[69, 0, 185]",185,l,0.29241759958676994,colour,0.5
034,69,1,2,3,21,121,177.92838384537026,178.71979438094422,"[23, 0, 231]",231,a,0.26797985401935875,colour,0.5
034,69,1,2,3,22,122,179.24088049773127,180.0797790051438,"[55, 0, 199]",199,a,0.3156340289860964,colour,0.5
034,69,1,2,3,23,123,180.60027514072135,181.4157984990161,"[89, 0, 165]",165,l,0.2924912488088012,colour,0.5
034,69,1,2,3,24,124,181.92867804830894,182.62381531158462,"[83, 0, 171]",171,l,0.1721299660857767,colour,0.5
034,69,1,2,3,25,125,183.13154650689103,183.9757769005373,"[88, 0, 166]",166,l,0.32094307197257876,colour,0.5
034,69,1,2,3,26,126,184.49122156831436,185.33585250307806,"[87, 0, 167]",167,l,0.3213152561802417,colour,0.5
034,69,1,2,3,27,127,185.85062566353008,187.0558260839898,"[71, 0, 183]",183,l,0.681987535674125,colour,0.5
034,69,1,2,3,28,128,187.56946024205536,188.26376767177135,"[54, 0, 200]",200,a,0.17117292038165033,colour,0.5
034,69,1,2,3,29,129,188.77248978358693,189.5757633522153,"[45, 0, 209]",209,a,0.2800268130376935,colour,0.5
034,69,1,2,3,30,130,190.0850124298595,190.975771386642,"[0, 0, 254]",254,a,0.36752441059798,colour,0.5
034,69,1,2,3,31,131,191.49121054052375,192.2718356056139,"[24, 0, 230]",230,a,0.2573003279976547,colour,0.5
034,69,1,2,3,32,132,192.78817824204452,193.54378582024947,"[20, 0, 234]",234,a,0.23236436722800136,colour,0.5
034,69,1,2,3,33,133,194.0537375190761,194.83980789780617,"[2, 0, 252]",252,a,0.2627818756736815,colour,0.5
034,69,1,2,3,34,134,195.3506110913586,196.06403028825298,"[44, 0, 210]",210,a,0.19022639840841293,colour,0.5
034,69,1,2,3,35,135,196.5849860419985,197.42379829729907,"[64, 0, 190]",190,l,0.31559818889945745,colour,0.5
034,69,1,2,3,36,136,197.944307429716,198.75977880042046,"[35, 0, 219]",219,a,0.29211985203437507,colour,0.5
034,69,1,2,3,37,137,199.2723759622313,200.05577685311437,"[26, 0, 228]",228,a,0.2602860738988966,colour,0.5
034,69,1,2,3,38,138,200.56930191605352,201.29576686536893,"[96, 0, 158]",158,l,0.2030972831416875,colour,0.5
034,69,1,2,3,39,139,201.80368474358693,202.60781177622266,"[79, 0, 175]",175,l,0.2813461967743933,colour,0.5
034,69,1,2,3,40,140,203.11621408513747,203.82377009792253,"[76, 0, 178]",178,l,0.18426711577922106,colour,0.5
034,69,1,2,3,41,141,204.33499194984324,205.36777332122438,"[21, 0, 233]",233,a,0.5095228005666286,colour,0.5
034,69,1,2,3,42,142,205.88180880830623,206.6077806625981,"[17, 0, 237]",237,a,0.20272706798277795,colour,0.5
034,69,1,2,3,43,143,207.1174180721864,207.7597925849259,"[15, 0, 239]",239,a,0.11894737579859793,colour,0.5
034,69,1,2,3,44,144,208.27362248441204,209.11977287684567,"[61, 0, 193]",193,l,0.3228398337960243,colour,0.5
034,69,1,2,3,45,145,209.63299704133533,210.47979373508133,"[48, 0, 206]",206,a,0.3236027134116739,colour,0.5
034,69,1,2,3,46,146,210.99240980134346,211.80776498746127,"[10, 0, 244]",244,a,0.2920769229531288,colour,0.5
034,69,1,2,3,47,147,212.32051299209706,213.44785834476352,"[67, 0, 187]",187,l,0.6041722462978214,colour,0.5
034,69,1,2,3,48,148,213.96111795539036,214.9918166694697,"[59, 0, 195]",195,l,0.5073850047774613,colour,0.5
034,69,1,2,3,49,149,215.50805651210248,216.43979671248235,"[68, 0, 186]",186,l,0.4085351924877614,colour,0.5
034,69,1,2,3,50,150,216.94668783457018,217.8077799535822,"[25, 0, 229]",229,a,0.3378292159177363,colour,0.5
034,69,1,2,4,1,151,223.46147162886336,224.23988958145492,"[25, 0, 229]",229,a,0.25429843459278345,colour,0.5
034,69,1,2,4,2,152,224.75917424680665,225.65572352637537,"[27, 0, 227]",227,a,0.3732509301044047,colour,0.5
034,69,1,2,4,3,153,226.1530910602305,226.90376808145083,"[94, 0, 160]",160,l,0.22739245649427176,colour,0.5
034,69,1,2,4,4,154,227.41919935843907,228.28783598984592,"[98, 0, 156]",156,l,0.34539775270968676,colour,0.5
034,69,1,2,4,5,155,228.7942808845546,229.76812163856812,"[59, 0, 195]",195,a,0.4505380722694099,colour,0.5
034,69,1,2,4,6,156,230.27861920767464,231.00776270311326,"[87, 0, 167]",167,l,0.20579906622879207,colour,0.5
034,69,1,2,4,7,157,231.5286152693443,232.43172720330767,"[38, 0, 216]",216,a,0.3784831732045859,colour,0.5
034,69,1,2,4,8,158,232.95182319148444,233.9837700035423,"[70, 0, 184]",184,l,0.508754801005125,colour,0.5
034,69,1,2,4,9,159,234.49862784077413,235.42399482638575,"[74, 0, 180]",180,l,0.4024723283946514,colour,0.5
034,69,1,2,4,10,160,235.93607014231384,237.02378553664312,"[42, 0, 212]",212,a,0.5644446141086519,colour,0.5
034,69,1,2,4,11,161,237.52986179152504,238.67975836759433,"[58, 0, 196]",196,a,0.6265293036121875,colour,0.5
034,69,1,2,4,12,162,239.18684050510637,240.15178585494868,"[77, 0, 177]",177,l,0.44234922784380615,colour,0.5
034,69,1,2,4,13,163,240.67045021313243,241.63177257450297,"[96, 0, 158]",158,l,0.43800589512102306,colour,0.5
034,69,1,2,4,14,164,242.13951440365054,243.11174708465114,"[31, 0, 223]",223,a,0.44882051018066704,colour,0.5
034,69,1,2,4,15,165,243.6240496498067,244.58379268902354,"[81, 0, 173]",173,l,0.4365057360846549,colour,0.5
034,69,1,2,4,16,166,245.09274520049803,246.0317573719658,"[5, 0, 249]",249,a,0.41568979737348855,colour,0.5
034,69,1,2,4,17,167,246.54591770819388,247.50375177618116,"[79, 0, 175]",175,l,0.43459834018722177,colour,0.5
034,69,1,2,4,18,168,248.01462468062527,248.96779128047638,"[16, 0, 238]",238,a,0.4298741582315415,colour,0.5
034,69,1,2,4,19,169,249.48377276025712,250.43976678024046,"[23, 0, 231]",231,a,0.4328280028421432,colour,0.5
034,69,1,2,4,20,170,250.95251793577336,251.89577182778157,"[92, 0, 162]",162,l,0.4197724044788629,colour,0.5
034,69,1,2,4,21,171,252.40568571723998,253.46375435986556,"[24, 0, 230]",230,a,0.5347454810980707,colour,0.5
034,69,1,2,4,22,172,253.98378418199718,254.93575033941306,"[34, 0, 220]",220,a,0.4272235753014684,colour,0.5
034,69,1,2,4,23,173,255.4540433010552,256.43187765264884,"[91, 0, 163]",163,l,0.45451749162748456,colour,0.5
034,69,1,2,4,24,174,256.93839540868066,258.2557095843367,"[63, 0, 191]",191,l,0.793955567991361,colour,0.5
034,69,1,2,4,25,175,258.7695721730124,259.79974470916204,"[40, 0, 214]",214,a,0.5068852144759148,colour,0.5
034,69,1,2,4,26,176,260.3164512591902,261.1997677097097,"[6, 0, 248]",248,a,0.3601071103475988,colour,0.5
034,69,1,2,4,27,177,261.70713026542217,262.4397336971015,"[75, 0, 179]",179,l,0.20934604248031974,colour,0.5
034,69,1,2,4,28,178,262.95709363766946,263.8319786346983,"[90, 0, 164]",164,l,0.3515626231674105,colour,0.5
034,69,1,2,4,29,179,264.3476726068184,265.2877469807863,"[37, 0, 217]",217,a,0.4167567261029035,colour,0.5
034,69,1,2,4,30,180,265.80081872688606,266.75176009745337,"[52, 0, 202]",202,l,0.42768752574920654,colour,0.5
034,69,1,2,4,31,181,267.2708364184946,268.07974080205895,"[15, 0, 239]",239,a,0.2855930372606963,colour,0.5
034,69,1,2,4,32,182,268.5988194863312,269.4877856564708,"[10, 0, 244]",244,a,0.3657107502222061,colour,0.5
034,69,1,2,4,33,183,270.00521294469945,270.89570605545305,"[9, 0, 245]",245,a,0.36808367166668177,colour,0.5
034,69,1,2,4,34,184,271.411309836898,272.3357260785997,"[55, 0, 199]",199,a,0.40106708626262844,colour,0.5
034,69,1,2,4,35,185,272.8488474492915,273.79183825221844,"[22, 0, 232]",232,a,0.4197794934734702,colour,0.5
034,69,1,2,4,36,186,274.3019514277112,275.2157775464002,"[86, 0, 168]",168,l,0.3905486431904137,colour,0.5
034,69,1,2,4,37,187,275.7238053078763,276.59211071487516,"[95, 0, 159]",159,l,0.34500666381791234,colour,0.5
034,69,1,2,4,38,188,277.09996045776643,278.07974749756977,"[57, 0, 197]",197,a,0.4566544995177537,colour,0.5
034,69,1,2,4,39,189,278.59998920862563,279.61579582071863,"[50, 0, 204]",204,a,0.49263783800415695,colour,0.5
034,69,1,2,4,40,190,280.1311940148007,281.16772637469694,"[83, 0, 171]",171,l,0.5131824167910963,colour,0.5
034,69,1,2,4,41,191,281.67809161171317,282.69575402582996,"[8, 0, 246]",246,a,0.49437784939073026,colour,0.5
034,69,1,2,4,42,192,283.2093287133612,284.1597612348851,"[18, 0, 236]",236,a,0.42715819692239165,colour,0.5
034,69,1,2,4,43,193,284.67819125484675,285.6077653025277,"[26, 0, 228]",228,a,0.40624458459205925,colour,0.5
034,69,1,2,4,44,194,286.1157339869533,286.99174695881084,"[12, 0, 242]",242,a,0.3528174161911011,colour,0.5
034,69,1,2,4,45,195,287.5081356752198,288.86375884967856,"[2, 0, 252]",252,a,0.8323456989601254,colour,0.5
034,69,1,2,4,46,196,289.383162062848,290.2637302565854,"[33, 0, 221]",221,a,0.3576983488164842,colour,0.5
034,69,1,2,4,47,197,290.77374575822614,291.695754813496,"[84, 0, 170]",170,l,0.3987032228615135,colour,0.5
034,69,1,2,4,48,198,292.21123138279654,293.1597435118165,"[65, 0, 189]",189,l,0.4251838473137468,colour,0.5
034,69,1,2,4,49,199,293.68004626897164,294.57571175834164,"[47, 0, 207]",207,a,0.37241282616741955,colour,0.5
034,69,1,2,4,50,200,295.0862999120727,296.01573808304965,"[1, 0, 253]",253,a,0.40617999387905,colour,0.5
034,69,1,2,5,1,201,302.49292652728036,304.0877248465549,"[82, 0, 172]",172,l,1.0707500872667879,colour,0.4
034,69,1,2,5,2,202,304.60309901600704,305.4397230632603,"[21, 0, 233]",233,a,0.31334342109039426,colour,0.4
034,69,1,2,5,3,203,305.94691232685,306.82372362422757,"[22, 0, 232]",232,a,0.3535877789836377,colour,0.4
034,69,1,2,5,4,204,307.33964681462385,307.98375858180225,"[36, 0, 218]",218,a,0.1207807285245508,colour,0.4
034,69,1,2,5,5,205,308.4958890362177,309.20777932344936,"[9, 0, 245]",245,a,0.1887077286373824,colour,0.4
034,69,1,2,5,6,206,309.7146062485408,310.52775668515824,"[12, 0, 242]",242,a,0.2898627209942788,colour,0.4
034,69,1,2,5,7,207,311.04276969772764,311.8956713969819,"[19, 0, 235]",235,a,0.32960295607335865,colour,0.4
034,69,1,2,5,8,208,312.40207336237654,313.2957424467895,"[68, 0, 186]",186,l,0.37034986121580005,colour,0.4
034,69,1,2,5,9,209,313.8083667838946,314.6717148523312,"[65, 0, 189]",189,l,0.34016826655715704,colour,0.4
034,69,1,2,5,10,210,315.1862938469276,316.0237142506521,"[1, 0, 253]",253,a,0.31412520515732467,colour,0.4
034,69,1,2,5,11,211,316.5300776192453,317.4157051574439,"[90, 0, 164]",164,l,0.3647659136913717,colour,0.4
034,69,1,2,5,12,212,317.93391383602284,318.88770468183793,"[59, 0, 195]",195,l,0.43068036111071706,colour,0.4
034,69,1,2,5,13,213,319.4026097806636,320.23971471376717,"[78, 0, 176]",176,l,0.3137329346500337,colour,0.4
034,69,1,2,5,14,214,320.7463813435752,321.8957462278195,"[51, 0, 203]",203,a,0.6260893777944148,colour,0.4
034,69,1,2,5,15,215,322.40261135599576,323.4317275972571,"[60, 0, 194]",194,a,0.5057450304739177,colour,0.4
034,69,1,2,5,16,216,323.94952352531254,324.83975669764914,"[16, 0, 238]",238,a,0.3670289523433894,colour,0.4
034,69,1,2,5,17,217,325.3557535375003,326.2477519274689,"[10, 0, 244]",244,a,0.3686405699700117,colour,0.4
034,69,1,2,5,18,218,326.7620666513685,327.6557184064295,"[6, 0, 248]",248,a,0.37037585489451885,colour,0.4
034,69,1,2,5,19,219,328.1616284584161,329.13570788293146,"[56, 0, 198]",198,a,0.45068615837953985,colour,0.4
034,69,1,2,5,20,220,329.64596244925633,330.5197056867182,"[42, 0, 212]",212,a,0.35036099911667407,colour,0.4
034,69,1,2,5,21,221,331.0367131351959,331.9277194272727,"[93, 0, 161]",161,l,0.367757567204535,colour,0.4
034,69,1,2,5,22,222,332.44299749820493,333.3598314181436,"[17, 0, 237]",237,a,0.39357141056098044,colour,0.4
034,69,1,2,5,23,223,333.8804815474432,334.78374511236325,"[63, 0, 191]",191,l,0.3799459170550108,colour,0.4
034,69,1,2,5,24,224,335.302385445917,336.1677011686843,"[86, 0, 168]",168,l,0.3420843272469938,colour,0.4
034,69,1,2,5,25,225,336.67738111363724,337.65577236330137,"[77, 0, 177]",177,l,0.4550995957106352,colour,0.4
034,69,1,2,5,26,226,338.1773649659008,339.1837177006528,"[54, 0, 200]",200,a,0.48303744988515973,colour,0.4
034,69,1,2,5,27,227,339.6928840705659,340.67970953066833,"[39, 0, 215]",215,a,0.46348496922291815,colour,0.4
034,69,1,2,5,28,228,341.19291400304064,342.0957754510455,"[75, 0, 179]",179,l,0.3794890558347106,colour,0.4
034,69,1,2,5,29,229,342.6148742213845,343.4797137842979,"[89, 0, 165]",165,l,0.3415565735194832,colour,0.4
034,69,1,2,5,30,230,343.98979781521484,344.943671368761,"[50, 0, 204]",204,a,0.43050588737241924,colour,0.4
034,69,1,2,5,31,231,345.45855165529065,346.3516851090826,"[2, 0, 252]",252,a,0.36979138758033514,colour,0.4
034,69,1,2,5,32,232,346.866757592652,347.83970116544515,"[44, 0, 210]",210,a,0.4498559311032295,colour,0.4
034,69,1,2,5,33,233,348.3511262417305,349.70366796595044,"[66, 0, 188]",188,l,0.8291776026599109,colour,0.4
034,69,1,2,5,34,234,350.2104791372549,351.1038465355523,"[81, 0, 173]",173,l,0.3700950429774821,colour,0.4
034,69,1,2,5,35,235,351.6167130880058,352.5757546876557,"[87, 0, 167]",167,l,0.4358192626386881,colour,0.4
034,69,1,2,5,36,236,353.0854759863578,354.1757234162651,"[26, 0, 228]",228,a,0.5669360836036503,colour,0.4
034,69,1,2,5,37,237,354.6948277002666,355.5916719704401,"[99, 0, 155]",155,l,0.37390707759186625,colour,0.4
034,69,1,2,5,38,238,356.10106637724675,357.18370076525025,"[58, 0, 196]",196,l,0.5594486787449569,colour,0.4
034,69,1,2,5,39,239,357.6960824932903,358.5677288954612,"[92, 0, 162]",162,l,0.34834175114519894,colour,0.4
034,69,1,2,5,40,240,359.0868418440223,360.0556874501053,"[28, 0, 226]",226,a,0.44565595826134086,colour,0.4
034,69,1,2,5,41,241,360.5711179394275,362.1197563353926,"[53, 0, 201]",201,a,1.0253156281542033,colour,0.4
034,69,1,2,5,42,242,362.6364321655128,363.65567626501434,"[24, 0, 230]",230,a,0.49683150951750576,colour,0.4
034,69,1,2,5,43,243,364.1668670028448,365.23170900763944,"[67, 0, 187]",187,l,0.5417988675180823,colour,0.4
034,69,1,2,5,44,244,365.7449520768132,366.7198105286807,"[98, 0, 156]",156,l,0.45157113019376993,colour,0.4
034,69,1,2,5,45,245,367.2304869038053,368.1516897564288,"[41, 0, 213]",213,a,0.3979005648288876,colour,0.4
034,69,1,2,5,46,246,368.66961447219364,369.6476894635707,"[48, 0, 206]",206,a,0.4548046051058918,colour,0.4
034,69,1,2,5,47,247,370.1541268751025,371.16765863331966,"[88, 0, 166]",166,l,0.49029012280516326,colour,0.4
034,69,1,2,5,48,248,371.6747970904689,372.6557282526046,"[91, 0, 163]",163,l,0.4638843289576471,colour,0.4
034,69,1,2,5,49,249,373.16843647905625,374.12000012607314,"[76, 0, 178]",178,l,0.42819637479260564,colour,0.4
034,69,1,2,5,50,250,374.6372001650743,375.55965662933886,"[69, 0, 185]",185,l,0.39990720991045237,colour,0.4
034,69,1,2,6,1,251,389.528285226319,391.4556537370663,"[68, 0, 186]",186,a,1.4033273679669946,colour,0.28
034,69,1,2,6,2,252,391.9666199828498,392.74367995443754,"[80, 0, 174]",174,l,0.25394042837433517,colour,0.28
034,69,1,2,6,3,253,393.263478982728,394.0876555298455,"[29, 0, 225]",225,a,0.30090773617848754,colour,0.28
034,69,1,2,6,4,254,394.60717689665034,395.551713938592,"[64, 0, 190]",190,l,0.4195640597026795,colour,0.28
034,69,1,2,6,5,255,396.0619488125667,396.6396380714141,"[46, 0, 208]",208,a,0.054649272467941046,colour,0.28
034,69,1,2,6,6,256,397.15582671412267,397.96766170533374,"[55, 0, 199]",199,a,0.28879697411321104,colour,0.28
034,69,1,2,6,7,257,398.4838668894954,399.1756403145846,"[66, 0, 188]",188,l,0.16871020174585283,colour,0.28
034,69,1,2,6,8,258,399.6898408231791,400.3916663778946,"[72, 0, 182]",182,l,0.17847364232875407,colour,0.28
034,69,1,2,6,9,259,400.9086265647784,401.58405774715357,"[78, 0, 176]",176,l,0.15210526390001178,colour,0.28
034,69,1,2,6,10,260,402.0960704416502,402.9836742989719,"[51, 0, 203]",203,a,0.36420940957032144,colour,0.28
034,69,1,2,6,11,261,403.50232329708524,404.41568231442943,"[99, 0, 155]",155,l,0.39004767104052007,colour,0.28
034,69,1,2,6,12,262,404.92424491862766,405.81565372110344,"[9, 0, 245]",245,a,0.36811202857643366,colour,0.28
034,69,1,2,6,13,263,406.3303878910374,407.0556283732876,"[81, 0, 173]",173,l,0.2018224038183689,colour,0.28
034,69,1,2,6,14,264,407.5648904477712,408.2316648969427,"[85, 0, 169]",169,l,0.1434481367468834,colour,0.28
034,69,1,2,6,15,265,408.7523615001701,409.66370757087134,"[21, 0, 233]",233,a,0.40042157261632383,colour,0.28
034,69,1,2,6,16,266,410.17747563659213,410.919634164311,"[70, 0, 184]",184,l,0.21887396299280226,colour,0.28
034,69,1,2,6,17,267,411.42760442430153,412.3436860984657,"[56, 0, 198]",198,a,0.3929062047973275,colour,0.28
034,69,1,2,6,18,268,412.8649049412925,413.6559594401624,"[98, 0, 156]",156,l,0.26767265424132347,colour,0.28
034,69,1,2,6,19,269,414.17747681820765,415.1116553186439,"[63, 0, 191]",191,a,0.41128856921568513,colour,0.28
034,69,1,2,6,20,270,415.6305591352284,416.6636622787919,"[62, 0, 192]",192,a,0.5097717111930251,colour,0.28
034,69,1,2,6,21,271,417.1661706834566,417.9116599659901,"[40, 0, 214]",214,a,0.22230554255656898,colour,0.28
034,69,1,2,6,22,272,418.43179573258385,419.23967808601446,"[48, 0, 206]",206,a,0.2845922748092562,colour,0.28
034,69,1,2,6,23,273,419.7598957726732,420.77570514171384,"[65, 0, 189]",189,a,0.4925507982261479,colour,0.28
034,69,1,2,6,24,274,421.29114390187897,422.1757289299276,"[37, 0, 217]",217,a,0.3613512695301324,colour,0.28
034,69,1,2,6,25,275,422.69730656640604,423.479996959446,"[18, 0, 236]",236,a,0.25927704060450196,colour,0.28
034,69,1,2,6,26,276,423.99423370184377,424.87966077262536,"[86, 0, 168]",168,l,0.36208618618547916,colour,0.28
034,69,1,2,6,27,277,425.40115963993594,426.0236752599012,"[82, 0, 172]",172,l,0.09911605226807296,colour,0.28
034,69,1,2,6,28,278,426.5418256490957,427.35969081521034,"[96, 0, 158]",158,l,0.294593992177397,colour,0.28
034,69,1,2,6,29,279,427.8698929999955,428.7836308970582,"[14, 0, 240]",240,a,0.3903682616073638,colour,0.28
034,69,1,2,6,30,280,429.2917965045199,430.351642573718,"[75, 0, 179]",179,l,0.5365922243800014,colour,0.28
034,69,1,2,6,31,281,430.86987370159477,431.799928635126,"[8, 0, 246]",246,a,0.4066959321498871,colour,0.28
034,69,1,2,6,32,282,432.30852629151195,433.59963711048476,"[59, 0, 195]",195,l,0.7771367717068642,colour,0.28
034,69,1,2,6,33,283,434.11181049398147,435.039632715052,"[77, 0, 177]",177,l,0.40502799465321004,colour,0.28
034,69,1,2,6,34,284,435.5495032814797,436.4237033803947,"[83, 0, 171]",171,l,0.35095255565829575,colour,0.28
034,69,1,2,6,35,285,436.93402844504453,437.90365701681003,"[52, 0, 202]",202,a,0.44596433942206204,colour,0.28
034,69,1,2,6,36,286,438.4183683434967,439.40767936524935,"[88, 0, 166]",166,l,0.46599455550312996,colour,0.28
034,69,1,2,6,37,287,439.918431752827,440.81565923499875,"[95, 0, 159]",159,l,0.3738846282940358,colour,0.28
034,69,1,2,6,38,288,441.3253301216755,442.28762173769064,"[61, 0, 193]",193,a,0.4392339065670967,colour,0.28
034,69,1,2,6,39,289,442.79383780783974,443.8876444234047,"[92, 0, 162]",162,l,0.5705472568515688,colour,0.28
034,69,1,2,6,40,290,444.40318597713485,445.1916473945603,"[84, 0, 170]",170,l,0.26516464352607727,colour,0.28
034,69,1,2,6,41,291,445.7000619126484,446.58362648589537,"[73, 0, 181]",181,l,0.3604639347176999,colour,0.28
034,69,1,2,6,42,292,447.0906389125157,447.8076440766454,"[31, 0, 223]",223,a,0.193681608652696,colour,0.28
034,69,1,2,6,43,293,448.3250363126863,449.40764785767533,"[16, 0, 238]",238,a,0.5592820819001645,colour,0.28
034,69,1,2,6,44,294,449.91880551259965,451.2556560211815,"[32, 0, 222]",222,a,0.813620688393712,colour,0.28
034,69,1,2,6,45,295,451.76256841095164,452.67960949381813,"[13, 0, 241]",241,a,0.3938104750122875,colour,0.28
034,69,1,2,6,46,296,453.19999810960144,454.58359734131955,"[69, 0, 185]",185,l,0.8608948020264506,colour,0.28
034,69,1,2,6,47,297,455.0906885371078,456.14364663511515,"[91, 0, 163]",163,l,0.5297026778571308,colour,0.28
034,69,1,2,6,48,298,456.65311587252654,457.6156709715724,"[94, 0, 160]",160,l,0.43794445507228374,colour,0.28
034,69,1,2,6,49,299,458.12309969333,459.2956510744989,"[93, 0, 161]",161,l,0.6491848963778466,colour,0.28
034,69,1,2,6,50,300,459.81062667188235,460.57567828148603,"[79, 0, 175]",175,l,0.24178870650939643,colour,0.28
034,69,1,2,7,1,301,470.8965866949875,472.03162385826,"[60, 0, 194]",194,a,0.611207909649238,colour,0.14
034,69,1,2,7,2,302,472.527122593252,473.3597203537356,"[74, 0, 180]",180,l,0.3093131957575679,colour,0.14
034,69,1,2,7,3,303,473.8708957317285,474.51965803140774,"[54, 0, 200]",200,a,0.1262760607060045,colour,0.14
034,69,1,2,7,4,304,475.0270969932899,475.67162072332576,"[28, 0, 226]",226,a,0.12112416233867407,colour,0.14
034,69,1,2,7,5,305,476.1833600886166,476.8556582268793,"[76, 0, 178]",178,l,0.14921285957098007,colour,0.14
034,69,1,2,7,6,306,477.3708134179469,477.94361426099204,"[93, 0, 161]",161,l,0.04942293697968125,colour,0.14
034,69,1,2,7,7,307,478.4646708392538,479.2556512951851,"[72, 0, 182]",182,l,0.2678215280175209,colour,0.14
034,69,1,2,7,8,308,479.7615455931518,480.3516280015465,"[51, 0, 203]",203,a,0.07306826463900506,colour,0.14
034,69,1,2,7,9,309,480.8665445218794,481.5916042290628,"[64, 0, 190]",190,a,0.20196379465050995,colour,0.14
034,69,1,2,7,10,310,482.10613793111406,482.75159428827465,"[91, 0, 163]",163,l,0.12215249403379858,colour,0.14
034,69,1,2,7,11,311,483.26239945110865,483.9995856741443,"[45, 0, 209]",209,a,0.21470313472673297,colour,0.14
034,69,1,2,7,12,312,484.5124219004065,485.6476335374173,"[70, 0, 184]",184,l,0.6119227400049567,colour,0.14
034,69,1,2,7,13,313,486.16871138336137,487.0636612547096,"[77, 0, 177]",177,l,0.3717153249308467,colour,0.14
034,69,1,2,7,14,314,487.57493745721877,488.23166135232896,"[56, 0, 198]",198,a,0.13351297960616648,colour,0.14
034,69,1,2,7,15,315,488.7468181187287,489.6557597601786,"[52, 0, 202]",202,a,0.3856708612293005,colour,0.14
034,69,1,2,7,16,316,490.1686223743018,490.9276599565055,"[81, 0, 173]",173,l,0.2357447468675673,colour,0.14
034,69,1,2,7,17,317,491.4364198774565,492.5196217976045,"[80, 0, 174]",174,l,0.5584601254668087,colour,0.14
034,69,1,2,7,18,318,493.03171444288455,494.0796080760192,"[62, 0, 192]",192,a,0.5246819299645722,colour,0.14
034,69,1,2,7,19,319,494.5941342951264,495.23966036294587,"[97, 0, 157]",157,l,0.12215682631358504,colour,0.14
034,69,1,2,7,20,320,495.75034737214446,498.19160958519205,"[71, 0, 183]",183,l,1.9180871376302093,colour,0.14
034,69,1,2,7,21,321,498.704678574577,499.7516447005328,"[88, 0, 166]",166,l,0.5235433215275407,colour,0.14
034,69,1,2,7,22,322,500.26717404532246,501.1196149447933,"[50, 0, 204]",204,a,0.32982784206978977,colour,0.14
034,69,1,2,7,23,323,501.6265367867891,502.7276161608752,"[63, 0, 191]",191,a,0.5778097754810005,colour,0.14
034,69,1,2,7,24,324,503.2359274914488,504.1756631578319,"[0, 0, 254]",254,a,0.4165019078645855,colour,0.14
034,69,1,2,7,25,325,504.68964232481085,505.639612471452,"[7, 0, 247]",247,a,0.4266851879656315,colour,0.14
034,69,1,2,7,26,326,506.1583264542278,507.215595589485,"[90, 0, 164]",164,l,0.5340239552315325,colour,0.14
034,69,1,2,7,27,327,507.73850403144024,508.93562785349786,"[73, 0, 181]",181,l,0.673736069817096,colour,0.14
034,69,1,2,7,28,328,509.44160485919565,510.43160668667406,"[18, 0, 236]",236,a,0.46676294901408255,colour,0.14
034,69,1,2,7,29,329,510.9292987494264,511.9758265251294,"[67, 0, 187]",187,l,0.5231880724895746,colour,0.14
034,69,1,2,7,30,330,512.491739475634,513.415660259081,"[68, 0, 186]",186,l,0.4005771419033408,colour,0.14
034,69,1,2,7,31,331,513.9194687490817,514.9755949436221,"[55, 0, 199]",199,a,0.5328187867999077,colour,0.14
034,69,1,2,7,32,332,515.4865158970933,516.6716282062698,"[32, 0, 222]",222,a,0.6617324335966259,colour,0.14
034,69,1,2,7,33,333,517.1801923858002,518.3116124682128,"[78, 0, 176]",176,l,0.6080914069898427,colour,0.14
034,69,1,2,7,34,334,518.8218083514366,519.967569545377,"[59, 0, 195]",195,a,0.6224518169183284,colour,0.14
034,69,1,2,7,35,335,520.4780564806424,521.5036009333562,"[98, 0, 156]",156,l,0.5022535864263773,colour,0.14
034,69,1,2,7,36,336,522.0249753452372,523.1915977699682,"[96, 0, 158]",158,l,0.6434036323335022,colour,0.14
034,69,1,2,7,37,337,523.7131139663979,525.5439272110816,"[66, 0, 188]",188,l,1.3081608025822788,colour,0.14
034,69,1,2,7,38,338,526.0562593145296,526.9676274405792,"[75, 0, 179]",179,l,0.3886573950294405,colour,0.14
034,69,1,2,7,39,339,527.479236836778,528.5435735373758,"[58, 0, 196]",196,a,0.5414125048555434,colour,0.14
034,69,1,2,7,40,340,529.0573144275695,530.039599631913,"[82, 0, 172]",172,l,0.4592948423232883,colour,0.14
034,69,1,2,7,41,341,530.5572226615623,531.5915782351512,"[89, 0, 165]",165,l,0.5110174457076937,colour,0.14
034,69,1,2,7,42,342,532.1042124184314,533.0715925239492,"[79, 0, 175]",175,l,0.44407033477909863,colour,0.14
034,69,1,2,7,43,343,533.5906747526024,534.5435881095473,"[38, 0, 216]",216,a,0.42954490310512483,colour,0.14
034,69,1,2,7,44,344,535.0594278047793,536.1435899212956,"[92, 0, 162]",162,l,0.5611989300232381,colour,0.14
034,69,1,2,7,45,345,536.6531666787341,537.6635894172359,"[53, 0, 201]",201,a,0.4860917250625789,colour,0.14
034,69,1,2,7,46,346,538.1698149396107,539.2076119389385,"[57, 0, 197]",197,a,0.5144931362010539,colour,0.14
034,69,1,2,7,47,347,539.7167893366423,542.0316203136463,"[87, 0, 167]",167,l,1.7917850830126554,colour,0.14
034,69,1,2,7,48,348,542.5447999734897,543.5036064470187,"[83, 0, 171]",171,l,0.43550576106645167,colour,0.14
034,69,1,2,7,49,349,544.0135250627063,544.9835718988907,"[69, 0, 185]",185,l,0.44677566224709153,colour,0.14
034,69,1,2,7,50,350,545.4979429426603,546.4875662843697,"[61, 0, 193]",193,l,0.47550357156433165,colour,0.14
034,69,1,2,8,1,351,560.962056490127,561.8875719555654,"[92, 0, 162]",162,l,0.4014542365912348,colour,0.06
034,69,1,2,8,2,352,562.4002888465766,563.0315813228954,"[57, 0, 197]",197,a,0.10646521719172597,colour,0.06
034,69,1,2,8,3,353,563.5409079880919,564.695666986052,"[68, 0, 186]",186,l,0.6314933379180729,colour,0.06
034,69,1,2,8,4,354,565.2127957388293,567.5355733451433,"[84, 0, 170]",170,l,1.7994398723822087,colour,0.06
034,69,1,2,8,5,355,568.0420970090199,568.6875730585307,"[99, 0, 155]",155,l,0.122185577172786,colour,0.06
034,69,1,2,8,6,356,569.1983183566481,569.8075464030262,"[87, 0, 167]",167,l,0.08597459550946951,colour,0.06
034,69,1,2,8,7,357,570.3233376550488,571.1437124074437,"[72, 0, 182]",182,l,0.29703150456771255,colour,0.06
034,69,1,2,8,8,358,571.6514396644197,572.4635696462356,"[43, 0, 211]",211,a,0.28880918328650296,colour,0.06
034,69,1,2,8,9,359,572.9795735750813,573.751616343623,"[76, 0, 178]",178,l,0.24872708995826542,colour,0.06
034,69,1,2,8,10,360,574.2608161906246,575.1998642019462,"[61, 0, 193]",193,a,0.415717760566622,colour,0.06
034,69,1,2,8,11,361,575.7138374613132,576.5835453537293,"[60, 0, 194]",194,a,0.3462705153506249,colour,0.06
034,69,1,2,8,12,362,577.0900831960607,577.9116060091183,"[58, 0, 196]",196,a,0.2981760208494961,colour,0.06
034,69,1,2,8,13,363,578.4181903251447,579.5035394933075,"[74, 0, 180]",180,l,0.5619425110053271,colour,0.06
034,69,1,2,8,14,364,580.0119796113577,582.6795389954932,"[66, 0, 188]",188,a,2.144280727021396,colour,0.06
034,69,1,2,8,15,365,583.199562122114,583.7835462202784,"[97, 0, 157]",157,l,0.06080902274698019,colour,0.06
034,69,1,2,8,16,366,584.2933006021194,584.9035778539255,"[83, 0, 171]",171,l,0.08701592404395342,colour,0.06
034,69,1,2,8,17,367,585.418268700596,586.0796041376889,"[79, 0, 175]",175,l,0.13789254636503756,colour,0.06
034,69,1,2,8,18,368,586.5901048574597,587.2155439958442,"[86, 0, 168]",168,l,0.1019836445339024,colour,0.06
034,69,1,2,8,19,369,587.7307874083053,588.3595655721147,"[81, 0, 173]",173,l,0.10543294693343341,colour,0.06
034,69,1,2,8,20,370,588.8714912266005,589.6715793693438,"[17, 0, 237]",237,a,0.2770127102266997,colour,0.06
034,69,1,2,8,21,371,590.1865340929944,590.9675396131352,"[98, 0, 156]",156,l,0.25774182938039303,colour,0.06
034,69,1,2,8,22,372,591.4834096343257,592.3116522466298,"[9, 0, 245]",245,a,0.3075657014269382,colour,0.06
034,69,1,2,8,23,373,592.8249165834859,594.1915260900278,"[67, 0, 187]",187,l,0.843311551027,colour,0.06
034,69,1,2,8,24,374,594.6998476604931,595.5995681872591,"[94, 0, 160]",160,l,0.37637846055440605,colour,0.06
034,69,1,2,8,25,375,596.106790533755,597.095582860522,"[52, 0, 202]",202,a,0.46538882050663233,colour,0.06
034,69,1,2,8,26,376,597.6067763553001,598.5275373130571,"[56, 0, 198]",198,a,0.3973424853757024,colour,0.06
034,69,1,2,8,27,377,599.0456254745368,599.9915760296863,"[64, 0, 190]",190,a,0.42283101193606853,colour,0.06
034,69,1,2,8,28,378,600.4986802223139,603.1195160893258,"[51, 0, 203]",203,a,2.097958145197481,colour,0.06
034,69,1,2,8,29,379,603.6393005454447,604.5915254596621,"[63, 0, 191]",191,a,0.4290411740075797,colour,0.06
034,69,1,2,8,30,380,605.1080216960981,606.3675830936991,"[65, 0, 189]",189,l,0.7362910113297403,colour,0.06
034,69,1,2,8,31,381,606.8736168132164,607.6715431355406,"[69, 0, 185]",185,l,0.2745909516233951,colour,0.06
034,69,1,2,8,32,382,608.1885600362439,608.8955752986949,"[77, 0, 177]",177,l,0.18363499315455556,colour,0.06
034,69,1,2,8,33,383,609.4072693716735,610.1195708338637,"[93, 0, 161]",161,l,0.18891095300205052,colour,0.06
034,69,1,2,8,34,384,610.6135709851515,611.455623410875,"[53, 0, 201]",201,a,0.3187135101761669,colour,0.06
034,69,1,2,8,35,385,611.9730195852462,615.1118518477306,"[62, 0, 192]",192,l,2.615553605603054,colour,0.06
034,69,1,2,8,36,386,615.6292239974719,616.5597550908569,"[88, 0, 166]",166,l,0.407205568626523,colour,0.06
034,69,1,2,8,37,387,617.0681294365786,618.1836905253585,"[59, 0, 195]",195,a,0.5926707638427615,colour,0.06
034,69,1,2,8,38,388,618.6931211659685,619.7755314556416,"[75, 0, 179]",179,l,0.5590552266221493,colour,0.06
034,69,1,2,8,39,389,620.2868840643205,621.3755824980326,"[90, 0, 164]",164,l,0.5653729089535773,colour,0.06
034,69,1,2,8,40,390,621.8962747689802,622.7115614258219,"[80, 0, 174]",174,l,0.29191702138632536,colour,0.06
034,69,1,2,8,41,391,623.2243897751905,623.9275618889369,"[78, 0, 176]",176,l,0.17860242980532348,colour,0.06
034,69,1,2,8,42,392,624.4445126235951,625.4875658904202,"[54, 0, 200]",200,a,0.5196556684095412,colour,0.06
034,69,1,2,8,43,393,626.0068800942972,627.1595450134482,"[85, 0, 169]",169,l,0.6291412899736315,colour,0.06
034,69,1,2,8,44,394,627.67881707591,635.8955422155559,"[50, 0, 204]",204,l,7.693365350365639,colour,0.06
034,69,1,2,8,45,395,636.4144235828426,637.1835042361636,"[89, 0, 165]",165,l,0.24583468539640307,colour,0.06
034,69,1,2,8,46,396,637.6955996383913,638.2635246689897,"[95, 0, 159]",159,l,0.044634558260440826,colour,0.06
034,69,1,2,8,47,397,638.7737095244229,639.3115490591154,"[91, 0, 163]",163,l,0.01446674857288599,colour,0.06
034,69,1,2,8,48,398,639.8205988504924,640.4955416640732,"[55, 0, 199]",199,a,0.1515991718042642,colour,0.06
034,69,1,2,8,49,399,641.0081384321675,641.6795204847585,"[96, 0, 158]",158,l,0.14806558634154499,colour,0.06
034,69,1,2,8,50,400,642.1969292620197,643.2075059942435,"[71, 0, 183]",183,l,0.4872204875573516,colour,0.06
034,69,1,2,9,1,401,649.0398178226314,649.807566489093,"[97, 0, 157]",157,l,0.24370909901335835,colour,0.06
034,69,1,2,9,2,402,650.3218284375034,650.97551302379,"[51, 0, 203]",203,a,0.13028659392148256,colour,0.06
034,69,1,2,9,3,403,651.4936917698942,652.1195129386615,"[84, 0, 170]",170,l,0.10244562570005655,colour,0.06
034,69,1,2,9,4,404,652.6343380867038,653.2395587507635,"[95, 0, 159]",159,l,0.08209166838787496,colour,0.06
034,69,1,2,9,5,405,653.7593699882273,654.3515263893642,"[93, 0, 161]",161,l,0.06886868551373482,colour,0.06
034,69,1,2,9,6,406,654.8687543913256,655.5915211273823,"[80, 0, 174]",174,l,0.1994668112602085,colour,0.06
034,69,1,2,9,7,407,656.1031797544565,656.727580714738,"[86, 0, 168]",168,l,0.10111560788936913,colour,0.06
034,69,1,2,9,8,408,657.246815361781,657.9275681904983,"[61, 0, 193]",193,a,0.15687552583403885,colour,0.06
034,69,1,2,9,9,409,658.4349575275555,659.1595265027136,"[57, 0, 197]",197,a,0.20124226878397167,colour,0.06
034,69,1,2,9,10,410,659.6693706815131,660.3754919136409,"[91, 0, 163]",163,l,0.18279688898473978,colour,0.06
034,69,1,2,9,11,411,660.8880528414156,661.6154988610651,"[69, 0, 185]",185,l,0.2040976518765092,colour,0.06
034,69,1,2,9,12,412,662.1225313737523,663.1195176648907,"[96, 0, 158]",158,l,0.4737789202481508,colour,0.06
034,69,1,2,9,13,413,663.6380362999626,664.2235603355803,"[89, 0, 165]",165,l,0.05966214323416352,colour,0.06
034,69,1,2,9,14,414,664.7225327915512,665.2715425842907,"[85, 0, 169]",169,l,0.02574885869398713,colour,0.06
034,69,1,2,9,15,415,665.7850093578454,666.6235281978734,"[75, 0, 179]",179,l,0.31518780160695314,colour,0.06
034,69,1,2,9,16,416,667.1443843084853,667.7115007734392,"[52, 0, 202]",202,l,0.043845684733241796,colour,0.06
034,69,1,2,9,17,417,668.2210149094462,668.8794748773798,"[83, 0, 171]",171,l,0.1351624063681811,colour,0.06
034,69,1,2,9,18,418,669.383382222848,670.0075378171168,"[45, 0, 209]",209,a,0.10100848181173205,colour,0.06
034,69,1,2,9,19,419,670.5209864736535,671.6075073333923,"[82, 0, 172]",172,l,0.5632213288918138,colour,0.06
034,69,1,2,9,20,420,672.1147091998719,673.1275493646972,"[79, 0, 175]",175,l,0.48955717543140054,colour,0.06
034,69,1,2,9,21,421,673.6460136491805,674.6715368339792,"[73, 0, 181]",181,l,0.5022610693704337,colour,0.06
034,69,1,2,9,22,422,675.1928210554179,676.1594733335078,"[87, 0, 167]",167,l,0.44343624264001846,colour,0.06
034,69,1,2,9,23,423,676.677942737937,677.3914686671924,"[62, 0, 192]",192,a,0.190074767684564,colour,0.06
034,69,1,2,9,24,424,677.9128178730607,678.8234475380741,"[98, 0, 156]",156,l,0.3868906020652503,colour,0.06
034,69,1,2,9,25,425,679.3346823868342,680.3755143627059,"[71, 0, 183]",183,a,0.5177482725121081,colour,0.06
034,69,1,2,9,26,426,680.8815484761726,681.8394711595029,"[58, 0, 196]",196,a,0.4346932570915669,colour,0.06
034,69,1,2,9,27,427,682.3502668701112,683.3678213704843,"[94, 0, 160]",160,l,0.49439320946112275,colour,0.06
034,69,1,2,9,28,428,683.8815496575553,684.8154938197695,"[90, 0, 164]",164,l,0.41056743753142655,colour,0.06
034,69,1,2,9,29,429,685.3346367008053,686.391504507279,"[65, 0, 189]",189,a,0.5336356232874095,colour,0.06
034,69,1,2,9,30,430,686.9127847899217,687.8875384787098,"[36, 0, 218]",218,a,0.4514510070439428,colour,0.06
034,69,1,2,9,31,431,688.3971254762728,689.3915478303097,"[60, 0, 194]",194,a,0.4714442016556859,colour,0.06
034,69,1,2,9,32,432,689.8999257206451,691.4874839705881,"[68, 0, 186]",186,a,1.064293771283701,colour,0.06
034,69,1,2,9,33,433,691.9936449022498,692.991513408022,"[54, 0, 200]",200,a,0.47447366430424154,colour,0.06
034,69,1,2,9,34,434,693.5092959452886,694.255488242954,"[50, 0, 204]",204,a,0.22293451451696455,colour,0.06
034,69,1,2,9,35,435,694.7749564405531,695.7835021093488,"[31, 0, 223]",223,a,0.4838893385604024,colour,0.06
034,69,1,2,9,36,436,696.292033205973,702.8075991782825,"[88, 0, 166]",166,a,5.9922558076214045,colour,0.06
034,69,1,2,9,37,437,703.3246314390562,705.0955072420184,"[99, 0, 155]",155,l,1.2477385366801172,colour,0.06
034,69,1,2,9,38,438,705.6057822883595,707.7914873354603,"[74, 0, 180]",180,l,1.6624736515805125,colour,0.06
034,69,1,2,9,39,439,708.3089020205662,708.8715002851095,"[78, 0, 176]",176,l,0.03934520739130676,colour,0.06
034,69,1,2,9,40,440,709.386991820531,709.9594878270291,"[76, 0, 178]",178,l,0.04924019239842892,colour,0.06
034,69,1,2,9,41,441,710.4806330206338,711.167600344168,"[56, 0, 198]",198,a,0.1636169864796102,colour,0.06
034,69,1,2,9,42,442,711.685620370321,712.9354939458426,"[66, 0, 188]",188,l,0.7282215021550655,colour,0.06
034,69,1,2,9,43,443,713.4498161526863,714.3994680717587,"[67, 0, 187]",187,l,0.42650598799809813,colour,0.06
034,69,1,2,9,44,444,714.9185412419029,715.6474850575905,"[72, 0, 182]",182,l,0.20560174947604537,colour,0.06
034,69,1,2,9,45,445,716.1685908664949,716.8474914378021,"[81, 0, 173]",173,l,0.15567665873095393,colour,0.06
034,69,1,2,9,46,446,717.3561016973108,718.0234846384265,"[59, 0, 195]",195,a,0.14411373645998538,colour,0.06
034,69,1,2,9,47,447,718.5435057957657,719.5515244987328,"[53, 0, 201]",201,a,0.4846073198132217,colour,0.06
034,69,1,2,9,48,448,720.0591568388045,721.0794560515787,"[70, 0, 184]",184,l,0.4973427215591073,colour,0.06
034,69,1,2,9,49,449,721.59032895579,722.615479168715,"[64, 0, 190]",190,l,0.501799481920898,colour,0.06
034,69,1,2,9,50,450,723.1216621557251,724.0554665026721,"[77, 0, 177]",177,l,0.41051466204226017,colour,0.06
034,69,1,2,10,1,451,733.6706613146234,735.0237615120132,"[77, 0, 177]",177,l,0.8274427109863609,colour,0.06
034,69,1,2,10,2,452,735.5324493593071,736.1674475318287,"[75, 0, 179]",179,l,0.11202277685515583,colour,0.06
034,69,1,2,10,3,453,736.6887538083829,737.399473585654,"[70, 0, 184]",184,l,0.18744820938445628,colour,0.06
034,69,1,2,10,4,454,737.9074339992367,738.5194808007218,"[74, 0, 180]",180,l,0.08863463066518307,colour,0.06
034,69,1,2,10,5,455,739.0322800055146,739.8954244556371,"[97, 0, 157]",157,l,0.3399835529271513,colour,0.06
034,69,1,2,10,6,456,740.407448571641,741.1115600080229,"[79, 0, 175]",175,l,0.1806760288309306,colour,0.06
034,69,1,2,10,7,457,741.6137226158753,742.2954699054826,"[9, 0, 245]",245,a,0.15845327265560627,colour,0.06
034,69,1,2,10,8,458,742.8030797962565,744.3114112128969,"[65, 0, 189]",189,l,0.9849732026923448,colour,0.06
034,69,1,2,10,9,459,744.8219635267742,745.72745822859,"[88, 0, 166]",166,l,0.3821089188568294,colour,0.06
034,69,1,2,10,10,460,746.2438103174791,747.2314853032585,"[59, 0, 195]",195,a,0.4643801811616868,colour,0.06
034,69,1,2,10,11,461,747.7437520283274,748.6794850386214,"[78, 0, 176]",176,l,0.4124775901436806,colour,0.06
034,69,1,2,10,12,462,749.1969044497237,750.1835026608314,"[72, 0, 182]",182,l,0.46323251398280263,colour,0.06
034,69,1,2,10,13,463,750.6968717605341,751.639444299275,"[49, 0, 205]",205,a,0.41975231817923486,colour,0.06
034,69,1,2,10,14,464,752.1512596767861,753.1114717863966,"[62, 0, 192]",192,a,0.4369700802490115,colour,0.06
034,69,1,2,10,15,465,753.6301944339648,754.7995568446349,"[90, 0, 164]",164,l,0.6460585475433618,colour,0.06
034,69,1,2,10,16,466,755.3177871846128,756.847423696192,"[66, 0, 188]",188,l,1.0063554914668202,colour,0.06
034,69,1,2,10,17,467,757.355151741067,758.679463770939,"[91, 0, 163]",163,l,0.8010097423102707,colour,0.06
034,69,1,2,10,18,468,759.1989583563991,759.9514659733977,"[51, 0, 203]",203,a,0.2292943384964019,colour,0.06
034,69,1,2,10,19,469,760.4645452024415,761.5674181508366,"[52, 0, 202]",202,a,0.5795616020914167,colour,0.06
034,69,1,2,10,20,470,762.0739284239244,763.0234610077459,"[55, 0, 199]",199,a,0.42679310170933604,colour,0.06
034,69,1,2,10,21,471,763.542664147215,764.9914476359263,"[98, 0, 156]",156,l,0.9254666287451982,colour,0.06
034,69,1,2,10,22,472,765.5114010516554,768.5914971029852,"[67, 0, 187]",187,a,2.5567961265332997,colour,0.06
034,69,1,2,10,23,473,769.1064077157062,770.0554444473237,"[80, 0, 174]",174,l,0.4259053731802851,colour,0.06
034,69,1,2,10,24,474,770.575126897078,771.4794187936932,"[82, 0, 172]",172,l,0.3810868887230754,colour,0.06
034,69,1,2,10,25,475,771.9969256387558,772.9434043411165,"[57, 0, 197]",197,a,0.42319098697043955,colour,0.06
034,69,1,2,10,26,476,773.4500721525401,775.6234620315954,"[92, 0, 162]",162,l,1.6502404033672065,colour,0.06
034,69,1,2,10,27,477,776.1376231557224,777.8234845597763,"[69, 0, 185]",185,l,1.1626237072050571,colour,0.06
034,69,1,2,10,28,478,778.3419067026116,779.007459835615,"[87, 0, 167]",167,l,0.14233276527374983,colour,0.06
034,69,1,2,10,29,479,779.5143111792859,780.5274668144993,"[64, 0, 190]",190,l,0.48985925526358187,colour,0.06
034,69,1,2,10,30,480,781.0455490683671,782.0314403260127,"[28, 0, 226]",226,a,0.4625350129790604,colour,0.06
034,69,1,2,10,31,481,782.5456750991289,783.3836031702813,"[86, 0, 168]",168,a,0.3145273218397051,colour,0.06
034,69,1,2,10,32,482,783.8894557207823,804.7835395247675,"[73, 0, 181]",181,l,20.370840593241155,colour,0.06
034,69,1,2,10,33,483,805.2968716030009,805.967422246933,"[76, 0, 178]",178,l,0.14732003607787192,colour,0.06
034,69,1,2,10,34,484,806.4842981507536,808.9674612376839,"[95, 0, 159]",159,l,1.959808417595923,colour,0.06
034,69,1,2,10,35,485,809.4866596509237,812.1274414509535,"[83, 0, 171]",171,l,2.1144984923303127,colour,0.06
034,69,1,2,10,36,486,812.6458781661931,813.279475034913,"[89, 0, 165]",165,l,0.11035995953716338,colour,0.06
034,69,1,2,10,37,487,813.7864346862771,814.5674295725767,"[71, 0, 183]",183,l,0.255932895001024,colour,0.06
034,69,1,2,10,38,488,815.083322830731,815.7914065970108,"[99, 0, 155]",155,l,0.18490947829559445,colour,0.06
034,69,1,2,10,39,489,816.3019845108502,817.5514193419367,"[68, 0, 186]",186,l,0.7259202604182065,colour,0.06
034,69,1,2,10,40,490,818.0677186553366,818.6234222531784,"[84, 0, 170]",170,l,0.03292945749126375,colour,0.06
034,69,1,2,10,41,491,819.1302558737807,819.7194667011499,"[93, 0, 161]",161,l,0.06592035503126681,colour,0.06
034,69,1,2,10,42,492,820.2397470092401,820.9193954938091,"[54, 0, 200]",200,a,0.15646356297656894,colour,0.06
034,69,1,2,10,43,493,821.4271038461011,822.0474379535299,"[61, 0, 193]",193,a,0.0970333949662745,colour,0.06
034,69,1,2,10,44,494,822.5676710000262,823.1914355054032,"[56, 0, 198]",198,a,0.10055083292536438,colour,0.06
034,69,1,2,10,45,495,823.7083007753827,824.2714102519676,"[60, 0, 194]",194,a,0.03980758273974061,colour,0.06
034,69,1,2,10,46,496,824.7864445322193,825.3914277071599,"[58, 0, 196]",196,a,0.08167813019827008,colour,0.06
034,69,1,2,10,47,497,825.9114531970117,826.9114205078222,"[81, 0, 173]",173,l,0.4767177985049784,colour,0.06
034,69,1,2,10,48,498,827.4195620906539,828.2554271968547,"[96, 0, 158]",158,l,0.3125175260938704,colour,0.06
034,69,1,2,10,49,499,828.7633037213236,829.663421245059,"[85, 0, 169]",169,l,0.37687352509237826,colour,0.06
034,69,1,2,10,50,500,830.1695104967803,830.9034281924833,"[94, 0, 160]",160,l,0.21063943253830075,colour,0.06
034,69,1,2,11,1,501,838.961652404163,840.3834034905303,"[78, 0, 176]",176,l,0.8976953714154661,colour,0.06
034,69,1,2,11,2,502,840.899970619008,841.5994169504847,"[97, 0, 157]",157,l,0.17635672050528228,colour,0.06
034,69,1,2,11,3,503,842.1186874376144,842.783442244865,"[63, 0, 191]",191,a,0.14147299947217107,colour,0.06
034,69,1,2,11,4,504,843.2904916929547,844.0393786844797,"[2, 0, 252]",252,a,0.22528616851195693,colour,0.06
034,69,1,2,11,5,505,844.5562053576577,845.6953692384996,"[67, 0, 187]",187,l,0.6159037346951663,colour,0.06
034,69,1,2,11,6,506,846.2124436406884,847.1114119219128,"[65, 0, 189]",189,l,0.37598934094421566,colour,0.06
034,69,1,2,11,7,507,847.6198236830533,848.7433999299537,"[59, 0, 195]",195,a,0.6002239407971501,colour,0.06
034,69,1,2,11,8,508,849.2544492774177,850.2634159673471,"[72, 0, 182]",182,l,0.4855962668079883,colour,0.06
034,69,1,2,11,9,509,850.7720171685796,851.6794740108307,"[94, 0, 160]",160,l,0.38411989598535,colour,0.06
034,69,1,2,11,10,510,852.1979142706841,853.1034200005233,"[53, 0, 201]",201,a,0.38195886369794607,colour,0.06
034,69,1,2,11,11,511,853.6200186368078,854.5353874498978,"[60, 0, 194]",194,a,0.3922248512972146,colour,0.06
034,69,1,2,11,12,512,855.0417527875397,856.7033773076255,"[70, 0, 184]",184,l,1.1383316845167428,colour,0.06
034,69,1,2,11,13,513,857.2137090675533,858.4634333753493,"[68, 0, 186]",186,l,0.7264488015789539,colour,0.06
034,69,1,2,11,14,514,858.9793262400199,859.5836379074026,"[95, 0, 159]",159,l,0.08076401380822062,colour,0.06
034,69,1,2,11,15,515,860.0949645224027,860.727371976478,"[92, 0, 162]",162,l,0.1090870494954288,colour,0.06
034,69,1,2,11,16,516,861.235534039326,862.159379598219,"[90, 0, 164]",164,l,0.4005798988509923,colour,0.06
034,69,1,2,11,17,517,862.6676755687222,863.5354181698058,"[93, 0, 161]",161,l,0.34463329799473286,colour,0.06
034,69,1,2,11,18,518,864.0426735994406,865.031453322852,"[84, 0, 170]",170,l,0.4654695587232709,colour,0.06
034,69,1,2,11,19,519,865.5426440609153,866.4476011632942,"[75, 0, 179]",179,l,0.38161306688562036,colour,0.06
034,69,1,2,11,20,520,866.9645562302321,867.5833437046967,"[77, 0, 177]",177,l,0.09551826980896294,colour,0.06
034,69,1,2,11,21,521,868.0895211778115,868.8634036006406,"[83, 0, 171]",171,l,0.25057304580695927,colour,0.06
034,69,1,2,11,22,522,869.3707807287574,870.3753623382654,"[73, 0, 181]",181,l,0.4813738449010998,colour,0.06
034,69,1,2,11,23,523,870.8863884487655,871.5594664018136,"[0, 0, 254]",254,a,0.14973903773352504,colour,0.06
034,69,1,2,11,24,524,872.075905136764,873.8714085191023,"[71, 0, 183]",183,a,1.272204245440662,colour,0.06
034,69,1,2,11,25,525,874.3884246321395,875.1114327956457,"[86, 0, 168]",168,l,0.1996932728216052,colour,0.06
034,69,1,2,11,26,526,875.6228110042866,876.231355727883,"[99, 0, 155]",155,l,0.08524913107976317,colour,0.06
034,69,1,2,11,27,527,876.7478393611964,877.5274081313983,"[98, 0, 156]",156,l,0.2551920707337558,colour,0.06
034,69,1,2,11,28,528,878.0457046376541,879.2794277733192,"[87, 0, 167]",167,l,0.7102251064497977,colour,0.06
034,69,1,2,11,29,529,879.7958121574484,880.663357442012,"[52, 0, 202]",202,a,0.3441228736191988,colour,0.06
034,69,1,2,11,30,530,881.1708227912895,882.2714220674243,"[69, 0, 185]",185,a,0.5773537021595985,colour,0.06
034,69,1,2,11,31,531,882.7802142836154,883.7593841666821,"[56, 0, 198]",198,a,0.45593966892920434,colour,0.06
034,69,1,2,11,32,532,884.2802564252634,885.4394028666429,"[66, 0, 188]",188,a,0.6359142581932247,colour,0.06
034,69,1,2,11,33,533,885.9520437452011,886.9993666957598,"[55, 0, 199]",199,a,0.5240222380962223,colour,0.06
034,69,1,2,11,34,534,887.5157128768042,908.991368472809,"[81, 0, 173]",173,l,20.95235330821015,colour,0.06
034,69,1,2,11,35,535,909.5001543876715,910.1513880705461,"[89, 0, 165]",165,l,0.12820511800237,colour,0.06
034,69,1,2,11,36,536,910.6719066554215,911.3034295313992,"[33, 0, 221]",221,a,0.10815796675160527,colour,0.06
034,69,1,2,11,37,537,911.8125407630578,912.6235817607958,"[79, 0, 175]",175,l,0.28662491380237043,colour,0.06
034,69,1,2,11,38,538,913.1418487285264,913.8233388366643,"[50, 0, 204]",204,a,0.1583150327205658,colour,0.06
034,69,1,2,11,39,539,914.3448696054984,914.9513903548941,"[54, 0, 200]",200,a,0.08320388942956924,colour,0.06
034,69,1,2,11,40,540,915.4699649161194,916.183349060826,"[74, 0, 180]",180,l,0.19013502611778677,colour,0.06
034,69,1,2,11,41,541,916.7043599530589,918.079363103956,"[62, 0, 192]",192,a,0.8517244937829673,colour,0.06
034,69,1,2,11,42,542,918.59487157478,919.1593851118814,"[88, 0, 166]",166,l,0.04117186483927071,colour,0.06
034,69,1,2,11,43,543,919.6736143713351,920.3033862083685,"[61, 0, 193]",193,a,0.107313561020419,colour,0.06
034,69,1,2,11,44,544,920.8043129278813,921.7034214183223,"[64, 0, 190]",190,a,0.3880563862621784,colour,0.06
034,69,1,2,11,45,545,922.2138217075262,923.127351653995,"[57, 0, 197]",197,a,0.3902091479394585,colour,0.06
034,69,1,2,11,46,546,923.6357708983123,924.5033492657822,"[96, 0, 158]",158,l,0.34422330441884696,colour,0.06
034,69,1,2,11,47,547,925.010636202991,925.9033435154706,"[51, 0, 203]",203,a,0.3693853325676173,colour,0.06
034,69,1,2,11,48,548,926.4188074818812,927.3033665162511,"[76, 0, 178]",178,l,0.3612437497358769,colour,0.06
034,69,1,2,11,49,549,927.809456161689,928.6393600162119,"[91, 0, 163]",163,l,0.306723658926785,colour,0.06
034,69,1,2,11,50,550,929.1531859771349,929.7673863281962,"[85, 0, 169]",169,l,0.09086970635689795,colour,0.06
034,69,1,2,12,1,551,936.8287317687646,938.5673114187084,"[83, 0, 171]",171,l,1.2145810425281525,colour,0.06
034,69,1,2,12,2,552,939.0795029192232,939.959373611724,"[37, 0, 217]",217,a,0.35651681083254516,colour,0.06
034,69,1,2,12,3,553,940.4700759807602,941.3833388995845,"[52, 0, 202]",202,a,0.389909824822098,colour,0.06
034,69,1,2,12,4,554,941.8919294669759,942.8873584910762,"[87, 0, 167]",167,l,0.4720404841937125,colour,0.06
034,69,1,2,12,5,555,943.4076269837096,944.4074158824515,"[92, 0, 162]",162,l,0.4765126046258956,colour,0.06
034,69,1,2,12,6,556,944.9232362792827,945.6553379513789,"[84, 0, 170]",170,l,0.20877851056866348,colour,0.06
034,69,1,2,12,7,557,946.1608750310261,947.9753413067665,"[67, 0, 187]",187,a,1.2911505971569568,colour,0.06
034,69,1,2,12,8,558,948.4889675881714,949.0953260730021,"[58, 0, 196]",196,a,0.08295340347103775,colour,0.06
034,69,1,2,12,9,559,949.6139935818501,950.2713771688286,"[39, 0, 215]",215,a,0.13475556345656514,colour,0.06
034,69,1,2,12,10,560,950.7858403727878,951.4473790342454,"[91, 0, 163]",163,l,0.1382229831069708,colour,0.06
034,69,1,2,12,11,561,951.9577470279764,953.471358736977,"[73, 0, 181]",181,l,0.9903858273755759,colour,0.06
034,69,1,2,12,12,562,953.9899439320434,954.6393891607877,"[26, 0, 228]",228,a,0.12613427639007568,colour,0.06
034,69,1,2,12,13,563,955.1502025942318,956.1753220872488,"[63, 0, 191]",191,l,0.5018498944118619,colour,0.06
034,69,1,2,12,14,564,956.6814853819087,957.479327815352,"[61, 0, 193]",193,l,0.2744156902190298,colour,0.06
034,69,1,2,12,15,565,957.9940111788455,958.6073371919338,"[57, 0, 197]",197,a,0.08998079597949982,colour,0.06
034,69,1,2,12,16,566,959.1189832158852,959.8714825620409,"[80, 0, 174]",174,l,0.2291450707707554,colour,0.06
034,69,1,2,12,17,567,960.3846165358555,961.007354678819,"[95, 0, 159]",159,l,0.09949650755152106,colour,0.06
034,69,1,2,12,18,568,961.5264853504486,962.1833447285462,"[82, 0, 172]",172,l,0.13374574249610305,colour,0.06
034,69,1,2,12,19,569,962.6982514029369,963.383331022691,"[55, 0, 199]",199,a,0.16219205176457763,colour,0.06
034,69,1,2,12,20,570,963.9013392336201,964.8793543605134,"[79, 0, 175]",175,l,0.4548518666997552,colour,0.06
034,69,1,2,12,21,571,965.3857047320344,966.3033562761266,"[65, 0, 189]",189,l,0.3943957299925387,colour,0.06
034,69,1,2,12,22,572,966.8232675506733,967.4873110721819,"[98, 0, 156]",156,l,0.1396554005332291,colour,0.06
034,69,1,2,12,23,573,967.9962273498531,968.8873482511844,"[85, 0, 169]",169,l,0.36829319782555103,colour,0.06
034,69,1,2,12,24,574,969.4024329436943,970.2233346619178,"[99, 0, 155]",155,l,0.29752578120678663,colour,0.06
034,69,1,2,12,25,575,970.7305814267602,971.5353382190224,"[94, 0, 160]",160,l,0.28181526716798544,colour,0.06
034,69,1,2,12,26,576,972.0430906822439,972.9273499997798,"[89, 0, 165]",165,l,0.36089755897410214,colour,0.06
034,69,1,2,12,27,577,973.4337086421438,974.7033560399432,"[66, 0, 188]",188,a,0.7465124945156276,colour,0.06
034,69,1,2,12,28,578,975.214910691604,976.2073583020829,"[97, 0, 157]",157,l,0.4691634397022426,colour,0.06
034,69,1,2,12,29,579,976.7025947356597,977.5673311110586,"[59, 0, 195]",195,l,0.3439476122148335,colour,0.06
034,69,1,2,12,30,580,978.0751209894661,980.5753612355329,"[75, 0, 179]",179,l,1.9769403212703764,colour,0.06
034,69,1,2,12,31,581,981.0906696326565,983.5513460866641,"[71, 0, 183]",183,l,1.937272947980091,colour,0.06
034,69,1,2,12,32,582,984.0595195710193,984.711327087367,"[56, 0, 198]",198,a,0.12883212068118155,colour,0.06
034,69,1,2,12,33,583,985.2314644295257,985.9593121716753,"[64, 0, 190]",190,a,0.20458247605711222,colour,0.06
034,69,1,2,12,34,584,986.4657582479995,987.1113244881853,"[60, 0, 194]",194,a,0.12228088779374957,colour,0.06
034,69,1,2,12,35,585,987.6220114971511,988.4554233371746,"[78, 0, 176]",176,l,0.31018871534615755,colour,0.06
034,69,1,2,12,36,586,988.965726346476,989.5993464521598,"[81, 0, 173]",173,l,0.11026071035303175,colour,0.06
034,69,1,2,12,37,587,990.1063671493903,990.8233451382257,"[77, 0, 177]",177,l,0.19372729491442442,colour,0.06
034,69,1,2,12,38,588,991.3406330049038,992.143322893884,"[96, 0, 158]",158,l,0.27925920742563903,colour,0.06
034,69,1,2,12,39,589,992.654393902747,993.3433690525126,"[62, 0, 192]",192,a,0.16563662816770375,colour,0.06
034,69,1,2,12,40,590,993.8594623846002,994.5673712831922,"[88, 0, 166]",166,l,0.18508789059706032,colour,0.06
034,69,1,2,12,41,591,995.0782193753403,995.8233569536824,"[72, 0, 182]",182,l,0.22176873055286705,colour,0.06
034,69,1,2,12,42,592,996.3438735690434,996.9353249859996,"[86, 0, 168]",168,l,0.06816173205152154,colour,0.06
034,69,1,2,12,43,593,997.4532000769395,998.0633473594207,"[90, 0, 164]",164,l,0.08682805928401649,colour,0.06
034,69,1,2,12,44,594,998.5781729014125,999.2873712517321,"[76, 0, 178]",178,l,0.18587952083908021,colour,0.06
034,69,1,2,12,45,595,999.7970177198295,1002.3833479580935,"[68, 0, 186]",186,l,2.0631311379838735,colour,0.06
034,69,1,2,12,46,596,1002.8906833385117,1004.6552962036803,"[93, 0, 161]",161,l,1.241347205126658,colour,0.06
034,69,1,2,12,47,597,1005.1719239845406,1006.0153182432987,"[74, 0, 180]",180,a,0.32008606335148215,colour,0.06
034,69,1,2,12,48,598,1006.5312717598863,1007.1833337009884,"[50, 0, 204]",204,a,0.12866394873708487,colour,0.06
034,69,1,2,12,49,599,1007.7031744769774,1008.6152865779586,"[70, 0, 184]",184,l,0.38877239800058305,colour,0.06
034,69,1,2,12,50,600,1009.1281751857605,1009.943283036584,"[69, 0, 185]",185,l,0.29180792602710426,colour,0.06
034,69,1,2,13,1,601,1080.3665161649697,1081.9192422877531,"[75, 0, 179]",179,l,1.0287795029580593,colour,0.06
034,69,1,2,13,2,602,1082.431112410035,1085.543278546771,"[97, 0, 157]",157,l,2.5889902736525983,colour,0.06
034,69,1,2,13,3,603,1086.0559859853238,1087.1112689557485,"[56, 0, 198]",198,a,0.5319546887185425,colour,0.06
034,69,1,2,13,4,604,1087.6184771237895,1088.5432415253017,"[54, 0, 200]",200,a,0.40145187359303236,colour,0.06
034,69,1,2,13,5,605,1089.0441493401304,1089.7032741198782,"[76, 0, 178]",178,l,0.13578665209934115,colour,0.06
034,69,1,2,13,6,606,1090.2161414599977,1091.1193002618384,"[62, 0, 192]",192,a,0.3799478863365948,colour,0.06
034,69,1,2,13,7,607,1091.6379567431286,1092.5832531200722,"[61, 0, 193]",193,a,0.4252405611332506,colour,0.06
034,69,1,2,13,8,608,1093.1035405173898,1094.0392660445068,"[89, 0, 165]",165,l,0.41241772565990686,colour,0.06
034,69,1,2,13,9,609,1094.5567114495207,1096.5112734455615,"[82, 0, 172]",172,l,1.4314259111415595,colour,0.06
034,69,1,2,13,10,610,1097.0253999112174,1098.6792593649589,"[63, 0, 191]",191,l,1.1305067536886781,colour,0.06
034,69,1,2,13,11,611,1099.1973502833862,1100.1592649889644,"[67, 0, 187]",187,l,0.4386679499875754,colour,0.06
034,69,1,2,13,12,612,1100.6662069172598,1101.3512357310392,"[88, 0, 166]",166,l,0.16192305507138371,colour,0.06
034,69,1,2,13,13,613,1101.8691592649557,1102.751383580733,"[60, 0, 194]",194,a,0.3578818808309734,colour,0.06
034,69,1,2,13,14,614,1103.2609449781012,1104.367232964607,"[68, 0, 186]",186,l,0.5830341416876763,colour,0.06
034,69,1,2,13,15,615,1104.8859410397708,1105.8552710763179,"[66, 0, 188]",188,l,0.4460320812650025,colour,0.06
034,69,1,2,13,16,616,1106.3703348950949,1107.0632571687456,"[92, 0, 162]",162,l,0.16967827500775456,colour,0.06
034,69,1,2,13,17,617,1107.5734380858485,1108.503234262811,"[51, 0, 203]",203,a,0.4066025905776769,colour,0.06
034,69,1,2,13,18,618,1109.0109115012456,1109.9592814517673,"[52, 0, 202]",202,a,0.4250956259202212,colour,0.06
034,69,1,2,13,19,619,1110.479643285973,1111.599251928972,"[72, 0, 182]",182,l,0.6090523907914758,colour,0.06
034,69,1,2,13,20,620,1112.105741328327,1112.9432452274486,"[74, 0, 180]",180,l,0.3145139312837273,colour,0.06
034,69,1,2,13,21,621,1113.4495081652422,1115.3592839722987,"[85, 0, 169]",169,l,1.3864939992781729,colour,0.06
034,69,1,2,13,22,622,1115.8713718913496,1116.5592202481348,"[93, 0, 161]",161,l,0.16454567504115403,colour,0.06
034,69,1,2,13,23,623,1117.074474294437,1118.0232286385726,"[59, 0, 195]",195,a,0.4255131024401635,colour,0.06
034,69,1,2,13,24,624,1118.5432171067223,1119.43123922823,"[41, 0, 213]",213,a,0.3647493722382933,colour,0.06
034,69,1,2,13,25,625,1119.9494077344425,1121.343241052702,"[81, 0, 173]",173,l,0.8704695904161781,colour,0.06
034,69,1,2,13,26,626,1121.855678312946,1122.6312282793224,"[91, 0, 163]",163,l,0.2511220669839531,colour,0.06
034,69,1,2,13,27,627,1123.1381438199896,1124.0472571782302,"[95, 0, 159]",159,l,0.38579846755601466,colour,0.06
034,69,1,2,13,28,628,1124.5599528015591,1126.6552446098067,"[71, 0, 183]",183,l,1.5719930650666356,colour,0.06
034,69,1,2,13,29,629,1127.1701733395457,1128.1512951229233,"[50, 0, 204]",204,a,0.47025636211037636,colour,0.06
034,69,1,2,13,30,630,1128.6576888177078,1130.6312200087123,"[14, 0, 240]",240,a,1.450135167920962,colour,0.06
034,69,1,2,13,31,631,1131.1421259960625,1132.0872112715151,"[83, 0, 171]",171,l,0.42173454468138516,colour,0.06
034,69,1,2,13,32,632,1132.5952784174588,1133.9512198194861,"[84, 0, 170]",170,l,0.8327257602941245,colour,0.06
034,69,1,2,13,33,633,1134.4701929530129,1135.3032089776825,"[77, 0, 177]",177,l,0.30961881997063756,colour,0.06
034,69,1,2,13,34,634,1135.8167750006542,1136.5992149075028,"[78, 0, 176]",176,l,0.2592297790106386,colour,0.06
034,69,1,2,13,35,635,1137.113742701942,1137.7192382705398,"[80, 0, 174]",174,l,0.09473766712471843,colour,0.06
034,69,1,2,13,36,636,1138.2263058356475,1139.1432386108208,"[98, 0, 156]",156,l,0.3935127276927233,colour,0.06
034,69,1,2,13,37,637,1139.6638438417576,1140.2552735968493,"[96, 0, 158]",158,l,0.06809280905872583,colour,0.06
034,69,1,2,13,38,638,1140.7732554201502,1142.5192311024293,"[99, 0, 155]",155,l,1.222827782155946,colour,0.06
034,69,1,2,13,39,639,1143.038817847846,1144.0312343447004,"[79, 0, 175]",175,l,0.469084276817739,colour,0.06
034,69,1,2,13,40,640,1144.5388296633027,1145.5112135810778,"[57, 0, 197]",197,a,0.44900758704170585,colour,0.06
034,69,1,2,13,41,641,1146.0231569586322,1147.0552451612893,"[64, 0, 190]",190,a,0.5087611025664955,colour,0.06
034,69,1,2,13,42,642,1147.5700537678786,1148.4952766059432,"[55, 0, 199]",199,a,0.4019087350461632,colour,0.06
034,69,1,2,13,43,643,1149.0075200940482,1150.4632128216326,"[73, 0, 181]",181,l,0.9324136767536402,colour,0.06
034,69,1,2,13,44,644,1150.9762959894724,1151.7192130642943,"[90, 0, 164]",164,l,0.21958761173300445,colour,0.06
034,69,1,2,13,45,645,1152.2261939833406,1155.1192372464575,"[69, 0, 185]",185,l,2.369573984760791,colour,0.06
034,69,1,2,13,46,646,1155.6326240692288,1157.5672196527012,"[65, 0, 189]",189,l,1.411372852511704,colour,0.06
034,69,1,2,13,47,647,1158.0866315304302,1159.0872349024285,"[29, 0, 225]",225,a,0.47736291820183396,colour,0.06
034,69,1,2,13,48,648,1159.6022463396657,1161.1592307244428,"[86, 0, 168]",168,l,1.0336994263343513,colour,0.06
034,69,1,2,13,49,649,1161.6803455918562,1162.7432097024284,"[58, 0, 196]",196,a,0.539563792059198,colour,0.06
034,69,1,2,13,50,650,1163.2584168810863,1164.1512163537554,"[87, 0, 167]",167,l,0.3695751663763076,colour,0.06
034,69,1,2,14,1,651,1168.6814522990026,1170.1352734707762,"[70, 0, 184]",184,l,0.9297300106845796,colour,0.06
034,69,1,2,14,2,652,1170.6509540523402,1171.3751827445813,"[89, 0, 165]",165,l,0.20109851518645883,colour,0.06
034,69,1,2,14,3,653,1171.885370356962,1172.8392013749108,"[77, 0, 177]",177,l,0.43049564701505005,colour,0.06
034,69,1,2,14,4,654,1173.3540930831805,1174.4472589110956,"[67, 0, 187]",187,l,0.5698729925788939,colour,0.06
034,69,1,2,14,5,655,1174.9511209642515,1175.9272192430217,"[51, 0, 203]",203,a,0.4530512031633407,colour,0.06
034,69,1,2,14,6,656,1176.435459681321,1177.3672447800636,"[96, 0, 158]",158,l,0.40851077414117754,colour,0.06
034,69,1,2,14,7,657,1177.8863400055561,1178.5512027267832,"[87, 0, 167]",167,l,0.14160375646315515,colour,0.06
034,69,1,2,14,8,658,1179.0582565071527,1179.9191879369318,"[76, 0, 178]",178,l,0.33809427404776216,colour,0.06
034,69,1,2,14,9,659,1180.433244691696,1181.4152333301026,"[11, 0, 243]",243,a,0.4588403443340212,colour,0.06
034,69,1,2,14,10,660,1181.9331572579686,1182.8952586464584,"[72, 0, 182]",182,l,0.43889834987930954,colour,0.06
034,69,1,2,14,11,661,1183.401865805732,1184.4632270000875,"[56, 0, 198]",198,a,0.538008100586012,colour,0.06
034,69,1,2,14,12,662,1184.9800024733413,1185.8392580887303,"[93, 0, 161]",161,l,0.3359021276701242,colour,0.06
034,69,1,2,14,13,663,1186.3426345298067,1189.671228058869,"[63, 0, 191]",191,a,2.8052471305709332,colour,0.06
034,69,1,2,14,14,664,1190.187042154139,1191.0871986683924,"[75, 0, 179]",179,l,0.37683729105629027,colour,0.06
034,69,1,2,14,15,665,1191.5932713786606,1192.6471908546519,"[69, 0, 185]",185,l,0.5306979266460985,colour,0.06
034,69,1,2,14,16,666,1193.1556963510811,1194.1992171129677,"[60, 0, 194]",194,a,0.5200479389168322,colour,0.06
034,69,1,2,14,17,667,1194.7182682279963,1195.823243132094,"[98, 0, 156]",156,l,0.5818124315701425,colour,0.06
034,69,1,2,14,18,668,1196.343263501767,1197.2872456149198,"[1, 0, 253]",253,a,0.42069439752958715,colour,0.06
034,69,1,2,14,19,669,1197.7975498058368,1198.735250864178,"[55, 0, 199]",199,a,0.414440518245101,colour,0.06
034,69,1,2,14,20,670,1199.2506982889026,1200.3432091511786,"[91, 0, 163]",163,l,0.5694027405697852,colour,0.06
034,69,1,2,14,21,671,1200.8600019535515,1202.727233736543,"[61, 0, 193]",193,l,1.3438735692761838,colour,0.06
034,69,1,2,14,22,672,1203.2350169196725,1204.2232444712427,"[65, 0, 189]",189,l,0.4649154176004231,colour,0.06
034,69,1,2,14,23,673,1204.735057879705,1205.3992085272912,"[92, 0, 162]",162,l,0.14092161529697478,colour,0.06
034,69,1,2,14,24,674,1205.9068440180272,1206.791162806563,"[82, 0, 172]",172,l,0.3609400945715606,colour,0.06
034,69,1,2,14,25,675,1207.2975580764469,1208.5992192397825,"[68, 0, 186]",186,l,0.778473878512159,colour,0.06
034,69,1,2,14,26,676,1209.1099901380949,1209.7352398363873,"[97, 0, 157]",157,l,0.101914327358827,colour,0.06
034,69,1,2,14,27,677,1210.2505643812474,1211.2152257682756,"[71, 0, 183]",183,l,0.44154853909276426,colour,0.06
034,69,1,2,14,28,678,1211.734967688797,1212.6151912673377,"[84, 0, 170]",170,l,0.3554447623901069,colour,0.06
034,69,1,2,14,29,679,1213.1270830510184,1214.0551813582424,"[50, 0, 204]",204,a,0.40478774858638644,colour,0.06
034,69,1,2,14,30,680,1214.5645863986574,1215.7192607196048,"[79, 0, 175]",175,l,0.6313113807700574,colour,0.06
034,69,1,2,14,31,681,1216.2364008941222,1216.9912176297512,"[81, 0, 173]",173,l,0.23133682319894433,colour,0.06
034,69,1,2,14,32,682,1217.5021799372043,1218.479220295325,"[62, 0, 192]",192,a,0.45394444558769464,colour,0.06
034,69,1,2,14,33,683,1218.9865273188334,1219.9032300878316,"[88, 0, 166]",166,l,0.4026668881997466,colour,0.06
034,69,1,2,14,34,684,1220.4058235632256,1221.3514086292125,"[94, 0, 160]",160,l,0.422021264443174,colour,0.06
034,69,1,2,14,35,685,1221.8590523910243,1222.8552127871662,"[66, 0, 188]",188,l,0.4699755501933396,colour,0.06
034,69,1,2,14,36,686,1223.3624032321386,1224.1191951050423,"[85, 0, 169]",169,l,0.23385113570839167,colour,0.06
034,69,1,2,14,37,687,1224.6302086124197,1225.4552264141385,"[80, 0, 174]",174,l,0.30167691712267697,colour,0.06
034,69,1,2,14,38,688,1225.9739175538998,1226.8151826814283,"[90, 0, 164]",164,l,0.31784941209480166,colour,0.06
034,69,1,2,14,39,689,1227.3346756915562,1228.0871762193274,"[58, 0, 196]",196,a,0.22932230145670474,colour,0.06
034,69,1,2,14,40,690,1228.6003031039145,1229.5831597785,"[64, 0, 190]",190,a,0.45954020833596587,colour,0.06
034,69,1,2,14,41,691,1230.1022455519997,1231.159217333654,"[74, 0, 180]",180,l,0.5337029709480703,colour,0.06
034,69,1,2,14,42,692,1231.6803601642605,1232.647184946807,"[57, 0, 197]",197,a,0.4434909871779382,colour,0.06
034,69,1,2,14,43,693,1233.164778437931,1234.271191273583,"[59, 0, 195]",195,a,0.5830924308393151,colour,0.06
034,69,1,2,14,44,694,1234.7898741425015,1236.1031517912634,"[78, 0, 176]",176,l,0.790186068508774,colour,0.06
034,69,1,2,14,45,695,1236.6203825504053,1237.8311799152289,"[49, 0, 205]",205,a,0.6875470646191388,colour,0.06
034,69,1,2,14,46,696,1238.3408925493713,1239.3351904482115,"[53, 0, 201]",201,a,0.4709286573342979,colour,0.06
034,69,1,2,14,47,697,1239.856614878634,1240.8631539023481,"[73, 0, 181]",181,l,0.48331471742130816,colour,0.06
034,69,1,2,14,48,698,1241.3721410725266,1242.327196163591,"[54, 0, 200]",200,a,0.43167206505313516,colour,0.06
034,69,1,2,14,49,699,1242.8408634047955,1243.807219510898,"[95, 0, 159]",159,l,0.44302034145221114,colour,0.06
034,69,1,2,14,50,700,1244.3129097966012,1245.4392059436068,"[52, 0, 202]",202,a,0.6030434838030487,colour,0.06
034,69,1,2,15,1,701,1252.237319342792,1253.11914981273,"[59, 0, 195]",195,a,0.3576495118904859,colour,0.06
034,69,1,2,15,2,702,1253.6287257825024,1254.5271568577737,"[89, 0, 165]",165,l,0.375106732128188,colour,0.06
034,69,1,2,15,3,703,1255.0350062069483,1255.911524089286,"[50, 0, 204]",204,a,0.35327388369478285,colour,0.06
034,69,1,2,15,4,704,1256.4256635515485,1257.415173465386,"[63, 0, 191]",191,a,0.4663068752270192,colour,0.06
034,69,1,2,15,5,705,1257.9291908356827,1258.5751725833397,"[85, 0, 169]",169,l,0.12275350303389132,colour,0.06
034,69,1,2,15,6,706,1259.0729402645957,1259.7991819032468,"[80, 0, 174]",174,l,0.20295904320664704,colour,0.06
034,69,1,2,15,7,707,1260.3072317200713,1261.623213908635,"[93, 0, 161]",161,l,0.7924971564207226,colour,0.06
034,69,1,2,15,8,708,1262.1370989466086,1263.0631567381788,"[86, 0, 168]",168,l,0.40267634065821767,colour,0.06
034,69,1,2,15,9,709,1263.5745278575923,1264.5991593752988,"[66, 0, 188]",188,a,0.5012536116410047,colour,0.06
034,69,1,2,15,10,710,1265.1057807127945,1265.9271467754152,"[92, 0, 162]",162,l,0.29799288255162537,colour,0.06
034,69,1,2,15,11,711,1266.4340252943803,1267.2071877669077,"[84, 0, 170]",170,l,0.2500263878609985,colour,0.06
034,69,1,2,15,12,712,1267.71637146594,1268.6711658311542,"[79, 0, 175]",175,l,0.43159880954772234,colour,0.06
034,69,1,2,15,13,713,1269.1850922228768,1270.1431295154616,"[15, 0, 239]",239,a,0.43491735542193055,colour,0.06
034,69,1,2,15,14,714,1270.6538893859833,1271.7991338539869,"[72, 0, 182]",182,l,0.6219618725590408,colour,0.06
034,69,1,2,15,15,715,1272.3101048259996,1273.2071582283825,"[91, 0, 163]",163,l,0.3737660807091743,colour,0.06
034,69,1,2,15,16,716,1273.704158697743,1274.6072229766287,"[98, 0, 156]",156,l,0.3797174864448607,colour,0.06
034,69,1,2,15,17,717,1275.1261141900904,1276.0791315224487,"[53, 0, 201]",201,a,0.42969377688132226,colour,0.06
034,69,1,2,15,18,718,1276.5959578016773,1277.5994736643042,"[64, 0, 190]",190,a,0.48021278716623783,colour,0.06
034,69,1,2,15,19,719,1278.1115107771475,1278.7351271964144,"[81, 0, 173]",173,l,0.10033500520512462,colour,0.06
034,69,1,2,15,20,720,1279.2539219176397,1280.1911558748689,"[56, 0, 198]",198,a,0.41364652500487864,colour,0.06
034,69,1,2,15,21,721,1280.7071145114023,1281.631343676243,"[90, 0, 164]",164,l,0.4008358984719962,colour,0.06
034,69,1,2,15,22,722,1282.1453744370956,1285.143207103014,"[67, 0, 187]",187,a,2.474511473439634,colour,0.06
034,69,1,2,15,23,723,1285.6609435603023,1286.631166445557,"[51, 0, 203]",203,a,0.4468516744673252,colour,0.06
034,69,1,2,15,24,724,1287.1471439870074,1288.1111685251817,"[88, 0, 166]",166,l,0.4407553335186094,colour,0.06
034,69,1,2,15,25,725,1288.6315949498676,1289.6471652546898,"[54, 0, 200]",200,a,0.4923908968921751,colour,0.06
034,69,1,2,15,26,726,1290.1627966053784,1291.0871970930602,"[99, 0, 155]",155,l,0.40114546148106456,colour,0.06
034,69,1,2,15,27,727,1291.6002897131257,1292.5751489524264,"[55, 0, 199]",199,a,0.4517278806306422,colour,0.06
034,69,1,2,15,28,728,1293.0846264606807,1294.0231030017603,"[38, 0, 216]",216,a,0.4154129237867892,colour,0.06
034,69,1,2,15,29,729,1294.5380017990246,1295.5031302873977,"[77, 0, 177]",177,l,0.44180138828232884,colour,0.06
034,69,1,2,15,30,730,1296.0223865960725,1296.9271385045722,"[87, 0, 167]",167,l,0.3815079100895673,colour,0.06
034,69,1,2,15,31,731,1297.4454105922487,1298.2391621479765,"[78, 0, 176]",176,l,0.2706702155992389,colour,0.06
034,69,1,2,15,32,732,1298.7578922784887,1300.0311343078502,"[62, 0, 192]",192,a,0.7499007508158684,colour,0.06
034,69,1,2,15,33,733,1300.5396472874563,1301.4231382114813,"[83, 0, 171]",171,l,0.36033790395595133,colour,0.06
034,69,1,2,15,34,734,1301.9302171980962,1302.8151499922387,"[39, 0, 215]",215,a,0.36169824772514403,colour,0.06
034,69,1,2,15,35,735,1303.3364550874103,1304.2311572295148,"[97, 0, 157]",157,l,0.3714156080968678,colour,0.06
034,69,1,2,15,36,736,1304.742710699793,1305.6631168019958,"[76, 0, 178]",178,l,0.3971144484821707,colour,0.06
034,69,1,2,15,37,737,1306.1803172349464,1307.1591318689752,"[61, 0, 193]",193,a,0.45561317075043917,colour,0.06
034,69,1,2,15,38,738,1307.6657441481948,1308.6711583482102,"[71, 0, 183]",183,l,0.48211939516477287,colour,0.06
034,69,1,2,15,39,739,1309.1813904652372,1310.615180239547,"[65, 0, 189]",189,l,0.9105004835873842,colour,0.06
034,69,1,2,15,40,740,1311.134464511415,1312.0553538626991,"[82, 0, 172]",172,l,0.3978773280978203,colour,0.06
034,69,1,2,15,41,741,1312.5720608066767,1313.3191739160102,"[74, 0, 180]",180,l,0.22381042782217264,colour,0.06
034,69,1,2,15,42,742,1313.8384447970893,1314.8871418759227,"[60, 0, 194]",194,a,0.5253999112173915,colour,0.06
034,69,1,2,15,43,743,1315.4009646861814,1316.4311915729195,"[58, 0, 196]",196,a,0.5071876880247146,colour,0.06
034,69,1,2,15,44,744,1316.947856375482,1318.151168698445,"[69, 0, 185]",185,a,0.680039967643097,colour,0.06
034,69,1,2,15,45,745,1318.6665672862437,1320.0470949136652,"[70, 0, 184]",184,l,0.8572603920474648,colour,0.06
034,69,1,2,15,46,746,1320.557169886306,1321.4791273477022,"[94, 0, 160]",160,l,0.39865044760517776,colour,0.06
034,69,1,2,15,47,747,1321.997135952348,1322.6152278950904,"[96, 0, 158]",158,l,0.09470537188462913,colour,0.06
034,69,1,2,15,48,748,1323.1228858351242,1324.0631173534784,"[57, 0, 197]",197,a,0.416987519711256,colour,0.06
034,69,1,2,15,49,749,1324.5758586628363,1325.727119521238,"[75, 0, 179]",179,l,0.6279660535510629,colour,0.06
034,69,1,2,15,50,750,1326.2477554720826,1327.2391365480144,"[68, 0, 186]",186,l,0.4680780004709959,colour,0.06
034,69,1,2,16,1,751,1332.9506255059969,1333.759108474711,"[79, 0, 175]",175,l,0.28449223819188774,colour,0.06
034,69,1,2,16,2,752,1334.2795608933084,1335.2712755566463,"[57, 0, 197]",197,a,0.4684809048194438,colour,0.06
034,69,1,2,16,3,753,1335.7795683764853,1336.8791972158942,"[78, 0, 176]",176,l,0.5763517578598112,colour,0.06
034,69,1,2,16,4,754,1337.390055547934,1338.183123781113,"[72, 0, 182]",182,l,0.2697387698572129,colour,0.06
034,69,1,2,16,5,755,1338.7025537756272,1339.6551240929402,"[54, 0, 200]",200,a,0.42940036160871387,colour,0.06
034,69,1,2,16,6,756,1340.1713627541903,1341.1670619565994,"[85, 0, 169]",169,l,0.47308614500798285,colour,0.06
034,69,1,2,16,7,757,1341.6870791756082,1343.02308764169,"[82, 0, 172]",172,l,0.8131693410687149,colour,0.06
034,69,1,2,16,8,758,1343.5306356989313,1344.5351342069916,"[63, 0, 191]",191,a,0.4811060295905918,colour,0.06
034,69,1,2,16,9,759,1345.0463087973185,1346.2470871156547,"[99, 0, 155]",155,l,0.6774752428755164,colour,0.06
034,69,1,2,16,10,760,1346.7650634250604,1347.7031063416507,"[73, 0, 181]",181,l,0.41468864120543003,colour,0.06
034,69,1,2,16,11,761,1348.2181878834963,1349.079120494891,"[74, 0, 180]",180,l,0.3377851052209735,colour,0.06
034,69,1,2,16,12,762,1349.5932316002436,1350.4150718532037,"[75, 0, 179]",179,l,0.2985253620427102,colour,0.06
034,69,1,2,16,13,763,1350.9213277017698,1351.8711111652665,"[42, 0, 212]",212,a,0.42643391410820186,colour,0.06
034,69,1,2,16,14,764,1352.391405258095,1353.2951473456342,"[87, 0, 167]",167,l,0.38053786754608154,colour,0.06
034,69,1,2,16,15,765,1353.8133497226518,1354.9191166509409,"[94, 0, 160]",160,l,0.5825036312453449,colour,0.06
034,69,1,2,16,16,766,1355.4382225102745,1356.1755237362813,"[84, 0, 170]",170,l,0.21393867977894843,colour,0.06
034,69,1,2,16,17,767,1356.6882918272167,1357.6471026330255,"[64, 0, 190]",190,a,0.43554869038052857,colour,0.06
034,69,1,2,16,18,768,1358.1569546887185,1358.8231430952437,"[92, 0, 162]",162,l,0.15512803150340915,colour,0.06
034,69,1,2,16,19,769,1359.3398890299723,1360.1430956446566,"[88, 0, 166]",166,l,0.28004571748897433,colour,0.06
034,69,1,2,16,20,770,1360.6523707162123,1361.2951560101938,"[90, 0, 164]",164,l,0.11957674170844257,colour,0.06
034,69,1,2,16,21,771,1361.8085672515444,1362.5430835930165,"[56, 0, 198]",198,a,0.21132433065213263,colour,0.06
034,69,1,2,16,22,772,1363.0602686658967,1363.9190918386448,"[59, 0, 195]",195,a,0.3357666446827352,colour,0.06
034,69,1,2,16,23,773,1364.435232826043,1365.3670892107766,"[60, 0, 194]",194,a,0.4104544036090374,colour,0.06
034,69,1,2,16,24,774,1365.8864703685977,1366.9191343740094,"[96, 0, 158]",158,l,0.5093727454077452,colour,0.06
034,69,1,2,16,25,775,1367.4345652570482,1368.4630879724864,"[50, 0, 204]",204,a,0.5053303106687963,colour,0.06
034,69,1,2,16,26,776,1368.9814963310491,1369.9350882845465,"[76, 0, 178]",178,l,0.43064452102407813,colour,0.06
034,69,1,2,16,27,777,1370.4502663186286,1371.439103937475,"[97, 0, 157]",157,l,0.4656428510788828,colour,0.06
034,69,1,2,16,28,778,1371.9502379617188,1372.9670547887217,"[71, 0, 183]",183,l,0.49362087761983275,colour,0.06
034,69,1,2,16,29,779,1373.4815290202387,1374.3751886521932,"[55, 0, 199]",199,a,0.3705219719558954,colour,0.06
034,69,1,2,16,30,780,1374.8892706132028,1376.0071404266637,"[77, 0, 177]",177,l,0.5946699257474393,colour,0.06
034,69,1,2,16,31,781,1376.5142308347858,1377.4231070976239,"[81, 0, 173]",173,l,0.3856673166155815,colour,0.06
034,69,1,2,16,32,782,1377.9356522718444,1379.0791594856419,"[65, 0, 189]",189,a,0.6201651475857943,colour,0.06
034,69,1,2,16,33,783,1379.591879133368,1381.7031016154215,"[69, 0, 185]",185,a,1.5879489448852837,colour,0.06
034,69,1,2,16,34,784,1382.2168287211098,1383.0554487796035,"[91, 0, 163]",163,l,0.3156990136485547,colour,0.06
034,69,1,2,16,35,785,1383.576331671793,1384.5430619313847,"[98, 0, 156]",156,l,0.44334014412015676,colour,0.06
034,69,1,2,16,36,786,1385.0607794839889,1385.9990654035937,"[62, 0, 192]",192,a,0.41531367460265756,colour,0.06
034,69,1,2,16,37,787,1386.5138909455854,1387.5671133142896,"[44, 0, 210]",210,a,0.5347966810222715,colour,0.06
034,69,1,2,16,38,788,1388.0872715299483,1389.111074001994,"[53, 0, 201]",201,a,0.5004863997455686,colour,0.06
034,69,1,2,16,39,789,1389.618576766923,1390.7030783784576,"[80, 0, 174]",174,l,0.5612969975918531,colour,0.06
034,69,1,2,16,40,790,1391.2141990119126,1392.2390640804078,"[52, 0, 202]",202,a,0.5016021654009819,colour,0.06
034,69,1,2,16,41,791,1392.7453872766346,1394.7751108282246,"[93, 0, 161]",161,l,1.5063968454487622,colour,0.06
034,69,1,2,16,42,792,1395.2922498211265,1396.2230530621018,"[89, 0, 165]",165,l,0.4074150947853923,colour,0.06
034,69,1,2,16,43,793,1396.729837058112,1397.7351394055877,"[51, 0, 203]",203,a,0.4820508658885956,colour,0.06
034,69,1,2,16,44,794,1398.2454357196111,1399.6391146501992,"[66, 0, 188]",188,l,0.87036600895226,colour,0.06
034,69,1,2,16,45,795,1400.1516515535768,1401.0550679306034,"[70, 0, 184]",184,l,0.38059930759482086,colour,0.06
034,69,1,2,16,46,796,1401.573558602715,1404.5830640739296,"[86, 0, 168]",168,l,2.4860180758405477,colour,0.06
034,69,1,2,16,47,797,1405.0907275278587,1406.2630630815402,"[67, 0, 187]",187,l,0.6518740763422102,colour,0.06
034,69,1,2,16,48,798,1406.7629047555383,1407.415102967061,"[23, 0, 231]",231,a,0.12778094597160816,colour,0.06
034,69,1,2,16,49,799,1407.9358558901586,1409.7510586578865,"[61, 0, 193]",193,a,1.288158155977726,colour,0.06
034,69,1,2,16,50,800,1410.267706918763,1411.2790725242812,"[68, 0, 186]",186,l,0.4882976559456438,colour,0.06
