id,age,condition,counterbalance,block,trialinblock,trial,tstart,tend,trialstim,trialintensity,response,RT,trialtype,colourfreq
173,20,0,2,Practice,1,NA,5.119945853948593e-06,0.5575451760087162,"[53, 0, 201]",201,a,0.033113357378169894,colour,0.5
173,20,0,2,Practice,2,NA,1.0790007034083828,1.8054879234405234,"[98, 0, 156]",156,l,0.20314832299482077,colour,0.5
173,20,0,2,Practice,3,NA,2.3134172171121463,4.805484772659838,"[34, 0, 220]",220,a,1.9687042400473729,colour,0.5
173,20,0,2,Practice,4,NA,5.313760256627575,6.173515773029067,"[48, 0, 206]",206,a,0.3364469454390928,colour,0.5
173,20,0,2,Practice,5,NA,6.689139628433622,7.317466737702489,"[87, 0, 167]",167,l,0.10531195322982967,colour,0.5
173,20,0,2,Practice,6,NA,7.829489268828183,8.653483603731729,"[10, 0, 244]",244,a,0.30060857022181153,colour,0.5
173,20,0,2,Practice,7,NA,9.173330665682442,9.94151038210839,"[95, 0, 159]",159,l,0.24478016723878682,colour,0.5
173,20,0,2,Practice,8,NA,10.454642770113423,11.18950708641205,"[36, 0, 218]",218,a,0.21130132104735821,colour,0.5
173,20,0,2,Practice,9,NA,11.704849736066535,12.49352793500293,"[51, 0, 203]",203,a,0.2653125204378739,colour,0.5
173,20,0,2,Practice,10,NA,13.001743948319927,13.79747828526888,"[9, 0, 245]",245,a,0.27238559373654425,colour,0.5
173,20,0,2,1,1,1,4.1754479797091335,4.935917380731553,"[52, 0, 202]",202,a,0.2363306034822017,colour,0.5
173,20,0,2,1,2,2,5.441780954133719,6.343936707475223,"[2, 0, 252]",252,a,0.37865656113717705,colour,0.5
173,20,0,2,1,3,3,6.863902710727416,7.712359584285878,"[75, 0, 179]",179,a,0.32511561340652406,colour,0.5
173,20,0,2,1,4,4,8.225163505063392,9.079937268281356,"[32, 0, 222]",222,a,0.3305353227769956,colour,0.5
173,20,0,2,1,5,5,9.60116987908259,10.383902978501283,"[65, 0, 189]",189,a,0.2593689962523058,colour,0.5
173,20,0,2,1,6,6,10.89815625117626,11.687977390130982,"[6, 0, 248]",248,a,0.2664578234544024,colour,0.5
173,20,0,2,1,7,7,12.195120568037964,12.9839338560123,"[71, 0, 183]",183,l,0.26546375709585845,colour,0.5
173,20,0,2,1,8,8,13.49216956156306,14.263903340906836,"[97, 0, 157]",157,l,0.2484256022144109,colour,0.5
173,20,0,2,1,9,9,14.773478909162804,15.631924495100975,"[13, 0, 241]",241,a,0.3351185042411089,colour,0.5
173,20,0,2,1,10,10,16.136073658592068,16.91992252273485,"[38, 0, 216]",216,a,0.26056865009013563,colour,0.5
173,20,0,2,1,11,11,17.43317148904316,18.224018202046864,"[22, 0, 232]",232,a,0.26755783427506685,colour,0.5
173,20,0,2,1,12,12,18.73004758451134,19.527944133849815,"[43, 0, 211]",211,a,0.2744481632253155,colour,0.5
173,20,0,2,1,13,13,20.04274760885164,20.760440650279634,"[45, 0, 209]",209,a,0.19420369539875537,colour,0.5
173,20,0,2,1,14,14,21.277212171815336,22.023885160917416,"[29, 0, 225]",225,a,0.2241036663763225,colour,0.5
173,20,0,2,1,15,15,22.54292129469104,23.247925812145695,"[70, 0, 184]",184,a,0.18165577424224466,colour,0.5
173,20,0,2,1,16,16,23.76178760221228,24.519921498722397,"[87, 0, 167]",167,l,0.2348024824168533,colour,0.5
173,20,0,2,1,17,17,25.027465217513964,25.767894966178574,"[44, 0, 210]",210,a,0.2171125130262226,colour,0.5
173,20,0,2,1,18,18,26.277626497321762,26.991919863503426,"[7, 0, 247]",247,a,0.19168662803713232,colour,0.5
173,20,0,2,1,19,19,27.512063491158187,28.319932998972945,"[91, 0, 163]",163,l,0.28459283837582916,colour,0.5
173,20,0,2,1,20,20,28.840284577105194,29.599951320677064,"[66, 0, 188]",188,a,0.23634478182066232,colour,0.5
173,20,0,2,1,21,21,30.121627401560545,30.879879057989456,"[4, 0, 250]",250,l,0.23485801473725587,colour,0.5
173,20,0,2,1,22,22,31.374872492509894,32.175917049869895,"[78, 0, 176]",176,l,0.2776997525943443,colour,0.5
173,20,0,2,1,23,23,32.68748705240432,33.43988458754029,"[37, 0, 217]",217,a,0.23868501256220043,colour,0.5
173,20,0,2,1,24,24,33.95954339124728,34.67987322900444,"[98, 0, 156]",156,l,0.19702599302399904,colour,0.5
173,20,0,2,1,25,25,35.194081997149624,35.90394105552696,"[12, 0, 242]",242,a,0.18659184128046036,colour,0.5
173,20,0,2,1,26,26,36.41288804623764,37.19187921867706,"[77, 0, 177]",177,l,0.25580075511243194,colour,0.5
173,20,0,2,1,27,27,37.71012569195591,38.439909399836324,"[90, 0, 164]",164,l,0.2067756411852315,colour,0.5
173,20,0,2,1,28,28,38.95989312615711,39.71191296330653,"[0, 0, 254]",254,a,0.22860926028806716,colour,0.5
173,20,0,2,1,29,29,40.213247706065886,40.95193665707484,"[89, 0, 165]",165,l,0.21534532774239779,colour,0.5
173,20,0,2,1,30,30,41.46331840136554,42.22384806070477,"[30, 0, 224]",224,a,0.2372281776042655,colour,0.5
173,20,0,2,1,31,31,42.74468918889761,43.49588313186541,"[81, 0, 173]",173,l,0.2278987627942115,colour,0.5
173,20,0,2,1,32,32,44.00110670621507,44.75188986817375,"[24, 0, 230]",230,a,0.22737455426249653,colour,0.5
173,20,0,2,1,33,33,45.266876875190064,45.975898617878556,"[61, 0, 193]",193,a,0.18572813784703612,colour,0.5
173,20,0,2,1,34,34,46.48567032138817,47.3358872908866,"[28, 0, 226]",226,a,0.3268922509159893,colour,0.5
173,20,0,2,1,35,35,47.84704769391101,48.759829401853494,"[5, 0, 249]",249,a,0.38946132152341306,colour,0.5
173,20,0,2,1,36,36,49.26899891544599,49.98384366533719,"[92, 0, 162]",162,l,0.19147867755964398,colour,0.5
173,20,0,2,1,37,37,50.50357178587001,51.15984302898869,"[41, 0, 213]",213,a,0.1331926779821515,colour,0.5
173,20,0,2,1,38,38,51.67551138892304,52.487839229172096,"[82, 0, 172]",172,l,0.2889759463723749,colour,0.5
173,20,0,2,1,39,39,53.00376516405959,53.63196072890423,"[25, 0, 229]",229,a,0.1051504765637219,colour,0.5
173,20,0,2,1,40,40,54.144451542408206,54.80787305254489,"[3, 0, 251]",251,a,0.14018304366618395,colour,0.5
173,20,0,2,1,41,41,55.31644982844591,55.97590452560689,"[84, 0, 170]",170,l,0.13616148615255952,colour,0.5
173,20,0,2,1,42,42,56.48832917306572,57.1438706201734,"[8, 0, 246]",246,a,0.1321509563131258,colour,0.5
173,20,0,2,1,43,43,57.660199853009544,58.36789472983219,"[19, 0, 235]",235,a,0.18414684769231826,colour,0.5
173,20,0,2,1,44,44,58.88212752249092,59.703988001914695,"[55, 0, 199]",199,a,0.29857987142167985,colour,0.5
173,20,0,2,1,45,45,60.22594647016376,60.91187665075995,"[63, 0, 191]",191,a,0.16264957271050662,colour,0.5
173,20,0,2,1,46,46,61.42915426380932,62.1998333245283,"[68, 0, 186]",186,a,0.24733701290097088,colour,0.5
173,20,0,2,1,47,47,62.710434466949664,63.28787869249936,"[95, 0, 159]",159,l,0.05245866009499878,colour,0.5
173,20,0,2,1,48,48,63.805819935398176,64.50384826550726,"[33, 0, 221]",221,a,0.17461342085152864,colour,0.5
173,20,0,2,1,49,49,65.0247161751613,65.70397776190657,"[96, 0, 158]",158,l,0.15562848700210452,colour,0.5
173,20,0,2,1,50,50,66.21229144895915,66.92785733030178,"[56, 0, 198]",198,a,0.19233607954811305,colour,0.5
173,20,0,2,2,1,51,71.5130016313633,72.19984592765104,"[49, 0, 205]",205,a,0.1617886262247339,colour,0.5
173,20,0,2,2,2,52,72.71791398886126,73.34382603690028,"[1, 0, 253]",253,a,0.10251131723634899,colour,0.5
173,20,0,2,2,3,53,73.85858658270445,74.4478414504556,"[96, 0, 158]",158,l,0.06580018007662147,colour,0.5
173,20,0,2,2,4,54,74.96818436391186,75.55180920858402,"[36, 0, 218]",218,a,0.060276495292782784,colour,0.5
173,20,0,2,2,5,55,76.06196688080672,76.6238577492768,"[19, 0, 235]",235,a,0.038523614523001015,colour,0.5
173,20,0,2,2,6,56,77.14008812699467,77.95981041854247,"[62, 0, 192]",192,a,0.2963270746404305,colour,0.5
173,20,0,2,2,7,57,78.46835686825216,79.11980547185522,"[72, 0, 182]",182,l,0.1280195158906281,colour,0.5
173,20,0,2,2,8,58,79.64032916049473,80.22383703303058,"[91, 0, 163]",163,l,0.06010989868082106,colour,0.5
173,20,0,2,2,9,59,80.73416996642482,81.5518478055019,"[0, 0, 254]",254,a,0.29477256594691426,colour,0.5
173,20,0,2,2,10,60,82.06242964940611,82.66382086963858,"[77, 0, 177]",177,l,0.07803853857330978,colour,0.5
173,20,0,2,2,11,61,83.17182814469561,83.91982799977995,"[68, 0, 186]",186,a,0.22464756725821644,colour,0.5
173,20,0,2,2,12,62,84.43797443632502,85.03180027625058,"[60, 0, 194]",194,a,0.07053459819871932,colour,0.5
173,20,0,2,2,13,63,85.54732527630404,86.3678159606643,"[90, 0, 164]",164,l,0.29707892576698214,colour,0.5
173,20,0,2,2,14,64,86.87565112533048,87.5358096244745,"[78, 0, 176]",176,a,0.13687198352999985,colour,0.5
173,20,0,2,2,15,65,88.0476498050848,88.77581559517421,"[22, 0, 232]",232,a,0.20493756362702698,colour,0.5
173,20,0,2,2,16,66,89.28208443580661,90.0318038208643,"[82, 0, 172]",172,l,0.22640096792019904,colour,0.5
173,20,0,2,2,17,67,90.54775929416064,91.26383914402686,"[59, 0, 195]",195,a,0.1926224052440375,colour,0.5
173,20,0,2,2,18,68,91.7822723002173,92.4318454109598,"[28, 0, 226]",226,a,0.13547186250798404,colour,0.5
173,20,0,2,2,19,69,92.94600061606616,93.6718001817353,"[40, 0, 214]",214,a,0.2024327056715265,colour,0.5
173,20,0,2,2,20,70,94.18048999120947,95.40779956104234,"[6, 0, 248]",248,a,0.7039545250590891,colour,0.5
173,20,0,2,2,21,71,95.90750614600256,96.71177866193466,"[37, 0, 217]",217,a,0.2808379144407809,colour,0.5
173,20,0,2,2,22,72,97.2076554922387,97.75978135270998,"[73, 0, 181]",181,l,0.02874797268304974,colour,0.5
173,20,0,2,2,23,73,98.27013673540205,98.8637955847662,"[61, 0, 193]",193,a,0.07050899823661894,colour,0.5
173,20,0,2,2,24,74,99.37960966757964,100.55180842091795,"[15, 0, 239]",239,a,0.6488460716791451,colour,0.5
173,20,0,2,2,25,75,101.06725110730622,101.73583002574742,"[27, 0, 227]",227,a,0.14521914755459875,colour,0.5
173,20,0,2,2,26,76,102.25489648559596,103.03979573596735,"[35, 0, 219]",219,a,0.26164818089455366,colour,0.5
173,20,0,2,2,27,77,103.55182141787373,104.3118209609529,"[57, 0, 197]",197,a,0.23672169214114547,colour,0.5
173,20,0,2,2,28,78,104.83317920845002,105.43178515252657,"[9, 0, 245]",245,a,0.07528831472154707,colour,0.5
173,20,0,2,2,29,79,105.94265450374223,106.48778212151956,"[70, 0, 184]",184,l,0.02208764955867082,colour,0.5
173,20,0,2,2,30,80,107.0051538636908,107.63976832432672,"[31, 0, 223]",223,a,0.11129210505168885,colour,0.5
173,20,0,2,2,31,81,108.14596942346543,108.94378090219107,"[39, 0, 215]",215,a,0.2745387477334589,colour,0.5
173,20,0,2,2,32,82,109.45845204498619,110.37578857736662,"[56, 0, 198]",198,a,0.39389562932774425,colour,0.5
173,20,0,2,2,33,83,110.89745205524378,111.67973105073906,"[84, 0, 170]",170,l,0.2589783014263958,colour,0.5
173,20,0,2,2,34,84,112.1943765936885,113.09584311721846,"[30, 0, 224]",224,a,0.37854155828244984,colour,0.5
173,20,0,2,2,35,85,113.61633214738686,114.20777088904288,"[50, 0, 204]",204,a,0.06844012718647718,colour,0.5
173,20,0,2,2,36,86,114.72580035345163,115.47178608202375,"[75, 0, 179]",179,a,0.22260114550590515,colour,0.5
173,20,0,2,2,37,87,115.99285839754157,116.70376862992998,"[98, 0, 156]",156,l,0.18748153850901872,colour,0.5
173,20,0,2,2,38,88,117.21182631724514,117.79178761015646,"[12, 0, 242]",242,a,0.05657907284330577,colour,0.5
173,20,0,2,2,39,89,118.30566200334579,118.96776491834316,"[7, 0, 247]",247,a,0.13879079942125827,colour,0.5
173,20,0,2,2,40,90,119.47760318173096,120.23172654828522,"[21, 0, 233]",233,a,0.22879003535490483,colour,0.5
173,20,0,2,2,41,91,120.74538984021638,121.58379183534998,"[2, 0, 252]",252,a,0.3150859411107376,colour,0.5
173,20,0,2,2,42,92,122.10482516011689,122.83973358711228,"[47, 0, 207]",207,a,0.21149745618458837,colour,0.5
173,20,0,2,2,43,93,123.35488719085697,124.02382253948599,"[29, 0, 225]",225,a,0.14560866076499224,colour,0.5
173,20,0,2,2,44,94,124.54257589217741,125.15171681239735,"[32, 0, 222]",222,a,0.08591269387397915,colour,0.5
173,20,0,2,2,45,95,125.6676041505998,126.25576097669546,"[80, 0, 174]",174,l,0.06519641471095383,colour,0.5
173,20,0,2,2,46,96,126.7770093412837,127.51192879595328,"[51, 0, 203]",203,a,0.21144586242735386,colour,0.5
173,20,0,2,2,47,97,128.02712808572687,128.77576675836463,"[81, 0, 173]",173,l,0.22522258188109845,colour,0.5
173,20,0,2,2,48,98,129.2929352762876,130.00775442633312,"[83, 0, 171]",171,l,0.19153302838094532,colour,0.5
173,20,0,2,2,49,99,130.52728365478106,131.19173822191078,"[52, 0, 202]",202,a,0.14099791029002517,colour,0.5
173,20,0,2,2,50,100,131.6993146298919,132.3517285489943,"[46, 0, 208]",208,a,0.12938931083772331,colour,0.5
173,20,0,2,3,1,101,136.99582917499356,137.71178850810975,"[28, 0, 226]",226,a,0.19179493561387062,colour,0.5
173,20,0,2,3,2,102,138.23178916971665,139.13574597903062,"[27, 0, 227]",227,a,0.38075457664672285,colour,0.5
173,20,0,2,3,3,103,139.6537368466379,140.23978856799658,"[93, 0, 161]",161,l,0.06295385782141238,colour,0.5
173,20,0,2,3,4,104,140.74750833574217,141.32771223748568,"[59, 0, 195]",195,a,0.0568386169616133,colour,0.5
173,20,0,2,3,5,105,141.8413995540468,142.4637252439279,"[86, 0, 168]",168,l,0.09895174053963274,colour,0.5
173,20,0,2,3,6,106,142.9820945970714,143.6157551635988,"[40, 0, 214]",214,a,0.11339917907025665,colour,0.5
173,20,0,2,3,7,107,144.13530802272726,144.73575558885932,"[13, 0, 241]",241,a,0.07703462603967637,colour,0.5
173,20,0,2,3,8,108,145.24478961958084,145.79172656405717,"[20, 0, 234]",234,a,0.023577961372211576,colour,0.5
173,20,0,2,3,9,109,146.29485409206245,146.92772814887576,"[47, 0, 207]",207,a,0.10942960914690048,colour,0.5
173,20,0,2,3,10,110,147.43579804548062,148.4077180349268,"[0, 0, 254]",254,a,0.44872839062009007,colour,0.5
173,20,0,2,3,11,111,148.92014425783418,149.68774699047208,"[77, 0, 177]",177,l,0.24438671546522528,colour,0.5
173,20,0,2,3,12,112,150.20149180840235,150.80776671424974,"[29, 0, 225]",225,a,0.08283360884524882,colour,0.5
173,20,0,2,3,13,113,151.32663388829678,151.97570248274133,"[94, 0, 160]",160,l,0.1287308009341359,colour,0.5
173,20,0,2,3,14,114,152.49561767990235,153.1197463950375,"[97, 0, 157]",157,l,0.10082171950489283,colour,0.5
173,20,0,2,3,15,115,153.63628357835114,154.279696549871,"[55, 0, 199]",199,a,0.13107969623524696,colour,0.5
173,20,0,2,3,16,116,154.79710728279315,155.51172911620233,"[81, 0, 173]",173,a,0.1911187027581036,colour,0.5
173,20,0,2,3,17,117,156.03163210419007,156.75169097620528,"[49, 0, 205]",205,l,0.19668059039395303,colour,0.5
173,20,0,2,3,18,118,157.26613014400937,157.96772671525832,"[67, 0, 187]",187,a,0.178245858871378,colour,0.5
173,20,0,2,3,19,119,158.48496139922645,159.1277008948382,"[8, 0, 246]",246,l,0.11941753386054188,colour,0.5
173,20,0,2,3,20,120,159.64135118981358,161.455734904157,"[98, 0, 156]",156,l,1.2909569897456095,colour,0.5
173,20,0,2,3,21,121,161.96964710648172,162.62369469727855,"[24, 0, 230]",230,a,0.1308311796747148,colour,0.5
173,20,0,2,3,22,122,163.14151187881362,163.78367793513462,"[72, 0, 182]",182,a,0.11864087032154202,colour,0.5
173,20,0,2,3,23,123,164.29808992764447,165.06373879220337,"[83, 0, 171]",171,l,0.24221544456668198,colour,0.5
173,20,0,2,3,24,124,165.58201559155714,166.14375325420406,"[22, 0, 232]",232,a,0.038385768653824925,colour,0.5
173,20,0,2,3,25,125,166.66019197611604,167.27970797137823,"[7, 0, 247]",247,a,0.09594157850369811,colour,0.5
173,20,0,2,3,26,126,167.7861879132688,168.43974043999333,"[69, 0, 185]",185,a,0.13038652786053717,colour,0.5
173,20,0,2,3,27,127,168.95806922705378,169.56767212832347,"[63, 0, 191]",191,a,0.08618720434606075,colour,0.5
173,20,0,2,3,28,128,170.08322312228847,170.671778914053,"[53, 0, 201]",201,a,0.06526888231746852,colour,0.5
173,20,0,2,3,29,129,171.19274292199407,171.82374424301088,"[9, 0, 245]",245,a,0.10795780806802213,colour,0.5
173,20,0,2,3,30,130,172.33349310338963,172.95970408024732,"[60, 0, 194]",194,a,0.102900042780675,colour,0.5
173,20,0,2,3,31,131,173.47528185567353,174.4316996880807,"[33, 0, 221]",221,a,0.43311516917310655,colour,0.5
173,20,0,2,3,32,132,174.94407471094746,175.583656352479,"[5, 0, 249]",249,a,0.11618484917562455,colour,0.5
173,20,0,2,3,33,133,176.09087121021003,176.79168599797413,"[95, 0, 159]",159,l,0.17745541082695127,colour,0.5
173,20,0,2,3,34,134,177.30971743154805,178.00766266020946,"[73, 0, 181]",181,a,0.17460633162409067,colour,0.5
173,20,0,2,3,35,135,178.52848960994743,179.11967904737685,"[50, 0, 204]",204,a,0.06782769726123661,colour,0.5
173,20,0,2,3,36,136,179.6380078344373,180.71164199756458,"[45, 0, 209]",209,a,0.5502046815818176,colour,0.5
173,20,0,2,3,37,137,181.23317629401572,181.88770358869806,"[74, 0, 180]",180,a,0.13119430537335575,colour,0.5
173,20,0,2,3,38,138,182.40508045093156,183.03968585305847,"[44, 0, 210]",210,a,0.10873959166929126,colour,0.5
173,20,0,2,3,39,139,183.54829137958586,184.0716625719797,"[16, 0, 238]",238,a,0.0008640972664579749,colour,0.5
173,20,0,2,3,40,140,184.59516018885188,185.51167397783138,"[21, 0, 233]",233,a,0.39313708269037306,colour,0.5
173,20,0,2,3,41,141,186.03401171928272,186.63169370160904,"[52, 0, 202]",202,a,0.08519274415448308,colour,0.5
173,20,0,2,3,42,142,187.14855541370343,187.89566557155922,"[70, 0, 184]",184,a,0.22360584558919072,colour,0.5
173,20,0,2,3,43,143,188.41424208751414,189.1916582712438,"[68, 0, 186]",186,a,0.2528768453048542,colour,0.5
173,20,0,2,3,44,144,189.71270538063254,190.30370025837328,"[2, 0, 252]",252,a,0.0676437714137137,colour,0.5
173,20,0,2,3,45,145,190.82212593138684,191.37574998056516,"[41, 0, 213]",213,a,0.03031705366447568,colour,0.5
173,20,0,2,3,46,146,191.88479149423074,192.8637034248095,"[36, 0, 218]",218,a,0.4556770087219775,colour,0.5
173,20,0,2,3,47,147,193.3849612417398,194.11163947696332,"[92, 0, 162]",162,l,0.2034295288613066,colour,0.5
173,20,0,2,3,48,148,194.61939114623237,195.28763844666537,"[15, 0, 239]",239,a,0.14532587968278676,colour,0.5
173,20,0,2,3,49,149,195.80699713993818,196.59164235985372,"[30, 0, 224]",224,a,0.2612783598015085,colour,0.5
173,20,0,2,3,50,150,197.10391222604085,197.7516476531746,"[91, 0, 163]",163,l,0.12461708358023316,colour,0.5
173,20,0,2,4,1,151,201.85954402131028,202.41568671318237,"[24, 0, 230]",230,a,0.031961358967237175,colour,0.5
173,20,0,2,4,2,152,202.92298034008127,203.65564778551925,"[59, 0, 195]",195,a,0.20937541604507715,colour,0.5
173,20,0,2,4,3,153,204.17308017995674,204.77565530012362,"[72, 0, 182]",182,a,0.07931144768372178,colour,0.5
173,20,0,2,4,4,154,205.28255901974626,206.02361852745526,"[6, 0, 248]",248,a,0.21777259826194495,colour,0.5
173,20,0,2,4,5,155,206.53258875512984,207.35965035972185,"[47, 0, 207]",207,a,0.30373885517474264,colour,0.5
173,20,0,2,4,6,156,207.8764179426944,208.5356536617037,"[62, 0, 192]",192,a,0.1358038743492216,colour,0.5
173,20,0,2,4,7,157,209.0484418286942,209.98362705030013,"[95, 0, 159]",159,l,0.41176794935017824,colour,0.5
173,20,0,2,4,8,158,210.50164430541918,211.16763920278754,"[68, 0, 186]",186,a,0.14265088026877493,colour,0.5
173,20,0,2,4,9,159,211.67362526222132,212.4156225163024,"[42, 0, 212]",212,a,0.2185760432621464,colour,0.5
173,20,0,2,4,10,160,212.92371446825564,213.82367138157133,"[38, 0, 216]",216,a,0.37654869945254177,colour,0.5
173,20,0,2,4,11,161,214.3301903140964,214.94360524707008,"[94, 0, 160]",160,l,0.09020285413134843,colour,0.5
173,20,0,2,4,12,162,215.45527016627602,215.9836467425339,"[11, 0, 243]",243,a,0.005018774536438286,colour,0.5
173,20,0,2,4,13,163,216.5028360822471,217.18368407920934,"[52, 0, 202]",202,a,0.15614481864031404,colour,0.5
173,20,0,2,4,14,164,217.69183392636478,218.27965007605962,"[37, 0, 217]",217,a,0.06446740648243576,colour,0.5
173,20,0,2,4,15,165,218.78571805544198,219.4316508511547,"[8, 0, 246]",246,a,0.12270260008517653,colour,0.5
173,20,0,2,4,16,166,219.9420889414614,220.8156617433997,"[76, 0, 178]",178,a,0.35020200337748975,colour,0.5
173,20,0,2,4,17,167,221.33279245207086,222.33563995582517,"[80, 0, 174]",174,l,0.4796460587531328,colour,0.5
173,20,0,2,4,18,168,222.84844230127055,223.4716297253035,"[46, 0, 208]",208,a,0.09979181317612529,colour,0.5
173,20,0,2,4,19,169,223.9891767287627,224.60770771617536,"[31, 0, 223]",223,a,0.09525825642049313,colour,0.5
173,20,0,2,4,20,170,225.1148548325291,225.75165198545437,"[99, 0, 155]",155,l,0.11351851432118565,colour,0.5
173,20,0,2,4,21,171,226.27110283868387,226.91964092315175,"[14, 0, 240]",240,a,0.1241279273526743,colour,0.5
173,20,0,2,4,22,172,227.4285174155375,228.03962913923897,"[92, 0, 162]",162,l,0.0877291098004207,colour,0.5
173,20,0,2,4,23,173,228.55359726771712,229.30358328623697,"[98, 0, 156]",156,l,0.22692163183819503,colour,0.5
173,20,0,2,4,24,174,229.81932647677604,230.63963047834113,"[81, 0, 173]",173,l,0.29698794754222035,colour,0.5
173,20,0,2,4,25,175,231.14763066428714,231.85561659291852,"[21, 0, 233]",233,a,0.18465136387385428,colour,0.5
173,20,0,2,4,26,176,232.36642883648165,233.00761776184663,"[61, 0, 193]",193,a,0.11780000990256667,colour,0.5
173,20,0,2,4,27,177,233.52278593787923,234.13562703772914,"[54, 0, 200]",200,a,0.08957388275302947,colour,0.5
173,20,0,2,4,28,178,234.64782443630975,235.18361830688082,"[75, 0, 179]",179,l,0.012407712056301534,colour,0.5
173,20,0,2,4,29,179,235.6947393254377,236.39960205846,"[82, 0, 172]",172,l,0.1814832699019462,colour,0.5
173,20,0,2,4,30,180,236.91422357677948,237.4476000230061,"[57, 0, 197]",197,a,0.009049390559084713,colour,0.5
173,20,0,2,4,31,181,237.96277450060006,238.5516942057293,"[49, 0, 205]",205,a,0.06568438943941146,colour,0.5
173,20,0,2,4,32,182,239.0722210451495,239.6556194286095,"[1, 0, 253]",253,a,0.06011541257612407,colour,0.5
173,20,0,2,4,33,183,240.16602601122577,240.91162419575267,"[56, 0, 198]",198,a,0.22256609320174903,colour,0.5
173,20,0,2,4,34,184,241.4317630971782,241.99960024678148,"[20, 0, 234]",234,a,0.04449313250370324,colour,0.5
173,20,0,2,4,35,185,242.509969807812,243.08756881474983,"[30, 0, 224]",224,a,0.05421678686980158,colour,0.5
173,20,0,2,4,36,186,243.60386811534408,244.2075999600347,"[73, 0, 181]",181,a,0.08053473208565265,colour,0.5
173,20,0,2,4,37,187,244.72891015838832,246.54362706607208,"[28, 0, 226]",226,a,1.2916631548432633,colour,0.5
173,20,0,2,4,38,188,247.05723364418373,247.90364409598988,"[45, 0, 209]",209,a,0.32303532084915787,colour,0.5
173,20,0,2,4,39,189,248.41678829933517,249.08756881474983,"[13, 0, 241]",241,a,0.1475463812239468,colour,0.5
173,20,0,2,4,40,190,249.60426511173137,250.33555409754626,"[77, 0, 177]",177,l,0.20862120168749243,colour,0.5
173,20,0,2,4,41,191,250.85434486542363,251.86361835419666,"[22, 0, 232]",232,a,0.48602241929620504,colour,0.5
173,20,0,2,4,42,192,252.37021526822355,253.11168398149312,"[19, 0, 235]",235,a,0.21842480660416186,colour,0.5
173,20,0,2,4,43,193,253.62025406199973,254.45561950735282,"[93, 0, 161]",161,l,0.3119875575648621,colour,0.5
173,20,0,2,4,44,194,254.9640544988215,256.3675741394982,"[51, 0, 203]",203,a,0.8801685343496501,colour,0.5
173,20,0,2,4,45,195,256.87628167215735,257.5515807782067,"[87, 0, 167]",167,l,0.1496424275683239,colour,0.5
173,20,0,2,4,46,196,258.06610541045666,258.81563811260276,"[15, 0, 239]",239,a,0.22618632204830647,colour,0.5
173,20,0,2,4,47,197,259.33170071209315,259.9675884754397,"[44, 0, 210]",210,a,0.11247758031822741,colour,0.5
173,20,0,2,4,48,198,260.4882807300892,261.08758693165146,"[40, 0, 214]",214,a,0.08573625108692795,colour,0.5
173,20,0,2,4,49,199,261.6034096790245,262.3757495867321,"[9, 0, 245]",245,a,0.24907387210987508,colour,0.5
173,20,0,2,4,50,200,262.88485608494375,263.6235281005502,"[71, 0, 183]",183,l,0.21534414624329656,colour,0.5
173,20,0,2,5,1,201,267.9000939716352,268.79155366588384,"[76, 0, 178]",178,l,0.3673902136506513,colour,0.5
173,20,0,2,5,2,202,269.3073165487731,269.8555874483427,"[52, 0, 202]",202,a,0.025069848517887294,colour,0.5
173,20,0,2,5,3,203,270.3696883027442,270.9915232609492,"[92, 0, 162]",162,l,0.09849369805306196,colour,0.5
173,20,0,2,5,4,204,271.5105160716921,272.09557293902617,"[90, 0, 164]",164,l,0.06168055487796664,colour,0.5
173,20,0,2,5,5,205,272.60437853925396,273.2395727406256,"[99, 0, 155]",155,l,0.11251696490217,colour,0.5
173,20,0,2,5,6,206,273.7607328837039,274.6955136259785,"[68, 0, 186]",186,a,0.4118482938501984,colour,0.5
173,20,0,2,5,7,207,275.2139156681951,275.8155207466334,"[48, 0, 206]",206,a,0.0782252213684842,colour,0.5
173,20,0,2,5,8,208,276.32346579420846,277.27955555310473,"[91, 0, 163]",163,l,0.4328761048382148,colour,0.5
173,20,0,2,5,9,209,277.79229015717283,278.51955364691094,"[98, 0, 156]",156,l,0.2040017864201218,colour,0.5
173,20,0,2,5,10,210,279.02671730471775,279.6635373007739,"[46, 0, 208]",208,a,0.11344447126612067,colour,0.5
173,20,0,2,5,11,211,280.18304092925973,280.78360349836294,"[85, 0, 169]",169,l,0.07720358588267118,colour,0.5
173,20,0,2,5,12,212,281.29252291994635,281.84754118253477,"[30, 0, 224]",224,a,0.031686060945503414,colour,0.5
173,20,0,2,5,13,213,282.3552014796296,282.9835341027938,"[80, 0, 174]",174,l,0.10502602148335427,colour,0.5
173,20,0,2,5,14,214,283.4958185411524,284.1115347140003,"[37, 0, 217]",217,a,0.09241075266618282,colour,0.5
173,20,0,2,5,15,215,284.60956115368754,285.13559041009285,"[88, 0, 166]",166,a,0.012039860361255705,colour,0.5
173,20,0,2,5,16,216,285.6471942833159,286.2555766570149,"[20, 0, 234]",234,a,0.08490484301000834,colour,0.5
173,20,0,2,5,17,217,286.7723028862383,287.7115096653579,"[56, 0, 198]",198,a,0.41597579582594335,colour,0.5
173,20,0,2,5,18,218,288.2253915416077,288.7835853814613,"[36, 0, 218]",218,a,0.034648567670956254,colour,0.5
173,20,0,2,5,19,219,289.3036746584112,290.19959032186307,"[22, 0, 232]",232,a,0.37274887692183256,colour,0.5
173,20,0,2,5,20,220,290.7101209658431,291.43159216817,"[17, 0, 237]",237,a,0.19781801651697606,colour,0.5
173,20,0,2,5,21,221,291.94571232108865,292.55156147968955,"[64, 0, 190]",190,a,0.08288165798876435,colour,0.5
173,20,0,2,5,22,222,293.0707980808802,293.72753406176344,"[55, 0, 199]",199,a,0.1336759264813736,colour,0.5
173,20,0,2,5,23,223,294.2443394539878,294.84748446871527,"[74, 0, 180]",180,l,0.07980060379486531,colour,0.5
173,20,0,2,5,24,224,295.35380766005255,295.92752216767985,"[3, 0, 251]",251,a,0.050598527188412845,colour,0.5
173,20,0,2,5,25,225,296.44763980142307,297.35154304781463,"[21, 0, 233]",233,a,0.38056868163403124,colour,0.5
173,20,0,2,5,26,226,297.86971035809256,298.57556400669273,"[34, 0, 220]",220,a,0.18275066500063986,colour,0.5
173,20,0,2,5,27,227,299.08833917672746,299.9755555783631,"[12, 0, 242]",242,a,0.3637530494015664,colour,0.5
173,20,0,2,5,28,228,300.49478430266026,301.1675273505971,"[40, 0, 214]",214,a,0.14938760944642127,colour,0.5
173,20,0,2,5,29,229,301.68241707782727,302.33552298368886,"[62, 0, 192]",192,a,0.12978670105803758,colour,0.5
173,20,0,2,5,30,230,302.8544133945834,303.71956183889415,"[4, 0, 250]",250,a,0.35433265613391995,colour,0.5
173,20,0,2,5,31,231,304.23253590101376,304.8715153525118,"[57, 0, 197]",197,a,0.11557320680003613,colour,0.5
173,20,0,2,5,32,232,305.38887961173896,306.2315469547175,"[8, 0, 246]",246,a,0.319354833685793,colour,0.5
173,20,0,2,5,33,233,306.748394094524,307.61551294848323,"[11, 0, 243]",243,a,0.34376302151940763,colour,0.5
173,20,0,2,5,34,234,308.1252421166282,308.7915284597548,"[84, 0, 170]",170,l,0.1428986091632396,colour,0.5
173,20,0,2,5,35,235,309.31281305802986,309.84751794557087,"[42, 0, 212]",212,a,0.011341178207658231,colour,0.5
173,20,0,2,5,36,236,310.3597464580089,310.9834762074752,"[86, 0, 168]",168,l,0.10031680949032307,colour,0.5
173,20,0,2,5,37,237,311.5004663132131,312.151519101928,"[96, 0, 158]",158,l,0.12765008863061666,colour,0.5
173,20,0,2,5,38,238,312.6725792082725,313.27148920123,"[33, 0, 221]",221,a,0.07564041274599731,colour,0.5
173,20,0,2,5,39,239,313.78192689758725,314.40748054604046,"[23, 0, 231]",231,a,0.10213558841496706,colour,0.5
173,20,0,2,5,40,240,314.92270307277795,315.61554642533883,"[94, 0, 160]",160,l,0.17882047966122627,colour,0.5
173,20,0,2,5,41,241,316.13232700538356,316.68753549538087,"[71, 0, 183]",183,a,0.031884559080936015,colour,0.5
173,20,0,2,5,42,242,317.1954395829234,317.78352354769595,"[38, 0, 216]",216,a,0.06467417546082288,colour,0.5
173,20,0,2,5,43,243,318.3048628906254,318.9674793803133,"[75, 0, 179]",179,a,0.13923978351522237,colour,0.5
173,20,0,2,5,44,244,319.4768525119871,320.0794725305168,"[19, 0, 235]",235,l,0.07914800173602998,colour,0.5
173,20,0,2,5,45,245,320.5862966934219,321.1675119906431,"[32, 0, 222]",222,a,0.057736978866159916,colour,0.5
173,20,0,2,5,46,246,321.6816309619462,322.3195241872454,"[44, 0, 210]",210,a,0.1144991897745058,colour,0.5
173,20,0,2,5,47,247,322.8380105125252,323.39150222961325,"[93, 0, 161]",161,l,0.03005947859492153,colour,0.5
173,20,0,2,5,48,248,323.9006382662337,324.5435037923744,"[27, 0, 227]",227,a,0.11955498601309955,colour,0.5
173,20,0,2,5,49,249,325.0568992693443,325.73547556472477,"[78, 0, 176]",176,l,0.1551633554045111,colour,0.5
173,20,0,2,5,50,250,326.2445446475176,326.8635261943564,"[47, 0, 207]",207,a,0.09581672947388142,colour,0.5
173,20,0,2,6,1,251,331.29103536496405,332.0474895099178,"[34, 0, 220]",220,a,0.2323196796933189,colour,0.5
173,20,0,2,6,2,252,332.557550689904,333.15148759435397,"[46, 0, 208]",208,a,0.07065747806336731,colour,0.5
173,20,0,2,6,3,253,333.6669791175518,334.2476221572142,"[96, 0, 158]",158,l,0.057225767290219665,colour,0.5
173,20,0,2,6,4,254,334.76076557289343,335.3514894847758,"[95, 0, 159]",159,l,0.0673058518441394,colour,0.5
173,20,0,2,6,5,255,335.8702684373129,336.47946804063395,"[93, 0, 161]",161,l,0.08602730289567262,colour,0.5
173,20,0,2,6,6,256,336.9953478956595,337.52748372836504,"[38, 0, 216]",216,a,0.008768972591497004,colour,0.5
173,20,0,2,6,7,257,338.0423486431828,339.6554481057683,"[1, 0, 253]",253,a,1.0897672608261928,colour,0.5
173,20,0,2,6,8,258,340.15961459849495,340.9675073432736,"[49, 0, 205]",205,a,0.2845463646808639,colour,0.5
173,20,0,2,6,9,259,341.4889116707491,342.2555144294165,"[30, 0, 224]",224,a,0.24327646475285292,colour,0.5
173,20,0,2,6,10,260,342.77018360304646,343.3674544104142,"[45, 0, 209]",209,a,0.07408590405248106,colour,0.5
173,20,0,2,6,11,261,343.8796703197295,344.6074879503576,"[67, 0, 187]",187,a,0.20443462277762592,colour,0.5
173,20,0,2,6,12,262,345.1016787275439,345.7514794811141,"[42, 0, 212]",212,a,0.12645319185685366,colour,0.5
173,20,0,2,6,13,263,346.25803385977633,346.83946971059777,"[89, 0, 165]",165,l,0.05793626478407532,colour,0.5
173,20,0,2,6,14,264,347.35260367405135,348.03148401819635,"[2, 0, 252]",252,a,0.15555050561670214,colour,0.5
173,20,0,2,6,15,265,348.54023881221656,349.24742641591,"[73, 0, 181]",181,l,0.19633991399314255,colour,0.5
173,20,0,2,6,16,266,349.7622204385698,350.31948440882843,"[86, 0, 168]",168,l,0.033750599599443376,colour,0.5
173,20,0,2,6,17,267,350.8404204538092,351.6394678200595,"[10, 0, 244]",244,a,0.2763504374306649,colour,0.5
173,20,0,2,6,18,268,352.1530480106594,352.7434603906004,"[79, 0, 175]",175,l,0.06713334750384092,colour,0.5
173,20,0,2,6,19,269,353.26256938581355,354.1194506168831,"[4, 0, 250]",250,a,0.3335758108878508,colour,0.5
173,20,0,2,6,20,270,354.6395678569097,355.1834552548826,"[69, 0, 185]",185,l,0.018782891100272536,colour,0.5
173,20,0,2,6,21,271,355.7039245928172,356.3594404399628,"[41, 0, 213]",213,a,0.13249950972385705,colour,0.5
173,20,0,2,6,22,272,356.87589097733144,357.5433746110648,"[59, 0, 195]",195,a,0.1441955427872017,colour,0.5
173,20,0,2,6,23,273,358.0634713709587,358.7274021235062,"[33, 0, 221]",221,a,0.14058004005346447,colour,0.5
173,20,0,2,6,24,274,359.2354416939197,359.90347671159543,"[24, 0, 230]",230,a,0.14547081489581615,colour,0.5
173,20,0,2,6,25,275,360.4230063338764,361.1434523561038,"[39, 0, 215]",215,a,0.19706577144097537,colour,0.5
173,20,0,2,6,26,276,361.6574953153031,362.31141648150515,"[16, 0, 238]",238,a,0.13057478610426188,colour,0.5
173,20,0,2,6,27,277,362.8294360997388,363.39144630357623,"[64, 0, 190]",190,a,0.03865003911778331,colour,0.5
173,20,0,2,6,28,278,363.9076947980793,364.6154715947341,"[12, 0, 242]",242,a,0.18452612101100385,colour,0.5
173,20,0,2,6,29,279,365.11642982112244,365.6954001983395,"[65, 0, 189]",189,a,0.0557326985290274,colour,0.5
173,20,0,2,6,30,280,366.21016507653985,366.7674845790025,"[6, 0, 248]",248,a,0.03392349788919091,colour,0.5
173,20,0,2,6,31,281,367.2782621642109,368.0154631664045,"[63, 0, 191]",191,a,0.21359980397392064,colour,0.5
173,20,0,2,6,32,282,368.5285246622516,369.26344372308813,"[18, 0, 236]",236,a,0.2115502314409241,colour,0.5
173,20,0,2,6,33,283,369.7786248959601,370.4714391040616,"[99, 0, 155]",155,l,0.16946034494321793,colour,0.5
173,20,0,2,6,34,284,370.98180945275817,371.6713862499455,"[58, 0, 196]",196,a,0.16620245401281863,colour,0.5
173,20,0,2,6,35,285,372.1850613572169,372.71152069303207,"[84, 0, 170]",170,l,0.0031298910034820437,colour,0.5
173,20,0,2,6,36,286,373.2338871853426,373.88736645679455,"[5, 0, 249]",249,a,0.13018212199676782,colour,0.5
173,20,0,2,6,37,287,374.40586577903014,375.07940636447165,"[68, 0, 186]",186,a,0.15024501143489033,colour,0.5
173,20,0,2,6,38,288,375.5934359327657,376.2474429573631,"[26, 0, 228]",228,a,0.1306181091349572,colour,0.5
173,20,0,2,6,39,289,376.76539010810666,377.34345542814117,"[19, 0, 235]",235,a,0.051564236637204885,colour,0.5
173,20,0,2,6,40,290,377.86230054683983,378.66337306716014,"[20, 0, 234]",234,a,0.27768281719181687,colour,0.5
173,20,0,2,6,41,291,379.1755870071938,379.70345119037665,"[92, 0, 162]",162,l,0.004629261326044798,colour,0.5
173,20,0,2,6,42,292,380.2224896871485,381.13540136418305,"[32, 0, 222]",222,a,0.38952079229056835,colour,0.5
173,20,0,2,6,43,293,381.6444637516979,382.5593773458386,"[90, 0, 164]",164,l,0.39166843239217997,colour,0.5
173,20,0,2,6,44,294,383.057510517654,383.84743957035244,"[97, 0, 157]",157,l,0.26647397119086236,colour,0.5
173,20,0,2,6,45,295,384.35523180570453,384.93546682130545,"[47, 0, 207]",207,a,0.05687130626756698,colour,0.5
173,20,0,2,6,46,296,385.44902259344235,386.3114160876721,"[53, 0, 201]",201,a,0.33901009266264737,colour,0.5
173,20,0,2,6,47,297,386.82409240247216,387.52738251001574,"[52, 0, 202]",202,a,0.1798523551551625,colour,0.5
173,20,0,2,6,48,298,388.0428685194347,388.6873822894413,"[75, 0, 179]",179,a,0.12103939009830356,colour,0.5
173,20,0,2,6,49,299,389.1993067529984,389.79139337071683,"[83, 0, 171]",171,l,0.06874181295279413,colour,0.5
173,20,0,2,6,50,300,390.30883364204783,390.84740609349683,"[50, 0, 204]",204,a,0.015174083760939538,colour,0.5
173,20,0,2,7,1,301,395.4333912549773,395.98340807214845,"[67, 0, 187]",187,a,0.02582366904243827,colour,0.5
173,20,0,2,7,2,302,396.4974919911474,397.2633657415863,"[78, 0, 176]",176,a,0.24358839029446244,colour,0.5
173,20,0,2,7,3,303,397.7781156535493,398.38337522547226,"[30, 0, 224]",224,a,0.08194036711938679,colour,0.5
173,20,0,2,7,4,304,398.90319786884356,399.47138987330254,"[5, 0, 249]",249,a,0.04491415340453386,colour,0.5
173,20,0,2,7,5,305,399.98437850771006,400.61540621635504,"[92, 0, 162]",162,l,0.10759586398489773,colour,0.5
173,20,0,2,7,6,306,401.12507788301446,401.7034291350283,"[7, 0, 247]",247,a,0.05491940735373646,colour,0.5
173,20,0,2,7,7,307,402.2189423197415,402.84740963811055,"[6, 0, 248]",248,a,0.10516307968646288,colour,0.5
173,20,0,2,7,8,308,403.3596097935224,404.07139396935236,"[83, 0, 171]",171,l,0.19728356809355319,colour,0.5
173,20,0,2,7,9,309,404.58519235032145,405.52740810997784,"[35, 0, 219]",219,a,0.4188256626948714,colour,0.5
173,20,0,2,7,10,310,406.0384432701394,406.79136028769426,"[57, 0, 197]",197,a,0.22958639124408364,colour,0.5
173,20,0,2,7,11,311,407.30420713766944,408.01539896964096,"[69, 0, 185]",185,a,0.1880671869730577,colour,0.5
173,20,0,2,7,12,312,408.52304626978,409.0794024260249,"[59, 0, 195]",195,a,0.03300544375088066,colour,0.5
173,20,0,2,7,13,313,409.6011301006656,410.6793931311695,"[40, 0, 214]",214,a,0.5548075551632792,colour,0.5
173,20,0,2,7,14,314,411.19510284496937,411.90334910561796,"[34, 0, 220]",220,a,0.1848478929605335,colour,0.5
173,20,0,2,7,15,315,412.407537653693,413.22337938437704,"[90, 0, 164]",164,l,0.29098652803804725,colour,0.5
173,20,0,2,7,16,316,413.7372888298705,414.48739575897343,"[21, 0, 233]",233,a,0.22697322559542954,colour,0.5
173,20,0,2,7,17,317,415.0029286360368,415.76735736685805,"[66, 0, 188]",188,a,0.2412631259066984,colour,0.5
173,20,0,2,7,18,318,416.2843065127963,416.9433586996747,"[47, 0, 207]",207,a,0.13576370209921151,colour,0.5
173,20,0,2,7,19,319,417.45629062026273,418.13536473654676,"[18, 0, 236]",236,a,0.15577736066188663,colour,0.5
173,20,0,2,7,20,320,418.6437890941743,419.19939221744426,"[99, 0, 155]",155,l,0.0322059370810166,colour,0.5
173,20,0,2,7,21,321,419.7064215739956,420.3833413546672,"[44, 0, 210]",210,a,0.15352732059545815,colour,0.5
173,20,0,2,7,22,322,420.89400511852,421.4953352926532,"[88, 0, 166]",166,l,0.07803656940814108,colour,0.5
173,20,0,2,7,23,323,422.00649096956477,422.5513425015379,"[9, 0, 245]",245,a,0.021410628920421004,colour,0.5
173,20,0,2,7,24,324,423.06910651398357,423.7913315369515,"[74, 0, 180]",180,l,0.19897040887735784,colour,0.5
173,20,0,2,7,25,325,424.3035805292893,425.0074074482545,"[33, 0, 221]",221,a,0.18959688325412571,colour,0.5
173,20,0,2,7,26,326,425.5140453221975,426.1833611257607,"[51, 0, 203]",203,a,0.14664329320657998,colour,0.5
173,20,0,2,7,27,327,426.7015914514195,427.91938177275006,"[63, 0, 191]",191,a,0.6933269951259717,colour,0.5
173,20,0,2,7,28,328,428.43607610045,429.16733239707537,"[10, 0, 244]",244,l,0.2079725379589945,colour,0.5
173,20,0,2,7,29,329,429.6861558542587,430.36736106907483,"[42, 0, 212]",212,a,0.15793602843768895,colour,0.5
173,20,0,2,7,30,330,430.87381934933364,432.03931839508004,"[17, 0, 237]",237,a,0.6421912624500692,colour,0.5
173,20,0,2,7,31,331,432.54579518618993,433.3673275921028,"[13, 0, 241]",241,a,0.29822974267881364,colour,0.5
173,20,0,2,7,32,332,433.8740209983662,434.6073134767357,"[72, 0, 182]",182,a,0.2083545682253316,colour,0.5
173,20,0,2,7,33,333,435.1258537588874,435.82336772663984,"[52, 0, 202]",202,a,0.17428731673862785,colour,0.5
173,20,0,2,7,34,334,436.3446093958337,436.99933085637167,"[23, 0, 231]",231,a,0.1314282496459782,colour,0.5
173,20,0,2,7,35,335,437.5165745987324,438.31932568911,"[95, 0, 159]",159,l,0.27947284549009055,colour,0.5
173,20,0,2,7,36,336,438.8291186601855,439.43934462522157,"[25, 0, 229]",229,a,0.0868370495736599,colour,0.5
173,20,0,2,7,37,337,439.95426546619274,440.6873921356164,"[82, 0, 172]",172,l,0.21001856587827206,colour,0.5
173,20,0,2,7,38,338,441.2049415021902,441.959346468444,"[91, 0, 163]",163,l,0.2310235338518396,colour,0.5
173,20,0,2,7,39,339,442.4706805574242,443.21530476177577,"[2, 0, 252]",252,a,0.22146371938288212,colour,0.5
173,20,0,2,7,40,340,443.73880789242685,444.5593273275299,"[93, 0, 161]",161,l,0.302574647590518,colour,0.5
173,20,0,2,7,41,341,445.0772827488836,445.9193376620533,"[71, 0, 183]",183,a,0.3187396468129009,colour,0.5
173,20,0,2,7,42,342,446.4373411325505,447.2233699321514,"[79, 0, 175]",175,l,0.26295811135787517,colour,0.5
173,20,0,2,7,43,343,447.7343212031992,449.00736333755776,"[53, 0, 201]",201,a,0.7497004803735763,colour,0.5
173,20,0,2,7,44,344,449.5157746983459,450.2233541783644,"[98, 0, 156]",156,l,0.18428705679252744,colour,0.5
173,20,0,2,7,45,345,450.73453624290414,451.2953310391167,"[16, 0, 238]",238,a,0.03746613918337971,colour,0.5
173,20,0,2,7,46,346,451.81257675075904,452.5353165298002,"[24, 0, 230]",230,a,0.1991677253972739,colour,0.5
173,20,0,2,7,47,347,453.04723863035906,453.63131245900877,"[29, 0, 225]",225,a,0.06074202083982527,colour,0.5
173,20,0,2,7,48,348,454.1410262671998,454.7753110789927,"[20, 0, 234]",234,a,0.11089156405068934,colour,0.5
173,20,0,2,7,49,349,455.28177447931375,455.87134363583755,"[12, 0, 242]",242,a,0.06619441951625049,colour,0.5
173,20,0,2,7,50,350,456.3912304760888,456.95938506524544,"[96, 0, 158]",158,l,0.04481726745143533,colour,0.5
173,20,0,2,8,1,351,461.5002099197591,462.62325871014036,"[27, 0, 227]",227,a,0.5989375620847568,colour,0.5
173,20,0,2,8,2,352,463.1418852445204,463.74334105534945,"[42, 0, 212]",212,a,0.09063450887333602,colour,0.5
173,20,0,2,8,3,353,464.25442544627003,464.8793068003142,"[96, 0, 158]",158,l,0.10145896172616631,colour,0.5
173,20,0,2,8,4,354,465.3951748398831,465.9353057384724,"[23, 0, 231]",231,a,0.016784124542027712,colour,0.5
173,20,0,2,8,5,355,466.4422035504831,467.079299238394,"[97, 0, 157]",157,l,0.11377766472287476,colour,0.5
173,20,0,2,8,6,356,467.59852363041136,468.2233112491667,"[53, 0, 201]",201,a,0.10206509009003639,colour,0.5
173,20,0,2,8,7,357,468.7391914980253,469.3513354911702,"[71, 0, 183]",183,a,0.08875901612918824,colour,0.5
173,20,0,2,8,8,358,469.86432609474286,470.4073072539177,"[55, 0, 199]",199,a,0.019710791180841625,colour,0.5
173,20,0,2,8,9,359,470.92674668563996,471.46329398290254,"[10, 0, 244]",244,a,0.013035108102485538,colour,0.5
173,20,0,2,8,10,360,471.97518733271863,472.5353007760132,"[75, 0, 179]",179,l,0.03752757899928838,colour,0.5
173,20,0,2,8,11,361,473.05343736638315,474.1593081866158,"[49, 0, 205]",205,a,0.5827036398695782,colour,0.5
173,20,0,2,8,12,362,474.67849673866294,475.4073033154709,"[64, 0, 190]",190,a,0.2054117537336424,colour,0.5
173,20,0,2,8,13,363,475.92859027697705,476.5272438763641,"[1, 0, 253]",253,a,0.07529343466740102,colour,0.5
173,20,0,2,8,14,364,477.0380726613803,477.7752657867968,"[85, 0, 169]",169,l,0.21377270226366818,colour,0.5
173,20,0,2,8,15,365,478.28818037814926,478.9353719045175,"[80, 0, 174]",174,l,0.12381363858003169,colour,0.5
173,20,0,2,8,16,366,479.44436064292677,480.06333588808775,"[94, 0, 160]",160,l,0.09486204769928008,colour,0.5
173,20,0,2,8,17,367,480.57020337402355,481.15929637127556,"[61, 0, 193]",193,a,0.06597425986547023,colour,0.5
173,20,0,2,8,18,368,481.67957626946736,482.247290539206,"[68, 0, 186]",186,a,0.04432850505691022,colour,0.5
173,20,0,2,8,19,369,482.7476442125626,484.57535408693366,"[60, 0, 194]",194,a,1.3100738618522882,colour,0.5
173,20,0,2,8,20,370,485.08576972794253,485.91124374081846,"[34, 0, 220]",220,a,0.3021745003061369,colour,0.5
173,20,0,2,8,21,371,486.43156578054186,487.1833130766172,"[28, 0, 226]",226,a,0.228523401892744,colour,0.5
173,20,0,2,8,22,372,487.697266632691,488.3192815784132,"[89, 0, 165]",165,l,0.09873630700167269,colour,0.5
173,20,0,2,8,23,373,488.83790968812536,489.57527610554826,"[8, 0, 246]",246,a,0.21394441893789917,colour,0.5
173,20,0,2,8,24,374,490.0880083463853,490.87926465878263,"[56, 0, 198]",198,a,0.2677665724186227,colour,0.5
173,20,0,2,8,25,375,491.40062645089347,492.1512666469207,"[67, 0, 187]",187,a,0.22721740987617522,colour,0.5
173,20,0,2,8,26,376,492.65392983099446,493.42323476437014,"[24, 0, 230]",230,a,0.24570924905128777,colour,0.5
173,20,0,2,8,27,377,493.93564602104016,494.5432592142606,"[18, 0, 236]",236,a,0.08454880653880537,colour,0.5
173,20,0,2,8,28,378,495.060665614903,495.7433438122971,"[38, 0, 216]",216,a,0.15960514615289867,colour,0.5
173,20,0,2,8,29,379,496.25680112303235,496.8793064063648,"[2, 0, 252]",252,a,0.09896788815967739,colour,0.5
173,20,0,2,8,30,380,497.3973914029775,498.2152571063489,"[79, 0, 175]",175,l,0.29436926799826324,colour,0.5
173,20,0,2,8,31,381,498.7259259901475,499.42327926889993,"[13, 0, 241]",241,a,0.17397893557790667,colour,0.5
173,20,0,2,8,32,382,499.9450219096616,500.5673019133974,"[81, 0, 173]",173,l,0.0994436537148431,colour,0.5
173,20,0,2,8,33,383,501.0855377529515,501.7432303847745,"[99, 0, 155]",155,l,0.1343675194075331,colour,0.5
173,20,0,2,8,34,384,502.25747971900273,502.90324001037516,"[74, 0, 180]",180,a,0.122305603697896,colour,0.5
173,20,0,2,8,35,385,503.4138419403462,503.95923697936814,"[4, 0, 250]",250,a,0.022022665129043162,colour,0.5
173,20,0,2,8,36,386,504.4762861619238,505.111242086743,"[37, 0, 217]",217,a,0.11149020947050303,colour,0.5
173,20,0,2,8,37,387,505.6327850477537,506.26320387108717,"[44, 0, 210]",210,a,0.10709646774921566,colour,0.5
173,20,0,2,8,38,388,506.77515747922007,507.3512267897604,"[51, 0, 203]",203,a,0.05264337360858917,colour,0.5
173,20,0,2,8,39,389,507.8575491933152,508.71922352549154,"[33, 0, 221]",221,a,0.3382980197202414,colour,0.5
173,20,0,2,8,40,390,509.23260679328814,509.823233819101,"[40, 0, 214]",214,a,0.06722668884322047,colour,0.5
173,20,0,2,8,41,391,510.3421250176616,511.11120939755347,"[57, 0, 197]",197,a,0.24566238140687346,colour,0.5
173,20,0,2,8,42,392,511.6234627221711,512.4232572135516,"[54, 0, 200]",200,a,0.27645520051009953,colour,0.5
173,20,0,2,8,43,393,512.9359146237839,513.5351912869373,"[30, 0, 224]",224,a,0.07595391373615712,colour,0.5
173,20,0,2,8,44,394,514.045491531142,514.7032129138242,"[43, 0, 211]",211,a,0.13411348906811327,colour,0.5
173,20,0,2,8,45,395,515.2176406600047,515.8071995766368,"[32, 0, 222]",222,a,0.06616566888988018,colour,0.5
173,20,0,2,8,46,396,516.3270793276606,517.0471976703266,"[7, 0, 247]",247,a,0.19667074421886355,colour,0.5
173,20,0,2,8,47,397,517.5615564936306,518.3112168018706,"[69, 0, 185]",185,a,0.22614457446616143,colour,0.5
173,20,0,2,8,48,398,518.8272049643565,519.4472014512867,"[50, 0, 204]",204,a,0.09654652536846697,colour,0.5
173,20,0,2,8,49,399,519.9680571517674,520.7112804473145,"[16, 0, 238]",238,a,0.2199111799709499,colour,0.5
173,20,0,2,8,50,400,521.218127453234,521.8312198265921,"[46, 0, 208]",208,a,0.08969833794981241,colour,0.5
173,20,0,2,9,1,401,526.2677866586018,527.135225315229,"[48, 0, 206]",206,a,0.34361139102838933,colour,0.5
173,20,0,2,9,2,402,527.6436670019757,528.3512102481909,"[99, 0, 155]",155,l,0.18595262977760285,colour,0.5
173,20,0,2,9,3,403,528.8626238940051,529.4072458141018,"[41, 0, 213]",213,a,0.021279084612615407,colour,0.5
173,20,0,2,9,4,404,529.9251925708959,530.5432863895549,"[91, 0, 163]",163,l,0.09471750631928444,colour,0.5
173,20,0,2,9,5,405,531.0503114138264,531.7352235034341,"[93, 0, 161]",161,l,0.1616098202066496,colour,0.5
173,20,0,2,9,6,406,532.2534853367833,532.879165803548,"[4, 0, 250]",250,a,0.10252825252246112,colour,0.5
173,20,0,2,9,7,407,533.3942075551022,534.1272704214789,"[72, 0, 182]",182,a,0.2097306647337973,colour,0.5
173,20,0,2,9,8,408,534.6448985572206,535.2152504110709,"[60, 0, 194]",194,a,0.04704407055396587,colour,0.5
173,20,0,2,9,9,409,535.724997302168,537.2072195052169,"[16, 0, 238]",238,a,0.9588624321622774,colour,0.5
173,20,0,2,9,10,410,537.7251115174731,538.4711602613097,"[11, 0, 243]",243,a,0.22263777302578092,colour,0.5
173,20,0,2,9,11,411,538.9911242953967,539.6632718488108,"[66, 0, 188]",188,a,0.14875273033976555,colour,0.5
173,20,0,2,9,12,412,540.1806522556581,540.7351927835261,"[98, 0, 156]",156,l,0.031213840004056692,colour,0.5
173,20,0,2,9,13,413,541.2431657940615,541.9672210175777,"[84, 0, 170]",170,l,0.20058084349147975,colour,0.5
173,20,0,2,9,14,414,542.4797078926349,543.1271900769789,"[38, 0, 216]",216,a,0.12418503488879651,colour,0.5
173,20,0,2,9,15,415,543.6359858310316,544.24718538241,"[18, 0, 236]",236,a,0.08786813740152866,colour,0.5
173,20,0,2,9,16,416,544.7487087772461,545.3992578373291,"[71, 0, 183]",183,l,0.1271912584779784,colour,0.5
173,20,0,2,9,17,417,545.920638927957,546.5431639036397,"[12, 0, 242]",242,a,0.0993692169431597,colour,0.5
173,20,0,2,9,18,418,547.0614154969808,547.6952115463791,"[40, 0, 214]",214,a,0.11059105989988893,colour,0.5
173,20,0,2,9,19,419,548.201910860138,549.15118315164,"[64, 0, 190]",190,a,0.4257207177579403,colour,0.5
173,20,0,2,9,20,420,549.6709522320889,550.3751710274955,"[89, 0, 165]",165,l,0.18115716567263007,colour,0.5
173,20,0,2,9,21,421,550.8887437349185,551.5351877423236,"[62, 0, 192]",192,a,0.12303539959248155,colour,0.5
173,20,0,2,9,22,422,552.0452217468992,552.6631414858857,"[45, 0, 209]",209,a,0.09451703890226781,colour,0.5
173,20,0,2,9,23,423,553.1595795461908,553.8711589222075,"[73, 0, 181]",181,a,0.1882235435768962,colour,0.5
173,20,0,2,9,24,424,554.3784620014485,554.991216061404,"[33, 0, 221]",221,a,0.08941043680533767,colour,0.5
173,20,0,2,9,25,425,555.5035359458998,556.079187780153,"[35, 0, 219]",219,a,0.052496469230391085,colour,0.5
173,20,0,2,9,26,426,556.5976898592198,557.1592506851302,"[27, 0, 227]",227,a,0.038265251903794706,colour,0.5
173,20,0,2,9,27,427,557.677511336864,558.327157309046,"[65, 0, 189]",189,a,0.12506685522384942,colour,0.5
173,20,0,2,9,28,428,558.8350361905759,559.7991942707449,"[51, 0, 203]",203,a,0.44141467777080834,colour,0.5
173,20,0,2,9,29,429,560.3195958671859,561.0311705170898,"[61, 0, 193]",193,a,0.1883850203594193,colour,0.5
173,20,0,2,9,30,430,561.5384298793506,562.1991472454974,"[23, 0, 231]",231,a,0.13758169335778803,colour,0.5
173,20,0,2,9,31,431,562.7104553406825,563.4151739261579,"[37, 0, 217]",217,a,0.18125838390551507,colour,0.5
173,20,0,2,9,32,432,563.929341734387,565.5431386975106,"[25, 0, 229]",229,a,1.0905451059807092,colour,0.5
173,20,0,2,9,33,433,566.0555176589405,566.663162359735,"[9, 0, 245]",245,a,0.08424712077248842,colour,0.5
173,20,0,2,9,34,434,567.1806719478918,567.7911444602069,"[58, 0, 196]",196,a,0.0871147105935961,colour,0.5
173,20,0,2,9,35,435,568.3056801202474,569.0311464924598,"[79, 0, 175]",175,l,0.2020471306750551,colour,0.5
173,20,0,2,9,36,436,569.5401820985135,570.1991346424911,"[68, 0, 186]",186,a,0.13562191766686738,colour,0.5
173,20,0,2,9,37,437,570.7121725075413,571.591133117443,"[97, 0, 157]",157,l,0.355650857440196,colour,0.5
173,20,0,2,9,38,438,572.0908487609122,573.0951341950567,"[44, 0, 210]",210,a,0.4808850970584899,colour,0.5
173,20,0,2,9,39,439,573.6065695023863,574.3991286560195,"[6, 0, 248]",248,a,0.26819153188262135,colour,0.5
173,20,0,2,9,40,440,574.9205507064471,575.7431839109631,"[1, 0, 253]",253,a,0.30209691275376827,colour,0.5
173,20,0,2,9,41,441,576.2507733159,576.8391384864226,"[13, 0, 241]",241,a,0.06498255662154406,colour,0.5
173,20,0,2,9,42,442,577.3601737804711,577.9751109266654,"[56, 0, 198]",198,a,0.09139738790690899,colour,0.5
173,20,0,2,9,43,443,578.4863934218884,579.079218893894,"[69, 0, 185]",185,a,0.06950193492230028,colour,0.5
173,20,0,2,9,44,444,579.5958545387257,580.5590855062474,"[49, 0, 205]",205,a,0.4399566611973569,colour,0.5
173,20,0,2,9,45,445,581.0803413538961,581.7751121870242,"[80, 0, 174]",174,l,0.17140121606644243,colour,0.5
173,20,0,2,9,46,446,582.2835932583548,582.8311410574242,"[22, 0, 232]",232,a,0.024208902032114565,colour,0.5
173,20,0,2,9,47,447,583.3460973445326,584.0231459127972,"[90, 0, 164]",164,l,0.1536029390990734,colour,0.5
173,20,0,2,9,48,448,584.5343732695328,585.1271357263904,"[7, 0, 247]",247,a,0.07002850656863302,colour,0.5
173,20,0,2,9,49,449,585.6431085289223,586.3352673779009,"[42, 0, 212]",212,a,0.1686978597426787,colour,0.5
173,20,0,2,9,50,450,586.8483509290963,587.4871334577911,"[92, 0, 162]",162,l,0.11546765617094934,colour,0.5
173,20,0,2,10,1,451,592.1135685327463,592.7031203600345,"[42, 0, 212]",212,a,0.06533229141496122,colour,0.5
173,20,0,2,10,2,452,593.2238134023501,593.8310874943854,"[85, 0, 169]",169,l,0.08390250580850989,colour,0.5
173,20,0,2,10,3,453,594.3488684422337,594.9191147453384,"[82, 0, 172]",172,l,0.04686014459002763,colour,0.5
173,20,0,2,10,4,454,595.4271740081022,596.3910997194471,"[15, 0, 239]",239,a,0.4405986296478659,colour,0.5
173,20,0,2,10,5,455,596.9116631863872,597.4711303290678,"[64, 0, 190]",190,a,0.03609673795290291,colour,0.5
173,20,0,2,10,6,456,597.9897730110679,599.0550946687581,"[4, 0, 250]",250,a,0.5419366806745529,colour,0.5
173,20,0,2,10,7,457,599.5596112902276,600.0951641272986,"[83, 0, 171]",171,a,0.012232450768351555,colour,0.5
173,20,0,2,10,8,458,600.606477736379,601.1911025551381,"[63, 0, 191]",191,a,0.06133357703220099,colour,0.5
173,20,0,2,10,9,459,601.700325631653,602.4390838993713,"[20, 0, 234]",234,a,0.2154032230610028,colour,0.5
173,20,0,2,10,10,460,602.9504782467848,603.5750945426989,"[11, 0, 243]",243,a,0.10128409427125007,colour,0.5
173,20,0,2,10,11,461,604.0930432686582,604.7031270554289,"[87, 0, 167]",167,l,0.08682641573250294,colour,0.5
173,20,0,2,10,12,462,605.2181081548333,605.7910881403368,"[98, 0, 156]",156,l,0.04962336539756507,colour,0.5
173,20,0,2,10,13,463,606.3119725915603,606.9671674545389,"[21, 0, 233]",233,a,0.1317937383428216,colour,0.5
173,20,0,2,10,14,464,607.4839480344672,608.2392080395948,"[37, 0, 217]",217,a,0.232092430931516,colour,0.5
173,20,0,2,10,15,465,608.7496717297472,609.3991534683155,"[76, 0, 178]",178,l,0.126140478416346,colour,0.5
173,20,0,2,10,16,466,609.9060331634246,610.5190782753052,"[81, 0, 173]",173,l,0.0896735256537795,colour,0.5
173,20,0,2,10,17,467,611.0312036001123,611.8471036200644,"[73, 0, 181]",181,a,0.2925591536331922,colour,0.5
173,20,0,2,10,18,468,612.3469961001538,613.007063621073,"[16, 0, 238]",238,a,0.13675973762292415,colour,0.5
173,20,0,2,10,19,469,613.518841574085,614.0710737728514,"[41, 0, 213]",213,a,0.028812957229092717,colour,0.5
173,20,0,2,10,20,470,614.5820088962791,615.1590769991744,"[46, 0, 208]",208,a,0.05369612283539027,colour,0.5
173,20,0,2,10,21,471,615.6758693945594,616.2471133086365,"[26, 0, 228]",228,a,0.04791131860110909,colour,0.5
173,20,0,2,10,22,472,616.7565715110395,617.5910941268085,"[18, 0, 236]",236,a,0.31124122021719813,colour,0.5
173,20,0,2,10,23,473,618.1003447724506,618.6950827587862,"[80, 0, 174]",174,l,0.07136797544080764,colour,0.5
173,20,0,2,10,24,474,619.209821643075,620.2230765171116,"[22, 0, 232]",232,a,0.49063435127027333,colour,0.5
173,20,0,2,10,25,475,620.7411686029518,621.2791577690514,"[52, 0, 202]",202,a,0.014622699818573892,colour,0.5
173,20,0,2,10,26,476,621.788064193679,622.6230389443226,"[97, 0, 157]",157,l,0.311613010475412,colour,0.5
173,20,0,2,10,27,477,623.132084790268,623.7670942780096,"[93, 0, 161]",161,l,0.11174935975577682,colour,0.5
173,20,0,2,10,28,478,624.2882997134002,625.0390915400349,"[90, 0, 164]",164,l,0.2274174834601581,colour,0.5
173,20,0,2,10,29,479,625.5540702763246,626.1990672948305,"[74, 0, 180]",180,a,0.12178690906148404,colour,0.5
173,20,0,2,10,30,480,626.7103631808423,627.4630966662662,"[86, 0, 168]",168,l,0.22926422546152025,colour,0.5
173,20,0,2,10,31,481,627.9637610838981,628.5591142569901,"[30, 0, 224]",224,a,0.07228366646450013,colour,0.5
173,20,0,2,10,32,482,629.0732166868402,629.7350659652147,"[32, 0, 222]",222,a,0.13844421529211104,colour,0.5
173,20,0,2,10,33,483,630.2452027635882,630.8150430119131,"[59, 0, 195]",195,a,0.046960969106294215,colour,0.5
173,20,0,2,10,34,484,631.3234425572446,631.8790834897663,"[70, 0, 184]",184,a,0.03263916727155447,colour,0.5
173,20,0,2,10,35,485,632.3859698802698,632.9990244444925,"[56, 0, 198]",198,a,0.0897459932602942,colour,0.5
173,20,0,2,10,36,486,633.5013040228514,634.1110703700688,"[60, 0, 194]",194,a,0.08638530864845961,colour,0.5
173,20,0,2,10,37,487,634.6264216842828,635.1910497797653,"[7, 0, 247]",247,a,0.04122539551462978,colour,0.5
173,20,0,2,10,38,488,635.7047504869988,636.3750721722608,"[34, 0, 220]",220,a,0.14705446804873645,colour,0.5
173,20,0,2,10,39,489,636.8930720982607,637.4790718320291,"[95, 0, 159]",159,l,0.06250763079151511,colour,0.5
173,20,0,2,10,40,490,637.9869782825699,638.575134714949,"[19, 0, 235]",235,a,0.06492820591665804,colour,0.5
173,20,0,2,10,41,491,639.0965406177565,639.7030959415715,"[75, 0, 179]",179,a,0.08320933755021542,colour,0.5
173,20,0,2,10,42,492,640.2214834116166,640.8071172628552,"[66, 0, 188]",188,a,0.06224926805589348,colour,0.5
173,20,0,2,10,43,493,641.3153892022092,641.8471095276764,"[13, 0, 241]",241,a,0.008209317922592163,colour,0.5
173,20,0,2,10,44,494,642.3575417102547,642.9590432072291,"[48, 0, 206]",206,a,0.07812203385401517,colour,0.5
173,20,0,2,10,45,495,643.4669941624161,644.0310295203235,"[49, 0, 205]",205,a,0.04065038089174777,colour,0.5
173,20,0,2,10,46,496,644.5452040238306,645.1511075332528,"[65, 0, 189]",189,a,0.08254413236863911,colour,0.5
173,20,0,2,10,47,497,645.672220021137,646.4310628396925,"[36, 0, 218]",218,a,0.23592730553355068,colour,0.5
173,20,0,2,10,48,498,646.9379732548259,647.5670266153757,"[5, 0, 249]",249,a,0.10568571276962757,colour,0.5
173,20,0,2,10,49,499,648.0786044948036,648.6390558575513,"[3, 0, 251]",251,a,0.03714830568060279,colour,0.5
173,20,0,2,10,50,500,649.1568308976712,649.7190466888715,"[6, 0, 248]",248,a,0.03887098643463105,colour,0.5
173,20,0,2,11,1,501,654.2064266939415,655.3350424920209,"[24, 0, 230]",230,a,0.6043690869119018,colour,0.5
173,20,0,2,11,2,502,655.848048849497,656.4390783855924,"[8, 0, 246]",246,a,0.0677347497548908,colour,0.5
173,20,0,2,11,3,503,656.9574524648488,657.623101171921,"[93, 0, 161]",161,l,0.1422152870800346,colour,0.5
173,20,0,2,11,4,504,658.1295125846518,658.8150067781098,"[67, 0, 187]",187,a,0.16180556151084602,colour,0.5
173,20,0,2,11,5,505,659.3332796391333,659.9830382511718,"[27, 0, 227]",227,a,0.12655874248594046,colour,0.5
173,20,0,2,11,6,506,660.4894941684324,661.1030753040686,"[42, 0, 212]",212,a,0.090298164752312,colour,0.5
173,20,0,2,11,7,507,661.6145208514063,662.3110088512767,"[72, 0, 182]",182,l,0.17349214234855026,colour,0.5
173,20,0,2,11,8,508,662.8177861466538,663.4550838773139,"[77, 0, 177]",177,l,0.11400648893322796,colour,0.5
173,20,0,2,11,9,509,663.974047543481,664.5590205218177,"[34, 0, 220]",220,a,0.06159390904940665,colour,0.5
173,20,0,2,11,10,510,665.0554893020308,665.6470473789377,"[18, 0, 236]",236,a,0.06823296449147165,colour,0.5
173,20,0,2,11,11,511,666.1649196988437,666.7510411308613,"[92, 0, 162]",162,l,0.06266871350817382,colour,0.5
173,20,0,2,11,12,512,667.2587931940798,667.831000060658,"[21, 0, 233]",233,a,0.04953159939032048,colour,0.5
173,20,0,2,11,13,513,668.336910895654,668.9510312060593,"[87, 0, 167]",167,l,0.09106576989870518,colour,0.5
173,20,0,2,11,14,514,669.4620955107966,670.0150275732158,"[26, 0, 228]",228,a,0.02785512467380613,colour,0.5
173,20,0,2,11,15,515,670.5263344867853,671.0950002875179,"[50, 0, 204]",204,a,0.04521465767174959,colour,0.5
173,20,0,2,11,16,516,671.6046471419977,672.1909926721128,"[33, 0, 221]",221,a,0.06344025710131973,colour,0.5
173,20,0,2,11,17,517,672.6985021263827,673.3109962482704,"[1, 0, 253]",253,a,0.08915522485040128,colour,0.5
173,20,0,2,11,18,518,673.823529597139,674.3830617243657,"[79, 0, 175]",175,l,0.037040785886347294,colour,0.5
173,20,0,2,11,19,519,674.9008383398177,675.478987942799,"[90, 0, 164]",164,a,0.05473823833744973,colour,0.5
173,20,0,2,11,20,520,675.9946716628037,676.598998608184,"[65, 0, 189]",189,a,0.08102940209209919,colour,0.5
173,20,0,2,11,21,521,677.1197412749752,677.678984713275,"[36, 0, 218]",218,a,0.035867913626134396,colour,0.5
173,20,0,2,11,22,522,678.197851493489,678.822992785601,"[70, 0, 184]",184,a,0.10155584767926484,colour,0.5
173,20,0,2,11,23,523,679.3386485424126,679.8950429016259,"[81, 0, 173]",173,l,0.043390364735387266,colour,0.5
173,20,0,2,11,24,524,680.4065294088796,680.9910037786467,"[89, 0, 165]",165,l,0.061137048061937094,colour,0.5
173,20,0,2,11,25,525,681.5003064118791,682.0550147180911,"[28, 0, 226]",226,a,0.031296941451728344,colour,0.5
173,20,0,2,11,26,526,682.5629282579757,683.1590187100228,"[22, 0, 232]",232,a,0.07271177659276873,colour,0.5
173,20,0,2,11,27,527,683.6723570793401,684.231002660119,"[30, 0, 224]",224,a,0.03524012374691665,colour,0.5
173,20,0,2,11,28,528,684.7506618575426,685.3189952526009,"[61, 0, 193]",193,a,0.04503506398759782,colour,0.5
173,20,0,2,11,29,529,685.8288126421394,686.4149864556966,"[58, 0, 196]",196,a,0.06285027647390962,colour,0.5
173,20,0,2,11,30,530,686.9226050052093,687.4470462760655,"[13, 0, 241]",241,a,0.0010669276816770434,colour,0.5
173,20,0,2,11,31,531,687.9695647928165,688.5110320094973,"[25, 0, 229]",229,a,0.018190547241829336,colour,0.5
173,20,0,2,11,32,532,689.0321771864546,690.0390651524067,"[6, 0, 248]",248,a,0.4835301643470302,colour,0.5
173,20,0,2,11,33,533,690.5478880817536,691.1429568983149,"[11, 0, 243]",243,a,0.07153851061593741,colour,0.5
173,20,0,2,11,34,534,691.6575638443464,692.2469754626509,"[97, 0, 157]",157,l,0.06604515202343464,colour,0.5
173,20,0,2,11,35,535,692.7670422904193,693.5109890802996,"[31, 0, 223]",223,a,0.22053384990431368,colour,0.5
173,20,0,2,11,36,536,694.009617316071,694.6310509456089,"[29, 0, 225]",225,a,0.09842201822903007,colour,0.5
173,20,0,2,11,37,537,695.150276912842,695.7830194253474,"[85, 0, 169]",169,l,0.10935792932286859,colour,0.5
173,20,0,2,11,38,538,696.2927915225737,696.854998255265,"[39, 0, 215]",215,a,0.03885090025141835,colour,0.5
173,20,0,2,11,39,539,697.3709694825811,698.0149409271544,"[78, 0, 176]",176,l,0.12069123052060604,colour,0.5
173,20,0,2,11,40,540,698.5273364300374,699.1909769183258,"[48, 0, 206]",206,a,0.13919212808832526,colour,0.5
173,20,0,2,11,41,541,699.7004985298263,700.7110059368424,"[86, 0, 168]",168,l,0.48723506985697895,colour,0.5
173,20,0,2,11,42,542,701.2317647513701,701.8790279575624,"[76, 0, 178]",178,a,0.12384278315585107,colour,0.5
173,20,0,2,11,43,543,702.3881691142451,703.206956022419,"[96, 0, 158]",158,l,0.2954212296754122,colour,0.5
173,20,0,2,11,44,544,703.71644494473,704.4229626170127,"[55, 0, 199]",199,a,0.18610071577131748,colour,0.5
173,20,0,2,11,45,545,704.9323503209744,705.5270315936068,"[32, 0, 222]",222,a,0.07129393250215799,colour,0.5
173,20,0,2,11,46,546,706.0418831177521,706.6949299466796,"[4, 0, 250]",250,a,0.1296748488675803,colour,0.5
173,20,0,2,11,47,547,707.2137876683846,707.8229636410251,"[83, 0, 171]",171,l,0.08575318637304008,colour,0.5
173,20,0,2,11,48,548,708.3395988919074,708.9349871173035,"[71, 0, 183]",183,a,0.07208083593286574,colour,0.5
173,20,0,2,11,49,549,709.4490186549956,709.9829614511691,"[20, 0, 234]",234,a,0.010881560272537172,colour,0.5
173,20,0,2,11,50,550,710.4960103440098,711.118977608392,"[54, 0, 200]",200,a,0.09967523498926312,colour,0.5
173,20,0,2,12,1,551,715.651824332308,716.3590280836215,"[11, 0, 243]",243,a,0.18314490444026887,colour,0.5
173,20,0,2,12,2,552,716.8715488293674,717.470900323242,"[60, 0, 194]",194,a,0.07609451666940004,colour,0.5
173,20,0,2,12,3,553,717.9809386602137,718.7189462581882,"[62, 0, 192]",192,a,0.2123950303066522,colour,0.5
173,20,0,2,12,4,554,719.233363764477,720.7749294425594,"[16, 0, 238]",238,a,1.0183937714900821,colour,0.5
173,20,0,2,12,5,555,721.2965728342533,721.9669756516814,"[29, 0, 225]",225,a,0.1470521049341187,colour,0.5
173,20,0,2,12,6,556,722.4841642556712,723.1189468883676,"[94, 0, 160]",160,l,0.11179071362130344,colour,0.5
173,20,0,2,12,7,557,723.6248864741065,724.6069822525606,"[78, 0, 176]",176,l,0.45874349074438214,colour,0.5
173,20,0,2,12,8,558,725.1249876923393,725.7429558744188,"[98, 0, 156]",156,l,0.09457099589053541,colour,0.5
173,20,0,2,12,9,559,726.2500805414747,726.9109381166054,"[47, 0, 207]",207,a,0.14676026534289122,colour,0.5
173,20,0,2,12,10,560,727.429172774544,728.030925938976,"[26, 0, 228]",228,a,0.07860291935503483,colour,0.5
173,20,0,2,12,11,561,728.5385960822459,729.1668924714904,"[3, 0, 251]",251,a,0.10516111040487885,colour,0.5
173,20,0,2,12,12,562,729.6792615867453,730.254920904059,"[64, 0, 190]",190,a,0.052304666372947395,colour,0.5
173,20,0,2,12,13,563,730.7732217280427,731.3510034793289,"[20, 0, 234]",234,a,0.05450114340055734,colour,0.5
173,20,0,2,12,14,564,731.8670144849457,732.4549097976414,"[49, 0, 205]",205,a,0.06455365871079266,colour,0.5
173,20,0,2,12,15,565,732.9751814249903,733.6229432397522,"[0, 0, 254]",254,a,0.12434887466952205,colour,0.5
173,20,0,2,12,16,566,734.1315168648725,734.7109409522964,"[43, 0, 211]",211,a,0.05599027348216623,colour,0.5
173,20,0,2,12,17,567,735.2129401126876,735.8549253938254,"[67, 0, 187]",187,a,0.11860227340366691,colour,0.5
173,20,0,2,12,18,568,736.3692416818812,737.1349228417967,"[81, 0, 173]",173,l,0.24307954183313996,colour,0.5
173,20,0,2,12,19,569,737.6506144385785,738.2229615142569,"[91, 0, 163]",163,l,0.04896209866274148,colour,0.5
173,20,0,2,12,20,570,738.7444690292468,739.3589217453264,"[36, 0, 218]",218,a,0.09113666205666959,colour,0.5
173,20,0,2,12,21,571,739.8701349237235,740.5509096652968,"[68, 0, 186]",186,a,0.15764537046197802,colour,0.5
173,20,0,2,12,22,572,741.0576629359275,741.5830458917189,"[42, 0, 212]",212,a,0.0019538680789992213,colour,0.5
173,20,0,2,12,23,573,742.1065198777942,743.1349118141225,"[13, 0, 241]",241,a,0.5051085714949295,colour,0.5
173,20,0,2,12,24,574,743.6535351976054,744.2469734934857,"[33, 0, 221]",221,a,0.07035067223478109,colour,0.5
173,20,0,2,12,25,575,744.7630790220574,745.422894481686,"[82, 0, 172]",172,l,0.13654587941709906,colour,0.5
173,20,0,2,12,26,576,745.9349107112503,746.5269114706898,"[22, 0, 232]",232,a,0.06874456990044564,colour,0.5
173,20,0,2,12,27,577,747.044362769695,747.8229085026542,"[71, 0, 183]",183,a,0.2551914759678766,colour,0.5
173,20,0,2,12,28,578,748.3413235418266,748.9749104592483,"[38, 0, 216]",216,a,0.11010781128425151,colour,0.5
173,20,0,2,12,29,579,749.4820611202158,750.0548800228862,"[79, 0, 175]",175,l,0.04940675036050379,colour,0.5
173,20,0,2,12,30,580,750.5759330400033,751.2229741172632,"[9, 0, 245]",245,a,0.1237191156251356,colour,0.5
173,20,0,2,12,31,581,751.732266510604,752.4629028942436,"[75, 0, 179]",179,l,0.20751370780635625,colour,0.5
173,20,0,2,12,32,582,752.9823143628892,753.6229148829589,"[6, 0, 248]",248,a,0.11722460156306624,colour,0.5
173,20,0,2,12,33,583,754.138698639581,754.7589460061863,"[53, 0, 201]",201,a,0.09686790336854756,colour,0.5
173,20,0,2,12,34,584,755.275597798638,755.8709927194286,"[87, 0, 167]",167,l,0.07249437388963997,colour,0.5
173,20,0,2,12,35,585,756.3847280851332,757.3428760812385,"[88, 0, 166]",166,l,0.43479413294699043,colour,0.5
173,20,0,2,12,36,586,757.8535414204234,758.4868936057901,"[40, 0, 214]",214,a,0.12157265702262521,colour,0.5
173,20,0,2,12,37,587,758.992905659019,759.630876078154,"[27, 0, 227]",227,l,0.11465554661117494,colour,0.5
173,20,0,2,12,38,588,760.1492639420321,761.3189531111857,"[69, 0, 185]",185,a,0.6589675100985914,colour,0.5
173,20,0,2,12,39,589,761.8401077404851,762.5188967124559,"[95, 0, 159]",159,l,0.15545952727552503,colour,0.5
173,20,0,2,12,40,590,763.0276924665086,763.7029328895733,"[25, 0, 229]",229,a,0.15194642439018935,colour,0.5
173,20,0,2,12,41,591,764.2152567125158,764.8948869387386,"[63, 0, 191]",191,a,0.1551499644992873,colour,0.5
173,20,0,2,12,42,592,765.4040761445649,766.5028608945431,"[32, 0, 222]",222,a,0.5757168186828494,colour,0.5
173,20,0,2,12,43,593,767.0135821597651,767.6548577311914,"[48, 0, 206]",206,a,0.11800874804612249,colour,0.5
173,20,0,2,12,44,594,768.1574508106569,768.8708584180567,"[84, 0, 170]",170,l,0.18996276578400284,colour,0.5
173,20,0,2,12,45,595,769.3781441680621,769.9988972323481,"[55, 0, 199]",199,a,0.09735902887769043,colour,0.5
173,20,0,2,12,46,596,770.5188655985985,771.3589252899401,"[57, 0, 197]",197,a,0.31669558805879205,colour,0.5
173,20,0,2,12,47,597,771.8783698416082,772.5988587930333,"[90, 0, 164]",164,l,0.1971551744500175,colour,0.5
173,20,0,2,12,48,598,773.1003093264299,773.7428365391679,"[1, 0, 253]",253,a,0.11907331284601241,colour,0.5
173,20,0,2,12,49,599,774.2567420460982,774.8788349732058,"[96, 0, 158]",158,l,0.09858703950885683,colour,0.5
173,20,0,2,12,50,600,775.3981972110923,776.1508594105253,"[17, 0, 237]",237,a,0.22924138244707137,colour,0.5
173,20,0,2,13,1,601,780.5227705779253,781.2788580525666,"[13, 0, 241]",241,a,0.2309904508292675,colour,0.5
173,20,0,2,13,2,602,781.7902098646155,782.4708428217564,"[36, 0, 218]",218,a,0.1572964231017977,colour,0.5
173,20,0,2,13,3,603,782.9778379136696,783.7668162230402,"[29, 0, 225]",225,a,0.26567761530168355,colour,0.5
173,20,0,2,13,4,604,784.2747754489537,784.8708481780486,"[51, 0, 203]",203,a,0.07094065297860652,colour,0.5
173,20,0,2,13,5,605,785.3859694864368,785.9348343053134,"[24, 0, 230]",230,a,0.025530254119075835,colour,0.5
173,20,0,2,13,6,606,786.4485653386218,786.9828602329362,"[53, 0, 201]",201,a,0.010937486542388797,colour,0.5
173,20,0,2,13,7,607,787.4955530893058,788.9028544354951,"[34, 0, 220]",220,a,0.8843606270384043,colour,0.5
173,20,0,2,13,8,608,789.4174172708299,790.0789002728416,"[80, 0, 174]",174,l,0.13826619717292488,colour,0.5
173,20,0,2,13,9,609,790.5895388304489,791.3348695938475,"[2, 0, 252]",252,a,0.2221387707395479,colour,0.5
173,20,0,2,13,10,610,791.855263707228,792.5348226474598,"[12, 0, 242]",242,a,0.15621019701939076,colour,0.5
173,20,0,2,13,11,611,793.0428976640105,793.6391125713708,"[19, 0, 235]",235,a,0.07291066867765039,colour,0.5
173,20,0,2,13,12,612,794.1523174269823,795.062875482603,"[22, 0, 232]",232,a,0.3875507765915245,colour,0.5
173,20,0,2,13,13,613,795.5663736193674,796.2308553617913,"[95, 0, 159]",159,l,0.14101130096241832,colour,0.5
173,20,0,2,13,14,614,796.7383675730089,797.366836072877,"[27, 0, 227]",227,a,0.10508903674781322,colour,0.5
173,20,0,2,13,15,615,797.8790677359793,798.6628500401275,"[73, 0, 181]",181,l,0.26038629945833236,colour,0.5
173,20,0,2,13,16,616,799.1761309080757,799.8548533201683,"[65, 0, 189]",189,l,0.15546976728364825,colour,0.5
173,20,0,2,13,17,617,800.3636474987725,801.0068123475648,"[94, 0, 160]",160,l,0.11978499183896929,colour,0.5
173,20,0,2,13,18,618,801.5219419266796,802.1668396962341,"[69, 0, 185]",185,a,0.12156950624193996,colour,0.5
173,20,0,2,13,19,619,802.678176542162,803.6308150320547,"[20, 0, 234]",234,a,0.4292397283716127,colour,0.5
173,20,0,2,13,20,620,804.1371500387322,804.7668922352605,"[66, 0, 188]",188,a,0.10666520684026182,colour,0.5
173,20,0,2,13,21,621,805.2655031417962,805.99880664784,"[72, 0, 182]",182,a,0.21005637501366436,colour,0.5
173,20,0,2,13,22,622,806.5155403601239,807.0788699467666,"[56, 0, 198]",198,a,0.03999029565602541,colour,0.5
173,20,0,2,13,23,623,807.5936131633352,808.1508369613439,"[92, 0, 162]",162,l,0.03376320272218436,colour,0.5
173,20,0,2,13,24,624,808.6719348769402,809.230882931035,"[75, 0, 179]",179,a,0.03448866633698344,colour,0.5
173,20,0,2,13,25,625,809.7512065460905,810.3588929945836,"[54, 0, 200]",200,a,0.09350840037222952,colour,0.5
173,20,0,2,13,26,626,810.8575165041257,811.4548239392461,"[98, 0, 156]",156,l,0.07390473503619432,colour,0.5
173,20,0,2,13,27,627,811.9669807717437,812.5428515840322,"[42, 0, 212]",212,a,0.052535459864884615,colour,0.5
173,20,0,2,13,28,628,813.0607932208804,813.6308378750691,"[74, 0, 180]",180,a,0.04674356628675014,colour,0.5
173,20,0,2,13,29,629,814.1389892976731,814.6948787467554,"[21, 0, 233]",233,a,0.03245878603775054,colour,0.5
173,20,0,2,13,30,630,815.2016458021244,815.830833464046,"[59, 0, 195]",195,a,0.10594446933828294,colour,0.5
173,20,0,2,13,31,631,816.3423097312916,816.9348008283414,"[44, 0, 210]",210,a,0.06913999083917588,colour,0.5
173,20,0,2,13,32,632,817.451787783415,817.9987979832804,"[18, 0, 236]",236,a,0.0236681520473212,colour,0.5
173,20,0,2,13,33,633,818.5143749710405,820.0308156622341,"[16, 0, 238]",238,a,0.9931088833836839,colour,0.5
173,20,0,2,13,34,634,820.5457542261574,821.1028090644395,"[39, 0, 215]",215,a,0.03369231044780463,colour,0.5
173,20,0,2,13,35,635,821.6239211584907,822.2068229026627,"[93, 0, 161]",161,l,0.059574268641881645,colour,0.5
173,20,0,2,13,36,636,822.717797016725,823.2867841954576,"[70, 0, 184]",184,a,0.04562071245163679,colour,0.5
173,20,0,2,13,37,637,823.7959848227911,824.3428548135562,"[38, 0, 216]",216,a,0.023456656839698553,colour,0.5
173,20,0,2,13,38,638,824.8585401088931,825.4388097828487,"[35, 0, 219]",219,a,0.05680592788849026,colour,0.5
173,20,0,2,13,39,639,825.9524455056526,826.5348167397315,"[85, 0, 169]",169,l,0.059059118619188666,colour,0.5
173,20,0,2,13,40,640,827.0462729209103,828.8388186837547,"[91, 0, 163]",163,l,1.269191112020053,colour,0.5
173,20,0,2,13,41,641,829.3482438031351,829.9588163521839,"[96, 0, 158]",158,l,0.08715251984540373,colour,0.5
173,20,0,2,13,42,642,830.4733000245178,831.0948175431695,"[89, 0, 165]",165,l,0.098143175477162,colour,0.5
173,20,0,2,13,43,643,831.614043904352,832.1588883472141,"[33, 0, 221]",221,a,0.021848585340194404,colour,0.5
173,20,0,2,13,44,644,832.676519239787,833.6147937864298,"[8, 0, 246]",246,a,0.4147489668102935,colour,0.5
173,20,0,2,13,45,645,834.1298635010608,834.7347855471307,"[11, 0, 243]",243,a,0.0816071736626327,colour,0.5
173,20,0,2,13,46,646,835.2550134577323,835.8467940574046,"[43, 0, 211]",211,a,0.0684834502171725,colour,0.5
173,20,0,2,13,47,647,836.3644529130543,837.0067524830811,"[7, 0, 247]",247,a,0.11903353442903608,colour,0.5
173,20,0,2,13,48,648,837.5207190361107,838.0468310001306,"[28, 0, 226]",226,a,0.0030129189835861325,colour,0.5
173,20,0,2,13,49,649,838.5677146635717,839.3428201552015,"[58, 0, 196]",196,a,0.25208718481007963,colour,0.5
173,20,0,2,13,50,650,839.8490708788158,840.4387983613415,"[71, 0, 183]",183,a,0.06631257326807827,colour,0.5
173,20,0,2,14,1,651,844.8173702456988,845.470755781862,"[5, 0, 249]",249,a,0.12918766192160547,colour,0.5
173,20,0,2,14,2,652,845.9901290475391,846.9027851186693,"[10, 0, 244]",244,a,0.3893569525098428,colour,0.5
173,20,0,2,14,3,653,847.4027500663651,848.0627947442699,"[76, 0, 178]",178,l,0.13678573141805828,colour,0.5
173,20,0,2,14,4,654,848.5753328192513,849.1588009134866,"[43, 0, 211]",211,a,0.058470319490879774,colour,0.5
173,20,0,2,14,5,655,849.6705879248912,850.2388027723646,"[28, 0, 226]",226,a,0.04493975336663425,colour,0.5
173,20,0,2,14,6,656,850.749019127572,851.8228037396912,"[0, 0, 254]",254,a,0.550548902596347,colour,0.5
173,20,0,2,14,7,657,852.3428941981401,853.0147648782004,"[92, 0, 162]",162,l,0.14854084141552448,colour,0.5
173,20,0,2,14,8,658,853.5304426903604,854.0707673609722,"[21, 0, 233]",233,a,0.016971595119684935,colour,0.5
173,20,0,2,14,9,659,854.5664047331084,855.2628147515934,"[50, 0, 204]",204,a,0.17308726906776428,colour,0.5
173,20,0,2,14,10,660,855.7696125268703,856.3667848729528,"[1, 0, 253]",253,a,0.07398311037104577,colour,0.5
173,20,0,2,14,11,661,856.8791047574487,857.4867758459877,"[85, 0, 169]",169,l,0.08388911513611674,colour,0.5
173,20,0,2,14,12,662,858.0045374953188,858.5348486412549,"[59, 0, 195]",195,a,0.006785172154195607,colour,0.5
173,20,0,2,14,13,663,859.0515268213348,859.7107310326537,"[69, 0, 185]",185,a,0.1359161203727126,colour,0.5
173,20,0,2,14,14,664,860.2254907907918,860.8467641251627,"[3, 0, 251]",251,a,0.09803329256828874,colour,0.5
173,20,0,2,14,15,665,861.3660149046918,861.9507566955872,"[29, 0, 225]",225,a,0.06134460458997637,colour,0.5
173,20,0,2,14,16,666,862.4574753078632,863.1027499876218,"[24, 0, 230]",230,a,0.12186173966620117,colour,0.5
173,20,0,2,14,17,667,863.6138509199955,864.5267476309091,"[42, 0, 212]",212,a,0.3898701333673671,colour,0.5
173,20,0,2,14,18,668,865.0357966276351,865.7107861710247,"[80, 0, 174]",174,l,0.1516207141103223,colour,0.5
173,20,0,2,14,19,669,866.2234412181424,866.9667042921064,"[67, 0, 187]",187,a,0.21988676150795072,colour,0.5
173,20,0,2,14,20,670,867.4734441720648,868.230737995822,"[81, 0, 173]",173,l,0.23375761008355767,colour,0.5
173,20,0,2,14,21,671,868.7392470302293,869.6306956968037,"[60, 0, 194]",194,a,0.36806447722483426,colour,0.5
173,20,0,2,14,22,672,870.145522408653,870.9509173845872,"[55, 0, 199]",199,a,0.28221637406386435,colour,0.5
173,20,0,2,14,23,673,871.4581653254572,872.1028472675243,"[49, 0, 205]",205,a,0.12126270052976906,colour,0.5
173,20,0,2,14,24,674,872.6145669313846,873.206899308716,"[56, 0, 198]",198,a,0.06884263746906072,colour,0.5
173,20,0,2,14,25,675,873.7239217098104,874.3027625118848,"[88, 0, 166]",166,l,0.05536405905149877,colour,0.5
173,20,0,2,14,26,676,874.8178074142197,875.3747819080018,"[18, 0, 236]",236,a,0.03350995993241668,colour,0.5
173,20,0,2,14,27,677,875.8960763525683,876.5187340541743,"[44, 0, 210]",210,a,0.0993152599548921,colour,0.5
173,20,0,2,14,28,678,877.0368761584396,877.5747121185996,"[52, 0, 202]",202,a,0.014730219729244709,colour,0.5
173,20,0,2,14,29,679,878.0837760814466,878.7108519432368,"[84, 0, 170]",170,l,0.10404613346327096,colour,0.5
173,20,0,2,14,30,680,879.2245128720533,879.9747273210669,"[8, 0, 246]",246,a,0.22681450587697327,colour,0.5
173,20,0,2,14,31,681,880.4902030904777,881.1748134944355,"[95, 0, 159]",159,a,0.16124078689608723,colour,0.5
173,20,0,2,14,32,682,881.6934195487993,882.3427350844722,"[90, 0, 164]",164,l,0.12579665111843497,colour,0.5
173,20,0,2,14,33,683,882.8498219423927,883.4307288585696,"[89, 0, 165]",165,l,0.057664905092678964,colour,0.5
173,20,0,2,14,34,684,883.9435890993336,884.5587330145063,"[33, 0, 221]",221,a,0.09160927683115005,colour,0.5
173,20,0,2,14,35,685,885.0594478442799,885.6467126101488,"[98, 0, 156]",156,l,0.06395343807525933,colour,0.5
173,20,0,2,14,36,686,886.1532118504401,886.7187134955311,"[77, 0, 177]",177,a,0.0421257265843451,colour,0.5
173,20,0,2,14,37,687,887.2313866595505,887.8066891527269,"[57, 0, 197]",197,l,0.0518793131923303,colour,0.5
173,20,0,2,14,38,688,888.3253290777793,888.9027138325619,"[19, 0, 235]",235,a,0.05396472557913512,colour,0.5
173,20,0,2,14,39,689,889.4191226223484,890.438694779994,"[45, 0, 209]",209,a,0.49630415288265795,colour,0.5
173,20,0,2,14,40,690,890.9504727328895,891.60667741613,"[61, 0, 193]",193,a,0.13288508460391313,colour,0.5
173,20,0,2,14,41,691,892.1224375420716,892.7427286254242,"[40, 0, 214]",214,a,0.0969124078983441,colour,0.5
173,20,0,2,14,42,692,893.2632054464193,893.9907840127125,"[14, 0, 240]",240,a,0.2042664507171139,colour,0.5
173,20,0,2,14,43,693,894.4976440155879,895.0947403494501,"[20, 0, 234]",234,a,0.07446596503723413,colour,0.5
173,20,0,2,14,44,694,895.6071114339866,896.1507644937374,"[37, 0, 217]",217,a,0.020584734622389078,colour,0.5
173,20,0,2,14,45,695,896.6603825974744,897.2067224719794,"[7, 0, 247]",247,a,0.023600410553626716,colour,0.5
173,20,0,2,14,46,696,897.7231466217199,898.3907625875436,"[71, 0, 183]",183,l,0.1443582009524107,colour,0.5
173,20,0,2,14,47,697,898.9105962587055,899.5506938378094,"[17, 0, 237]",237,a,0.11674489744473249,colour,0.5
173,20,0,2,14,48,698,900.0638726997422,900.7186890770681,"[87, 0, 167]",167,l,0.12969060277100652,colour,0.5
173,20,0,2,14,49,699,901.2375420726603,901.8546410372946,"[30, 0, 224]",224,a,0.09375534148421139,colour,0.5
173,20,0,2,14,50,700,902.3575074457331,902.9987487525214,"[70, 0, 184]",184,l,0.11787641595583409,colour,0.5
173,20,0,2,15,1,701,907.454613231821,908.086722834385,"[18, 0, 236]",236,a,0.10808108176570386,colour,0.5
173,20,0,2,15,2,702,908.5961243229685,909.3587173394626,"[87, 0, 167]",167,l,0.2392596333520487,colour,0.5
173,20,0,2,15,3,703,909.877908648341,910.4786976786563,"[20, 0, 234]",234,a,0.08257603389210999,colour,0.5
173,20,0,2,15,4,704,910.9976294433,911.5987047994277,"[32, 0, 222]",222,a,0.0776758068241179,colour,0.5
173,20,0,2,15,5,705,912.107093710918,912.6866792750079,"[17, 0, 237]",237,a,0.05607298109680414,colour,0.5
173,20,0,2,15,6,706,913.2009794153273,913.934666920919,"[14, 0, 240]",240,a,0.21032734087202698,colour,0.5
173,20,0,2,15,7,707,914.4510059999302,915.07881795906,"[68, 0, 186]",186,l,0.10444431134965271,colour,0.5
173,20,0,2,15,8,708,915.59178335662,916.142694991082,"[82, 0, 172]",172,l,0.02753492828924209,colour,0.5
173,20,0,2,15,9,709,916.6543413995532,917.4946310967207,"[2, 0, 252]",252,a,0.3169980614911765,colour,0.5
173,20,0,2,15,10,710,918.0137901102426,918.6146921742475,"[35, 0, 219]",219,a,0.07752929616253823,colour,0.5
173,20,0,2,15,11,711,919.1232260209508,919.8786250535632,"[56, 0, 198]",198,a,0.23193804337643087,colour,0.5
173,20,0,2,15,12,712,920.3890056422679,921.1587237197673,"[69, 0, 185]",185,a,0.24641620193142444,colour,0.5
173,20,0,2,15,13,713,921.6596736753127,922.3106756579364,"[43, 0, 211]",211,a,0.12761424866039306,colour,0.5
173,20,0,2,15,14,714,922.831585709122,923.5107511975802,"[67, 0, 187]",187,a,0.15583564981352538,colour,0.5
173,20,0,2,15,15,715,924.0205110856332,924.6466732255649,"[23, 0, 231]",231,a,0.10318085469771177,colour,0.5
173,20,0,2,15,16,716,925.1574736537877,925.686689121183,"[51, 0, 203]",203,a,0.005814342759549618,colour,0.5
173,20,0,2,15,17,717,926.2044196567731,926.8466932328884,"[83, 0, 171]",171,l,0.11906543583609164,colour,0.5
173,20,0,2,15,18,718,927.3609508378431,927.9266687042546,"[19, 0, 235]",235,a,0.04253059986513108,colour,0.5
173,20,0,2,15,19,719,928.4391807854408,928.9986518665683,"[95, 0, 159]",159,l,0.03613454720471054,colour,0.5
173,20,0,2,15,20,720,929.517393797636,930.0626568982843,"[13, 0, 241]",241,a,0.021921840496361256,colour,0.5
173,20,0,2,15,21,721,930.5798730715178,931.1108450903557,"[59, 0, 195]",195,a,0.0076295771868899465,colour,0.5
173,20,0,2,15,22,722,931.6425827450585,932.1746441408759,"[85, 0, 169]",169,l,0.008718560333363712,colour,0.5
173,20,0,2,15,23,723,932.6894326496404,933.2866865218384,"[9, 0, 245]",245,a,0.0738263598177582,colour,0.5
173,20,0,2,15,24,724,933.8004175551469,934.390633800067,"[45, 0, 209]",209,a,0.06674186501186341,colour,0.5
173,20,0,2,15,25,725,934.9098227459472,935.9186338599538,"[98, 0, 156]",156,l,0.4855966721661389,colour,0.5
173,20,0,2,15,26,726,936.4257018131902,937.110632413649,"[10, 0, 244]",244,a,0.16161100182216614,colour,0.5
173,20,0,2,15,27,727,937.6289174838457,938.286655801814,"[8, 0, 246]",246,a,0.1346999250818044,colour,0.5
173,20,0,2,15,28,728,938.8008779606316,939.3906570369145,"[58, 0, 196]",196,a,0.06643545301631093,colour,0.5
173,20,0,2,15,29,729,939.9102536130231,940.6866225613048,"[34, 0, 220]",220,a,0.25296191591769457,colour,0.5
173,20,0,2,15,30,730,941.2072844896466,941.8306562334765,"[42, 0, 212]",212,a,0.09998952364549041,colour,0.5
173,20,0,2,15,31,731,942.3480153726414,943.0785808640067,"[73, 0, 181]",181,l,0.2062411926453933,colour,0.5
173,20,0,2,15,32,732,943.599158509518,944.1506613062229,"[79, 0, 175]",175,l,0.028191468794830143,colour,0.5
173,20,0,2,15,33,733,944.6616929217707,945.2146529472666,"[38, 0, 216]",216,a,0.02952818083576858,colour,0.5
173,20,0,2,15,34,734,945.7249756406527,946.7186378771439,"[97, 0, 157]",157,l,0.4703107363311574,colour,0.5
173,20,0,2,15,35,735,947.2250741020544,947.926636408898,"[90, 0, 164]",164,l,0.17808989610057324,colour,0.5
173,20,0,2,15,36,736,948.4438647913048,949.0386291652685,"[60, 0, 194]",194,a,0.07131401868537068,colour,0.5
173,20,0,2,15,37,737,949.5534220064292,950.1906980756903,"[52, 0, 202]",202,a,0.11408959049731493,colour,0.5
173,20,0,2,15,38,738,950.7097283017356,952.3265980483266,"[41, 0, 213]",213,a,1.0935060372576118,colour,0.5
173,20,0,2,15,39,739,952.8348963753087,953.3826107711066,"[29, 0, 225]",225,a,0.024692150647751987,colour,0.5
173,20,0,2,15,40,740,953.8974366952898,954.5505981333554,"[93, 0, 161]",161,l,0.12980993802193552,colour,0.5
173,20,0,2,15,41,741,955.0693755105603,955.6146236450877,"[31, 0, 223]",223,a,0.021958861965686083,colour,0.5
173,20,0,2,15,42,742,956.1327866232023,956.7666157556232,"[78, 0, 176]",176,l,0.11798196658492088,colour,0.5
173,20,0,2,15,43,743,957.281554713496,958.022653605789,"[15, 0, 239]",239,a,0.2177875644993037,colour,0.5
173,20,0,2,15,44,744,958.5315643626964,959.0786230055382,"[49, 0, 205]",205,a,0.023670515045523643,colour,0.5
173,20,0,2,15,45,745,959.5942921531387,960.2387019479647,"[77, 0, 177]",177,a,0.12115124228876084,colour,0.5
173,20,0,2,15,46,746,960.7505165286129,961.3986584043596,"[71, 0, 183]",183,a,0.1247809233609587,colour,0.5
173,20,0,2,15,47,747,961.9085718921851,962.4386423984542,"[74, 0, 180]",180,a,0.006676076911389828,colour,0.5
173,20,0,2,15,48,748,962.9554710275261,963.926611990435,"[3, 0, 251]",251,a,0.44784460111986846,colour,0.5
173,20,0,2,15,49,749,964.4399724151008,965.094619045034,"[1, 0, 253]",253,a,0.13127071142662317,colour,0.5
173,20,0,2,15,50,750,965.6119521902874,966.2866979433456,"[76, 0, 178]",178,l,0.151751077035442,colour,0.5
173,20,0,2,16,1,751,970.9553442093311,971.5105991731398,"[94, 0, 160]",160,l,0.031171304755844176,colour,0.5
173,20,0,2,16,2,752,972.0187072727131,972.5746164141456,"[81, 0, 173]",173,l,0.032586785848252475,colour,0.5
173,20,0,2,16,3,753,973.0813259679126,973.6945967533393,"[33, 0, 221]",221,a,0.09984852699562907,colour,0.5
173,20,0,2,16,4,754,974.2121417876333,974.8065934481565,"[73, 0, 181]",181,a,0.07117144647054374,colour,0.5
173,20,0,2,16,5,755,975.3215548552107,975.9185976261506,"[35, 0, 219]",219,a,0.07378146145492792,colour,0.5
173,20,0,2,16,6,756,976.4309923413675,976.9985715220682,"[56, 0, 198]",198,a,0.044200899079442024,colour,0.5
173,20,0,2,16,7,757,977.5032027525594,978.1345876791747,"[6, 0, 248]",248,a,0.10809014027472585,colour,0.5
173,20,0,2,16,8,758,978.6439612046815,979.2785866929917,"[31, 0, 223]",223,a,0.11131258506793529,colour,0.5
173,20,0,2,16,9,759,979.8002320538508,982.4625563101145,"[68, 0, 186]",186,a,2.139753751922399,colour,0.5
173,20,0,2,16,10,760,982.9751975727268,983.566582751344,"[96, 0, 158]",158,l,0.06796239246614277,colour,0.5
173,20,0,2,16,11,761,984.0846634156769,984.6146189189749,"[13, 0, 241]",241,a,0.006551227881573141,colour,0.5
173,20,0,2,16,12,762,985.131652741693,985.6705938326195,"[62, 0, 192]",192,a,0.015640003141015768,colour,0.5
173,20,0,2,16,13,763,986.1786708183354,986.8706335321767,"[3, 0, 251]",251,a,0.16868210583925247,colour,0.5
173,20,0,2,16,14,764,987.3818656151416,987.982567999512,"[18, 0, 236]",236,a,0.07739657023921609,colour,0.5
173,20,0,2,16,15,765,988.4912948304554,989.0546074816957,"[14, 0, 240]",240,a,0.03990246809553355,colour,0.5
173,20,0,2,16,16,766,989.5576511205873,990.094553666655,"[53, 0, 201]",201,a,0.013544350629672408,colour,0.5
173,20,0,2,16,17,767,990.605124876718,991.3665607747389,"[11, 0, 243]",243,a,0.23827344388701022,colour,0.5
173,20,0,2,16,18,768,991.8865870364243,992.6625373268034,"[98, 0, 156]",156,l,0.2527224578661844,colour,0.5
173,20,0,2,16,19,769,993.1835517470026,993.9826172301546,"[42, 0, 212]",212,a,0.2757450968492776,colour,0.5
173,20,0,2,16,20,770,994.4961580360541,995.0305486348225,"[70, 0, 184]",184,a,0.020648931502364576,colour,0.5
173,20,0,2,16,21,771,995.5493768181186,996.1186377195409,"[71, 0, 183]",183,a,0.04589364747516811,colour,0.5
173,20,0,2,16,22,772,996.6276083410485,997.366554867127,"[39, 0, 215]",215,a,0.215646619675681,colour,0.5
173,20,0,2,16,23,773,997.8663941780105,998.414582763915,"[28, 0, 226]",226,a,0.02488671033643186,colour,0.5
173,20,0,2,16,24,774,998.9289443441667,999.518561943667,"[0, 0, 254]",254,a,0.06619008723646402,colour,0.5
173,20,0,2,16,25,775,1000.0384243655717,1000.7265329062939,"[19, 0, 235]",235,a,0.16468181612435728,colour,0.5
173,20,0,2,16,26,776,1001.2416384607786,1001.8625321279978,"[90, 0, 164]",164,l,0.0973613919923082,colour,0.5
173,20,0,2,16,27,777,1002.3823740698863,1003.4545899949735,"[43, 0, 211]",211,a,0.5488234650110826,colour,0.5
173,20,0,2,16,28,778,1003.9763826541603,1004.7025295916246,"[1, 0, 253]",253,a,0.20289980643428862,colour,0.5
173,20,0,2,16,29,779,1005.2107960171998,1005.8545835359255,"[88, 0, 166]",166,l,0.12054393230937421,colour,0.5
173,20,0,2,16,30,780,1006.3670365402941,1006.9745626936201,"[61, 0, 193]",193,a,0.08417032100260258,colour,0.5
173,20,0,2,16,31,781,1007.4936898056185,1008.1345766515005,"[79, 0, 175]",175,l,0.11741404130589217,colour,0.5
173,20,0,2,16,32,782,1008.6519090090878,1009.2865793957608,"[20, 0, 234]",234,a,0.11138662800658494,colour,0.5
173,20,0,2,16,33,783,1009.792621775181,1010.7985050409334,"[99, 0, 155]",155,l,0.48278185760136694,colour,0.5
173,20,0,2,16,34,784,1011.3083972610766,1011.9425879437476,"[93, 0, 161]",161,l,0.11074544733855873,colour,0.5
173,20,0,2,16,35,785,1012.4490852148738,1013.0385271592531,"[84, 0, 170]",170,l,0.06608177965972573,colour,0.5
173,20,0,2,16,36,786,1013.5585691747256,1014.0865456038155,"[23, 0, 231]",231,a,0.004551279824227095,colour,0.5
173,20,0,2,16,37,787,1014.6055431406712,1016.3665339932777,"[85, 0, 169]",169,a,1.2378717213869095,colour,0.5
173,20,0,2,16,38,788,1016.8869485866744,1017.7505960853305,"[82, 0, 172]",172,l,0.3409013393102214,colour,0.5
173,20,0,2,16,39,789,1018.24966030824,1018.9505834035808,"[78, 0, 176]",176,a,0.17760664748493582,colour,0.5
173,20,0,2,16,40,790,1019.4663699171506,1020.1585319169099,"[41, 0, 213]",213,a,0.16877190279774368,colour,0.5
173,20,0,2,16,41,791,1020.6695985847618,1021.3105370242847,"[83, 0, 171]",171,l,0.11767594853881747,colour,0.5
173,20,0,2,16,42,792,1021.8259182707407,1022.4945149122505,"[4, 0, 250]",250,a,0.14516125223599374,colour,0.5
173,20,0,2,16,43,793,1023.0135301721748,1023.7345189136686,"[67, 0, 187]",187,a,0.19789245328865945,colour,0.5
173,20,0,2,16,44,794,1024.248068384244,1024.8464915839722,"[26, 0, 228]",228,a,0.07510635803919286,colour,0.5
173,20,0,2,16,45,795,1025.3574940549443,1026.0065098741325,"[22, 0, 232]",232,a,0.1256765283178538,colour,0.5
173,20,0,2,16,46,796,1026.5139212608337,1027.2545487199677,"[87, 0, 167]",167,l,0.21743546647485346,colour,0.5
173,20,0,2,16,47,797,1027.7639399685431,1028.438526607817,"[38, 0, 216]",216,l,0.15122647455427796,colour,0.5
173,20,0,2,16,48,798,1028.951516817673,1029.6224820466014,"[58, 0, 196]",196,a,0.14766689797397703,colour,0.5
173,20,0,2,16,49,799,1030.1409738857765,1030.774515117053,"[24, 0, 230]",230,a,0.1103389987256378,colour,0.5
173,20,0,2,16,50,800,1031.284595989273,1031.8465191530995,"[7, 0, 247]",247,a,0.03894306009169668,colour,0.5
