id,age,condition,counterbalance,block,trialinblock,trial,tstart,tend,trialstim,trialintensity,response,RT,trialtype,colourfreq
020,65,1,2,Practice,1,NA,5.513842552318238e-06,2.5689643900268493,"[84, 0, 170]",170,l,2.044555395216321,colour,0.5
020,65,1,2,Practice,2,NA,3.078966107195356,4.128897893081557,"[9, 0, 245]",245,a,0.526645645797089,colour,0.5
020,65,1,2,Practice,3,NA,4.63030274148241,5.448898491727505,"[10, 0, 244]",244,a,0.2951619179352747,colour,0.5
020,65,1,2,Practice,4,NA,5.958463827615105,6.568895860836619,"[66, 0, 188]",188,a,0.08719551771810075,colour,0.5
020,65,1,2,Practice,5,NA,7.080183484937606,7.760935132001123,"[19, 0, 235]",235,a,0.1573461716602651,colour,0.5
020,65,1,2,Practice,6,NA,8.265027191122044,8.912995497553311,"[51, 0, 203]",203,a,0.12509137225379163,colour,0.5
020,65,1,2,Practice,7,NA,9.420943702088607,10.120942205473966,"[77, 0, 177]",177,l,0.17665998178881637,colour,0.5
020,65,1,2,Practice,8,NA,10.639698329778184,11.432911104249342,"[68, 0, 186]",186,a,0.26998925588350176,colour,0.5
020,65,1,2,Practice,9,NA,11.952139449812876,12.656896005772069,"[4, 0, 250]",250,a,0.18134792978844416,colour,0.5
020,65,1,2,Practice,10,NA,13.170876748281898,13.72899186471841,"[27, 0, 227]",227,a,0.03480573943761556,colour,0.5
020,65,1,2,1,1,1,5.096395758437211,6.384013557752041,"[75, 0, 179]",179,l,0.7635041889452623,colour,0.5
020,65,1,2,1,2,2,6.894038117983655,7.880011689347157,"[73, 0, 181]",181,l,0.4626318989990068,colour,0.5
020,65,1,2,1,3,3,8.394058597971707,10.736020832874146,"[13, 0, 241]",241,l,1.8186619163598152,colour,0.5
020,65,1,2,1,4,4,11.254849818673392,11.792072590529642,"[55, 0, 199]",199,a,0.013909062552102114,colour,0.5
020,65,1,2,1,5,5,12.301697790997423,12.848045185155115,"[29, 0, 225]",225,a,0.023031321778489655,colour,0.5
020,65,1,2,1,6,6,13.364196018690564,15.944023860761718,"[27, 0, 227]",227,a,2.06823577507339,colour,0.5
020,65,1,2,1,7,7,16.460842656979366,17.040188825488713,"[85, 0, 169]",169,l,0.05602024998188426,colour,0.5
020,65,1,2,1,8,8,17.552180252250764,21.21602173084284,"[76, 0, 178]",178,l,3.1404391539558674,colour,0.5
020,65,1,2,1,9,9,21.723562698695332,22.991999413957274,"[3, 0, 251]",251,a,0.7575712939883488,colour,0.5
020,65,1,2,1,10,10,23.505457916775867,25.78403025681928,"[43, 0, 211]",211,a,1.755160956950931,colour,0.5
020,65,1,2,1,11,11,26.303156596289227,26.98398937561251,"[0, 0, 254]",254,a,0.157461962360685,colour,0.5
020,65,1,2,1,12,12,27.49072768547785,28.07999995273849,"[87, 0, 167]",167,l,0.06372387619967412,colour,0.5
020,65,1,2,1,13,13,28.587494052927013,30.04807480236832,"[44, 0, 210]",210,a,0.9373808616087445,colour,0.5
020,65,1,2,1,14,14,30.55619117911192,31.503948305360154,"[52, 0, 202]",202,a,0.4248297797930718,colour,0.5
020,65,1,2,1,15,15,32.02480008381053,32.959998645170344,"[23, 0, 231]",231,a,0.41402028464062823,colour,0.5
020,65,1,2,1,16,16,33.475883238862934,34.38399583468572,"[41, 0, 213]",213,a,0.38140235929449773,colour,0.5
020,65,1,2,1,17,17,34.90320054949416,35.815982188712496,"[38, 0, 216]",216,a,0.38948762221070865,colour,0.5
020,65,1,2,1,18,18,36.325020164911166,37.19999023262153,"[34, 0, 220]",220,a,0.3516303645756125,colour,0.5
020,65,1,2,1,19,19,37.71121169060734,38.248018955016505,"[86, 0, 168]",168,l,0.013445112056615471,colour,0.5
020,65,1,2,1,20,20,38.75874377329637,39.50404755453201,"[58, 0, 196]",196,a,0.22194753657231558,colour,0.5
020,65,1,2,1,21,21,40.01409298859744,40.94400456231142,"[39, 0, 215]",215,a,0.40665969821975523,colour,0.5
020,65,1,2,1,22,22,41.45349546132002,43.41602259730371,"[96, 0, 158]",158,l,1.4391102390486594,colour,0.5
020,65,1,2,1,23,23,43.92236075971323,45.07999365120395,"[36, 0, 218]",218,a,0.6343983452170505,colour,0.5
020,65,1,2,1,24,24,45.59412838746903,46.59200358872431,"[67, 0, 187]",187,l,0.4868845369792325,colour,0.5
020,65,1,2,1,25,25,47.11323779156419,48.1440077918478,"[17, 0, 237]",237,a,0.5074649555899668,colour,0.5
020,65,1,2,1,26,26,48.660120816175095,49.63199982355718,"[48, 0, 206]",206,a,0.4484396612292585,colour,0.5
020,65,1,2,1,27,27,50.14526573571993,51.03199722417412,"[69, 0, 185]",185,l,0.3635339636966819,colour,0.5
020,65,1,2,1,28,28,51.55147448035996,52.48798100402382,"[49, 0, 205]",205,a,0.41330899890681394,colour,0.5
020,65,1,2,1,29,29,53.00641811313153,53.935987828585894,"[72, 0, 182]",182,l,0.40624419077266793,colour,0.5
020,65,1,2,1,30,30,54.439596638761486,55.47996348260631,"[66, 0, 188]",188,l,0.5138578625824266,colour,0.5
020,65,1,2,1,31,31,55.98963043074173,56.951993726822366,"[83, 0, 171]",171,l,0.4391066944353952,colour,0.5
020,65,1,2,1,32,32,57.45843586455521,58.376020454782065,"[11, 0, 243]",243,a,0.3965362826616001,colour,0.5
020,65,1,2,1,33,33,58.89587028920914,59.81598376409602,"[37, 0, 217]",217,a,0.39690649782778564,colour,0.5
020,65,1,2,1,34,34,60.33329841232853,61.20801287403583,"[60, 0, 194]",194,a,0.3514216262374248,colour,0.5
020,65,1,2,1,35,35,61.7262002848297,62.376040540923896,"[65, 0, 189]",189,l,0.1265379683222818,colour,0.5
020,65,1,2,1,36,36,62.88238539871418,63.82399616551629,"[2, 0, 252]",252,a,0.4183612543833988,colour,0.5
020,65,1,2,1,37,37,64.33556617714248,64.903990998258,"[82, 0, 172]",172,l,0.044943333448827616,colour,0.5
020,65,1,2,1,38,38,65.41365085716643,66.3519856135963,"[5, 0, 249]",249,a,0.4149950532951152,colour,0.5
020,65,1,2,1,39,39,66.86682494021443,67.76000053563075,"[53, 0, 201]",201,a,0.369897332245273,colour,0.5
020,65,1,2,1,40,40,68.27304038023476,69.13596348890815,"[46, 0, 208]",208,a,0.3396093993692375,colour,0.5
020,65,1,2,1,41,41,69.64870913060895,70.5279764511647,"[40, 0, 214]",214,a,0.35613320499169276,colour,0.5
020,65,1,2,1,42,42,71.03929912755257,71.7760253384713,"[92, 0, 162]",162,l,0.21344873543921494,colour,0.5
020,65,1,2,1,43,43,72.28928731217502,73.22395339384911,"[61, 0, 193]",193,a,0.40942922273688964,colour,0.5
020,65,1,2,1,44,44,73.74444362174427,74.60798113005467,"[33, 0, 221]",221,a,0.340226555927984,colour,0.5
020,65,1,2,1,45,45,75.11940975099515,75.97596358343117,"[7, 0, 247]",247,a,0.33318065239791395,colour,0.5
020,65,1,2,1,46,46,76.49444204636075,77.32810279693649,"[71, 0, 183]",183,l,0.3103312874350195,colour,0.5
020,65,1,2,1,47,47,77.82581140136699,78.68799644278397,"[93, 0, 161]",161,l,0.33896546128835325,colour,0.5
020,65,1,2,1,48,48,79.20511574343936,80.05608011456206,"[94, 0, 160]",160,l,0.32742262503006714,colour,0.5
020,65,1,2,1,49,49,80.56462893412709,81.47197865040062,"[35, 0, 219]",219,a,0.38445387749197835,colour,0.5
020,65,1,2,1,50,50,81.98679789087646,82.91993033653353,"[80, 0, 174]",174,l,0.40973445332610936,colour,0.5
020,65,1,2,2,1,51,93.73971195684726,95.30395570966311,"[42, 0, 212]",212,a,1.0402514469897142,colour,0.5
020,65,1,2,2,2,52,95.8186627040518,96.34395942756873,"[33, 0, 221]",221,a,0.0020220049591443967,colour,0.5
020,65,1,2,2,3,53,96.86798324106849,97.81594595488741,"[53, 0, 201]",201,a,0.4246655460437978,colour,0.5
020,65,1,2,2,4,54,98.33522156196159,99.13597097198044,"[4, 0, 250]",250,a,0.2773596884521794,colour,0.5
020,65,1,2,2,5,55,99.64778280500241,100.50397469303653,"[6, 0, 248]",248,a,0.33292898485387923,colour,0.5
020,65,1,2,2,6,56,101.02270442966392,101.88800282308785,"[31, 0, 223]",223,a,0.34189134263669985,colour,0.5
020,65,1,2,2,7,57,102.39776311270634,103.78400938298546,"[97, 0, 157]",157,l,0.8612713188795169,colour,0.5
020,65,1,2,2,8,58,104.2801717483294,104.95994941442996,"[84, 0, 170]",170,l,0.156439538349332,colour,0.5
020,65,1,2,2,9,59,105.46775268366628,106.31203703411984,"[63, 0, 191]",191,a,0.32107185955146633,colour,0.5
020,65,1,2,2,10,60,106.82707407139014,107.59197680720172,"[83, 0, 171]",171,l,0.2416709464591804,colour,0.5
020,65,1,2,2,11,61,108.10191629671408,108.99995628310307,"[2, 0, 252]",252,a,0.37478692935656,colour,0.5
020,65,1,2,2,12,62,109.51518276026127,110.3519265367081,"[60, 0, 194]",194,a,0.3136132054960399,colour,0.5
020,65,1,2,2,13,63,110.85914770167301,111.5679277875629,"[91, 0, 163]",163,l,0.18615993925322982,colour,0.5
020,65,1,2,2,14,64,112.07783813247761,112.91196401508614,"[99, 0, 155]",155,l,0.31074718872787344,colour,0.5
020,65,1,2,2,15,65,113.42160693862024,114.2479370350652,"[72, 0, 182]",182,a,0.3030644363434476,colour,0.5
020,65,1,2,2,16,66,114.76534660016478,115.59994115941981,"[49, 0, 205]",205,a,0.3118562588419991,colour,0.5
020,65,1,2,2,17,67,116.10914376321398,117.0399182533406,"[69, 0, 185]",185,l,0.40752182694086514,colour,0.5
020,65,1,2,2,18,68,117.54660575708249,118.34390822759906,"[92, 0, 162]",162,l,0.27280446652775936,colour,0.5
020,65,1,2,2,19,69,118.85875661267346,119.4399684293112,"[0, 0, 254]",254,a,0.05781027969351271,colour,0.5
020,65,1,2,2,20,70,119.95256283417848,120.77601155386401,"[17, 0, 237]",237,a,0.3000353673637619,colour,0.5
020,65,1,2,2,21,71,121.29769316567081,121.95993681136042,"[41, 0, 213]",213,a,0.13898586250661538,colour,0.5
020,65,1,2,2,22,72,122.4695943071938,123.35194150285315,"[57, 0, 197]",197,a,0.3590232463616303,colour,0.5
020,65,1,2,2,23,73,123.86019415028568,124.59994391634109,"[25, 0, 229]",229,a,0.21642463521993704,colour,0.5
020,65,1,2,2,24,74,125.11026898101045,125.91194826124911,"[52, 0, 202]",202,a,0.27840022937562026,colour,0.5
020,65,1,2,2,25,75,126.42469547833389,127.08798005879362,"[11, 0, 243]",243,a,0.1371493589763304,colour,0.5
020,65,1,2,2,26,76,127.59937441513921,128.3039718573459,"[75, 0, 179]",179,l,0.18135895747400355,colour,0.5
020,65,1,2,2,27,77,128.8180904459282,129.60013965776398,"[26, 0, 228]",228,a,0.2587083271632764,colour,0.5
020,65,1,2,2,28,78,130.10250233944498,130.8719394233467,"[21, 0, 233]",233,a,0.24609029154044038,colour,0.5
020,65,1,2,2,29,79,131.38375046867668,132.0879583972678,"[19, 0, 235]",235,a,0.181297517510302,colour,0.5
020,65,1,2,2,30,80,132.6007961989144,133.3439078337533,"[58, 0, 196]",196,l,0.21977665785516365,colour,0.5
020,65,1,2,2,31,81,133.85073672818044,134.53594356030453,"[32, 0, 222]",222,a,0.1617922982645723,colour,0.5
020,65,1,2,2,32,82,135.05395255889607,135.70395626104755,"[22, 0, 232]",232,a,0.12667463285697522,colour,0.5
020,65,1,2,2,33,83,136.2116673703381,136.92797385178164,"[28, 0, 226]",226,a,0.1929179414146347,colour,0.5
020,65,1,2,2,34,84,137.44722543425496,138.04792711014807,"[35, 0, 219]",219,a,0.07990346048791253,colour,0.5
020,65,1,2,2,35,85,138.55435782634868,139.1199776768135,"[80, 0, 174]",174,l,0.04257041177379506,colour,0.5
020,65,1,2,2,36,86,139.6324783463515,140.47992488570617,"[93, 0, 161]",161,l,0.32430415302633264,colour,0.5
020,65,1,2,2,37,87,140.9918332109787,141.64791828799935,"[46, 0, 208]",208,a,0.1330758106137182,colour,0.5
020,65,1,2,2,38,88,142.16366897407897,142.93593269015673,"[82, 0, 172]",172,l,0.24890471449316465,colour,0.5
020,65,1,2,2,39,89,143.44494742944653,144.22394157847157,"[65, 0, 189]",189,l,0.25596715955180116,colour,0.5
020,65,1,2,2,40,90,144.7418316355952,145.36797024415318,"[61, 0, 193]",193,a,0.10283553309409399,colour,0.5
020,65,1,2,2,41,91,145.88241257408254,146.53593647107755,"[48, 0, 206]",206,a,0.13036851375136393,colour,0.5
020,65,1,2,2,42,92,147.0571568893106,147.70394562720776,"[68, 0, 186]",186,l,0.13589732279297095,colour,0.5
020,65,1,2,2,43,93,148.21691142877853,148.93594647476402,"[78, 0, 176]",176,l,0.1957674166542347,colour,0.5
020,65,1,2,2,44,94,149.45129858877135,150.19992642958232,"[34, 0, 220]",220,a,0.22536966378174839,colour,0.5
020,65,1,2,2,45,95,150.7168468380478,151.3359296969279,"[45, 0, 209]",209,a,0.09341355712194854,colour,0.5
020,65,1,2,2,46,96,151.84705505650936,152.51191541449953,"[40, 0, 214]",214,a,0.138383278247602,colour,0.5
020,65,1,2,2,47,97,153.02206915619308,153.74390287129472,"[79, 0, 175]",175,l,0.19847904582184128,colour,0.5
020,65,1,2,2,48,98,154.26501695112847,154.85595361125206,"[73, 0, 181]",181,l,0.06780451378926955,colour,0.5
020,65,1,2,2,49,99,155.37443364956562,156.2320965521153,"[38, 0, 216]",216,a,0.3346422146109944,colour,0.5
020,65,1,2,2,50,100,156.7492843819614,158.87194296795997,"[88, 0, 166]",166,l,1.5994992642959005,colour,0.5
020,65,1,2,3,1,101,164.89046199701943,167.07192335443324,"[29, 0, 225]",225,a,1.6579708112913067,colour,0.5
020,65,1,2,3,2,102,167.579088593277,168.33595529691274,"[98, 0, 156]",156,l,0.23343287132593105,colour,0.5
020,65,1,2,3,3,103,168.84474357479803,169.4158949912253,"[88, 0, 166]",166,l,0.047719947192945256,colour,0.5
020,65,1,2,3,4,104,169.92292317168858,170.58393841195038,"[21, 0, 233]",233,a,0.13776809091859832,colour,0.5
020,65,1,2,3,5,105,171.09659977062438,171.79193316907367,"[89, 0, 165]",165,l,0.17196848917546959,colour,0.5
020,65,1,2,3,6,106,172.2998270228718,173.0239351981677,"[86, 0, 168]",168,l,0.20083778904336214,colour,0.5
020,65,1,2,3,7,107,173.53410548139027,174.20793528638933,"[58, 0, 196]",196,a,0.15046883418472135,colour,0.5
020,65,1,2,3,8,108,174.72162655214697,175.32787121553474,"[66, 0, 188]",188,a,0.08291086794179137,colour,0.5
020,65,1,2,3,9,109,175.8465851983251,176.59188110264267,"[33, 0, 221]",221,a,0.22186522277479526,colour,0.5
020,65,1,2,3,10,110,177.11226381060123,177.7359172513966,"[45, 0, 209]",209,a,0.10030861766381349,colour,0.5
020,65,1,2,3,11,111,178.2528766506084,178.87987738788797,"[83, 0, 171]",171,l,0.10355036344117252,colour,0.5
020,65,1,2,3,12,112,179.39348988446136,180.1198733076444,"[39, 0, 215]",215,a,0.20305592927161342,colour,0.5
020,65,1,2,3,13,113,180.61543230103734,181.28007880069208,"[80, 0, 174]",174,l,0.15495946537794225,colour,0.5
020,65,1,2,3,14,114,181.77747350992377,182.58390257197152,"[64, 0, 190]",190,l,0.2834579986956669,colour,0.5
020,65,1,2,3,15,115,183.09779588068704,183.63990509888708,"[81, 0, 173]",173,l,0.019261428621121013,colour,0.5
020,65,1,2,3,16,116,184.14775838655532,184.704168543999,"[77, 0, 177]",177,l,0.03279397447249721,colour,0.5
020,65,1,2,3,17,117,185.21325181247903,185.98391415104152,"[59, 0, 195]",195,a,0.24756681989902063,colour,0.5
020,65,1,2,3,18,118,186.49462794163537,187.09590305718984,"[56, 0, 198]",198,a,0.0828569110508397,colour,0.5
020,65,1,2,3,19,119,187.61502388281679,188.19992721727385,"[46, 0, 208]",208,a,0.061546302101760375,colour,0.5
020,65,1,2,3,20,120,188.7366714663358,189.3919038669369,"[71, 0, 183]",183,l,0.12836423185854073,colour,0.5
020,65,1,2,3,21,121,189.90210171937406,190.7598949849239,"[3, 0, 251]",251,a,0.33452603006480786,colour,0.5
020,65,1,2,3,22,122,191.26826421074884,191.8963842581361,"[94, 0, 160]",160,l,0.10485478113196223,colour,0.5
020,65,1,2,3,23,123,192.40898299530863,193.11188178005796,"[26, 0, 228]",228,a,0.1805531487193548,colour,0.5
020,65,1,2,3,24,124,193.62763994920988,194.29590116672944,"[14, 0, 240]",240,a,0.144968382049683,colour,0.5
020,65,1,2,3,25,125,194.81516101996658,195.43990502011775,"[70, 0, 184]",184,l,0.1005638298206577,colour,0.5
020,65,1,2,3,26,126,195.95674350863192,197.07196510210088,"[62, 0, 192]",192,l,0.5919260010778089,colour,0.5
020,65,1,2,3,27,127,197.5816387456166,198.3439231937441,"[28, 0, 226]",226,a,0.2388234404488685,colour,0.5
020,65,1,2,3,28,128,198.8653657410764,199.4238877003495,"[42, 0, 212]",212,a,0.03539414524402673,colour,0.5
020,65,1,2,3,29,129,199.94348862415472,200.52789098660014,"[85, 0, 169]",169,l,0.0610536008548479,colour,0.5
020,65,1,2,3,30,130,201.03719638417942,201.73587550372895,"[68, 0, 186]",186,l,0.17531381642993438,colour,0.5
020,65,1,2,3,31,131,202.2547883787097,202.85586026976898,"[44, 0, 210]",210,a,0.077652631048295,colour,0.5
020,65,1,2,3,32,132,203.36415348333094,204.04792395938057,"[41, 0, 213]",213,a,0.1603476714253702,colour,0.5
020,65,1,2,3,33,133,204.56735631713127,205.4398825709004,"[9, 0, 245]",245,a,0.34936614437447133,colour,0.5
020,65,1,2,3,34,134,205.95791165563378,206.50395972689148,"[47, 0, 207]",207,a,0.02272136503825095,colour,0.5
020,65,1,2,3,35,135,207.02051543403422,207.71188437944102,"[8, 0, 246]",246,a,0.16794062693998058,colour,0.5
020,65,1,2,3,36,136,208.22358160329986,208.84794829905832,"[55, 0, 199]",199,a,0.09841618801237928,colour,0.5
020,65,1,2,3,37,137,209.36686590019008,209.95189920380153,"[32, 0, 222]",222,a,0.06185980345526332,colour,0.5
020,65,1,2,3,38,138,210.46053821408213,211.09591250949188,"[65, 0, 189]",189,l,0.11426533557232688,colour,0.5
020,65,1,2,3,39,139,211.61462727997423,212.2878852206959,"[5, 0, 249]",249,a,0.15008995440848594,colour,0.5
020,65,1,2,3,40,140,212.80211014767656,213.32787712322352,"[13, 0, 241]",241,a,0.0023981278141036455,colour,0.5
020,65,1,2,3,41,141,213.83680088410574,214.37592278099373,"[72, 0, 182]",182,l,0.015811732197562378,colour,0.5
020,65,1,2,3,42,142,214.87130099910837,215.51185633761133,"[38, 0, 216]",216,a,0.11731567223205275,colour,0.5
020,65,1,2,3,43,143,216.0275176206669,216.6798627368198,"[12, 0, 242]",242,a,0.12908418220240492,colour,0.5
020,65,1,2,3,44,144,217.19937701452227,217.7278950038285,"[27, 0, 227]",227,a,0.005231849217125273,colour,0.5
020,65,1,2,3,45,145,218.2464750790059,218.81593965335287,"[43, 0, 211]",211,a,0.04608863738758373,colour,0.5
020,65,1,2,3,46,146,219.3246275005281,220.1039213662989,"[52, 0, 202]",202,a,0.2560664087236546,colour,0.5
020,65,1,2,3,47,147,220.62146168824438,222.53588724033762,"[51, 0, 203]",203,a,1.3914032887710164,colour,0.5
020,65,1,2,3,48,148,223.04462549979053,223.74385285286235,"[82, 0, 172]",172,l,0.17591994530266675,colour,0.5
020,65,1,2,3,49,149,224.2633895797826,224.96786847436715,"[15, 0, 239]",239,a,0.18116242835958474,colour,0.5
020,65,1,2,3,50,150,225.48210639826357,226.41587529892922,"[6, 0, 248]",248,a,0.40904561681009,colour,0.5
020,65,1,2,4,1,151,232.53487072401504,234.0239076289531,"[6, 0, 248]",248,a,0.9653718850722726,colour,0.5
020,65,1,2,4,2,152,234.53567613892392,235.14389397037667,"[27, 0, 227]",227,a,0.08494311289496181,colour,0.5
020,65,1,2,4,3,153,235.66064620663383,236.24784920742468,"[18, 0, 236]",236,a,0.06390071301848366,colour,0.5
020,65,1,2,4,4,154,236.75439965278565,237.36788044728337,"[94, 0, 160]",160,l,0.09015842058352064,colour,0.5
020,65,1,2,4,5,155,237.8806008828451,238.4238825803527,"[91, 0, 163]",163,l,0.019998708185539726,colour,0.5
020,65,1,2,4,6,156,238.9430959597712,239.62389762526664,"[74, 0, 180]",180,l,0.15756751306753358,colour,0.5
020,65,1,2,4,7,157,240.13057016286348,240.7839306138012,"[45, 0, 209]",209,a,0.13007234161887027,colour,0.5
020,65,1,2,4,8,158,241.30248430130177,241.99185054019927,"[10, 0, 244]",244,a,0.16607222188940796,colour,0.5
020,65,1,2,4,9,159,242.50562490744642,243.0559032777437,"[88, 0, 166]",166,l,0.026980020984410658,colour,0.5
020,65,1,2,4,10,160,243.56813770743884,244.20790417256148,"[37, 0, 217]",217,a,0.11536259030890506,colour,0.5
020,65,1,2,4,11,161,244.72589190347344,245.46389259979287,"[66, 0, 188]",188,l,0.21475236543847132,colour,0.5
020,65,1,2,4,12,162,245.9757619343195,246.5439027925254,"[72, 0, 182]",182,l,0.045096539512087475,colour,0.5
020,65,1,2,4,13,163,247.0539533465876,247.663908826245,"[2, 0, 252]",252,a,0.08660868729612048,colour,0.5
020,65,1,2,4,14,164,248.1664692185782,248.8238910086552,"[30, 0, 224]",224,a,0.13410808077287584,colour,0.5
020,65,1,2,4,15,165,249.33828332015264,249.9918899247914,"[31, 0, 223]",223,a,0.13026256919874868,colour,0.5
020,65,1,2,4,16,166,250.51022463395975,251.1678492546862,"[20, 0, 234]",234,a,0.13437510830772226,colour,0.5
020,65,1,2,4,17,167,251.68081741933293,252.27988384696118,"[47, 0, 207]",207,a,0.07583739519759547,colour,0.5
020,65,1,2,4,18,168,252.7779480942586,253.46392016900745,"[89, 0, 165]",165,l,0.1625874731789736,colour,0.5
020,65,1,2,4,19,169,253.98102410967203,254.90389017370217,"[46, 0, 208]",208,a,0.39958977008882357,colour,0.5
020,65,1,2,4,20,170,255.41851170352584,256.1278628660011,"[0, 0, 254]",254,a,0.18600476396022714,colour,0.5
020,65,1,2,4,21,171,256.6373226511819,257.3278940585983,"[22, 0, 232]",232,a,0.1679197531061618,colour,0.5
020,65,1,2,4,22,172,257.84042978042316,258.56785925837266,"[23, 0, 231]",231,a,0.2163226291263527,colour,0.5
020,65,1,2,4,23,173,259.07806065542263,259.77597335080964,"[16, 0, 238]",238,a,0.17466397065982164,colour,0.5
020,65,1,2,4,24,174,260.29682552310624,260.92784348878195,"[81, 0, 173]",173,l,0.1076514810183653,colour,0.5
020,65,1,2,4,25,175,261.43746711386575,262.16787958082205,"[51, 0, 203]",203,a,0.20711805610244483,colour,0.5
020,65,1,2,4,26,176,262.68748641231605,263.3598771043189,"[38, 0, 216]",216,a,0.1491017949920206,colour,0.5
020,65,1,2,4,27,177,263.87494761849257,264.49584807629935,"[75, 0, 179]",179,l,0.09763755462654444,colour,0.5
020,65,1,2,4,28,178,265.0174280758579,265.6798946383392,"[25, 0, 229]",229,a,0.13913237318911342,colour,0.5
020,65,1,2,4,29,179,266.18016954279256,266.8638529788932,"[43, 0, 211]",211,a,0.16036854525918898,colour,0.5
020,65,1,2,4,30,180,267.3832672197318,268.0478672455679,"[12, 0, 242]",242,a,0.14691673782135695,colour,0.5
020,65,1,2,4,31,181,268.56512990613874,269.23985334753297,"[59, 0, 195]",195,l,0.15188313488761196,colour,0.5
020,65,1,2,4,32,182,269.752604109231,270.5278484512405,"[56, 0, 198]",198,a,0.2518896727297033,colour,0.5
020,65,1,2,4,33,183,271.03393021995544,271.69593046886575,"[48, 0, 206]",206,a,0.13880075492352262,colour,0.5
020,65,1,2,4,34,184,272.2057750415115,272.7758406247344,"[63, 0, 191]",191,l,0.04674990468947726,colour,0.5
020,65,1,2,4,35,185,273.28388492767453,273.9439045254476,"[84, 0, 170]",170,l,0.13668422694354376,colour,0.5
020,65,1,2,4,36,186,274.45576637690147,275.34386884300693,"[80, 0, 174]",174,l,0.364926209027999,colour,0.5
020,65,1,2,4,37,187,275.8619684261603,276.8478687421825,"[26, 0, 228]",228,a,0.46131093977965065,colour,0.5
020,65,1,2,4,38,188,277.363189742362,277.927932104114,"[98, 0, 156]",156,l,0.0413691817138897,colour,0.5
020,65,1,2,4,39,189,278.4412500039389,279.5198876436357,"[50, 0, 204]",204,l,0.5552317704473353,colour,0.5
020,65,1,2,4,40,190,280.0364807661408,280.8398650053723,"[90, 0, 164]",164,l,0.28010006837166657,colour,0.5
020,65,1,2,4,41,191,281.34894157847157,282.0478672455679,"[35, 0, 219]",219,a,0.17572223465003844,colour,0.5
020,65,1,2,4,42,192,282.56781908608855,283.4798516303649,"[49, 0, 205]",205,a,0.38927218849175915,colour,0.5
020,65,1,2,4,43,193,283.98940160626125,284.85590122974463,"[92, 0, 162]",162,l,0.34510158073999264,colour,0.5
020,65,1,2,4,44,194,285.3624638843294,286.3118472003857,"[77, 0, 177]",177,l,0.4260983575049977,colour,0.5
020,65,1,2,4,45,195,286.8311905489586,287.7838632661487,"[21, 0, 233]",233,a,0.42942871861441745,colour,0.5
020,65,1,2,4,46,196,288.3030612855764,289.03182471966056,"[95, 0, 159]",159,l,0.20714759454631348,colour,0.5
020,65,1,2,4,47,197,289.5513189112212,290.55190298472235,"[64, 0, 190]",190,l,0.477568899405469,colour,0.5
020,65,1,2,4,48,198,291.06692229892633,291.9759013557755,"[97, 0, 157]",157,l,0.386425864019202,colour,0.5
020,65,1,2,4,49,199,292.48875057895384,293.4078554144362,"[99, 0, 155]",155,l,0.39354659827358773,colour,0.5
020,65,1,2,4,50,200,293.9284917591681,294.80783666737034,"[57, 0, 197]",197,a,0.35638684176501556,colour,0.5
020,65,1,2,5,1,201,300.4462475148325,303.35994287658787,"[42, 0, 212]",212,a,2.389548274482422,colour,0.4
020,65,1,2,5,2,202,303.85699690909723,304.3838512932325,"[87, 0, 167]",167,l,0.0034741148706416425,colour,0.4
020,65,1,2,5,3,203,304.90392837675654,305.9678326343883,"[36, 0, 218]",218,a,0.5406122098538617,colour,0.4
020,65,1,2,5,4,204,306.4820244783118,307.1678961223506,"[79, 0, 175]",175,l,0.16270168849587208,colour,0.4
020,65,1,2,5,5,205,307.685112702949,308.41580480050925,"[92, 0, 162]",162,l,0.20732324982736827,colour,0.4
020,65,1,2,5,6,206,308.9351481490821,309.5838348304733,"[17, 0, 237]",237,a,0.12531271366151486,colour,0.4
020,65,1,2,5,7,207,310.09134744141966,310.80781618738274,"[99, 0, 155]",155,l,0.1930368828830069,colour,0.4
020,65,1,2,5,8,208,311.32576492754833,312.10388119401523,"[18, 0, 236]",236,a,0.2548328832990592,colour,0.4
020,65,1,2,5,9,209,312.6244198649583,313.3039328666,"[75, 0, 179]",179,l,0.15620126156727565,colour,0.4
020,65,1,2,5,10,210,313.8119015511229,314.76783019254344,"[63, 0, 191]",191,l,0.4325629444547303,colour,0.4
020,65,1,2,5,11,211,315.28069832032634,315.8957993969434,"[1, 0, 253]",253,a,0.09179839499893205,colour,0.4
020,65,1,2,5,12,212,316.405664843423,317.1678394085384,"[15, 0, 239]",239,a,0.23916726793822818,colour,0.4
020,65,1,2,5,13,213,317.6882162088077,318.3998205637986,"[43, 0, 211]",211,a,0.18823432572025922,colour,0.4
020,65,1,2,5,14,214,318.90688694731625,319.63980191125574,"[60, 0, 194]",194,l,0.20939881783215242,colour,0.4
020,65,1,2,5,15,215,320.1570247933887,320.79181304606755,"[66, 0, 188]",188,l,0.11150762643228518,colour,0.4
020,65,1,2,5,16,216,321.29763054416935,321.9598422883396,"[31, 0, 223]",223,a,0.13892205946740432,colour,0.4
020,65,1,2,5,17,217,322.4695289287706,323.39187432849303,"[12, 0, 242]",242,a,0.3989856104453793,colour,0.4
020,65,1,2,5,18,218,323.9098805701633,324.51182719301323,"[76, 0, 178]",178,l,0.07856989819902083,colour,0.4
020,65,1,2,5,19,219,325.01933389627084,325.8398677622936,"[54, 0, 200]",200,a,0.29563020073510415,colour,0.4
020,65,1,2,5,20,220,326.34904752302464,327.06384163613075,"[55, 0, 199]",199,a,0.1916954436751439,colour,0.4
020,65,1,2,5,21,221,327.5833696984405,328.1678866700486,"[82, 0, 172]",172,l,0.06258093533688225,colour,0.4
020,65,1,2,5,22,222,328.6758982837773,329.6239228314057,"[27, 0, 227]",227,a,0.4368724065243441,colour,0.4
020,65,1,2,5,23,223,330.1325898047471,330.99985388316327,"[45, 0, 209]",209,a,0.34417958743824784,colour,0.4
020,65,1,2,5,24,224,331.50747401404624,332.4079062205601,"[61, 0, 193]",193,l,0.3769656849922285,colour,0.4
020,65,1,2,5,25,225,332.92937515556923,333.6398058497148,"[72, 0, 182]",182,l,0.1871102894606338,colour,0.4
020,65,1,2,5,26,226,334.1496417577505,334.7598233049662,"[73, 0, 181]",181,l,0.08671620723225715,colour,0.4
020,65,1,2,5,27,227,335.2746460900553,336.3118263265519,"[65, 0, 189]",189,l,0.5138795241077787,colour,0.4
020,65,1,2,5,28,228,336.8210285365003,339.62385193913997,"[33, 0, 221]",221,a,2.279554197924881,colour,0.4
020,65,1,2,5,29,229,340.1349686341109,341.7117973394925,"[97, 0, 157]",157,l,1.0536989221227486,colour,0.4
020,65,1,2,5,30,230,342.2308051313398,343.31985172488794,"[19, 0, 235]",235,a,0.5628483567174953,colour,0.4
020,65,1,2,5,31,231,343.8274371973298,344.70381250728633,"[84, 0, 170]",170,l,0.3534298465892789,colour,0.4
020,65,1,2,5,32,232,345.2183911079046,346.1518090918544,"[93, 0, 161]",161,l,0.41018540690583905,colour,0.4
020,65,1,2,5,33,233,346.6714399479497,347.51178347611585,"[16, 0, 238]",238,a,0.3170416342400131,colour,0.4
020,65,1,2,5,34,234,348.03076448644106,348.9438631716257,"[71, 0, 183]",183,l,0.38980939432804007,colour,0.4
020,65,1,2,5,35,235,349.4541539717002,350.3517855398686,"[69, 0, 185]",185,l,0.37434542807932303,colour,0.4
020,65,1,2,5,36,236,350.8561836172703,351.7198199809068,"[98, 0, 156]",156,l,0.3403069004957615,colour,0.4
020,65,1,2,5,37,237,352.2348692274004,353.1598006194413,"[50, 0, 204]",204,a,0.4015542735432973,colour,0.4
020,65,1,2,5,38,238,353.6724225935227,354.59983521486674,"[41, 0, 213]",213,a,0.4039732751912197,colour,0.4
020,65,1,2,5,39,239,355.1099708396482,356.0958089280148,"[48, 0, 206]",206,a,0.46289380653661283,colour,0.4
020,65,1,2,5,40,240,356.6099160950653,357.49584492553186,"[78, 0, 176]",176,l,0.3627659641506398,colour,0.4
020,65,1,2,5,41,241,358.0019822265217,358.9198082442981,"[77, 0, 177]",177,l,0.39449104079312747,colour,0.4
020,65,1,2,5,42,242,359.439673438716,360.3758692179481,"[9, 0, 245]",245,a,0.41289821761074563,colour,0.4
020,65,1,2,5,43,243,360.8927518172054,361.67184718463204,"[74, 0, 180]",180,l,0.2561313933006204,colour,0.4
020,65,1,2,5,44,244,362.19096328410797,363.03979655495095,"[21, 0, 233]",233,a,0.32549868770502144,colour,0.4
020,65,1,2,5,45,245,363.5503866779254,364.4638228890649,"[57, 0, 197]",197,a,0.39016661257846863,colour,0.4
020,65,1,2,5,46,246,364.9721739979773,366.06382627613993,"[64, 0, 190]",190,l,0.5684582980188679,colour,0.4
020,65,1,2,5,47,247,366.5815083826169,367.5118059253332,"[88, 0, 166]",166,l,0.4068814334727904,colour,0.4
020,65,1,2,5,48,248,368.0202342280463,368.8878019616682,"[47, 0, 207]",207,a,0.34418982743272863,colour,0.4
020,65,1,2,5,49,249,369.3952385603516,370.2637511303378,"[53, 0, 201]",201,a,0.3453603375101011,colour,0.4
020,65,1,2,5,50,250,370.7701952373004,371.59182872113524,"[8, 0, 246]",246,a,0.29902515257572304,colour,0.4
020,65,1,2,6,1,251,378.63134288856054,379.78383057693736,"[55, 0, 199]",199,a,0.6286450440006774,colour,0.28
020,65,1,2,6,2,252,380.30526524735114,380.9677837974941,"[73, 0, 181]",181,l,0.1392072039143386,colour,0.28
020,65,1,2,6,3,253,381.4647874177258,382.03179951352195,"[81, 0, 173]",173,l,0.043899641757889185,colour,0.28
020,65,1,2,6,4,254,382.5428602823722,383.29577198526704,"[61, 0, 193]",193,a,0.22958460282961823,colour,0.28
020,65,1,2,6,5,255,383.79600514205276,384.63177375599844,"[4, 0, 250]",250,a,0.3152835060477628,colour,0.28
020,65,1,2,6,6,256,385.1533112201978,386.13577207979006,"[62, 0, 192]",192,l,0.4591790518079506,colour,0.28
020,65,1,2,6,7,257,386.65333957710436,387.49578348556815,"[97, 0, 157]",157,l,0.31917234067350364,colour,0.28
020,65,1,2,6,8,258,388.01258967871627,388.64781628190576,"[2, 0, 252]",252,a,0.11145524492485492,colour,0.28
020,65,1,2,6,9,259,389.16926946307785,389.9277800795885,"[32, 0, 222]",222,a,0.2351709133758959,colour,0.28
020,65,1,2,6,10,260,390.43686295422276,391.07179141604956,"[17, 0, 237]",237,a,0.11153362026334435,colour,0.28
020,65,1,2,6,11,261,391.59310714499543,392.1757777669254,"[91, 0, 163]",163,l,0.05940850644174134,colour,0.28
020,65,1,2,6,12,262,392.68679442503253,393.4637508152614,"[8, 0, 246]",246,a,0.25354579482836925,colour,0.28
020,65,1,2,6,13,263,393.9705249651056,394.92787184568806,"[56, 0, 198]",198,a,0.4340233251305108,colour,0.28
020,65,1,2,6,14,264,395.4392599004991,396.1837649622066,"[52, 0, 202]",202,a,0.22117362933749973,colour,0.28
020,65,1,2,6,15,265,396.70511889420686,398.80780476585096,"[89, 0, 165]",165,l,1.579246919337038,colour,0.28
020,65,1,2,6,16,266,399.3146234202841,400.3437916492062,"[74, 0, 180]",180,l,0.5059462857175276,colour,0.28
020,65,1,2,6,17,267,400.8614757249129,401.7678246787009,"[85, 0, 169]",169,l,0.3829635645261078,colour,0.28
020,65,1,2,6,18,268,402.2833871064299,402.9437800701362,"[51, 0, 203]",203,a,0.13701545136291315,colour,0.28
020,65,1,2,6,19,269,403.45525319566605,404.5438145710391,"[82, 0, 172]",172,l,0.5650704354047775,colour,0.28
020,65,1,2,6,20,270,405.0646769833297,405.9998160739551,"[68, 0, 186]",186,l,0.4120317565843834,colour,0.28
020,65,1,2,6,21,271,406.5193004193675,407.35979518436716,"[83, 0, 171]",171,l,0.3172535233452436,colour,0.28
020,65,1,2,6,22,272,407.87858951172575,408.74376305599253,"[98, 0, 156]",156,l,0.3421280440352348,colour,0.28
020,65,1,2,6,23,273,409.2418548725045,409.9037574476265,"[54, 0, 200]",200,a,0.13861919195414885,colour,0.28
020,65,1,2,6,24,274,410.4427733999619,411.32780465557425,"[65, 0, 189]",189,a,0.3593686492345114,colour,0.28
020,65,1,2,6,25,275,411.8333850584313,412.735816820687,"[7, 0, 247]",247,a,0.3790377083837484,colour,0.28
020,65,1,2,6,26,276,413.255268476888,413.7997454967658,"[86, 0, 168]",168,l,0.02117709518142874,colour,0.28
020,65,1,2,6,27,277,414.3177166861492,415.0078016938528,"[79, 0, 175]",175,l,0.178956891200869,colour,0.28
020,65,1,2,6,28,278,415.52434007177453,416.6157359562426,"[31, 0, 223]",223,a,0.5682168704688593,colour,0.28
020,65,1,2,6,29,279,417.1339221854987,417.76773133721736,"[87, 0, 167]",167,l,0.11049150395592733,colour,0.28
020,65,1,2,6,30,280,418.28712667345144,419.27174187023274,"[5, 0, 249]",249,a,0.46121562906637337,colour,0.28
020,65,1,2,6,31,281,419.7871187965329,420.64776862654935,"[76, 0, 178]",178,l,0.3372987053498946,colour,0.28
020,65,1,2,6,32,282,421.1665499569922,422.05577527781907,"[3, 0, 251]",251,a,0.36605300220844583,colour,0.28
020,65,1,2,6,33,283,422.57281108313964,423.44774058471967,"[67, 0, 187]",187,l,0.3554069531132882,colour,0.28
020,65,1,2,6,34,284,423.96003566668696,424.85578858981125,"[46, 0, 208]",208,a,0.37252546607714976,colour,0.28
020,65,1,2,6,35,285,425.36627906976764,426.25574109199306,"[72, 0, 182]",182,l,0.36633026973686356,colour,0.28
020,65,1,2,6,36,286,426.7724728482626,427.6877924305968,"[50, 0, 204]",204,a,0.3919731838191183,colour,0.28
020,65,1,2,6,37,287,428.1961837117933,429.1277321091552,"[84, 0, 170]",170,l,0.40830203571067614,colour,0.28
020,65,1,2,6,38,288,429.6493062010254,430.511752362288,"[90, 0, 164]",164,l,0.3393522179826505,colour,0.28
020,65,1,2,6,39,289,431.02430344410413,431.84776358532145,"[59, 0, 195]",195,a,0.30020078265079064,colour,0.28
020,65,1,2,6,40,290,432.368065554866,433.25574699968183,"[39, 0, 215]",215,a,0.36196763846828617,colour,0.28
020,65,1,2,6,41,291,433.7766720334739,434.61577612852625,"[69, 0, 185]",185,l,0.31582228726801986,colour,0.28
020,65,1,2,6,42,292,435.13601547656936,436.0237323675183,"[13, 0, 241]",241,a,0.3643767939679492,colour,0.28
020,65,1,2,6,43,293,436.542254941191,437.3357378939645,"[77, 0, 177]",177,l,0.2701987819136775,colour,0.28
020,65,1,2,6,44,294,437.8548484795974,438.7597705296125,"[99, 0, 155]",155,l,0.38249134326633794,colour,0.28
020,65,1,2,6,45,295,439.2781146910834,440.1197539723303,"[57, 0, 197]",197,a,0.3183011534961224,colour,0.28
020,65,1,2,6,46,296,440.63743332188596,441.4718096905003,"[30, 0, 224]",224,a,0.31108707775774747,colour,0.28
020,65,1,2,6,47,297,441.98133209718253,442.79974982907106,"[60, 0, 194]",194,a,0.2951946071466409,colour,0.28
020,65,1,2,6,48,298,443.309423866433,444.1437250104764,"[22, 0, 232]",232,a,0.3109586839873373,colour,0.28
020,65,1,2,6,49,299,444.65326435253337,445.39184439620294,"[66, 0, 188]",188,l,0.21566175567068058,colour,0.28
020,65,1,2,6,50,300,445.9031540756755,446.7038318057366,"[88, 0, 166]",166,l,0.2772785561924138,colour,0.28
020,65,1,2,7,1,301,451.84496019005473,453.07978451902,"[78, 0, 176]",176,l,0.7107071739824278,colour,0.14
020,65,1,2,7,2,302,453.59580380801754,454.1517870364828,"[19, 0, 235]",235,a,0.03277625140572127,colour,0.14
020,65,1,2,7,3,303,454.6582433526687,455.42375615581204,"[68, 0, 186]",186,l,0.24220618306617325,colour,0.14
020,65,1,2,7,4,304,455.939753389438,456.60775742557144,"[43, 0, 211]",211,a,0.14497822819748762,colour,0.14
020,65,1,2,7,5,305,457.1291881575262,457.7917275815025,"[75, 0, 179]",179,l,0.1392158685243885,colour,0.14
020,65,1,2,7,6,306,458.3010317975445,459.07173312685336,"[56, 0, 198]",198,a,0.24734941695078305,colour,0.14
020,65,1,2,7,7,307,459.5822885913867,460.35971326441586,"[72, 0, 182]",182,l,0.25434175743521337,colour,0.14
020,65,1,2,7,8,308,460.87914286524483,462.11971931388916,"[59, 0, 195]",195,a,0.7172690408747258,colour,0.14
020,65,1,2,7,9,309,462.62917752368594,463.49577797172515,"[90, 0, 164]",164,l,0.34334739100677325,colour,0.14
020,65,1,2,7,10,310,464.0041664960004,464.8317454778612,"[91, 0, 163]",163,l,0.3042999309982406,colour,0.14
020,65,1,2,7,11,311,465.34771592996503,466.0317305904855,"[67, 0, 187]",187,a,0.15891013381315133,colour,0.14
020,65,1,2,7,12,312,466.54198594442687,467.28822826049327,"[61, 0, 193]",193,a,0.22369109246574226,colour,0.14
020,65,1,2,7,13,313,467.80249099668254,468.43985224476455,"[14, 0, 240]",240,a,0.11470368608297576,colour,0.14
020,65,1,2,7,14,314,468.9603976110884,469.72824158823914,"[51, 0, 203]",203,a,0.24489575686175158,colour,0.14
020,65,1,2,7,15,315,470.24191040477945,470.9517688408014,"[63, 0, 191]",191,a,0.18744269541866743,colour,0.14
020,65,1,2,7,16,316,471.46069575245065,472.0557248655414,"[97, 0, 157]",157,l,0.07174848684417157,colour,0.14
020,65,1,2,7,17,317,472.5700080817187,474.05570674862884,"[64, 0, 190]",190,l,0.9642746303361491,colour,0.14
020,65,1,2,7,18,318,474.56864852559875,475.0958183803168,"[96, 0, 158]",158,l,0.0014434453009926074,colour,0.14
020,65,1,2,7,19,319,475.6178528780688,476.2557347904585,"[79, 0, 175]",175,l,0.11444414162087924,colour,0.14
020,65,1,2,7,20,320,476.77422428107366,477.31975168802364,"[85, 0, 169]",169,l,0.022197156117272243,colour,0.14
020,65,1,2,7,21,321,477.8351573650766,478.7357490791883,"[60, 0, 194]",194,a,0.3770661157022914,colour,0.14
020,65,1,2,7,22,322,479.24890392680163,479.9517712038769,"[46, 0, 208]",208,a,0.17964809079239785,colour,0.14
020,65,1,2,7,23,323,480.4683832309861,481.19178563439164,"[55, 0, 199]",199,a,0.19999102031306393,colour,0.14
020,65,1,2,7,24,324,481.70271013255297,482.4237916019447,"[84, 0, 170]",170,l,0.19757713866192717,colour,0.14
020,65,1,2,7,25,325,482.93070399170756,483.66377058632634,"[74, 0, 180]",180,l,0.20975249146931674,colour,0.14
020,65,1,2,7,26,326,484.1721961321182,484.86377420970894,"[26, 0, 228]",228,a,0.16821789446794355,colour,0.14
020,65,1,2,7,27,327,485.37540920591255,485.911774969044,"[99, 0, 155]",155,l,0.013101284568165283,colour,0.14
020,65,1,2,7,28,328,486.4221547782963,487.1037634340846,"[53, 0, 201]",201,a,0.15817679270776352,colour,0.14
020,65,1,2,7,29,329,487.62534658441064,488.2157310725529,"[86, 0, 168]",168,l,0.0673748278891253,colour,0.14
020,65,1,2,7,30,330,488.7346589136787,489.7197293963445,"[52, 0, 202]",202,a,0.46170005954945736,colour,0.14
020,65,1,2,7,31,331,490.234671122902,490.86372576666054,"[54, 0, 200]",200,a,0.10577362366575471,colour,0.14
020,65,1,2,7,32,332,491.3753694274742,494.6157320177831,"[87, 0, 167]",167,l,2.7170315517842027,colour,0.14
020,65,1,2,7,33,333,495.12672977128614,496.28773359001616,"[88, 0, 166]",166,l,0.6376400909944095,colour,0.14
020,65,1,2,7,34,334,496.79861634050985,497.3277152525502,"[95, 0, 159]",159,l,0.005965978014046414,colour,0.14
020,65,1,2,7,35,335,497.84548912512673,498.4236746297065,"[89, 0, 165]",165,l,0.054802478393867204,colour,0.14
020,65,1,2,7,36,336,498.9406738073558,499.96772944675695,"[69, 0, 185]",185,a,0.5034028287591354,colour,0.14
020,65,1,2,7,37,337,500.4875851888728,501.1677019563117,"[83, 0, 171]",171,l,0.15684244272688375,colour,0.14
020,65,1,2,7,38,338,501.67504166889876,502.53570725275176,"[57, 0, 197]",197,a,0.3373455730143178,colour,0.14
020,65,1,2,7,39,339,503.0500432442823,504.7517246512889,"[71, 0, 183]",183,l,1.1784555253429971,colour,0.14
020,65,1,2,7,40,340,505.27019602499195,505.88772398017545,"[98, 0, 156]",156,l,0.0942323627918995,colour,0.14
020,65,1,2,7,41,341,506.39585414152634,507.0557425886077,"[33, 0, 221]",221,a,0.13668895309456275,colour,0.14
020,65,1,2,7,42,342,507.5676052277536,508.6157351685506,"[62, 0, 192]",192,a,0.5241955303213217,colour,0.14
020,65,1,2,7,43,343,509.13104041489305,509.6957036136155,"[94, 0, 160]",160,l,0.04141092938198199,colour,0.14
020,65,1,2,7,44,344,510.2091703871979,511.13577365517403,"[76, 0, 178]",178,l,0.40321984794400123,colour,0.14
020,65,1,2,7,45,345,511.64666113181875,512.6077062256013,"[73, 0, 181]",181,l,0.43804724890742364,colour,0.14
020,65,1,2,7,46,346,513.1154200918136,513.9757560266307,"[80, 0, 174]",174,l,0.3372238746246694,colour,0.14
020,65,1,2,7,47,347,514.47795762533,515.0557158070851,"[58, 0, 196]",196,a,0.05449606626689274,colour,0.14
020,65,1,2,7,48,348,515.5717232807051,516.5517265417493,"[23, 0, 231]",231,a,0.45674114555595224,colour,0.14
020,65,1,2,7,49,349,517.0729071815445,517.919709388972,"[70, 0, 184]",184,l,0.3233935812568234,colour,0.14
020,65,1,2,7,50,350,518.4289001773886,519.295708576074,"[82, 0, 172]",172,l,0.3434092248166962,colour,0.14
020,65,1,2,8,1,351,524.4596524546055,525.5518096432388,"[84, 0, 170]",170,l,0.5680884766984491,colour,0.06
020,65,1,2,8,2,352,526.0586444453547,526.9676971513913,"[90, 0, 164]",164,l,0.3857256059714018,colour,0.06
020,65,1,2,8,3,353,527.4805329838086,528.4877639949214,"[68, 0, 186]",186,l,0.4882058900448101,colour,0.06
020,65,1,2,8,4,354,529.0074011525508,529.8637659389447,"[88, 0, 166]",166,l,0.33183803165275094,colour,0.06
020,65,1,2,8,5,355,530.3835897795411,531.287748950007,"[74, 0, 180]",180,l,0.38074266737658036,colour,0.06
020,65,1,2,8,6,356,531.8054574441608,532.8317604440062,"[66, 0, 188]",188,l,0.5029325767291084,colour,0.06
020,65,1,2,8,7,357,533.3519277182459,534.2076887388425,"[11, 0, 243]",243,a,0.33246464051308067,colour,0.06
020,65,1,2,8,8,358,534.7294329721508,535.5917282904252,"[73, 0, 181]",181,l,0.33900405818803847,colour,0.06
020,65,1,2,8,9,359,536.1044447875283,537.0077225308228,"[69, 0, 185]",185,l,0.3800203539572067,colour,0.06
020,65,1,2,8,10,360,537.5277539282192,538.0877331174011,"[86, 0, 168]",168,l,0.03663318451208397,colour,0.06
020,65,1,2,8,11,361,538.6059827558506,539.2157058664138,"[58, 0, 196]",196,a,0.08654370271869993,colour,0.06
020,65,1,2,8,12,362,539.7309926019984,540.3516650230167,"[80, 0, 174]",174,l,0.09744181320365897,colour,0.06
020,65,1,2,8,13,363,540.8715365189696,541.6477024604346,"[57, 0, 197]",197,a,0.25290264443901833,colour,0.06
020,65,1,2,8,14,364,542.168414817429,543.9516928285384,"[97, 0, 157]",157,l,1.2588705916823528,colour,0.06
020,65,1,2,8,15,365,544.466360438335,545.1596643487524,"[85, 0, 169]",169,l,0.170089450285559,colour,0.06
020,65,1,2,8,16,366,545.6694711121895,546.6477130942744,"[8, 0, 246]",246,a,0.4549219712462218,colour,0.06
020,65,1,2,8,17,367,547.1552186159943,548.4557136015478,"[99, 0, 155]",155,l,0.7770843901530498,colour,0.06
020,65,1,2,8,18,368,548.9678507513008,549.9277076119392,"[72, 0, 182]",182,l,0.43665500357610654,colour,0.06
020,65,1,2,8,19,369,550.4314908958581,551.3116782404859,"[83, 0, 171]",171,l,0.3569705214208625,colour,0.06
020,65,1,2,8,20,370,551.8220828620315,552.7277547946805,"[96, 0, 158]",158,l,0.38232435259624253,colour,0.06
020,65,1,2,8,21,371,553.2494249849551,554.2716910641088,"[61, 0, 193]",193,a,0.499094154381055,colour,0.06
020,65,1,2,8,22,372,554.7806995018641,555.6636803956108,"[62, 0, 192]",192,a,0.35967663674500727,colour,0.06
020,65,1,2,8,23,373,556.1712973757262,557.0876917635792,"[54, 0, 200]",200,a,0.40424817964412796,colour,0.06
020,65,1,2,8,24,374,557.5977261699591,558.4477429477952,"[79, 0, 175]",175,l,0.3267440285080738,colour,0.06
020,65,1,2,8,25,375,558.9570534653717,559.7758544093417,"[77, 0, 177]",177,l,0.2954352470046615,colour,0.06
020,65,1,2,8,26,376,560.2851491730812,561.2316881338952,"[70, 0, 184]",184,l,0.423181140766701,colour,0.06
020,65,1,2,8,27,377,561.7383240438212,562.4636933137567,"[64, 0, 190]",190,a,0.20192992378269992,colour,0.06
020,65,1,2,8,28,378,562.9726978130525,563.8316596194504,"[93, 0, 161]",161,l,0.3356587309335737,colour,0.06
020,65,1,2,8,29,379,564.3476552776933,565.1756919085146,"[59, 0, 195]",195,a,0.3169809819682996,colour,0.06
020,65,1,2,8,30,380,565.6946642542293,566.8558204913311,"[71, 0, 183]",183,l,0.6377866016769076,colour,0.06
020,65,1,2,8,31,381,567.3665697280576,568.391699460904,"[95, 0, 159]",159,l,0.5035556409761739,colour,0.06
020,65,1,2,8,32,382,568.9118257751679,569.7356817315358,"[94, 0, 160]",160,l,0.30040125022424036,colour,0.06
020,65,1,2,8,33,383,570.2555185690476,571.127663579965,"[52, 0, 202]",202,a,0.34632289694127394,colour,0.06
020,65,1,2,8,34,384,571.6486914075426,572.9196664597666,"[91, 0, 163]",163,l,0.7478216382100982,colour,0.06
020,65,1,2,8,35,385,573.4299797090584,574.3037008913525,"[63, 0, 191]",191,a,0.3505173560024559,colour,0.06
020,65,1,2,8,36,386,574.8205220506456,575.7196931625199,"[87, 0, 167]",167,l,0.3758109287514344,colour,0.06
020,65,1,2,8,37,387,576.2267737244906,577.1516976334588,"[92, 0, 162]",162,l,0.3992254626114118,colour,0.06
020,65,1,2,8,38,388,577.6666818953759,578.5276338052136,"[82, 0, 172]",172,l,0.33763544361227105,colour,0.06
020,65,1,2,8,39,389,579.0423041719314,579.9357101672113,"[89, 0, 165]",165,l,0.37008165213637767,colour,0.06
020,65,1,2,8,40,390,580.4485113411874,581.2956526499529,"[50, 0, 204]",204,a,0.3238472917578292,colour,0.06
020,65,1,2,8,41,391,581.8079288273161,582.711728416456,"[78, 0, 176]",176,l,0.38046027985092223,colour,0.06
020,65,1,2,8,42,392,583.2311863741916,584.1036736372143,"[67, 0, 187]",187,a,0.35533763623107006,colour,0.06
020,65,1,2,8,43,393,584.6156347378405,585.5036706439855,"[18, 0, 236]",236,a,0.36489351981663276,colour,0.06
020,65,1,2,8,44,394,586.0116830454058,586.8476694561464,"[98, 0, 156]",156,l,0.3126467076058361,colour,0.06
020,65,1,2,8,45,395,587.3554435807841,588.2156668756679,"[75, 0, 179]",179,l,0.3349864359465755,colour,0.06
020,65,1,2,8,46,396,588.7323174996773,589.5436515188276,"[65, 0, 189]",189,a,0.28821605126904615,colour,0.06
020,65,1,2,8,47,397,590.0604187212298,590.9836955665555,"[51, 0, 203]",203,a,0.3999249329676786,colour,0.06
020,65,1,2,8,48,398,591.4979189181527,592.391708913206,"[53, 0, 201]",201,a,0.36927741876525033,colour,0.06
020,65,1,2,8,49,399,592.905584892701,593.7676557188006,"[76, 0, 178]",178,l,0.33864408301633375,colour,0.06
020,65,1,2,8,50,400,594.2805396004201,595.1756844254419,"[60, 0, 194]",194,a,0.37181260495981405,colour,0.06
020,65,1,2,9,1,401,600.3582107422267,601.431674821903,"[99, 0, 155]",155,l,0.5617782773492763,colour,0.06
020,65,1,2,9,2,402,601.9403276167914,602.7836994262457,"[74, 0, 180]",180,l,0.3200230478632875,colour,0.06
020,65,1,2,9,3,403,603.2996805121888,604.0316384305402,"[76, 0, 178]",178,l,0.20808652322284615,colour,0.06
020,65,1,2,9,4,404,604.5504650532639,605.4476862339825,"[94, 0, 160]",160,l,0.37391140987392646,colour,0.06
020,65,1,2,9,5,405,605.9567127886498,606.9036507153819,"[79, 0, 175]",175,l,0.42360373744031676,colour,0.06
020,65,1,2,9,6,406,607.409797074828,608.3196764634531,"[21, 0, 233]",233,a,0.38651447935171745,colour,0.06
020,65,1,2,9,7,407,608.8317159394173,609.7276429424387,"[85, 0, 169]",169,l,0.3725687891283087,colour,0.06
020,65,1,2,9,8,408,610.2379758840266,611.1356428983281,"[93, 0, 161]",161,l,0.3744663387769833,colour,0.06
020,65,1,2,9,9,409,611.6441976255819,612.6956398105763,"[97, 0, 157]",157,l,0.5280914541740458,colour,0.06
020,65,1,2,9,10,410,613.208156627797,614.1676306701997,"[91, 0, 163]",163,l,0.4360984992890735,colour,0.06
020,65,1,2,9,11,411,614.6769762400636,615.5036513455352,"[78, 0, 176]",176,l,0.30337439308323155,colour,0.06
020,65,1,2,9,12,412,616.0206154708981,616.6956917982379,"[26, 0, 228]",228,a,0.1516125627395013,colour,0.06
020,65,1,2,9,13,413,617.2019665514536,619.3436368677594,"[80, 0, 174]",174,l,1.618415683889907,colour,0.06
020,65,1,2,9,14,414,619.8652731872853,620.7997135952464,"[75, 0, 179]",179,l,0.4115284214967687,colour,0.06
020,65,1,2,9,15,415,621.3183968580552,622.2956057822885,"[84, 0, 170]",170,l,0.454585626829612,colour,0.06
020,65,1,2,9,16,416,622.8027241534674,623.3356740909248,"[88, 0, 166]",166,l,0.00956769896311016,colour,0.06
020,65,1,2,9,17,417,623.8496493195917,625.255743455069,"[57, 0, 197]",197,a,0.8833558350643216,colour,0.06
020,65,1,2,9,18,418,625.7730053279474,626.6636091094988,"[89, 0, 165]",165,l,0.3675220474942762,colour,0.06
020,65,1,2,9,19,419,627.1792585771764,628.0636281716415,"[51, 0, 203]",203,a,0.3610015344238491,colour,0.06
020,65,1,2,9,20,420,628.5699663340511,629.5037119978069,"[56, 0, 198]",198,a,0.41084982497432065,colour,0.06
020,65,1,2,9,21,421,630.0229820910381,630.8956493416472,"[64, 0, 190]",190,a,0.34972375647066656,colour,0.06
020,65,1,2,9,22,422,631.4150946963136,632.559633786309,"[71, 0, 183]",183,l,0.6214349067213334,colour,0.06
020,65,1,2,9,23,423,633.0588756329107,633.9436437994473,"[77, 0, 177]",177,l,0.3614938418249949,colour,0.06
020,65,1,2,9,24,424,634.4665081305557,635.3116896620177,"[50, 0, 204]",204,a,0.32200724361428,colour,0.06
020,65,1,2,9,25,425,635.8258433028868,636.6880437042946,"[68, 0, 186]",186,l,0.3389331659227537,colour,0.06
020,65,1,2,9,26,426,637.2008803244034,638.1276230138355,"[87, 0, 167]",167,l,0.40351641392317106,colour,0.06
020,65,1,2,9,27,427,638.6383037213718,639.519628099174,"[22, 0, 232]",232,a,0.35803823771311727,colour,0.06
020,65,1,2,9,28,428,640.0303312559272,640.8956292555058,"[70, 0, 184]",184,l,0.34193939183933253,colour,0.06
020,65,1,2,9,29,429,641.4052812374957,642.2877099592606,"[54, 0, 200]",200,a,0.3590169448270899,colour,0.06
020,65,1,2,9,30,430,642.7959173144118,643.6156973593424,"[69, 0, 185]",185,l,0.29672548624239425,colour,0.06
020,65,1,2,9,31,431,644.1241150282158,645.0076252508798,"[98, 0, 156]",156,l,0.36019178720925993,colour,0.06
020,65,1,2,9,32,432,645.5147195974578,646.2077048865249,"[73, 0, 181]",181,l,0.16847507585407584,colour,0.06
020,65,1,2,9,33,433,646.7193426396498,647.5916258904863,"[52, 0, 202]",202,a,0.34890298157188226,colour,0.06
020,65,1,2,9,34,434,648.1099448458172,648.727648062436,"[83, 0, 171]",171,l,0.09434067042002425,colour,0.06
020,65,1,2,9,35,435,649.2349960457868,650.8396334239706,"[59, 0, 195]",195,a,1.0813642350094597,colour,0.06
020,65,1,2,9,36,436,651.3479896528797,652.2156030726283,"[72, 0, 182]",182,l,0.34442849806055165,colour,0.06
020,65,1,2,9,37,437,652.722914822155,653.5356261204915,"[92, 0, 162]",162,l,0.28940270902967313,colour,0.06
020,65,1,2,9,38,438,654.0510085606347,655.6636189556466,"[66, 0, 188]",188,l,1.0891379658014557,colour,0.06
020,65,1,2,9,39,439,656.1680705960935,656.8396255470525,"[90, 0, 164]",164,l,0.14816956169670448,colour,0.06
020,65,1,2,9,40,440,657.3555719745546,657.9676199575906,"[63, 0, 191]",191,a,0.09610982629783393,colour,0.06
020,65,1,2,9,41,441,658.4888391942859,659.0876720712831,"[95, 0, 159]",159,l,0.07539195546087285,colour,0.06
020,65,1,2,9,42,442,659.5983283603728,660.3596671844434,"[67, 0, 187]",187,a,0.2381314531658063,colour,0.06
020,65,1,2,9,43,443,660.8795729449912,661.479666916628,"[86, 0, 168]",168,l,0.07677711156611622,colour,0.06
020,65,1,2,9,44,444,661.9888451019751,663.3117345604524,"[65, 0, 189]",189,a,0.7973591843292525,colour,0.06
020,65,1,2,9,45,445,663.8190333130633,664.6716333262966,"[53, 0, 201]",201,a,0.32935365158118657,colour,0.06
020,65,1,2,9,46,446,665.178456313035,666.02362209066,"[61, 0, 193]",193,a,0.3219461974958904,colour,0.06
020,65,1,2,9,47,447,666.5378151161221,667.3596281936971,"[62, 0, 192]",192,a,0.2970976706383226,colour,0.06
020,65,1,2,9,48,448,667.8685681022616,668.6636792140725,"[82, 0, 172]",172,l,0.27177692251916596,colour,0.06
020,65,1,2,9,49,449,669.1686357649905,670.1356803136905,"[81, 0, 173]",173,l,0.4437166609423002,colour,0.06
020,65,1,2,9,50,450,670.6529669988631,671.5756136907148,"[58, 0, 196]",196,a,0.3992085272366239,colour,0.06
020,65,1,2,10,1,451,676.9973297246543,680.111588758692,"[76, 0, 178]",178,l,2.590271060515988,colour,0.06
020,65,1,2,10,2,452,680.6229661796633,681.3756140057912,"[90, 0, 164]",164,l,0.22918484921956406,colour,0.06
020,65,1,2,10,3,453,681.8887267118907,684.3595781752647,"[67, 0, 187]",187,a,1.9473971510760748,colour,0.06
020,65,1,2,10,4,454,684.874637267907,685.8396342116621,"[73, 0, 181]",181,l,0.44167260061112756,colour,0.06
020,65,1,2,10,5,455,686.3609188267801,687.1515775104526,"[56, 0, 198]",198,a,0.26724887596355984,colour,0.06
020,65,1,2,10,6,456,687.6578569898202,688.5516280802694,"[91, 0, 163]",163,l,0.3704727411359272,colour,0.06
020,65,1,2,10,7,457,689.0640940913663,689.9115855291557,"[79, 0, 175]",175,l,0.32423838075737876,colour,0.06
020,65,1,2,10,8,458,690.4233894852596,691.2316129093242,"[94, 0, 160]",160,l,0.2835312540364612,colour,0.06
020,65,1,2,10,9,459,691.7530042566868,692.4236163405103,"[28, 0, 226]",226,a,0.14732830680986808,colour,0.06
020,65,1,2,10,10,460,692.9403874813715,693.7995895337808,"[57, 0, 197]",197,a,0.33580287854056223,colour,0.06
020,65,1,2,10,11,461,694.3154678259389,695.1195976154995,"[99, 0, 155]",155,l,0.2812500984618964,colour,0.06
020,65,1,2,10,12,462,695.6279306074994,696.5755932107268,"[63, 0, 191]",191,a,0.42433668469948316,colour,0.06
020,65,1,2,10,13,463,697.0830880986068,697.6475764297393,"[96, 0, 158]",158,l,0.04203556901211414,colour,0.06
020,65,1,2,10,14,464,698.1605245082446,699.0396067212168,"[13, 0, 241]",241,a,0.3557712605897905,colour,0.06
020,65,1,2,10,15,465,699.5511688559254,700.7436157576176,"[61, 0, 193]",193,l,0.6690284293736113,colour,0.06
020,65,1,2,10,16,466,701.2543366374384,702.0475746180482,"[71, 0, 183]",183,l,0.2707131446859421,colour,0.06
020,65,1,2,10,17,467,702.5668254128295,703.4235623836184,"[44, 0, 210]",210,a,0.3340423872732572,colour,0.06
020,65,1,2,10,18,468,703.9418478620473,704.7916499938565,"[86, 0, 168]",168,l,0.32667313624278904,colour,0.06
020,65,1,2,10,19,469,705.3010833913604,706.1995908728577,"[69, 0, 185]",185,l,0.3751299691539316,colour,0.06
020,65,1,2,10,20,470,706.7074181666949,707.6155792055661,"[51, 0, 203]",203,a,0.38482291111995437,colour,0.06
020,65,1,2,10,21,471,708.1305748890145,709.0077906661672,"[65, 0, 189]",189,l,0.3663869835500009,colour,0.06
020,65,1,2,10,22,472,709.5210372798801,710.3676086935975,"[53, 0, 201]",201,a,0.3232734582506964,colour,0.06
020,65,1,2,10,23,473,710.8804149875705,711.5596125186294,"[75, 0, 179]",179,l,0.15595471402048133,colour,0.06
020,65,1,2,10,24,474,712.0693991959242,712.6716128463086,"[77, 0, 177]",177,l,0.07896138104388228,colour,0.06
020,65,1,2,10,25,475,713.1696077767247,713.8556637406546,"[50, 0, 204]",204,a,0.16113733249767392,colour,0.06
020,65,1,2,10,26,476,714.3742442096773,714.9596319746179,"[58, 0, 196]",196,a,0.057607449044553505,colour,0.06
020,65,1,2,10,27,477,715.4722519794695,716.1756210162484,"[82, 0, 172]",172,l,0.1923630125111231,colour,0.06
020,65,1,2,10,28,478,716.6942735590756,717.3995724408678,"[80, 0, 174]",174,l,0.18198202172061428,colour,0.06
020,65,1,2,10,29,479,717.898479518437,718.4716446690591,"[88, 0, 166]",166,l,0.04999125662016013,colour,0.06
020,65,1,2,10,30,480,718.9931191179112,719.6476252666343,"[64, 0, 190]",190,a,0.13112115330750385,colour,0.06
020,65,1,2,10,31,481,720.1649796933043,720.8955615140067,"[93, 0, 161]",161,l,0.2103905218609725,colour,0.06
020,65,1,2,10,32,482,721.4118454674635,722.0635876055112,"[81, 0, 173]",173,l,0.12924368980020517,colour,0.06
020,65,1,2,10,33,483,722.5836300305946,723.2156137064685,"[84, 0, 170]",170,l,0.10864357889386156,colour,0.06
020,65,1,2,10,34,484,723.7134258923761,725.6635831156682,"[95, 0, 159]",159,l,1.4272700491210344,colour,0.06
020,65,1,2,10,35,485,726.1821659477664,726.7435779484094,"[83, 0, 171]",171,l,0.03826488816321216,colour,0.06
020,65,1,2,10,36,486,727.2613849040436,727.7916082461888,"[85, 0, 169]",169,l,0.0072298295754080755,colour,0.06
020,65,1,2,10,37,487,728.3195193189304,728.9115804091589,"[97, 0, 157]",157,l,0.06874856246213312,colour,0.06
020,65,1,2,10,38,488,729.4288525220318,730.1755772993511,"[52, 0, 202]",202,a,0.21855888626669184,colour,0.06
020,65,1,2,10,39,489,730.6836601991918,731.3355811432875,"[78, 0, 176]",176,l,0.12858951172529487,colour,0.06
020,65,1,2,10,40,490,731.8554955684458,732.6876305599235,"[89, 0, 165]",165,l,0.30874330068127165,colour,0.06
020,65,1,2,10,41,491,733.1948308510537,733.8955504863216,"[59, 0, 195]",195,a,0.17737441829012823,colour,0.06
020,65,1,2,10,42,492,734.4135204941667,735.0075866539801,"[66, 0, 188]",188,a,0.07073472744286846,colour,0.06
020,65,1,2,10,43,493,735.5229521587489,736.1755776931977,"[60, 0, 194]",194,a,0.13656883008934528,colour,0.06
020,65,1,2,10,44,494,736.6878085782791,737.2236280771185,"[98, 0, 156]",156,l,0.01254753720240842,colour,0.06
020,65,1,2,10,45,495,737.7345962921772,739.5195698099778,"[87, 0, 167]",167,l,1.2699943758807422,colour,0.06
020,65,1,2,10,46,496,740.0386551894717,741.1675680486987,"[70, 0, 184]",184,l,0.6055577961014933,colour,0.06
020,65,1,2,10,47,497,741.6668480983544,742.5595506848194,"[54, 0, 200]",200,a,0.36947828018492146,colour,0.06
020,65,1,2,10,48,498,743.0709151088749,743.8475914746541,"[74, 0, 180]",180,l,0.25341306875270675,colour,0.06
020,65,1,2,10,49,499,744.3677752904223,745.2315624970461,"[72, 0, 182]",182,l,0.35203169356827857,colour,0.06
020,65,1,2,10,50,500,745.7468862541473,746.8955823878405,"[68, 0, 186]",186,l,0.625422596673161,colour,0.06
020,65,1,2,11,1,501,752.1293618435775,753.6156118947774,"[9, 0, 245]",245,a,0.9620529454950884,colour,0.06
020,65,1,2,11,2,502,754.1240405913359,754.7275771701698,"[84, 0, 170]",170,l,0.0802240510674892,colour,0.06
020,65,1,2,11,3,503,755.2340189140568,756.0955812850725,"[57, 0, 197]",197,a,0.3381498063854451,colour,0.06
020,65,1,2,11,4,504,756.608994889456,757.2716103256953,"[96, 0, 158]",158,l,0.13925328388722846,colour,0.06
020,65,1,2,11,5,505,757.7808688556097,758.6235990900586,"[24, 0, 230]",230,a,0.319435035902643,colour,0.06
020,65,1,2,11,6,506,759.1277821275871,759.7115598504015,"[85, 0, 169]",169,l,0.060433687373915745,colour,0.06
020,65,1,2,11,7,507,760.2215284845124,761.0555681148644,"[60, 0, 194]",194,a,0.31074246257685445,colour,0.06
020,65,1,2,11,8,508,761.5652488476071,762.1356011506605,"[88, 0, 166]",166,l,0.04745134427503217,colour,0.06
020,65,1,2,11,9,509,762.6433902414437,763.5676237385114,"[89, 0, 165]",165,l,0.4008260524351499,colour,0.06
020,65,1,2,11,10,510,764.0809814167742,764.9035806108077,"[55, 0, 199]",199,a,0.2993465308472878,colour,0.06
020,65,1,2,11,11,511,765.4246856321861,766.1995325836606,"[71, 0, 183]",183,l,0.25016462759504066,colour,0.06
020,65,1,2,11,12,512,766.7072413298765,767.5275589744888,"[95, 0, 159]",159,l,0.2972595413111776,colour,0.06
020,65,1,2,11,13,513,768.037299177965,768.863576105211,"[59, 0, 195]",195,a,0.310086709117968,colour,0.06
020,65,1,2,11,14,514,769.3783969210699,770.0635919378165,"[50, 0, 204]",204,a,0.16190375665973988,colour,0.06
020,65,1,2,11,15,515,770.5814749057135,771.2876508823729,"[51, 0, 203]",203,a,0.18292173808913503,colour,0.06
020,65,1,2,11,16,516,771.8002354410919,772.415578732951,"[73, 0, 181]",181,l,0.09188701033144753,colour,0.06
020,65,1,2,11,17,517,772.9127434361644,773.5436306449938,"[72, 0, 182]",182,l,0.10624899569302215,colour,0.06
020,65,1,2,11,18,518,774.0547434015052,774.9595532054336,"[63, 0, 191]",191,a,0.38150869769378914,colour,0.06
020,65,1,2,11,19,519,775.473518194106,776.2875851101035,"[82, 0, 172]",172,l,0.29087057277774875,colour,0.06
020,65,1,2,11,20,520,776.8016079941272,777.5115774946989,"[53, 0, 201]",201,a,0.186642400506571,colour,0.06
020,65,1,2,11,21,521,778.020296455702,778.5995760642509,"[79, 0, 175]",175,l,0.05582569009675353,colour,0.06
020,65,1,2,11,22,522,779.1140636864611,779.7355746054454,"[74, 0, 180]",180,l,0.09819287737536797,colour,0.06
020,65,1,2,11,23,523,780.2547883787101,780.8636316374859,"[99, 0, 155]",155,l,0.08567290938754013,colour,0.06
020,65,1,2,11,24,524,781.3796922803049,781.9915713034416,"[86, 0, 168]",168,l,0.08848142465103592,colour,0.06
020,65,1,2,11,25,525,782.5047564771903,783.8955524555504,"[65, 0, 189]",189,l,0.8657639193024806,colour,0.06
020,65,1,2,11,26,526,784.412615830086,785.0315907751838,"[68, 0, 186]",186,a,0.09392240605211555,colour,0.06
020,65,1,2,11,27,527,785.5393381182994,786.8075913013618,"[61, 0, 193]",193,a,0.7449189937706251,colour,0.06
020,65,1,2,11,28,528,787.3205827029178,787.8875983433263,"[97, 0, 157]",157,l,0.043610165005702584,colour,0.06
020,65,1,2,11,29,529,788.3981900416848,789.3835413364923,"[69, 0, 185]",185,l,0.46238810837348865,colour,0.06
020,65,1,2,11,30,530,789.9001919605025,790.4955613564689,"[58, 0, 196]",196,a,0.0720426897478319,colour,0.06
020,65,1,2,11,31,531,791.0095066528456,791.639516372963,"[80, 0, 174]",174,l,0.10662630008573615,colour,0.06
020,65,1,2,11,32,532,792.1501734497442,792.7035836828063,"[94, 0, 160]",160,l,0.030084708380854863,colour,0.06
020,65,1,2,11,33,533,793.2127224835613,794.0235964906751,"[78, 0, 176]",176,l,0.2876114977798352,colour,0.06
020,65,1,2,11,34,534,794.5407878651349,796.2395359077209,"[83, 0, 171]",171,l,1.1757714653904259,colour,0.06
020,65,1,2,11,35,535,796.7458224763141,797.5195544499866,"[92, 0, 162]",162,l,0.2505482335227498,colour,0.06
020,65,1,2,11,36,536,798.026998137897,798.8155788904887,"[76, 0, 178]",178,l,0.27778346666309517,colour,0.06
020,65,1,2,11,37,537,799.3270839175384,799.9115622922463,"[90, 0, 164]",164,l,0.07377443026234687,colour,0.06
020,65,1,2,11,38,538,800.4239475649292,801.3915446794572,"[93, 0, 161]",161,l,0.4446536203895448,colour,0.06
020,65,1,2,11,39,539,801.9082988849441,804.007567749376,"[91, 0, 163]",163,l,1.5759846935725363,colour,0.06
020,65,1,2,11,40,540,804.5176470541901,805.2875725070344,"[62, 0, 192]",192,a,0.24517932592516445,colour,0.06
020,65,1,2,11,41,541,805.8021073907548,806.7115334627251,"[64, 0, 190]",190,a,0.3860304427144001,colour,0.06
020,65,1,2,11,42,542,807.2240349199546,808.0875267421379,"[52, 0, 202]",202,a,0.3423182716151132,colour,0.06
020,65,1,2,11,43,543,808.5968100843465,809.56757372008,"[98, 0, 156]",156,l,0.4481639690848169,colour,0.06
020,65,1,2,11,44,544,810.0812074843334,811.0395610350906,"[81, 0, 173]",173,l,0.43502329992497835,colour,0.06
020,65,1,2,11,45,545,811.5499672320193,812.495588137991,"[56, 0, 198]",198,a,0.42292592860940204,colour,0.06
020,65,1,2,11,46,546,813.0030952350944,813.9195459429147,"[22, 0, 232]",232,a,0.39306138009942515,colour,0.06
020,65,1,2,11,47,547,814.426478418819,815.3675311059515,"[66, 0, 188]",188,l,0.41784334699786996,colour,0.06
020,65,1,2,11,48,548,815.8794390373778,816.8875526572001,"[77, 0, 177]",177,l,0.48469554134953796,colour,0.06
020,65,1,2,11,49,549,817.3950896865936,818.3755884058064,"[67, 0, 187]",187,l,0.45715665300303954,colour,0.06
020,65,1,2,11,50,550,818.8871265159132,819.7995678722555,"[87, 0, 167]",167,l,0.38910874243447324,colour,0.06
020,65,1,2,12,1,551,824.9884347145253,826.711514558121,"[43, 0, 211]",211,a,1.1989142455649926,colour,0.06
020,65,1,2,12,2,552,827.2250770362625,828.1915579914494,"[64, 0, 190]",190,a,0.44316488280765043,colour,0.06
020,65,1,2,12,3,553,828.7093424978657,829.5755691861259,"[84, 0, 170]",170,l,0.3429850527600138,colour,0.06
020,65,1,2,12,4,554,830.0843558886272,831.0075039463363,"[51, 0, 203]",203,a,0.3998697945380627,colour,0.06
020,65,1,2,12,5,555,831.5218100055772,832.4475255448469,"[81, 0, 173]",173,l,0.4016980273045192,colour,0.06
020,65,1,2,12,6,556,832.9607871247044,833.8475859608106,"[73, 0, 181]",181,l,0.36442484317012713,colour,0.06
020,65,1,2,12,7,557,834.3660695437375,834.9675191330352,"[80, 0, 174]",174,l,0.07838951676694705,colour,0.06
020,65,1,2,12,8,558,835.4754582791138,836.6074986688009,"[97, 0, 157]",157,l,0.6087763049690693,colour,0.06
020,65,1,2,12,9,559,837.1163066389818,837.9915240419305,"[88, 0, 166]",166,l,0.35245153332107293,colour,0.06
020,65,1,2,12,10,560,838.5069714666506,839.639560877552,"[60, 0, 194]",194,a,0.6091819662678972,colour,0.06
020,65,1,2,12,11,561,840.1476347189364,841.0395440997154,"[76, 0, 178]",178,l,0.3685019361464583,colour,0.06
020,65,1,2,12,12,562,841.5539293219863,842.4474861602548,"[59, 0, 195]",195,a,0.3701789320793978,colour,0.06
020,65,1,2,12,13,563,842.9478441661968,843.8474997085541,"[94, 0, 160]",160,l,0.379090877582712,colour,0.06
020,65,1,2,12,14,564,844.3683873269838,845.3195240450814,"[53, 0, 201]",201,a,0.42784624570322194,colour,0.06
020,65,1,2,12,15,565,845.837105327003,846.6395289760321,"[79, 0, 175]",175,l,0.27910009357765375,colour,0.06
020,65,1,2,12,16,566,847.1495728347145,848.0395366166431,"[70, 0, 184]",184,l,0.36720657691148517,colour,0.06
020,65,1,2,12,17,567,848.555754010139,849.4874753058612,"[61, 0, 193]",193,a,0.40863641089799785,colour,0.06
020,65,1,2,12,18,568,850.0091041423138,850.8794748773562,"[63, 0, 191]",191,a,0.34708971495001606,colour,0.06
020,65,1,2,12,19,569,851.3996724777326,852.2155266665195,"[98, 0, 156]",156,l,0.3037997466781235,colour,0.06
020,65,1,2,12,20,570,852.7322395181845,853.60752387494,"[99, 0, 155]",155,l,0.3521644196443958,colour,0.06
020,65,1,2,12,21,571,854.1228287274371,855.3195157743166,"[69, 0, 185]",185,l,0.6734205990860573,colour,0.06
020,65,1,2,12,22,572,855.8259559428197,856.7275306963511,"[91, 0, 163]",163,l,0.3783051549698939,colour,0.06
020,65,1,2,12,23,573,857.2490744620854,858.103572812659,"[75, 0, 179]",179,l,0.33141819190041133,colour,0.06
020,65,1,2,12,24,574,858.6239543390793,859.4476106155653,"[89, 0, 165]",165,l,0.30022835186446173,colour,0.06
020,65,1,2,12,25,575,859.9677613482763,860.6876600983669,"[57, 0, 197]",197,a,0.19667168688920356,colour,0.06
020,65,1,2,12,26,576,861.2022780835778,861.8795311973236,"[85, 0, 169]",169,l,0.15186186720802652,colour,0.06
020,65,1,2,12,27,577,862.3921949190726,863.3275088772871,"[62, 0, 192]",192,a,0.41199670429705293,colour,0.06
020,65,1,2,12,28,578,863.8452492729602,864.65551833274,"[74, 0, 180]",180,l,0.2868809135961783,colour,0.06
020,65,1,2,12,29,579,865.1733965744861,866.111576155623,"[37, 0, 217]",217,a,0.4148792625946953,colour,0.06
020,65,1,2,12,30,580,866.6266458821046,867.4715091860626,"[92, 0, 162]",162,l,0.32152950851195783,colour,0.06
020,65,1,2,12,31,581,867.9873721182294,868.7995017061412,"[83, 0, 171]",171,l,0.28873907865272486,colour,0.06
020,65,1,2,12,32,582,869.3155690443409,870.0875121698391,"[82, 0, 172]",172,l,0.2487507207379167,colour,0.06
020,65,1,2,12,33,583,870.5968266258751,871.1674999133538,"[72, 0, 182]",182,l,0.04774554717732826,colour,0.06
020,65,1,2,12,34,584,871.6658264620346,872.2075091451024,"[86, 0, 168]",168,l,0.018658844361198135,colour,0.06
020,65,1,2,12,35,585,872.7283006651269,873.4236395774196,"[77, 0, 177]",177,l,0.17741971057057526,colour,0.06
020,65,1,2,12,36,586,873.9423819171161,874.5995358919663,"[95, 0, 159]",159,l,0.13388713321091927,colour,0.06
020,65,1,2,12,37,587,875.1141499387177,875.7514871621988,"[78, 0, 176]",176,l,0.11398649266084249,colour,0.06
020,65,1,2,12,38,588,876.2703736495023,876.8555290453496,"[90, 0, 164]",164,l,0.06179481887829752,colour,0.06
020,65,1,2,12,39,589,877.351656752252,878.0635190763214,"[54, 0, 200]",200,a,0.188411162538614,colour,0.06
020,65,1,2,12,40,590,878.5826095758121,879.5195520869111,"[71, 0, 183]",183,l,0.41379500477341935,colour,0.06
020,65,1,2,12,41,591,880.0372558549134,881.6795236354819,"[67, 0, 187]",187,a,1.118834342104492,colour,0.06
020,65,1,2,12,42,592,882.1935362795111,883.1035164926916,"[58, 0, 196]",196,a,0.38678111303943297,colour,0.06
020,65,1,2,12,43,593,883.6153121780308,884.4315373696763,"[66, 0, 188]",188,a,0.2930729591689669,colour,0.06
020,65,1,2,12,44,594,884.943425608807,885.703478132099,"[24, 0, 230]",230,a,0.24918946509387752,colour,0.06
020,65,1,2,12,45,595,886.215631823381,887.0875184713741,"[65, 0, 189]",189,l,0.34875292627566523,colour,0.06
020,65,1,2,12,46,596,887.6061942511096,888.5035402809854,"[55, 0, 199]",199,a,0.3803476399170904,colour,0.06
020,65,1,2,12,47,597,889.014716052845,889.7594782959395,"[87, 0, 167]",167,l,0.22147058916198148,colour,0.06
020,65,1,2,12,48,598,890.2803414959217,890.9674762038294,"[96, 0, 158]",158,l,0.16380091246173833,colour,0.06
020,65,1,2,12,49,599,891.4834387790152,892.2315191739954,"[52, 0, 202]",202,a,0.22487105484560743,colour,0.06
020,65,1,2,12,50,600,892.7491418097379,893.3354929218012,"[56, 0, 198]",198,a,0.07045667222246266,colour,0.06
020,65,1,2,13,1,601,898.3202231215919,899.743459794633,"[54, 0, 200]",200,a,0.8990210565780217,colour,0.06
020,65,1,2,13,2,602,900.2585756010876,900.9274921782198,"[24, 0, 230]",230,a,0.15272635900419118,colour,0.06
020,65,1,2,13,3,603,901.4388948053302,901.983453351314,"[90, 0, 164]",164,l,0.0201089850434073,colour,0.06
020,65,1,2,13,4,604,902.5029117028953,903.3435210770585,"[69, 0, 185]",185,l,0.31737246481407055,colour,0.06
020,65,1,2,13,5,605,903.8621692875804,904.6635197064743,"[71, 0, 183]",183,l,0.27793391580507887,colour,0.06
020,65,1,2,13,6,606,905.1753524133301,906.0235669522317,"[95, 0, 159]",159,l,0.3248693219238703,colour,0.06
020,65,1,2,13,7,607,906.5366520891166,907.7034946736276,"[62, 0, 192]",192,l,0.6447765790853737,colour,0.06
020,65,1,2,13,8,608,908.2228931606296,908.8395109378889,"[87, 0, 167]",167,l,0.09332651717340923,colour,0.06
020,65,1,2,13,9,609,909.3479349082972,909.9834513820842,"[58, 0, 196]",196,a,0.11230161980984121,colour,0.06
020,65,1,2,13,10,610,910.5040798498976,911.4794987444193,"[67, 0, 187]",187,l,0.45188148073430057,colour,0.06
020,65,1,2,13,11,611,911.9885189975521,912.7434834253881,"[51, 0, 203]",203,a,0.2316873462032163,colour,0.06
020,65,1,2,13,12,612,913.2555051782865,913.9834746189936,"[56, 0, 198]",198,a,0.2046289498803162,colour,0.06
020,65,1,2,13,13,613,914.4899136059594,915.1434701921653,"[53, 0, 201]",201,a,0.13027399073052948,colour,0.06
020,65,1,2,13,14,614,915.6616914737087,916.2475329491499,"[85, 0, 169]",169,l,0.06252264614067826,colour,0.06
020,65,1,2,13,15,615,916.7554161691078,917.6395045575855,"[61, 0, 193]",193,a,0.36076010687429516,colour,0.06
020,65,1,2,13,16,616,918.1460211321973,918.9114843107545,"[66, 0, 188]",188,l,0.24203682932056836,colour,0.06
020,65,1,2,13,17,617,919.4303593765262,920.2314636417204,"[91, 0, 163]",163,l,0.27777086359401437,colour,0.06
020,65,1,2,13,18,618,920.7457933317164,921.5516469848735,"[96, 0, 158]",158,l,0.2825257654003508,colour,0.06
020,65,1,2,13,19,619,922.0589095036603,922.831474118022,"[72, 0, 182]",182,l,0.2492020681638678,colour,0.06
020,65,1,2,13,20,620,923.3504488268118,924.0720395389799,"[88, 0, 166]",166,l,0.1982691259454441,colour,0.06
020,65,1,2,13,21,621,924.5847950268289,925.2475081368566,"[83, 0, 171]",171,l,0.14859924759639398,colour,0.06
020,65,1,2,13,22,622,925.7630993153389,926.6154642025567,"[60, 0, 194]",194,a,0.3293910669444813,colour,0.06
020,65,1,2,13,23,623,927.1224273984435,927.9034766354844,"[70, 0, 184]",184,l,0.263641641171489,colour,0.06
020,65,1,2,13,24,624,928.4135539710696,929.4315121635373,"[63, 0, 191]",191,l,0.49468229237209016,colour,0.06
020,65,1,2,13,25,625,929.9447505064863,930.5594333187346,"[74, 0, 180]",180,l,0.09136831525302114,colour,0.06
020,65,1,2,13,26,626,931.0711837117933,931.7514777098968,"[97, 0, 157]",157,l,0.1569397226694491,colour,0.06
020,65,1,2,13,27,627,932.2586492502751,933.0314545044948,"[68, 0, 186]",186,l,0.24941474496154115,colour,0.06
020,65,1,2,13,28,628,933.5395118043498,934.1914599238144,"[80, 0, 174]",174,l,0.1286690686010843,colour,0.06
020,65,1,2,13,29,629,934.7114030997254,935.3035224791502,"[75, 0, 179]",179,l,0.0688537193236698,colour,0.06
020,65,1,2,13,30,630,935.8206811643977,936.4154649114798,"[99, 0, 155]",155,l,0.07172406839708856,colour,0.06
020,65,1,2,13,31,631,936.930055721321,937.5194626838866,"[32, 0, 222]",222,a,0.06605426251553581,colour,0.06
020,65,1,2,13,32,632,938.0374657747898,938.583528024501,"[78, 0, 176]",176,l,0.02272451580665802,colour,0.06
020,65,1,2,13,33,633,939.0998805071476,939.8394731286808,"[82, 0, 172]",172,l,0.21634862295741186,colour,0.06
020,65,1,2,13,34,634,940.3533042097406,941.1515180397191,"[98, 0, 156]",156,l,0.2748788529952435,colour,0.06
020,65,1,2,13,35,635,941.6658217358836,942.2954762069803,"[77, 0, 177]",177,l,0.10649475554782839,colour,0.06
020,65,1,2,13,36,636,942.80649837893,944.2475258599234,"[59, 0, 195]",195,a,0.9169158398526633,colour,0.06
020,65,1,2,13,37,637,944.7552554799722,945.4634451908269,"[76, 0, 178]",178,l,0.18503472145675914,colour,0.06
020,65,1,2,13,38,638,945.9672497424253,946.8875176049132,"[55, 0, 199]",199,a,0.3969474578034351,colour,0.06
020,65,1,2,13,39,639,947.4066774212861,947.9435441564292,"[86, 0, 168]",168,l,0.013602256579360983,colour,0.06
020,65,1,2,13,40,640,948.4607694016377,949.2554862736824,"[23, 0, 231]",231,a,0.2714047381241471,colour,0.06
020,65,1,2,13,41,641,949.7731435678661,950.4314530866495,"[79, 0, 175]",175,l,0.1356180860348104,colour,0.06
020,65,1,2,13,42,642,950.9450754293712,951.5674658062972,"[84, 0, 170]",170,l,0.09898883998175734,colour,0.06
020,65,1,2,13,43,643,952.0870068655222,952.7914739447297,"[73, 0, 181]",181,l,0.18101000998831296,colour,0.06
020,65,1,2,13,44,644,953.2969645507164,954.1754733240286,"[52, 0, 202]",202,a,0.3555940299265785,colour,0.06
020,65,1,2,13,45,645,954.6875328861342,955.6714478248678,"[81, 0, 173]",173,l,0.46048937718751404,colour,0.06
020,65,1,2,13,46,646,956.1876018091707,957.5834799752984,"[65, 0, 189]",189,l,0.8728641735697238,colour,0.06
020,65,1,2,13,47,647,958.0958010510958,959.0154828708537,"[64, 0, 190]",190,l,0.396384258136095,colour,0.06
020,65,1,2,13,48,648,959.533272103421,960.2394303570136,"[57, 0, 197]",197,a,0.18294458115269663,colour,0.06
020,65,1,2,13,49,649,960.7520775372341,961.4314160651329,"[92, 0, 162]",162,l,0.1561169785400125,colour,0.06
020,65,1,2,13,50,650,961.9395107803512,962.759455452876,"[50, 0, 204]",204,a,0.29694761534210556,colour,0.06
020,65,1,2,14,1,651,968.0834531937753,969.575448669274,"[58, 0, 196]",196,a,0.9678420866903252,colour,0.06
020,65,1,2,14,2,652,970.0857697954843,970.7274428687106,"[88, 0, 166]",166,l,0.11839638543915498,colour,0.06
020,65,1,2,14,3,653,971.2419990201115,972.0074417186806,"[85, 0, 169]",169,l,0.2421183554251911,colour,0.06
020,65,1,2,14,4,654,972.5231735001562,973.8794504589096,"[64, 0, 190]",190,l,0.8329408002318814,colour,0.06
020,65,1,2,14,5,655,974.3982495124192,975.1594481273414,"[63, 0, 191]",191,a,0.23829371768442797,colour,0.06
020,65,1,2,14,6,656,975.6793767309528,976.5674224832464,"[80, 0, 174]",174,l,0.3646461845783051,colour,0.06
020,65,1,2,14,7,657,977.0856217094179,977.9914732358066,"[94, 0, 160]",160,l,0.3824700755867525,colour,0.06
020,65,1,2,14,8,658,978.5075854724419,979.4314897143204,"[72, 0, 182]",182,l,0.3991904103249908,colour,0.06
020,65,1,2,14,9,659,979.9484538396828,980.71147989968,"[59, 0, 195]",195,a,0.23977418450249388,colour,0.06
020,65,1,2,14,10,660,981.2296842458481,982.0554377518647,"[1, 0, 253]",253,a,0.30225114451604895,colour,0.06
020,65,1,2,14,11,661,982.573379008958,983.2394276000923,"[75, 0, 179]",179,l,0.1427486664379103,colour,0.06
020,65,1,2,14,12,662,983.7609776673607,984.7114649335344,"[56, 0, 198]",198,a,0.42724563067258714,colour,0.06
020,65,1,2,14,13,663,985.2311710142003,985.9914188850698,"[66, 0, 188]",188,l,0.23700977998214512,colour,0.06
020,65,1,2,14,14,664,986.5124754633989,987.3754493781962,"[93, 0, 161]",161,l,0.3479884713424326,colour,0.06
020,65,1,2,14,15,665,987.8954591140673,988.5594565556439,"[91, 0, 163]",163,l,0.13941830532803579,colour,0.06
020,65,1,2,14,16,666,989.0692306298697,989.8794654250541,"[70, 0, 184]",184,l,0.28668517217374756,colour,0.06
020,65,1,2,14,17,667,990.3975323189961,991.0234275307757,"[76, 0, 178]",178,l,0.10358856649600057,colour,0.06
020,65,1,2,14,18,668,991.537166058044,992.287448051723,"[82, 0, 172]",172,l,0.22691669055984676,colour,0.06
020,65,1,2,14,19,669,992.8028021349601,993.3754734027971,"[77, 0, 177]",177,l,0.04932880778051185,colour,0.06
020,65,1,2,14,20,670,993.8989304720171,996.0954198082445,"[81, 0, 173]",173,l,1.6733607345067867,colour,0.06
020,65,1,2,14,21,671,996.6020813181549,997.2154833434688,"[92, 0, 162]",162,l,0.09021907285568886,colour,0.06
020,65,1,2,14,22,672,997.7270718658528,998.743440890029,"[9, 0, 245]",245,a,0.4949875229613099,colour,0.06
020,65,1,2,14,23,673,999.2563669131623,999.8558153713338,"[79, 0, 175]",175,l,0.07350385811423621,colour,0.06
020,65,1,2,14,24,674,1000.3683258870196,1001.2154270235014,"[68, 0, 186]",186,l,0.3237523748903186,colour,0.06
020,65,1,2,14,25,675,1001.7283467450998,1002.351411386243,"[52, 0, 202]",202,a,0.09959615039224445,colour,0.06
020,65,1,2,14,26,676,1002.8690450496724,1003.4314952281629,"[96, 0, 158]",158,l,0.04163384617277188,colour,0.06
020,65,1,2,14,27,677,1003.9457768689563,1004.7914802462637,"[62, 0, 192]",192,a,0.32238533569761785,colour,0.06
020,65,1,2,14,28,678,1005.3052790319589,1006.1834731223789,"[60, 0, 194]",194,a,0.3523971825834451,colour,0.06
020,65,1,2,14,29,679,1006.6983471074382,1008.6153984302882,"[98, 0, 156]",156,l,1.394352407029146,colour,0.06
020,65,1,2,14,30,680,1009.1348871080054,1010.1354447938302,"[65, 0, 189]",189,l,0.4757276697246198,colour,0.06
020,65,1,2,14,31,681,1010.6519670240687,1011.2554366490958,"[78, 0, 176]",176,l,0.080072420387296,colour,0.06
020,65,1,2,14,32,682,1011.7770721809302,1012.4554611463127,"[54, 0, 200]",200,a,0.15514339142282552,colour,0.06
020,65,1,2,14,33,683,1012.9643616702851,1013.6154449041069,"[73, 0, 181]",181,l,0.13138936237919552,colour,0.06
020,65,1,2,14,34,684,1014.1329686845229,1015.0474647350366,"[84, 0, 170]",170,l,0.4035057800829236,colour,0.06
020,65,1,2,14,35,685,1015.5604722842754,1016.3194421251301,"[95, 0, 159]",159,l,0.23609684513667162,colour,0.06
020,65,1,2,14,36,686,1016.8136474700914,1017.5594218972037,"[51, 0, 203]",203,a,0.22245717319492542,colour,0.06
020,65,1,2,14,37,687,1018.0792571593311,1018.9434338795718,"[50, 0, 204]",204,a,0.34086458632009453,colour,0.06
020,65,1,2,14,38,688,1019.4542197439687,1020.0234019307909,"[99, 0, 155]",155,l,0.045706606844760245,colour,0.06
020,65,1,2,14,39,689,1020.5348191301991,1021.3594371784247,"[90, 0, 164]",164,l,0.30134293582159444,colour,0.06
020,65,1,2,14,40,690,1021.8785402809854,1022.7194044734597,"[69, 0, 185]",185,l,0.31757096315777744,colour,0.06
020,65,1,2,14,41,691,1023.2380006963194,1024.2394539877687,"[57, 0, 197]",197,a,0.47817739135371085,colour,0.06
020,65,1,2,14,42,692,1024.7535517025171,1026.0233806631104,"[61, 0, 193]",193,l,0.7464955589930469,colour,0.06
020,65,1,2,14,43,693,1026.534824250196,1027.1674191749398,"[71, 0, 183]",183,l,0.10787203473319096,colour,0.06
020,65,1,2,14,44,694,1027.6769443385438,1028.2954301270074,"[87, 0, 167]",167,l,0.09530047292992094,colour,0.06
020,65,1,2,14,45,695,1028.8017576555776,1029.7594660867153,"[19, 0, 235]",235,a,0.43429153420311195,colour,0.06
020,65,1,2,14,46,696,1030.2705922339892,1030.8553817469747,"[53, 0, 201]",201,a,0.06145256677245925,colour,0.06
020,65,1,2,14,47,697,1031.364304720165,1031.99154530961,"[67, 0, 187]",187,l,0.10335698509334179,colour,0.06
020,65,1,2,14,48,698,1032.5055079352078,1033.3354216356893,"[55, 0, 199]",199,a,0.3067378372497842,colour,0.06
020,65,1,2,14,49,699,1033.8502782915284,1034.4794979567278,"[74, 0, 180]",180,l,0.10648648478309042,colour,0.06
020,65,1,2,14,50,700,1034.9908946761489,1035.5914266044501,"[89, 0, 165]",165,l,0.07718513594045362,colour,0.06
020,65,1,2,15,1,701,1041.1936095348528,1042.1755182224633,"[95, 0, 159]",159,l,0.4578080741566737,colour,0.06
020,65,1,2,15,2,702,1042.694401165154,1043.6073974503988,"[64, 0, 190]",190,l,0.389571117545529,colour,0.06
020,65,1,2,15,3,703,1044.1162747374628,1044.9754697006456,"[81, 0, 173]",173,l,0.33610023221172014,colour,0.06
020,65,1,2,15,4,704,1045.49122865749,1046.1593591181636,"[90, 0, 164]",164,l,0.14480532983816374,colour,0.06
020,65,1,2,15,5,705,1046.678836374349,1047.6873816493007,"[70, 0, 184]",184,l,0.48519375643900275,colour,0.06
020,65,1,2,15,6,706,1048.1957705674222,1049.0073625556506,"[67, 0, 187]",187,l,0.28823771279530774,colour,0.06
020,65,1,2,15,7,707,1049.5239375612437,1050.3034098392163,"[73, 0, 181]",181,l,0.25612666714914667,colour,0.06
020,65,1,2,15,8,708,1050.8208713919776,1051.351398389328,"[89, 0, 165]",165,l,0.007228648037198582,colour,0.06
020,65,1,2,15,9,709,1051.8677264535281,1052.7834048294962,"[62, 0, 192]",192,l,0.3923556082081632,colour,0.06
020,65,1,2,15,10,710,1053.2914318032163,1053.863394148395,"[96, 0, 158]",158,l,0.0486124020508214,colour,0.06
020,65,1,2,15,11,711,1054.3741784374088,1055.2073882344048,"[65, 0, 189]",189,l,0.30998549071591697,colour,0.06
020,65,1,2,15,12,712,1055.720730946522,1056.2714244304207,"[51, 0, 203]",203,a,0.0264404520721655,colour,0.06
020,65,1,2,15,13,713,1056.785427228302,1058.0954528913016,"[63, 0, 191]",191,a,0.7866548460378908,colour,0.06
020,65,1,2,15,14,714,1058.6134882775705,1060.3594489938023,"[88, 0, 166]",166,l,1.2225343669942959,colour,0.06
020,65,1,2,15,15,715,1060.8805429874947,1061.5273994668905,"[58, 0, 196]",196,l,0.12360893620643765,colour,0.06
020,65,1,2,15,16,716,1062.0368486182315,1062.615530368672,"[94, 0, 160]",160,l,0.05257488586357795,colour,0.06
020,65,1,2,15,17,717,1063.129579640372,1063.7674012943353,"[75, 0, 179]",179,l,0.11462176613076736,colour,0.06
020,65,1,2,15,18,718,1064.2856367543318,1064.9113882123493,"[50, 0, 204]",204,a,0.10236882567733119,colour,0.06
020,65,1,2,15,19,719,1065.426318517375,1066.3353850080193,"[61, 0, 193]",193,l,0.38590913817097316,colour,0.06
020,65,1,2,15,20,720,1067.3648608306057,1068.127367407832,"[98, 0, 156]",156,l,0.23970368608206627,colour,0.06
020,65,1,2,15,21,721,1068.6354353415272,1069.5034020410676,"[99, 0, 155]",155,l,0.34982182410567475,colour,0.06
020,65,1,2,15,22,722,1070.0210963567679,1070.7753817942366,"[55, 0, 199]",199,a,0.230974878932102,colour,0.06
020,65,1,2,15,23,723,1071.286678476793,1072.1673963318772,"[69, 0, 185]",185,l,0.367308583005979,colour,0.06
020,65,1,2,15,24,724,1072.6829626980652,1073.22342130801,"[92, 0, 162]",162,l,0.0221845530477367,colour,0.06
020,65,1,2,15,25,725,1073.7406638824386,1074.351370032422,"[80, 0, 174]",174,l,0.08736880992364604,colour,0.06
020,65,1,2,15,26,726,1074.8657024793392,1075.567387037113,"[56, 0, 198]",198,a,0.1785122391556797,colour,0.06
020,65,1,2,15,27,727,1076.0844295378138,1076.7833969525782,"[57, 0, 197]",197,a,0.17563952700675145,colour,0.06
020,65,1,2,15,28,728,1077.303074676338,1077.8873797588403,"[68, 0, 186]",186,l,0.06088424710833351,colour,0.06
020,65,1,2,15,29,729,1078.3968127624985,1078.9434307288038,"[84, 0, 170]",170,l,0.023238878578922595,colour,0.06
020,65,1,2,15,30,730,1079.4594082701342,1080.7994312077208,"[60, 0, 194]",194,a,0.8166852036811179,colour,0.06
020,65,1,2,15,31,731,1081.3078134304615,1081.8793937450964,"[91, 0, 163]",163,l,0.04820162075429835,colour,0.06
020,65,1,2,15,32,732,1082.3860233534879,1083.2553846614346,"[93, 0, 161]",161,l,0.34605705094509176,colour,0.06
020,65,1,2,15,33,733,1083.7730919740507,1084.5034103118314,"[86, 0, 168]",168,l,0.20689671469426685,colour,0.06
020,65,1,2,15,34,734,1085.0231778324614,1086.0954115374798,"[74, 0, 180]",180,l,0.5489140880254126,colour,0.06
020,65,1,2,15,35,735,1086.616944275528,1087.3993755179072,"[97, 0, 157]",157,l,0.26557463695280603,colour,0.06
020,65,1,2,15,36,736,1087.896409858121,1088.6554238097187,"[7, 0, 247]",247,a,0.2356880330698914,colour,0.06
020,65,1,2,15,37,737,1089.1514404520722,1090.0074562909795,"[76, 0, 178]",178,l,0.33272969881727477,colour,0.06
020,65,1,2,15,38,738,1090.5264345443838,1091.4553583525267,"[54, 0, 200]",200,a,0.4056337295942285,colour,0.06
020,65,1,2,15,39,739,1091.9639733382064,1092.8153752721473,"[52, 0, 202]",202,a,0.32817408304708806,colour,0.06
020,65,1,2,15,40,740,1093.3197418418758,1094.2873901563726,"[9, 0, 245]",245,a,0.4443483898003251,colour,0.06
020,65,1,2,15,41,741,1094.8040254203916,1097.8473768286267,"[53, 0, 201]",201,a,2.5197722467801213,colour,0.06
020,65,1,2,15,42,742,1098.3510718910593,1100.6073616104204,"[87, 0, 167]",167,l,1.7328354070632486,colour,0.06
020,65,1,2,15,43,743,1101.1168269094442,1102.5993578736106,"[72, 0, 182]",182,l,0.9593625840079767,colour,0.06
020,65,1,2,15,44,744,1103.1167107248975,1104.887384878837,"[83, 0, 171]",171,l,1.2474699338017672,colour,0.06
020,65,1,2,15,45,745,1105.399420022497,1106.5914313306012,"[59, 0, 195]",195,l,0.6688740417730514,colour,0.06
020,65,1,2,15,46,746,1107.1025377855776,1108.0633910763972,"[85, 0, 169]",169,l,0.43749310769635485,colour,0.06
020,65,1,2,15,47,747,1108.570785139721,1109.4473506772574,"[79, 0, 175]",175,l,0.3531242221542925,colour,0.06
020,65,1,2,15,48,748,1109.9614286997103,1110.9674143700204,"[32, 0, 222]",222,a,0.4826467548673463,colour,0.06
020,65,1,2,15,49,749,1111.4784140927522,1112.5354299852233,"[66, 0, 188]",188,l,0.5336903677889495,colour,0.06
020,65,1,2,15,50,750,1113.056534612755,1114.0634005286993,"[77, 0, 177]",177,l,0.4834935235976445,colour,0.06
020,65,1,2,16,1,751,1119.5713554286149,1121.0793820084882,"[86, 0, 168]",168,l,0.9824521949822156,colour,0.06
020,65,1,2,16,2,752,1121.589181288853,1122.4473617049434,"[97, 0, 157]",157,l,0.33815847099594976,colour,0.06
020,65,1,2,16,3,753,1122.963204157123,1123.839358519518,"[56, 0, 198]",198,a,0.3527540069890165,colour,0.06
020,65,1,2,16,4,754,1124.35386425864,1125.2393606462856,"[91, 0, 163]",163,l,0.36216534912091447,colour,0.06
020,65,1,2,16,5,755,1125.7477397182583,1126.7833725341306,"[65, 0, 189]",189,l,0.5123041404231117,colour,0.06
020,65,1,2,16,6,756,1127.2945865090442,1128.2473785615493,"[80, 0, 174]",174,l,0.429492521654538,colour,0.06
020,65,1,2,16,7,757,1128.7633490136523,1129.8953523818227,"[50, 0, 204]",204,a,0.6086865080987991,colour,0.06
020,65,1,2,16,8,758,1130.4039500382823,1131.1993888298994,"[74, 0, 180]",180,l,0.27203686082702916,colour,0.06
020,65,1,2,16,9,759,1131.716467958271,1132.8233699505017,"[79, 0, 175]",175,l,0.5959822202194118,colour,0.06
020,65,1,2,16,10,760,1133.3445947010396,1134.1593890504537,"[19, 0, 235]",235,a,0.29142313860575086,colour,0.06
020,65,1,2,16,11,761,1134.6727238856529,1135.5833799384345,"[85, 0, 169]",169,l,0.38726672506072646,colour,0.06
020,65,1,2,16,12,762,1136.0946203010244,1137.5993448766949,"[58, 0, 196]",196,a,0.9813120110402451,colour,0.06
020,65,1,2,16,13,763,1138.1116974601664,1139.1033317789552,"[62, 0, 192]",192,a,0.4683403017806995,colour,0.06
020,65,1,2,16,14,764,1139.6116801309463,1141.3033318577245,"[95, 0, 159]",159,l,1.1682872113506164,colour,0.06
020,65,1,2,16,15,765,1141.8148794201334,1142.5753667493218,"[72, 0, 182]",182,l,0.23725238906899904,colour,0.06
020,65,1,2,16,16,766,1143.0960932847702,1144.1433847276003,"[57, 0, 197]",197,a,0.5229025341614033,colour,0.06
020,65,1,2,16,17,767,1144.6613527662166,1145.5354441636764,"[54, 0, 200]",200,a,0.3508060450621997,colour,0.06
020,65,1,2,16,18,768,1146.0519155877919,1146.8953322956804,"[59, 0, 195]",195,a,0.32007267244898685,colour,0.06
020,65,1,2,16,19,769,1147.4111393017274,1149.7433408531651,"[92, 0, 162]",162,l,1.8088638175331653,colour,0.06
020,65,1,2,16,20,770,1150.2550069631961,1151.527393953047,"[64, 0, 190]",190,l,0.749128812822164,colour,0.06
020,65,1,2,16,21,771,1152.0361550555644,1152.8713817375228,"[70, 0, 184]",184,l,0.31198268338266644,colour,0.06
020,65,1,2,16,22,772,1153.381302322431,1154.0793308085185,"[71, 0, 183]",183,l,0.17469665987118788,colour,0.06
020,65,1,2,16,23,773,1154.5999726670934,1155.4313053944288,"[63, 0, 191]",191,a,0.3081281133518132,colour,0.06
020,65,1,2,16,24,774,1155.9446835526796,1156.7833217280067,"[90, 0, 164]",164,l,0.3153646383070736,colour,0.06
020,65,1,2,16,25,775,1157.304027783467,1157.9273362152353,"[82, 0, 172]",172,l,0.09986593484791229,colour,0.06
020,65,1,2,16,26,776,1158.444665435767,1159.4713981215127,"[18, 0, 236]",236,a,0.5034300041279494,colour,0.06
020,65,1,2,16,27,777,1159.9915193157794,1160.93535885665,"[76, 0, 178]",178,l,0.4212835911184811,colour,0.06
020,65,1,2,16,28,778,1161.4446536203895,1162.3193302728878,"[53, 0, 201]",201,a,0.35135742935108283,colour,0.06
020,65,1,2,16,29,779,1162.8352089588925,1163.7673276451478,"[60, 0, 194]",194,a,0.40877071235627227,colour,0.06
020,65,1,2,16,30,780,1164.2884196696104,1166.7193367319614,"[87, 0, 167]",167,l,1.907610836119602,colour,0.06
020,65,1,2,16,31,781,1167.2271120381374,1167.8313098842727,"[75, 0, 179]",179,l,0.08099047523046465,colour,0.06
020,65,1,2,16,32,782,1168.3365251919604,1169.2313588787056,"[94, 0, 160]",160,l,0.36975751694353676,colour,0.06
020,65,1,2,16,33,783,1169.7445881631975,1170.5513031573846,"[73, 0, 181]",181,l,0.2834453956265861,colour,0.06
020,65,1,2,16,34,784,1171.07258895404,1172.2393366216847,"[20, 0, 234]",234,a,0.6433154107189694,colour,0.06
020,65,1,2,16,35,785,1172.760872904346,1173.7993867031319,"[67, 0, 187]",187,l,0.51560181232162,colour,0.06
020,65,1,2,16,36,786,1174.3076913382256,1175.3273312527772,"[83, 0, 171]",171,l,0.49623837760736933,colour,0.06
020,65,1,2,16,37,787,1175.8389079597837,1176.8473614686363,"[98, 0, 156]",156,l,0.48415203397871664,colour,0.06
020,65,1,2,16,38,788,1177.3554991130595,1178.383310542783,"[88, 0, 166]",166,l,0.5044382496853359,colour,0.06
020,65,1,2,16,39,789,1178.9023455099996,1179.9833544959874,"[68, 0, 186]",186,l,0.55762517211042,colour,0.06
020,65,1,2,16,40,790,1180.4976507090805,1181.6313523408626,"[51, 0, 203]",203,a,0.6103969809346381,colour,0.06
020,65,1,2,16,41,791,1182.13823046603,1183.1432905984257,"[55, 0, 199]",199,a,0.4816861646659163,colour,0.06
020,65,1,2,16,42,792,1183.6538763890949,1184.7113558382143,"[77, 0, 177]",177,l,0.5342161520939044,colour,0.06
020,65,1,2,16,43,793,1185.2319429522058,1186.1993191191714,"[93, 0, 161]",161,l,0.44162140064145206,colour,0.06
020,65,1,2,16,44,794,1186.7187908615142,1187.695330641528,"[52, 0, 202]",202,a,0.45318314150426886,colour,0.06
020,65,1,2,16,45,795,1188.2031626615162,1189.1993636237612,"[66, 0, 188]",188,l,0.4729187606144478,colour,0.06
020,65,1,2,16,46,796,1189.7187821969046,1190.7033142921964,"[81, 0, 173]",173,l,0.4611801829341857,colour,0.06
020,65,1,2,16,47,797,1191.2188184307288,1192.2233299357558,"[78, 0, 176]",176,l,0.47880754482685006,colour,0.06
020,65,1,2,16,48,798,1192.7367892262664,1193.7593132744978,"[96, 0, 158]",158,l,0.4992127020032058,colour,0.06
020,65,1,2,16,49,799,1194.2680377493443,1195.543319900562,"[84, 0, 170]",170,l,0.7523575616842209,colour,0.06
020,65,1,2,16,50,800,1196.0648821770546,1197.5833153477033,"[99, 0, 155]",155,l,0.9951938982239881,colour,0.06
