id,age,condition,counterbalance,block,trialinblock,trial,tstart,tend,trialstim,trialintensity,response,RT,trialtype,colourfreq
73,72,1,2,Practice,1,NA,5.513778887689114e-06,3.046221720869653,"[69, 0, 185]",185,a,2.5217166469665244,colour,0.5
73,72,1,2,Practice,2,NA,3.563623395282775,4.710217457846738,"[78, 0, 176]",176,a,0.6232701315311715,colour,0.5
73,72,1,2,Practice,3,NA,5.219973013619892,5.910277243587188,"[54, 0, 200]",200,a,0.16695233597420156,colour,0.5
73,72,1,2,Practice,4,NA,6.42312409367878,7.126212946022861,"[34, 0, 220]",220,a,0.17968378926161677,colour,0.5
73,72,1,2,Practice,5,NA,7.642059718025848,10.254525089054368,"[94, 0, 160]",160,a,2.089149317005649,colour,0.5
73,72,1,2,Practice,6,NA,10.767665747902356,11.326262491755188,"[22, 0, 232]",232,a,0.036038054968230426,colour,0.5
73,72,1,2,Practice,7,NA,11.845447893021628,16.22228449350223,"[8, 0, 246]",246,a,3.853773001465015,colour,0.5
73,72,1,2,Practice,8,NA,16.73646293557249,17.518240565550514,"[9, 0, 245]",245,a,0.2584221913712099,colour,0.5
73,72,1,2,Practice,9,NA,18.033405984635465,20.694189910776913,"[51, 0, 203]",203,a,2.137805003905669,colour,0.5
73,72,1,2,Practice,10,NA,21.205632701166905,21.758233145577833,"[35, 0, 219]",219,a,0.0291985321091488,colour,0.5
73,72,1,2,1,1,1,4.487925875117071,7.280060857068747,"[96, 0, 158]",158,l,2.2680462028365582,colour,0.5
73,72,1,2,1,2,2,7.801507325959392,8.840003765188158,"[62, 0, 192]",192,a,0.5151811728719622,colour,0.5
73,72,1,2,1,3,3,9.348448208998889,10.192071809084155,"[8, 0, 246]",246,a,0.3202197185019031,colour,0.5
73,72,1,2,1,4,4,10.70788549806457,11.52004240930546,"[87, 0, 167]",167,l,0.28880226030014455,colour,0.5
73,72,1,2,1,5,5,12.036088861059397,12.823988821124658,"[95, 0, 159]",159,l,0.26466621982399374,colour,0.5
73,72,1,2,1,6,6,13.333053177804686,13.888000154402107,"[60, 0, 194]",194,a,0.03157381492201239,colour,0.5
73,72,1,2,1,7,7,14.395734494552016,15.199977865908295,"[38, 0, 216]",216,a,0.28089384047780186,colour,0.5
73,72,1,2,1,8,8,15.708318728255108,19.431959626148455,"[33, 0, 221]",221,a,3.200184240937233,colour,0.5
73,72,1,2,1,9,9,19.942968004848808,20.86402992287185,"[81, 0, 173]",173,l,0.3976572487736121,colour,0.5
73,72,1,2,1,10,10,21.380679352208972,22.192017064546235,"[44, 0, 210]",210,a,0.28800866147503257,colour,0.5
73,72,1,2,1,11,11,22.708925250452012,27.78398277168162,"[61, 0, 193]",193,l,4.551791879348457,colour,0.5
73,72,1,2,1,12,12,28.303115791408345,29.031951906741597,"[23, 0, 231]",231,a,0.20564372884109616,colour,0.5
73,72,1,2,1,13,13,29.553136862115934,30.16797042696271,"[85, 0, 169]",169,l,0.09163605829235166,colour,0.5
73,72,1,2,1,14,14,30.678328172652982,31.352020388585515,"[69, 0, 185]",185,a,0.1507511029485613,colour,0.5
73,72,1,2,1,15,15,31.865817588055506,35.00805335503537,"[74, 0, 180]",180,a,2.6188618176383898,colour,0.5
73,72,1,2,1,16,16,35.52236885530874,36.375965807936154,"[24, 0, 230]",230,a,0.33020134177058935,colour,0.5
73,72,1,2,1,17,17,36.897456781356595,37.47199639561586,"[51, 0, 203]",203,a,0.05112076655495912,colour,0.5
73,72,1,2,1,18,18,37.99131885508541,38.61595366173424,"[0, 0, 254]",254,a,0.10123407584615052,colour,0.5
73,72,1,2,1,19,19,39.13194103667047,41.13599685870577,"[25, 0, 229]",229,a,1.480573171400465,colour,0.5
73,72,1,2,1,20,20,41.647827193140984,42.37597880489193,"[93, 0, 161]",161,l,0.20477372396271676,colour,0.5
73,72,1,2,1,21,21,42.8823520145379,44.9999732185388,"[66, 0, 188]",188,l,1.5941799071151763,colour,0.5
73,72,1,2,1,22,22,45.50752875278704,46.21594239771366,"[16, 0, 238]",238,a,0.18510940636042506,colour,0.5
73,72,1,2,1,23,23,46.72634189110249,47.49594772257842,"[10, 0, 244]",244,a,0.2461854083230719,colour,0.5
73,72,1,2,1,24,24,48.00764769408852,50.50401368062012,"[6, 0, 248]",248,a,1.9729337480384856,colour,0.5
73,72,1,2,1,25,25,51.02360198600218,52.62391485692933,"[55, 0, 199]",199,a,1.076998786185868,colour,0.5
73,72,1,2,1,26,26,53.133094610413536,53.887937926803716,"[67, 0, 187]",187,l,0.23142565018497407,colour,0.5
73,72,1,2,1,27,27,54.39893055171706,55.08803394634742,"[46, 0, 208]",208,a,0.16583066363818944,colour,0.5
73,72,1,2,1,28,28,55.602065090090036,56.3519699764438,"[1, 0, 253]",253,a,0.2266364876413718,colour,0.5
73,72,1,2,1,29,29,56.867776576196775,57.62390185997356,"[91, 0, 163]",163,l,0.23279426363296807,colour,0.5
73,72,1,2,1,30,30,58.13349160680082,58.77596092422027,"[83, 0, 171]",171,l,0.11908355273772031,colour,0.5
73,72,1,2,1,31,31,59.289786480600014,59.98392322217114,"[18, 0, 236]",236,a,0.17075018922332674,colour,0.5
73,72,1,2,1,32,32,60.493090766482055,61.271946455934085,"[20, 0, 234]",234,a,0.25548646633978933,colour,0.5
73,72,1,2,1,33,33,61.790046812500805,62.34399342117831,"[82, 0, 172]",172,l,0.030517520965076983,colour,0.5
73,72,1,2,1,34,34,62.85252293560188,63.53592738439329,"[26, 0, 228]",228,a,0.160042708623223,colour,0.5
73,72,1,2,1,35,35,64.05580831691623,65.47993356618099,"[36, 0, 218]",218,a,0.9007477553095669,colour,0.5
73,72,1,2,1,36,36,65.99355786736123,66.57591137848794,"[84, 0, 170]",170,l,0.05904887861106545,colour,0.5
73,72,1,2,1,37,37,67.08729548589326,67.76792056614067,"[22, 0, 232]",232,l,0.1575303674908355,colour,0.5
73,72,1,2,1,38,38,68.2749286548933,69.08796108490787,"[58, 0, 196]",196,a,0.2896155514754355,colour,0.5
73,72,1,2,1,39,39,69.60314343939535,70.33593494619709,"[90, 0, 164]",164,l,0.20962432643864304,colour,0.5
73,72,1,2,1,40,40,70.8532074393006,71.783909122576,"[49, 0, 205]",205,a,0.4075486813671887,colour,0.5
73,72,1,2,1,41,41,72.29081993142609,73.08799613721203,"[45, 0, 209]",209,a,0.2737987118307501,colour,0.5
73,72,1,2,1,42,42,73.60344039893243,74.31192690541502,"[65, 0, 189]",189,l,0.18526182463392615,colour,0.5
73,72,1,2,1,43,43,74.82222202967387,75.5519057008205,"[86, 0, 168]",168,l,0.20627033722121269,colour,0.5
73,72,1,2,1,44,44,76.07248689082917,76.75990935252048,"[42, 0, 212]",212,a,0.16417729982640594,colour,0.5
73,72,1,2,1,45,45,77.27562930621207,78.143912761705,"[4, 0, 250]",250,a,0.34492250299081206,colour,0.5
73,72,1,2,1,46,46,78.65075189073104,79.30389718117658,"[35, 0, 219]",219,a,0.12977803649846464,colour,0.5
73,72,1,2,1,47,47,79.82276159815956,80.55198880226817,"[99, 0, 155]",155,l,0.2059332054341212,colour,0.5
73,72,1,2,1,48,48,81.07279802893754,81.8479488127632,"[40, 0, 214]",214,a,0.25172327156178653,colour,0.5
73,72,1,2,1,49,49,82.35412943188567,83.09591991698835,"[52, 0, 202]",202,a,0.2185768309282139,colour,0.5
73,72,1,2,1,50,50,83.60417807183694,84.35191720107105,"[15, 0, 239]",239,a,0.22428798617329448,colour,0.5
73,72,1,2,2,1,51,105.30824523663614,107.07189494092017,"[29, 0, 225]",225,a,1.2394510422600433,colour,0.5
73,72,1,2,2,2,52,107.59052108135074,108.34387329837773,"[21, 0, 233]",233,a,0.22999441530555487,colour,0.5
73,72,1,2,2,3,53,108.85622429673094,109.5278527616756,"[40, 0, 214]",214,a,0.14826554339379072,colour,0.5
73,72,1,2,2,4,54,110.0437597919954,110.65610779717099,"[74, 0, 180]",180,l,0.0889799635624513,colour,0.5
73,72,1,2,2,5,55,111.1689026595559,111.70391002052929,"[49, 0, 205]",205,a,0.011682642390951514,colour,0.5
73,72,1,2,2,6,56,112.21586677944288,112.79994612198789,"[68, 0, 186]",186,l,0.06073887017555535,colour,0.5
73,72,1,2,2,7,57,113.30961700098123,113.90387685864698,"[19, 0, 235]",235,a,0.07084928080439568,colour,0.5
73,72,1,2,2,8,58,114.41910726227798,117.28790980624035,"[24, 0, 230]",230,a,2.345553443650715,colour,0.5
73,72,1,2,2,9,59,117.79445158177987,118.45594009768683,"[54, 0, 200]",200,l,0.13827643706463277,colour,0.5
73,72,1,2,2,10,60,118.96641324018128,119.63983133959118,"[20, 0, 234]",234,a,0.15008668543305248,colour,0.5
73,72,1,2,2,11,61,120.15398103080224,121.03185226384085,"[44, 0, 210]",210,a,0.3546075604390353,colour,0.5
73,72,1,2,2,12,62,121.54471762455069,123.95184882951435,"[5, 0, 249]",249,a,1.8837190526537597,colour,0.5
73,72,1,2,2,13,63,124.46676455042325,125.72790270124096,"[89, 0, 165]",165,l,0.7381320532876998,colour,0.5
73,72,1,2,2,14,64,126.24821922706906,126.90385598491412,"[62, 0, 192]",192,a,0.13228565151803195,colour,0.5
73,72,1,2,2,15,65,127.42017143312842,128.06383685977198,"[90, 0, 164]",164,l,0.1205234524095431,colour,0.5
73,72,1,2,2,16,66,128.57650332839694,129.25583344430197,"[50, 0, 204]",204,a,0.15598019119352102,colour,0.5
73,72,1,2,2,17,67,129.76415934052784,130.4798579477938,"[33, 0, 221]",221,a,0.19239397475030273,colour,0.5
73,72,1,2,2,18,68,130.99852701742202,131.55984444671776,"[39, 0, 215]",215,a,0.03788637230172753,colour,0.5
73,72,1,2,2,19,69,132.07674751267768,132.74381288245786,"[94, 0, 160]",160,l,0.14350591914262623,colour,0.5
73,72,1,2,2,20,70,133.2643570509972,133.87988378410228,"[28, 0, 226]",226,a,0.09216144832316786,colour,0.5
73,72,1,2,2,21,71,134.3894042139873,135.01585110428277,"[0, 0, 254]",254,a,0.10303749481681734,colour,0.5
73,72,1,2,2,22,72,135.53013627848122,136.08781496819574,"[16, 0, 238]",238,a,0.034320100327022374,colour,0.5
73,72,1,2,2,23,73,136.6084792597685,137.19186582788825,"[13, 0, 241]",241,a,0.060083904885686934,colour,0.5
73,72,1,2,2,24,74,137.70225389965344,138.40794331463985,"[76, 0, 178]",178,l,0.18246197619009763,colour,0.5
73,72,1,2,2,25,75,138.92138762841932,139.6798283306416,"[45, 0, 209]",209,a,0.2354074293980375,colour,0.5
73,72,1,2,2,26,76,140.1867592256749,140.91985044896137,"[1, 0, 253]",253,a,0.20990316907409579,colour,0.5
73,72,1,2,2,27,77,141.43693113932386,142.03182705771178,"[97, 0, 157]",157,l,0.07188785169273615,colour,0.5
73,72,1,2,2,28,78,142.54633751150686,143.0958360278746,"[56, 0, 198]",198,a,0.026108813239261508,colour,0.5
73,72,1,2,2,29,79,143.60895935748704,144.39187795831822,"[65, 0, 189]",189,a,0.2595426822081208,colour,0.5
73,72,1,2,2,30,80,144.90588822821155,145.73581821040716,"[82, 0, 172]",172,l,0.30657533125486225,colour,0.5
73,72,1,2,2,31,81,146.24969654204324,146.87183673051186,"[80, 0, 174]",174,l,0.09882767917588353,colour,0.5
73,72,1,2,2,32,82,147.39046838483773,148.0078489491716,"[75, 0, 179]",179,l,0.09401291655376554,colour,0.5
73,72,1,2,2,33,83,148.51558722776826,149.13579678512178,"[91, 0, 163]",163,l,0.0968875956023112,colour,0.5
73,72,1,2,2,34,84,149.65622516314033,150.39985608879942,"[23, 0, 231]",231,a,0.22022153018042445,colour,0.5
73,72,1,2,2,35,85,150.90629861538764,151.56778988812584,"[3, 0, 251]",251,a,0.13806257885880768,colour,0.5
73,72,1,2,2,36,86,152.0783189566573,152.7518237021286,"[58, 0, 196]",196,l,0.15009771310724318,colour,0.5
73,72,1,2,2,37,87,153.26592298119795,153.9438659728039,"[22, 0, 232]",232,a,0.15460803301539272,colour,0.5
73,72,1,2,2,38,88,154.4535151902819,155.21581676101778,"[46, 0, 208]",208,l,0.2392726301914081,colour,0.5
73,72,1,2,2,39,89,155.73484935017768,156.52784921706188,"[53, 0, 201]",201,l,0.2696314314380288,colour,0.5
73,72,1,2,2,40,90,157.0474572145613,157.7837913626572,"[78, 0, 176]",176,a,0.21297516487538815,colour,0.5
73,72,1,2,2,41,91,158.29747867921833,159.15982924436685,"[96, 0, 158]",158,l,0.33888957591261715,colour,0.5
73,72,1,2,2,42,92,159.6726457681507,160.25580429972615,"[88, 0, 166]",166,l,0.0600862680003047,colour,0.5
73,72,1,2,2,43,93,160.76651256799232,161.47176717745606,"[2, 0, 252]",252,a,0.18188459856901318,colour,0.5
73,72,1,2,2,44,94,161.98534382332582,162.59980677941348,"[85, 0, 169]",169,l,0.09108664374798536,colour,0.5
73,72,1,2,2,45,95,163.11041579861194,163.84786374203395,"[26, 0, 228]",228,a,0.2140834464225918,colour,0.5
73,72,1,2,2,46,96,164.36050933692604,164.99203171557747,"[83, 0, 171]",171,l,0.10756790090817958,colour,0.5
73,72,1,2,2,47,97,165.50123470602557,166.7677776000928,"[25, 0, 229]",229,a,0.7432205384830013,colour,0.5
73,72,1,2,2,48,98,167.28265472420026,168.14378870034125,"[86, 0, 168]",168,l,0.33780728827696294,colour,0.5
73,72,1,2,2,49,99,168.65770838572644,169.30380580888595,"[81, 0, 173]",173,l,0.12268251390196383,colour,0.5
73,72,1,2,2,50,100,169.8140595793957,170.62379197706468,"[6, 0, 248]",248,a,0.2863411190919578,colour,0.5
73,72,1,2,3,1,101,192.2525637380313,193.79182423779275,"[65, 0, 189]",189,l,1.0153733695624396,colour,0.5
73,72,1,2,3,2,102,194.30035375221632,196.13571762223728,"[36, 0, 218]",218,a,1.3118950040079653,colour,0.5
73,72,1,2,3,3,103,196.64434323494788,197.43980660603847,"[41, 0, 213]",213,a,0.27219891094136983,colour,0.5
73,72,1,2,3,4,104,197.95692195475567,200.65572261612397,"[31, 0, 223]",223,a,2.1754054443445057,colour,0.5
73,72,1,2,3,5,105,201.17604465584736,201.97587656253017,"[32, 0, 222]",222,a,0.27663085563108325,colour,0.5
73,72,1,2,3,6,106,202.48846623126883,203.0957690741634,"[72, 0, 182]",182,l,0.08386233367491513,colour,0.5
73,72,1,2,3,7,107,203.61360240343492,204.4477268413175,"[52, 0, 202]",202,a,0.3107221316313371,colour,0.5
73,72,1,2,3,8,108,204.9574595540762,205.78379963350017,"[28, 0, 226]",226,a,0.302968887030147,colour,0.5
73,72,1,2,3,9,109,206.3012816524133,206.98373181326315,"[15, 0, 239]",239,a,0.15915931295603514,colour,0.5
73,72,1,2,3,10,110,207.50453119375743,208.13573376985732,"[83, 0, 171]",171,l,0.10791645431891084,colour,0.5
73,72,1,2,3,11,111,208.64524395985063,209.55173477181233,"[57, 0, 197]",197,a,0.38314088725019246,colour,0.5
73,72,1,2,3,12,112,210.06719911971595,210.6477905655047,"[88, 0, 166]",166,l,0.057226948789320886,colour,0.5
73,72,1,2,3,13,113,211.16106513189152,211.87972782121506,"[92, 0, 162]",162,l,0.19535923842340708,colour,0.5
73,72,1,2,3,14,114,212.3955706547713,213.12770837778226,"[56, 0, 198]",198,a,0.20876416750252247,colour,0.5
73,72,1,2,3,15,115,213.6456196885556,214.39180824765936,"[21, 0, 233]",233,a,0.22280594520270824,colour,0.5
73,72,1,2,3,16,116,214.91139458375983,215.59172191668767,"[38, 0, 216]",216,a,0.15704436204396188,colour,0.5
73,72,1,2,3,17,117,216.09889542066958,216.92774114583153,"[47, 0, 207]",207,a,0.3053634683601558,colour,0.5
73,72,1,2,3,18,118,217.44275414664298,218.1276977440575,"[7, 0, 247]",247,a,0.1615708296885714,colour,0.5
73,72,1,2,3,19,119,218.64604228490498,219.43973847082816,"[55, 0, 199]",199,l,0.2707030853489414,colour,0.5
73,72,1,2,3,20,120,219.9586347893346,220.9676798476139,"[43, 0, 211]",211,a,0.4856620504288003,colour,0.5
73,72,1,2,3,21,121,221.47433977690525,222.11173754441552,"[8, 0, 246]",246,l,0.11392417526803911,colour,0.5
73,72,1,2,3,22,122,222.63067324762233,224.02375716110691,"[58, 0, 196]",196,l,0.8696867272956297,colour,0.5
73,72,1,2,3,23,123,224.53716917952988,225.1759595851181,"[97, 0, 157]",157,l,0.11568466504104435,colour,0.5
73,72,1,2,3,24,124,225.6934353025863,226.39971981826238,"[89, 0, 165]",165,l,0.18291844322811812,colour,0.5
73,72,1,2,3,25,125,226.91227404098026,227.6957798654912,"[22, 0, 232]",232,a,0.26014644745737314,colour,0.5
73,72,1,2,3,26,126,228.20928128692321,229.0556944955606,"[16, 0, 238]",238,a,0.3230979422805831,colour,0.5
73,72,1,2,3,27,127,229.56871581915766,230.2076712460257,"[74, 0, 180]",180,l,0.11558265914209187,colour,0.5
73,72,1,2,3,28,128,230.72504259448033,231.47170810052194,"[78, 0, 176]",176,l,0.22317182773258537,colour,0.5
73,72,1,2,3,29,129,231.99080173578113,233.44767957984004,"[59, 0, 195]",195,a,0.9334617533022538,colour,0.5
73,72,1,2,3,30,130,233.95968478173018,234.8557119035395,"[73, 0, 181]",181,l,0.37262087711133063,colour,0.5
73,72,1,2,3,31,131,235.36600387701765,236.11978065955918,"[95, 0, 159]",159,l,0.23032012558542192,colour,0.5
73,72,1,2,3,32,132,236.63178625528235,237.4076814072905,"[86, 0, 168]",168,l,0.25252829189412296,colour,0.5
73,72,1,2,3,33,133,237.92877183970995,238.59971265029162,"[94, 0, 160]",160,l,0.14756489195860922,colour,0.5
73,72,1,2,3,34,134,239.11637547041755,239.93570273485966,"[68, 0, 186]",186,a,0.29624554864130914,colour,0.5
73,72,1,2,3,35,135,240.4445579595631,241.25567078602035,"[60, 0, 194]",194,a,0.28776526486035436,colour,0.5
73,72,1,2,3,36,136,241.77277471323032,242.50368245644495,"[29, 0, 225]",225,a,0.20754206459969282,colour,0.5
73,72,1,2,3,37,137,243.0229159068549,243.76767244341318,"[45, 0, 209]",209,a,0.2220753616420552,colour,0.5
73,72,1,2,3,38,138,244.28861400217284,245.01567151071504,"[27, 0, 227]",227,a,0.20366622996516526,colour,0.5
73,72,1,2,3,39,139,245.52308526053093,246.19169332343154,"[5, 0, 249]",249,a,0.1452408089535311,colour,0.5
73,72,1,2,3,40,140,246.71074363566004,247.47173251898494,"[34, 0, 220]",220,a,0.2377232415601611,colour,0.5
73,72,1,2,3,41,141,247.9921242693672,248.64764129801188,"[35, 0, 219]",219,a,0.13219270389527082,colour,0.5
73,72,1,2,3,42,142,249.16403000161517,250.03172426403034,"[9, 0, 245]",245,a,0.3443203130736947,colour,0.5
73,72,1,2,3,43,143,250.5391076876549,251.31166775501333,"[23, 0, 231]",231,a,0.24917863495647907,colour,0.5
73,72,1,2,3,44,144,251.82046232756693,252.50367891183123,"[98, 0, 156]",156,l,0.16009548387955874,colour,0.5
73,72,1,2,3,45,145,253.0237091119634,253.82367650151718,"[1, 0, 253]",253,a,0.2773476545698941,colour,0.5
73,72,1,2,3,46,146,254.33628428727388,254.9276741920039,"[96, 0, 158]",158,l,0.06807581998873502,colour,0.5
73,72,1,2,3,47,147,255.4457875455264,256.1196365120122,"[26, 0, 228]",228,a,0.15051518939435482,colour,0.5
73,72,1,2,3,48,148,256.63334194547497,257.1836549345171,"[75, 0, 179]",179,l,0.026886264444328845,colour,0.5
73,72,1,2,3,49,149,257.69594921916723,258.39969067368656,"[70, 0, 184]",184,l,0.18043721583671868,colour,0.5
73,72,1,2,3,50,150,258.9147867759457,259.69566446880344,"[37, 0, 217]",217,a,0.2576152018737048,colour,0.5
73,72,1,2,4,1,151,287.259941647877,288.5116373501951,"[73, 0, 181]",181,l,0.7275541479466483,colour,0.5
73,72,1,2,4,2,152,289.02643924974836,289.9356688640546,"[7, 0, 247]",247,a,0.3865196886472404,colour,0.5
73,72,1,2,4,3,153,290.4484582126606,291.1916236127727,"[87, 0, 167]",167,l,0.2198233522940427,colour,0.5
73,72,1,2,4,4,154,291.69861004012637,292.31959901796654,"[82, 0, 172]",172,l,0.09760754543822259,colour,0.5
73,72,1,2,4,5,155,292.8392790892394,293.60759192553815,"[44, 0, 210]",210,a,0.24494715768378228,colour,0.5
73,72,1,2,4,6,156,294.1205722892191,294.75171303155366,"[86, 0, 168]",168,l,0.10778766684234142,colour,0.5
73,72,1,2,4,7,157,295.261303566047,295.81564362649806,"[79, 0, 175]",175,l,0.03130993840750307,colour,0.5
73,72,1,2,4,8,158,296.32392304891255,297.039638197748,"[51, 0, 203]",203,a,0.1922750334488228,colour,0.5
73,72,1,2,4,9,159,297.5584136056714,301.22362750710454,"[97, 0, 157]",157,l,3.141742672305554,colour,0.5
73,72,1,2,4,10,160,301.73061196517665,303.27163216716144,"[58, 0, 196]",196,a,1.0176281357416883,colour,0.5
73,72,1,2,4,11,161,303.7932649250142,304.5196576222079,"[15, 0, 239]",239,a,0.20301992946770042,colour,0.5
73,72,1,2,4,12,162,305.0277980171377,305.69560460420325,"[38, 0, 216]",216,a,0.14530106738675386,colour,0.5
73,72,1,2,4,13,163,306.2153327247361,307.50366788415704,"[59, 0, 195]",195,a,0.7649222193285823,colour,0.5
73,72,1,2,4,14,164,308.01235257380176,308.7036106978776,"[20, 0, 234]",234,a,0.16786802711430937,colour,0.5
73,72,1,2,4,15,165,309.21554382599425,309.9116111987969,"[72, 0, 182]",182,l,0.1726686111651361,colour,0.5
73,72,1,2,4,16,166,310.41880990890786,311.0555779172573,"[40, 0, 214]",214,a,0.11345904355403036,colour,0.5
73,72,1,2,4,17,167,311.57523947791196,312.3755955930101,"[61, 0, 193]",193,l,0.2770436058053747,colour,0.5
73,72,1,2,4,18,168,312.88774021633435,313.59157264919486,"[91, 0, 163]",163,l,0.18037695751991123,colour,0.5
73,72,1,2,4,19,169,314.10655059781857,314.7116754744202,"[98, 0, 156]",156,l,0.0817107551265508,colour,0.5
73,72,1,2,4,20,170,315.23163793305866,315.9915803686017,"[36, 0, 218]",218,a,0.23657360626384616,colour,0.5
73,72,1,2,4,21,171,316.5130477112252,317.2795594915515,"[25, 0, 229]",229,a,0.24318115401547402,colour,0.5
73,72,1,2,4,22,172,317.79439447424375,318.511571971816,"[90, 0, 164]",164,l,0.1939071296947077,colour,0.5
73,72,1,2,4,23,173,319.02885903720744,319.83961622114293,"[12, 0, 242]",242,a,0.28817013814114034,colour,0.5
73,72,1,2,4,24,174,320.35705452319235,320.91958539083134,"[81, 0, 173]",173,l,0.039177398197352886,colour,0.5
73,72,1,2,4,25,175,321.4352639907738,322.3596220028121,"[99, 0, 155]",155,l,0.4009730350226164,colour,0.5
73,72,1,2,4,26,176,322.87292138137855,323.6795758755179,"[56, 0, 198]",198,a,0.283264791010879,colour,0.5
73,72,1,2,4,27,177,324.20116137200966,324.96760580467526,"[57, 0, 197]",197,a,0.24309884023386985,colour,0.5
73,72,1,2,4,28,178,325.48250025801826,326.1116138770012,"[55, 0, 199]",199,a,0.10574439587071538,colour,0.5
73,72,1,2,4,29,179,326.6231846672017,327.3675512964837,"[39, 0, 215]",215,a,0.2210025261156261,colour,0.5
73,72,1,2,4,30,180,327.88892096548807,328.6315873633139,"[80, 0, 174]",174,l,0.2192546393489465,colour,0.5
73,72,1,2,4,31,181,329.1390550698852,329.8556622789474,"[24, 0, 230]",230,a,0.19335180730558932,colour,0.5
73,72,1,2,4,32,182,330.3734605560312,331.08758023625705,"[32, 0, 222]",222,a,0.19070870941504836,colour,0.5
73,72,1,2,4,33,183,331.6080428787973,332.29555198643357,"[8, 0, 246]",246,a,0.16422495513688773,colour,0.5
73,72,1,2,4,34,184,332.811158906552,333.6156169237802,"[46, 0, 208]",208,l,0.2811419633217156,colour,0.5
73,72,1,2,4,35,185,334.12380930630025,335.0555767357582,"[11, 0, 243]",243,a,0.40838796633761376,colour,0.5
73,72,1,2,4,36,186,335.56145409378223,336.2475441757124,"[0, 0, 254]",254,a,0.16274645878002048,colour,0.5
73,72,1,2,4,37,187,336.7645697275875,337.48765648470726,"[69, 0, 185]",185,l,0.19966948474757373,colour,0.5
73,72,1,2,4,38,188,337.99991808016784,339.2795275901444,"[54, 0, 200]",200,a,0.7574273374630138,colour,0.5
73,72,1,2,4,39,189,339.79609352420084,341.3595219659619,"[60, 0, 194]",194,a,1.0400422832462937,colour,0.5
73,72,1,2,4,40,190,341.8743608871009,342.84751755173784,"[45, 0, 209]",209,a,0.4497405738802627,colour,0.5
73,72,1,2,4,41,191,343.3588579422794,344.2475130619714,"[48, 0, 206]",206,a,0.3653189796023071,colour,0.5
73,72,1,2,4,42,192,344.76517191762105,345.5675346761709,"[21, 0, 233]",233,a,0.27927080274093896,colour,0.5
73,72,1,2,4,43,193,346.077665566816,346.6235619712388,"[14, 0, 240]",240,a,0.02247716288547963,colour,0.5
73,72,1,2,4,44,194,347.1404091110453,347.93556685803924,"[31, 0, 223]",223,a,0.2717865544836968,colour,0.5
73,72,1,2,4,45,195,348.4530323354993,349.0235480291303,"[16, 0, 238]",238,a,0.04732409480493516,colour,0.5
73,72,1,2,4,46,196,349.5311965108849,350.2315461670514,"[19, 0, 235]",235,a,0.1769863406661898,colour,0.5
73,72,1,2,4,47,197,350.75011874444317,351.35953378130216,"[18, 0, 236]",236,a,0.08610685972962528,colour,0.5
73,72,1,2,4,48,198,351.875218682806,352.48753951257095,"[28, 0, 226]",226,a,0.08891773584764451,colour,0.5
73,72,1,2,4,49,199,353.0002457597293,353.9355432273587,"[53, 0, 201]",201,a,0.4119762936607003,colour,0.5
73,72,1,2,4,50,200,354.45348131959327,355.2155497337226,"[84, 0, 170]",170,l,0.23890832299366593,colour,0.5
73,72,1,2,5,1,201,381.31414149934426,382.5514988582581,"[13, 0, 241]",241,a,0.7131523954449221,colour,0.4
73,72,1,2,5,2,202,383.0651542732958,383.81548333133105,"[5, 0, 249]",249,a,0.22707995772361755,colour,0.4
73,72,1,2,5,3,203,384.3308303132653,385.6954549428774,"[78, 0, 176]",176,l,0.8412361080991104,colour,0.4
73,72,1,2,5,4,204,386.2060399375623,386.77550997107755,"[83, 0, 171]",171,l,0.046165400999598205,colour,0.4
73,72,1,2,5,5,205,387.2841336145066,387.8874570413027,"[95, 0, 159]",159,l,0.0799372682813555,colour,0.4
73,72,1,2,5,6,206,388.3936648358358,389.0794937981991,"[10, 0, 244]",244,a,0.16245225607417524,colour,0.4
73,72,1,2,5,7,207,389.5968604203081,390.2074896832928,"[26, 0, 228]",228,a,0.08721041516400874,colour,0.4
73,72,1,2,5,8,208,390.7219690232305,391.2795173501363,"[41, 0, 213]",213,a,0.03422478982247412,colour,0.4
73,72,1,2,5,9,209,391.80015367863234,392.4315649928758,"[96, 0, 158]",158,l,0.10805430030450225,colour,0.4
73,72,1,2,5,10,210,392.94084557075985,393.56750080548227,"[9, 0, 245]",245,a,0.10330373456235975,colour,0.4
73,72,1,2,5,11,211,394.08158157370053,394.7115033639129,"[18, 0, 236]",236,a,0.10652893630322069,colour,0.4
73,72,1,2,5,12,212,395.2222608629381,395.86349271738436,"[97, 0, 157]",157,l,0.11788429284933954,colour,0.4
73,72,1,2,5,13,213,396.37858054891694,397.03155057807453,"[38, 0, 216]",216,a,0.12948698457330465,colour,0.4
73,72,1,2,5,14,214,397.5506453948328,398.1114992678631,"[84, 0, 170]",170,a,0.03754569590091705,colour,0.4
73,72,1,2,5,15,215,398.62870638258755,400.5674665408442,"[22, 0, 232]",232,l,1.4153326458763331,colour,0.4
73,72,1,2,5,16,216,401.0821353206411,402.0634796418017,"[43, 0, 211]",211,a,0.4579817933263257,colour,0.4
73,72,1,2,5,17,217,402.5822511112783,403.33550053450745,"[87, 0, 167]",167,l,0.22989477240480483,colour,0.4
73,72,1,2,5,18,218,403.847953145043,404.6316184770549,"[16, 0, 238]",238,a,0.26033194886986166,colour,0.4
73,72,1,2,5,19,219,405.14498402166646,405.83143801696133,"[0, 0, 254]",254,a,0.16315448272507638,colour,0.4
73,72,1,2,5,20,220,406.3479232126847,406.96748568175826,"[12, 0, 242]",242,a,0.0959451231174171,colour,0.4
73,72,1,2,5,21,221,407.48883684002794,408.22346957505215,"[59, 0, 195]",195,l,0.21122727799229324,colour,0.4
73,72,1,2,5,22,222,408.7389721260406,409.3994449140737,"[90, 0, 164]",164,l,0.13712522643618286,colour,0.4
73,72,1,2,5,23,223,409.9109503258951,410.6554737057304,"[11, 0, 243]",243,a,0.22124749806243926,colour,0.4
73,72,1,2,5,24,224,411.17660115961917,411.87144839880057,"[72, 0, 182]",182,l,0.17138861306011677,colour,0.4
73,72,1,2,5,25,225,412.3799093840644,413.02344129700214,"[66, 0, 188]",188,l,0.120199317461811,colour,0.4
73,72,1,2,5,26,226,413.5362204054836,414.319517491851,"[99, 0, 155]",155,l,0.2599585831630975,colour,0.4
73,72,1,2,5,27,227,414.8331599100493,415.631468815729,"[56, 0, 198]",198,a,0.27486918412614614,colour,0.4
73,72,1,2,5,28,228,416.14581070363056,416.8474513856927,"[68, 0, 186]",186,a,0.1782816988416016,colour,0.4
73,72,1,2,5,29,229,417.3646435342962,418.1274661627831,"[89, 0, 165]",165,l,0.23941008222755045,colour,0.4
73,72,1,2,5,30,230,418.646034014062,419.4234383824514,"[80, 0, 174]",174,l,0.2540276621002704,colour,0.4
73,72,1,2,5,31,231,419.9428959310753,420.5434624386253,"[79, 0, 175]",175,l,0.077139389119111,colour,0.4
73,72,1,2,5,32,232,421.0524224261753,421.6874634216074,"[85, 0, 169]",169,l,0.11244686041027308,colour,0.4
73,72,1,2,5,33,233,422.20877086301334,423.4474342140602,"[61, 0, 193]",193,a,0.7152953094337136,colour,0.4
73,72,1,2,5,34,234,423.95898806885816,424.65548433957156,"[14, 0, 240]",240,a,0.17322629666887224,colour,0.4
73,72,1,2,5,35,235,425.16213678580243,425.7994888671674,"[98, 0, 156]",156,l,0.11389503069221973,colour,0.4
73,72,1,2,5,36,236,426.3184659241233,426.927459546132,"[82, 0, 172]",172,l,0.08560746349394321,colour,0.4
73,72,1,2,5,37,237,427.44345125334803,428.25540612183977,"[65, 0, 189]",189,a,0.2884517378406599,colour,0.4
73,72,1,2,5,38,238,428.7718038838357,429.6874846892897,"[42, 0, 212]",212,a,0.3923344253562391,colour,0.4
73,72,1,2,5,39,239,430.1937783421017,430.7436061134795,"[44, 0, 210]",210,a,0.026551101822406054,colour,0.4
73,72,1,2,5,40,240,431.2563088159077,431.91144932829775,"[81, 0, 173]",173,l,0.13171812007203698,colour,0.4
73,72,1,2,5,41,241,432.42826653586235,433.511443184223,"[55, 0, 199]",199,a,0.5597388960886747,colour,0.4
73,72,1,2,5,42,242,434.02215184643865,434.8074378531892,"[47, 0, 207]",207,l,0.26190890662837774,colour,0.4
73,72,1,2,5,43,243,435.3191555477679,436.05538887134753,"[70, 0, 184]",184,l,0.21297358942683786,colour,0.4
73,72,1,2,5,44,244,436.56927980610635,437.5834361927118,"[19, 0, 235]",235,a,0.49088050483260304,colour,0.4
73,72,1,2,5,45,245,438.10065984900575,438.7834026371129,"[88, 0, 166]",166,l,0.15937080804724246,colour,0.4
73,72,1,2,5,46,246,439.3038908796152,439.9674203033792,"[33, 0, 221]",221,a,0.14036184956785291,colour,0.4
73,72,1,2,5,47,247,440.4759080702206,441.1274153566919,"[67, 0, 187]",187,l,0.12827078928239644,colour,0.4
73,72,1,2,5,48,248,441.6477657533251,442.59940348146483,"[52, 0, 202]",202,a,0.4282413297332823,colour,0.4
73,72,1,2,5,49,249,443.11671614681836,443.7274269358022,"[64, 0, 190]",190,a,0.08744160260539502,colour,0.4
73,72,1,2,5,50,250,444.24169990071096,444.9514234762173,"[73, 0, 181]",181,l,0.18631142319645733,colour,0.4
73,72,1,2,6,1,251,462.24228279222734,464.1513977975119,"[61, 0, 193]",193,l,1.3848860171856359,colour,0.28
73,72,1,2,6,2,252,464.66520366154145,465.359427443007,"[94, 0, 160]",160,l,0.17091205972246826,colour,0.28
73,72,1,2,6,3,253,465.86843390448485,469.64742074452806,"[66, 0, 188]",188,a,3.2559890133561566,colour,0.28
73,72,1,2,6,4,254,470.1656112917699,470.7273879450513,"[89, 0, 165]",165,l,0.03842160862404853,colour,0.28
73,72,1,2,6,5,255,471.2438309993595,472.3353752915282,"[64, 0, 190]",190,a,0.5682211490347981,colour,0.28
73,72,1,2,6,6,256,472.85337954980787,477.0633610942168,"[40, 0, 214]",214,a,3.686885256203823,colour,0.28
73,72,1,2,6,7,257,477.5724502631929,478.56739840563387,"[92, 0, 162]",162,l,0.4715840391581878,colour,0.28
73,72,1,2,6,8,258,479.0882229922572,479.77538630354684,"[57, 0, 197]",197,a,0.16379960195627064,colour,0.28
73,72,1,2,6,9,259,480.29135044151917,480.92742764472496,"[33, 0, 221]",221,a,0.11258746334351599,colour,0.28
73,72,1,2,6,10,260,481.447774890461,482.07935437676497,"[79, 0, 175]",175,l,0.1081917523406446,colour,0.28
73,72,1,2,6,11,261,482.5884656012058,483.1833776672138,"[87, 0, 167]",167,l,0.07150779059156775,colour,0.28
73,72,1,2,6,12,262,483.69788221339695,484.4633447889937,"[65, 0, 189]",189,a,0.24203112476971,colour,0.28
73,72,1,2,6,13,263,484.97918762254994,485.71139151172247,"[76, 0, 178]",178,a,0.2086897308472544,colour,0.28
73,72,1,2,6,14,264,486.229416643735,487.1033809282817,"[45, 0, 209]",209,a,0.3505899413721636,colour,0.28
73,72,1,2,6,15,265,487.6200193299446,488.375443568686,"[93, 0, 161]",161,l,0.23224248609039932,colour,0.28
73,72,1,2,6,16,266,488.88568158529233,489.6633494363632,"[55, 0, 199]",199,a,0.25415841885842383,colour,0.28
73,72,1,2,6,17,267,490.18276838806923,490.84735646890476,"[50, 0, 204]",204,a,0.14116647618357092,colour,0.28
73,72,1,2,6,18,268,491.3547706125537,492.03132372302935,"[54, 0, 200]",200,a,0.1531823119148612,colour,0.28
73,72,1,2,6,19,269,492.5423510062974,493.31135189079214,"[13, 0, 241]",241,a,0.24566080595832318,colour,0.28
73,72,1,2,6,20,270,493.82375487685204,494.59138202795293,"[71, 0, 183]",183,l,0.2443024325184524,colour,0.28
73,72,1,2,6,21,271,495.10506501211785,495.74337886460125,"[91, 0, 163]",163,l,0.11493242008145899,colour,0.28
73,72,1,2,6,22,272,496.2613382244017,497.07135734171607,"[53, 0, 201]",201,a,0.2865715188672766,colour,0.28
73,72,1,2,6,23,273,497.5896372918505,498.6313538127579,"[18, 0, 236]",236,a,0.5183870760956779,colour,0.28
73,72,1,2,6,24,274,499.15217052260414,499.99131491663866,"[78, 0, 176]",176,l,0.3157527217408642,colour,0.28
73,72,1,2,6,25,275,500.5116897316184,501.28729658864904,"[44, 0, 210]",210,a,0.25209742481820285,colour,0.28
73,72,1,2,6,26,276,501.80870721756946,502.5113537813304,"[37, 0, 217]",217,a,0.17925764829851687,colour,0.28
73,72,1,2,6,27,277,503.0275880973786,503.65533625357784,"[6, 0, 248]",248,a,0.10446360986679792,colour,0.28
73,72,1,2,6,28,278,504.16823902970646,504.9433421581052,"[47, 0, 207]",207,a,0.2516886129742488,colour,0.28
73,72,1,2,6,29,279,505.4495842172764,506.19134949625004,"[97, 0, 157]",157,l,0.2182460007024929,colour,0.28
73,72,1,2,6,30,280,506.69969705399126,507.59135564020835,"[74, 0, 180]",180,l,0.3683102368377149,colour,0.28
73,72,1,2,6,31,281,508.1059866108699,509.9673793434631,"[60, 0, 194]",194,a,1.3378580942517146,colour,0.28
73,72,1,2,6,32,282,510.4812123829033,511.1833441903582,"[96, 0, 158]",158,l,0.17870429519098252,colour,0.28
73,72,1,2,6,33,283,511.7000723888632,512.4793164100265,"[72, 0, 182]",182,a,0.25590118567924947,colour,0.28
73,72,1,2,6,34,284,512.9970804224722,513.6153424133081,"[85, 0, 169]",169,l,0.09488410304766148,colour,0.28
73,72,1,2,6,35,285,514.1221752408892,514.8153021623148,"[7, 0, 247]",247,a,0.16973800596315414,colour,0.28
73,72,1,2,6,36,286,515.3254109976115,515.9593098406913,"[88, 0, 166]",166,l,0.11053473991341889,colour,0.28
73,72,1,2,6,37,287,516.4660595668247,517.3113542539068,"[52, 0, 202]",202,a,0.3218230640050024,colour,0.28
73,72,1,2,6,38,288,517.8255964989075,518.4553138831398,"[90, 0, 164]",164,l,0.10634067794308066,colour,0.28
73,72,1,2,6,39,289,518.966296268045,519.7433048215462,"[43, 0, 211]",211,a,0.25400403141975403,colour,0.28
73,72,1,2,6,40,290,520.2632712186314,520.9593051145785,"[99, 0, 155]",155,l,0.17267806350719184,colour,0.28
73,72,1,2,6,41,291,521.466481375508,522.6232973069418,"[21, 0, 233]",233,a,0.6333785729948431,colour,0.28
73,72,1,2,6,42,292,523.1384540614672,523.9432913520141,"[28, 0, 226]",226,a,0.2814542828127742,colour,0.28
73,72,1,2,6,43,293,524.4511497535277,525.1912916009314,"[83, 0, 171]",171,l,0.2168387903366238,colour,0.28
73,72,1,2,6,44,294,525.7012149349321,526.5672763134353,"[70, 0, 184]",184,l,0.3427276014117524,colour,0.28
73,72,1,2,6,45,295,527.0762303933734,527.7672896254808,"[86, 0, 168]",168,l,0.16756752296350896,colour,0.28
73,72,1,2,6,46,296,528.2795437377645,529.5673775317846,"[68, 0, 186]",186,a,0.7644692970206961,colour,0.28
73,72,1,2,6,47,297,530.0764997837832,533.2713371767895,"[67, 0, 187]",187,a,2.6714496590429917,colour,0.28
73,72,1,2,6,48,298,533.7799273433629,534.4712949565146,"[81, 0, 173]",173,l,0.16797278996091336,colour,0.28
73,72,1,2,6,49,299,534.9831591617549,535.7592795933597,"[20, 0, 234]",234,a,0.2527224577497691,colour,0.28
73,72,1,2,6,50,300,536.2801341123413,536.9112630392192,"[73, 0, 181]",181,l,0.10770338377915323,colour,0.28
73,72,1,2,7,1,301,604.0503342568409,604.8232007360784,"[75, 0, 179]",179,l,0.2487682478968054,colour,0.14
73,72,1,2,7,2,302,605.3324962801998,607.911156307091,"[94, 0, 160]",160,l,2.0553979297401384,colour,0.14
73,72,1,2,7,3,303,608.4263205446769,608.9835325273452,"[77, 0, 177]",177,l,0.03278173936996609,colour,0.14
73,72,1,2,7,4,304,609.5047552919714,610.071458953782,"[79, 0, 175]",175,l,0.04252744896803051,colour,0.14
73,72,1,2,7,5,305,610.5828143104445,612.0392321428517,"[11, 0, 243]",243,a,0.9332569534890354,colour,0.14
73,72,1,2,7,6,306,612.5516847533872,613.2871654380579,"[99, 0, 155]",155,l,0.2128113250946626,colour,0.14
73,72,1,2,7,7,307,613.8016660457943,614.5512779109413,"[50, 0, 204]",204,a,0.22697165026329458,colour,0.14
73,72,1,2,7,8,308,615.0675173469353,615.6472234278917,"[78, 0, 176]",176,l,0.056989459902979434,colour,0.14
73,72,1,2,7,9,309,616.1612309408374,616.8392121355282,"[52, 0, 202]",202,a,0.1551956506446004,colour,0.14
73,72,1,2,7,10,310,617.3488589898916,618.0792484323028,"[37, 0, 217]",217,a,0.20642905693966895,colour,0.14
73,72,1,2,7,11,311,618.5989749775035,619.2472070439253,"[80, 0, 174]",174,l,0.1257682943250984,colour,0.14
73,72,1,2,7,12,312,619.7552962389309,620.5351743515348,"[24, 0, 230]",230,a,0.2563269328093156,colour,0.14
73,72,1,2,7,13,313,621.0523735893657,621.7351144081913,"[96, 0, 158]",158,l,0.15945981710683554,colour,0.14
73,72,1,2,7,14,314,622.2556254938245,622.9752334125806,"[95, 0, 159]",159,l,0.19626035704277456,colour,0.14
73,72,1,2,7,15,315,623.4901140813017,624.1592467466835,"[93, 0, 161]",161,l,0.14576501748524606,colour,0.14
73,72,1,2,7,16,316,624.6776917182142,625.375163544435,"[88, 0, 166]",166,l,0.17454174091108143,colour,0.14
73,72,1,2,7,17,317,625.8809503179509,627.2231552862795,"[63, 0, 191]",191,a,0.8188266867073253,colour,0.14
73,72,1,2,7,18,318,627.7404167517088,628.7591326889815,"[58, 0, 196]",196,a,0.4953191449167207,colour,0.14
73,72,1,2,7,19,319,629.2718062469503,629.9591652994277,"[98, 0, 156]",156,l,0.16392957093194127,colour,0.14
73,72,1,2,7,20,320,630.4750329451635,631.0631795313675,"[91, 0, 163]",163,l,0.06475294451229274,colour,0.14
73,72,1,2,7,21,321,631.5844558590325,632.3511688944418,"[28, 0, 226]",226,a,0.24334381229709834,colour,0.14
73,72,1,2,7,22,322,632.8657380312216,633.6072098952718,"[71, 0, 183]",183,l,0.2179541609948501,colour,0.14
73,72,1,2,7,23,323,634.1158607142279,634.8471532445401,"[85, 0, 169]",169,l,0.20786068576853722,colour,0.14
73,72,1,2,7,24,324,635.3659507079283,635.9912089721765,"[81, 0, 173]",173,l,0.10193393949884921,colour,0.14
73,72,1,2,7,25,325,636.5066859230865,637.0951601888519,"[70, 0, 184]",184,l,0.06500855041667819,colour,0.14
73,72,1,2,7,26,326,637.616197846015,639.1111751329154,"[64, 0, 190]",190,a,0.9716206667944789,colour,0.14
73,72,1,2,7,27,327,639.631964273518,640.6231437071692,"[84, 0, 170]",170,l,0.46781848126556724,colour,0.14
73,72,1,2,7,28,328,641.132060765638,641.7911267371383,"[86, 0, 168]",168,l,0.13571210822556168,colour,0.14
73,72,1,2,7,29,329,642.3039980055764,643.0952184780035,"[56, 0, 198]",198,a,0.2679182030260563,colour,0.14
73,72,1,2,7,30,330,643.6011076514842,644.3511263590772,"[54, 0, 200]",200,a,0.2267058043507859,colour,0.14
73,72,1,2,7,31,331,644.86671594996,645.5911378436722,"[60, 0, 194]",194,a,0.20095854147803038,colour,0.14
73,72,1,2,7,32,332,646.1011946912622,646.7512077275896,"[65, 0, 189]",189,a,0.12665050849318504,colour,0.14
73,72,1,2,7,33,333,647.2576348941075,648.0551171179395,"[74, 0, 180]",180,l,0.2744867601431906,colour,0.14
73,72,1,2,7,34,334,648.5701391771436,649.2231300801504,"[76, 0, 178]",178,l,0.12976149492897093,colour,0.14
73,72,1,2,7,35,335,649.7421386446804,650.5271202088334,"[29, 0, 225]",225,a,0.26162139943335205,colour,0.14
73,72,1,2,7,36,336,651.039102173876,651.7751901684096,"[69, 0, 185]",185,l,0.2126900206785649,colour,0.14
73,72,1,2,7,37,337,652.2891886229627,653.1511244686553,"[51, 0, 203]",203,a,0.33855874568689615,colour,0.14
73,72,1,2,7,38,338,653.6642521305475,654.3191264031921,"[97, 0, 157]",157,l,0.13137508044019341,colour,0.14
73,72,1,2,7,39,339,654.836309493403,655.7511695246212,"[73, 0, 181]",181,a,0.39155973109882325,colour,0.14
73,72,1,2,7,40,340,656.2582071517827,656.8791638342664,"[36, 0, 218]",218,l,0.09750435792375356,colour,0.14
73,72,1,2,7,41,341,657.3990057761548,659.3431521670427,"[68, 0, 186]",186,l,1.420843333704397,colour,0.14
73,72,1,2,7,42,342,659.8523063205648,660.7191376672126,"[48, 0, 206]",206,a,0.34354010492097586,colour,0.14
73,72,1,2,7,43,343,661.2274186649593,661.8471296138596,"[72, 0, 182]",182,l,0.09635708562564105,colour,0.14
73,72,1,2,7,44,344,662.3687481932575,663.6471257541561,"[59, 0, 195]",195,a,0.7555750815663487,colour,0.14
73,72,1,2,7,45,345,664.1651662462391,664.8791236620164,"[89, 0, 165]",165,l,0.19095053058117628,colour,0.14
73,72,1,2,7,46,346,665.3996902798535,666.2231241724221,"[62, 0, 192]",192,a,0.3001213831594214,colour,0.14
73,72,1,2,7,47,347,666.7434044645634,667.6470930649666,"[55, 0, 199]",199,a,0.38014726678375155,colour,0.14
73,72,1,2,7,48,348,668.1653982212301,668.9511733842082,"[82, 0, 172]",172,l,0.2623492260463536,colour,0.14
73,72,1,2,7,49,349,669.462413738016,670.2790730922716,"[57, 0, 197]",197,a,0.29328619269654155,colour,0.14
73,72,1,2,7,50,350,670.7907151685795,671.4951580620836,"[90, 0, 164]",164,l,0.18110832874663174,colour,0.14
73,72,1,2,8,1,351,683.681499811355,685.3270647553727,"[30, 0, 224]",224,a,1.1217246814630926,colour,0.06
73,72,1,2,8,2,352,685.8387009239523,687.9590743210865,"[64, 0, 190]",190,l,1.5969978724606335,colour,0.06
73,72,1,2,8,3,353,688.4796216404065,689.1750789463986,"[96, 0, 158]",158,l,0.17221332574263215,colour,0.06
73,72,1,2,8,4,354,689.6827423942741,690.5830632209545,"[70, 0, 184]",184,a,0.37721154163591564,colour,0.06
73,72,1,2,8,5,355,691.1046770742396,692.175126601709,"[87, 0, 167]",167,l,0.5469983844086528,colour,0.06
73,72,1,2,8,6,356,692.6830354153644,693.3910867224913,"[54, 0, 200]",200,a,0.18512279714923352,colour,0.06
73,72,1,2,8,7,357,693.90182807378,694.7430385819171,"[69, 0, 185]",185,a,0.31784443568903953,colour,0.06
73,72,1,2,8,8,358,695.2613208951661,695.8150741257705,"[6, 0, 248]",248,a,0.03042733040638268,colour,0.06
73,72,1,2,8,9,359,696.3238773627672,696.9111429164186,"[92, 0, 162]",162,l,0.0637990505201742,colour,0.06
73,72,1,2,8,10,360,697.417682722793,698.127089252579,"[72, 0, 182]",182,a,0.1860026482027024,colour,0.06
73,72,1,2,8,11,361,698.6366116517456,701.3270702691516,"[78, 0, 176]",176,l,2.1673780831042677,colour,0.06
73,72,1,2,8,12,362,701.8399025468389,702.9030552967452,"[68, 0, 186]",186,l,0.5397854959592223,colour,0.06
73,72,1,2,8,13,363,703.4182325311704,705.4470746329753,"[66, 0, 188]",188,l,1.5055177769390866,colour,0.06
73,72,1,2,8,14,364,705.9652580909897,707.1110502838856,"[63, 0, 191]",191,l,0.62242651428096,colour,0.06
73,72,1,2,8,15,365,707.6216931737727,708.3350554889766,"[84, 0, 170]",170,l,0.19006122730206698,colour,0.06
73,72,1,2,8,16,366,708.8561006292002,709.5270504981745,"[93, 0, 161]",161,l,0.14755465206690133,colour,0.06
73,72,1,2,8,17,367,710.0436581798131,711.2230304372497,"[50, 0, 204]",204,a,0.6559561665635556,colour,0.06
73,72,1,2,8,18,368,711.7313768133754,712.3910603348631,"[61, 0, 193]",193,a,0.13632178131956607,colour,0.06
73,72,1,2,8,19,369,712.9033109025331,714.295077796327,"[77, 0, 177]",177,l,0.8686012887628749,colour,0.06
73,72,1,2,8,20,370,714.8097083731554,715.639059402165,"[51, 0, 203]",203,a,0.30597353517077863,colour,0.06
73,72,1,2,8,21,371,716.1535450437805,716.9751416465733,"[74, 0, 180]",180,l,0.29840618558228016,colour,0.06
73,72,1,2,8,22,372,717.4817716436228,719.8630457026884,"[62, 0, 192]",192,l,1.8578922328306362,colour,0.06
73,72,1,2,8,23,373,720.3726622309769,722.2230359510286,"[67, 0, 187]",187,a,1.3269966200459749,colour,0.06
73,72,1,2,8,24,374,722.7322460307041,723.287046890473,"[52, 0, 202]",202,a,0.03156475641299039,colour,0.06
73,72,1,2,8,25,375,723.7947855629027,724.4150226894999,"[59, 0, 195]",195,a,0.09685096808243543,colour,0.06
73,72,1,2,8,26,376,724.9355408642441,725.6630375107052,"[53, 0, 201]",201,a,0.20434403838589787,colour,0.06
73,72,1,2,8,27,377,726.1732207827736,727.0710312374867,"[58, 0, 196]",196,a,0.377918494399637,colour,0.06
73,72,1,2,8,28,378,727.591919233324,728.2710740879411,"[95, 0, 159]",159,l,0.155687169986777,colour,0.06
73,72,1,2,8,29,379,728.7794925378403,730.1590124085778,"[56, 0, 198]",198,a,0.8560903891921043,colour,0.06
73,72,1,2,8,30,380,730.6703004175797,731.5430134545313,"[55, 0, 199]",199,a,0.3498928345507011,colour,0.06
73,72,1,2,8,31,381,732.0610563097289,733.2630148251774,"[76, 0, 178]",178,l,0.678666879888624,colour,0.06
73,72,1,2,8,32,382,733.779936795705,734.5111131416634,"[82, 0, 172]",172,l,0.207863048883155,colour,0.06
73,72,1,2,8,33,383,735.0299818910426,736.278975812369,"[73, 0, 181]",181,l,0.7255116645246744,colour,0.06
73,72,1,2,8,34,384,736.7958134999499,737.927043251344,"[65, 0, 189]",189,a,0.6079058204777539,colour,0.06
73,72,1,2,8,35,385,738.4365179952001,739.111057373113,"[99, 0, 155]",155,l,0.15135368681512773,colour,0.06
73,72,1,2,8,36,386,739.6241554965964,740.8230250809574,"[60, 0, 194]",194,a,0.6754660966107622,colour,0.06
73,72,1,2,8,37,387,741.3429280688288,742.0869989200728,"[86, 0, 168]",168,l,0.22051179443951696,colour,0.06
73,72,1,2,8,38,388,742.5930349979317,744.0310397603316,"[75, 0, 179]",179,a,0.9144583087181672,colour,0.06
73,72,1,2,8,39,389,744.546452908311,745.207060785382,"[90, 0, 164]",164,l,0.13727567542809993,colour,0.06
73,72,1,2,8,40,390,745.7183401298244,746.3590292651206,"[98, 0, 156]",156,l,0.1173474813112989,colour,0.06
73,72,1,2,8,41,391,746.8746641481994,747.7030002371175,"[71, 0, 183]",183,a,0.30489439819939435,colour,0.06
73,72,1,2,8,42,392,748.2185370526277,749.383034155122,"[79, 0, 175]",175,a,0.6411270915996283,colour,0.06
73,72,1,2,8,43,393,749.8905672400724,751.0150003978051,"[80, 0, 174]",174,a,0.6010332145961002,colour,0.06
73,72,1,2,8,44,394,751.5313682275591,752.5589575064369,"[57, 0, 197]",197,a,0.504304732545279,colour,0.06
73,72,1,2,8,45,395,753.0785052456195,753.7669603704708,"[89, 0, 165]",165,l,0.16534741513896734,colour,0.06
73,72,1,2,8,46,396,754.2815251750872,754.9111184979556,"[97, 0, 157]",157,l,0.10620716435369104,colour,0.06
73,72,1,2,8,47,397,755.4222127349349,756.9509835506324,"[81, 0, 173]",173,l,1.0057674751151353,colour,0.06
73,72,1,2,8,48,398,757.4693127315259,758.3269615677418,"[5, 0, 249]",249,a,0.3344040681840852,colour,0.06
73,72,1,2,8,49,399,758.844365605386,759.6229369383072,"[85, 0, 169]",169,l,0.2552592174615711,colour,0.06
73,72,1,2,8,50,400,760.141333466745,760.8230140532833,"[83, 0, 171]",171,l,0.15820660046301782,colour,0.06
73,72,1,2,9,1,401,782.6892380899517,784.9272228449117,"[63, 0, 191]",191,l,1.713838868192397,colour,0.06
73,72,1,2,9,2,402,785.4401693379041,786.0709449852584,"[83, 0, 171]",171,l,0.10739500261843204,colour,0.06
73,72,1,2,9,3,403,786.5809301531408,788.0309338158695,"[73, 0, 181]",181,l,0.9266328642843291,colour,0.06
73,72,1,2,9,4,404,788.5498120174743,789.0949022199493,"[90, 0, 164]",164,l,0.021741459262557328,colour,0.06
73,72,1,2,9,5,405,789.6124464665772,790.2069469640264,"[79, 0, 175]",175,l,0.07118444342631847,colour,0.06
73,72,1,2,9,6,406,790.7217977005057,794.0469263107516,"[64, 0, 190]",190,a,2.8016688026254997,colour,0.06
73,72,1,2,9,7,407,794.5659080938203,795.3029684931971,"[91, 0, 163]",163,l,0.21363249327987432,colour,0.06
73,72,1,2,9,8,408,795.8160201428691,796.5349734902848,"[57, 0, 197]",197,a,0.19558254885487258,colour,0.06
73,72,1,2,9,9,409,797.0504906135611,797.7268936687615,"[60, 0, 194]",194,a,0.15302556136157364,colour,0.06
73,72,1,2,9,10,410,798.2379942073021,798.9029505337821,"[51, 0, 203]",203,a,0.14150636491831392,colour,0.06
73,72,1,2,9,11,411,799.4099180565681,800.174910380505,"[68, 0, 186]",186,a,0.24146950105205178,colour,0.06
73,72,1,2,9,12,412,800.6914388992591,801.3669254757697,"[0, 0, 254]",254,l,0.1520846642088145,colour,0.06
73,72,1,2,9,13,413,801.8790141729405,803.3268792540766,"[45, 0, 209]",209,a,0.9244379625888541,colour,0.06
73,72,1,2,9,14,414,803.8479027327849,804.4309182983125,"[97, 0, 157]",157,l,0.059673517709597945,colour,0.06
73,72,1,2,9,15,415,804.9418187632691,805.622957024374,"[78, 0, 176]",176,l,0.1577205948997289,colour,0.06
73,72,1,2,9,16,416,806.1293251140742,806.7909719558666,"[88, 0, 166]",166,l,0.13824138487689197,colour,0.06
73,72,1,2,9,17,417,807.3012899231398,808.1348996048328,"[37, 0, 217]",217,a,0.3102152523351833,colour,0.06
73,72,1,2,9,18,418,808.6451384092215,809.2548945163144,"[86, 0, 168]",168,l,0.08632780716288835,colour,0.06
73,72,1,2,9,19,419,809.7703171166359,810.3829431767808,"[82, 0, 172]",172,l,0.0895715196384117,colour,0.06
73,72,1,2,9,20,420,810.8953040213091,811.7508914695354,"[69, 0, 185]",185,l,0.3321756897494197,colour,0.06
73,72,1,2,9,21,421,812.2703840703471,813.0069218366407,"[54, 0, 200]",200,l,0.21336585970129818,colour,0.06
73,72,1,2,9,22,422,813.5205083286855,814.9429038079688,"[59, 0, 195]",195,a,0.8992617757758126,colour,0.06
73,72,1,2,9,23,423,815.458129091654,816.3748902155785,"[62, 0, 192]",192,a,0.393265082500875,colour,0.06
73,72,1,2,9,24,424,816.8957604883472,818.430886002956,"[67, 0, 187]",187,a,1.0116838238900527,colour,0.06
73,72,1,2,9,25,425,818.9428179495735,819.6789516302524,"[52, 0, 202]",202,a,0.21275500510819256,colour,0.06
73,72,1,2,9,26,426,820.1928000296466,821.0388485372532,"[65, 0, 189]",189,a,0.3225103246513754,colour,0.06
73,72,1,2,9,27,427,821.5524180938955,822.8149705443066,"[89, 0, 165]",165,l,0.739277750137262,colour,0.06
73,72,1,2,9,28,428,823.3338172383374,824.3029153239913,"[53, 0, 201]",201,a,0.4457536747213453,colour,0.06
73,72,1,2,9,29,429,824.8182977520628,825.5589015803998,"[58, 0, 196]",196,a,0.2173129804432392,colour,0.06
73,72,1,2,9,30,430,826.0683467858471,826.7109118077205,"[71, 0, 183]",183,a,0.11913869110867381,colour,0.06
73,72,1,2,9,31,431,827.2246668657754,827.9670099163195,"[96, 0, 158]",158,l,0.21884740295354277,colour,0.06
73,72,1,2,9,32,432,828.4746127119288,829.2388504276751,"[50, 0, 204]",204,a,0.24055853602476418,colour,0.06
73,72,1,2,9,33,433,829.7561579730827,831.302877908689,"[76, 0, 178]",178,l,1.0233239309163764,colour,0.06
73,72,1,2,9,34,434,831.8187597329961,832.7028891727095,"[61, 0, 193]",193,a,0.36069956433493644,colour,0.06
73,72,1,2,9,35,435,833.2094975081272,834.0708457361907,"[94, 0, 160]",160,l,0.3378521865233779,colour,0.06
73,72,1,2,9,36,436,834.5846764125163,835.4628930480685,"[84, 0, 170]",170,a,0.35478164011146873,colour,0.06
73,72,1,2,9,37,437,835.9753964646952,836.63886838709,"[92, 0, 162]",162,l,0.14009836688637733,colour,0.06
73,72,1,2,9,38,438,837.1473419753602,837.7108869955409,"[95, 0, 159]",159,l,0.040114357019774616,colour,0.06
73,72,1,2,9,39,439,838.2255683783442,840.20689064404,"[80, 0, 174]",174,a,1.457965251756832,colour,0.06
73,72,1,2,9,40,440,840.7257196150022,842.4788662445499,"[75, 0, 179]",179,a,1.229689184925519,colour,0.06
73,72,1,2,9,41,441,842.991496479488,844.0308633175446,"[85, 0, 169]",169,l,0.5158262921031564,colour,0.06
73,72,1,2,9,42,442,844.5384968331782,845.558848017361,"[56, 0, 198]",198,a,0.4969067365163937,colour,0.06
73,72,1,2,9,43,443,846.069930045167,846.9268183655804,"[55, 0, 199]",199,a,0.3336518232244998,colour,0.06
73,72,1,2,9,44,444,847.4449659836246,848.1189496453153,"[66, 0, 188]",188,a,0.15046044497285038,colour,0.06
73,72,1,2,9,45,445,848.6325826111715,849.2788446617778,"[98, 0, 156]",156,l,0.12285895680543035,colour,0.06
73,72,1,2,9,46,446,849.7889523155754,851.6308618996991,"[70, 0, 184]",184,a,1.3185167302144691,colour,0.06
73,72,1,2,9,47,447,852.1485195737332,853.4389117888641,"[74, 0, 180]",180,a,0.7669576135231182,colour,0.06
73,72,1,2,9,48,448,853.9455532074207,854.8948503111023,"[81, 0, 173]",173,l,0.4263079415541142,colour,0.06
73,72,1,2,9,49,449,855.4143712688237,856.2708184821531,"[93, 0, 161]",161,l,0.3330575102008879,colour,0.06
73,72,1,2,9,50,450,856.7894871579483,857.4068263684167,"[87, 0, 167]",167,l,0.09390854742377996,colour,0.06
73,72,1,2,10,1,451,870.524182908237,872.0868256280664,"[93, 0, 161]",161,l,1.038431454799138,colour,0.06
73,72,1,2,10,2,452,872.6033269714098,874.2227819205727,"[64, 0, 190]",190,a,1.0963054917519912,colour,0.06
73,72,1,2,10,3,453,874.7440373743884,875.3588063485222,"[8, 0, 246]",246,a,0.09145804005675018,colour,0.06
73,72,1,2,10,4,454,875.8691349496366,876.6388620855287,"[65, 0, 189]",189,a,0.24641462648287416,colour,0.06
73,72,1,2,10,5,455,877.1504454788519,877.9268601131625,"[94, 0, 160]",160,l,0.2530107527272776,colour,0.06
73,72,1,2,10,6,456,878.4473967986414,879.294871421298,"[95, 0, 159]",159,l,0.32403529493603855,colour,0.06
73,72,1,2,10,7,457,879.8070652752649,880.5747845862061,"[50, 0, 204]",204,a,0.24482467176858336,colour,0.06
73,72,1,2,10,8,458,881.0883045182563,881.7107956232503,"[73, 0, 181]",181,l,0.09911991260014474,colour,0.06
73,72,1,2,10,9,459,882.2290145274019,882.9108250829158,"[91, 0, 163]",163,l,0.15841455082409084,colour,0.06
73,72,1,2,10,10,460,883.432183330413,884.1828278588364,"[67, 0, 187]",187,a,0.22718865924980491,colour,0.06
73,72,1,2,10,11,461,884.6979499548906,886.4708715724992,"[80, 0, 174]",174,a,1.24956105905585,colour,0.06
73,72,1,2,10,12,462,886.9793739115121,887.6708447121782,"[66, 0, 188]",188,a,0.16810945433098823,colour,0.06
73,72,1,2,10,13,463,888.1826474774862,888.9348012221744,"[99, 0, 155]",155,l,0.22872938308864832,colour,0.06
73,72,1,2,10,14,464,889.4483120959485,890.5428338609636,"[61, 0, 193]",193,a,0.5711367881158367,colour,0.06
73,72,1,2,10,15,465,891.0578539510025,892.5588306881255,"[86, 0, 168]",168,l,0.9776114523410797,colour,0.06
73,72,1,2,10,16,466,893.073597929324,893.9348272159696,"[69, 0, 185]",185,a,0.337829343508929,colour,0.06
73,72,1,2,10,17,467,894.4486925507663,895.7988086958649,"[78, 0, 176]",176,a,0.8267607064917684,colour,0.06
73,72,1,2,10,18,468,896.3082503566984,896.9827889468288,"[75, 0, 179]",179,a,0.15111895476002246,colour,0.06
73,72,1,2,10,19,469,897.495796879637,898.1987896336941,"[76, 0, 178]",178,a,0.17956051556393504,colour,0.06
73,72,1,2,10,20,470,898.7146316795843,899.4707821694901,"[90, 0, 164]",164,l,0.23275172838475555,colour,0.06
73,72,1,2,10,21,471,899.9803916085511,900.7107739618514,"[85, 0, 169]",169,l,0.20694499474484473,colour,0.06
73,72,1,2,10,22,472,901.2304339470575,901.9748568962095,"[56, 0, 198]",198,a,0.22097653232049197,colour,0.06
73,72,1,2,10,23,473,902.4962037221994,903.1268301021773,"[96, 0, 158]",158,l,0.10726621525827795,colour,0.06
73,72,1,2,10,24,474,903.6369153066771,904.5107740405947,"[53, 0, 201]",201,a,0.3506249936763197,colour,0.06
73,72,1,2,10,25,475,905.0276849834481,905.6708088723244,"[87, 0, 167]",167,l,0.11982398258987814,colour,0.06
73,72,1,2,10,26,476,906.1839963987004,907.5347663274733,"[71, 0, 183]",183,a,0.8273975548800081,colour,0.06
73,72,1,2,10,27,477,908.043426204822,908.814826396876,"[55, 0, 199]",199,a,0.2478513753740117,colour,0.06
73,72,1,2,10,28,478,909.3249446843984,909.9827940667747,"[51, 0, 203]",203,a,0.13458570977672935,colour,0.06
73,72,1,2,10,29,479,910.496822453686,911.1428206277778,"[47, 0, 207]",207,a,0.1226297386456281,colour,0.06
73,72,1,2,10,30,480,911.653176798136,912.4227365496336,"[81, 0, 173]",173,l,0.24640438647475094,colour,0.06
73,72,1,2,10,31,481,912.9345546748955,913.558792091324,"[88, 0, 166]",166,l,0.10090797173324972,colour,0.06
73,72,1,2,10,32,482,914.0752981608966,914.8708174581407,"[72, 0, 182]",182,a,0.272216240176931,colour,0.06
73,72,1,2,10,33,483,915.3878201670013,916.1107749857474,"[79, 0, 175]",175,a,0.19959898630622774,colour,0.06
73,72,1,2,10,34,484,916.6222583422204,917.2467537275515,"[77, 0, 177]",177,a,0.10108441452030092,colour,0.06
73,72,1,2,10,35,485,917.7629742590943,920.0788238667883,"[97, 0, 157]",157,a,1.7924658122938126,colour,0.06
73,72,1,2,10,36,486,920.5913836032851,921.222763016005,"[52, 0, 202]",202,l,0.10795268812216818,colour,0.06
73,72,1,2,10,37,487,921.7320888863178,924.2467363984324,"[60, 0, 194]",194,a,1.991299950517714,colour,0.06
73,72,1,2,10,38,488,924.7635201291414,925.7827677578898,"[89, 0, 165]",165,l,0.4958327194908634,colour,0.06
73,72,1,2,10,39,489,926.2949151381617,927.0627329105046,"[74, 0, 180]",180,a,0.24440680153202266,colour,0.06
73,72,1,2,10,40,490,927.5762012487976,928.326691783499,"[70, 0, 184]",184,a,0.22696219780482352,colour,0.06
73,72,1,2,10,41,491,928.8420954792527,929.5347643583082,"[63, 0, 191]",191,a,0.16937330504879355,colour,0.06
73,72,1,2,10,42,492,930.0451839377638,930.7187643015059,"[57, 0, 197]",197,a,0.15023555897641927,colour,0.06
73,72,1,2,10,43,493,931.2328048975905,931.9667224090081,"[68, 0, 186]",186,a,0.21054080524481833,colour,0.06
73,72,1,2,10,44,494,932.4828712606104,933.2067917888053,"[59, 0, 195]",195,a,0.20050719438586384,colour,0.06
73,72,1,2,10,45,495,933.7173641803674,934.2947800491238,"[58, 0, 196]",196,a,0.05401789478491992,colour,0.06
73,72,1,2,10,46,496,934.8112483094446,935.446766251931,"[54, 0, 200]",200,a,0.11221803608350456,colour,0.06
73,72,1,2,10,47,497,935.9675805985462,936.79072265164,"[92, 0, 162]",162,l,0.29969209153205156,colour,0.06
73,72,1,2,10,48,498,937.3113483461784,938.1107501735678,"[62, 0, 192]",192,a,0.2759506843285635,colour,0.06
73,72,1,2,10,49,499,938.6240467951866,939.3347604986047,"[39, 0, 215]",215,a,0.18735944642685354,colour,0.06
73,72,1,2,10,50,500,939.8429119212087,940.5667662833584,"[82, 0, 172]",172,l,0.20057414809707552,colour,0.06
73,72,1,2,11,1,501,950.264737505815,953.2947225476382,"[62, 0, 192]",192,a,2.506122723920271,colour,0.06
73,72,1,2,11,2,502,953.8127516180975,954.7667260323651,"[74, 0, 180]",180,a,0.4308966367971152,colour,0.06
73,72,1,2,11,3,503,955.2815621965565,955.9987062171567,"[51, 0, 203]",203,a,0.19381142512429506,colour,0.06
73,72,1,2,11,4,504,956.5160436948063,957.0466868525837,"[57, 0, 197]",197,a,0.007248728419654071,colour,0.06
73,72,1,2,11,5,505,957.5630302638747,958.446726079681,"[71, 0, 183]",183,a,0.3603758233366534,colour,0.06
73,72,1,2,11,6,506,958.9537361375988,959.6627665448468,"[88, 0, 166]",166,l,0.18562967632897198,colour,0.06
73,72,1,2,11,7,507,960.1725835405523,960.9427112174453,"[56, 0, 198]",198,a,0.24679783824831247,colour,0.06
73,72,1,2,11,8,508,961.4539342420176,962.0787104392657,"[82, 0, 172]",172,l,0.10154206317383796,colour,0.06
73,72,1,2,11,9,509,962.5945556358201,963.5827067906503,"[69, 0, 185]",185,a,0.46470473788212985,colour,0.06
73,72,1,2,11,10,510,964.0947438940639,964.7027237574803,"[65, 0, 189]",189,a,0.08462993870489299,colour,0.06
73,72,1,2,11,11,511,965.2197977524484,965.8467215897981,"[98, 0, 156]",156,l,0.10372081701643765,colour,0.06
73,72,1,2,11,12,512,966.3605628999649,967.086674391292,"[72, 0, 182]",182,a,0.20276392973028123,colour,0.06
73,72,1,2,11,13,513,967.5950274629286,968.1827053728048,"[95, 0, 159]",159,l,0.06427914835512638,colour,0.06
73,72,1,2,11,14,514,968.6888674811926,969.54266529507,"[59, 0, 195]",195,a,0.3303773907246068,colour,0.06
73,72,1,2,11,15,515,970.0639672225807,970.8866965255002,"[52, 0, 202]",202,a,0.2993648058036342,colour,0.06
73,72,1,2,11,16,516,971.407825160888,972.1107292997185,"[94, 0, 160]",160,l,0.179460872663185,colour,0.06
73,72,1,2,11,17,517,972.626608760911,973.5266964308685,"[63, 0, 191]",191,a,0.3766105331014842,colour,0.06
73,72,1,2,11,18,518,974.0330101698637,975.2866987310117,"[73, 0, 181]",181,a,0.73030791641213,colour,0.06
73,72,1,2,11,19,519,975.7987956989091,976.4547286286252,"[92, 0, 162]",162,l,0.13258891261648387,colour,0.06
73,72,1,2,11,20,520,976.9707427850226,979.1667443856131,"[50, 0, 204]",204,a,1.6731691890163347,colour,0.06
73,72,1,2,11,21,521,979.6741258399561,980.4386384600075,"[86, 0, 168]",168,l,0.24143878102768213,colour,0.06
73,72,1,2,11,22,522,980.9555198644521,982.5990328727057,"[61, 0, 193]",193,a,1.1202812371775508,colour,0.06
73,72,1,2,11,23,523,983.1118490027729,984.1266958008055,"[80, 0, 174]",174,l,0.4914413411170244,colour,0.06
73,72,1,2,11,24,524,984.6431636672933,985.4066692240303,"[84, 0, 170]",170,l,0.2400248752674088,colour,0.06
73,72,1,2,11,25,525,985.9245817163028,986.518657254288,"[81, 0, 173]",173,l,0.07068386557511985,colour,0.06
73,72,1,2,11,26,526,987.0340467715869,987.6308225151151,"[91, 0, 163]",163,l,0.07425801455974579,colour,0.06
73,72,1,2,11,27,527,988.1433192363475,989.4227798726643,"[77, 0, 177]",177,l,0.7565084956586361,colour,0.06
73,72,1,2,11,28,528,989.9404828390107,990.6786558522144,"[78, 0, 176]",176,l,0.2151791249634698,colour,0.06
73,72,1,2,11,29,529,991.1906508140964,992.6386883995729,"[70, 0, 184]",184,l,0.9246285838307813,colour,0.06
73,72,1,2,11,30,530,993.1594810847891,994.334652584861,"[75, 0, 179]",179,a,0.6516927877673879,colour,0.06
73,72,1,2,11,31,531,994.847207989078,995.6706462140428,"[83, 0, 171]",171,a,0.3000957833137363,colour,0.06
73,72,1,2,11,32,532,996.1910430843709,996.8706583444728,"[79, 0, 175]",175,a,0.15629566146526486,colour,0.06
73,72,1,2,11,33,533,997.3785915765911,999.6066813544603,"[93, 0, 161]",161,l,1.7046768377767876,colour,0.06
73,72,1,2,11,34,534,1000.1132258870639,1001.0226406088332,"[97, 0, 157]",157,l,0.38608291395939887,colour,0.06
73,72,1,2,11,35,535,1001.5351818345953,1002.3187853329582,"[16, 0, 238]",238,a,0.26021773368120193,colour,0.06
73,72,1,2,11,36,536,1002.8321359114489,1003.6627819049172,"[54, 0, 200]",200,a,0.30723265965934843,colour,0.06
73,72,1,2,11,37,537,1004.1759792774683,1006.8466841744957,"[23, 0, 231]",231,a,2.1474049907410517,colour,0.06
73,72,1,2,11,38,538,1007.3637688031886,1008.1346467559924,"[96, 0, 158]",158,l,0.24748431122861803,colour,0.06
73,72,1,2,11,39,539,1008.6450990246376,1009.3826312510064,"[0, 0, 254]",254,a,0.21463798102922738,colour,0.06
73,72,1,2,11,40,540,1009.8951638122089,1010.9266316826688,"[60, 0, 194]",194,a,0.5080663518747315,colour,0.06
73,72,1,2,11,41,541,1011.4421413228847,1012.0866460344987,"[64, 0, 190]",190,a,0.12105435621924698,colour,0.06
73,72,1,2,11,42,542,1012.5985673472751,1014.8546095297206,"[53, 0, 201]",201,a,1.7326843808405101,colour,0.06
73,72,1,2,11,43,543,1015.3643839900615,1016.0946533095557,"[87, 0, 167]",167,l,0.20685795485042036,colour,0.06
73,72,1,2,11,44,544,1016.6144562606933,1017.262632007245,"[89, 0, 165]",165,l,0.12476950185373425,colour,0.06
73,72,1,2,11,45,545,1017.7708346297732,1019.0865857760655,"[68, 0, 186]",186,a,0.7924815660808235,colour,0.06
73,72,1,2,11,46,546,1019.5990754080703,1020.2706306177424,"[66, 0, 188]",188,a,0.1481993772322312,colour,0.06
73,72,1,2,11,47,547,1020.7867042447906,1021.4546368626179,"[99, 0, 155]",155,l,0.14480048965197057,colour,0.06
73,72,1,2,11,48,548,1021.9742621893529,1022.63858718134,"[85, 0, 169]",169,l,0.14095340576022863,colour,0.06
73,72,1,2,11,49,549,1023.1462006107904,1023.838665083982,"[76, 0, 178]",178,l,0.16929256659932435,colour,0.06
73,72,1,2,11,50,550,1024.3494544845307,1025.0467148156604,"[90, 0, 164]",164,l,0.1738599941600114,colour,0.06
73,72,1,2,12,1,551,1050.1475538642844,1052.0065752525115,"[76, 0, 178]",178,l,1.335615931195207,colour,0.06
73,72,1,2,12,2,552,1052.523583081318,1054.1906055219006,"[58, 0, 196]",196,a,1.143676060368307,colour,0.06
73,72,1,2,12,3,553,1054.7112591796322,1055.4865844369633,"[62, 0, 192]",192,a,0.2520714310230687,colour,0.06
73,72,1,2,12,4,554,1056.0082199517637,1056.6866268935846,"[99, 0, 155]",155,l,0.1550578047754243,colour,0.06
73,72,1,2,12,5,555,1057.1957589917583,1058.2225739700953,"[66, 0, 188]",188,a,0.5034020383609459,colour,0.06
73,72,1,2,12,6,556,1058.7426797886146,1059.4305563542293,"[98, 0, 156]",156,l,0.164392733364366,colour,0.06
73,72,1,2,12,7,557,1059.9460092806257,1060.774561984581,"[68, 0, 186]",186,a,0.305140157812275,colour,0.06
73,72,1,2,12,8,558,1061.2898357112426,1062.0065847048536,"[54, 0, 200]",200,a,0.19339434267021716,colour,0.06
73,72,1,2,12,9,559,1062.524279400357,1063.2225668808678,"[50, 0, 204]",204,a,0.17486548202577978,colour,0.06
73,72,1,2,12,10,560,1063.7431445263792,1064.4625452824403,"[97, 0, 157]",157,l,0.19598742213565856,colour,0.06
73,72,1,2,12,11,561,1064.9777272430947,1065.678609772236,"[14, 0, 240]",240,a,0.17762791505083442,colour,0.06
73,72,1,2,12,12,562,1066.1964320738334,1067.0865471791476,"[65, 0, 189]",189,a,0.3665816484717652,colour,0.06
73,72,1,2,12,13,563,1067.6028133967193,1069.1665537642548,"[77, 0, 177]",177,a,1.0404518826398998,colour,0.06
73,72,1,2,12,14,564,1069.6809003783856,1070.4945995890303,"[92, 0, 162]",162,l,0.2902291630161926,colour,0.06
73,72,1,2,12,15,565,1071.0093215379165,1071.6305645462126,"[93, 0, 161]",161,l,0.09784621594008058,colour,0.06
73,72,1,2,12,16,566,1072.15007014398,1073.1906326973112,"[57, 0, 197]",197,a,0.5178502646740526,colour,0.06
73,72,1,2,12,17,567,1073.6970476545393,1074.3185328778345,"[79, 0, 175]",175,l,0.09807504015043378,colour,0.06
73,72,1,2,12,18,568,1074.8377915343735,1075.710567586706,"[53, 0, 201]",201,a,0.3494123429991305,colour,0.06
73,72,1,2,12,19,569,1076.228487168206,1076.8625447310042,"[91, 0, 163]",163,l,0.11065328738186508,colour,0.06
73,72,1,2,12,20,570,1077.3692156879697,1077.9986282357713,"[86, 0, 168]",168,l,0.10614533058833331,colour,0.06
73,72,1,2,12,21,571,1078.5099319986766,1079.350594273652,"[3, 0, 251]",251,a,0.3172260980354622,colour,0.06
73,72,1,2,12,22,572,1079.869437423069,1080.846534907003,"[59, 0, 195]",195,a,0.453964174259454,colour,0.06
73,72,1,2,12,23,573,1081.3538891860517,1082.430509486585,"[82, 0, 172]",172,l,0.5533802587306127,colour,0.06
73,72,1,2,12,24,574,1082.947790250415,1083.622555695707,"[87, 0, 167]",167,l,0.15139425289817154,colour,0.06
73,72,1,2,12,25,575,1084.135391911841,1084.8145030495944,"[95, 0, 159]",159,l,0.15584707132074982,colour,0.06
73,72,1,2,12,26,576,1085.3229656101903,1086.0705507458188,"[89, 0, 165]",165,l,0.22416904475539923,colour,0.06
73,72,1,2,12,27,577,1086.5886885178043,1087.278654040536,"[90, 0, 164]",164,l,0.16660653962753713,colour,0.06
73,72,1,2,12,28,578,1087.791972717503,1088.6545753438259,"[55, 0, 199]",199,a,0.33933974138926715,colour,0.06
73,72,1,2,12,29,579,1089.167030711309,1091.022548842826,"[75, 0, 179]",179,a,1.3321784466970712,colour,0.06
73,72,1,2,12,30,580,1091.5422659355681,1092.2545506891329,"[61, 0, 193]",193,a,0.1889454625779763,colour,0.06
73,72,1,2,12,31,581,1092.76109522162,1093.4065160180908,"[38, 0, 216]",216,a,0.12216736387927085,colour,0.06
73,72,1,2,12,32,582,1093.9174948583823,1094.4945168814156,"[63, 0, 191]",191,a,0.05352519394364208,colour,0.06
73,72,1,2,12,33,583,1095.0113518120488,1095.9985400143778,"[71, 0, 183]",183,a,0.46382291754707694,colour,0.06
73,72,1,2,12,34,584,1096.5114932026481,1098.68654418597,"[74, 0, 180]",180,a,1.6517317785182968,colour,0.06
73,72,1,2,12,35,585,1099.199098802521,1099.878525016713,"[52, 0, 202]",202,a,0.15600342804100364,colour,0.06
73,72,1,2,12,36,586,1100.3868142853025,1101.142496098997,"[83, 0, 171]",171,l,0.23261585168074816,colour,0.06
73,72,1,2,12,37,587,1101.652471420588,1102.366530054831,"[81, 0, 173]",173,l,0.19078511546831578,colour,0.06
73,72,1,2,12,38,588,1102.8869655219605,1103.5025603903923,"[94, 0, 160]",160,l,0.09231780504342169,colour,0.06
73,72,1,2,12,39,589,1104.0121146910824,1105.0225173351355,"[73, 0, 181]",181,a,0.48714763612952083,colour,0.06
73,72,1,2,12,40,590,1105.5433675218374,1106.2705372762866,"[88, 0, 166]",166,l,0.20383164507802576,colour,0.06
73,72,1,2,12,41,591,1106.7778608354274,1107.686528432183,"[78, 0, 176]",176,l,0.3853806873084977,colour,0.06
73,72,1,2,12,42,592,1108.1997758231591,1108.96652745537,"[56, 0, 198]",198,a,0.24329182459041476,colour,0.06
73,72,1,2,12,43,593,1109.481191115221,1110.9665042185225,"[72, 0, 182]",182,a,0.9619793262099847,colour,0.06
73,72,1,2,12,44,594,1111.4813730719034,1112.3585881580366,"[96, 0, 158]",158,l,0.35386791836936027,colour,0.06
73,72,1,2,12,45,595,1112.8720903671347,1114.3984673891682,"[80, 0, 174]",174,a,1.002993620466441,colour,0.06
73,72,1,2,12,46,596,1114.9191407391336,1115.6784817724256,"[69, 0, 185]",185,a,0.2360304930480197,colour,0.06
73,72,1,2,12,47,597,1116.1849038189976,1116.8704925355269,"[51, 0, 203]",203,a,0.1623581270687282,colour,0.06
73,72,1,2,12,48,598,1117.3880931020249,1118.0784808272729,"[84, 0, 170]",170,a,0.16702952980995178,colour,0.06
73,72,1,2,12,49,599,1118.591261905036,1119.2544998830417,"[85, 0, 169]",169,a,0.13983606570400298,colour,0.06
73,72,1,2,12,50,600,1119.7633952799952,1121.0544916910585,"[64, 0, 190]",190,a,0.7679493167670444,colour,0.06
73,72,1,2,13,1,601,1169.0475564637454,1170.3584644905059,"[81, 0, 173]",173,l,0.7866719494340941,colour,0.06
73,72,1,2,13,2,602,1170.876627074671,1172.7503841964062,"[66, 0, 188]",188,a,1.3503252770751715,colour,0.06
73,72,1,2,13,3,603,1173.2673833606532,1174.0064271665178,"[84, 0, 170]",170,l,0.21549774601589888,colour,0.06
73,72,1,2,13,4,604,1174.5175099821063,1175.1104744815966,"[86, 0, 168]",168,l,0.0696425378555432,colour,0.06
73,72,1,2,13,5,605,1175.6269919726765,1176.942433950142,"[71, 0, 183]",183,l,0.7920727543532848,colour,0.06
73,72,1,2,13,6,606,1177.4553166400874,1178.2944118034793,"[55, 0, 199]",199,a,0.3157720201415941,colour,0.06
73,72,1,2,13,7,607,1178.814777166117,1179.7823995122453,"[65, 0, 189]",189,a,0.4443125936668366,colour,0.06
73,72,1,2,13,8,608,1180.2993076982675,1180.9344061950687,"[92, 0, 162]",162,l,0.1117592059308663,colour,0.06
73,72,1,2,13,9,609,1181.4555482213618,1182.1904030853184,"[57, 0, 197]",197,a,0.21146988705731928,colour,0.06
73,72,1,2,13,10,610,1182.705643728841,1183.3829479028936,"[73, 0, 181]",181,a,0.15465056838002056,colour,0.06
73,72,1,2,13,11,611,1183.8931977349566,1184.5664090653881,"[51, 0, 203]",203,a,0.14967314747627825,colour,0.06
73,72,1,2,13,12,612,1185.0808348424034,1185.7903906397987,"[80, 0, 174]",174,l,0.186166881932877,colour,0.06
73,72,1,2,13,13,613,1186.299746442237,1187.070371939917,"[69, 0, 185]",185,a,0.24730865599121898,colour,0.06
73,72,1,2,13,14,614,1187.5810628790641,1188.1983583727852,"[1, 0, 253]",253,a,0.09386561834253371,colour,0.06
73,72,1,2,13,15,615,1188.706177783548,1189.4063821106683,"[60, 0, 194]",194,l,0.1769579837564379,colour,0.06
73,72,1,2,13,16,616,1189.9251606693724,1191.014343069517,"[68, 0, 186]",186,l,0.5660388505784795,colour,0.06
73,72,1,2,13,17,617,1191.5344354971312,1192.1823457917199,"[94, 0, 160]",160,l,0.12446072685997933,colour,0.06
73,72,1,2,13,18,618,1192.69084340462,1193.2383884468582,"[98, 0, 156]",156,l,0.02415730827488005,colour,0.06
73,72,1,2,13,19,619,1193.7534447707003,1194.4623684457038,"[59, 0, 195]",195,a,0.1858171469066292,colour,0.06
73,72,1,2,13,20,620,1194.9722590906313,1195.8383641858818,"[90, 0, 164]",164,l,0.3427669858792797,colour,0.06
73,72,1,2,13,21,621,1196.3473993981024,1197.038396402495,"[93, 0, 161]",161,l,0.16766519658267498,colour,0.06
73,72,1,2,13,22,622,1197.5506607547868,1198.1823910840321,"[82, 0, 172]",172,l,0.10848201659973711,colour,0.06
73,72,1,2,13,23,623,1198.691267970251,1199.4143779642181,"[63, 0, 191]",191,a,0.19970256777014583,colour,0.06
73,72,1,2,13,24,624,1199.925900311442,1200.7023677211255,"[67, 0, 187]",187,l,0.2531615956686437,colour,0.06
73,72,1,2,13,25,625,1201.2227685299003,1202.43839033728,"[56, 0, 198]",198,a,0.6922734580002725,colour,0.06
73,72,1,2,13,26,626,1202.9572559358785,1203.7343857939122,"[76, 0, 178]",178,l,0.25361924432218075,colour,0.06
73,72,1,2,13,27,627,1204.2542777541094,1204.8703806833364,"[99, 0, 155]",155,l,0.09272779838647693,colour,0.06
73,72,1,2,13,28,628,1205.3792595387204,1207.7823589461623,"[77, 0, 177]",177,a,1.8796624427195638,colour,0.06
73,72,1,2,13,29,629,1208.301460458315,1208.91834556486,"[85, 0, 169]",169,l,0.09353439405094832,colour,0.06
73,72,1,2,13,30,630,1209.4264926551841,1210.142400788376,"[53, 0, 201]",201,a,0.19251724844798446,colour,0.06
73,72,1,2,13,31,631,1210.6609796673292,1211.406366356765,"[91, 0, 163]",163,l,0.2220844200346619,colour,0.06
73,72,1,2,13,32,632,1211.9266403473448,1213.2943290958647,"[72, 0, 182]",182,a,0.8442293347325176,colour,0.06
73,72,1,2,13,33,633,1213.8019027468981,1214.534342943458,"[62, 0, 192]",192,a,0.20914659171830863,colour,0.06
73,72,1,2,13,34,634,1215.0519403591752,1215.7743741202867,"[97, 0, 157]",157,l,0.19902672874741256,colour,0.06
73,72,1,2,13,35,635,1216.2864628174575,1217.0224058768945,"[79, 0, 175]",175,l,0.21279242052696645,colour,0.06
73,72,1,2,13,36,636,1217.5365090942942,1218.2223542042775,"[61, 0, 193]",193,l,0.16264051420148462,colour,0.06
73,72,1,2,13,37,637,1218.7397586356383,1219.9983446669066,"[58, 0, 196]",196,a,0.7352042050333694,colour,0.06
73,72,1,2,13,38,638,1220.5054346756078,1221.302382844733,"[70, 0, 184]",184,a,0.2735072660725564,colour,0.06
73,72,1,2,13,39,639,1221.8180610508425,1222.4623613564763,"[95, 0, 159]",159,l,0.1209306885721162,colour,0.06
73,72,1,2,13,40,640,1222.9744362691417,1223.8142982498975,"[34, 0, 220]",220,a,0.31651993293780833,colour,0.06
73,72,1,2,13,41,641,1224.3338625305332,1225.102400646545,"[75, 0, 179]",179,l,0.2451448681531474,colour,0.06
73,72,1,2,13,42,642,1225.615246315021,1226.2143811937422,"[5, 0, 249]",249,a,0.07576920022256672,colour,0.06
73,72,1,2,13,43,643,1226.7247885640245,1227.5183346947888,"[50, 0, 204]",204,a,0.2701520953560248,colour,0.06
73,72,1,2,13,44,644,1228.0376977203414,1228.662330557825,"[88, 0, 166]",166,l,0.10182523808907717,colour,0.06
73,72,1,2,13,45,645,1229.1780556314625,1229.9983387592947,"[64, 0, 190]",190,a,0.29762046365067363,colour,0.06
73,72,1,2,13,46,646,1230.5063361881766,1231.2063262632582,"[83, 0, 171]",171,l,0.1766669318312779,colour,0.06
73,72,1,2,13,47,647,1231.7251914680237,1233.0863404102856,"[74, 0, 180]",180,a,0.837836826685816,colour,0.06
73,72,1,2,13,48,648,1233.600295541808,1234.3503418186447,"[78, 0, 176]",176,a,0.22669950290583074,colour,0.06
73,72,1,2,13,49,649,1234.8659767017234,1235.4543265121756,"[89, 0, 165]",165,a,0.06502154725603759,colour,0.06
73,72,1,2,13,50,650,1235.9754602677422,1236.902332196245,"[54, 0, 200]",200,a,0.4035405145259574,colour,0.06
73,72,1,2,14,1,651,1255.8512252143119,1257.7663054052973,"[36, 0, 218]",218,a,1.3909740826347843,colour,0.06
73,72,1,2,14,2,652,1258.2740814930294,1259.0782854798017,"[77, 0, 177]",177,l,0.2807800191221759,colour,0.06
73,72,1,2,14,3,653,1259.5867350435583,1260.334266222315,"[63, 0, 191]",191,a,0.22455855808220804,colour,0.06
73,72,1,2,14,4,654,1260.8524083265802,1261.7503357534297,"[70, 0, 184]",184,a,0.37464091123547405,colour,0.06
73,72,1,2,14,5,655,1262.258803434088,1263.022292843205,"[83, 0, 171]",171,l,0.24014539213385433,colour,0.06
73,72,1,2,14,6,656,1263.540135230869,1264.238338822266,"[50, 0, 204]",204,a,0.17512975248973817,colour,0.06
73,72,1,2,14,7,657,1264.758979483042,1265.3822842730442,"[87, 0, 167]",167,l,0.09997573914006352,colour,0.06
73,72,1,2,14,8,658,1265.8997087905882,1266.5183083071606,"[88, 0, 166]",166,l,0.09525904408656061,colour,0.06
73,72,1,2,14,9,659,1267.0247260213364,1269.4462940309895,"[75, 0, 179]",179,l,1.8980747250607237,colour,0.06
73,72,1,2,14,10,660,1269.9625996331451,1270.7262721804436,"[61, 0, 193]",193,a,0.24041478242725134,colour,0.06
73,72,1,2,14,11,661,1271.243869989994,1271.9023412546376,"[51, 0, 203]",203,a,0.13514063833281398,colour,0.06
73,72,1,2,14,12,662,1272.4158607929712,1273.022244400112,"[54, 0, 200]",200,a,0.08302541170269251,colour,0.06
73,72,1,2,14,13,663,1273.5408799928846,1274.686264555552,"[69, 0, 185]",185,a,0.6219101826427504,colour,0.06
73,72,1,2,14,14,664,1275.197281598812,1275.8062866424443,"[72, 0, 182]",182,a,0.08558225736487657,colour,0.06
73,72,1,2,14,15,665,1276.3224012294086,1277.142239705543,"[78, 0, 176]",176,a,0.296559443580918,colour,0.06
73,72,1,2,14,16,666,1277.6506305861985,1278.1902538178256,"[60, 0, 194]",194,a,0.016259128460660577,colour,0.06
73,72,1,2,14,17,667,1278.6976069153752,1280.8462485811906,"[58, 0, 196]",196,a,1.6252618088619784,colour,0.06
73,72,1,2,14,18,668,1281.3540530258324,1282.0542561714537,"[53, 0, 201]",201,a,0.17722382955253124,colour,0.06
73,72,1,2,14,19,669,1282.5728657703148,1283.190290839295,"[56, 0, 198]",198,a,0.09399007353931665,colour,0.06
73,72,1,2,14,20,670,1283.6979794932995,1284.4382792727556,"[90, 0, 164]",164,l,0.2170042054494843,colour,0.06
73,72,1,2,14,21,671,1284.9480588531587,1285.734284969396,"[74, 0, 180]",180,a,0.2628112069796771,colour,0.06
73,72,1,2,14,22,672,1286.2450180499582,1286.8622261099517,"[68, 0, 186]",186,a,0.09382583992555737,colour,0.06
73,72,1,2,14,23,673,1287.3700754529564,1287.9742361955578,"[99, 0, 155]",155,l,0.08104042988270521,colour,0.06
73,72,1,2,14,24,674,1288.4952482527588,1289.2623389861546,"[66, 0, 188]",188,a,0.24379949166905135,colour,0.06
73,72,1,2,14,25,675,1289.7764721357962,1290.5182322949404,"[84, 0, 170]",170,l,0.2182908991817385,colour,0.06
73,72,1,2,14,26,676,1291.0266054526437,1291.6702066822909,"[94, 0, 160]",160,l,0.12014142202679068,colour,0.06
73,72,1,2,14,27,677,1292.1829893355025,1294.0462335363263,"[76, 0, 178]",178,l,1.3406681827036664,colour,0.06
73,72,1,2,14,28,678,1294.5581745413365,1295.2382466624258,"[55, 0, 199]",199,a,0.15669068868737668,colour,0.06
73,72,1,2,14,29,679,1295.7458104674006,1296.678282092791,"[57, 0, 197]",197,a,0.40914099919609725,colour,0.06
73,72,1,2,14,30,680,1297.1990263349144,1297.8302608124213,"[59, 0, 195]",195,a,0.10796804807614535,colour,0.06
73,72,1,2,14,31,681,1298.339762337855,1298.9982592024608,"[81, 0, 173]",173,a,0.1351142507046461,colour,0.06
73,72,1,2,14,32,682,1299.5117149377475,1300.9822344122222,"[97, 0, 157]",157,l,0.9471604912541807,colour,0.06
73,72,1,2,14,33,683,1301.4962155375397,1302.9982123348163,"[71, 0, 183]",183,a,0.978583857184276,colour,0.06
73,72,1,2,14,34,684,1303.5119717250345,1304.2862513223663,"[73, 0, 181]",181,a,0.2509154941653833,colour,0.06
73,72,1,2,14,35,685,1304.7932554726722,1305.3901982067619,"[86, 0, 168]",168,l,0.07343015109654516,colour,0.06
73,72,1,2,14,36,686,1305.902885155403,1306.590269807959,"[52, 0, 202]",202,a,0.16416272765491158,colour,0.06
73,72,1,2,14,37,687,1307.1059653431876,1307.8302411201876,"[67, 0, 187]",187,a,0.20120902720373124,colour,0.06
73,72,1,2,14,38,688,1308.3404803184094,1309.0302284383215,"[89, 0, 165]",165,l,0.1663804721320048,colour,0.06
73,72,1,2,14,39,689,1309.54373813048,1310.2541895327158,"[62, 0, 192]",192,a,0.18715425278060138,colour,0.06
73,72,1,2,14,40,690,1310.762663120986,1311.766299103736,"[64, 0, 190]",190,a,0.480417208513245,colour,0.06
73,72,1,2,14,41,691,1312.2783322687028,1313.1022332621505,"[80, 0, 174]",174,l,0.3005120779853314,colour,0.06
73,72,1,2,14,42,692,1313.6221011978341,1315.046267800848,"[79, 0, 175]",175,l,0.9007465736940503,colour,0.06
73,72,1,2,14,43,693,1315.559849960613,1316.3102172216168,"[65, 0, 189]",189,a,0.22704963164869696,colour,0.06
73,72,1,2,14,44,694,1316.8255606589373,1317.5581985659664,"[95, 0, 159]",159,l,0.20929743454325944,colour,0.06
73,72,1,2,14,45,695,1318.0756439572433,1318.766194340773,"[92, 0, 162]",162,l,0.16714965261053294,colour,0.06
73,72,1,2,14,46,696,1319.2788533264538,1319.9421866150806,"[98, 0, 156]",156,l,0.13996918546035886,colour,0.06
73,72,1,2,14,47,697,1320.4507941108895,1321.1981968960026,"[32, 0, 222]",222,a,0.22397921117953956,colour,0.06
73,72,1,2,14,48,698,1321.7166406860342,1322.4222103719367,"[91, 0, 163]",163,l,0.18229931802488863,colour,0.06
73,72,1,2,14,49,699,1322.9354912397685,1324.3902505881852,"[96, 0, 158]",158,l,0.9315224573947489,colour,0.06
73,72,1,2,14,50,700,1324.9043081196724,1325.6462380260928,"[31, 0, 223]",223,a,0.219132547150366,colour,0.06
73,72,1,2,15,1,701,1336.7325449595228,1338.4782061593141,"[71, 0, 183]",183,l,1.221488137729466,colour,0.06
73,72,1,2,15,2,702,1338.9991796195973,1339.7741921636043,"[83, 0, 171]",171,l,0.2517725022044033,colour,0.06
73,72,1,2,15,3,703,1340.2804925118107,1340.9181443097768,"[90, 0, 164]",164,l,0.11436449468601495,colour,0.06
73,72,1,2,15,4,704,1341.4368188933004,1343.414191675256,"[70, 0, 184]",184,a,1.4542485307902098,colour,0.06
73,72,1,2,15,5,705,1343.9214423729572,1344.8141627670266,"[87, 0, 167]",167,l,0.3694011892657727,colour,0.06
73,72,1,2,15,6,706,1345.3278063666075,1346.4381528483937,"[66, 0, 188]",188,a,0.5870595723390579,colour,0.06
73,72,1,2,15,7,707,1346.9529417511076,1347.5501306386432,"[99, 0, 155]",155,l,0.07392363960389048,colour,0.06
73,72,1,2,15,8,708,1348.0622776249656,1348.8621713654138,"[52, 0, 202]",202,a,0.2764229051535949,colour,0.06
73,72,1,2,15,9,709,1349.3750631137518,1350.0141780482372,"[97, 0, 157]",157,l,0.1158611080609262,colour,0.06
73,72,1,2,15,10,710,1350.5312666153768,1351.3582911984995,"[76, 0, 178]",178,a,0.3036096738651395,colour,0.06
73,72,1,2,15,11,711,1351.8751903258963,1352.6941580093699,"[56, 0, 198]",198,a,0.2955634080572054,colour,0.06
73,72,1,2,15,12,712,1353.20340707968,1354.0222333724378,"[74, 0, 180]",180,l,0.2957843553740531,colour,0.06
73,72,1,2,15,13,713,1354.5315875995439,1356.7821994387778,"[67, 0, 187]",187,a,1.7271886591333896,colour,0.06
73,72,1,2,15,14,714,1357.297487343778,1358.3821413071128,"[78, 0, 176]",176,a,0.5612540201982483,colour,0.06
73,72,1,2,15,15,715,1358.8913628082955,1359.534177134512,"[94, 0, 160]",160,l,0.11949590919539332,colour,0.06
73,72,1,2,15,16,716,1360.0476868265541,1360.7661592885852,"[60, 0, 194]",194,a,0.19509890652261674,colour,0.06
73,72,1,2,15,17,717,1361.2820938881487,1362.294165649917,"[58, 0, 196]",196,a,0.48861274181399494,colour,0.06
73,72,1,2,15,18,718,1362.8134577833116,1363.5981538093183,"[72, 0, 182]",182,a,0.261272058240138,colour,0.06
73,72,1,2,15,19,719,1364.110455970862,1364.9181210729294,"[75, 0, 179]",179,a,0.2843246295815334,colour,0.06
73,72,1,2,15,20,720,1365.4387058075517,1366.2061407620786,"[51, 0, 203]",203,a,0.24401610670611262,colour,0.06
73,72,1,2,15,21,721,1366.7200265767751,1367.3821602116805,"[44, 0, 210]",210,a,0.1390196237480268,colour,0.06
73,72,1,2,15,22,722,1367.8920228935312,1368.638122443459,"[98, 0, 156]",156,l,0.2227303268155083,colour,0.06
73,72,1,2,15,23,723,1369.1577840041136,1369.814161979244,"[95, 0, 159]",159,l,0.1330079643521458,colour,0.06
73,72,1,2,15,24,724,1370.3296755579067,1371.0542557775043,"[55, 0, 199]",199,a,0.20118224574252963,colour,0.06
73,72,1,2,15,25,725,1371.5642236161511,1372.8781138418708,"[84, 0, 170]",170,l,0.7906131624476984,colour,0.06
73,72,1,2,15,26,726,1373.392473059008,1374.6061280014692,"[73, 0, 181]",181,a,0.6908158354926854,colour,0.06
73,72,1,2,15,27,727,1375.1270124526927,1375.9101437299978,"[65, 0, 189]",189,a,0.25978095876052976,colour,0.06
73,72,1,2,15,28,728,1376.423937778687,1377.014148115879,"[69, 0, 185]",185,a,0.06679424631875008,colour,0.06
73,72,1,2,15,29,729,1377.5333650248358,1378.366114941542,"[96, 0, 158]",158,l,0.3093369767302647,colour,0.06
73,72,1,2,15,30,730,1378.8772465938237,1379.5901343249716,"[53, 0, 201]",201,a,0.18952677864581347,colour,0.06
73,72,1,2,15,31,731,1380.0961188090732,1380.766123448615,"[48, 0, 206]",206,a,0.14672481932211667,colour,0.06
73,72,1,2,15,32,732,1381.283660999732,1382.030123675475,"[64, 0, 190]",190,a,0.22307888022623956,colour,0.06
73,72,1,2,15,33,733,1382.5495174210519,1383.270096563152,"[93, 0, 161]",161,l,0.19734185724519193,colour,0.06
73,72,1,2,15,34,734,1383.783835079521,1384.4541098971386,"[57, 0, 197]",197,a,0.14685872674454004,colour,0.06
73,72,1,2,15,35,735,1384.9713776641292,1385.7741531728534,"[77, 0, 177]",177,a,0.27930664259474725,colour,0.06
73,72,1,2,15,36,736,1386.284085565363,1387.1420924072154,"[54, 0, 200]",200,a,0.3349810520885512,colour,0.06
73,72,1,2,15,37,737,1387.6592357190093,1388.2941223268863,"[88, 0, 166]",166,l,0.1116461722413078,colour,0.06
73,72,1,2,15,38,738,1388.7998945282307,1389.4221201812616,"[92, 0, 162]",162,l,0.09892259596381336,colour,0.06
73,72,1,2,15,39,739,1389.9406226541614,1391.2221076569986,"[68, 0, 186]",186,a,0.7580972688738257,colour,0.06
73,72,1,2,15,40,740,1391.7376602262957,1394.7021062076092,"[81, 0, 173]",173,a,2.4411090535577387,colour,0.06
73,72,1,2,15,41,741,1395.2222892197315,1395.974102681852,"[34, 0, 220]",220,a,0.22905785031616688,colour,0.06
73,72,1,2,15,42,742,1396.4880503303139,1397.2701158615528,"[79, 0, 175]",175,l,0.2587628678884357,colour,0.06
73,72,1,2,15,43,743,1397.784956358024,1398.4221150611993,"[80, 0, 174]",174,l,0.11373906780499965,colour,0.06
73,72,1,2,15,44,744,1398.9413752931869,1399.5820990868378,"[82, 0, 172]",172,l,0.11751565337181091,colour,0.06
73,72,1,2,15,45,745,1400.0976937976666,1402.4541130479192,"[62, 0, 192]",192,a,1.8331398238660768,colour,0.06
73,72,1,2,15,46,746,1402.9728746712208,1403.6460615833057,"[89, 0, 165]",165,l,0.1497810612199828,colour,0.06
73,72,1,2,15,47,747,1404.1605137479492,1404.878094149637,"[61, 0, 193]",193,a,0.19428876601159573,colour,0.06
73,72,1,2,15,48,748,1405.3949956401484,1406.0861178875202,"[85, 0, 169]",169,l,0.167829824029468,colour,0.06
73,72,1,2,15,49,749,1406.5981924062362,1407.3261104674311,"[50, 0, 204]",204,a,0.20463115174788982,colour,0.06
73,72,1,2,15,50,750,1407.8326219168957,1408.6060693184845,"[86, 0, 168]",168,l,0.24995057238265872,colour,0.06
73,72,1,2,16,1,751,1426.47395223286,1427.8780508266063,"[76, 0, 178]",178,l,0.8798550333594903,colour,0.06
73,72,1,2,16,2,752,1428.396782123833,1429.174034861615,"[74, 0, 180]",180,l,0.25395952677354217,colour,0.06
73,72,1,2,16,3,753,1429.6937381698517,1430.8860628278926,"[60, 0, 194]",194,a,0.6690267209196463,colour,0.06
73,72,1,2,16,4,754,1431.3971066526137,1434.1100668513682,"[82, 0, 172]",172,l,2.189689436927438,colour,0.06
73,72,1,2,16,5,755,1434.6316220216686,1435.5260237426264,"[53, 0, 201]",201,a,0.37108881771564484,colour,0.06
73,72,1,2,16,6,756,1436.037956083077,1436.7020424045622,"[42, 0, 212]",212,a,0.14076632901560515,colour,0.06
73,72,1,2,16,7,757,1437.2098649661057,1437.9340316478629,"[80, 0, 174]",174,l,0.20071396324783564,colour,0.06
73,72,1,2,16,8,758,1438.4443582798121,1439.078011757112,"[52, 0, 202]",202,a,0.1102224204223603,colour,0.06
73,72,1,2,16,9,759,1439.5851100365398,1440.230042070616,"[58, 0, 196]",196,a,0.12160534621216357,colour,0.06
73,72,1,2,16,10,760,1440.7414332672488,1441.6620146936039,"[69, 0, 185]",185,a,0.3971019263844937,colour,0.06
73,72,1,2,16,11,761,1442.1790713593364,1442.7420535740675,"[65, 0, 189]",189,a,0.03965710231568664,colour,0.06
73,72,1,2,16,12,762,1443.2573036699323,1444.4220662243897,"[77, 0, 177]",177,l,0.6413421313045546,colour,0.06
73,72,1,2,16,13,763,1444.929222792969,1445.9579908518353,"[66, 0, 188]",188,a,0.5053464542143047,colour,0.06
73,72,1,2,16,14,764,1446.4762227528263,1447.1900041196495,"[81, 0, 173]",173,l,0.1903629129519686,colour,0.06
73,72,1,2,16,15,765,1447.7106892849552,1448.3820290610893,"[43, 0, 211]",211,a,0.14801269443705678,colour,0.06
73,72,1,2,16,16,766,1448.898159401957,1449.4620797568932,"[87, 0, 167]",167,l,0.040624387096613646,colour,0.06
73,72,1,2,16,17,767,1449.9764693001052,1450.6780457854038,"[73, 0, 181]",181,l,0.17808989610057324,colour,0.06
73,72,1,2,16,18,768,1451.1953608137555,1451.9580377193633,"[56, 0, 198]",198,a,0.23928680852986872,colour,0.06
73,72,1,2,16,19,769,1452.4767119090538,1453.3660219939193,"[72, 0, 182]",182,l,0.3658179818885401,colour,0.06
73,72,1,2,16,20,770,1453.8830290351762,1454.5740051657194,"[91, 0, 163]",163,l,0.16743322147522122,colour,0.06
73,72,1,2,16,21,771,1455.086353800958,1455.806000316632,"[55, 0, 199]",199,a,0.1964222276583314,colour,0.06
73,72,1,2,16,22,772,1456.3208451454993,1457.0300067033386,"[62, 0, 192]",192,a,0.18599634675774723,colour,0.06
73,72,1,2,16,23,773,1457.5396082653897,1458.2620341496076,"[86, 0, 168]",168,a,0.19899797800462693,colour,0.06
73,72,1,2,16,24,774,1458.77410512371,1459.558006763109,"[85, 0, 169]",169,l,0.26103102474007756,colour,0.06
73,72,1,2,16,25,775,1460.0711430896772,1460.6540015108185,"[84, 0, 170]",170,l,0.05953212711028755,colour,0.06
73,72,1,2,16,26,776,1461.1649224557914,1462.654033806175,"[75, 0, 179]",179,a,0.9656988042406738,colour,0.06
73,72,1,2,16,27,777,1463.1650815693429,1464.5020550864283,"[78, 0, 176]",176,a,0.8135629401076585,colour,0.06
73,72,1,2,16,28,778,1465.0089757414535,1465.9100255763624,"[83, 0, 171]",171,a,0.37768848857376724,colour,0.06
73,72,1,2,16,29,779,1466.4309631967917,1467.0619995699963,"[51, 0, 203]",203,l,0.1075119748711586,colour,0.06
73,72,1,2,16,30,780,1467.5716716304887,1468.3339999826858,"[93, 0, 161]",161,l,0.23898394126445055,colour,0.06
73,72,1,2,16,31,781,1468.853069199482,1470.3100415664958,"[45, 0, 209]",209,a,0.9337303559295833,colour,0.06
73,72,1,2,16,32,782,1470.821937673143,1471.550055020256,"[94, 0, 160]",160,l,0.2047430039383471,colour,0.06
73,72,1,2,16,33,783,1472.0563782115933,1472.7980273060966,"[59, 0, 195]",195,a,0.2189379873452708,colour,0.06
73,72,1,2,16,34,784,1473.3064819899155,1473.9580062117893,"[90, 0, 164]",164,l,0.12814515258651227,colour,0.06
73,72,1,2,16,35,785,1474.478420805186,1475.8540081274696,"[70, 0, 184]",184,a,0.8521751699736342,colour,0.06
73,72,1,2,16,36,786,1476.3692227771971,1476.9580046363408,"[67, 0, 187]",187,a,0.0655166112119332,colour,0.06
73,72,1,2,16,37,787,1477.4787386385724,1478.117975271307,"[50, 0, 204]",204,a,0.11593357566744089,colour,0.06
73,72,1,2,16,38,788,1478.6350996784167,1479.293980542454,"[99, 0, 155]",155,l,0.1355742623563856,colour,0.06
73,72,1,2,16,39,789,1479.8070132875582,1480.4700397705892,"[96, 0, 158]",158,l,0.13963993056677282,colour,0.06
73,72,1,2,16,40,790,1480.9790249643847,1481.854006552021,"[63, 0, 191]",191,a,0.35177108424250036,colour,0.06
73,72,1,2,16,41,791,1482.3696729427902,1483.0860375430202,"[95, 0, 159]",159,l,0.19314188766293228,colour,0.06
73,72,1,2,16,42,792,1483.6042048532981,1484.3899863178376,"[98, 0, 156]",156,l,0.2626249180175364,colour,0.06
73,72,1,2,16,43,793,1484.9011593239848,1485.7340388158336,"[68, 0, 186]",186,a,0.30956501327455044,colour,0.06
73,72,1,2,16,44,794,1486.2449999330565,1487.8459622554947,"[88, 0, 166]",166,a,1.0776206684531644,colour,0.06
73,72,1,2,16,45,795,1488.354526822106,1489.2139629296726,"[64, 0, 190]",190,a,0.3363780224462971,colour,0.06
73,72,1,2,16,46,796,1489.7296525572892,1490.3820440272102,"[97, 0, 157]",157,l,0.12901043135207146,colour,0.06
73,72,1,2,16,47,797,1490.9016862893477,1492.1979495610576,"[79, 0, 175]",175,a,0.7729164976626635,colour,0.06
73,72,1,2,16,48,798,1492.7142386216437,1493.3260884120828,"[71, 0, 183]",183,a,0.08847465959843248,colour,0.06
73,72,1,2,16,49,799,1493.8393944860436,1494.7099783936283,"[92, 0, 162]",162,l,0.3471823891159147,colour,0.06
73,72,1,2,16,50,800,1495.2300905135926,1496.0059628225863,"[61, 0, 193]",193,a,0.25327226624358445,colour,0.06
