id,age,condition,counterbalance,block,trialinblock,trial,tstart,tend,trialstim,trialintensity,response,RT,trialtype,colourfreq
104,20,0,1,Practice,1,NA,6.301503162831068e-06,0.8649967074743472,"[16, 0, 238]",238,a,0.15158853819593787,colour,0.5
104,20,0,1,Practice,2,NA,1.3778589275316335,1.9290325096226297,"[48, 0, 206]",206,a,0.02819464181084186,colour,0.5
104,20,0,1,Practice,3,NA,2.4398420047946274,9.209005365730263,"[11, 0, 243]",243,l,6.2460087654180825,colour,0.5
104,20,0,1,Practice,4,NA,9.721065715537407,11.049007429508492,"[55, 0, 199]",199,l,0.804221949481871,colour,0.5
104,20,0,1,Practice,5,NA,11.56507791846525,12.505004600097891,"[56, 0, 198]",198,l,0.4161943140788935,colour,0.5
104,20,0,1,Practice,6,NA,13.01804956473643,15.576958674530033,"[22, 0, 232]",232,l,2.0353327053016983,colour,0.5
104,20,0,1,Practice,7,NA,16.09623979544267,18.369141935778316,"[58, 0, 196]",196,l,1.749786929343827,colour,0.5
104,20,0,1,Practice,8,NA,18.87741978932172,19.82500519877067,"[92, 0, 162]",162,l,0.4241787524661049,colour,0.5
104,20,0,1,Practice,9,NA,20.346080287825316,21.417035175138153,"[46, 0, 208]",208,a,0.5469984214287251,colour,0.5
104,20,0,1,Practice,10,NA,21.924186629417818,22.592970874276944,"[94, 0, 160]",160,l,0.14539097872329876,colour,0.5
104,20,0,1,1,1,1,4.2859593140892684,4.976194770948496,"[43, 0, 211]",211,a,0.164534647425171,colour,0.5
104,20,0,1,1,2,2,5.4791096246335655,6.112036955310032,"[88, 0, 166]",166,l,0.11786429956555367,colour,0.5
104,20,0,1,1,3,3,6.627222472510766,7.224008532240987,"[6, 0, 248]",248,a,0.07343532890081406,colour,0.5
104,20,0,1,1,4,4,7.736570247914642,10.591979170276318,"[40, 0, 214]",214,a,2.3326883450499736,colour,0.5
104,20,0,1,1,5,5,11.112053102988284,11.752110620262101,"[21, 0, 233]",233,a,0.11545750719960779,colour,0.5
104,20,0,1,1,6,6,12.269307114707772,13.320069915498607,"[62, 0, 192]",192,a,0.5353646068251692,colour,0.5
104,20,0,1,1,7,7,13.839832709985785,15.512141088198405,"[97, 0, 157]",157,l,1.1588317584828474,colour,0.5
104,20,0,1,1,8,8,16.033248078776523,16.640033492643852,"[29, 0, 225]",225,a,0.0926983329700306,colour,0.5
104,20,0,1,1,9,9,17.148787899757735,17.920022496429738,"[80, 0, 174]",174,l,0.24794648733222857,colour,0.5
104,20,0,1,1,10,10,18.430052176699974,19.016000384348445,"[93, 0, 161]",161,l,0.06260495993774384,colour,0.5
104,20,0,1,1,11,11,19.523844219744205,20.079985774238594,"[45, 0, 209]",209,a,0.03312913735862821,colour,0.5
104,20,0,1,1,12,12,20.586451148905326,21.847996348224115,"[59, 0, 195]",195,a,0.7382539392565377,colour,0.5
104,20,0,1,1,13,13,22.369399510964286,23.2159721062053,"[3, 0, 251]",251,a,0.33555830019759014,colour,0.5
104,20,0,1,1,14,14,23.731931530637667,24.4320107724634,"[92, 0, 162]",162,l,0.17672299715923145,colour,0.5
104,20,0,1,1,15,15,24.952627424907405,26.22395890764892,"[65, 0, 189]",189,a,0.7480520380777307,colour,0.5
104,20,0,1,1,16,16,26.73380938800983,27.616014405270107,"[7, 0, 247]",247,a,0.3590965017210692,colour,0.5
104,20,0,1,1,17,17,28.112110604532063,28.848021948244423,"[41, 0, 213]",213,a,0.21260787441860884,colour,0.5
104,20,0,1,1,18,18,29.36205389071256,30.160062133101746,"[31, 0, 223]",223,a,0.2746197023661807,colour,0.5
104,20,0,1,1,19,19,30.66483003180474,31.49600128235761,"[13, 0, 241]",241,a,0.30764525826089084,colour,0.5
104,20,0,1,1,20,20,32.00871384097263,32.95198742527282,"[58, 0, 196]",196,a,0.41986220120452344,colour,0.5
104,20,0,1,1,21,21,33.4618465701933,34.31997736170888,"[16, 0, 238]",238,a,0.3347678514546715,colour,0.5
104,20,0,1,1,22,22,34.836837117909454,35.719979094632436,"[57, 0, 197]",197,l,0.35978770127985626,colour,0.5
104,20,0,1,1,23,23,36.22755472094286,36.86403532954864,"[56, 0, 198]",198,a,0.11318344087339938,colour,0.5
104,20,0,1,1,24,24,37.38369493634673,38.05599307460943,"[89, 0, 165]",165,l,0.14893322897842154,colour,0.5
104,20,0,1,1,25,25,38.571219551726244,39.999978732317686,"[52, 0, 202]",202,a,0.9055624434840865,colour,0.5
104,20,0,1,1,26,26,40.508692179457285,41.34398148290347,"[78, 0, 176]",176,l,0.3119767757016234,colour,0.5
104,20,0,1,1,27,27,41.85256338556064,42.56796087056864,"[8, 0, 246]",246,a,0.192131431074813,colour,0.5
104,20,0,1,1,28,28,43.08685129636433,43.92796203639591,"[96, 0, 158]",158,l,0.31778994150226936,colour,0.5
104,20,0,1,1,29,29,44.44621915789321,45.335993893793784,"[83, 0, 171]",171,l,0.3663145159371197,colour,0.5
104,20,0,1,1,30,30,45.85256771784043,46.5999856639537,"[50, 0, 204]",204,a,0.22414007678162307,colour,0.5
104,20,0,1,1,31,31,47.11892098817043,48.03198383341078,"[32, 0, 222]",222,a,0.38976134516997263,colour,0.5
104,20,0,1,1,32,32,48.54262003634358,49.39199878380168,"[69, 0, 185]",185,l,0.3259957212721929,colour,0.5
104,20,0,1,1,33,33,49.90294336806983,51.023979702731594,"[47, 0, 207]",207,a,0.5986009017797187,colour,0.5
104,20,0,1,1,34,34,51.54264839325333,52.35197655513184,"[20, 0, 234]",234,a,0.2859218987869099,colour,0.5
104,20,0,1,1,35,35,52.87081696244422,53.655956683214754,"[14, 0, 240]",240,a,0.2619189590914175,colour,0.5
104,20,0,1,1,36,36,54.167694079340436,55.0080210660235,"[95, 0, 159]",159,l,0.31699909892631695,colour,0.5
104,20,0,1,1,37,37,55.527017830172554,56.31198465259513,"[24, 0, 230]",230,a,0.26169367926195264,colour,0.5
104,20,0,1,1,38,38,56.82389927940676,57.775981621525716,"[61, 0, 193]",193,a,0.42873358057113364,colour,0.5
104,20,0,1,1,39,39,58.29269604862202,59.1600026623928,"[44, 0, 210]",210,a,0.3440819136449136,colour,0.5
104,20,0,1,1,40,40,59.66764209169196,60.76002889248775,"[98, 0, 156]",156,l,0.568952574627474,colour,0.5
104,20,0,1,1,41,41,61.27704185474431,66.39998125290731,"[60, 0, 194]",194,a,4.599637898034416,colour,0.5
104,20,0,1,1,42,42,66.91759719327092,68.00799231522251,"[82, 0, 172]",172,l,0.5670290311682038,colour,0.5
104,20,0,1,1,43,43,68.52699144248618,69.37595113785937,"[49, 0, 205]",205,a,0.3255691861268133,colour,0.5
104,20,0,1,1,44,44,69.88632346404484,70.78393494605552,"[87, 0, 167]",167,l,0.3742359388852492,colour,0.5
104,20,0,1,1,45,45,71.29257198714186,72.14395029033767,"[5, 0, 249]",249,a,0.32808389235287905,colour,0.5
104,20,0,1,1,46,46,72.65203003940405,73.55194630776532,"[25, 0, 229]",229,a,0.3766427313676104,colour,0.5
104,20,0,1,1,47,47,74.05821712251054,75.04796885780524,"[79, 0, 175]",175,l,0.46947457804344594,colour,0.5
104,20,0,1,1,48,48,75.55528493958991,76.33597420150181,"[46, 0, 208]",208,a,0.25747204484650865,colour,0.5
104,20,0,1,1,49,49,76.85222664725734,77.72797731758328,"[1, 0, 253]",253,a,0.35240663489094004,colour,0.5
104,20,0,1,1,50,50,78.24286154267611,79.1039678400848,"[17, 0, 237]",237,a,0.33780912967631593,colour,0.5
104,20,0,1,2,1,51,84.01076695974916,84.88797840458574,"[24, 0, 230]",230,a,0.3530088252737187,colour,0.5
104,20,0,1,2,2,52,85.40420958271716,86.28000042535132,"[67, 0, 187]",187,l,0.3526169486576691,colour,0.5
104,20,0,1,2,3,53,86.7947598012397,87.6079189023585,"[98, 0, 156]",156,l,0.2897634718683548,colour,0.5
104,20,0,1,2,4,54,88.12291340430966,88.93598389008548,"[84, 0, 170]",170,l,0.2897422041860409,colour,0.5
104,20,0,1,2,5,55,89.45107685349649,90.40798420202918,"[71, 0, 183]",183,l,0.4335164454532787,colour,0.5
104,20,0,1,2,6,56,90.9198232103954,91.68791806744412,"[45, 0, 209]",209,a,0.24474294466199353,colour,0.5
104,20,0,1,2,7,57,92.20097996736877,93.08792098186677,"[63, 0, 191]",191,a,0.36353081290144473,colour,0.5
104,20,0,1,2,8,58,93.60732852731599,94.54396580782486,"[12, 0, 242]",242,a,0.4133601988432929,colour,0.5
104,20,0,1,2,9,59,95.06312995654298,95.84797114209505,"[22, 0, 232]",232,a,0.2615440178196877,colour,0.5
104,20,0,1,2,10,60,96.35996453807456,97.19997920491733,"[76, 0, 178]",178,l,0.31693608354544267,colour,0.5
104,20,0,1,2,11,61,97.70673011784675,98.69590486882953,"[91, 0, 163]",163,l,0.465947687800508,colour,0.5
104,20,0,1,2,12,62,99.2066151148174,99.95995807903819,"[17, 0, 237]",237,a,0.22943769831908867,colour,0.5
104,20,0,1,2,13,63,100.46092890918953,101.42392511566868,"[59, 0, 195]",195,a,0.4396525648771785,colour,0.5
104,20,0,1,2,14,64,101.94528731843457,102.84792348672636,"[57, 0, 197]",197,a,0.37925826210994273,colour,0.5
104,20,0,1,2,15,65,103.36727707530372,104.15996288391761,"[54, 0, 200]",200,a,0.2693886408233084,colour,0.5
104,20,0,1,2,16,66,104.67967132769991,105.64792970952112,"[93, 0, 161]",161,l,0.44486866029910743,colour,0.5
104,20,0,1,2,17,67,106.1641226845677,107.03191254724516,"[72, 0, 182]",182,l,0.3444269226747565,colour,0.5
104,20,0,1,2,18,68,107.53911913995398,108.1519772640313,"[0, 0, 254]",254,a,0.08810333255678415,colour,0.5
104,20,0,1,2,19,69,108.66620258486364,109.57592561666388,"[77, 0, 177]",177,l,0.3864227132871747,colour,0.5
104,20,0,1,2,20,70,110.08805607102113,111.00797498604516,"[10, 0, 244]",244,a,0.3967729840660468,colour,0.5
104,20,0,1,2,21,71,111.5265471842722,113.15192015637876,"[58, 0, 196]",196,l,1.1002404823084362,colour,0.5
104,20,0,1,2,22,72,113.66987559193512,114.39193734381115,"[14, 0, 240]",240,a,0.19870156876277179,colour,0.5
104,20,0,1,2,23,73,114.90609177236911,119.11195503536146,"[53, 0, 201]",201,a,3.6825326182879508,colour,0.5
104,20,0,1,2,24,74,119.6247499078163,120.23196815833217,"[26, 0, 228]",228,a,0.083826559712179,colour,0.5
104,20,0,1,2,25,75,120.74973257858073,121.51997350202873,"[79, 0, 175]",175,l,0.2467881865450181,colour,0.5
104,20,0,1,2,26,76,122.03100709547289,122.88793980772607,"[36, 0, 218]",218,a,0.3397763900575228,colour,0.5
104,20,0,1,2,27,77,123.3900484587648,124.35991058120271,"[20, 0, 234]",234,a,0.446553926973138,colour,0.5
104,20,0,1,2,28,78,124.87432022189023,125.84792151750298,"[1, 0, 253]",253,a,0.45020369708072394,colour,0.5
104,20,0,1,2,29,79,126.35872707422823,127.24790749658132,"[21, 0, 233]",233,a,0.36584623309317976,colour,0.5
104,20,0,1,2,30,80,127.7649440895766,128.83990478375927,"[49, 0, 205]",205,a,0.5515528557007201,colour,0.5
104,20,0,1,2,31,81,129.3587979664444,130.19989058957435,"[8, 0, 246]",246,a,0.3176430369494483,colour,0.5
104,20,0,1,2,32,82,130.7182138772332,131.49590951623395,"[39, 0, 215]",215,a,0.26676602085353807,colour,0.5
104,20,0,1,2,33,83,132.00273053377168,132.80791701190174,"[81, 0, 173]",173,l,0.281854651926551,colour,0.5
104,20,0,1,2,34,84,133.31525436142692,134.11991663067602,"[96, 0, 158]",158,l,0.2812760922824964,colour,0.5
104,20,0,1,2,35,85,134.62964816956082,135.67190389841562,"[69, 0, 185]",185,l,0.5176679280120879,colour,0.5
104,20,0,1,2,36,86,136.178234183928,136.9839302987093,"[48, 0, 206]",206,a,0.2825493961572647,colour,0.5
104,20,0,1,2,37,87,137.49053036863916,138.3278597939643,"[27, 0, 227]",227,a,0.3139912975602783,colour,0.5
104,20,0,1,2,38,88,138.82548490306363,139.63994999730494,"[6, 0, 248]",248,a,0.29123369872104377,colour,0.5
104,20,0,1,2,39,89,140.15361684461823,141.00001299689757,"[52, 0, 202]",202,a,0.32302809227257967,colour,0.5
104,20,0,1,2,40,90,141.51300597382942,142.26392166560981,"[97, 0, 157]",157,l,0.22759961942210793,colour,0.5
104,20,0,1,2,41,91,142.7788744198624,143.5839391996269,"[92, 0, 162]",162,l,0.28193932882277295,colour,0.5
104,20,0,1,2,42,92,144.0912875768263,144.86388015421107,"[68, 0, 186]",186,a,0.2493978095590137,colour,0.5
104,20,0,1,2,43,93,145.37247190298513,146.12790815823246,"[3, 0, 251]",251,a,0.23003791947849095,colour,0.5
104,20,0,1,2,44,94,146.64010911103105,147.4079144913121,"[74, 0, 180]",180,l,0.24436091410461813,colour,0.5
104,20,0,1,2,45,95,147.92146042792592,148.67192516609794,"[61, 0, 193]",193,l,0.22732156416168436,colour,0.5
104,20,0,1,2,46,96,149.1870720863808,149.83188765618252,"[30, 0, 224]",224,a,0.12152430973947048,colour,0.5
104,20,0,1,2,47,97,150.34332848637132,150.87994512933074,"[37, 0, 217]",217,a,0.013186355237849057,colour,0.5
104,20,0,1,2,48,98,151.39024538174272,151.95193071145331,"[15, 0, 239]",239,a,0.0365894676069729,colour,0.5
104,20,0,1,2,49,99,152.4703465529019,153.6559070586227,"[33, 0, 221]",221,a,0.6622822425561026,colour,0.5
104,20,0,1,2,50,100,154.17348046362167,154.94393012538785,"[42, 0, 212]",212,a,0.24706781707936898,colour,0.5
104,20,0,1,3,1,101,182.2841791305691,183.17588843760313,"[77, 0, 177]",177,l,0.36537637491710484,colour,0.5
104,20,0,1,3,2,102,183.6935961440904,184.29589053284144,"[16, 0, 238]",238,a,0.07905590406153351,colour,0.5
104,20,0,1,3,3,103,184.80293249792885,185.5039297945914,"[81, 0, 173]",173,l,0.17772769811563194,colour,0.5
104,20,0,1,3,4,104,186.0216335625737,186.63186040206347,"[29, 0, 225]",225,a,0.08698756707599387,colour,0.5
104,20,0,1,3,5,105,187.14654927956872,187.76000683713937,"[42, 0, 212]",212,a,0.08999064221279696,colour,0.5
104,20,0,1,3,6,106,188.27451927162474,189.0639294637367,"[36, 0, 218]",218,a,0.26606497511966154,colour,0.5
104,20,0,1,3,7,107,189.5713881177944,190.2879202729673,"[67, 0, 187]",187,l,0.19336023041978478,colour,0.5
104,20,0,1,3,8,108,190.8059237577254,191.96786768664606,"[43, 0, 211]",211,a,0.6388625887339003,colour,0.5
104,20,0,1,3,9,109,192.46526987897232,193.39994580677012,"[44, 0, 210]",210,a,0.41132716624997556,colour,0.5
104,20,0,1,3,10,110,193.91848846658831,194.7198664547177,"[22, 0, 232]",232,a,0.2781001187977381,colour,0.5
104,20,0,1,3,11,111,195.2309492789209,196.07191390212392,"[57, 0, 197]",197,a,0.31770605233032256,colour,0.5
104,20,0,1,3,12,112,196.59027499897638,197.471968016529,"[99, 0, 155]",155,l,0.358378914417699,colour,0.5
104,20,0,1,3,13,113,197.98088035586989,198.78387744456995,"[15, 0, 239]",239,a,0.2796558101545088,colour,0.5
104,20,0,1,3,14,114,199.29343017737847,200.1119266784517,"[5, 0, 249]",249,a,0.2951441948534921,colour,0.5
104,20,0,1,3,15,115,200.62154597125482,201.383893434715,"[87, 0, 167]",167,l,0.23918380949180573,colour,0.5
104,20,0,1,3,16,116,201.9027952820179,202.92784506414318,"[39, 0, 215]",215,a,0.5018002697033808,colour,0.5
104,20,0,1,3,17,117,203.43390280823223,204.23990454745945,"[37, 0, 217]",217,a,0.2829160667024553,colour,0.5
104,20,0,1,3,18,118,204.74652746046195,205.52791894960683,"[19, 0, 235]",235,a,0.25808289978886023,colour,0.5
104,20,0,1,3,19,119,206.04346089734463,206.85590477433288,"[71, 0, 183]",183,l,0.2894436690257862,colour,0.5
104,20,0,1,3,20,120,207.37148492509732,208.14386009960435,"[97, 0, 157]",157,l,0.24913196358829737,colour,0.5
104,20,0,1,3,21,121,208.6404064646922,209.4959402362001,"[75, 0, 179]",179,l,0.3322070652502589,colour,0.5
104,20,0,1,3,22,122,210.01537771394942,210.75990995101165,"[4, 0, 250]",250,a,0.22123034310061485,colour,0.5
104,20,0,1,3,23,123,211.28101339703426,212.0638892914867,"[26, 0, 228]",228,a,0.2594995636609383,colour,0.5
104,20,0,1,3,24,124,212.57780938170617,213.33584659540793,"[31, 0, 223]",223,a,0.23463567678118125,colour,0.5
104,20,0,1,3,25,125,213.84351753239753,214.69588163192384,"[8, 0, 246]",246,a,0.3290200640913099,colour,0.5
104,20,0,1,3,26,126,215.20291690161685,215.97586197115015,"[78, 0, 176]",176,l,0.24965538480319083,colour,0.5
104,20,0,1,3,27,127,216.48414730781224,217.29586296365596,"[98, 0, 156]",156,l,0.28844920807750896,colour,0.5
104,20,0,1,3,28,128,217.81225798162632,218.59986908559222,"[82, 0, 172]",172,l,0.26433126541087404,colour,0.5
104,20,0,1,3,29,129,219.10975540592335,219.95187360380078,"[62, 0, 192]",192,a,0.318748562480323,colour,0.5
104,20,0,1,3,30,130,220.46902362443507,221.3358907061629,"[34, 0, 220]",220,a,0.3433332125423476,colour,0.5
104,20,0,1,3,31,131,221.84418155666208,222.6798757336801,"[20, 0, 234]",234,a,0.31262110761599615,colour,0.5
104,20,0,1,3,32,132,223.1755934469984,224.24788465350866,"[35, 0, 219]",219,a,0.5489337802864611,colour,0.5
104,20,0,1,3,33,133,224.76930829626508,225.56787343678297,"[83, 0, 171]",171,l,0.27525930816773325,colour,0.5
104,20,0,1,3,34,134,226.08182503469288,226.88787994312588,"[3, 0, 251]",251,a,0.2827002391568385,colour,0.5
104,20,0,1,3,35,135,227.39430041931337,228.27186435629847,"[53, 0, 201]",201,a,0.35419351386372,colour,0.5
104,20,0,1,3,36,136,228.78496249008458,229.863875034207,"[59, 0, 195]",195,a,0.5556157701648772,colour,0.5
104,20,0,1,3,37,137,230.37860959785758,231.4078755005612,"[14, 0, 240]",240,a,0.5057781134964898,colour,0.5
104,20,0,1,3,38,138,231.92564937315183,232.50389080384048,"[61, 0, 193]",193,a,0.05501712445402518,colour,0.5
104,20,0,1,3,39,139,233.01929136086255,233.79187881830148,"[49, 0, 205]",205,a,0.24925641890149564,colour,0.5
104,20,0,1,3,40,140,234.30054303474026,235.12784396135248,"[46, 0, 208]",208,a,0.3040447188541293,colour,0.5
104,20,0,1,3,41,141,235.64429057319649,236.46384730748832,"[93, 0, 161]",161,l,0.2962264834786765,colour,0.5
104,20,0,1,3,42,142,236.97460520884488,237.77585637854645,"[74, 0, 180]",180,a,0.2778898050892167,colour,0.5
104,20,0,1,3,43,143,238.28717196569778,239.14386797649786,"[10, 0, 244]",244,a,0.33349060913315043,colour,0.5
104,20,0,1,3,44,144,239.6622109564487,240.51984550210182,"[55, 0, 199]",199,a,0.33251072047278285,colour,0.5
104,20,0,1,3,45,145,241.03908526920713,241.83187899162294,"[90, 0, 164]",164,l,0.2702480126754381,colour,0.5
104,20,0,1,3,46,146,242.35151024156949,242.96785429585725,"[76, 0, 178]",178,a,0.09292243124218658,colour,0.5
104,20,0,1,3,47,147,243.47652402613312,244.0958888786845,"[95, 0, 159]",159,l,0.096032238623593,colour,0.5
104,20,0,1,3,48,148,244.6171191430767,245.34385111992015,"[7, 0, 247]",247,a,0.20333713525906205,colour,0.5
104,20,0,1,3,49,149,245.84046916500665,246.59188740415266,"[91, 0, 163]",163,l,0.22814864059910178,colour,0.5
104,20,0,1,3,50,150,247.1060938203591,247.66393875848735,"[66, 0, 188]",188,a,0.03447845345363021,colour,0.5
104,20,0,1,4,1,151,273.15213243931066,273.95186021301197,"[8, 0, 246]",246,a,0.2756303109927103,colour,0.5
104,20,0,1,4,2,152,274.4654309619218,275.25582419347484,"[47, 0, 207]",207,a,0.26708385453093797,colour,0.5
104,20,0,1,4,3,153,275.7622686942341,278.02383713051677,"[75, 0, 179]",179,l,1.738215736229904,colour,0.5
104,20,0,1,4,4,154,278.54417454620125,279.4158422158216,"[50, 0, 204]",204,a,0.3491010860307142,colour,0.5
104,20,0,1,4,5,155,279.93479211232625,280.7118312102393,"[82, 0, 172]",172,l,0.2529601459973492,colour,0.5
104,20,0,1,4,6,156,281.2316073954571,282.0878603296005,"[71, 0, 183]",183,l,0.33125710888998583,colour,0.5
104,20,0,1,4,7,157,282.60829935752554,283.6718235538574,"[66, 0, 188]",188,a,0.5403495146310888,colour,0.5
104,20,0,1,4,8,158,284.18635922524845,284.9678468127968,"[34, 0, 220]",220,a,0.2582002659328282,colour,0.5
104,20,0,1,4,9,159,285.4833147175377,286.4158398527652,"[68, 0, 186]",186,l,0.409278379753232,colour,0.5
104,20,0,1,4,10,160,286.9363096006564,287.67984422604786,"[28, 0, 226]",226,a,0.22025557450251654,colour,0.5
104,20,0,1,4,11,161,288.1863253545016,289.01583615061827,"[27, 0, 227]",227,a,0.30624356062617153,colour,0.5
104,20,0,1,4,12,162,289.53008746524574,290.6238342160359,"[53, 0, 201]",201,a,0.5703861737856641,colour,0.5
104,20,0,1,4,13,163,291.14187826693524,291.9197940658196,"[83, 0, 171]",171,l,0.2545386804267764,colour,0.5
104,20,0,1,4,14,164,292.4388629038003,293.05582647776464,"[56, 0, 198]",198,a,0.09404922445537522,colour,0.5
104,20,0,1,4,15,165,293.5637794084614,294.3518717921106,"[80, 0, 174]",174,l,0.2646459483075887,colour,0.5
104,20,0,1,4,16,166,294.86067030997947,295.6478383372305,"[0, 0, 254]",254,a,0.2641571854474023,colour,0.5
104,20,0,1,4,17,167,296.1575462453766,297.00781469076173,"[97, 0, 157]",157,l,0.32690708071459085,colour,0.5
104,20,0,1,4,18,168,297.51695309765637,298.43984791240655,"[42, 0, 212]",212,a,0.399642939271871,colour,0.5
104,20,0,1,4,19,169,298.9543666484533,300.0238442197442,"[32, 0, 222]",222,a,0.5462520834407769,colour,0.5
104,20,0,1,4,20,170,300.5257015971001,301.319830063323,"[40, 0, 214]",214,a,0.2708561107283458,colour,0.5
104,20,0,1,4,21,171,301.8405073680333,302.59981355333,"[18, 0, 236]",236,a,0.2359070114325732,colour,0.5
104,20,0,1,4,22,172,303.10686339531094,304.279801139317,"[49, 0, 205]",205,a,0.6496055239695124,colour,0.5
104,20,0,1,4,23,173,304.79437225684524,305.49581302399747,"[89, 0, 165]",165,l,0.17812705785036087,colour,0.5
104,20,0,1,4,24,174,306.01310955529334,306.74383355438476,"[6, 0, 248]",248,a,0.20745164359686896,colour,0.5
104,20,0,1,4,25,175,307.26305835531093,308.1198154122685,"[30, 0, 224]",224,a,0.3334346830379218,colour,0.5
104,20,0,1,4,26,176,308.63805717381183,309.5518080678303,"[39, 0, 215]",215,a,0.3904761754674837,colour,0.5
104,20,0,1,4,27,177,310.06578723492566,310.8958234215388,"[52, 0, 202]",202,a,0.3065818742616102,colour,0.5
104,20,0,1,4,28,178,311.4103370375815,312.2797869608621,"[58, 0, 196]",196,a,0.3460637463722378,colour,0.5
104,20,0,1,4,29,179,312.8008250283892,313.71980265167076,"[20, 0, 234]",234,a,0.39561350166331977,colour,0.5
104,20,0,1,4,30,180,314.2383913914673,315.03983790875645,"[3, 0, 251]",251,a,0.27706627326551825,colour,0.5
104,20,0,1,4,31,181,315.55192661547335,316.52781576197594,"[26, 0, 228]",228,a,0.45256716647418216,colour,0.5
104,20,0,1,4,32,182,317.0362409139634,317.8477903667954,"[44, 0, 210]",210,a,0.28818178665824234,colour,0.5
104,20,0,1,4,33,183,318.36456662765704,319.1838015898247,"[54, 0, 200]",200,a,0.2958720221067779,colour,0.5
104,20,0,1,4,34,184,319.6926867538132,320.46381225518417,"[81, 0, 173]",173,l,0.24784093664493412,colour,0.5
104,20,0,1,4,35,185,320.97389786154963,321.7358195775887,"[41, 0, 213]",213,a,0.23854341602418572,colour,0.5
104,20,0,1,4,36,186,322.2550691908109,322.9757993496605,"[35, 0, 219]",219,a,0.1976366094313562,colour,0.5
104,20,0,1,4,37,187,323.489457138523,324.3198462110013,"[59, 0, 195]",195,a,0.3068532340694219,colour,0.5
104,20,0,1,4,38,188,324.8332153108204,325.5838494027266,"[98, 0, 156]",156,l,0.22558352211490273,colour,0.5
104,20,0,1,4,39,189,326.0904341127025,326.90386496752035,"[88, 0, 166]",166,l,0.29003680095775053,colour,0.5
104,20,0,1,4,40,190,327.41854124196107,327.9757958050468,"[22, 0, 232]",232,a,0.03376322926487774,colour,0.5
104,20,0,1,4,41,191,328.49672320188256,329.1118798108073,"[12, 0, 242]",242,a,0.09183502267114818,colour,0.5
104,20,0,1,4,42,192,329.6216826357995,330.37581211025827,"[74, 0, 180]",180,l,0.23099299584282562,colour,0.5
104,20,0,1,4,43,193,330.8872911434737,331.631877731299,"[77, 0, 177]",177,l,0.2213032046565786,colour,0.5
104,20,0,1,4,44,194,332.1433315583854,332.87182087567635,"[10, 0, 244]",244,a,0.20422407623846084,colour,0.5
104,20,0,1,4,45,195,333.3787375977845,334.15179215645185,"[57, 0, 197]",197,a,0.24676494958112016,colour,0.5
104,20,0,1,4,46,196,334.6629923467408,335.43982664472423,"[72, 0, 182]",182,l,0.2535690317163244,colour,0.5
104,20,0,1,4,47,197,335.9597658821731,336.68787828896893,"[92, 0, 162]",162,l,0.2046116206329316,colour,0.5
104,20,0,1,4,48,198,337.1941884883563,337.8958442953299,"[64, 0, 190]",190,a,0.1783101962064393,colour,0.5
104,20,0,1,4,49,199,338.4130545743974,339.1918124158983,"[16, 0, 238]",238,a,0.25561309210024774,colour,0.5
104,20,0,1,4,50,200,339.70979896525387,340.4637705075438,"[5, 0, 249]",249,a,0.23061923607019708,colour,0.5
104,20,0,1,5,1,201,373.383829237835,374.3438558460912,"[60, 0, 194]",194,a,0.4358535271603614,colour,0.5
104,20,0,1,5,2,202,374.85356808645884,375.823826417909,"[35, 0, 219]",219,a,0.4469359575305134,colour,0.5
104,20,0,1,5,3,203,376.32766247715335,377.0877843173221,"[30, 0, 224]",224,a,0.236790407798253,colour,0.5
104,20,0,1,5,4,204,377.6091870862292,378.29577040986624,"[98, 0, 156]",156,l,0.16317351593170315,colour,0.5
104,20,0,1,5,5,205,378.81237810465973,379.46376538753975,"[7, 0, 247]",247,a,0.12819960428168997,colour,0.5
104,20,0,1,5,6,206,379.9841555785388,380.7918031999143,"[71, 0, 183]",183,l,0.28436069359304383,colour,0.5
104,20,0,1,5,7,207,381.29853442055173,382.06388968531974,"[33, 0, 221]",221,a,0.2419986262684688,colour,0.5
104,20,0,1,5,8,208,382.57981169433333,383.33583793079015,"[20, 0, 234]",234,a,0.23273340094601735,colour,0.5
104,20,0,1,5,9,209,383.83302390167955,384.5518257908989,"[75, 0, 179]",179,l,0.1955106290988624,colour,0.5
104,20,0,1,5,10,210,385.0674303601263,385.8238008178887,"[95, 0, 159]",159,l,0.2331331545719877,colour,0.5
104,20,0,1,5,11,211,386.3330810093321,387.0237989274319,"[14, 0, 240]",240,a,0.16752669482957572,colour,0.5
104,20,0,1,5,12,212,387.5362019232125,388.3197863464593,"[65, 0, 189]",189,l,0.26034751388942823,colour,0.5
104,20,0,1,5,13,213,388.8329687632504,389.5277708635549,"[12, 0, 242]",242,a,0.1716845262562856,colour,0.5
104,20,0,1,5,14,214,390.0361688401317,390.63979009585455,"[90, 0, 164]",164,l,0.08040640171384439,colour,0.5
104,20,0,1,5,15,215,391.1610853447928,391.9357428564108,"[87, 0, 167]",167,l,0.25139854685403407,colour,0.5
104,20,0,1,5,16,216,392.4423590740189,393.04777666099835,"[52, 0, 202]",202,a,0.08237129903864115,colour,0.5
104,20,0,1,5,17,217,393.56736064940924,394.2957278745016,"[55, 0, 199]",199,a,0.20508856809465215,colour,0.5
104,20,0,1,5,18,218,394.8173677386367,395.54383662639884,"[31, 0, 223]",223,a,0.20394523337017745,colour,0.5
104,20,0,1,5,19,219,396.051722997101,396.7757433447405,"[97, 0, 157]",157,l,0.2007546875393018,colour,0.5
104,20,0,1,5,20,220,397.2860829817364,397.99192615860375,"[45, 0, 209]",209,a,0.18242273532086983,colour,0.5
104,20,0,1,5,21,221,398.50482421863126,399.2317787184147,"[24, 0, 230]",230,a,0.2037526426720433,colour,0.5
104,20,0,1,5,22,222,399.7413322389475,400.60774718556786,"[57, 0, 197]",197,a,0.3430354650481604,colour,0.5
104,20,0,1,5,23,223,401.1162798574078,401.95976076222723,"[5, 0, 249]",249,a,0.3199998109485023,colour,0.5
104,20,0,1,5,24,224,402.4756902543595,403.1838114359998,"[83, 0, 171]",171,l,0.1847436693497002,colour,0.5
104,20,0,1,5,25,225,403.6944606358302,404.4478138400591,"[36, 0, 218]",218,a,0.23077204829314724,colour,0.5
104,20,0,1,5,26,226,404.9593172916793,405.70379163342295,"[3, 0, 251]",251,a,0.22116063244175166,colour,0.5
104,20,0,1,5,27,227,406.22490728861885,406.9917268725694,"[86, 0, 168]",168,l,0.24351453920826316,colour,0.5
104,20,0,1,5,28,228,407.50610224867705,408.15975965943653,"[22, 0, 232]",232,a,0.13043546758126467,colour,0.5
104,20,0,1,5,29,229,408.6779399809893,409.40774356218753,"[81, 0, 173]",173,l,0.20632839505560696,colour,0.5
104,20,0,1,5,30,230,409.9279273779248,410.5997497502831,"[16, 0, 238]",238,a,0.14839011541334912,colour,0.5
104,20,0,1,5,31,231,411.11548231943743,411.88776415243046,"[46, 0, 208]",208,a,0.25822271511424333,colour,0.5
104,20,0,1,5,32,232,412.4051500867936,413.09576954337535,"[11, 0, 243]",243,a,0.16758065175963566,colour,0.5
104,20,0,1,5,33,233,413.608157966868,414.3597160212812,"[53, 0, 201]",201,a,0.22823725588386878,colour,0.5
104,20,0,1,5,34,234,414.8737578099244,415.53577893268084,"[96, 0, 158]",158,l,0.1392501331283711,colour,0.5
104,20,0,1,5,35,235,416.04050902219024,416.7837612600415,"[78, 0, 176]",176,l,0.22000627004308626,colour,0.5
104,20,0,1,5,36,236,417.2904550653184,418.0157278429833,"[94, 0, 160]",160,l,0.20194213301874697,colour,0.5
104,20,0,1,5,37,237,418.52485600992804,419.327769603231,"[89, 0, 165]",165,l,0.2795632563647814,colour,0.5
104,20,0,1,5,38,238,419.83734360378,420.55176868324634,"[6, 0, 248]",248,a,0.1911984101170674,colour,0.5
104,20,0,1,5,39,239,421.07167089916766,421.75980991416145,"[84, 0, 170]",170,l,0.16494503483409062,colour,0.5
104,20,0,1,5,40,240,422.2748197760666,423.00776152155595,"[1, 0, 253]",253,a,0.2095914084929973,colour,0.5
104,20,0,1,5,41,241,423.524826471461,424.31174283119617,"[26, 0, 228]",228,a,0.26354239200009033,colour,0.5
104,20,0,1,5,42,242,424.8216622345499,425.5517269355478,"[51, 0, 203]",203,a,0.20691995159722865,colour,0.5
104,20,0,1,5,43,243,426.0716756253387,426.80774726433447,"[59, 0, 195]",195,a,0.21283630502875894,colour,0.5
104,20,0,1,5,44,244,427.3217024068581,427.95974973449484,"[15, 0, 239]",239,a,0.11488839978119358,colour,0.5
104,20,0,1,5,45,245,428.47793478221865,429.19176397286355,"[32, 0, 222]",222,a,0.19054226286243647,colour,0.5
104,20,0,1,5,46,246,429.71232076070737,430.4558069430059,"[40, 0, 214]",214,a,0.22023706376785412,colour,0.5
104,20,0,1,5,47,247,430.96231957915006,431.7117331425543,"[17, 0, 237]",237,a,0.2261254540644586,colour,0.5
104,20,0,1,5,48,248,432.22579659271287,432.97577099275077,"[73, 0, 181]",181,l,0.2266732938005589,colour,0.5
104,20,0,1,5,49,249,433.4913491742918,434.23174918000586,"[23, 0, 231]",231,a,0.21696735493605956,colour,0.5
104,20,0,1,5,50,250,434.7415165588027,435.5117622084217,"[56, 0, 198]",198,a,0.2470166171551682,colour,0.5
104,20,0,1,6,1,251,464.7561948024668,465.3277243109769,"[23, 0, 231]",231,a,0.047413141233846545,colour,0.5
104,20,0,1,6,2,252,465.8351526389015,466.4397585093975,"[67, 0, 187]",187,l,0.08140086266212165,colour,0.5
104,20,0,1,6,3,253,466.96018454042496,467.7117189640994,"[64, 0, 190]",190,a,0.22822189592989162,colour,0.5
104,20,0,1,6,4,254,468.22575208812486,468.8957277169684,"[40, 0, 214]",214,a,0.14659181493334472,colour,0.5
104,20,0,1,6,5,255,469.4133200265351,470.06372978386935,"[34, 0, 220]",220,a,0.12713897723006085,colour,0.5
104,20,0,1,6,6,256,470.58505220816005,471.1597068840638,"[89, 0, 165]",165,l,0.05121336050797254,colour,0.5
104,20,0,1,6,7,257,471.6795059124124,472.2477318412857,"[25, 0, 229]",229,a,0.04496499494416639,colour,0.5
104,20,0,1,6,8,258,472.757672906213,473.4397230632603,"[4, 0, 250]",250,a,0.15871754311956465,colour,0.5
104,20,0,1,6,9,259,473.96081587544177,474.59970839647576,"[44, 0, 210]",210,a,0.11560953169828281,colour,0.5
104,20,0,1,6,10,260,475.11759097047616,475.8557003682945,"[27, 0, 227]",227,a,0.21485594689147547,colour,0.5
104,20,0,1,6,11,261,476.3674743921147,477.0077008692897,"[5, 0, 249]",249,a,0.11684857099317014,colour,0.5
104,20,0,1,6,12,262,477.52377490286017,478.18370864220196,"[50, 0, 204]",204,a,0.13664681155933067,colour,0.5
104,20,0,1,6,13,263,478.68314032256603,479.36770873045316,"[42, 0, 212]",212,a,0.16167178144678473,colour,0.5
104,20,0,1,6,14,264,479.8863242517691,480.559686955472,"[16, 0, 238]",238,a,0.15074452629778534,colour,0.5
104,20,0,1,6,15,265,481.07380239327904,481.8157163427095,"[56, 0, 198]",198,a,0.21896021527936682,colour,0.5
104,20,0,1,6,16,266,482.32383232557913,483.05573786242167,"[35, 0, 219]",219,a,0.20860285521484911,colour,0.5
104,20,0,1,6,17,267,483.5738161779009,484.3197418418713,"[95, 0, 159]",159,a,0.22251467470778152,colour,0.5
104,20,0,1,6,18,268,484.8394361071405,485.42367896198994,"[97, 0, 157]",157,a,0.06100003782194108,colour,0.5
104,20,0,1,6,19,269,485.93314386717975,486.5116798945819,"[51, 0, 203]",203,a,0.05522940732771531,colour,0.5
104,20,0,1,6,20,270,487.02699419943383,487.6637694047531,"[26, 0, 228]",228,a,0.11346307140775025,colour,0.5
104,20,0,1,6,21,271,488.18318600865314,488.79975494905375,"[6, 0, 248]",248,a,0.09323987108655274,colour,0.5
104,20,0,1,6,22,272,489.30825926404214,489.9197487735073,"[60, 0, 194]",194,a,0.08824275399092585,colour,0.5
104,20,0,1,6,23,273,490.433175374812,491.1437529735267,"[93, 0, 161]",161,l,0.18730366782983765,colour,0.5
104,20,0,1,6,24,274,491.6519327594433,492.33569220779464,"[84, 0, 170]",170,l,0.16053711128188297,colour,0.5
104,20,0,1,6,25,275,492.8550493409857,493.55171551404055,"[13, 0, 241]",241,a,0.17361082666320726,colour,0.5
104,20,0,1,6,26,276,494.05814504867885,494.69567171204835,"[9, 0, 245]",245,a,0.11424721864750609,colour,0.5
104,20,0,1,6,27,277,495.2144313809695,495.95971231913427,"[92, 0, 162]",162,l,0.22233862552093342,colour,0.5
104,20,0,1,6,28,278,496.48000523023074,497.27969165012473,"[73, 0, 181]",181,a,0.27632702444680035,colour,0.5
104,20,0,1,6,29,279,497.7924471379956,498.36776189965894,"[54, 0, 200]",200,a,0.05185769248055294,colour,0.5
104,20,0,1,6,30,280,498.8862328794785,499.46370197832584,"[83, 0, 171]",171,l,0.054921813716646284,colour,0.5
104,20,0,1,6,31,281,499.98000877484446,502.5837355812546,"[61, 0, 193]",193,a,2.0803910417016596,colour,0.5
104,20,0,1,6,32,282,503.10498632566305,503.9117509443895,"[52, 0, 202]",202,a,0.28363877395167947,colour,0.5
104,20,0,1,6,33,283,504.4331623779144,505.1597001887276,"[82, 0, 172]",172,l,0.203259153815452,colour,0.5
104,20,0,1,6,34,284,505.6674766764045,506.27968968090136,"[78, 0, 176]",176,l,0.08886739367153496,colour,0.5
104,20,0,1,6,35,285,506.792493611807,507.4317386249313,"[65, 0, 189]",189,a,0.11588089156430215,colour,0.5
104,20,0,1,6,36,286,507.9487287441152,508.6156898762565,"[85, 0, 169]",169,l,0.14376597048249096,colour,0.5
104,20,0,1,6,37,287,509.1363317348296,509.7597047573072,"[87, 0, 167]",167,l,0.10048702987842262,colour,0.5
104,20,0,1,6,38,288,510.27695323945954,512.0876732527977,"[14, 0, 240]",240,a,1.2875303655164316,colour,0.5
104,20,0,1,6,39,289,512.6049910517759,513.1996936665964,"[99, 0, 155]",155,l,0.07153305312385783,colour,0.5
104,20,0,1,6,40,290,513.7142966857064,514.2556780765881,"[20, 0, 234]",234,a,0.018051533901598305,colour,0.5
104,20,0,1,6,41,291,514.7768445379334,515.4956968394108,"[24, 0, 230]",230,a,0.19546927529154345,colour,0.5
104,20,0,1,6,42,292,516.0112903810223,516.7357506545377,"[76, 0, 178]",178,l,0.20125605340581387,colour,0.5
104,20,0,1,6,43,293,517.2455562364194,517.7997159583028,"[31, 0, 223]",223,a,0.030868855596054345,colour,0.5
104,20,0,1,6,44,294,518.3080253195367,519.0397209365037,"[30, 0, 224]",224,a,0.20840396301355213,colour,0.5
104,20,0,1,6,45,295,519.558115116437,520.2236840032274,"[11, 0, 243]",243,a,0.14230125746689737,colour,0.5
104,20,0,1,6,46,296,520.7258422788582,521.2557147042826,"[3, 0, 251]",251,a,0.00652287615230307,colour,0.5
104,20,0,1,6,47,297,521.7727233342594,522.3117050220026,"[28, 0, 226]",226,a,0.015870809089392424,colour,0.5
104,20,0,1,6,48,298,522.8195153804263,523.8236673041247,"[86, 0, 168]",168,l,0.4838078126194887,colour,0.5
104,20,0,1,6,49,299,524.3321381421993,525.4796791258268,"[17, 0, 237]",237,a,0.6242576004588045,colour,0.5
104,20,0,1,6,50,300,525.9883807576261,526.7117240841035,"[10, 0, 244]",244,a,0.2001808540080674,colour,0.5
104,20,0,1,7,1,301,569.1913390131085,571.4156594713568,"[8, 0, 246]",246,a,1.700174946396146,colour,0.5
104,20,0,1,7,2,302,571.926609175629,572.7196640179027,"[73, 0, 181]",181,l,0.27053158171474934,colour,0.5
104,20,0,1,7,3,303,573.2389561664895,574.0636644054321,"[68, 0, 186]",186,l,0.30158160644350573,colour,0.5
104,20,0,1,7,4,304,574.5826643203618,575.3356303739711,"[75, 0, 179]",179,l,0.22962871356867254,colour,0.5
104,20,0,1,7,5,305,575.8496213565231,576.5276850051596,"[81, 0, 173]",173,l,0.15468534862156957,colour,0.5
104,20,0,1,7,6,306,577.0394224012853,577.6236546222935,"[4, 0, 250]",250,a,0.06114300386980176,colour,0.5
104,20,0,1,7,7,307,578.1330955028534,578.8876582078519,"[39, 0, 215]",215,a,0.23113635572372004,colour,0.5
104,20,0,1,7,8,308,579.3901453448925,580.127678152232,"[16, 0, 238]",238,a,0.21416632272303104,colour,0.5
104,20,0,1,7,9,309,580.640197726374,581.3916206916911,"[0, 0, 254]",254,a,0.22571861126925796,colour,0.5
104,20,0,1,7,10,310,581.9081866388442,582.6156898762565,"[7, 0, 247]",247,a,0.1841848019976169,colour,0.5
104,20,0,1,7,11,311,583.1269723803271,583.8956473724102,"[83, 0, 171]",171,l,0.24531244585523382,colour,0.5
104,20,0,1,7,12,312,584.4082000295748,585.1276746076182,"[29, 0, 225]",225,a,0.19615968718426302,colour,0.5
104,20,0,1,7,13,313,585.6425655280473,586.3756396057433,"[56, 0, 198]",198,a,0.2096244915155694,colour,0.5
104,20,0,1,7,14,314,586.8925856141723,587.6156918454799,"[33, 0, 221]",221,a,0.19975077430717647,colour,0.5
104,20,0,1,7,15,315,588.1269365403568,588.9196644905023,"[25, 0, 229]",229,a,0.2693075085990131,colour,0.5
104,20,0,1,7,16,316,589.4394359496073,590.455654524616,"[38, 0, 216]",216,a,0.49298875487875193,colour,0.5
104,20,0,1,7,17,317,590.970658872684,591.7436894067796,"[87, 0, 167]",167,l,0.24971879401709884,colour,0.5
104,20,0,1,7,18,318,592.2519365403568,592.9916540110717,"[53, 0, 201]",201,a,0.21639115834841505,colour,0.5
104,20,0,1,7,19,319,593.5018203558284,594.2316519000451,"[30, 0, 224]",224,a,0.20666158868698403,colour,0.5
104,20,0,1,7,20,320,594.7531247735023,595.4956491841003,"[54, 0, 200]",200,a,0.21916304592741653,colour,0.5
104,20,0,1,7,21,321,596.003166915034,596.7436303299037,"[88, 0, 166]",166,l,0.2171544317388907,colour,0.5
104,20,0,1,7,22,322,597.2531901519396,597.9436717624776,"[9, 0, 245]",245,a,0.1671710520167835,colour,0.5
104,20,0,1,7,23,323,598.4562756196246,599.1756710346672,"[71, 0, 183]",183,l,0.1962364871869795,colour,0.5
104,20,0,1,7,24,324,599.6907017703634,600.4636161199305,"[93, 0, 161]",161,l,0.24962466483702883,colour,0.5
104,20,0,1,7,25,325,600.9613432351034,601.6956732874387,"[17, 0, 237]",237,a,0.21090961078880355,colour,0.5
104,20,0,1,7,26,326,602.2113621397293,602.9676183821866,"[48, 0, 206]",206,a,0.23356914200121537,colour,0.5
104,20,0,1,7,27,327,603.4768580074888,604.2636258872808,"[18, 0, 236]",236,a,0.2633411366841756,colour,0.5
104,20,0,1,7,28,328,604.7737118874793,605.519638733007,"[96, 0, 158]",158,l,0.2225465762312524,colour,0.5
104,20,0,1,7,29,329,606.039381835144,606.7676553249476,"[59, 0, 195]",195,a,0.20518230344168842,colour,0.5
104,20,0,1,7,30,330,607.2737240967108,607.9596394576365,"[89, 0, 165]",165,l,0.16256108548259363,colour,0.5
104,20,0,1,7,31,331,608.4768698228872,609.175660794659,"[23, 0, 231]",231,a,0.17539022251730785,colour,0.5
104,20,0,1,7,32,332,609.6955425306223,610.3836909979,"[84, 0, 170]",170,l,0.16464177350280806,colour,0.5
104,20,0,1,7,33,333,610.8987500905641,612.4396513833199,"[65, 0, 189]",189,a,1.017608851136174,colour,0.5
104,20,0,1,7,34,334,612.9612424105871,613.791668504593,"[80, 0, 174]",174,l,0.30715334467822686,colour,0.5
104,20,0,1,7,35,335,614.3049722259748,615.1836869806866,"[55, 0, 199]",199,a,0.35549162997631356,colour,0.5
104,20,0,1,7,36,336,615.6955240198295,616.5516296556452,"[77, 0, 177]",177,l,0.33268637576838955,colour,0.5
104,20,0,1,7,37,337,617.0706331151887,618.0556433394086,"[57, 0, 197]",197,a,0.4617583487415686,colour,0.5
104,20,0,1,7,38,338,618.5705744321458,619.3356193462969,"[12, 0, 242]",242,a,0.24170009105000645,colour,0.5
104,20,0,1,7,39,339,619.8517516690772,620.5996808272321,"[42, 0, 212]",212,a,0.22459181805606931,colour,0.5
104,20,0,1,7,40,340,621.1174476105953,621.8955961724278,"[21, 0, 233]",233,a,0.2547363910707645,colour,0.5
104,20,0,1,7,41,341,622.4142408383195,623.1596123610507,"[86, 0, 168]",168,l,0.22192272427491844,colour,0.5
104,20,0,1,7,42,342,623.6799178752117,624.4716714505339,"[63, 0, 191]",191,a,0.2683240753249265,colour,0.5
104,20,0,1,7,43,343,624.9924176782952,625.7276181300986,"[91, 0, 163]",163,l,0.21181427483679727,colour,0.5
104,20,0,1,7,44,344,626.2424239798565,626.8716050481307,"[44, 0, 210]",210,a,0.1058543620747514,colour,0.5
104,20,0,1,7,45,345,627.3830096444581,628.3516740814666,"[43, 0, 211]",211,a,0.44542595226084813,colour,0.5
104,20,0,1,7,46,346,628.867382232158,629.5756349583389,"[31, 0, 223]",223,a,0.18487009382806718,colour,0.5
104,20,0,1,7,47,347,630.0870982377673,630.8556401098613,"[2, 0, 252]",252,a,0.24524076585657895,colour,0.5
104,20,0,1,7,48,348,631.3682329393341,631.9836104958085,"[49, 0, 205]",205,a,0.0921158348210156,colour,0.5
104,20,0,1,7,49,349,632.4933420346933,633.3516008260776,"[79, 0, 175]",175,l,0.3348990021040663,colour,0.5
104,20,0,1,7,50,350,633.8682727178093,634.8876105525414,"[11, 0, 243]",243,a,0.49600758391898125,colour,0.5
104,20,0,1,8,1,351,646.9998215877567,647.7676269680378,"[37, 0, 217]",217,a,0.24373706220649183,colour,0.5
104,20,0,1,8,2,352,648.281812510395,648.9836199480924,"[1, 0, 253]",253,a,0.17845276842126623,colour,0.5
104,20,0,1,8,3,353,649.4904795624898,650.247619595204,"[66, 0, 188]",188,l,0.2337735480396077,colour,0.5
104,20,0,1,8,4,354,650.7560959471157,651.3756100672763,"[33, 0, 221]",221,a,0.09627957385964692,colour,0.5
104,20,0,1,8,5,355,651.8967670763377,652.6076006748481,"[87, 0, 167]",167,l,0.18751240614801645,colour,0.5
104,20,0,1,8,6,356,653.1154586886987,653.83965114702,"[49, 0, 205]",205,a,0.2008177029201761,colour,0.5
104,20,0,1,8,7,357,654.3498281256179,655.0235957029508,"[38, 0, 216]",216,a,0.1504239357309416,colour,0.5
104,20,0,1,8,8,358,655.5373728271225,656.2156330049038,"[99, 0, 155]",155,l,0.15496104076737538,colour,0.5
104,20,0,1,8,9,359,656.7248367902357,657.4396029402851,"[55, 0, 199]",199,a,0.19139848387567326,colour,0.5
104,20,0,1,8,10,360,657.9591723564081,658.8396590239136,"[36, 0, 218]",218,a,0.35706228751223534,colour,0.5
104,20,0,1,8,11,361,659.3498021317646,660.3116073482088,"[85, 0, 169]",169,l,0.43848796252859756,colour,0.5
104,20,0,1,8,12,362,660.8185315533192,661.5916132873972,"[15, 0, 239]",239,a,0.24975936015835032,colour,0.5
104,20,0,1,8,13,363,662.0998430917389,662.815620244306,"[7, 0, 247]",247,a,0.1924705324927345,colour,0.5
104,20,0,1,8,14,364,663.3342290702276,664.1035751756863,"[51, 0, 203]",203,a,0.24603200232377276,colour,0.5
104,20,0,1,8,15,365,664.6154196979478,665.4476740247337,"[34, 0, 220]",220,a,0.3139156791730784,colour,0.5
104,20,0,1,8,16,366,665.9541315224487,666.8956024739309,"[86, 0, 168]",168,l,0.41812415909953415,colour,0.5
104,20,0,1,8,17,367,667.4072835501283,668.4716285213362,"[17, 0, 237]",237,a,0.541048591141589,colour,0.5
104,20,0,1,8,18,368,668.9853898916626,669.711578361108,"[46, 0, 208]",208,a,0.20361637201858684,colour,0.5
104,20,0,1,8,19,369,670.2197356978431,670.9836187665933,"[44, 0, 210]",210,a,0.2408470208174549,colour,0.5
104,20,0,1,8,20,370,671.5009629532578,672.303650085174,"[48, 0, 206]",206,a,0.2793852380127646,colour,0.5
104,20,0,1,8,21,371,672.8416440073634,673.655596708064,"[4, 0, 250]",250,a,0.2875299716833979,colour,0.5
104,20,0,1,8,22,372,674.1751354042208,674.9516258747317,"[5, 0, 249]",249,a,0.25321535812690854,colour,0.5
104,20,0,1,8,23,373,675.4719747119234,676.2477011213196,"[14, 0, 240]",240,a,0.25258481077617034,colour,0.5
104,20,0,1,8,24,374,676.7688352873083,677.5516316248686,"[78, 0, 176]",176,l,0.25944442523177713,colour,0.5
104,20,0,1,8,25,375,678.0657080719247,678.8796371418284,"[74, 0, 180]",180,l,0.2906330836704001,colour,0.5
104,20,0,1,8,26,376,679.3938746718923,680.1916245513712,"[40, 0, 214]",214,a,0.2743971794261597,colour,0.5
104,20,0,1,8,27,377,680.7063433611183,681.4315984157729,"[3, 0, 251]",251,a,0.20211227447725832,colour,0.5
104,20,0,1,8,28,378,681.9407226442127,682.6716159970383,"[12, 0, 242]",242,a,0.20760484965285286,colour,0.5
104,20,0,1,8,29,379,683.1906722319545,683.9916173833772,"[53, 0, 201]",201,a,0.2779626665287651,colour,0.5
104,20,0,1,8,30,380,684.5060896456125,685.2635943796486,"[11, 0, 243]",243,a,0.23430602776352316,colour,0.5
104,20,0,1,8,31,381,685.7716950025642,687.7035805319902,"[68, 0, 186]",186,l,1.4085663062869571,colour,0.5
104,20,0,1,8,32,382,688.2124775113771,689.2556095474283,"[9, 0, 245]",245,a,0.5201239511952735,colour,0.5
104,20,0,1,8,33,383,689.774955259054,690.8156029150705,"[56, 0, 198]",198,a,0.5173150420887396,colour,0.5
104,20,0,1,8,34,384,691.3218713667593,692.3996216715896,"[63, 0, 191]",191,l,0.5546209154417738,colour,0.5
104,20,0,1,8,35,385,692.9163605170907,693.9675738775986,"[70, 0, 184]",184,l,0.5286499276990071,colour,0.5
104,20,0,1,8,36,386,694.4780986221158,695.1195980093325,"[64, 0, 190]",190,a,0.11820458248257637,colour,0.5
104,20,0,1,8,37,387,695.6343002775684,696.2796341486392,"[81, 0, 173]",173,l,0.12191736797103658,colour,0.5
104,20,0,1,8,38,388,696.7780981495162,697.5756168414373,"[80, 0, 174]",174,l,0.27461615775246173,colour,0.5
104,20,0,1,8,39,389,698.0904774357332,698.8316312624956,"[47, 0, 207]",207,a,0.21778616053052247,colour,0.5
104,20,0,1,8,40,390,699.3405731403036,700.0556008040439,"[96, 0, 158]",158,l,0.19175176363205537,colour,0.5
104,20,0,1,8,41,391,700.5749185526511,701.3356146201841,"[82, 0, 172]",172,l,0.2374185920925811,colour,0.5
104,20,0,1,8,42,392,701.8561320234439,702.7364623341127,"[52, 0, 202]",202,a,0.3571497212979011,colour,0.5
104,20,0,1,8,43,393,703.2486955822678,703.9916043864796,"[61, 0, 193]",193,a,0.21967583330115303,colour,0.5
104,20,0,1,8,44,394,704.4904519933043,705.2395705661038,"[79, 0, 175]",175,l,0.22577768814517185,colour,0.5
104,20,0,1,8,45,395,705.7561026425101,706.5036552839447,"[29, 0, 225]",225,a,0.22679735522251576,colour,0.5
104,20,0,1,8,46,396,707.0204378463677,707.727872160729,"[73, 0, 181]",181,l,0.1840449866722338,colour,0.5
104,20,0,1,8,47,397,708.2415531864972,708.8396176701062,"[0, 0, 254]",254,a,0.07351921813096851,colour,0.5
104,20,0,1,8,48,398,709.3522041980759,710.7915972184855,"[62, 0, 192]",192,a,0.9160099942237139,colour,0.5
104,20,0,1,8,49,399,711.305447991821,712.1276021399535,"[59, 0, 195]",195,a,0.29913346021203324,colour,0.5
104,20,0,1,8,50,400,712.6490848595859,713.4715808659676,"[19, 0, 235]",235,a,0.2991637863451615,colour,0.5
104,20,0,1,9,1,401,723.880277141463,725.2236202001804,"[74, 0, 180]",180,l,0.8191447714925744,colour,0.5
104,20,0,1,9,2,402,725.7404543563607,726.831593453302,"[81, 0, 173]",173,l,0.5678123906836845,colour,0.5
104,20,0,1,9,3,403,727.3498174917768,727.9675533975824,"[41, 0, 213]",213,a,0.09439068881329149,colour,0.5
104,20,0,1,9,4,404,728.4748423040728,729.2715776364785,"[72, 0, 182]",182,l,0.27374300139490515,colour,0.5
104,20,0,1,9,5,405,729.7872810609988,730.5195579945575,"[46, 0, 208]",208,a,0.208884455030784,colour,0.5
104,20,0,1,9,6,406,731.0374153624871,731.7915920984815,"[57, 0, 197]",197,a,0.23084727284731343,colour,0.5
104,20,0,1,9,7,407,732.3061258006492,733.0316010151291,"[80, 0, 174]",174,l,0.20240096346242353,colour,0.5
104,20,0,1,9,8,408,733.5405031145201,734.2555772520718,"[43, 0, 211]",211,a,0.19175255135633051,colour,0.5
104,20,0,1,9,9,409,734.7728560602991,735.5675705692847,"[62, 0, 192]",192,a,0.2714311258168891,colour,0.5
104,20,0,1,9,10,410,736.0852069896064,736.8237043256522,"[63, 0, 191]",191,a,0.21497606992488727,colour,0.5
104,20,0,1,9,11,411,737.3353503495455,738.0555964717641,"[5, 0, 249]",249,a,0.1969272929127328,colour,0.5
104,20,0,1,9,12,412,738.5696642542025,739.5915648443624,"[35, 0, 219]",219,a,0.4985455270507373,colour,0.5
104,20,0,1,9,13,413,740.0915742966463,740.8235534826526,"[31, 0, 223]",223,a,0.20860600599553436,colour,0.5
104,20,0,1,9,14,414,741.341686148895,742.0075909862644,"[52, 0, 202]",202,a,0.14268289419123903,colour,0.5
104,20,0,1,9,15,415,742.5135490873363,743.2395756861079,"[77, 0, 177]",177,l,0.20270028640516102,colour,0.5
104,20,0,1,9,16,416,743.7480477057397,744.407613199146,"[76, 0, 178]",178,l,0.13622657797532156,colour,0.5
104,20,0,1,9,17,417,744.9199453026522,745.6395939606009,"[2, 0, 252]",252,a,0.1963058040710166,colour,0.5
104,20,0,1,9,18,418,746.156175661541,746.9115626860876,"[65, 0, 189]",189,l,0.23277829942526296,colour,0.5
104,20,0,1,9,19,419,747.4217739292653,748.1115863955929,"[47, 0, 207]",207,a,0.16657673852751032,colour,0.5
104,20,0,1,9,20,420,748.6249326523393,749.3355610571452,"[36, 0, 218]",218,a,0.18751870770938694,colour,0.5
104,20,0,1,9,21,421,749.843617963139,750.4395572541398,"[40, 0, 214]",214,a,0.07256492943270132,colour,0.5
104,20,0,1,9,22,422,750.9530378123163,751.6155693593901,"[33, 0, 221]",221,a,0.13926194852683693,colour,0.5
104,20,0,1,9,23,423,752.1249007508159,752.8555908791022,"[50, 0, 204]",204,a,0.20742525591049343,colour,0.5
104,20,0,1,9,24,424,753.3748188308673,754.0155541569111,"[79, 0, 175]",175,l,0.11739444138947874,colour,0.5
104,20,0,1,9,25,425,754.5311000431539,755.2395835630596,"[6, 0, 248]",248,a,0.18516626599011943,colour,0.5
104,20,0,1,9,26,426,755.7498322215979,756.5195316068712,"[26, 0, 228]",228,a,0.24634471599711105,colour,0.5
104,20,0,1,9,27,427,757.0310212739278,757.9915453096037,"[91, 0, 163]",163,l,0.4433247842825949,colour,0.5
104,20,0,1,9,28,428,758.5092459268053,759.4075690884492,"[69, 0, 185]",185,l,0.3750165415694937,colour,0.5
104,20,0,1,9,29,429,759.9166830768809,760.7276197054889,"[73, 0, 181]",181,l,0.2875965316197835,colour,0.5
104,20,0,1,9,30,430,761.2448177753249,761.9115284214495,"[21, 0, 233]",233,a,0.14347767521394417,colour,0.5
104,20,0,1,9,31,431,762.4311628221767,763.0396212934866,"[93, 0, 161]",161,l,0.08515854662982747,colour,0.5
104,20,0,1,9,32,432,763.556119499146,764.3195500388974,"[98, 0, 156]",156,l,0.24014282430289313,colour,0.5
104,20,0,1,9,33,433,764.8248472665437,765.5035910870647,"[8, 0, 246]",246,a,0.1554564989055507,colour,0.5
104,20,0,1,9,34,434,766.0135388473864,766.7755602063844,"[15, 0, 239]",239,a,0.23867850512033328,colour,0.5
104,20,0,1,9,35,435,767.2948952842271,768.1355948491255,"[11, 0, 243]",243,a,0.3174890432273969,colour,0.5
104,20,0,1,9,36,436,768.6542355765705,769.4395568603068,"[30, 0, 224]",224,a,0.26214738975977525,colour,0.5
104,20,0,1,9,37,437,769.9510327427415,770.6235254408675,"[22, 0, 232]",232,a,0.14920537651050836,colour,0.5
104,20,0,1,9,38,438,771.1269259065157,771.8635398713523,"[53, 0, 201]",201,a,0.21322975709335878,colour,0.5
104,20,0,1,9,39,439,772.3788407854154,773.11954090168,"[37, 0, 217]",217,a,0.21776134829269722,colour,0.5
104,20,0,1,9,40,440,773.6288474807516,774.3755852550385,"[32, 0, 222]",222,a,0.22332205885322765,colour,0.5
104,20,0,1,9,41,441,774.8945130961365,775.6395100713708,"[88, 0, 166]",166,l,0.22169193055015057,colour,0.5
104,20,0,1,9,42,442,776.1601369638229,776.9195120721124,"[24, 0, 230]",230,a,0.23602437746012583,colour,0.5
104,20,0,1,9,43,443,777.4257797361352,778.1595650995732,"[16, 0, 238]",238,a,0.21049095259513706,colour,0.5
104,20,0,1,9,44,444,778.6757990345941,779.1996436481713,"[70, 0, 184]",184,l,0.0006313350168056786,colour,0.5
104,20,0,1,9,45,445,779.7226867853315,780.5195749299601,"[61, 0, 193]",193,l,0.27376229979563504,colour,0.5
104,20,0,1,9,46,446,781.0351286930381,781.5596018847427,"[3, 0, 251]",251,a,0.0011299439356662333,colour,0.5
104,20,0,1,9,47,447,782.082097182225,782.6795338754309,"[66, 0, 188]",188,a,0.0742419253801927,colour,0.5
104,20,0,1,9,48,448,783.191361856123,783.9355089119053,"[60, 0, 194]",194,a,0.22088218334829435,colour,0.5
104,20,0,1,9,49,449,784.4413260161527,785.1115174725419,"[64, 0, 190]",190,a,0.14682221476687118,colour,0.5
104,20,0,1,9,50,450,785.6288459054194,786.3676035735989,"[29, 0, 225]",225,a,0.2153313189628534,colour,0.5
104,20,0,1,10,1,451,799.7815293351887,801.6315256330417,"[68, 0, 186]",186,l,1.3254908107919618,colour,0.5
104,20,0,1,10,2,452,802.1420428944984,802.983549055818,"[87, 0, 167]",167,l,0.31825901195406914,colour,0.5
104,20,0,1,10,3,453,803.50136940222,804.1674943994731,"[19, 0, 235]",235,a,0.1430657124146819,colour,0.5
104,20,0,1,10,4,454,804.6889034698834,805.4876277241856,"[97, 0, 157]",157,l,0.275637794053182,colour,0.5
104,20,0,1,10,5,455,806.0013623129926,806.6075392349157,"[49, 0, 205]",205,a,0.08282185875577852,colour,0.5
104,20,0,1,10,6,456,807.1263910637936,807.6555494465283,"[66, 0, 188]",188,a,0.005771811935119331,colour,0.5
104,20,0,1,10,7,457,808.1731835037936,808.7595180743374,"[34, 0, 220]",220,a,0.06293736590305343,colour,0.5
104,20,0,1,10,8,458,809.2669440392056,810.3515035461751,"[56, 0, 198]",198,a,0.5611402469803579,colour,0.5
104,20,0,1,10,9,459,810.8607392330305,811.4635412892094,"[45, 0, 209]",209,a,0.07951473456341773,colour,0.5
104,20,0,1,10,10,460,811.969971611572,812.5355382928392,"[64, 0, 190]",190,a,0.04210291669005528,colour,0.5
104,20,0,1,10,11,461,813.0444270014414,813.7275515701622,"[75, 0, 179]",179,l,0.16059421899262816,colour,0.5
104,20,0,1,10,12,462,814.2467846418731,814.7995532999048,"[35, 0, 219]",219,a,0.029619576351251453,colour,0.5
104,20,0,1,10,13,463,815.3091820449918,816.0954796727747,"[83, 0, 171]",171,l,0.2628905769670382,colour,0.5
104,20,0,1,10,14,464,816.6061048480333,817.439503297268,"[71, 0, 183]",183,l,0.31019029062008485,colour,0.5
104,20,0,1,10,15,465,817.9498508111574,818.9675459145219,"[39, 0, 215]",215,a,0.4943644587183371,colour,0.5
104,20,0,1,10,16,466,819.4810694018961,820.4475200309535,"[50, 0, 204]",204,a,0.44305893825367093,colour,0.5
104,20,0,1,10,17,467,820.9654955526348,822.1355113537866,"[82, 0, 172]",172,l,0.646790313301608,colour,0.5
104,20,0,1,10,18,468,822.6534104693565,823.3676315366174,"[2, 0, 252]",252,a,0.19048988132271916,colour,0.5
104,20,0,1,10,19,469,823.8878626138903,824.8715357312467,"[31, 0, 223]",223,a,0.460434632608667,colour,0.5
104,20,0,1,10,20,470,825.3879209031002,826.0395507950452,"[5, 0, 249]",249,a,0.12842488411115482,colour,0.5
104,20,0,1,10,21,471,826.5597420939011,827.0875476159272,"[55, 0, 199]",199,a,0.0043456958956085145,colour,0.5
104,20,0,1,10,22,472,827.6066203923547,828.2395240922924,"[3, 0, 251]",251,a,0.10952973220264539,colour,0.5
104,20,0,1,10,23,473,828.7472348077572,829.487501299649,"[0, 0, 254]",254,a,0.21686180419055745,colour,0.5
104,20,0,1,10,24,474,829.9972119646845,830.7514946452575,"[98, 0, 156]",156,l,0.23095439898315817,colour,0.5
104,20,0,1,10,25,475,831.2628559185541,831.999575827911,"[36, 0, 218]",218,a,0.21416002116166055,colour,0.5
104,20,0,1,10,26,476,832.5128649770049,833.2396115261363,"[57, 0, 197]",197,a,0.20355256902985275,colour,0.5
104,20,0,1,10,27,477,833.7490283820662,834.5275306175463,"[80, 0, 174]",174,l,0.2552168830879964,colour,0.5
104,20,0,1,10,28,478,835.0458491790341,835.775785092439,"[4, 0, 250]",250,a,0.2065773056820035,colour,0.5
104,20,0,1,10,29,479,836.2958862005617,837.0395645796671,"[90, 0, 164]",164,l,0.2203552175196819,colour,0.5
104,20,0,1,10,30,480,837.5458842313383,838.4795432490064,"[67, 0, 187]",187,l,0.4104406191036105,colour,0.5
104,20,0,1,10,31,481,838.9990342897945,839.815546201251,"[85, 0, 169]",169,l,0.29323325445875525,colour,0.5
104,20,0,1,10,32,482,840.3270910067367,841.2394988861633,"[77, 0, 177]",177,l,0.38906541938195005,colour,0.5
104,20,0,1,10,33,483,841.7490264128428,842.5275763036916,"[29, 0, 225]",225,a,0.2552850184147246,colour,0.5
104,20,0,1,10,34,484,843.0459618189489,843.7755732033402,"[92, 0, 162]",162,l,0.20644418575102463,colour,0.5
104,20,0,1,10,35,485,844.2958539052051,845.135469212255,"[27, 0, 227]",227,a,0.3162952962447889,colour,0.5
104,20,0,1,10,36,486,845.655241065193,846.4395147187752,"[13, 0, 241]",241,a,0.2640669947722927,colour,0.5
104,20,0,1,10,37,487,846.939988121565,847.6714958740631,"[32, 0, 222]",222,a,0.20650917035527527,colour,0.5
104,20,0,1,10,38,488,848.1824790552491,848.9514951178571,"[10, 0, 244]",244,a,0.2457039286964573,colour,0.5
104,20,0,1,10,39,489,849.463579098403,850.279550259409,"[53, 0, 201]",201,a,0.29260507016442716,colour,0.5
104,20,0,1,10,40,490,850.7917602706584,851.5757172721787,"[7, 0, 247]",247,a,0.26061454141745344,colour,0.5
104,20,0,1,10,41,491,852.0886074553127,852.8874746756628,"[65, 0, 189]",189,a,0.27572640939615667,colour,0.5
104,20,0,1,10,42,492,853.4010725999251,854.1354782707058,"[20, 0, 234]",234,a,0.21104666916653514,colour,0.5
104,20,0,1,10,43,493,854.6386404596269,855.4955156703363,"[41, 0, 213]",213,a,0.3337143136304803,colour,0.5
104,20,0,1,10,44,494,856.0136487303535,856.7914585847175,"[40, 0, 214]",214,a,0.2606996121467091,colour,0.5
104,20,0,1,10,45,495,857.3043621586403,858.055492496409,"[89, 0, 165]",165,l,0.22861810494214296,colour,0.5
104,20,0,1,10,46,496,858.5699560940266,859.2715138334315,"[51, 0, 203]",203,a,0.17822433781111613,colour,0.5
104,20,0,1,10,47,497,859.7886516448343,860.5595416263095,"[37, 0, 217]",217,a,0.24763141060248017,colour,0.5
104,20,0,1,10,48,498,861.0699226171128,861.7674954234972,"[48, 0, 206]",206,a,0.17423625400988385,colour,0.5
104,20,0,1,10,49,499,862.2887024509255,863.031506885949,"[96, 0, 158]",158,l,0.21968922403175384,colour,0.5
104,20,0,1,10,50,500,863.5393637182424,864.3114592620987,"[42, 0, 212]",212,a,0.24765858595492318,colour,0.5
104,20,0,1,11,1,501,872.1492924164049,872.8314977487316,"[31, 0, 223]",223,a,0.15793024515733123,colour,0.5
104,20,0,1,11,2,502,873.3375996036339,873.9514809394022,"[13, 0, 241]",241,a,0.09057432186091319,colour,0.5
104,20,0,1,11,3,503,874.4627043665969,875.1754748993553,"[14, 0, 240]",240,a,0.1894556418992579,colour,0.5
104,20,0,1,11,4,504,875.6814373327652,876.3275289633893,"[30, 0, 224]",224,a,0.1227775274310261,colour,0.5
104,20,0,1,11,5,505,876.8377181512187,877.4554623278091,"[97, 0, 157]",157,l,0.09454192564589903,colour,0.5
104,20,0,1,11,6,506,877.9626964897034,878.62348841934,"[57, 0, 197]",197,a,0.13759598025353625,colour,0.5
104,20,0,1,11,7,507,879.1221859708894,879.8474890746875,"[5, 0, 249]",249,a,0.20231746818171814,colour,0.5
104,20,0,1,11,8,508,880.3565215370618,881.3034535560873,"[47, 0, 207]",207,a,0.42377978656440973,colour,0.5
104,20,0,1,11,9,509,881.8095420202008,882.5754955369048,"[90, 0, 164]",164,l,0.24245194293325767,colour,0.5
104,20,0,1,11,10,510,883.0908133863122,883.8794851173298,"[34, 0, 220]",220,a,0.2653887416818179,colour,0.5
104,20,0,1,11,11,511,884.387667266361,885.0714873669785,"[18, 0, 236]",236,a,0.16053711134009063,colour,0.5
104,20,0,1,11,12,512,885.5908405616647,886.3995145455119,"[65, 0, 189]",189,l,0.2853921760106459,colour,0.5
104,20,0,1,11,13,513,886.91904575855,887.6555758342147,"[63, 0, 191]",191,a,0.21323172631673515,colour,0.5
104,20,0,1,11,14,514,888.168906730949,888.9914815065567,"[42, 0, 212]",212,a,0.2992122293799184,colour,0.5
104,20,0,1,11,15,515,889.5126759309205,890.2634947366314,"[21, 0, 233]",233,a,0.22757244401145726,colour,0.5
104,20,0,1,11,16,516,890.7782962540514,891.4714615306584,"[51, 0, 203]",203,a,0.16975428740261123,colour,0.5
104,20,0,1,11,17,517,891.9814959370415,892.5594782171538,"[98, 0, 156]",156,l,0.05473906919360161,colour,0.5
104,20,0,1,11,18,518,893.0752206324833,893.8235042519518,"[76, 0, 178]",178,l,0.22509318398078904,colour,0.5
104,20,0,1,11,19,519,894.3407669125008,894.9434913810692,"[28, 0, 226]",226,a,0.0794217869406566,colour,0.5
104,20,0,1,11,20,520,895.4501662817202,896.039495262783,"[7, 0, 247]",247,a,0.06597785640042275,colour,0.5
104,20,0,1,11,21,521,896.5595266601886,897.2795262348372,"[19, 0, 235]",235,a,0.19669807457830757,colour,0.5
104,20,0,1,11,22,522,897.7904093791731,898.5674878616119,"[24, 0, 230]",230,a,0.25367970240768045,colour,0.5
104,20,0,1,11,23,523,899.0873357268283,899.8314418226364,"[53, 0, 201]",201,a,0.22076993726659566,colour,0.5
104,20,0,1,11,24,524,900.3373022499145,901.0954784912756,"[83, 0, 171]",171,l,0.23490703664720058,colour,0.5
104,20,0,1,11,25,525,901.6048272118787,902.4634688215447,"[62, 0, 192]",192,a,0.3354566879570484,colour,0.5
104,20,0,1,11,26,526,902.9798016119166,903.7034430797794,"[80, 0, 174]",174,l,0.20037698931992054,colour,0.5
104,20,0,1,11,27,527,904.2141359965317,904.9514569148305,"[93, 0, 161]",161,l,0.21439002722036093,colour,0.5
104,20,0,1,11,28,528,905.46415214421,906.1755016809329,"[77, 0, 177]",177,l,0.18807166739134118,colour,0.5
104,20,0,1,11,29,529,906.6829315841896,907.3434308863361,"[46, 0, 208]",208,a,0.13723561126971617,colour,0.5
104,20,0,1,11,30,530,907.8561209957115,908.607441954955,"[36, 0, 218]",218,a,0.22819275135407224,colour,0.5
104,20,0,1,11,31,531,909.1216538849985,909.8474449639325,"[91, 0, 163]",163,l,0.20252029882976785,colour,0.5
104,20,0,1,11,32,532,910.3560780665139,911.0075575093506,"[56, 0, 198]",198,a,0.12825080420589074,colour,0.5
104,20,0,1,11,33,533,911.5279189496068,912.1595028719166,"[87, 0, 167]",167,l,0.11770321661606431,colour,0.5
104,20,0,1,11,34,534,912.6750204011914,913.4314467851073,"[50, 0, 204]",204,a,0.23305399157106876,colour,0.5
104,20,0,1,11,35,535,913.9406576596666,914.7034592274576,"[71, 0, 183]",183,l,0.23951227695215493,colour,0.5
104,20,0,1,11,36,536,915.2218368658214,915.8474611116108,"[8, 0, 246]",246,a,0.10235779796494171,colour,0.5
104,20,0,1,11,37,537,916.3625131150475,917.1034507203731,"[70, 0, 184]",184,l,0.23005131020909175,colour,0.5
104,20,0,1,11,38,538,917.6156611255137,918.2794388010516,"[45, 0, 209]",209,a,0.1404675108497031,colour,0.5
104,20,0,1,11,39,539,918.7875335162389,919.6234675454907,"[38, 0, 216]",216,a,0.31261756300227717,colour,0.5
104,20,0,1,11,40,540,920.1221816385514,921.1114304325893,"[3, 0, 251]",251,a,0.46619817381724715,colour,0.5
104,20,0,1,11,41,541,921.6221934539499,922.3194882050739,"[6, 0, 248]",248,a,0.17424216168001294,colour,0.5
104,20,0,1,11,42,542,922.840866949351,923.6154405717971,"[94, 0, 160]",160,l,0.2512075316044502,colour,0.5
104,20,0,1,11,43,543,924.111636020185,926.1115320448298,"[17, 0, 237]",237,a,1.4766492691705935,colour,0.5
104,20,0,1,11,44,544,926.6272208971204,927.3914489748422,"[40, 0, 214]",214,a,0.24096320528769866,colour,0.5
104,20,0,1,11,45,545,927.9083914387156,928.6554450773983,"[22, 0, 232]",232,a,0.22373087093001232,colour,0.5
104,20,0,1,11,46,546,929.1751799088088,929.8714569620788,"[23, 0, 231]",231,a,0.1728983594221063,colour,0.5
104,20,0,1,11,47,547,930.3788939546212,931.151466839714,"[78, 0, 176]",176,l,0.24995116307400167,colour,0.5
104,20,0,1,11,48,548,931.6601960406988,932.4715064291377,"[66, 0, 188]",188,l,0.28788167610764503,colour,0.5
104,20,0,1,11,49,549,932.976187287888,933.8234329658444,"[74, 0, 180]",180,l,0.323845716426149,colour,0.5
104,20,0,1,11,50,550,934.3282075599418,935.1594181950204,"[82, 0, 172]",172,l,0.3079280396341346,colour,0.5
104,20,0,1,12,1,551,970.9834580774186,972.0234381646151,"[53, 0, 201]",201,a,0.5157266614842229,colour,0.5
104,20,0,1,12,2,552,972.5312650645501,973.2474407891859,"[47, 0, 207]",207,a,0.19295771984616295,colour,0.5
104,20,0,1,12,3,553,973.7655695169233,974.5593923587585,"[28, 0, 226]",226,a,0.2705473355599679,colour,0.5
104,20,0,1,12,4,554,975.0780244215857,975.8234349350678,"[66, 0, 188]",188,a,0.2220278811873868,colour,0.5
104,20,0,1,12,5,555,976.3437101230957,977.0874487606343,"[35, 0, 219]",219,a,0.21934539661742747,colour,0.5
104,20,0,1,12,6,556,977.5904565619421,978.2714169473038,"[25, 0, 229]",229,a,0.15749898384092376,colour,0.5
104,20,0,1,12,7,557,978.7780386788072,979.5034323671716,"[32, 0, 222]",222,a,0.20216662518214434,colour,0.5
104,20,0,1,12,8,558,980.0123104419326,980.7754396895762,"[71, 0, 183]",183,l,0.2397233783849515,colour,0.5
104,20,0,1,12,9,559,981.2936093772878,982.0634737840155,"[94, 0, 160]",160,l,0.2465317927999422,colour,0.5
104,20,0,1,12,10,560,982.5748705034493,983.9034289800911,"[68, 0, 186]",186,a,0.8051990812527947,colour,0.5
104,20,0,1,12,11,561,984.4186034696177,985.1433985121548,"[93, 0, 161]",161,l,0.20153371477499604,colour,0.5
104,20,0,1,12,12,562,985.6405179231078,986.327423412702,"[30, 0, 224]",224,a,0.1635882356786169,colour,0.5
104,20,0,1,12,13,563,986.8436238708091,987.5755215307581,"[22, 0, 232]",232,a,0.20729174214648083,colour,0.5
104,20,0,1,12,14,564,988.0950102084316,988.8153953582514,"[95, 0, 159]",159,l,0.19706632051384076,colour,0.5
104,20,0,1,12,15,565,989.3293249008129,990.0713766962872,"[61, 0, 193]",193,l,0.22006967925699428,colour,0.5
104,20,0,1,12,16,566,990.5780047292938,991.3354373894981,"[69, 0, 185]",185,l,0.2340949263307266,colour,0.5
104,20,0,1,12,17,567,991.8435896062292,992.4634030492743,"[62, 0, 192]",192,a,0.09640521073015407,colour,0.5
104,20,0,1,12,18,568,992.9842339538736,993.727476345608,"[29, 0, 225]",225,a,0.219975943909958,colour,0.5
104,20,0,1,12,19,569,994.2217561274301,994.9034136201371,"[49, 0, 205]",205,a,0.15822917426703498,colour,0.5
104,20,0,1,12,20,570,995.4249309981824,997.4073989469907,"[63, 0, 191]",191,a,1.459132577991113,colour,0.5
104,20,0,1,12,21,571,997.9249774719938,998.6954854229698,"[38, 0, 216]",216,a,0.24732657393906265,colour,0.5
104,20,0,1,12,22,572,999.2061507704784,999.9193722568452,"[6, 0, 248]",248,a,0.19044261978706345,colour,0.5
104,20,0,1,12,23,573,1000.4405643181526,1001.1194140832522,"[59, 0, 195]",195,a,0.15490550844697282,colour,0.5
104,20,0,1,12,24,574,1001.6294142250554,1002.4154507329804,"[85, 0, 169]",169,l,0.2627507616998628,colour,0.5
104,20,0,1,12,25,575,1002.9263169419719,1003.6714206494507,"[84, 0, 170]",170,l,0.2218242627568543,colour,0.5
104,20,0,1,12,26,576,1004.1919073327444,1004.8794165881118,"[7, 0, 247]",247,a,0.16421445063315332,colour,0.5
104,20,0,1,12,27,577,1005.3950038281619,1006.2073980804998,"[2, 0, 252]",252,a,0.289076998422388,colour,0.5
104,20,0,1,12,28,578,1006.723099929688,1007.44742393255,"[14, 0, 240]",240,a,0.20100871816975996,colour,0.5
104,20,0,1,12,29,579,1007.9582909292076,1009.6554651635233,"[60, 0, 194]",194,a,1.1739459895761684,colour,0.5
104,20,0,1,12,30,580,1010.1769813600113,1011.1194255048176,"[97, 0, 157]",157,l,0.4190524540026672,colour,0.5
104,20,0,1,12,31,581,1011.6208413809072,1012.3834322411567,"[50, 0, 204]",204,a,0.23934725555591285,colour,0.5
104,20,0,1,12,32,582,1012.9048094100435,1013.5834646152798,"[16, 0, 238]",238,a,0.1556876864633523,colour,0.5
104,20,0,1,12,33,583,1014.0923308746424,1014.8154055982595,"[51, 0, 203]",203,a,0.19969090970698744,colour,0.5
104,20,0,1,12,34,584,1015.326666834706,1016.0074212386389,"[57, 0, 197]",197,a,0.1572681901161559,colour,0.5
104,20,0,1,12,35,585,1016.514199326979,1017.2313840847928,"[23, 0, 231]",231,a,0.19377455627545714,colour,0.5
104,20,0,1,12,36,586,1017.7455483595259,1018.4553701678524,"[70, 0, 184]",184,l,0.18641436367761344,colour,0.5
104,20,0,1,12,37,587,1018.9644160210155,1019.5754281892441,"[4, 0, 250]",250,a,0.08773666201159358,colour,0.5
104,20,0,1,12,38,588,1020.0782497014152,1020.8393912087195,"[80, 0, 174]",174,l,0.2377742349053733,colour,0.5
104,20,0,1,12,39,589,1021.3595297322026,1022.1353998953709,"[20, 0, 234]",234,a,0.2524658693000674,colour,0.5
104,20,0,1,12,40,590,1022.6563587998971,1023.3674176782952,"[74, 0, 180]",180,l,0.18792791361920536,colour,0.5
104,20,0,1,12,41,591,1023.8751721106237,1024.6553824558505,"[24, 0, 230]",230,a,0.25684898055624217,colour,0.5
104,20,0,1,12,42,592,1025.1720051168231,1025.7673646666226,"[72, 0, 182]",182,l,0.07213248661719263,colour,0.5
104,20,0,1,12,43,593,1026.2813662829576,1027.01541512931,"[89, 0, 165]",165,l,0.2107776723569259,colour,0.5
104,20,0,1,12,44,594,1027.5332839187467,1028.1834085315932,"[48, 0, 206]",206,a,0.1268459557904862,colour,0.5
104,20,0,1,12,45,595,1028.6895119618857,1029.4234135098523,"[15, 0, 239]",239,a,0.21069969091331586,colour,0.5
104,20,0,1,12,46,596,1029.9394903003122,1030.6153547133435,"[40, 0, 214]",214,a,0.1527539282105863,colour,0.5
104,20,0,1,12,47,597,1031.127016097249,1031.8153898444143,"[92, 0, 162]",162,l,0.16505137324566022,colour,0.5
104,20,0,1,12,48,598,1032.3300739957485,1032.9033947155112,"[21, 0, 233]",233,a,0.049975108937360346,colour,0.5
104,20,0,1,12,49,599,1033.4238412264967,1034.0953650636366,"[19, 0, 235]",235,a,0.1482018570532091,colour,0.5
104,20,0,1,12,50,600,1034.6113721433794,1035.151372710534,"[17, 0, 237]",237,a,0.016727423935662955,colour,0.5
104,20,0,1,13,1,601,1040.6449963451014,1041.3673727798741,"[46, 0, 208]",208,a,0.19613802566891536,colour,0.5
104,20,0,1,13,2,602,1041.882287724875,1042.575392743107,"[16, 0, 238]",238,a,0.16984132735524327,colour,0.5
104,20,0,1,13,3,603,1043.0854637771845,1043.831370930362,"[26, 0, 228]",228,a,0.2200291131157428,colour,0.5
104,20,0,1,13,4,604,1044.338178950944,1045.1753949486883,"[3, 0, 251]",251,a,0.3140176853048615,colour,0.5
104,20,0,1,13,5,605,1045.6819237325108,1046.3434115878772,"[38, 0, 216]",216,a,0.1381674506701529,colour,0.5
104,20,0,1,13,6,606,1046.8538288124837,1047.5354221082525,"[30, 0, 224]",224,a,0.15783926675794646,colour,0.5
104,20,0,1,13,7,607,1048.0422387934523,1048.7433774808305,"[81, 0, 173]",173,l,0.1779301349306479,colour,0.5
104,20,0,1,13,8,608,1049.2608981104568,1049.9594460793305,"[85, 0, 169]",169,l,0.17509365658042952,colour,0.5
104,20,0,1,13,9,609,1050.4796547073638,1051.1353676000144,"[48, 0, 206]",206,a,0.13248819252476096,colour,0.5
104,20,0,1,13,10,610,1051.6514888951206,1052.367401530617,"[88, 0, 166]",166,l,0.19258592929691076,colour,0.5
104,20,0,1,13,11,611,1052.8858740858268,1053.5193866716,"[23, 0, 231]",231,a,0.11012837802991271,colour,0.5
104,20,0,1,13,12,612,1054.027158826997,1054.7673327650991,"[42, 0, 212]",212,a,0.2168870103196241,colour,0.5
104,20,0,1,13,13,613,1055.2772116023698,1055.9834659543703,"[59, 0, 195]",195,a,0.18290637811878696,colour,0.5
104,20,0,1,13,14,614,1056.4838015110581,1057.1593744780985,"[93, 0, 161]",161,l,0.15132505516521633,colour,0.5
104,20,0,1,13,15,615,1057.6723264951142,1058.3914013195317,"[20, 0, 234]",234,a,0.19594740425236523,colour,0.5
104,20,0,1,13,16,616,1058.9067424058449,1059.5354315605946,"[63, 0, 191]",191,l,0.10540616541402414,colour,0.5
104,20,0,1,13,17,617,1060.0348774193553,1060.6473869898473,"[28, 0, 226]",226,a,0.08924351655878127,colour,0.5
104,20,0,1,13,18,618,1061.1597840778995,1061.7753573757363,"[95, 0, 159]",159,l,0.09210323169827461,colour,0.5
104,20,0,1,13,19,619,1062.2848679670715,1062.9834037267137,"[70, 0, 184]",184,l,0.17524568107910454,colour,0.5
104,20,0,1,13,20,620,1063.503522164072,1064.2713937103981,"[83, 0, 171]",171,l,0.24457398476079106,colour,0.5
104,20,0,1,13,21,621,1064.7721648607403,1065.383403884247,"[74, 0, 180]",180,a,0.08794067421695217,colour,0.5
104,20,0,1,13,22,622,1065.897381475952,1066.4633550000726,"[12, 0, 242]",242,a,0.042716528580058366,colour,0.5
104,20,0,1,13,23,623,1066.9755342913559,1067.663344838831,"[11, 0, 243]",243,a,0.1645567027735524,colour,0.5
104,20,0,1,13,24,624,1068.1785917960224,1068.8633433422656,"[15, 0, 239]",239,a,0.16135552315972745,colour,0.5
104,20,0,1,13,25,625,1069.3817071960075,1070.0073487710324,"[56, 0, 198]",198,a,0.10230187186971307,colour,0.5
104,20,0,1,13,26,626,1070.5223054637318,1071.2073709051474,"[33, 0, 221]",221,a,0.16201363963773474,colour,0.5
104,20,0,1,13,27,627,1071.7254433129565,1072.3913469687686,"[98, 0, 156]",156,l,0.14262381725711748,colour,0.5
104,20,0,1,13,28,628,1072.8973294883035,1074.5113919932628,"[73, 0, 181]",181,l,1.0907298910315149,colour,0.5
104,20,0,1,13,29,629,1075.0252927850233,1075.6154527809704,"[65, 0, 189]",189,a,0.06685416353866458,colour,0.5
104,20,0,1,13,30,630,1076.1346850650152,1076.8313792011468,"[17, 0, 237]",237,a,0.17076804680982605,colour,0.5
104,20,0,1,13,31,631,1077.345346946735,1078.031358406064,"[75, 0, 179]",179,l,0.16260598396183923,colour,0.5
104,20,0,1,13,32,632,1078.548555688234,1079.2553590614116,"[82, 0, 172]",172,l,0.184080432751216,colour,0.5
104,20,0,1,13,33,633,1079.767311891308,1080.3353495618794,"[71, 0, 183]",183,l,0.04472317360341549,colour,0.5
104,20,0,1,13,34,634,1080.8453500975156,1081.4553705617436,"[22, 0, 232]",232,a,0.08657836116617545,colour,0.5
104,20,0,1,13,35,635,1081.9704840051127,1082.6154330886784,"[68, 0, 186]",186,a,0.12163537426386029,colour,0.5
104,20,0,1,13,36,636,1083.128656859335,1083.7834607555997,"[24, 0, 230]",230,a,0.13145592232467607,colour,0.5
104,20,0,1,13,37,637,1084.290511779138,1084.9193801337387,"[10, 0, 244]",244,a,0.10559481760719791,colour,0.5
104,20,0,1,13,38,638,1085.4313160282327,1086.1114115280216,"[54, 0, 200]",200,a,0.1568747381097637,colour,0.5
104,20,0,1,13,39,639,1086.6187473020982,1087.2154096942395,"[89, 0, 165]",165,l,0.07334119972074404,colour,0.5
104,20,0,1,13,40,640,1087.7300792732858,1088.3593552584643,"[99, 0, 155]",155,l,0.1112023958703503,colour,0.5
104,20,0,1,13,41,641,1088.86549925484,1089.431367228215,"[35, 0, 219]",219,a,0.04249361180700362,colour,0.5
104,20,0,1,13,42,642,1089.9435248579248,1090.5673673448036,"[97, 0, 157]",157,l,0.10046694375341758,colour,0.5
104,20,0,1,13,43,643,1091.0842385225114,1092.3113789175404,"[96, 0, 158]",158,l,0.7039314487483352,colour,0.5
104,20,0,1,13,44,644,1092.8186059902073,1093.407375316252,"[47, 0, 207]",207,a,0.06547727825818583,colour,0.5
104,20,0,1,13,45,645,1093.9280140240444,1094.5193350777845,"[45, 0, 209]",209,a,0.06811604590620846,colour,0.5
104,20,0,1,13,46,646,1095.0373527409974,1095.7113326012623,"[6, 0, 248]",248,a,0.15071223094128072,colour,0.5
104,20,0,1,13,47,647,1096.2248198548332,1096.839380180987,"[36, 0, 218]",218,a,0.09121038299053907,colour,0.5
104,20,0,1,13,48,648,1097.3404939773027,1097.9033462724765,"[8, 0, 246]",246,a,0.03963232121895999,colour,0.5
104,20,0,1,13,49,649,1098.418595592666,1099.0393558413489,"[76, 0, 178]",178,l,0.09742251475108787,colour,0.5
104,20,0,1,13,50,650,1099.559933896875,1100.2393752185744,"[53, 0, 201]",201,a,0.15612249239347875,colour,0.5
104,20,0,1,14,1,651,1129.199666097411,1129.9753932945314,"[79, 0, 175]",175,l,0.25152300222544,colour,0.5
104,20,0,1,14,2,652,1130.4817586322897,1131.103335717402,"[36, 0, 218]",218,a,0.09834096347913146,colour,0.5
104,20,0,1,14,3,653,1131.622362020018,1132.2232948834426,"[56, 0, 198]",198,a,0.07797400932759047,colour,0.5
104,20,0,1,14,4,654,1132.731779899972,1133.3993849701947,"[12, 0, 242]",242,a,0.1443189301644452,colour,0.5
104,20,0,1,14,5,655,1133.9209283420932,1134.543334472808,"[43, 0, 211]",211,a,0.0990463414345868,colour,0.5
104,20,0,1,14,6,656,1135.061555360502,1135.719319796539,"[50, 0, 204]",204,a,0.13446293590823188,colour,0.5
104,20,0,1,14,7,657,1136.2334049082128,1136.7673315836,"[97, 0, 157]",157,l,0.01065313833532855,colour,0.5
104,20,0,1,14,8,658,1137.282227624033,1137.9113074738998,"[22, 0, 232]",232,a,0.10579410364152864,colour,0.5
104,20,0,1,14,9,659,1138.423506851308,1139.0553550441982,"[17, 0, 237]",237,a,0.10932690155459568,colour,0.5
104,20,0,1,14,10,660,1139.5635123809334,1140.25534094451,"[11, 0, 243]",243,a,0.16868696495657787,colour,0.5
104,20,0,1,14,11,661,1140.766576580936,1141.3433099756367,"[99, 0, 155]",155,l,0.053472066880203784,colour,0.5
104,20,0,1,14,12,662,1141.8603091532714,1143.7273219579947,"[40, 0, 214]",214,a,1.3437719569192268,colour,0.5
104,20,0,1,14,13,663,1144.2353796517127,1144.8072931599454,"[95, 0, 159]",159,l,0.04870338045293465,colour,0.5
104,20,0,1,14,14,664,1145.3133512979257,1145.967308425461,"[64, 0, 190]",190,a,0.1306631105253473,colour,0.5
104,20,0,1,14,15,665,1146.4852981255972,1147.0713345547556,"[52, 0, 202]",202,a,0.06272311368957162,colour,0.5
104,20,0,1,14,16,666,1147.5789613809902,1148.2073027698207,"[10, 0, 244]",244,a,0.10492961184354499,colour,0.5
104,20,0,1,14,17,667,1148.719686073251,1149.3433131263591,"[82, 0, 172]",172,l,0.10037557146279141,colour,0.5
104,20,0,1,14,18,668,1149.860440697812,1150.4313034251682,"[71, 0, 183]",183,l,0.04751908575417474,colour,0.5
104,20,0,1,14,19,669,1150.9261353790062,1151.9753810853,"[1, 0, 253]",253,a,0.5260107661597431,colour,0.5
104,20,0,1,14,20,670,1152.4762002847856,1153.0713507024338,"[57, 0, 197]",197,a,0.07185915752779692,colour,0.5
104,20,0,1,14,21,671,1153.5856221032445,1154.1673325287993,"[5, 0, 249]",249,a,0.05843610083684325,colour,0.5
104,20,0,1,14,22,672,1154.6792392787174,1155.2393519816687,"[69, 0, 185]",185,l,0.03661506762728095,colour,0.5
104,20,0,1,14,23,673,1155.7574881924666,1156.3033357961685,"[98, 0, 156]",156,l,0.02257721743080765,colour,0.5
104,20,0,1,14,24,674,1156.8198729925207,1157.3833369304193,"[0, 0, 254]",254,a,0.04006949014728889,colour,0.5
104,20,0,1,14,25,675,1157.8979998140712,1158.51929845009,"[3, 0, 251]",251,a,0.09794436057563871,colour,0.5
104,20,0,1,14,26,676,1159.0386414048262,1159.9833438621135,"[41, 0, 213]",213,a,0.42146160948323086,colour,0.5
104,20,0,1,14,27,677,1160.4917674386525,1161.1993679560255,"[13, 0, 241]",241,a,0.18422379269031808,colour,0.5
104,20,0,1,14,28,678,1161.710541364795,1162.3433796863537,"[39, 0, 215]",215,a,0.10951397841563448,colour,0.5
104,20,0,1,14,29,679,1162.8387098552776,1163.5113226763788,"[87, 0, 167]",167,l,0.14932156103895977,colour,0.5
104,20,0,1,14,30,680,1164.026225412148,1164.6553470097133,"[80, 0, 174]",174,l,0.10584766668034717,colour,0.5
104,20,0,1,14,31,681,1165.166827224486,1165.7512985099456,"[2, 0, 252]",252,a,0.06112055463017896,colour,0.5
104,20,0,1,14,32,682,1166.2612635994446,1166.951351757918,"[15, 0, 239]",239,a,0.16665865841787308,colour,0.5
104,20,0,1,14,33,683,1167.4644372886978,1168.1352699262206,"[38, 0, 216]",216,a,0.14753113745246083,colour,0.5
104,20,0,1,14,34,684,1168.655058714503,1169.3033082269249,"[76, 0, 178]",178,l,0.12504292919766158,colour,0.5
104,20,0,1,14,35,685,1169.811371828313,1170.3673010998755,"[89, 0, 165]",165,l,0.03268015297362581,colour,0.5
104,20,0,1,14,36,686,1170.8617986785248,1171.4554001001525,"[42, 0, 212]",212,a,0.07026447542011738,colour,0.5
104,20,0,1,14,37,687,1171.9711066755117,1172.5512968558469,"[61, 0, 193]",193,a,0.05677840340649709,colour,0.5
104,20,0,1,14,38,688,1173.0648932047188,1173.7273357426166,"[60, 0, 194]",194,a,0.13905833015451208,colour,0.5
104,20,0,1,14,39,689,1174.2264361985144,1174.7913514586398,"[78, 0, 176]",176,l,0.0415889477590099,colour,0.5
104,20,0,1,14,40,690,1175.304468890885,1175.8873628234142,"[81, 0, 173]",173,l,0.059603854024317116,colour,0.5
104,20,0,1,14,41,691,1176.398249906255,1176.9433188765543,"[85, 0, 169]",169,l,0.021905316330958158,colour,0.5
104,20,0,1,14,42,692,1177.4609371799743,1177.999289501924,"[34, 0, 220]",220,a,0.01425013312837109,colour,0.5
104,20,0,1,14,43,693,1178.508670911775,1179.17534886871,"[19, 0, 235]",235,a,0.14339024148648605,colour,0.5
104,20,0,1,14,44,694,1179.6961305425502,1180.2633194751688,"[91, 0, 163]",163,l,0.043849623296409845,colour,0.5
104,20,0,1,14,45,695,1180.7742853271775,1181.3673062198795,"[16, 0, 238]",238,a,0.06965440808562562,colour,0.5
104,20,0,1,14,46,696,1181.88365082565,1182.479275433754,"[66, 0, 188]",188,l,0.07228923728689551,colour,0.5
104,20,0,1,14,47,697,1182.9930454686983,1183.5913072691183,"[48, 0, 206]",206,a,0.07492918649222702,colour,0.5
104,20,0,1,14,48,698,1184.1023845794844,1184.6712977695279,"[31, 0, 223]",223,a,0.045587665343191475,colour,0.5
104,20,0,1,14,49,699,1185.1804412964266,1185.823336867441,"[8, 0, 246]",246,a,0.11952593555906788,colour,0.5
104,20,0,1,14,50,700,1186.3367713456391,1186.8632850530557,"[74, 0, 180]",180,l,0.003234262694604695,colour,0.5
104,20,0,1,15,1,701,1196.9629138926393,1197.5753848662134,"[27, 0, 227]",227,a,0.08825220633298159,colour,0.5
104,20,0,1,15,2,702,1198.0764084717375,1198.6152928795782,"[80, 0, 174]",174,l,0.015554944693576545,colour,0.5
104,20,0,1,15,3,703,1199.123267077899,1199.703282784496,"[41, 0, 213]",213,a,0.056780766462907195,colour,0.5
104,20,0,1,15,4,704,1200.2170776317362,1200.7992913923808,"[19, 0, 235]",235,a,0.059195829613599926,colour,0.5
104,20,0,1,15,5,705,1201.310715287167,1201.8712687037187,"[62, 0, 192]",192,l,0.03746341174701229,colour,0.5
104,20,0,1,15,6,706,1202.3888925209758,1202.9752751407214,"[86, 0, 168]",168,l,0.06321857188595459,colour,0.5
104,20,0,1,15,7,707,1203.4827515178476,1204.5352972591063,"[60, 0, 194]",194,a,0.5293147395714186,colour,0.5
104,20,0,1,15,8,708,1205.0451248963946,1205.7273069918156,"[29, 0, 225]",225,a,0.15880497690523043,colour,0.5
104,20,0,1,15,9,709,1206.2389797972282,1206.871319903701,"[11, 0, 243]",243,a,0.109214655472897,colour,0.5
104,20,0,1,15,10,710,1207.376452897559,1208.1992671315093,"[59, 0, 195]",195,a,0.29947098618140444,colour,0.5
104,20,0,1,15,11,711,1208.7208085341263,1209.3192932513193,"[87, 0, 167]",167,l,0.07595003512687981,colour,0.5
104,20,0,1,15,12,712,1209.8263497886946,1210.4472935695667,"[84, 0, 170]",170,l,0.09747489623259753,colour,0.5
104,20,0,1,15,13,713,1210.9669610533165,1211.5673586801859,"[73, 0, 181]",181,l,0.07692756073083729,colour,0.5
104,20,0,1,15,14,714,1212.0763785394374,1212.6152999688056,"[44, 0, 210]",210,a,0.015562427754048258,colour,0.5
104,20,0,1,15,15,715,1213.123227299482,1213.7592652252642,"[42, 0, 212]",212,a,0.11290223483229056,colour,0.5
104,20,0,1,15,16,716,1214.2657447783859,1214.879293314356,"[40, 0, 214]",214,a,0.09016078367130831,colour,0.5
104,20,0,1,15,17,717,1215.3907821937464,1216.0472575720632,"[43, 0, 211]",211,a,0.13314552133670077,colour,0.5
104,20,0,1,15,18,718,1216.5533306761645,1217.1912893885165,"[92, 0, 162]",162,l,0.1146123138605617,colour,0.5
104,20,0,1,15,19,719,1217.7095520238508,1218.255262569175,"[31, 0, 223]",223,a,0.02233106375206262,colour,0.5
104,20,0,1,15,20,720,1218.7721105099772,1219.327259966638,"[95, 0, 159]",159,l,0.03187395038548857,colour,0.5
104,20,0,1,15,21,721,1219.8221549357986,1220.3512577863294,"[18, 0, 236]",236,a,0.0058423104346729815,colour,0.5
104,20,0,1,15,22,722,1220.8706558794365,1221.4473108988022,"[25, 0, 229]",229,a,0.053309408540371805,colour,0.5
104,20,0,1,15,23,723,1221.9650442052516,1222.583287778485,"[99, 0, 155]",155,l,0.09488811629125848,colour,0.5
104,20,0,1,15,24,724,1223.090021362179,1223.775290028134,"[2, 0, 252]",252,a,0.16213218733901158,colour,0.5
104,20,0,1,15,25,725,1224.2932115928852,1224.9352997797541,"[94, 0, 160]",160,l,0.11874572676606476,colour,0.5
104,20,0,1,15,26,726,1225.4370031633298,1226.039271952177,"[39, 0, 215]",215,a,0.0790090364171192,colour,0.5
104,20,0,1,15,27,727,1226.5390911768773,1227.159341788909,"[38, 0, 216]",216,a,0.09712516108993441,colour,0.5
104,20,0,1,15,28,728,1227.6796634507482,1228.439281168161,"[7, 0, 247]",247,a,0.23627880198182538,colour,0.5
104,20,0,1,15,29,729,1228.96099034918,1229.5592651464976,"[0, 0, 254]",254,a,0.07487680501071736,colour,0.5
104,20,0,1,15,30,730,1230.0703727829969,1230.6472507191356,"[55, 0, 199]",199,a,0.05360676220152527,colour,0.5
104,20,0,1,15,31,731,1231.1641471029725,1231.8233026028029,"[90, 0, 164]",164,l,0.13582209817832336,colour,0.5
104,20,0,1,15,32,732,1232.3359915307374,1233.0952870821347,"[8, 0, 246]",246,a,0.23597632825840265,colour,0.5
104,20,0,1,15,33,733,1233.6016795953037,1234.2953269393765,"[35, 0, 219]",219,a,0.16944787529064342,colour,0.5
104,20,0,1,15,34,734,1234.8056846932159,1235.4392772297142,"[68, 0, 186]",186,l,0.11049032246228307,colour,0.5
104,20,0,1,15,35,735,1235.9463471578201,1236.5432789405459,"[58, 0, 196]",196,l,0.07371929183136672,colour,0.5
104,20,0,1,15,36,736,1237.0556583055295,1237.6392501330702,"[93, 0, 161]",161,l,0.06043565657455474,colour,0.5
104,20,0,1,15,37,737,1238.1493534625042,1238.7672945620725,"[69, 0, 185]",185,a,0.0944269226747565,colour,0.5
104,20,0,1,15,38,738,1239.2745125762303,1239.8952921233722,"[54, 0, 200]",200,a,0.09766788076376542,colour,0.5
104,20,0,1,15,39,739,1240.4150265609496,1241.0792524331482,"[3, 0, 251]",251,a,0.14085938752396032,colour,0.5
104,20,0,1,15,40,740,1241.5874790867674,1242.3192727713613,"[75, 0, 179]",179,a,0.20846146455733106,colour,0.5
104,20,0,1,15,41,741,1242.8375842436217,1243.5432482205797,"[88, 0, 166]",166,l,0.18267715978436172,colour,0.5
104,20,0,1,15,42,742,1244.0562908221036,1244.7432939854916,"[5, 0, 249]",249,l,0.1638178478460759,colour,0.5
104,20,0,1,15,43,743,1245.2593664436718,1246.5592497864855,"[45, 0, 209]",209,a,0.7763754674815573,colour,0.5
104,20,0,1,15,44,744,1247.0719966097386,1247.7832709218492,"[97, 0, 157]",157,l,0.18817249190760776,colour,0.5
104,20,0,1,15,45,745,1248.290645292902,1248.9032919217134,"[37, 0, 217]",217,a,0.08933291950961575,colour,0.5
104,20,0,1,15,46,746,1249.415740209748,1250.1994872913347,"[76, 0, 178]",178,a,0.26050308300182223,colour,0.5
104,20,0,1,15,47,747,1250.7124944467214,1251.4072744916775,"[96, 0, 158]",158,l,0.1699480595998466,colour,0.5
104,20,0,1,15,48,748,1251.9172502150177,1252.5992724089883,"[91, 0, 163]",163,l,0.1587143923388794,colour,0.5
104,20,0,1,15,49,749,1253.120312445797,1253.7992248324445,"[28, 0, 226]",226,a,0.15558528655674309,colour,0.5
104,20,0,1,15,50,750,1254.30799735646,1255.0072436141782,"[48, 0, 206]",206,a,0.17612001905217767,colour,0.5
104,20,0,1,16,1,751,1283.0256574863452,1284.3912662303774,"[10, 0, 244]",244,a,0.8413679214427248,colour,0.5
104,20,0,1,16,2,752,1284.9015337935416,1285.5032224472961,"[96, 0, 158]",158,l,0.0784430798375979,colour,0.5
104,20,0,1,16,3,753,1286.0108358828002,1287.00720344187,"[87, 0, 167]",167,l,0.47304360975977033,colour,0.5
104,20,0,1,16,4,754,1287.5284356754855,1288.255227516871,"[14, 0, 240]",240,a,0.20354114740621299,colour,0.5
104,20,0,1,16,5,755,1288.7627476109192,1289.4632864709129,"[33, 0, 221]",221,a,0.17717158765299246,colour,0.5
104,20,0,1,16,6,756,1289.982224552019,1290.6232485671644,"[75, 0, 179]",179,l,0.11771030584350228,colour,0.5
104,20,0,1,16,7,757,1291.1383580720867,1291.7432392408955,"[22, 0, 232]",232,a,0.08157061028759927,colour,0.5
104,20,0,1,16,8,758,1292.2634100597352,1292.9032466294593,"[64, 0, 190]",190,a,0.11655594344483688,colour,0.5
104,20,0,1,16,9,759,1293.419622742862,1294.3592233200325,"[51, 0, 203]",203,a,0.41631758789299056,colour,0.5
104,20,0,1,16,10,760,1294.8727389305132,1295.543239949795,"[50, 0, 204]",204,a,0.14735351293347776,colour,0.5
104,20,0,1,16,11,761,1296.0602347951499,1296.6712367234286,"[98, 0, 156]",156,l,0.0876070866943337,colour,0.5
104,20,0,1,16,12,762,1297.185245035158,1297.807251412305,"[70, 0, 184]",184,a,0.09867297555319965,colour,0.5
104,20,0,1,16,13,763,1298.325872053625,1298.9831847483874,"[44, 0, 210]",210,a,0.1339521178160794,colour,0.5
104,20,0,1,16,14,764,1299.4977290843963,1300.2152171035996,"[54, 0, 200]",200,a,0.19417706684907898,colour,0.5
104,20,0,1,16,15,765,1300.7321091551566,1301.3272520897444,"[80, 0, 174]",174,l,0.07177605608012527,colour,0.5
104,20,0,1,16,16,766,1301.8414860751363,1302.4712236477644,"[4, 0, 250]",250,a,0.1067862015333958,colour,0.5
104,20,0,1,16,17,767,1302.9764653430902,1303.5992086059996,"[20, 0, 234]",234,a,0.099420101265423,colour,0.5
104,20,0,1,16,18,768,1304.1171734938398,1304.7752585204435,"[15, 0, 239]",239,a,0.13477052963571623,colour,0.5
104,20,0,1,16,19,769,1305.2890959030483,1305.9432330181007,"[42, 0, 212]",212,a,0.13049533212324604,colour,0.5
104,20,0,1,16,20,770,1306.4609757768922,1307.1832517809235,"[3, 0, 251]",251,a,0.19886659021722153,colour,0.5
104,20,0,1,16,21,771,1307.6952609307482,1308.40726149478,"[59, 0, 195]",195,a,0.18852380249882117,colour,0.5
104,20,0,1,16,22,772,1308.914051004569,1309.5832157046534,"[37, 0, 217]",217,a,0.14576788927661255,colour,0.5
104,20,0,1,16,23,773,1310.1016358783818,1310.7432089147624,"[6, 0, 248]",248,a,0.11828059476101771,colour,0.5
104,20,0,1,16,24,774,1311.2577556138276,1311.9752231530729,"[95, 0, 159]",159,l,0.1940730914939195,colour,0.5
104,20,0,1,16,25,775,1312.4921636476647,1313.223227929615,"[77, 0, 177]",177,l,0.20777696033474058,colour,0.5
104,20,0,1,16,26,776,1313.7421541953809,1314.3912481134757,"[16, 0, 238]",238,a,0.1256825349992141,colour,0.5
104,20,0,1,16,27,777,1314.898442890728,1315.591216684552,"[43, 0, 211]",211,a,0.16948292759479955,colour,0.5
104,20,0,1,16,28,778,1316.1016201245366,1316.879254323605,"[36, 0, 218]",218,a,0.2544260404538363,colour,0.5
104,20,0,1,16,29,779,1317.398408626148,1318.143310290703,"[17, 0, 237]",237,a,0.22158283524913713,colour,0.5
104,20,0,1,16,30,780,1318.6647997056716,1319.4152668069582,"[2, 0, 252]",252,a,0.2270155458827503,colour,0.5
104,20,0,1,16,31,781,1319.9305003733607,1320.5992330244044,"[92, 0, 162]",162,l,0.1454776247846894,colour,0.5
104,20,0,1,16,32,782,1321.1179166811053,1321.815234669135,"[83, 0, 171]",171,l,0.17384713422507048,colour,0.5
104,20,0,1,16,33,783,1322.3367725271964,1323.0792528269812,"[26, 0, 228]",228,a,0.21941116882953793,colour,0.5
104,20,0,1,16,34,784,1323.5765423793928,1324.3272331851185,"[52, 0, 202]",202,a,0.22739836410619318,colour,0.5
104,20,0,1,16,35,785,1324.8421386778355,1325.4952407658566,"[40, 0, 214]",214,a,0.1292291174759157,colour,0.5
104,20,0,1,16,36,786,1326.014560089854,1326.7272108934121,"[53, 0, 201]",201,a,0.18935639271512628,colour,0.5
104,20,0,1,16,37,787,1327.2333036898635,1327.9432054489153,"[38, 0, 216]",216,a,0.18643326830351725,colour,0.5
104,20,0,1,16,38,788,1328.4520606806036,1329.135188400105,"[18, 0, 236]",236,a,0.1597328779171221,colour,0.5
104,20,0,1,16,39,789,1329.6551910467679,1330.319188094465,"[12, 0, 242]",242,a,0.1408322121715173,colour,0.5
104,20,0,1,16,40,790,1330.827092582127,1331.5352527545183,"[11, 0, 243]",243,a,0.19393918389687315,colour,0.5
104,20,0,1,16,41,791,1332.0523133721435,1332.8872356112115,"[63, 0, 191]",191,l,0.3114671390503645,colour,0.5
104,20,0,1,16,42,792,1333.395988049102,1334.0152761017089,"[86, 0, 168]",168,l,0.09512324223760515,colour,0.5
104,20,0,1,16,43,793,1334.5219699069858,1335.1432141922996,"[60, 0, 194]",194,a,0.09807511745020747,colour,0.5
104,20,0,1,16,44,794,1335.662533516239,1336.3191810052376,"[94, 0, 160]",160,l,0.13329439505469054,colour,0.5
104,20,0,1,16,45,795,1336.8345457223477,1337.5032354441937,"[93, 0, 161]",161,l,0.1435371459228918,colour,0.5
104,20,0,1,16,46,796,1338.0241738687619,1338.6472010945436,"[67, 0, 187]",187,a,0.0996264765271917,colour,0.5
104,20,0,1,16,47,797,1339.1667898091255,1339.8872659373446,"[21, 0, 233]",233,a,0.1971257912227884,colour,0.5
104,20,0,1,16,48,798,1340.401111196843,1341.0472201567027,"[27, 0, 227]",227,a,0.12276886287145317,colour,0.5
104,20,0,1,16,49,799,1341.5573490860988,1342.2792410904076,"[79, 0, 175]",175,l,0.198552695044782,colour,0.5
104,20,0,1,16,50,800,1342.7918059568037,1343.3832294105086,"[57, 0, 197]",197,a,0.06811565207317472,colour,0.5
