id,age,condition,counterbalance,block,trialinblock,trial,tstart,tend,trialstim,trialintensity,response,RT,trialtype,colourfreq
146,21,0,1,Practice,1,NA,5.120411515235901e-06,0.5941928196698427,"[22, 0, 232]",232,a,0.014790890738368034,colour,0.5
146,21,0,1,Practice,2,NA,1.113643104210496,1.666193788871169,"[75, 0, 179]",179,l,0.036753321066498756,colour,0.5
146,21,0,1,Practice,3,NA,2.1817004941403866,13.578178249299526,"[50, 0, 204]",204,l,10.8813964035362,colour,0.5
146,21,0,1,Practice,4,NA,14.096876682713628,15.202200181782246,"[33, 0, 221]",221,l,0.579142777249217,colour,0.5
146,21,0,1,Practice,5,NA,15.711347060278058,16.626188086345792,"[48, 0, 206]",206,l,0.3928984832018614,colour,0.5
146,21,0,1,Practice,6,NA,17.13302781432867,18.034181114286184,"[47, 0, 207]",207,l,0.37889331579208374,colour,0.5
146,21,0,1,Practice,7,NA,18.531134517863393,19.08219882659614,"[94, 0, 160]",160,l,0.02876533567905426,colour,0.5
146,21,0,1,Practice,8,NA,19.59370405599475,20.186213182285428,"[53, 0, 201]",201,a,0.0702152717858553,colour,0.5
146,21,0,1,Practice,9,NA,20.703201536089182,22.522183971479535,"[78, 0, 176]",176,l,1.2968228831887245,colour,0.5
146,21,0,1,Practice,10,NA,23.03148563206196,23.938191765919328,"[2, 0, 252]",252,a,0.39461486227810383,colour,0.5
146,21,0,1,1,1,1,4.175176039338112,4.751962436363101,"[84, 0, 170]",170,l,0.05951092950999737,colour,0.5
146,21,0,1,1,2,2,5.260411813855171,5.815984873101115,"[96, 0, 158]",158,l,0.037213727831840515,colour,0.5
146,21,0,1,1,3,3,6.32884887047112,6.943990755826235,"[72, 0, 182]",182,l,0.0898201409727335,colour,0.5
146,21,0,1,1,4,4,7.4650526605546474,9.287937715649605,"[40, 0, 214]",214,a,1.3057880010455847,colour,0.5
146,21,0,1,1,5,5,9.802339289337397,10.335996389389038,"[56, 0, 198]",198,a,0.017303626984357834,colour,0.5
146,21,0,1,1,6,6,10.852612558752298,11.640008933842182,"[89, 0, 165]",165,l,0.26959315314888954,colour,0.5
146,21,0,1,1,7,7,12.154569225385785,12.95995412580669,"[82, 0, 172]",172,l,0.28791014663875103,colour,0.5
146,21,0,1,1,8,8,13.471128130331635,14.023999011144042,"[27, 0, 227]",227,a,0.035424090921878815,colour,0.5
146,21,0,1,1,9,9,14.539114233106375,15.343995010480285,"[3, 0, 251]",251,a,0.2863367311656475,colour,0.5
146,21,0,1,1,10,10,15.847885617986321,16.471993016079068,"[64, 0, 190]",190,l,0.10731242224574089,colour,0.5
146,21,0,1,1,11,11,16.977414110675454,17.75199355185032,"[2, 0, 252]",252,a,0.25310872681438923,colour,0.5
146,21,0,1,1,12,12,18.258788380771875,18.799973849207163,"[95, 0, 159]",159,l,0.01895029842853546,colour,0.5
146,21,0,1,1,13,13,19.305703718215227,20.367949910461903,"[20, 0, 234]",234,a,0.5399657282978296,colour,0.5
146,21,0,1,1,14,14,20.887886594980955,21.752006547525525,"[19, 0, 235]",235,a,0.34179616533219814,colour,0.5
146,21,0,1,1,15,15,22.262850902974606,22.879950596019626,"[80, 0, 174]",174,l,0.09511382691562176,colour,0.5
146,21,0,1,1,16,16,23.38802818208933,24.151965903118253,"[26, 0, 228]",228,a,0.24146506004035473,colour,0.5
146,21,0,1,1,17,17,24.66941466368735,25.495986906811595,"[51, 0, 203]",203,a,0.3042807523161173,colour,0.5
146,21,0,1,1,18,18,26.012588502839208,26.775966960936785,"[93, 0, 161]",161,l,0.24713722988963127,colour,0.5
146,21,0,1,1,19,19,27.293884003534913,28.071970645338297,"[85, 0, 169]",169,l,0.2625133767724037,colour,0.5
146,21,0,1,1,20,20,28.59002986550331,29.15196944773197,"[22, 0, 232]",232,a,0.031805433332920074,colour,0.5
146,21,0,1,1,21,21,29.669279573485255,30.447994397953153,"[97, 0, 157]",157,l,0.2489154450595379,colour,0.5
146,21,0,1,1,22,22,30.96540771238506,31.751997884362936,"[77, 0, 177]",177,l,0.2701177578419447,colour,0.5
146,21,0,1,1,23,23,32.26517065614462,33.06397950835526,"[16, 0, 238]",238,a,0.2806783448904753,colour,0.5
146,21,0,1,1,24,24,33.58059843443334,34.36794479005039,"[48, 0, 206]",206,a,0.26959866657853127,colour,0.5
146,21,0,1,1,25,25,34.88162680529058,35.83195533230901,"[60, 0, 194]",194,a,0.43392897211015224,colour,0.5
146,21,0,1,1,26,26,36.34896259009838,37.15996649302542,"[17, 0, 237]",237,a,0.28465343452990055,colour,0.5
146,21,0,1,1,27,27,37.67281512916088,38.53595716319978,"[91, 0, 163]",163,l,0.3468137662857771,colour,0.5
146,21,0,1,1,28,28,39.04871994256973,39.83196399733424,"[44, 0, 210]",210,a,0.2671264950186014,colour,0.5
146,21,0,1,1,29,29,40.3462548982352,41.135997807607055,"[25, 0, 229]",229,a,0.2741940636187792,colour,0.5
146,21,0,1,1,30,30,41.64565550349653,42.40796861052513,"[1, 0, 253]",253,a,0.2452672515064478,colour,0.5
146,21,0,1,1,31,31,42.930335719138384,43.65596324391663,"[38, 0, 216]",216,a,0.20812008157372475,colour,0.5
146,21,0,1,1,32,32,44.16799189336598,44.89595925807953,"[94, 0, 160]",160,l,0.21053042076528072,colour,0.5
146,21,0,1,1,33,33,45.409501852467656,46.135971419513226,"[28, 0, 226]",226,a,0.2140703070908785,colour,0.5
146,21,0,1,1,34,34,46.65942357480526,47.39995699189603,"[75, 0, 179]",179,l,0.21473000012338161,colour,0.5
146,21,0,1,1,35,35,47.91994960419834,48.647982347756624,"[14, 0, 240]",240,a,0.21326843835413456,colour,0.5
146,21,0,1,1,36,36,49.16951883584261,49.879984468221664,"[15, 0, 239]",239,a,0.1819639764726162,colour,0.5
146,21,0,1,1,37,37,50.38878042809665,51.2239979878068,"[55, 0, 199]",199,l,0.31918034330010414,colour,0.5
146,21,0,1,1,38,38,51.734488274902105,52.583995750173926,"[42, 0, 212]",212,l,0.33216662891209126,colour,0.5
146,21,0,1,1,39,39,53.096542701125145,53.96797874011099,"[47, 0, 207]",207,a,0.3535442017018795,colour,0.5
146,21,0,1,1,40,40,54.475358037278056,55.247962733730674,"[10, 0, 244]",244,a,0.2556561231613159,colour,0.5
146,21,0,1,1,41,41,55.76494399830699,56.52794239483774,"[81, 0, 173]",173,l,0.23870262317359447,colour,0.5
146,21,0,1,1,42,42,57.04822448268533,57.82394253462553,"[69, 0, 185]",185,l,0.26098643615841866,colour,0.5
146,21,0,1,1,43,43,58.345681853592396,59.05598010122776,"[71, 0, 183]",183,l,0.19409325532615185,colour,0.5
146,21,0,1,1,44,44,59.56747863441706,60.14399524591863,"[45, 0, 209]",209,a,0.06005365028977394,colour,0.5
146,21,0,1,1,45,45,60.66570542007685,61.423957185819745,"[12, 0, 242]",242,a,0.2402756456285715,colour,0.5
146,21,0,1,1,46,46,61.935473047196865,62.67198490165174,"[50, 0, 204]",204,a,0.2186046577990055,colour,0.5
146,21,0,1,1,47,47,63.18927966803312,63.90399096161127,"[32, 0, 222]",222,a,0.18364018574357033,colour,0.5
146,21,0,1,1,48,48,64.41198111325502,65.15194739215076,"[68, 0, 186]",186,l,0.22246119938790798,colour,0.5
146,21,0,1,1,49,49,65.67025985568762,66.29597887210548,"[54, 0, 200]",200,a,0.10528923571109772,colour,0.5
146,21,0,1,1,50,50,66.8177611194551,67.71197957731783,"[13, 0, 241]",241,a,0.3774333279579878,colour,0.5
146,21,0,1,2,1,51,72.37907645478845,72.99996731244028,"[63, 0, 191]",191,l,0.09782545827329159,colour,0.5
146,21,0,1,2,2,52,73.50495123676956,74.2319796718657,"[90, 0, 164]",164,l,0.20478932559490204,colour,0.5
146,21,0,1,2,3,53,74.73937117867172,75.27193693257868,"[69, 0, 185]",185,l,0.010196676477789879,colour,0.5
146,21,0,1,2,4,54,75.78632668964565,76.51997882686555,"[91, 0, 163]",163,l,0.20854504220187664,colour,0.5
146,21,0,1,2,5,55,77.0367233902216,77.79197641089559,"[66, 0, 188]",188,a,0.23886922001838684,colour,0.5
146,21,0,1,2,6,56,78.30491957068443,79.05598915927112,"[42, 0, 212]",212,a,0.2358972579240799,colour,0.5
146,21,0,1,2,7,57,79.56996774114668,80.2959418501705,"[3, 0, 251]",251,a,0.21114521473646164,colour,0.5
146,21,0,1,2,8,58,80.80592919513583,81.54394790530205,"[77, 0, 177]",177,l,0.22071882337331772,colour,0.5
146,21,0,1,2,9,59,82.05984373018146,82.77598389796913,"[27, 0, 227]",227,a,0.19848385080695152,colour,0.5
146,21,0,1,2,10,60,83.2976286932826,84.06401140987873,"[55, 0, 199]",199,a,0.24937624670565128,colour,0.5
146,21,0,1,2,11,61,84.58309344947338,85.32801628112793,"[28, 0, 226]",226,a,0.2278683129698038,colour,0.5
146,21,0,1,2,12,62,85.83744278922677,86.55195519141853,"[51, 0, 203]",203,a,0.1982298195362091,colour,0.5
146,21,0,1,2,13,63,87.06017613597214,87.79997345618904,"[14, 0, 240]",240,a,0.2129624206572771,colour,0.5
146,21,0,1,2,14,64,88.32040205411613,88.97593206726015,"[6, 0, 248]",248,a,0.13909895159304142,colour,0.5
146,21,0,1,2,15,65,89.49321147240698,90.21599346026778,"[95, 0, 159]",159,l,0.2070484273135662,colour,0.5
146,21,0,1,2,16,66,90.72982080467045,91.33596842736006,"[17, 0, 237]",237,a,0.08966811746358871,colour,0.5
146,21,0,1,2,17,67,91.8434501234442,92.55994475260377,"[5, 0, 249]",249,a,0.20071774534881115,colour,0.5
146,21,0,1,2,18,68,93.07915479131043,93.76794234849513,"[53, 0, 201]",201,a,0.1720583550632,colour,0.5
146,21,0,1,2,19,69,94.28582985140383,95.17593891918659,"[52, 0, 202]",202,a,0.37226803600788116,colour,0.5
146,21,0,1,2,20,70,95.6923971567303,96.39995266124606,"[25, 0, 229]",229,a,0.18698551505804062,colour,0.5
146,21,0,1,2,21,71,96.91921390034258,97.60794277302921,"[30, 0, 224]",224,a,0.1684239413589239,colour,0.5
146,21,0,1,2,22,72,98.12855726853013,99.02393008768559,"[11, 0, 243]",243,a,0.37959554232656956,colour,0.5
146,21,0,1,2,23,73,99.53445857949555,100.27998241968453,"[57, 0, 197]",197,l,0.22914476692676544,colour,0.5
146,21,0,1,2,24,74,100.8020899835974,101.48831281624734,"[92, 0, 162]",162,l,0.16877998039126396,colour,0.5
146,21,0,1,2,25,75,102.01055034995079,102.55998886190355,"[31, 0, 223]",223,a,0.03157700225710869,colour,0.5
146,21,0,1,2,26,76,103.07747543230653,103.91994212195277,"[97, 0, 157]",157,l,0.3271592725068331,colour,0.5
146,21,0,1,2,27,77,104.43848104588687,105.19198539108038,"[20, 0, 234]",234,a,0.2368806917220354,colour,0.5
146,21,0,1,2,28,78,105.70651575177908,106.51996543630958,"[83, 0, 171]",171,l,0.2986574172973633,colour,0.5
146,21,0,1,2,29,79,107.0390462949872,107.85594174079597,"[26, 0, 228]",228,a,0.29262409172952175,colour,0.5
146,21,0,1,2,30,80,108.36947054974735,109.1039206199348,"[64, 0, 190]",190,l,0.21224995143711567,colour,0.5
146,21,0,1,2,31,81,109.61962149105966,110.3839310016483,"[49, 0, 205]",205,a,0.24212160147726536,colour,0.5
146,21,0,1,2,32,82,110.90095834620297,111.68795417994261,"[15, 0, 239]",239,a,0.2696116641163826,colour,0.5
146,21,0,1,2,33,83,112.19330950081348,112.94393128529191,"[12, 0, 242]",242,a,0.22830902598798275,colour,0.5
146,21,0,1,2,34,84,113.45916623622179,114.20797199755907,"[74, 0, 180]",180,l,0.22663675621151924,colour,0.5
146,21,0,1,2,35,85,114.72473782673478,115.39995187334716,"[70, 0, 184]",184,l,0.15311947837471962,colour,0.5
146,21,0,1,2,36,86,115.91239209100604,116.59994848631322,"[16, 0, 238]",238,a,0.17515792325139046,colour,0.5
146,21,0,1,2,37,87,117.11476635374129,117.79994312860072,"[7, 0, 247]",247,a,0.16885008290410042,colour,0.5
146,21,0,1,2,38,88,118.31214310228825,118.93597008101642,"[62, 0, 192]",192,l,0.1015248540788889,colour,0.5
146,21,0,1,2,39,89,119.45282964780927,120.08792692422867,"[19, 0, 235]",235,a,0.11278806254267693,colour,0.5
146,21,0,1,2,40,90,120.5935421846807,121.2959402743727,"[43, 0, 211]",211,a,0.18012707866728306,colour,0.5
146,21,0,1,2,41,91,121.81553903967142,122.51998079754412,"[29, 0, 225]",225,a,0.18220619298517704,colour,0.5
146,21,0,1,2,42,92,123.03439339622855,123.63996482267976,"[32, 0, 222]",222,a,0.0831956509500742,colour,0.5
146,21,0,1,2,43,93,124.15944700874388,124.75194353237748,"[85, 0, 169]",169,l,0.07020227424800396,colour,0.5
146,21,0,1,2,44,94,125.26895551756024,125.8479588739574,"[1, 0, 253]",253,a,0.05681662820279598,colour,0.5
146,21,0,1,2,45,95,126.362768471241,127.07192889787257,"[2, 0, 252]",252,a,0.18669288605451584,colour,0.5
146,21,0,1,2,46,96,127.584309251979,128.31995543278754,"[87, 0, 167]",167,l,0.22053174674510956,colour,0.5
146,21,0,1,2,47,97,128.83540896885097,129.53597212955356,"[79, 0, 175]",175,l,0.1847205050289631,colour,0.5
146,21,0,1,2,48,98,130.05632117204368,130.67194354906678,"[80, 0, 174]",174,l,0.0985871572047472,colour,0.5
146,21,0,1,2,49,99,131.18496665917337,131.73595101945102,"[65, 0, 189]",189,l,0.03546426445245743,colour,0.5
146,21,0,1,2,50,100,132.2501174658537,132.86398762091994,"[89, 0, 165]",165,l,0.09656593762338161,colour,0.5
146,21,0,1,3,1,101,136.9647456575185,137.83197738789022,"[51, 0, 203]",203,a,0.3480480797588825,colour,0.5
146,21,0,1,3,2,102,138.34856559336185,138.9519566874951,"[32, 0, 222]",222,a,0.08123035915195942,colour,0.5
146,21,0,1,3,3,103,139.45789096318185,140.01595470495522,"[47, 0, 207]",207,a,0.03596838563680649,colour,0.5
146,21,0,1,3,4,104,140.53614542074502,141.14392947405577,"[65, 0, 189]",189,l,0.08554139919579029,colour,0.5
146,21,0,1,3,5,105,141.6493214238435,143.18395132385194,"[26, 0, 228]",228,a,1.0124482922255993,colour,0.5
146,21,0,1,3,6,106,143.69629465788603,144.40795049257576,"[86, 0, 168]",168,l,0.18930920585989952,colour,0.5
146,21,0,1,3,7,107,144.91522345133126,145.511929795146,"[33, 0, 221]",221,a,0.07455506175756454,colour,0.5
146,21,0,1,3,8,108,146.02535147964954,146.75196283124387,"[9, 0, 245]",245,a,0.20519301854074,colour,0.5
146,21,0,1,3,9,109,147.27132450044155,148.03996986337006,"[57, 0, 197]",197,a,0.24258633889257908,colour,0.5
146,21,0,1,3,10,110,148.54818017594516,149.42394615709782,"[19, 0, 235]",235,a,0.3587181568145752,colour,0.5
146,21,0,1,3,11,111,149.94038667157292,150.67996619269252,"[92, 0, 162]",162,l,0.22326543182134628,colour,0.5
146,21,0,1,3,12,112,151.19249423965812,151.93594566173851,"[72, 0, 182]",182,l,0.2273263782262802,colour,0.5
146,21,0,1,3,13,113,152.4456545598805,153.16792887821794,"[23, 0, 231]",231,a,0.20453844591975212,colour,0.5
146,21,0,1,3,14,114,153.68311223573983,154.44796879775822,"[45, 0, 209]",209,a,0.24872994422912598,colour,0.5
146,21,0,1,3,15,115,154.96789051778615,155.7279764227569,"[59, 0, 195]",195,a,0.24296718835830688,colour,0.5
146,21,0,1,3,16,116,156.24617152102292,156.9279631897807,"[82, 0, 172]",172,l,0.16134810261428356,colour,0.5
146,21,0,1,3,17,117,157.44131634384394,158.13595881685615,"[55, 0, 199]",199,a,0.17251994088292122,colour,0.5
146,21,0,1,3,18,118,158.6523812133819,159.39994084462523,"[17, 0, 237]",237,a,0.23114708065986633,colour,0.5
146,21,0,1,3,19,119,159.92015755549073,160.58395282179117,"[16, 0, 238]",238,a,0.1476418673992157,colour,0.5
146,21,0,1,3,20,120,161.09413669630885,161.67997131310403,"[58, 0, 196]",196,l,0.06973005458712578,colour,0.5
146,21,0,1,3,21,121,162.19237963110209,162.92795531265438,"[21, 0, 233]",233,a,0.2179288174957037,colour,0.5
146,21,0,1,3,22,122,163.44633039832115,164.11209450103343,"[73, 0, 181]",181,l,0.14991199411451817,colour,0.5
146,21,0,1,3,23,123,164.62107281386852,165.415925482288,"[81, 0, 173]",173,l,0.27804272808134556,colour,0.5
146,21,0,1,3,24,124,165.9363194219768,166.70395890250802,"[76, 0, 178]",178,l,0.24123229831457138,colour,0.5
146,21,0,1,3,25,125,167.21939235180616,167.94393719360232,"[79, 0, 175]",175,l,0.2069413010030985,colour,0.5
146,21,0,1,3,26,126,168.46073531918228,169.19990996830165,"[77, 0, 177]",177,l,0.21686701104044914,colour,0.5
146,21,0,1,3,27,127,169.71088271588087,170.38392627611756,"[41, 0, 213]",213,a,0.1507851518690586,colour,0.5
146,21,0,1,3,28,128,170.8985558860004,171.58394218795002,"[27, 0, 227]",227,a,0.16316924802958965,colour,0.5
146,21,0,1,3,29,129,172.0899040326476,173.0239190608263,"[13, 0, 241]",241,a,0.4117983691394329,colour,0.5
146,21,0,1,3,30,130,173.54316769726574,174.2879585903138,"[36, 0, 218]",218,a,0.22258801758289337,colour,0.5
146,21,0,1,3,31,131,174.79319497011602,175.51199517399073,"[71, 0, 183]",183,l,0.197140047326684,colour,0.5
146,21,0,1,3,32,132,176.02781380526721,176.76795613206923,"[90, 0, 164]",164,l,0.21792487986385822,colour,0.5
146,21,0,1,3,33,133,177.27846256829798,177.9359444808215,"[67, 0, 187]",187,l,0.14007962681353092,colour,0.5
146,21,0,1,3,34,134,178.45626122690737,179.07194268144667,"[84, 0, 170]",170,l,0.09352071955800056,colour,0.5
146,21,0,1,3,35,135,179.58129554241896,180.255936935544,"[1, 0, 253]",253,a,0.1524298544973135,colour,0.5
146,21,0,1,3,36,136,180.76906559616327,181.46393059194088,"[43, 0, 211]",211,a,0.17280902341008186,colour,0.5
146,21,0,1,3,37,137,181.96061696857214,182.6719065271318,"[48, 0, 206]",206,a,0.18981450982391834,colour,0.5
146,21,0,1,3,38,138,183.17860053107142,183.90392676368356,"[20, 0, 234]",234,a,0.2029851172119379,colour,0.5
146,21,0,1,3,39,139,184.41301180794835,185.03992220759392,"[6, 0, 248]",248,a,0.10533295013010502,colour,0.5
146,21,0,1,3,40,140,185.55381808243692,186.2719014864415,"[96, 0, 158]",158,l,0.19582460261881351,colour,0.5
146,21,0,1,3,41,141,186.78834436275065,187.51196445338428,"[28, 0, 226]",226,a,0.20058895647525787,colour,0.5
146,21,0,1,3,42,142,188.02869444340467,188.67191479727626,"[94, 0, 160]",160,l,0.1275242082774639,colour,0.5
146,21,0,1,3,43,143,189.1868835091591,189.79993879795074,"[88, 0, 166]",166,l,0.09805231355130672,colour,0.5
146,21,0,1,3,44,144,190.3123947698623,190.92794389277697,"[37, 0, 217]",217,a,0.08621133118867874,colour,0.5
146,21,0,1,3,45,145,191.43718056753278,192.1039391309023,"[52, 0, 202]",202,a,0.15028693713247776,colour,0.5
146,21,0,1,3,46,146,192.6125759780407,193.263982815668,"[14, 0, 240]",240,a,0.13315344974398613,colour,0.5
146,21,0,1,3,47,147,193.7741064336151,194.3839294258505,"[30, 0, 224]",224,a,0.09417568519711494,colour,0.5
146,21,0,1,3,48,148,194.90314379893243,195.58392919041216,"[11, 0, 243]",243,a,0.16469776444137096,colour,0.5
146,21,0,1,3,49,149,196.09335136786103,196.74393191561103,"[68, 0, 186]",186,l,0.12873922288417816,colour,0.5
146,21,0,1,3,50,150,197.2410302553326,197.91993897035718,"[89, 0, 165]",165,l,0.16276122257113457,colour,0.5
146,21,0,1,4,1,151,202.2642541769892,202.99995825253427,"[71, 0, 183]",183,l,0.21275722607970238,colour,0.5
146,21,0,1,4,2,152,203.5151884779334,204.15995310246944,"[13, 0, 241]",241,a,0.12257789634168148,colour,0.5
146,21,0,1,4,3,153,204.6714260354638,205.33594243228436,"[98, 0, 156]",156,l,0.14223278313875198,colour,0.5
146,21,0,1,4,4,154,205.8433662354946,206.40795403718948,"[5, 0, 249]",249,a,0.04219272918999195,colour,0.5
146,21,0,1,4,5,155,206.92160178907216,207.81589704565704,"[84, 0, 170]",170,l,0.3709167502820492,colour,0.5
146,21,0,1,4,6,156,208.32991737499833,209.01596140116453,"[46, 0, 208]",208,a,0.15577872656285763,colour,0.5
146,21,0,1,4,7,157,209.53442313335836,210.22391803748906,"[55, 0, 199]",199,a,0.17468097619712353,colour,0.5
146,21,0,1,4,8,158,210.73792497627437,211.43195147253573,"[87, 0, 167]",167,l,0.17817005701363087,colour,0.5
146,21,0,1,4,9,159,211.94186477549374,212.631918547675,"[74, 0, 180]",180,l,0.17321232333779335,colour,0.5
146,21,0,1,4,10,160,213.1473921686411,213.71990691125393,"[58, 0, 196]",196,a,0.05461187846958637,colour,0.5
146,21,0,1,4,11,161,214.23155983164907,214.86392736248672,"[19, 0, 235]",235,a,0.11572379246354103,colour,0.5
146,21,0,1,4,12,162,215.37666651047766,215.9919643588364,"[59, 0, 195]",195,a,0.09868955612182617,colour,0.5
146,21,0,1,4,13,163,216.50615089200437,217.2719365376979,"[67, 0, 187]",187,l,0.24392659775912762,colour,0.5
146,21,0,1,4,14,164,217.78997212834656,218.38393533416092,"[80, 0, 174]",174,l,0.06514962390065193,colour,0.5
146,21,0,1,4,15,165,218.89792651869357,219.5759148169309,"[52, 0, 202]",202,a,0.16312277503311634,colour,0.5
146,21,0,1,4,16,166,220.08695412427187,220.81592343375087,"[82, 0, 172]",172,l,0.21245869062840939,colour,0.5
146,21,0,1,4,17,167,221.32360323518515,222.07188636250794,"[73, 0, 181]",181,l,0.23179220035672188,colour,0.5
146,21,0,1,4,18,168,222.59269226528704,223.25593969225883,"[22, 0, 232]",232,a,0.14672026596963406,colour,0.5
146,21,0,1,4,19,169,223.768535874784,224.48794181272388,"[45, 0, 209]",209,a,0.20267240330576897,colour,0.5
146,21,0,1,4,20,170,225.00701636821032,225.75196204334497,"[66, 0, 188]",188,l,0.22842205874621868,colour,0.5
146,21,0,1,4,21,171,226.2735556382686,226.9999287147075,"[75, 0, 179]",179,l,0.19397667609155178,colour,0.5
146,21,0,1,4,22,172,227.5117064844817,228.18946950137615,"[49, 0, 205]",205,a,0.16193690337240696,colour,0.5
146,21,0,1,4,23,173,228.70274821855128,229.27995800040662,"[0, 0, 254]",254,a,0.05574418604373932,colour,0.5
146,21,0,1,4,24,174,229.79655959829688,230.5039331447333,"[4, 0, 250]",250,a,0.18501037545502186,colour,0.5
146,21,0,1,4,25,175,231.0154155306518,231.5999043751508,"[65, 0, 189]",189,l,0.06211937218904495,colour,0.5
146,21,0,1,4,26,176,232.10930095240474,232.74393309652805,"[76, 0, 178]",178,l,0.12471332773566246,colour,0.5
146,21,0,1,4,27,177,233.2532804440707,233.91202660277486,"[6, 0, 248]",248,a,0.13654407113790512,colour,0.5
146,21,0,1,4,28,178,234.4251808654517,235.02392418123782,"[63, 0, 191]",191,l,0.07665780745446682,colour,0.5
146,21,0,1,4,29,179,235.53471930511296,236.10393558628857,"[47, 0, 207]",207,a,0.04695235937833786,colour,0.5
146,21,0,1,4,30,180,236.61288947984576,237.14392238482833,"[9, 0, 245]",245,a,0.008752835914492607,colour,0.5
146,21,0,1,4,31,181,237.6493552941829,238.28025574795902,"[41, 0, 213]",213,a,0.11476989649236202,colour,0.5
146,21,0,1,4,32,182,238.79403110593557,239.38394557498395,"[94, 0, 160]",160,l,0.06762376613914967,colour,0.5
146,21,0,1,4,33,183,239.90351558849216,240.45596190541983,"[31, 0, 223]",223,l,0.030224142596125603,colour,0.5
146,21,0,1,4,34,184,240.96609261073172,241.71990888006985,"[12, 0, 242]",242,a,0.23228135704994202,colour,0.5
146,21,0,1,4,35,185,242.23173706233501,242.77592403255403,"[15, 0, 239]",239,a,0.03397040627896786,colour,0.5
146,21,0,1,4,36,186,243.28224191442132,243.95992891862988,"[37, 0, 217]",217,a,0.15533879958093166,colour,0.5
146,21,0,1,4,37,187,244.46981977298856,245.40794340334833,"[35, 0, 219]",219,a,0.4158880654722452,colour,0.5
146,21,0,1,4,38,188,245.92318386770785,246.63992504402995,"[25, 0, 229]",229,a,0.19456586986780167,colour,0.5
146,21,0,1,4,39,189,247.15756363794208,248.0958967935294,"[23, 0, 231]",231,a,0.42576139234006405,colour,0.5
146,21,0,1,4,40,190,248.61847579292953,249.3999404516071,"[2, 0, 252]",252,a,0.264835886657238,colour,0.5
146,21,0,1,4,41,191,249.91871450282633,250.67198214493692,"[40, 0, 214]",214,a,0.23775463551282883,colour,0.5
146,21,0,1,4,42,192,251.18421402014792,251.8559066876769,"[60, 0, 194]",194,l,0.15711544081568718,colour,0.5
146,21,0,1,4,43,193,252.37199155800045,252.9199830815196,"[1, 0, 253]",253,a,0.03242652863264084,colour,0.5
146,21,0,1,4,44,194,253.4370529614389,254.15194345451891,"[56, 0, 198]",198,l,0.19775523617863655,colour,0.5
146,21,0,1,4,45,195,254.66098517552018,255.33592943660915,"[77, 0, 177]",177,l,0.15963920578360558,colour,0.5
146,21,0,1,4,46,196,255.84993283078074,256.53593510761857,"[95, 0, 159]",159,l,0.17019861191511154,colour,0.5
146,21,0,1,4,47,197,257.0540782175958,257.66391460224986,"[36, 0, 218]",218,a,0.09720987640321255,colour,0.5
146,21,0,1,4,48,198,258.1716070063412,258.783927379176,"[93, 0, 161]",161,l,0.09003321267664433,colour,0.5
146,21,0,1,4,49,199,259.30545244552195,259.84793484956026,"[96, 0, 158]",158,l,0.02690638229250908,colour,0.5
146,21,0,1,4,50,200,260.36948866583407,261.0239387527108,"[43, 0, 211]",211,a,0.13832228630781174,colour,0.5
146,21,0,1,5,1,201,267.1884537730366,268.28790069557726,"[28, 0, 226]",226,a,0.5616410467773676,colour,0.5
146,21,0,1,5,2,202,268.8106762226671,269.47191109508276,"[95, 0, 159]",159,l,0.13872873596847057,colour,0.5
146,21,0,1,5,3,203,269.9828936904669,270.5599435698241,"[20, 0, 234]",234,a,0.055537810549139977,colour,0.5
146,21,0,1,5,4,204,271.0766487494111,271.69593704491854,"[35, 0, 219]",219,a,0.09704485349357128,colour,0.5
146,21,0,1,5,5,205,272.2017283551395,272.81589113920927,"[83, 0, 171]",171,l,0.09190358780324459,colour,0.5
146,21,0,1,5,6,206,273.33553795330226,274.03991630114615,"[73, 0, 181]",181,l,0.18215696141123772,colour,0.5
146,21,0,1,5,7,207,274.554434845224,275.17589874751866,"[92, 0, 162]",162,l,0.09929135255515575,colour,0.5
146,21,0,1,5,8,208,275.6951859816909,276.5918864570558,"[29, 0, 225]",225,a,0.3744991756975651,colour,0.5
146,21,0,1,5,9,209,277.10149886086583,277.7279019858688,"[19, 0, 235]",235,a,0.10422860644757748,colour,0.5
146,21,0,1,5,10,210,278.2421015165746,278.87192598357797,"[24, 0, 230]",230,a,0.11376637779176235,colour,0.5
146,21,0,1,5,11,211,279.3929784335196,280.0880750119686,"[57, 0, 197]",197,l,0.18038780614733696,colour,0.5
146,21,0,1,5,12,212,280.597432596609,281.2479115333408,"[32, 0, 222]",222,a,0.13434050232172012,colour,0.5
146,21,0,1,5,13,213,281.7559442203492,282.455897314474,"[47, 0, 207]",207,a,0.18382883816957474,colour,0.5
146,21,0,1,5,14,214,282.97754368558526,283.5999406091869,"[36, 0, 218]",218,a,0.10553341917693615,colour,0.5
146,21,0,1,5,15,215,284.1229930110276,284.8319502118975,"[56, 0, 198]",198,l,0.17860565148293972,colour,0.5
146,21,0,1,5,16,216,285.3436535447836,286.1039820611477,"[54, 0, 200]",200,a,0.24284982308745384,colour,0.5
146,21,0,1,5,17,217,286.6144152395427,287.2479280754924,"[16, 0, 238]",238,a,0.11861029081046581,colour,0.5
146,21,0,1,5,18,218,287.7539679016918,288.4639246854931,"[41, 0, 213]",213,a,0.1886148564517498,colour,0.5
146,21,0,1,5,19,219,288.9731467869133,289.5599479023367,"[6, 0, 248]",248,a,0.07071978785097599,colour,0.5
146,21,0,1,5,20,220,290.07113647833467,290.7119673676789,"[81, 0, 173]",173,l,0.11108467914164066,colour,0.5
146,21,0,1,5,21,221,291.2279970999807,292.039921419695,"[67, 0, 187]",187,l,0.2967409621924162,colour,0.5
146,21,0,1,5,22,222,292.55573611333966,293.2239385172725,"[38, 0, 216]",216,a,0.15105729922652245,colour,0.5
146,21,0,1,5,23,223,293.73295503109694,294.41589436866343,"[52, 0, 202]",202,a,0.16467846743762493,colour,0.5
146,21,0,1,5,24,224,294.92544651404023,295.8719248007983,"[97, 0, 157]",157,l,0.42951710894703865,colour,0.5
146,21,0,1,5,25,225,296.3945171907544,297.53593589551747,"[61, 0, 193]",193,a,0.6239124443382025,colour,0.5
146,21,0,1,5,26,226,298.0500562619418,298.7279193159193,"[74, 0, 180]",180,l,0.1615938637405634,colour,0.5
146,21,0,1,5,27,227,299.25136320106685,299.983962982893,"[80, 0, 174]",174,l,0.21034137532114983,colour,0.5
146,21,0,1,5,28,228,300.5014909058809,301.15193124487996,"[58, 0, 196]",196,a,0.1282161958515644,colour,0.5
146,21,0,1,5,29,229,301.65782456099987,302.34381738491356,"[27, 0, 227]",227,a,0.16400695778429508,colour,0.5
146,21,0,1,5,30,230,302.861047167331,303.59192820452154,"[69, 0, 185]",185,l,0.21579023450613022,colour,0.5
146,21,0,1,5,31,231,304.1039040796459,304.943905685097,"[94, 0, 160]",160,l,0.31778967194259167,colour,0.5
146,21,0,1,5,32,232,305.463321313262,306.17588063143194,"[63, 0, 191]",191,a,0.1901673972606659,colour,0.5
146,21,0,1,5,33,233,306.68230957724154,307.29593042843044,"[15, 0, 239]",239,a,0.09150304645299911,colour,0.5
146,21,0,1,5,34,234,307.8073651585728,308.5279203392565,"[77, 0, 177]",177,l,0.20940795727074146,colour,0.5
146,21,0,1,5,35,235,309.0391817782074,309.66391026973724,"[10, 0, 244]",244,a,0.10333575867116451,colour,0.5
146,21,0,1,5,36,236,310.17316900007427,310.8159068915993,"[98, 0, 156]",156,l,0.11392785422503948,colour,0.5
146,21,0,1,5,37,237,311.32841918617487,311.88790707476437,"[8, 0, 246]",246,a,0.043918563053011894,colour,0.5
146,21,0,1,5,38,238,312.4090115148574,313.1279275082052,"[49, 0, 205]",205,a,0.20387008972465992,colour,0.5
146,21,0,1,5,39,239,313.64356890693307,314.26392058841884,"[34, 0, 220]",220,a,0.10402262583374977,colour,0.5
146,21,0,1,5,40,240,314.7719698175788,315.5679138340056,"[87, 0, 167]",167,l,0.27893636375665665,colour,0.5
146,21,0,1,5,41,241,316.0871081184596,316.76790138706565,"[14, 0, 240]",240,a,0.1637458372861147,colour,0.5
146,21,0,1,5,42,242,317.2776110731065,317.8559389822185,"[33, 0, 221]",221,a,0.05368476361036301,colour,0.5
146,21,0,1,5,43,243,318.37261068448424,319.03189601935446,"[90, 0, 164]",164,l,0.1430630125105381,colour,0.5
146,21,0,1,5,44,244,319.54769338294864,320.24792295508087,"[78, 0, 176]",176,l,0.17876200750470161,colour,0.5
146,21,0,1,5,45,245,320.7665930315852,321.5439152158797,"[45, 0, 209]",209,a,0.2551220655441284,colour,0.5
146,21,0,1,5,46,246,322.06347341649234,323.0561455152929,"[82, 0, 172]",172,l,0.47030223347246647,colour,0.5
146,21,0,1,5,47,247,323.5671127513051,324.3358967471868,"[66, 0, 188]",188,l,0.24652755819261074,colour,0.5
146,21,0,1,5,48,248,324.8485008068383,325.5119577590376,"[44, 0, 210]",210,a,0.14124108105897903,colour,0.5
146,21,0,1,5,49,249,326.02048472315073,326.7119181379676,"[5, 0, 249]",249,a,0.16918485425412655,colour,0.5
146,21,0,1,5,50,250,327.2236978765577,327.8718976266682,"[30, 0, 224]",224,a,0.12605240754783154,colour,0.5
146,21,0,1,6,1,251,332.1525247711688,332.83189231716096,"[97, 0, 157]",157,l,0.16285298950970173,colour,0.5
146,21,0,1,6,2,252,333.3419962413609,333.9839050862938,"[23, 0, 231]",231,a,0.12432893551886082,colour,0.5
146,21,0,1,6,3,253,334.5027693286538,335.27192432805896,"[65, 0, 189]",189,l,0.2536096964031458,colour,0.5
146,21,0,1,6,4,254,335.7857890892774,336.47189258411527,"[31, 0, 223]",223,a,0.16851610131561756,colour,0.5
146,21,0,1,6,5,255,336.99319276586175,337.6639402024448,"[68, 0, 186]",186,l,0.14850517734885216,colour,0.5
146,21,0,1,6,6,256,338.18427939899266,339.01590311154723,"[70, 0, 184]",184,l,0.31947060860693455,colour,0.5
146,21,0,1,6,7,257,339.5303952693939,340.1758869327605,"[92, 0, 162]",162,l,0.1291984487324953,colour,0.5
146,21,0,1,6,8,258,340.6880668196827,341.2399172466248,"[41, 0, 213]",213,a,0.03606054745614529,colour,0.5
146,21,0,1,6,9,259,341.754268405959,342.4319266602397,"[79, 0, 175]",175,l,0.1630644854158163,colour,0.5
146,21,0,1,6,10,260,342.9421920608729,343.5679307691753,"[89, 0, 165]",165,l,0.10934624262154102,colour,0.5
146,21,0,1,6,11,261,344.0859927460551,344.71991242468357,"[54, 0, 200]",200,a,0.11677417904138565,colour,0.5
146,21,0,1,6,12,262,345.2302818018943,346.1758822053671,"[43, 0, 211]",211,a,0.42863725684583187,colour,0.5
146,21,0,1,6,13,263,346.6853622775525,347.3518876861781,"[30, 0, 224]",224,a,0.1485382616519928,colour,0.5
146,21,0,1,6,14,264,347.8626414556056,348.5439006444067,"[71, 0, 183]",183,l,0.16366194933652878,colour,0.5
146,21,0,1,6,15,265,349.05727624706924,349.60791244730353,"[57, 0, 197]",197,a,0.02026810683310032,colour,0.5
146,21,0,1,6,16,266,350.1216448750347,350.63991047255695,"[18, 0, 236]",236,a,0.0019416622817516327,colour,0.5
146,21,0,1,6,17,267,351.15685983374715,351.88786965981126,"[1, 0, 253]",253,a,0.2153140753507614,colour,0.5
146,21,0,1,6,18,268,352.4089453481138,353.0319342222065,"[9, 0, 245]",245,a,0.10746326483786106,colour,0.5
146,21,0,1,6,19,269,353.5495255533606,354.1519111581147,"[22, 0, 232]",232,a,0.0855098906904459,colour,0.5
146,21,0,1,6,20,270,354.66196624562144,355.3439402654767,"[25, 0, 229]",229,a,0.16511760465800762,colour,0.5
146,21,0,1,6,21,271,355.86686978675425,356.4719410277903,"[91, 0, 163]",163,l,0.0869966596364975,colour,0.5
146,21,0,1,6,22,272,356.9824683368206,357.5598978847265,"[15, 0, 239]",239,a,0.06184013560414314,colour,0.5
146,21,0,1,6,23,273,358.0740796905011,358.65593016147614,"[14, 0, 240]",240,a,0.07203641720116138,colour,0.5
146,21,0,1,6,24,274,359.16576075553894,359.79189330898225,"[21, 0, 233]",233,a,0.10531719774007797,colour,0.5
146,21,0,1,6,25,275,360.3113463521004,360.8958930913359,"[87, 0, 167]",167,l,0.06902703829109669,colour,0.5
146,21,0,1,6,26,276,361.40731837041676,362.0558985751122,"[77, 0, 177]",177,l,0.13166983239352703,colour,0.5
146,21,0,1,6,27,277,362.56660665757954,363.27990995161235,"[61, 0, 193]",193,a,0.19695533253252506,colour,0.5
146,21,0,1,6,28,278,363.78824708238244,364.45592567138374,"[63, 0, 191]",191,a,0.1515165250748396,colour,0.5
146,21,0,1,6,29,279,364.9631580635905,365.65594670176506,"[19, 0, 235]",235,a,0.17663956992328167,colour,0.5
146,21,0,1,6,30,280,366.1689182203263,366.8479198832065,"[76, 0, 178]",178,l,0.16357018426060677,colour,0.5
146,21,0,1,6,31,281,367.3575700968504,368.0719056595117,"[55, 0, 199]",199,l,0.19623813964426517,colour,0.5
146,21,0,1,6,32,282,368.57723144441843,369.3119134902954,"[20, 0, 234]",234,a,0.20526863634586334,colour,0.5
146,21,0,1,6,33,283,369.82669157907367,370.4159219376743,"[4, 0, 250]",250,a,0.07399540767073631,colour,0.5
146,21,0,1,6,34,284,370.93782115727663,371.6558765973896,"[99, 0, 155]",155,l,0.20254519023001194,colour,0.5
146,21,0,1,6,35,285,372.1733997948468,372.83992520160973,"[84, 0, 170]",170,l,0.150125065818429,colour,0.5
146,21,0,1,6,36,286,373.36238762177527,373.9839117825031,"[11, 0, 243]",243,a,0.10482922196388245,colour,0.5
146,21,0,1,6,37,287,374.506749143824,375.111960593611,"[67, 0, 187]",187,l,0.08851926773786545,colour,0.5
146,21,0,1,6,38,288,375.61958604492247,376.30389360152185,"[2, 0, 252]",252,a,0.1678619235754013,colour,0.5
146,21,0,1,6,39,289,376.8253103606403,377.4961113613099,"[42, 0, 212]",212,a,0.15352828986942768,colour,0.5
146,21,0,1,6,40,290,378.0171287599951,378.7359120287001,"[33, 0, 221]",221,a,0.2061961442232132,colour,0.5
146,21,0,1,6,41,291,379.25265028886497,379.9198877699673,"[62, 0, 192]",192,l,0.14556708559393883,colour,0.5
146,21,0,1,6,42,292,380.43221613764763,381.1358812302351,"[60, 0, 194]",194,l,0.1887633353471756,colour,0.5
146,21,0,1,6,43,293,381.651460794732,382.311917822808,"[5, 0, 249]",249,a,0.14461712911725044,colour,0.5
146,21,0,1,6,44,294,382.8256573397666,383.4958908073604,"[44, 0, 210]",210,l,0.15447863936424255,colour,0.5
146,21,0,1,6,45,295,384.0166880469769,384.87988521903753,"[26, 0, 228]",228,a,0.3467739876359701,colour,0.5
146,21,0,1,6,46,296,385.3927117995918,386.02387061715126,"[75, 0, 179]",179,l,0.11432997137308121,colour,0.5
146,21,0,1,6,47,297,386.53686734102666,387.2078991346061,"[93, 0, 161]",161,l,0.15386384539306164,colour,0.5
146,21,0,1,6,48,298,387.72793113067746,388.3839172180742,"[32, 0, 222]",222,a,0.12513159401714802,colour,0.5
146,21,0,1,6,49,299,388.8961774483323,389.63654466345906,"[45, 0, 209]",209,a,0.2228385042399168,colour,0.5
146,21,0,1,6,50,300,390.1450243666768,390.75988071225584,"[52, 0, 202]",202,a,0.09895619004964828,colour,0.5
146,21,0,1,7,1,301,395.33778130076826,395.9279269557446,"[60, 0, 194]",194,l,0.0740036778151989,colour,0.5
146,21,0,1,7,2,302,396.45035550557077,397.0159121695906,"[66, 0, 188]",188,l,0.04937175661325455,colour,0.5
146,21,0,1,7,3,303,397.532175058499,398.0959086101502,"[79, 0, 175]",175,l,0.04865928925573826,colour,0.5
146,21,0,1,7,4,304,398.6076970137656,399.22389598190784,"[19, 0, 235]",235,a,0.09133133105933666,colour,0.5
146,21,0,1,7,5,305,399.74543089419603,400.4639128688723,"[55, 0, 199]",199,a,0.20116672851145267,colour,0.5
146,21,0,1,7,6,306,400.97505063936114,401.58387168869376,"[16, 0, 238]",238,a,0.08722272701561451,colour,0.5
146,21,0,1,7,7,307,402.10013969801366,402.67193330824375,"[81, 0, 173]",173,l,0.049565527588129044,colour,0.5
146,21,0,1,7,8,308,403.1791306491941,403.7759492378682,"[41, 0, 213]",213,a,0.07529312931001186,colour,0.5
146,21,0,1,7,9,309,404.29068085365,405.2958875000477,"[4, 0, 250]",250,a,0.48307938873767853,colour,0.5
146,21,0,1,7,10,310,405.806415989995,406.39190914295614,"[73, 0, 181]",181,l,0.06316818483173847,colour,0.5
146,21,0,1,7,11,311,406.90021358430386,407.52787977457047,"[72, 0, 182]",182,l,0.10543338395655155,colour,0.5
146,21,0,1,7,12,312,408.04101631231606,408.64787600934505,"[27, 0, 227]",227,a,0.0848131775856018,colour,0.5
146,21,0,1,7,13,313,409.15553611703217,409.84786986373365,"[59, 0, 195]",195,l,0.17499368824064732,colour,0.5
146,21,0,1,7,14,314,410.3628236092627,410.9998881481588,"[58, 0, 196]",196,l,0.1147675346583128,colour,0.5
146,21,0,1,7,15,315,411.51922658085823,412.0558977872133,"[10, 0, 244]",244,a,0.01443997398018837,colour,0.5
146,21,0,1,7,16,316,412.5661746095866,413.2318890877068,"[40, 0, 214]",214,a,0.1434765513986349,colour,0.5
146,21,0,1,7,17,317,413.7381510436535,414.35191525518894,"[71, 0, 183]",183,l,0.10362169146537781,colour,0.5
146,21,0,1,7,18,318,414.8667705375701,415.4961318410933,"[35, 0, 219]",219,a,0.10710998438298702,colour,0.5
146,21,0,1,7,19,319,416.0074826814234,416.6238888129592,"[9, 0, 245]",245,a,0.0942067988216877,colour,0.5
146,21,0,1,7,20,320,417.1326402705163,417.7278779614717,"[17, 0, 237]",237,a,0.07305687107145786,colour,0.5
146,21,0,1,7,21,321,418.24206646345556,418.8079110290855,"[15, 0, 239]",239,a,0.04386460594832897,colour,0.5
146,21,0,1,7,22,322,419.3082058224827,419.9278926923871,"[44, 0, 210]",210,a,0.10281076095998287,colour,0.5
146,21,0,1,7,23,323,420.43691117689013,421.07191708125174,"[23, 0, 231]",231,a,0.11282075196504593,colour,0.5
146,21,0,1,7,24,324,421.5776304099709,422.1919141039252,"[75, 0, 179]",179,l,0.09200677461922169,colour,0.5
146,21,0,1,7,25,325,422.7026265207678,423.42395561002195,"[88, 0, 166]",166,l,0.19901396706700325,colour,0.5
146,21,0,1,7,26,326,423.9372032135725,424.5438844971359,"[31, 0, 223]",223,a,0.08245994709432125,colour,0.5
146,21,0,1,7,27,327,425.06423747725785,425.67989687621593,"[86, 0, 168]",168,l,0.0934600681066513,colour,0.5
146,21,0,1,7,28,328,426.18948722444475,426.7519336864352,"[1, 0, 253]",253,a,0.04081348143517971,colour,0.5
146,21,0,1,7,29,329,427.26749552972615,427.8639289382845,"[94, 0, 160]",160,l,0.07431757263839245,colour,0.5
146,21,0,1,7,30,330,428.37704499810934,428.9359369985759,"[6, 0, 248]",248,a,0.03660799376666546,colour,0.5
146,21,0,1,7,31,331,429.4561029020697,430.0958755258471,"[34, 0, 220]",220,a,0.09332222118973732,colour,0.5
146,21,0,1,7,32,332,430.6016156356782,431.1758940219879,"[78, 0, 176]",176,l,0.05204991064965725,colour,0.5
146,21,0,1,7,33,333,431.6954309530556,432.3199093528092,"[92, 0, 162]",162,l,0.10217627510428429,colour,0.5
146,21,0,1,7,34,334,432.8361226171255,433.38392391242087,"[18, 0, 236]",236,a,0.02554525062441826,colour,0.5
146,21,0,1,7,35,335,433.8987311460078,434.60791599191725,"[33, 0, 221]",221,a,0.1982046142220497,colour,0.5
146,21,0,1,7,36,336,435.1219686176628,435.7118830848485,"[70, 0, 184]",184,l,0.06826849095523357,colour,0.5
146,21,0,1,7,37,337,436.2313790563494,436.8078893683851,"[67, 0, 187]",187,l,0.05415462329983711,colour,0.5
146,21,0,1,7,38,338,437.32527235522866,437.91989367827773,"[36, 0, 218]",218,a,0.07268980704247952,colour,0.5
146,21,0,1,7,39,339,438.4346725549549,439.05590054392815,"[46, 0, 208]",208,a,0.09892113693058491,colour,0.5
146,21,0,1,7,40,340,439.56113495491445,440.1838772818446,"[53, 0, 201]",201,a,0.09424933604896069,colour,0.5
146,21,0,1,7,41,341,440.6899880003184,441.2478729374707,"[42, 0, 212]",212,a,0.03565606847405434,colour,0.5
146,21,0,1,7,42,342,441.7682160716504,442.3438981231302,"[50, 0, 204]",204,a,0.0535209234803915,colour,0.5
146,21,0,1,7,43,343,442.86214087717235,443.45587407797575,"[96, 0, 158]",158,l,0.07155159302055836,colour,0.5
146,21,0,1,7,44,344,443.9714879076928,444.5359075386077,"[76, 0, 178]",178,l,0.05359339341521263,colour,0.5
146,21,0,1,7,45,345,445.05389665439725,445.7359049394727,"[0, 0, 254]",254,a,0.15971127897500992,colour,0.5
146,21,0,1,7,46,346,446.24148435890675,446.85590196214616,"[32, 0, 222]",222,a,0.09235257282853127,colour,0.5
146,21,0,1,7,47,347,447.3666179217398,447.959875356406,"[43, 0, 211]",211,a,0.07101714238524437,colour,0.5
146,21,0,1,7,48,348,448.47615675628185,449.19185148365796,"[62, 0, 192]",192,l,0.1935150884091854,colour,0.5
146,21,0,1,7,49,349,449.69458260945976,450.43189160712063,"[85, 0, 169]",169,l,0.2217294331640005,colour,0.5
146,21,0,1,7,50,350,450.9509661644697,451.4878937639296,"[82, 0, 172]",172,l,0.01483381912112236,colour,0.5
146,21,0,1,8,1,351,455.8448329176754,456.40789417363703,"[60, 0, 194]",194,l,0.040058478713035583,colour,0.5
146,21,0,1,8,2,352,456.9238309580833,457.743883471936,"[68, 0, 186]",186,l,0.2979673985391855,colour,0.5
146,21,0,1,8,3,353,458.25203392095864,458.7759417556226,"[66, 0, 188]",188,l,0.0016844794154167175,colour,0.5
146,21,0,1,8,4,354,459.28332499042153,459.8078964576125,"[28, 0, 226]",226,a,0.0023126639425754547,colour,0.5
146,21,0,1,8,5,355,460.32592298835516,460.84787774086,"[83, 0, 171]",171,l,0.005558349192142487,colour,0.5
146,21,0,1,8,6,356,461.3670499715954,462.2638772651553,"[73, 0, 181]",181,l,0.37458660826087,colour,0.5
146,21,0,1,8,7,357,462.77336442656815,464.44787230715156,"[21, 0, 233]",233,a,1.1521805487573147,colour,0.5
146,21,0,1,8,8,358,464.964853964746,465.68788289278746,"[61, 0, 193]",193,a,0.20146762765944004,colour,0.5
146,21,0,1,8,9,359,466.19936252199113,466.8158761728555,"[35, 0, 219]",219,a,0.09433873929083347,colour,0.5
146,21,0,1,8,10,360,467.3244232237339,467.96788539737463,"[44, 0, 210]",210,a,0.12135854735970497,colour,0.5
146,21,0,1,8,11,361,468.4807895682752,469.0558729749173,"[17, 0, 237]",237,a,0.05282854475080967,colour,0.5
146,21,0,1,8,12,362,469.5653278399259,470.1278999391943,"[74, 0, 180]",180,l,0.04437621310353279,colour,0.5
146,21,0,1,8,13,363,470.639143653214,471.21594186499715,"[98, 0, 156]",156,l,0.04574797861278057,colour,0.5
146,21,0,1,8,14,364,471.7369702924043,472.29593279212713,"[18, 0, 236]",236,a,0.02868853695690632,colour,0.5
146,21,0,1,8,15,365,472.816083336249,473.35991151072085,"[37, 0, 217]",217,a,0.02876218408346176,colour,0.5
146,21,0,1,8,16,366,473.8802680373192,474.4798683617264,"[7, 0, 247]",247,a,0.08264663070440292,colour,0.5
146,21,0,1,8,17,367,474.99251180514693,475.607867943123,"[39, 0, 215]",215,a,0.09806846082210541,colour,0.5
146,21,0,1,8,18,368,476.1223738845438,477.0158408842981,"[24, 0, 230]",230,a,0.37737228348851204,colour,0.5
146,21,0,1,8,19,369,477.52956149727106,478.1758924461901,"[81, 0, 173]",173,l,0.12850803695619106,colour,0.5
146,21,0,1,8,20,370,478.69166263379157,479.2638989277184,"[12, 0, 242]",242,a,0.05661182850599289,colour,0.5
146,21,0,1,8,21,371,479.780613951385,480.3598512522876,"[79, 0, 175]",175,l,0.06257268786430359,colour,0.5
146,21,0,1,8,22,372,480.8715896382928,481.77588543482125,"[4, 0, 250]",250,a,0.3819952476769686,colour,0.5
146,21,0,1,8,23,373,482.2936571482569,483.03986982628703,"[54, 0, 200]",200,a,0.2240054700523615,colour,0.5
146,21,0,1,8,24,374,483.5593386236578,484.3118898589164,"[92, 0, 162]",162,l,0.23035269230604172,colour,0.5
146,21,0,1,8,25,375,484.81931641697884,485.40787447988987,"[8, 0, 246]",246,a,0.06638393737375736,colour,0.5
146,21,0,1,8,26,376,485.9130777772516,486.51986461132765,"[19, 0, 235]",235,a,0.08440318331122398,colour,0.5
146,21,0,1,8,27,377,487.0381648670882,487.7359049394727,"[53, 0, 201]",201,l,0.17549190483987331,colour,0.5
146,21,0,1,8,28,378,488.2413866855204,488.92785606347024,"[84, 0, 170]",170,l,0.16438938304781914,colour,0.5
146,21,0,1,8,29,379,489.44467978924513,490.05586273409426,"[27, 0, 227]",227,a,0.08793283253908157,colour,0.5
146,21,0,1,8,30,380,490.5782487485558,491.2878876980394,"[67, 0, 187]",187,l,0.1937277652323246,colour,0.5
146,21,0,1,8,31,381,491.80647388473153,492.40787999518216,"[72, 0, 182]",182,l,0.07913903705775738,colour,0.5
146,21,0,1,8,32,382,492.91595009714365,493.5438687428832,"[13, 0, 241]",241,a,0.10572522133588791,colour,0.5
146,21,0,1,8,33,383,494.056622069329,494.62390417419374,"[5, 0, 249]",249,a,0.0450630821287632,colour,0.5
146,21,0,1,8,34,384,495.14153449609876,495.8078917302191,"[48, 0, 206]",206,a,0.14429653622210026,colour,0.5
146,21,0,1,8,35,385,496.31343176588416,497.0478499364108,"[3, 0, 251]",251,a,0.21208493039011955,colour,0.5
146,21,0,1,8,36,386,497.56349685043097,498.26386899501085,"[51, 0, 203]",203,l,0.1779538355767727,colour,0.5
146,21,0,1,8,37,387,498.7824012245983,499.4558772277087,"[1, 0, 253]",253,a,0.15185523219406605,colour,0.5
146,21,0,1,8,38,388,499.96037199534476,500.81590295396745,"[58, 0, 196]",196,a,0.33889115788042545,colour,0.5
146,21,0,1,8,39,389,501.3339657187462,501.9758985899389,"[0, 0, 254]",254,a,0.11966461688280106,colour,0.5
146,21,0,1,8,40,390,502.49031197838485,503.05585918948054,"[62, 0, 192]",192,l,0.04332740046083927,colour,0.5
146,21,0,1,8,41,391,503.56851247884333,504.11990171298385,"[88, 0, 166]",166,l,0.02916548401117325,colour,0.5
146,21,0,1,8,42,392,504.63108201883733,505.21587570011616,"[49, 0, 205]",205,a,0.06986671872437,colour,0.5
146,21,0,1,8,43,393,505.7333319429308,506.3038916327059,"[94, 0, 160]",160,l,0.04831664264202118,colour,0.5
146,21,0,1,8,44,394,506.8115178719163,507.39185006543994,"[57, 0, 197]",197,a,0.05803952179849148,colour,0.5
146,21,0,1,8,45,395,507.90538832731545,508.8958978187293,"[96, 0, 158]",158,l,0.46828849986195564,colour,0.5
146,21,0,1,8,46,396,509.4055669363588,510.0398804601282,"[82, 0, 172]",172,l,0.12174884974956512,colour,0.5
146,21,0,1,8,47,397,510.5602488014847,511.11990171298385,"[20, 0, 234]",234,a,0.03035135380923748,colour,0.5
146,21,0,1,8,48,398,511.6378215122968,512.199896575883,"[87, 0, 167]",167,l,0.047226475551724434,colour,0.5
146,21,0,1,8,49,399,512.717437889427,513.3278882801533,"[6, 0, 248]",248,a,0.09410203620791435,colour,0.5
146,21,0,1,8,50,400,513.8447706904262,514.8398771528155,"[25, 0, 229]",229,a,0.47997470013797283,colour,0.5
146,21,0,1,9,1,401,519.1696172971278,519.7918893713504,"[39, 0, 215]",215,a,0.09140970557928085,colour,0.5
146,21,0,1,9,2,402,520.2936855051666,520.8238779436797,"[88, 0, 166]",166,l,0.015027591958642006,colour,0.5
146,21,0,1,9,3,403,521.340685127303,522.2558534387499,"[42, 0, 212]",212,a,0.3928476758301258,colour,0.5
146,21,0,1,9,4,404,522.7627695742995,523.3280206136405,"[79, 0, 175]",175,l,0.04310290887951851,colour,0.5
146,21,0,1,9,5,405,523.8409909494221,524.4558606855571,"[69, 0, 185]",185,l,0.09287126734852791,colour,0.5
146,21,0,1,9,6,406,524.965965397656,525.6158783771098,"[64, 0, 190]",190,l,0.13350987993180752,colour,0.5
146,21,0,1,9,7,407,526.1320416238159,526.7038797382265,"[82, 0, 172]",172,l,0.04958443157374859,colour,0.5
146,21,0,1,9,8,408,527.2102846615016,527.7918858267367,"[29, 0, 225]",225,a,0.05953298509120941,colour,0.5
146,21,0,1,9,9,409,528.3041102178395,528.8559051118791,"[37, 0, 217]",217,a,0.03007093444466591,colour,0.5
146,21,0,1,9,10,410,529.366715202108,530.2478607278317,"[92, 0, 162]",162,l,0.3589792773127556,colour,0.5
146,21,0,1,9,11,411,530.7552727144212,531.4078748747706,"[45, 0, 209]",209,a,0.13106685504317284,colour,0.5
146,21,0,1,9,12,412,531.9192584045231,532.5038925781846,"[65, 0, 189]",189,l,0.06845753639936447,colour,0.5
146,21,0,1,9,13,413,533.0167754814029,533.7518289238214,"[11, 0, 243]",243,a,0.2190902717411518,colour,0.5
146,21,0,1,9,14,414,534.2677550744265,534.8718925062567,"[40, 0, 214]",214,a,0.08811400085687637,colour,0.5
146,21,0,1,9,15,415,535.3803324308246,535.9518865831196,"[87, 0, 167]",167,l,0.05655117705464363,colour,0.5
146,21,0,1,9,16,416,536.4631145428866,537.1358658690006,"[47, 0, 207]",207,a,0.15440853498876095,colour,0.5
146,21,0,1,9,17,417,537.6566316001117,538.1838701926172,"[85, 0, 169]",169,l,0.010484183207154274,colour,0.5
146,21,0,1,9,18,418,538.6941525284201,539.2798863202333,"[53, 0, 201]",201,a,0.06853276118636131,colour,0.5
146,21,0,1,9,19,419,539.7973201144487,540.399843564257,"[86, 0, 168]",168,l,0.08846806734800339,colour,0.5
146,21,0,1,9,20,420,540.9087947010994,541.551851214841,"[71, 0, 183]",183,l,0.1133477184921503,colour,0.5
146,21,0,1,9,21,421,542.0569796822965,542.6558714769781,"[62, 0, 192]",192,a,0.0767082180827856,colour,0.5
146,21,0,1,9,22,422,543.1664149332792,543.7278559058905,"[96, 0, 158]",158,l,0.03921210207045078,colour,0.5
146,21,0,1,9,23,423,544.2446965686977,544.8881087247282,"[16, 0, 238]",238,a,0.12115689925849438,colour,0.5
146,21,0,1,9,24,424,545.390073819086,546.0799097940326,"[66, 0, 188]",188,l,0.1676189210265875,colour,0.5
146,21,0,1,9,25,425,546.5987255927175,547.2238648682833,"[48, 0, 206]",206,a,0.10856642946600914,colour,0.5
146,21,0,1,9,26,426,547.7340739481151,548.3678837437183,"[58, 0, 196]",196,a,0.11162818782031536,colour,0.5
146,21,0,1,9,27,427,548.8747112620622,549.4398713242263,"[77, 0, 177]",177,l,0.04312535934150219,colour,0.5
146,21,0,1,9,28,428,549.9529314562678,550.5198835171759,"[83, 0, 171]",171,l,0.04201352968811989,colour,0.5
146,21,0,1,9,29,429,551.0423057638109,551.607867943123,"[21, 0, 233]",233,a,0.021475639194250107,colour,0.5
146,21,0,1,9,30,430,552.1265116315335,552.7678501885384,"[23, 0, 231]",231,a,0.11907581798732281,colour,0.5
146,21,0,1,9,31,431,553.2829023934901,553.8798808865249,"[5, 0, 249]",249,a,0.07482248358428478,colour,0.5
146,21,0,1,9,32,432,554.3923644274473,554.9998593982309,"[28, 0, 226]",226,a,0.08560480736196041,colour,0.5
146,21,0,1,9,33,433,555.5105525162071,556.09587434493,"[74, 0, 180]",180,l,0.0630456991493702,colour,0.5
146,21,0,1,9,34,434,556.6043229345232,557.1998670380563,"[56, 0, 198]",198,a,0.07320259511470795,colour,0.5
146,21,0,1,9,35,435,557.7138700392097,558.2558687999845,"[27, 0, 227]",227,a,0.019674580544233322,colour,0.5
146,21,0,1,9,36,436,558.7608432732522,559.3838699553162,"[8, 0, 246]",246,a,0.10076788067817688,colour,0.5
146,21,0,1,9,37,437,559.9015455711633,560.6318764053285,"[43, 0, 211]",211,a,0.21856999956071377,colour,0.5
146,21,0,1,9,38,438,561.1499387770891,561.743882291019,"[9, 0, 245]",245,a,0.06778642348945141,colour,0.5
146,21,0,1,9,39,439,562.2654439862818,563.0398706141859,"[68, 0, 186]",186,l,0.25397597439587116,colour,0.5
146,21,0,1,9,40,440,563.5448765940964,564.1278723701835,"[84, 0, 170]",170,l,0.06070822291076183,colour,0.5
146,21,0,1,9,41,441,564.6387375984341,565.2798843514174,"[60, 0, 194]",194,l,0.11889819242060184,colour,0.5
146,21,0,1,9,42,442,565.7889627013355,566.4238508474082,"[70, 0, 184]",184,l,0.11282508634030819,colour,0.5
146,21,0,1,9,43,443,566.9297583401203,567.5998720787466,"[17, 0, 237]",237,a,0.14799081347882748,colour,0.5
146,21,0,1,9,44,444,568.1172775160521,568.8718543034047,"[46, 0, 208]",208,a,0.2323459479957819,colour,0.5
146,21,0,1,9,45,445,569.382938509807,570.0478940475732,"[41, 0, 213]",213,a,0.14267940632998943,colour,0.5
146,21,0,1,9,46,446,570.5574142914265,571.1198544502258,"[26, 0, 228]",228,a,0.04567432962357998,colour,0.5
146,21,0,1,9,47,447,571.630481403321,572.2638418190181,"[78, 0, 176]",176,l,0.1036189328879118,colour,0.5
146,21,0,1,9,48,448,572.7858942467719,573.3198628798127,"[19, 0, 235]",235,a,0.018307935446500778,colour,0.5
146,21,0,1,9,49,449,573.8341758362949,574.4238441511989,"[32, 0, 222]",222,a,0.07469960302114487,colour,0.5
146,21,0,1,9,50,450,574.9440466817468,575.4881288893521,"[36, 0, 218]",218,a,0.028776757419109344,colour,0.5
146,21,0,1,10,1,451,579.8310443665832,580.7118440940976,"[78, 0, 176]",176,l,0.3535749204456806,colour,0.5
146,21,0,1,10,2,452,581.2206821981817,581.8958363775164,"[9, 0, 245]",245,a,0.15171856619417667,colour,0.5
146,21,0,1,10,3,453,582.4164339378476,583.1198800504208,"[11, 0, 243]",243,a,0.18784961104393005,colour,0.5
146,21,0,1,10,4,454,583.6372724901885,584.2398546244949,"[55, 0, 199]",199,a,0.0870699156075716,colour,0.5
146,21,0,1,10,5,455,584.748885711655,585.3358534239233,"[54, 0, 200]",200,a,0.07076980732381344,colour,0.5
146,21,0,1,10,6,456,585.8457430955023,586.4558815602213,"[47, 0, 207]",207,a,0.09409022144973278,colour,0.5
146,21,0,1,10,7,457,586.9729687683284,587.8398791216314,"[29, 0, 225]",225,a,0.35002439841628075,colour,0.5
146,21,0,1,10,8,458,588.3498538639396,588.991856444627,"[72, 0, 182]",182,l,0.12393036298453808,colour,0.5
146,21,0,1,10,9,459,589.5113098807633,590.175868421793,"[6, 0, 248]",248,a,0.14677304215729237,colour,0.5
146,21,0,1,10,10,460,590.6765472143888,591.2958626877517,"[43, 0, 211]",211,a,0.10298602283000946,colour,0.5
146,21,0,1,10,11,461,591.8110980316997,592.4638927839696,"[88, 0, 166]",166,l,0.1371773760765791,colour,0.5
146,21,0,1,10,12,462,592.9840114247054,593.6798728518188,"[61, 0, 193]",193,l,0.1814956944435835,colour,0.5
146,21,0,1,10,13,463,594.2030126862228,594.807879915461,"[30, 0, 224]",224,a,0.08586868457496166,colour,0.5
146,21,0,1,10,14,464,595.3195655252784,595.9118174705654,"[3, 0, 251]",251,a,0.07622575759887695,colour,0.5
146,21,0,1,10,15,465,596.4311645682901,597.0318306405097,"[82, 0, 172]",172,l,0.08520072139799595,colour,0.5
146,21,0,1,10,16,466,597.5427395869046,598.2798406351358,"[59, 0, 195]",195,l,0.22009851783514023,colour,0.5
146,21,0,1,10,17,467,598.7954950314015,599.439851237461,"[40, 0, 214]",214,a,0.127633698284626,colour,0.5
146,21,0,1,10,18,468,599.9551456589252,600.5918537676334,"[51, 0, 203]",203,a,0.11602075211703777,colour,0.5
146,21,0,1,10,19,469,601.104797322303,601.7038545329124,"[92, 0, 162]",162,l,0.08273485116660595,colour,0.5
146,21,0,1,10,20,470,602.2211327571422,602.9278718177229,"[64, 0, 190]",190,l,0.18446292914450169,colour,0.5
146,21,0,1,10,21,471,603.4399449732155,604.0318365488201,"[34, 0, 220]",220,a,0.06964616477489471,colour,0.5
146,21,0,1,10,22,472,604.549444027245,605.1918652672321,"[24, 0, 230]",230,a,0.12015653029084206,colour,0.5
146,21,0,1,10,23,473,605.7058572396636,606.3838723190129,"[90, 0, 164]",164,l,0.15318721905350685,colour,0.5
146,21,0,1,10,24,474,606.8966051656753,607.551876027137,"[69, 0, 185]",185,l,0.1329876407980919,colour,0.5
146,21,0,1,10,25,475,608.0686142891645,608.7278492115438,"[17, 0, 237]",237,a,0.13764999248087406,colour,0.5
146,21,0,1,10,26,476,609.2406328637153,609.8398704566061,"[1, 0, 253]",253,a,0.07712727040052414,colour,0.5
146,21,0,1,10,27,477,610.3500188849866,610.9198574442416,"[32, 0, 222]",222,a,0.0571112260222435,colour,0.5
146,21,0,1,10,28,478,611.4280799664557,612.0158578194678,"[35, 0, 219]",219,a,0.061245428398251534,colour,0.5
146,21,0,1,10,29,479,612.5342376306653,613.151867441833,"[2, 0, 252]",252,a,0.10153155028820038,colour,0.5
146,21,0,1,10,30,480,613.6749233882874,614.3038459476084,"[87, 0, 167]",167,l,0.09876399300992489,colour,0.5
146,21,0,1,10,31,481,614.816297981888,615.6318807378411,"[63, 0, 191]",191,l,0.3003269322216511,colour,0.5
146,21,0,1,10,32,482,616.1460818424821,616.9358491711318,"[50, 0, 204]",204,a,0.2740306183695793,colour,0.5
146,21,0,1,10,33,483,617.4456092659384,618.1758483350277,"[96, 0, 158]",158,l,0.2124878354370594,colour,0.5
146,21,0,1,10,34,484,618.6984580531716,619.4318471029401,"[23, 0, 231]",231,a,0.21578196249902248,colour,0.5
146,21,0,1,10,35,485,619.9529511481524,620.5438415668905,"[80, 0, 174]",174,l,0.06811528466641903,colour,0.5
146,21,0,1,10,36,486,621.0563377123326,621.7278098259121,"[25, 0, 229]",229,a,0.1541804987937212,colour,0.5
146,21,0,1,10,37,487,622.2482301555574,623.0238556507975,"[66, 0, 188]",188,a,0.2541823498904705,colour,0.5
146,21,0,1,10,38,488,623.5288478471339,624.0878446102142,"[27, 0, 227]",227,a,0.03682697005569935,colour,0.5
146,21,0,1,10,39,489,624.6070255059749,625.2398688029498,"[7, 0, 247]",247,a,0.11064199730753899,colour,0.5
146,21,0,1,10,40,490,625.7478463519365,626.3358416091651,"[42, 0, 212]",212,a,0.06234780326485634,colour,0.5
146,21,0,1,10,41,491,626.8452618159354,627.4559717513621,"[67, 0, 187]",187,l,0.0891624204814434,colour,0.5
146,21,0,1,10,42,492,627.9704379141331,628.6078777890652,"[89, 0, 165]",165,l,0.1162574551999569,colour,0.5
146,21,0,1,10,43,493,629.1266404185444,629.799873419106,"[5, 0, 249]",249,a,0.15163507126271725,colour,0.5
146,21,0,1,10,44,494,630.3143021669239,630.8718806914985,"[77, 0, 177]",177,l,0.03617673180997372,colour,0.5
146,21,0,1,10,45,495,631.3784297592938,632.1358820162714,"[65, 0, 189]",189,l,0.2400558777153492,colour,0.5
146,21,0,1,10,46,496,632.6433865576982,633.3759359270334,"[41, 0, 213]",213,a,0.2163372877985239,colour,0.5
146,21,0,1,10,47,497,633.8834424354136,634.4959565792233,"[22, 0, 232]",232,a,0.09581605345010757,colour,0.5
146,21,0,1,10,48,498,635.0133884046227,635.8878905344754,"[81, 0, 173]",173,l,0.35855431854724884,colour,0.5
146,21,0,1,10,49,499,636.4066492244601,637.0240285489708,"[33, 0, 221]",221,a,0.09977460093796253,colour,0.5
146,21,0,1,10,50,500,637.5389641784132,638.456010742113,"[58, 0, 196]",196,a,0.3992354664951563,colour,0.5
146,21,0,1,11,1,501,642.8645705133677,643.5681347809732,"[61, 0, 193]",193,l,0.18693155609071255,colour,0.5
146,21,0,1,11,2,502,644.0875220503658,644.6639366578311,"[94, 0, 160]",160,l,0.05874371714890003,colour,0.5
146,21,0,1,11,3,503,645.1728728283197,645.8719255886972,"[30, 0, 224]",224,a,0.18111169338226318,colour,0.5
146,21,0,1,11,4,504,646.382873525843,646.967890124768,"[23, 0, 231]",231,a,0.06700306385755539,colour,0.5
146,21,0,1,11,5,505,647.4843259118497,648.0318975951523,"[18, 0, 236]",236,a,0.029321447014808655,colour,0.5
146,21,0,1,11,6,506,648.5394041035324,649.2159863710403,"[76, 0, 178]",178,l,0.15848720632493496,colour,0.5
146,21,0,1,11,7,507,649.7350971605629,650.3279174249619,"[11, 0, 243]",243,a,0.07527540624141693,colour,0.5
146,21,0,1,11,8,508,650.8493377286941,651.487889431417,"[73, 0, 181]",181,l,0.12778572365641594,colour,0.5
146,21,0,1,11,9,509,652.005169229582,652.6558880191296,"[63, 0, 191]",191,l,0.13527943193912506,colour,0.5
146,21,0,1,11,10,510,653.1717314627022,653.7839561291039,"[77, 0, 177]",177,l,0.09200086817145348,colour,0.5
146,21,0,1,11,11,511,654.2958051860332,654.8398420996964,"[80, 0, 174]",174,l,0.021776143461465836,colour,0.5
146,21,0,1,11,12,512,655.3583719674498,655.9118674881756,"[72, 0, 182]",182,l,0.031477753072977066,colour,0.5
146,21,0,1,11,13,513,656.4084624927491,657.0318530891091,"[47, 0, 207]",207,a,0.10140236653387547,colour,0.5
146,21,0,1,11,14,514,657.549189997837,658.1198812332004,"[56, 0, 198]",198,a,0.04838320426642895,colour,0.5
146,21,0,1,11,15,515,658.6273526903242,659.2558305971324,"[36, 0, 218]",218,a,0.1062517948448658,colour,0.5
146,21,0,1,11,16,516,659.7681629024446,660.3118441738188,"[53, 0, 201]",201,a,0.02154731936752796,colour,0.5
146,21,0,1,11,17,517,660.8306859657168,661.399867195636,"[15, 0, 239]",239,a,0.05666263401508331,colour,0.5
146,21,0,1,11,18,518,661.9094736929983,662.455870533362,"[50, 0, 204]",204,a,0.01946347951889038,colour,0.5
146,21,0,1,11,19,519,662.9686912074685,663.575839985162,"[13, 0, 241]",241,a,0.09027621522545815,colour,0.5
146,21,0,1,11,20,520,664.0960669349879,664.6478641927242,"[20, 0, 234]",234,a,0.035633618012070656,colour,0.5
146,21,0,1,11,21,521,665.1624599322677,665.7358679175377,"[33, 0, 221]",221,a,0.04377284087240696,colour,0.5
146,21,0,1,11,22,522,666.2559542637318,666.8718357924372,"[88, 0, 166]",166,l,0.09927953779697418,colour,0.5
146,21,0,1,11,23,523,667.3845977839082,667.9918816518039,"[78, 0, 176]",176,l,0.08975358307361603,colour,0.5
146,21,0,1,11,24,524,668.5083981771022,669.1118735540658,"[62, 0, 192]",192,l,0.08734718337655067,colour,0.5
146,21,0,1,11,25,525,669.6201905980706,670.1838343515992,"[75, 0, 179]",179,l,0.045830292627215385,colour,0.5
146,21,0,1,11,26,526,670.7057150620967,671.3518715370446,"[55, 0, 199]",199,a,0.12606067582964897,colour,0.5
146,21,0,1,11,27,527,671.8592457138002,672.7678627911955,"[19, 0, 235]",235,a,0.381495064124465,colour,0.5
146,21,0,1,11,28,528,673.2779828626662,674.0158688463271,"[29, 0, 225]",225,a,0.22179166041314602,colour,0.5
146,21,0,1,11,29,529,674.5300486832857,675.3598650377244,"[65, 0, 189]",189,l,0.3130257111042738,colour,0.5
146,21,0,1,11,30,530,675.8766245674342,676.5198378302157,"[4, 0, 250]",250,a,0.12707089073956013,colour,0.5
146,21,0,1,11,31,531,677.0359345171601,677.6718257889152,"[40, 0, 214]",214,a,0.11913568153977394,colour,0.5
146,21,0,1,11,32,532,678.1951235570014,679.143838101998,"[51, 0, 203]",203,l,0.43237840197980404,colour,0.5
146,21,0,1,11,33,533,679.6661752779037,680.3438544068485,"[66, 0, 188]",188,l,0.1594151072204113,colour,0.5
146,21,0,1,11,34,534,680.8605914860964,681.6158393863589,"[41, 0, 213]",213,a,0.23271773755550385,colour,0.5
146,21,0,1,11,35,535,682.1363404542208,682.791859831661,"[37, 0, 217]",217,a,0.12966515496373177,colour,0.5
146,21,0,1,11,36,536,683.3118768632412,683.9598304573447,"[49, 0, 205]",205,a,0.12575583904981613,colour,0.5
146,21,0,1,11,37,537,684.4682565983385,685.0878560319543,"[57, 0, 197]",197,a,0.0974268838763237,colour,0.5
146,21,0,1,11,38,538,685.593258222565,686.1998375002295,"[5, 0, 249]",249,a,0.0843259897083044,colour,0.5
146,21,0,1,11,39,539,686.7111013010144,687.2638465464115,"[42, 0, 212]",212,a,0.030406098812818527,colour,0.5
146,21,0,1,11,40,540,687.7737255841494,688.4158317465335,"[34, 0, 220]",220,a,0.11986941657960415,colour,0.5
146,21,0,1,11,41,541,688.9300076458603,689.7038324773312,"[87, 0, 167]",167,l,0.2514915931969881,colour,0.5
146,21,0,1,11,42,542,690.2114693503827,690.911835193634,"[60, 0, 194]",194,l,0.17838706634938717,colour,0.5
146,21,0,1,11,43,543,691.4302476942539,692.1198201868683,"[16, 0, 238]",238,a,0.16782884113490582,colour,0.5
146,21,0,1,11,44,544,692.6344328597188,693.2398463543504,"[70, 0, 184]",184,l,0.08958541043102741,colour,0.5
146,21,0,1,11,45,545,693.7613470014185,694.3118394464254,"[85, 0, 169]",169,l,0.034542663022875786,colour,0.5
146,21,0,1,11,46,546,694.8276947047561,695.4398504495621,"[83, 0, 171]",171,l,0.09661595709621906,colour,0.5
146,21,0,1,11,47,547,695.954682495445,696.5518323108554,"[38, 0, 216]",216,a,0.06705623306334019,colour,0.5
146,21,0,1,11,48,548,697.0659487377852,697.6238498222083,"[24, 0, 230]",230,a,0.0414274875074625,colour,0.5
146,21,0,1,11,49,549,698.132644996047,699.0238198116422,"[2, 0, 252]",252,a,0.3735795449465513,colour,0.5
146,21,0,1,11,50,550,699.53993697837,700.2638556044549,"[48, 0, 206]",206,a,0.20747614465653896,colour,0.5
146,21,0,1,12,1,551,704.8078854288906,705.5678390022367,"[74, 0, 180]",180,l,0.24326572380959988,colour,0.5
146,21,0,1,12,2,552,706.0772410929203,706.6398419421166,"[36, 0, 218]",218,a,0.04650691896677017,colour,0.5
146,21,0,1,12,3,553,707.1577353551984,707.7758330535144,"[76, 0, 178]",178,l,0.1006253082305193,colour,0.5
146,21,0,1,12,4,554,708.2885777167976,708.8478415068239,"[24, 0, 230]",230,a,0.042347511276602745,colour,0.5
146,21,0,1,12,5,555,709.3566721267998,710.0158093757927,"[23, 0, 231]",231,a,0.14166210032999516,colour,0.5
146,21,0,1,12,6,556,710.5329540874809,711.2798158228397,"[73, 0, 181]",181,l,0.22968591190874577,colour,0.5
146,21,0,1,12,7,557,711.7877185419202,712.3760292679071,"[48, 0, 206]",206,a,0.0718938447535038,colour,0.5
146,21,0,1,12,8,558,712.891413487494,713.5118136107922,"[80, 0, 174]",174,l,0.10546134598553181,colour,0.5
146,21,0,1,12,9,559,714.0193138178438,714.6078521888703,"[11, 0, 243]",243,a,0.07138578221201897,colour,0.5
146,21,0,1,12,10,560,715.1179017629474,715.7278665397316,"[66, 0, 188]",188,l,0.09333954937756062,colour,0.5
146,21,0,1,12,11,561,716.2467110902071,716.8959238119423,"[10, 0, 244]",244,a,0.1328978445380926,colour,0.5
146,21,0,1,12,12,562,717.4061171393842,717.9918639287353,"[33, 0, 221]",221,a,0.06782462634146214,colour,0.5
146,21,0,1,12,13,563,718.5049276053905,719.4238071292639,"[34, 0, 220]",220,a,0.4017714411020279,colour,0.5
146,21,0,1,12,14,564,719.9443653039634,720.5038539823145,"[47, 0, 207]",207,a,0.042708275839686394,colour,0.5
146,21,0,1,12,15,565,721.0261521674693,721.5838082805276,"[0, 0, 254]",254,a,0.03733030706644058,colour,0.5
146,21,0,1,12,16,566,722.0935514401644,722.6158535648137,"[39, 0, 215]",215,a,0.0053771790117025375,colour,0.5
146,21,0,1,12,17,567,723.141961818561,723.735828531906,"[78, 0, 176]",176,l,0.07183476723730564,colour,0.5
146,21,0,1,12,18,568,724.2514100689441,724.8238102011383,"[35, 0, 219]",219,a,0.05006846971809864,colour,0.5
146,21,0,1,12,19,569,725.3296834304929,726.055828075856,"[27, 0, 227]",227,a,0.2040863111615181,colour,0.5
146,21,0,1,12,20,570,726.5640813168138,727.2478170096874,"[57, 0, 197]",197,a,0.1705499216914177,colour,0.5
146,21,0,1,12,21,571,727.7581406999379,728.5438132099807,"[68, 0, 186]",186,l,0.263554310426116,colour,0.5
146,21,0,1,12,22,572,729.055184924975,729.6478228401393,"[1, 0, 253]",253,a,0.07036611624062061,colour,0.5
146,21,0,1,12,23,573,730.1645398326218,730.8718562722206,"[32, 0, 222]",222,a,0.1850280985236168,colour,0.5
146,21,0,1,12,24,574,731.3834587801248,731.9838377386332,"[62, 0, 192]",192,l,0.08729795180261135,colour,0.5
146,21,0,1,12,25,575,732.4937986973673,733.1038162503392,"[92, 0, 162]",162,l,0.08733773045241833,colour,0.5
146,21,0,1,12,26,576,733.6271337103099,734.2398443836719,"[26, 0, 228]",228,a,0.09692827612161636,colour,0.5
146,21,0,1,12,27,577,734.7537694033235,735.3598173819482,"[95, 0, 159]",159,l,0.08943456597626209,colour,0.5
146,21,0,1,12,28,578,735.8813278768212,736.5118466932327,"[89, 0, 165]",165,l,0.11414210684597492,colour,0.5
146,21,0,1,12,29,579,737.0265775211155,737.6637995988131,"[52, 0, 202]",202,a,0.12007342837750912,colour,0.5
146,21,0,1,12,30,580,738.1861930955201,738.7038395665586,"[85, 0, 169]",169,l,0.0020799003541469574,colour,0.5
146,21,0,1,12,31,581,739.2207172494382,739.8960447236896,"[61, 0, 193]",193,l,0.15945488587021828,colour,0.5
146,21,0,1,12,32,582,740.4124344307929,741.1117971483618,"[67, 0, 187]",187,l,0.18148742243647575,colour,0.5
146,21,0,1,12,33,583,741.6344340424985,742.2078148517758,"[86, 0, 168]",168,l,0.051063718274235725,colour,0.5
146,21,0,1,12,34,584,742.7233164366335,743.2638244908303,"[96, 0, 158]",158,l,0.02364809438586235,colour,0.5
146,21,0,1,12,35,585,743.7805895339698,744.359831167385,"[19, 0, 235]",235,a,0.056944629177451134,colour,0.5
146,21,0,1,12,36,586,744.8744536861777,745.7998442742974,"[40, 0, 214]",214,a,0.4033164996653795,colour,0.5
146,21,0,1,12,37,587,746.3121501915157,746.8478296920657,"[8, 0, 246]",246,a,0.013488834723830223,colour,0.5
146,21,0,1,12,38,588,747.3614967409521,748.1038465779275,"[30, 0, 224]",224,a,0.22006267681717873,colour,0.5
146,21,0,1,12,39,589,748.6115748211741,749.2398148458451,"[20, 0, 234]",234,a,0.10591702535748482,colour,0.5
146,21,0,1,12,40,590,749.7522952370346,750.3518179748207,"[2, 0, 252]",252,a,0.07716704905033112,colour,0.5
146,21,0,1,12,41,591,750.8617974426597,751.4078732989728,"[63, 0, 191]",191,l,0.023806419223546982,colour,0.5
146,21,0,1,12,42,592,751.9243803732097,752.4798049516976,"[28, 0, 226]",226,a,0.033934565261006355,colour,0.5
146,21,0,1,12,43,593,752.9962612204254,753.8478285111487,"[56, 0, 198]",198,l,0.32465322874486446,colour,0.5
146,21,0,1,12,44,594,754.3672535903752,754.8959887959063,"[65, 0, 189]",189,l,0.011463282629847527,colour,0.5
146,21,0,1,12,45,595,755.416581235826,756.1358465701342,"[75, 0, 179]",179,l,0.20380352810025215,colour,0.5
146,21,0,1,12,46,596,756.6517160069197,757.327802028507,"[94, 0, 160]",160,l,0.159624632447958,colour,0.5
146,21,0,1,12,47,597,757.8426821231842,758.5358736682683,"[50, 0, 204]",204,a,0.1772618480026722,colour,0.5
146,21,0,1,12,48,598,759.0493544284254,759.7518052924424,"[6, 0, 248]",248,a,0.18663735315203667,colour,0.5
146,21,0,1,12,49,599,760.2704730052501,760.9838180467486,"[54, 0, 200]",200,a,0.1963590495288372,colour,0.5
146,21,0,1,12,50,600,761.492829836905,762.087820192799,"[49, 0, 205]",205,a,0.07722021825611591,colour,0.5
146,21,0,1,13,1,601,766.5345475878567,767.3518037963659,"[9, 0, 245]",245,a,0.29924503713846207,colour,0.5
146,21,0,1,13,2,602,767.8684215396643,768.6318752244115,"[64, 0, 190]",190,l,0.24634363129734993,colour,0.5
146,21,0,1,13,3,603,769.1534396745265,769.7598547190428,"[40, 0, 214]",214,a,0.09021438285708427,colour,0.5
146,21,0,1,13,4,604,770.2808996867388,770.8478379622102,"[45, 0, 209]",209,a,0.05030438303947449,colour,0.5
146,21,0,1,13,5,605,771.3632387239486,771.9038696568459,"[17, 0, 237]",237,a,0.01896093226969242,colour,0.5
146,21,0,1,13,6,606,772.4130945168436,772.9918383285403,"[37, 0, 217]",217,a,0.06155814230442047,colour,0.5
146,21,0,1,13,7,607,773.5062525048852,774.2238156367093,"[29, 0, 225]",225,a,0.20056729577481747,colour,0.5
146,21,0,1,13,8,608,774.7437133304775,775.3278311733156,"[18, 0, 236]",236,a,0.06788449175655842,colour,0.5
146,21,0,1,13,9,609,775.8403308633715,776.7918129656464,"[92, 0, 162]",162,l,0.4359813053160906,colour,0.5
146,21,0,1,13,10,610,777.3081435952336,778.0798475667834,"[50, 0, 204]",204,a,0.2545580789446831,colour,0.5
146,21,0,1,13,11,611,778.5923748258501,779.2798126712441,"[12, 0, 242]",242,a,0.17062554135918617,colour,0.5
146,21,0,1,13,12,612,779.799268078059,780.3758327383548,"[21, 0, 233]",233,a,0.05818406119942665,colour,0.5
146,21,0,1,13,13,613,780.8841001596302,781.5918072927743,"[86, 0, 168]",168,l,0.19068412110209465,colour,0.5
146,21,0,1,13,14,614,782.1109066624194,782.6958858445287,"[22, 0, 232]",232,a,0.06345135904848576,colour,0.5
146,21,0,1,13,15,615,783.2140616439283,783.8718326408416,"[55, 0, 199]",199,l,0.1257290579378605,colour,0.5
146,21,0,1,13,16,616,784.3801232986152,784.9518223851919,"[61, 0, 193]",193,l,0.04937411844730377,colour,0.5
146,21,0,1,13,17,617,785.4584187157452,786.3838392365724,"[63, 0, 191]",191,l,0.40343386493623257,colour,0.5
146,21,0,1,13,18,618,786.8960407841951,787.4798435494304,"[27, 0, 227]",227,a,0.061596738174557686,colour,0.5
146,21,0,1,13,19,619,787.9933936260641,788.639809647575,"[30, 0, 224]",224,a,0.12411783449351788,colour,0.5
146,21,0,1,13,20,620,789.1497595775872,789.7517915088683,"[83, 0, 171]",171,l,0.07975422590970993,colour,0.5
146,21,0,1,13,21,621,790.2591688353568,790.8718129489571,"[26, 0, 228]",228,a,0.09058026596903801,colour,0.5
146,21,0,1,13,22,622,791.3844083435833,791.9198342077434,"[69, 0, 185]",185,l,0.013171788305044174,colour,0.5
146,21,0,1,13,23,623,792.4312945380807,793.0238335952163,"[82, 0, 172]",172,l,0.06960362941026688,colour,0.5
146,21,0,1,13,24,624,793.5320269726217,794.4078847207129,"[74, 0, 180]",180,l,0.3579899352043867,colour,0.5
146,21,0,1,13,25,625,794.9272554498166,795.527800610289,"[80, 0, 174]",174,l,0.08390693739056587,colour,0.5
146,21,0,1,13,26,626,796.0402813963592,796.9118434637785,"[52, 0, 202]",202,l,0.35530784353613853,colour,0.5
146,21,0,1,13,27,627,797.4321779347956,798.159811316058,"[85, 0, 169]",169,l,0.21045401319861412,colour,0.5
146,21,0,1,13,28,628,798.6698089018464,799.5278392080218,"[28, 0, 226]",226,a,0.342369606718421,colour,0.5
146,21,0,1,13,29,629,800.0460311546922,800.6398423369974,"[31, 0, 223]",223,a,0.07777160406112671,colour,0.5
146,21,0,1,13,30,630,801.1579629965127,801.7038383856416,"[35, 0, 219]",219,a,0.02909577265381813,colour,0.5
146,21,0,1,13,31,631,802.2212548498064,802.7678202558309,"[5, 0, 249]",249,a,0.02914736606180668,colour,0.5
146,21,0,1,13,32,632,803.289114529267,803.9118359815329,"[56, 0, 198]",198,l,0.09988094121217728,colour,0.5
146,21,0,1,13,33,633,804.4243833255023,805.0078269038349,"[88, 0, 166]",166,l,0.06713106296956539,colour,0.5
146,21,0,1,13,34,634,805.5204679835588,806.055840678513,"[20, 0, 234]",234,a,0.019222445785999298,colour,0.5
146,21,0,1,13,35,635,806.5706565771252,807.1038040425628,"[93, 0, 161]",161,l,0.016461191698908806,colour,0.5
146,21,0,1,13,36,636,807.6179441008717,808.1518422346562,"[44, 0, 210]",210,a,0.01778884418308735,colour,0.5
146,21,0,1,13,37,637,808.6693744901568,809.199842620641,"[76, 0, 178]",178,l,0.014132773503661156,colour,0.5
146,21,0,1,13,38,638,809.7194583211094,810.2478205543011,"[2, 0, 252]",252,a,0.010280957445502281,colour,0.5
146,21,0,1,13,39,639,810.7574554085732,811.3440702352673,"[13, 0, 241]",241,a,0.07000535354018211,colour,0.5
146,21,0,1,13,40,640,811.8592563476413,812.4718461111188,"[96, 0, 158]",158,l,0.09346636943519115,colour,0.5
146,21,0,1,13,41,641,812.9738734327257,813.6718356348574,"[65, 0, 189]",189,l,0.1676807552576065,colour,0.5
146,21,0,1,13,42,642,814.1826157923788,814.8397956266999,"[58, 0, 196]",196,a,0.13493087887763977,colour,0.5
146,21,0,1,13,43,643,815.3545386623591,815.9039700869471,"[84, 0, 170]",170,l,0.027267538011074066,colour,0.5
146,21,0,1,13,44,644,816.417147193104,817.0478176400065,"[68, 0, 186]",186,l,0.10848844610154629,colour,0.5
146,21,0,1,13,45,645,817.5578510668129,818.1438428275287,"[15, 0, 239]",239,a,0.059982363134622574,colour,0.5
146,21,0,1,13,46,646,818.655465817079,819.2318020481616,"[59, 0, 195]",195,a,0.054004568606615067,colour,0.5
146,21,0,1,13,47,647,819.7492693178356,820.439825637266,"[75, 0, 179]",179,l,0.16824907436966896,colour,0.5
146,21,0,1,13,48,648,820.9525545462966,821.5918297432363,"[1, 0, 253]",253,a,0.11710107326507568,colour,0.5
146,21,0,1,13,49,649,822.1088421214372,822.69585669972,"[4, 0, 250]",250,a,0.06494954973459244,colour,0.5
146,21,0,1,13,50,650,823.2181544937193,823.7598153334111,"[42, 0, 212]",212,a,0.02506987750530243,colour,0.5
146,21,0,1,14,1,651,828.0958956126124,828.9757871311158,"[30, 0, 224]",224,a,0.3618976753205061,colour,0.5
146,21,0,1,14,2,652,829.4900744892657,830.4317852687091,"[2, 0, 252]",252,a,0.4105951674282551,colour,0.5
146,21,0,1,14,3,653,830.9445129968226,831.5358413718641,"[29, 0, 225]",225,a,0.07479018718004227,colour,0.5
146,21,0,1,14,4,654,832.0579004939646,832.6238502170891,"[77, 0, 177]",177,l,0.04979514144361019,colour,0.5
146,21,0,1,14,5,655,833.1354633588344,834.0718115307391,"[69, 0, 185]",185,l,0.39343174919486046,colour,0.5
146,21,0,1,14,6,656,834.5870082788169,835.1837906353176,"[7, 0, 247]",247,a,0.07455466873943806,colour,0.5
146,21,0,1,14,7,657,835.6965317521244,836.37582998164,"[13, 0, 241]",241,a,0.15706542134284973,colour,0.5
146,21,0,1,14,8,658,836.8840202074498,837.5117966756225,"[96, 0, 158]",158,l,0.10552829876542091,colour,0.5
146,21,0,1,14,9,659,838.0189148522913,838.6078273765743,"[90, 0, 164]",164,l,0.06670019589364529,colour,0.5
146,21,0,1,14,10,660,839.1126514002681,839.6958507932723,"[97, 0, 157]",157,l,0.06084882467985153,colour,0.5
146,21,0,1,14,11,661,840.2064671106637,840.7838257662952,"[84, 0, 170]",170,l,0.05502226576209068,colour,0.5
146,21,0,1,14,12,662,841.3010098617524,841.9357770960778,"[6, 0, 248]",248,a,0.11312834732234478,colour,0.5
146,21,0,1,14,13,663,842.4410804305226,842.9758363626897,"[86, 0, 168]",168,l,0.022092794999480247,colour,0.5
146,21,0,1,14,14,664,843.4887161143124,844.1197926178575,"[66, 0, 188]",188,l,0.11086137033998966,colour,0.5
146,21,0,1,14,15,665,844.6356935612857,845.2558152358979,"[17, 0, 237]",237,a,0.10343028046190739,colour,0.5
146,21,0,1,14,16,666,845.7636911738664,846.343799661845,"[81, 0, 173]",173,l,0.06367073208093643,colour,0.5
146,21,0,1,14,17,667,846.8611728027463,847.4718327205628,"[38, 0, 216]",216,a,0.09552421607077122,colour,0.5
146,21,0,1,14,18,668,847.9884000513703,848.5518145877868,"[59, 0, 195]",195,a,0.04669399745762348,colour,0.5
146,21,0,1,14,19,669,849.06995966658,849.9598021004349,"[55, 0, 199]",199,a,0.3738568127155304,colour,0.5
146,21,0,1,14,20,670,850.4774131253362,851.3277701269835,"[21, 0, 233]",233,a,0.3332028388977051,colour,0.5
146,21,0,1,14,21,671,851.840111490339,852.4478018078953,"[40, 0, 214]",214,a,0.090347895398736,colour,0.5
146,21,0,1,14,22,672,852.9585331287235,853.5758202932775,"[82, 0, 172]",172,l,0.09891011007130146,colour,0.5
146,21,0,1,14,23,673,854.0927034895867,854.823801536113,"[46, 0, 208]",208,a,0.21360241807997227,colour,0.5
146,21,0,1,14,24,674,855.3461485598236,856.0078170578927,"[1, 0, 253]",253,a,0.14700698666274548,colour,0.5
146,21,0,1,14,25,675,856.5183746926486,857.0798030626029,"[54, 0, 200]",200,a,0.047083904966712,colour,0.5
146,21,0,1,14,26,676,857.5960005726665,858.167786700651,"[56, 0, 198]",198,a,0.055747730657458305,colour,0.5
146,21,0,1,14,27,677,858.6773794125766,859.2718156278133,"[10, 0, 244]",244,a,0.07656092010438442,colour,0.5
146,21,0,1,14,28,678,859.7927085701376,860.3758150152862,"[87, 0, 167]",167,l,0.06669940799474716,colour,0.5
146,21,0,1,14,29,679,860.891690755263,861.471817754209,"[57, 0, 197]",197,a,0.06312486156821251,colour,0.5
146,21,0,1,14,30,680,861.990670574829,862.5278238467872,"[18, 0, 236]",236,a,0.019606050103902817,colour,0.5
146,21,0,1,14,31,681,863.0447736047208,863.7438121866435,"[49, 0, 205]",205,a,0.17855484411120415,colour,0.5
146,21,0,1,14,32,682,864.2595997042954,864.8639301192015,"[64, 0, 190]",190,a,0.08770282566547394,colour,0.5
146,21,0,1,14,33,683,865.3739076200873,866.0078509282321,"[93, 0, 161]",161,l,0.10369612649083138,colour,0.5
146,21,0,1,14,34,684,866.5156429763883,867.1038241274655,"[44, 0, 210]",210,a,0.07315099984407425,colour,0.5
146,21,0,1,14,35,685,867.6118339728564,868.2318083494902,"[76, 0, 178]",178,l,0.10540226846933365,colour,0.5
146,21,0,1,14,36,686,868.7391762249172,869.3518337290734,"[62, 0, 192]",192,a,0.09549664705991745,colour,0.5
146,21,0,1,14,37,687,869.8702942784876,870.7837725970894,"[91, 0, 163]",163,l,0.3974095955491066,colour,0.5
146,21,0,1,14,38,688,871.2932254932821,871.8239165395498,"[68, 0, 186]",186,a,0.013807849958539009,colour,0.5
146,21,0,1,14,39,689,872.3454967457801,873.0237993318588,"[24, 0, 230]",230,a,0.156604228541255,colour,0.5
146,21,0,1,14,40,690,873.5377913042903,874.2158233188093,"[98, 0, 156]",156,l,0.1603351328521967,colour,0.5
146,21,0,1,14,41,691,874.7306281886995,875.2718183845282,"[36, 0, 218]",218,a,0.01886443980038166,colour,0.5
146,21,0,1,14,42,692,875.7776660136878,876.3598118685186,"[12, 0, 242]",242,a,0.059859877452254295,colour,0.5
146,21,0,1,14,43,693,876.8714762106538,877.4397799503058,"[83, 0, 171]",171,l,0.04603824205696583,colour,0.5
146,21,0,1,14,44,694,877.9497157037258,878.4879867099226,"[0, 0, 254]",254,a,0.027976855635643005,colour,0.5
146,21,0,1,14,45,695,879.000325711444,879.5678212791681,"[25, 0, 229]",229,a,0.045228101313114166,colour,0.5
146,21,0,1,14,46,696,880.0785250309855,880.6158362366259,"[3, 0, 251]",251,a,0.014942914247512817,colour,0.5
146,21,0,1,14,47,697,881.1254510041326,881.6484466921538,"[47, 0, 207]",207,a,0.001011790707707405,colour,0.5
146,21,0,1,14,48,698,882.172439597547,883.063807791099,"[16, 0, 238]",238,a,0.3689459450542927,colour,0.5
146,21,0,1,14,49,699,883.5822108406574,884.2157599087805,"[92, 0, 162]",162,l,0.09132345207035542,colour,0.5
146,21,0,1,14,50,700,884.7269862946123,885.2798264566809,"[15, 0, 239]",239,a,0.03066958114504814,colour,0.5
146,21,0,1,15,1,701,889.4503476284444,890.0558115337044,"[46, 0, 208]",208,a,0.08249696716666222,colour,0.5
146,21,0,1,15,2,702,890.5761365517974,891.1438054125756,"[73, 0, 181]",181,l,0.04547622427344322,colour,0.5
146,21,0,1,15,3,703,891.6543764378875,892.5357960797846,"[79, 0, 175]",175,l,0.35921519063413143,colour,0.5
146,21,0,1,15,4,704,893.0451272781938,893.6238128002733,"[23, 0, 231]",231,a,0.06719171442091465,colour,0.5
146,21,0,1,15,5,705,894.1377252172679,894.6797830536962,"[40, 0, 214]",214,a,0.02047763206064701,colour,0.5
146,21,0,1,15,6,706,895.1926348432899,896.0317916497588,"[0, 0, 254]",254,a,0.32235119864344597,colour,0.5
146,21,0,1,15,7,707,896.5529894307256,897.191838093102,"[59, 0, 195]",195,l,0.12355069629848003,colour,0.5
146,21,0,1,15,8,708,897.7119122296572,898.2958236970007,"[6, 0, 248]",248,a,0.06683528609573841,colour,0.5
146,21,0,1,15,9,709,898.8111964929849,899.3997970912606,"[56, 0, 198]",198,a,0.07335737720131874,colour,0.5
146,21,0,1,15,10,710,899.9227474872023,900.4718012120575,"[93, 0, 161]",161,l,0.03163135424256325,colour,0.5
146,21,0,1,15,11,711,900.9900482986122,901.6237742044032,"[75, 0, 179]",179,l,0.11585179343819618,colour,0.5
146,21,0,1,15,12,712,902.1342176236212,902.7117968332022,"[52, 0, 202]",202,a,0.059873662889003754,colour,0.5
146,21,0,1,15,13,713,903.2295728791505,903.847801335156,"[95, 0, 159]",159,l,0.09435094706714153,colour,0.5
146,21,0,1,15,14,714,904.3649838548154,904.9917804338038,"[80, 0, 174]",174,l,0.09702319465577602,colour,0.5
146,21,0,1,15,15,715,905.5058358144015,906.0877926237881,"[72, 0, 182]",182,l,0.0656923446804285,colour,0.5
146,21,0,1,15,16,716,906.6031591184437,907.1998245026916,"[58, 0, 196]",196,a,0.07994484528899193,colour,0.5
146,21,0,1,15,17,717,907.7160133495927,908.3200385347009,"[44, 0, 210]",210,a,0.08729125745594501,colour,0.5
146,21,0,1,15,18,718,908.8286887723953,909.3598000537604,"[10, 0, 244]",244,a,0.015747148543596268,colour,0.5
146,21,0,1,15,19,719,909.8787221908569,910.4797765947878,"[90, 0, 164]",164,l,0.08411803841590881,colour,0.5
146,21,0,1,15,20,720,910.9916713386774,911.6637893598527,"[16, 0, 238]",238,a,0.1568169053643942,colour,0.5
146,21,0,1,15,21,721,912.1819761861116,912.7517934776843,"[25, 0, 229]",229,a,0.05210977420210838,colour,0.5
146,21,0,1,15,22,722,913.265945745632,913.9437993466854,"[55, 0, 199]",199,a,0.16093889623880386,colour,0.5
146,21,0,1,15,23,723,914.4582899287343,915.0797817949206,"[98, 0, 156]",156,l,0.09429856762290001,colour,0.5
146,21,0,1,15,24,724,915.588418642059,916.1518205739558,"[22, 0, 232]",232,a,0.04113013297319412,colour,0.5
146,21,0,1,15,25,725,916.6666085086763,917.2798118833452,"[47, 0, 207]",207,a,0.09093748219311237,colour,0.5
146,21,0,1,15,26,726,917.7917601894587,918.3518179748207,"[34, 0, 220]",220,a,0.03802583925426006,colour,0.5
146,21,0,1,15,27,727,918.8621901087463,919.4158246573061,"[85, 0, 169]",169,l,0.031394653022289276,colour,0.5
146,21,0,1,15,28,728,919.9247856400907,920.4718173593283,"[32, 0, 222]",222,a,0.024939119815826416,colour,0.5
146,21,0,1,15,29,729,920.987429222092,921.8797725774348,"[29, 0, 225]",225,a,0.3701806515455246,colour,0.5
146,21,0,1,15,30,730,922.3936239480972,922.9838038682938,"[71, 0, 183]",183,l,0.06781596131622791,colour,0.5
146,21,0,1,15,31,731,923.5031659323722,925.063793219626,"[54, 0, 200]",200,a,1.0386327560991049,colour,0.5
146,21,0,1,15,32,732,925.5717774629593,926.1198166422546,"[18, 0, 236]",236,a,0.025799674913287163,colour,0.5
146,21,0,1,15,33,733,926.6343985963613,927.215803232044,"[87, 0, 167]",167,l,0.059182461351156235,colour,0.5
146,21,0,1,15,34,734,927.7281788606197,928.3518140353262,"[67, 0, 187]",187,l,0.10132596082985401,colour,0.5
146,21,0,1,15,35,735,928.8572142571211,929.4318053554744,"[1, 0, 253]",253,a,0.05244060419499874,colour,0.5
146,21,0,1,15,36,736,929.9509610440582,930.5518031660467,"[26, 0, 228]",228,a,0.07865578681230545,colour,0.5
146,21,0,1,15,37,737,931.0604258347303,931.6398088596761,"[83, 0, 171]",171,l,0.05710925720632076,colour,0.5
146,21,0,1,15,38,738,932.1542895957828,932.8238023240119,"[15, 0, 239]",239,a,0.1472964622080326,colour,0.5
146,21,0,1,15,39,739,933.3418962042779,935.2957917954773,"[89, 0, 165]",165,l,1.4410390760749578,colour,0.5
146,21,0,1,15,40,740,935.8190808985382,936.4398071262985,"[51, 0, 203]",203,a,0.10461694002151489,colour,0.5
146,21,0,1,15,41,741,936.9615039099008,937.5438159666955,"[82, 0, 172]",172,l,0.052830906584858894,colour,0.5
146,21,0,1,15,42,742,938.0544519778341,938.5997937042266,"[43, 0, 211]",211,a,0.030854688957333565,colour,0.5
146,21,0,1,15,43,743,939.1187914609909,939.8157962225378,"[53, 0, 201]",201,a,0.17914718948304653,colour,0.5
146,21,0,1,15,44,744,940.326882397756,940.9118198342621,"[12, 0, 242]",242,a,0.06975644268095493,colour,0.5
146,21,0,1,15,45,745,941.4231805205345,942.2397754620761,"[68, 0, 186]",186,l,0.2976570501923561,colour,0.5
146,21,0,1,15,46,746,942.7563286144286,943.3437610659748,"[35, 0, 219]",219,a,0.055507879704236984,colour,0.5
146,21,0,1,15,47,747,943.861062919721,944.4398035816848,"[31, 0, 223]",223,a,0.06165305897593498,colour,0.5
146,21,0,1,15,48,748,944.9550645258278,945.5198271963745,"[33, 0, 221]",221,a,0.04808387905359268,colour,0.5
146,21,0,1,15,49,749,946.0376453846693,946.5758009944111,"[42, 0, 212]",212,a,0.02342478185892105,colour,0.5
146,21,0,1,15,50,750,947.0854811407626,947.6398699060082,"[14, 0, 240]",240,a,0.03895570896565914,colour,0.5
146,21,0,1,16,1,751,951.9887938983738,952.5117872226983,"[99, 0, 155]",155,l,0.007381068542599678,colour,0.5
146,21,0,1,16,2,752,953.0218612141907,953.5757946930826,"[34, 0, 220]",220,a,0.024412548169493675,colour,0.5
146,21,0,1,16,3,753,954.0925238970667,954.7038088459522,"[2, 0, 252]",252,a,0.09433361701667309,colour,0.5
146,21,0,1,16,4,754,955.2701866794378,955.831802520901,"[98, 0, 156]",156,l,0.04461449012160301,colour,0.5
146,21,0,1,16,5,755,956.3510015308857,956.9118021111935,"[1, 0, 253]",253,a,0.03241904638707638,colour,0.5
146,21,0,1,16,6,756,957.4283332079649,958.6557911336422,"[42, 0, 212]",212,a,0.7100213747471571,colour,0.5
146,21,0,1,16,7,757,959.1789207290858,959.8717893175781,"[69, 0, 185]",185,l,0.17758558876812458,colour,0.5
146,21,0,1,16,8,758,960.382885735482,960.9358046650887,"[66, 0, 188]",188,l,0.0351606085896492,colour,0.5
146,21,0,1,16,9,759,961.4500691797584,961.9917658604681,"[50, 0, 204]",204,a,0.02528255432844162,colour,0.5
146,21,0,1,16,10,760,962.5044888611883,963.1278093531728,"[49, 0, 205]",205,a,0.10667242109775543,colour,0.5
146,21,0,1,16,11,761,963.6408218313009,964.19978078641,"[83, 0, 171]",171,l,0.040541334077715874,colour,0.5
146,21,0,1,16,12,762,964.7083723414689,965.3278024215251,"[77, 0, 177]",177,l,0.1011778749525547,colour,0.5
146,21,0,1,16,13,763,965.8450719825923,966.3758469168097,"[15, 0, 239]",239,a,0.008480686694383621,colour,0.5
146,21,0,1,16,14,764,966.8920684531331,967.4237752277404,"[40, 0, 214]",214,a,0.009715395048260689,colour,0.5
146,21,0,1,16,15,765,967.9389806408435,968.4797639921308,"[35, 0, 219]",219,a,0.018496980890631676,colour,0.5
146,21,0,1,16,16,766,968.9858979489654,969.9917697999626,"[67, 0, 187]",187,l,0.4815760776400566,colour,0.5
146,21,0,1,16,17,767,970.5037677288055,971.383756134659,"[85, 0, 169]",169,l,0.35773275420069695,colour,0.5
146,21,0,1,16,18,768,971.8945473209023,972.4478104729205,"[90, 0, 164]",164,l,0.031042948365211487,colour,0.5
146,21,0,1,16,19,769,972.9570443909615,973.5678051318973,"[55, 0, 199]",199,a,0.08851336129009724,colour,0.5
146,21,0,1,16,20,770,974.0819956026971,974.631768098101,"[59, 0, 195]",195,a,0.026599576696753502,colour,0.5
146,21,0,1,16,21,771,975.1504866164178,975.7357958443463,"[45, 0, 209]",209,a,0.07036099582910538,colour,0.5
146,21,0,1,16,22,772,976.2452404685318,977.4557886123657,"[64, 0, 190]",190,l,0.6942080594599247,colour,0.5
146,21,0,1,16,23,773,977.9772297907621,978.8078157193959,"[16, 0, 238]",238,a,0.3162048365920782,colour,0.5
146,21,0,1,16,24,774,979.3227962441742,979.8798237778246,"[25, 0, 229]",229,a,0.0401703305542469,colour,0.5
146,21,0,1,16,25,775,980.3891278002411,980.9197802506387,"[29, 0, 225]",225,a,0.012647578492760658,colour,0.5
146,21,0,1,16,26,776,981.4426542390138,982.0077918507159,"[12, 0, 242]",242,a,0.0483426358550787,colour,0.5
146,21,0,1,16,27,777,982.5241697430611,983.0638136994094,"[0, 0, 254]",254,a,0.023235343396663666,colour,0.5
146,21,0,1,16,28,778,983.5748656112701,984.111769579351,"[63, 0, 191]",191,l,0.024080932140350342,colour,0.5
146,21,0,1,16,29,779,984.6261416133493,985.1678272653371,"[24, 0, 230]",230,a,0.02462325617671013,colour,0.5
146,21,0,1,16,30,780,985.6798374056816,986.4317899961025,"[58, 0, 196]",196,l,0.22961935214698315,colour,0.5
146,21,0,1,16,31,781,986.9456114321947,987.9037771020085,"[13, 0, 241]",241,a,0.43583873100578785,colour,0.5
146,21,0,1,16,32,782,988.4144855812192,989.039766639471,"[44, 0, 210]",210,a,0.10365083627402782,colour,0.5
146,21,0,1,16,33,783,989.5582571215928,990.2317996844649,"[38, 0, 216]",216,a,0.15142239443957806,colour,0.5
146,21,0,1,16,34,784,990.7457546349615,991.439777193591,"[19, 0, 235]",235,a,0.1716790795326233,colour,0.5
146,21,0,1,16,35,785,991.9491068162024,992.5597848501056,"[87, 0, 167]",167,l,0.0886019766330719,colour,0.5
146,21,0,1,16,36,786,993.0741872098297,993.6078833024949,"[7, 0, 247]",247,a,0.011614520102739334,colour,0.5
146,21,0,1,16,37,787,994.1211013682187,994.6797929015011,"[74, 0, 180]",180,l,0.03496880643069744,colour,0.5
146,21,0,1,16,38,788,995.1955138575286,995.9197448045015,"[97, 0, 157]",157,l,0.2081078737974167,colour,0.5
146,21,0,1,16,39,789,996.4395042583346,997.1837800014764,"[23, 0, 231]",231,a,0.22195392474532127,colour,0.5
146,21,0,1,16,40,790,997.6896618958563,999.6797936875373,"[27, 0, 227]",227,a,1.4679269473999739,colour,0.5
146,21,0,1,16,41,791,1000.1941755693406,1001.0397473406047,"[80, 0, 174]",174,l,0.3233495969325304,colour,0.5
146,21,0,1,16,42,792,1001.5536825992167,1002.1117617022246,"[82, 0, 172]",172,l,0.03577776625752449,colour,0.5
146,21,0,1,16,43,793,1002.6318110264838,1003.1997508537024,"[6, 0, 248]",248,a,0.04567866213619709,colour,0.5
146,21,0,1,16,44,794,1003.7100954186171,1004.2397845201194,"[96, 0, 158]",158,l,0.007492527365684509,colour,0.5
146,21,0,1,16,45,795,1004.7577779684216,1005.5197606366128,"[79, 0, 175]",175,l,0.24493799544870853,colour,0.5
146,21,0,1,16,46,796,1006.0296369176358,1006.5918021742254,"[3, 0, 251]",251,a,0.03977175988256931,colour,0.5
146,21,0,1,16,47,797,1007.1078862566501,1007.6797732077539,"[62, 0, 192]",192,l,0.04975299909710884,colour,0.5
146,21,0,1,16,48,798,1008.186093846336,1009.1517461370677,"[76, 0, 178]",178,l,0.44345965422689915,colour,0.5
146,21,0,1,16,49,799,1009.6585523877293,1010.3037459105253,"[18, 0, 236]",236,a,0.12314188294112682,colour,0.5
146,21,0,1,16,50,800,1010.8148230277002,1011.4957403577864,"[57, 0, 197]",197,a,0.158669950440526,colour,0.5
