id,age,condition,counterbalance,block,trialinblock,trial,tstart,tend,trialstim,trialintensity,response,RT,trialtype,colourfreq
112,26,1,1,Practice,1,NA,5.907728336751461e-06,2.003036158159375,"[23, 0, 231]",231,a,1.4787122340640053,colour,0.5
112,26,1,1,Practice,2,NA,2.5162949811201543,4.418970927828923,"[58, 0, 196]",196,a,1.3799514308338985,colour,0.5
112,26,1,1,Practice,3,NA,4.938186670420691,7.842988991178572,"[24, 0, 230]",230,a,2.3819533496862277,colour,0.5
112,26,1,1,Practice,4,NA,8.360106322681531,10.218974787509069,"[42, 0, 212]",212,a,1.3355492417467758,colour,0.5
112,26,1,1,Practice,5,NA,10.736056279041804,12.211037610773928,"[94, 0, 160]",160,l,0.952580951154232,colour,0.5
112,26,1,1,Practice,6,NA,12.719588399515487,14.06699909886811,"[36, 0, 218]",218,a,0.8245940236374736,colour,0.5
112,26,1,1,Practice,7,NA,14.57870616891887,16.490980534581468,"[51, 0, 203]",203,a,1.3890933824004605,colour,0.5
112,26,1,1,Practice,8,NA,17.00060376583133,18.87496179691516,"[99, 0, 155]",155,l,1.3509356203721836,colour,0.5
112,26,1,1,Practice,9,NA,19.39140368264634,20.938965697656386,"[29, 0, 225]",225,a,1.0243546441197395,colour,0.5
112,26,1,1,Practice,10,NA,21.490172362769954,25.242995450273156,"[73, 0, 181]",181,a,3.2345317014260218,colour,0.5
112,26,1,1,1,1,1,4.395512283314019,5.328001972404309,"[56, 0, 198]",198,a,0.4087978877360001,colour,0.5
112,26,1,1,1,2,2,5.850118784001097,6.800012918189168,"[66, 0, 188]",188,a,0.4274106521625072,colour,0.5
112,26,1,1,1,3,3,7.318165670498274,8.27215462073218,"[90, 0, 164]",164,l,0.4307610993273556,colour,0.5
112,26,1,1,1,4,4,8.786930932081304,9.640183547977358,"[73, 0, 181]",181,a,0.33014764497056603,colour,0.5
112,26,1,1,1,5,5,10.146201119758189,11.144015274941921,"[50, 0, 204]",204,a,0.4746623164974153,colour,0.5
112,26,1,1,1,6,6,11.661946685868315,12.71997712540906,"[93, 0, 161]",161,l,0.5349093208787963,colour,0.5
112,26,1,1,1,7,7,13.240029396722093,14.26397129020188,"[39, 0, 215]",215,a,0.500825107214041,colour,0.5
112,26,1,1,1,8,8,14.771267285919748,15.93597443785984,"[77, 0, 177]",177,l,0.6416904024081305,colour,0.5
112,26,1,1,1,9,9,16.443129042861983,17.415978092700243,"[24, 0, 230]",230,a,0.45013871253468096,colour,0.5
112,26,1,1,1,10,10,17.927477605990134,19.096227980102412,"[51, 0, 203]",203,a,0.645945513737388,colour,0.5
112,26,1,1,1,11,11,19.614888006006368,20.608018151600845,"[46, 0, 208]",208,a,0.4707435496384278,colour,0.5
112,26,1,1,1,12,12,21.1148383814143,22.27194785163738,"[8, 0, 246]",246,a,0.6342439575819299,colour,0.5
112,26,1,1,1,13,13,22.786908876732923,23.7361496204976,"[31, 0, 223]",223,a,0.425823452998884,colour,0.5
112,26,1,1,1,14,14,24.25557331368327,25.288011251366697,"[35, 0, 219]",219,a,0.5091198961017653,colour,0.5
112,26,1,1,1,15,15,25.802428769064136,26.704007067135535,"[96, 0, 158]",158,l,0.37827601027674973,colour,0.5
112,26,1,1,1,16,16,27.2243598428322,28.26394450874068,"[75, 0, 179]",179,l,0.5164091965416446,colour,0.5
112,26,1,1,1,17,17,28.771348024369217,29.711998988641426,"[38, 0, 216]",216,a,0.41744438104797155,colour,0.5
112,26,1,1,1,18,18,30.224307855241932,31.152016648673452,"[63, 0, 191]",191,a,0.40470346552319825,colour,0.5
112,26,1,1,1,19,19,31.66186043363996,32.616002196096815,"[13, 0, 241]",241,a,0.4313361144158989,colour,0.5
112,26,1,1,1,20,20,33.13060245825909,33.88795989390928,"[4, 0, 250]",250,a,0.23437770770397037,colour,0.5
112,26,1,1,1,21,21,34.396210572100244,35.27994804386981,"[3, 0, 251]",251,a,0.3605356146581471,colour,0.5
112,26,1,1,1,22,22,35.78683522751089,36.70396650105249,"[82, 0, 172]",172,l,0.3938904257956892,colour,0.5
112,26,1,1,1,23,23,37.22427398443688,38.111929829232395,"[89, 0, 165]",165,l,0.36413379095029086,colour,0.5
112,26,1,1,1,24,24,38.6306115166517,39.432021406362765,"[97, 0, 157]",157,l,0.27808239578735083,colour,0.5
112,26,1,1,1,25,25,39.94309911050368,40.78398693376221,"[28, 0, 226]",226,a,0.3175493016606197,colour,0.5
112,26,1,1,1,26,26,41.30236457218416,42.199962269631214,"[21, 0, 233]",233,a,0.3741036066785455,colour,0.5
112,26,1,1,1,27,27,42.708719827467576,43.53594710491598,"[99, 0, 155]",155,l,0.3039895803667605,colour,0.5
112,26,1,1,1,28,28,44.05250714439899,44.9999732185388,"[10, 0, 244]",244,a,0.42428430321160704,colour,0.5
112,26,1,1,1,29,29,45.52119048591703,46.32794683391694,"[78, 0, 176]",176,l,0.2834032541140914,colour,0.5
112,26,1,1,1,30,30,46.84931730746757,47.7199664915679,"[11, 0, 243]",243,a,0.3471964471973479,colour,0.5
112,26,1,1,1,31,31,48.24000182747841,49.12793454597704,"[1, 0, 253]",253,a,0.3646835999097675,colour,0.5
112,26,1,1,1,32,32,49.64620269520674,50.68002736440394,"[64, 0, 190]",190,l,0.5104633045848459,colour,0.5
112,26,1,1,1,33,33,51.19308690133039,52.3519481982803,"[67, 0, 187]",187,l,0.6353888676967472,colour,0.5
112,26,1,1,1,34,34,52.86489194445312,53.752005069633015,"[18, 0, 236]",236,a,0.3638092620531097,colour,0.5
112,26,1,1,1,35,35,54.271175125963055,55.231969339889474,"[44, 0, 210]",210,a,0.4375734522473067,colour,0.5
112,26,1,1,1,36,36,55.73994275054429,56.607960650115274,"[83, 0, 171]",171,l,0.3445805226219818,colour,0.5
112,26,1,1,1,37,37,57.11491990752984,58.007945841527544,"[36, 0, 218]",218,a,0.3694341694936156,colour,0.5
112,26,1,1,1,38,38,58.52128107054159,59.43200644024182,"[32, 0, 222]",222,a,0.38744277425576,colour,0.5
112,26,1,1,1,39,39,59.94309320289176,60.919950422714464,"[95, 0, 159]",159,l,0.45360298128798604,colour,0.5
112,26,1,1,1,40,40,61.42754259053618,62.41628608026076,"[16, 0, 238]",238,a,0.46553572500124574,colour,0.5
112,26,1,1,1,41,41,62.9274216798367,64.03195587033406,"[55, 0, 199]",199,a,0.5811511643696576,colour,0.5
112,26,1,1,1,42,42,64.55251147667877,65.61595808540005,"[19, 0, 235]",235,a,0.5400608256459236,colour,0.5
112,26,1,1,1,43,43,66.13062884588726,67.02394819515757,"[91, 0, 163]",163,l,0.3700375414919108,colour,0.5
112,26,1,1,1,44,44,67.5367698490154,68.43198359711096,"[60, 0, 194]",194,a,0.3721461924724281,colour,0.5
112,26,1,1,1,45,45,68.94307154137641,69.79194459063001,"[48, 0, 206]",206,a,0.325442761532031,colour,0.5
112,26,1,1,1,46,46,70.30241892288905,71.19994021416642,"[15, 0, 239]",239,a,0.3741965543013066,colour,0.5
112,26,1,1,1,47,47,71.70866941520944,72.58390493504703,"[85, 0, 169]",169,l,0.3517433983506635,colour,0.5
112,26,1,1,1,48,48,73.09940277202986,73.90399926900864,"[17, 0, 237]",237,a,0.2812898769043386,colour,0.5
112,26,1,1,1,49,49,74.41180568910204,75.31192321272101,"[37, 0, 217]",217,a,0.3766053160652518,colour,0.5
112,26,1,1,1,50,50,75.81804397213273,76.61591161158867,"[84, 0, 170]",170,l,0.2745818932307884,colour,0.5
112,26,1,1,2,1,51,88.09850637870841,89.26395986869466,"[82, 0, 172]",172,l,0.6414245564956218,colour,0.5
112,26,1,1,2,2,52,89.77119836292695,90.77602336928248,"[61, 0, 193]",193,l,0.48174760467372835,colour,0.5
112,26,1,1,2,3,53,91.2868486182997,92.11993356607854,"[10, 0, 244]",244,a,0.30985512770712376,colour,0.5
112,26,1,1,2,4,54,92.63049611984752,93.46391623059753,"[48, 0, 206]",206,a,0.3101828075014055,colour,0.5
112,26,1,1,2,5,55,93.97423735680059,94.81589121033903,"[76, 0, 178]",178,l,0.31848468573298305,colour,0.5
112,26,1,1,2,6,56,95.33364578441251,96.1119176200591,"[27, 0, 227]",227,a,0.2549211047589779,colour,0.5
112,26,1,1,2,7,57,96.63053235365078,97.48789160104934,"[28, 0, 226]",226,a,0.3341207626508549,colour,0.5
112,26,1,1,2,8,58,98.00550832902081,98.8719236694742,"[12, 0, 242]",242,a,0.34302364964969456,colour,0.5
112,26,1,1,2,9,59,99.38049966446124,100.27991299156565,"[77, 0, 177]",177,l,0.3762051685480401,colour,0.5
112,26,1,1,2,10,60,100.78680765826721,101.55191519390792,"[15, 0, 239]",239,a,0.24185999250039458,colour,0.5
112,26,1,1,2,11,61,102.06795535678975,102.91990670585074,"[75, 0, 179]",179,l,0.32868017512373626,colour,0.5
112,26,1,1,2,12,62,103.42741971055511,104.18389059905894,"[51, 0, 203]",203,a,0.2330811668653041,colour,0.5
112,26,1,1,2,13,63,104.69299631682225,105.67197360924911,"[0, 0, 254]",254,a,0.45561435248237103,colour,0.5
112,26,1,1,2,14,64,106.19291754753795,107.35992121510208,"[66, 0, 188]",188,a,0.6435324198100716,colour,0.5
112,26,1,1,2,15,65,107.88054298749194,108.81590617645998,"[64, 0, 190]",190,a,0.4120392396580428,colour,0.5
112,26,1,1,2,16,66,109.33353393222205,110.12791800440755,"[40, 0, 214]",214,a,0.27091715682763606,colour,0.5
112,26,1,1,2,17,67,110.646069969167,111.37590702716261,"[97, 0, 157]",157,l,0.20663086872082204,colour,0.5
112,26,1,1,2,18,68,111.89621214743238,112.71194503176957,"[13, 0, 241]",241,a,0.29279096552636474,colour,0.5
112,26,1,1,2,19,69,113.22421687678434,114.03193302731961,"[45, 0, 209]",209,a,0.28430004126857966,colour,0.5
112,26,1,1,2,20,70,114.55235315067694,115.34392713219859,"[58, 0, 196]",196,a,0.2683288014959544,colour,0.5
112,26,1,1,2,21,71,115.86493290448561,116.94391752243973,"[73, 0, 181]",181,l,0.5557835486251861,colour,0.5
112,26,1,1,2,22,72,117.45861939678434,118.27996419160627,"[80, 0, 174]",174,l,0.2980373870814219,colour,0.5
112,26,1,1,2,23,73,118.78673322137911,119.55196954472922,"[8, 0, 246]",246,a,0.24192458321340382,colour,0.5
112,26,1,1,2,24,74,120.06796008290257,120.89590415998828,"[5, 0, 249]",249,a,0.30457798624411225,colour,0.5
112,26,1,1,2,25,75,121.41169856290799,122.21586616174318,"[6, 0, 248]",248,a,0.28094171709381044,colour,0.5
112,26,1,1,2,26,76,122.72419403376989,123.53604280948639,"[36, 0, 218]",218,a,0.28857169416733086,colour,0.5
112,26,1,1,2,27,77,124.05235275672749,124.7839046199806,"[22, 0, 232]",232,a,0.20861782133579254,colour,0.5
112,26,1,1,2,28,78,125.30301126721315,126.0958955740789,"[7, 0, 247]",247,a,0.27060680626891553,colour,0.5
112,26,1,1,2,29,79,126.61483877524734,127.31991670944262,"[43, 0, 211]",211,a,0.18176028644666076,colour,0.5
112,26,1,1,2,30,80,127.83346185844857,128.59987381182145,"[96, 0, 158]",158,l,0.24301711190491915,colour,0.5
112,26,1,1,2,31,81,129.11475370451808,129.8799356770469,"[72, 0, 182]",182,l,0.2418536909390241,colour,0.5
112,26,1,1,2,32,82,130.39607390761375,130.9598682821961,"[3, 0, 251]",251,a,0.04048893612343818,colour,0.5
112,26,1,1,2,33,83,131.4741885198746,132.77591978781857,"[83, 0, 171]",171,l,0.7784679709002376,colour,0.5
112,26,1,1,2,34,84,133.28666232910473,134.1439160257578,"[79, 0, 175]",175,l,0.3340695626102388,colour,0.5
112,26,1,1,2,35,85,134.66163712297566,135.51192683610134,"[88, 0, 166]",166,l,0.3269945145584643,colour,0.5
112,26,1,1,2,36,86,136.02100813528523,136.91189784894232,"[69, 0, 185]",185,l,0.36762681044638157,colour,0.5
112,26,1,1,2,37,87,137.42715780308936,138.18392880214378,"[81, 0, 173]",173,l,0.23322846530936658,colour,0.5
112,26,1,1,2,38,88,138.69288958457764,139.45619960746262,"[38, 0, 216]",216,a,0.24022513814270496,colour,0.5
112,26,1,1,2,39,89,139.97410069219768,140.52790595276747,"[9, 0, 245]",245,a,0.030469889752566814,colour,0.5
112,26,1,1,2,40,90,141.03659222461283,142.00795017380733,"[99, 0, 155]",155,l,0.4482482521561906,colour,0.5
112,26,1,1,2,41,91,142.52102507068776,143.2878765561618,"[85, 0, 169]",169,l,0.24369649612344801,colour,0.5
112,26,1,1,2,42,92,143.80222318146843,144.5838690950768,"[25, 0, 229]",229,a,0.25836056121625006,colour,0.5
112,26,1,1,2,43,93,145.0991243229946,145.84790852060542,"[93, 0, 161]",161,l,0.22534682066179812,colour,0.5
112,26,1,1,2,44,94,146.3647938767681,147.38396944699343,"[60, 0, 194]",194,l,0.4960197930922732,colour,0.5
112,26,1,1,2,45,95,147.89603964297567,148.63993975729682,"[4, 0, 250]",250,a,0.22075457719620317,colour,0.5
112,26,1,1,2,46,96,149.14607351378072,149.71989126701374,"[37, 0, 217]",217,a,0.05058714549522847,colour,0.5
112,26,1,1,2,47,97,150.23978442454245,150.98388421873096,"[52, 0, 202]",202,a,0.22068092809058726,colour,0.5
112,26,1,1,2,48,98,151.5054693382699,152.16787327930797,"[95, 0, 159]",159,l,0.13906738860532641,colour,0.5
112,26,1,1,2,49,99,152.67721451690886,153.38387295475695,"[34, 0, 220]",220,a,0.1831044825958088,colour,0.5
112,26,1,1,2,50,100,153.8960534275975,156.18392092525028,"[16, 0, 238]",238,a,1.76475976977963,colour,0.5
112,26,1,1,3,1,101,170.2390546280658,171.07986998360138,"[30, 0, 224]",224,a,0.31675136974081397,colour,0.5
112,26,1,1,3,2,102,171.599219633732,172.49585989164189,"[33, 0, 221]",221,a,0.37335884396452457,colour,0.5
112,26,1,1,3,3,103,173.00558670435566,173.86388212349266,"[80, 0, 174]",174,l,0.33500100823584944,colour,0.5
112,26,1,1,3,4,104,174.3804925752338,175.28787261759862,"[16, 0, 238]",238,a,0.3841096560936421,colour,0.5
112,26,1,1,3,5,105,175.80240041215438,176.63189978676382,"[21, 0, 233]",233,a,0.3061525822849944,colour,0.5
112,26,1,1,3,6,106,177.14610502135474,177.90387363219634,"[90, 0, 164]",164,l,0.23447104915976524,colour,0.5
112,26,1,1,3,7,107,178.41174503671937,179.08788947423454,"[91, 0, 163]",163,l,0.15287090046331286,colour,0.5
112,26,1,1,3,8,108,179.59928934439085,180.35195528750774,"[32, 0, 222]",222,a,0.22939122456591576,colour,0.5
112,26,1,1,3,9,109,180.86481435678434,181.55988427228294,"[17, 0, 237]",237,a,0.17171721544582397,colour,0.5
112,26,1,1,3,10,110,182.0679636275163,183.22390770772472,"[72, 0, 182]",182,a,0.63249173713848,colour,0.5
112,26,1,1,3,11,111,183.73978245526087,184.5838379812194,"[8, 0, 246]",246,a,0.32064768741838634,colour,0.5
112,26,1,1,3,12,112,185.09914598450996,186.3199151341105,"[83, 0, 171]",171,l,0.6972860865062103,colour,0.5
112,26,1,1,3,13,113,186.83357961836737,187.98391415108927,"[34, 0, 220]",220,a,0.6269885280635208,colour,0.5
112,26,1,1,3,14,114,188.50547170138452,189.3598424459342,"[37, 0, 217]",217,a,0.33116691827308387,colour,0.5
112,26,1,1,3,15,115,189.8803870244883,190.8399362914497,"[24, 0, 230]",230,a,0.4360378469573334,colour,0.5
112,26,1,1,3,16,116,191.3492330245208,192.5278720819624,"[71, 0, 183]",183,a,0.6551851390395314,colour,0.5
112,26,1,1,3,17,117,193.03677142446395,194.11992568918504,"[93, 0, 161]",161,l,0.559921687701717,colour,0.5
112,26,1,1,3,18,118,194.63048312289175,195.7838735061232,"[22, 0, 232]",232,a,0.6300802185432985,colour,0.5
112,26,1,1,3,19,119,196.30239686754066,197.24785117665306,"[31, 0, 223]",223,a,0.4222000705776736,colour,0.5
112,26,1,1,3,20,120,197.75548430450726,198.67190626158845,"[54, 0, 200]",200,a,0.3930397186195478,colour,0.5
112,26,1,1,3,21,121,199.19292384909932,200.39194285764825,"[87, 0, 167]",167,l,0.6754536316730082,colour,0.5
112,26,1,1,3,22,122,200.91171904292423,201.71983770397492,"[11, 0, 243]",243,a,0.28551426820922643,colour,0.5
112,26,1,1,3,23,123,202.2399273905903,203.07185955136083,"[47, 0, 207]",207,a,0.3067504402715713,colour,0.5
112,26,1,1,3,24,124,203.58367414132226,204.84784235456027,"[78, 0, 176]",176,l,0.7409702945733443,colour,0.5
112,26,1,1,3,25,125,205.36492030136287,206.12789988750592,"[48, 0, 206]",206,a,0.23971510760020465,colour,0.5
112,26,1,1,3,26,126,206.64607351378072,207.39185306080617,"[57, 0, 197]",197,a,0.22231853939592838,colour,0.5
112,26,1,1,3,27,127,207.91172376903705,208.6958776934771,"[70, 0, 184]",184,a,0.2615790700074285,colour,0.5
112,26,1,1,3,28,128,209.20868083671667,210.31981273414567,"[98, 0, 156]",156,l,0.5878374865278602,colour,0.5
112,26,1,1,3,29,129,210.8336843813304,211.567878162954,"[69, 0, 185]",185,a,0.2110206752549857,colour,0.5
112,26,1,1,3,30,130,212.08365602442063,212.81583843496628,"[61, 0, 193]",193,a,0.2089474704116583,colour,0.5
112,26,1,1,3,31,131,213.3335611076327,214.44792332919315,"[85, 0, 169]",169,l,0.5910122784553096,colour,0.5
112,26,1,1,3,32,132,214.95865641825367,216.07183158840053,"[1, 0, 253]",253,a,0.589764574659057,colour,0.5
112,26,1,1,3,33,133,216.5836213659495,217.3759156918386,"[28, 0, 226]",226,a,0.2690101549960673,colour,0.5
112,26,1,1,3,34,134,217.89606878755149,218.70387079648208,"[45, 0, 209]",209,a,0.2849030193174258,colour,0.5
112,26,1,1,3,35,135,219.2241451968439,219.92802820249926,"[49, 0, 205]",205,a,0.1805492101702839,colour,0.5
112,26,1,1,3,36,136,220.4428671352798,221.73584242071956,"[66, 0, 188]",188,l,0.7698502283310518,colour,0.5
112,26,1,1,3,37,137,222.25530943693593,223.77587646478787,"[74, 0, 180]",180,l,0.9972044817404822,colour,0.5
112,26,1,1,3,38,138,224.28659143683035,225.45587862306274,"[41, 0, 213]",213,a,0.6463117905659601,colour,0.5
112,26,1,1,3,39,139,225.97408887685742,226.76786288176663,"[2, 0, 252]",252,a,0.2708525661146268,colour,0.5
112,26,1,1,3,40,140,227.28663397219498,227.9918678693939,"[29, 0, 225]",225,a,0.1821045078104362,colour,0.5
112,26,1,1,3,41,141,228.50528541230597,229.12782387528569,"[51, 0, 203]",203,a,0.0990577630000189,colour,0.5
112,26,1,1,3,42,142,229.64596678153612,230.7118698072154,"[81, 0, 173]",173,l,0.542523150332272,colour,0.5
112,26,1,1,3,43,143,231.22407706151716,233.46385518449824,"[64, 0, 190]",190,a,1.7169291519094259,colour,0.5
112,26,1,1,3,44,144,233.97401325847022,236.0320551195182,"[19, 0, 235]",235,a,1.5350125085096806,colour,0.5
112,26,1,1,3,45,145,236.55229919368867,237.44813679368235,"[25, 0, 229]",229,a,0.3726700075203553,colour,0.5
112,26,1,1,3,46,146,237.95837796921842,238.7920221782988,"[9, 0, 245]",245,a,0.3107936625601724,colour,0.5
112,26,1,1,3,47,147,239.30218812916428,240.23984113836195,"[50, 0, 204]",204,a,0.41427510301582515,colour,0.5
112,26,1,1,3,48,148,240.75522200309206,241.56788722146302,"[60, 0, 194]",194,a,0.2897051826585084,colour,0.5
112,26,1,1,3,49,149,242.08349060919136,242.91988661966752,"[88, 0, 166]",166,l,0.31395978992804885,colour,0.5
112,26,1,1,3,50,150,243.42706249235198,244.15187919640448,"[59, 0, 195]",195,a,0.2016782561549917,colour,0.5
112,26,1,1,4,1,151,252.05137838202063,253.58384310128167,"[42, 0, 212]",212,a,1.0089918962912634,colour,0.5
112,26,1,1,4,2,152,254.09894984925631,254.88785631244536,"[39, 0, 215]",215,a,0.2658759291516617,colour,0.5
112,26,1,1,4,3,153,255.39576946466696,256.12787783215754,"[87, 0, 167]",167,l,0.2086954090045765,colour,0.5
112,26,1,1,4,4,154,256.6458021538565,257.32807365234476,"[31, 0, 223]",223,a,0.15911926596891135,colour,0.5
112,26,1,1,4,5,155,257.84893133852165,258.5598334661918,"[58, 0, 196]",196,a,0.18765064608305693,colour,0.5
112,26,1,1,4,6,156,259.06772889534477,259.6558180495631,"[48, 0, 206]",206,a,0.06456316192634404,colour,0.5
112,26,1,1,4,7,157,260.17736969213,260.8718622295419,"[84, 0, 170]",170,l,0.17129068030044436,colour,0.5
112,26,1,1,4,8,158,261.38025075383484,262.1198228953872,"[75, 0, 179]",179,l,0.21695711486972868,colour,0.5
112,26,1,1,4,9,159,262.6302113692509,263.35982866131235,"[77, 0, 177]",177,l,0.206256321282126,colour,0.5
112,26,1,1,4,10,160,263.88016292615794,264.5197954836767,"[41, 0, 213]",213,a,0.116225506644696,colour,0.5
112,26,1,1,4,11,161,265.03645595384296,265.5838143505389,"[3, 0, 251]",251,a,0.0242167980177328,colour,0.5
112,26,1,1,4,12,162,266.09906051994767,266.6478237649426,"[90, 0, 164]",164,l,0.025453867972828448,colour,0.5
112,26,1,1,4,13,163,267.16143665544223,268.1598612717353,"[35, 0, 219]",219,a,0.47509200242348015,colour,0.5
112,26,1,1,4,14,164,268.6770971508231,269.4398349155672,"[97, 0, 157]",157,l,0.23930708318948746,colour,0.5
112,26,1,1,4,15,165,269.9583133785054,270.71184814558364,"[64, 0, 190]",190,a,0.22997647942975163,colour,0.5
112,26,1,1,4,16,166,271.22398135694675,271.96782081900164,"[99, 0, 155]",155,l,0.22051118046510965,colour,0.5
112,26,1,1,4,17,167,272.9031072080834,273.6478592110798,"[14, 0, 240]",240,a,0.21379847056232393,colour,0.5
112,26,1,1,4,18,168,274.16143232316244,274.8878610385582,"[92, 0, 162]",162,l,0.20324064302258193,colour,0.5
112,26,1,1,4,19,169,275.39570920623373,276.87189413106535,"[5, 0, 249]",249,a,0.9529019355541095,colour,0.5
112,26,1,1,4,20,170,277.38013417541515,278.1918325020233,"[22, 0, 232]",232,a,0.28888086311053485,colour,0.5
112,26,1,1,4,21,171,278.7081585970009,279.4398593340302,"[10, 0, 244]",244,a,0.2080798278329894,colour,0.5
112,26,1,1,4,22,172,279.9582645415794,280.68785741517786,"[17, 0, 237]",237,a,0.2064489119220525,colour,0.5
112,26,1,1,4,23,173,281.20819049852435,281.96786099136807,"[33, 0, 221]",221,a,0.2361500144470483,colour,0.5
112,26,1,1,4,24,174,282.47383681545034,283.2638322626008,"[1, 0, 253]",253,a,0.2668841746635735,colour,0.5
112,26,1,1,4,25,175,283.7706879385514,284.6399027358275,"[47, 0, 207]",207,a,0.3458420110400766,colour,0.5
112,26,1,1,4,26,176,285.1456686401507,285.95984110678546,"[63, 0, 191]",191,a,0.2906169359339401,colour,0.5
112,26,1,1,4,27,177,286.47394118469674,287.2399049414089,"[18, 0, 236]",236,a,0.2431076964130625,colour,0.5
112,26,1,1,4,28,178,287.75512866163626,288.47182859515306,"[83, 0, 171]",171,l,0.1939005870372057,colour,0.5
112,26,1,1,4,29,179,288.9894870708231,289.7520708418451,"[91, 0, 163]",163,l,0.23923737253062427,colour,0.5
112,26,1,1,4,30,180,290.2707178709097,290.90383621677756,"[28, 0, 226]",226,a,0.11006221186835319,colour,0.5
112,26,1,1,4,31,181,291.41133464931045,292.12780260760337,"[51, 0, 203]",203,a,0.19337283342611045,colour,0.5
112,26,1,1,4,32,182,292.6455812063068,293.39983710530214,"[94, 0, 160]",160,l,0.23077283590100706,colour,0.5
112,26,1,1,4,33,183,293.9112940832274,294.66389425401576,"[40, 0, 214]",214,a,0.22990322427358478,colour,0.5
112,26,1,1,4,34,184,295.1769262216985,295.9358385610394,"[56, 0, 198]",198,a,0.23595230374485254,colour,0.5
112,26,1,1,4,35,185,296.44248628627975,297.1518118487438,"[46, 0, 208]",208,a,0.1858011456206441,colour,0.5
112,26,1,1,4,36,186,297.661253910861,298.39983513613697,"[96, 0, 158]",158,l,0.2153124143369496,colour,0.5
112,26,1,1,4,37,187,298.91124445863534,299.8558181283297,"[71, 0, 183]",183,l,0.4219594307942316,colour,0.5
112,26,1,1,4,38,188,300.36436891707126,301.0237882937072,"[60, 0, 194]",194,a,0.1363522148458287,colour,0.5
112,26,1,1,4,39,189,301.5362960523926,302.2398127814522,"[50, 0, 204]",204,a,0.18020971515215933,colour,0.5
112,26,1,1,4,40,190,302.75489983707666,303.49582602095325,"[44, 0, 210]",210,a,0.2172213855665177,colour,0.5
112,26,1,1,4,41,191,304.00526768923737,304.6238649360603,"[36, 0, 218]",218,a,0.0956419373396784,colour,0.5
112,26,1,1,4,42,192,305.13007864321116,305.8237972733332,"[89, 0, 165]",165,l,0.17034190555568784,colour,0.5
112,26,1,1,4,43,193,306.3331062155776,307.0958380725933,"[57, 0, 197]",197,a,0.23920901562087238,colour,0.5
112,26,1,1,4,44,194,307.61447407398373,308.3998390745837,"[15, 0, 239]",239,a,0.26216353743802756,colour,0.5
112,26,1,1,4,45,195,308.9113251969684,309.89594511990435,"[86, 0, 168]",168,l,0.4613845889689401,colour,0.5
112,26,1,1,4,46,196,310.41129014478065,311.22382145549636,"[81, 0, 173]",173,l,0.2894720259355381,colour,0.5
112,26,1,1,4,47,197,311.7394472924061,312.36782294581644,"[0, 0, 254]",254,a,0.10524547635577619,colour,0.5
112,26,1,1,4,48,198,312.88006958470214,313.69582255510613,"[24, 0, 230]",230,a,0.2925912856590003,colour,0.5
112,26,1,1,4,49,199,314.208144418546,314.8559417958604,"[20, 0, 234]",234,a,0.12450729869306087,colour,0.5
112,26,1,1,4,50,200,315.36448785848916,316.4878486718517,"[61, 0, 193]",193,a,0.6000431654974818,colour,0.5
112,26,1,1,5,1,201,322.4574028067291,323.2798279208364,"[99, 0, 155]",155,l,0.2985741989687085,colour,0.4
112,26,1,1,5,2,202,323.78630589856766,324.4157851082273,"[6, 0, 248]",248,a,0.10616589419078082,colour,0.4
112,26,1,1,5,3,203,324.9269971139729,325.58382616587915,"[86, 0, 168]",168,l,0.13337985961697996,colour,0.4
112,26,1,1,5,4,204,326.0988120031543,326.8717858234886,"[67, 0, 187]",187,l,0.24950414802879095,colour,0.4
112,26,1,1,5,5,205,327.380059344694,328.03978434577584,"[66, 0, 188]",188,a,0.13660821469966322,colour,0.4
112,26,1,1,5,6,206,328.5519238585839,329.1438360750908,"[58, 0, 196]",196,a,0.06843584880698472,colour,0.4
112,26,1,1,5,7,207,329.6613488277653,330.34382433840074,"[79, 0, 175]",175,l,0.15971909335348755,colour,0.4
112,26,1,1,5,8,208,330.8644106647698,331.39984064991586,"[21, 0, 233]",233,a,0.012041838956065476,colour,0.4
112,26,1,1,5,9,209,331.911253910861,332.4957767901942,"[56, 0, 198]",198,a,0.06113079469650984,colour,0.4
112,26,1,1,5,10,210,333.005083763157,333.5679214861011,"[55, 0, 199]",199,a,0.0395405552117154,colour,0.4
112,26,1,1,5,11,211,334.08310188318137,334.6877814029576,"[80, 0, 174]",174,l,0.08127325668465346,colour,0.4
112,26,1,1,5,12,212,335.2082196432166,335.88780156779103,"[94, 0, 160]",160,l,0.156178024597466,colour,0.4
112,26,1,1,5,13,213,336.39569069549907,336.95176568999887,"[7, 0, 247]",247,a,0.032918035867623985,colour,0.4
112,26,1,1,5,14,214,337.4922502938425,338.21579684480093,"[70, 0, 184]",184,a,0.2030634123366326,colour,0.4
112,26,1,1,5,15,215,338.72392267384566,339.367800496635,"[91, 0, 163]",163,l,0.12072834721766412,colour,0.4
112,26,1,1,5,16,216,339.8800668277545,340.5197549175937,"[3, 0, 251]",251,a,0.1164125835057348,colour,0.4
112,26,1,1,5,17,217,341.03623815707397,342.12776913074777,"[68, 0, 186]",186,a,0.5684602672699839,colour,0.4
112,26,1,1,5,18,218,342.64566509553697,343.7038266857853,"[75, 0, 179]",179,l,0.5348852963652462,colour,0.4
112,26,1,1,5,19,219,344.2237316586543,345.2238411477301,"[74, 0, 180]",180,l,0.47702105971984565,colour,0.4
112,26,1,1,5,20,220,345.7394362647319,346.32778102485463,"[29, 0, 225]",225,a,0.06498615234158933,colour,0.4
112,26,1,1,5,21,221,346.8487084216904,347.64781667571515,"[48, 0, 206]",206,a,0.27604384918231517,colour,0.4
112,26,1,1,5,22,222,348.1612649386516,348.86384195124265,"[36, 0, 218]",218,a,0.17924873100128025,colour,0.4
112,26,1,1,5,23,223,349.37999948009383,350.04779871634673,"[96, 0, 158]",158,l,0.14494120667222887,colour,0.4
112,26,1,1,5,24,224,350.5674358740216,351.15178427961655,"[4, 0, 250]",250,a,0.06077200104482472,colour,0.4
112,26,1,1,5,25,225,351.661247215583,352.25577181205153,"[44, 0, 210]",210,a,0.0712250656215474,colour,0.4
112,26,1,1,5,26,226,352.7706489478005,353.40776049753185,"[54, 0, 200]",200,a,0.11403729871381074,colour,0.4
112,26,1,1,5,27,227,353.926747415564,354.6639682969544,"[95, 0, 159]",159,l,0.2138504582690075,colour,0.4
112,26,1,1,5,28,228,355.1768049170496,355.75182311283424,"[28, 0, 226]",226,a,0.05152922496199608,colour,0.4
112,26,1,1,5,29,229,356.2705075570848,357.09579829417635,"[24, 0, 230]",230,a,0.30183524324093014,colour,0.4
112,26,1,1,5,30,230,357.6143527693348,358.79977149062324,"[49, 0, 205]",205,a,0.6620683842338622,colour,0.4
112,26,1,1,5,31,231,359.3174780155532,360.04777311638463,"[59, 0, 195]",195,a,0.20694003766402602,colour,0.4
112,26,1,1,5,32,232,360.5675268524792,361.1997775558848,"[18, 0, 236]",236,a,0.10931154165882617,colour,0.4
112,26,1,1,5,33,233,361.70807273860555,362.4557758292649,"[23, 0, 231]",231,a,0.22441931359935552,colour,0.4
112,26,1,1,5,34,234,362.97374701860826,363.5917956380872,"[82, 0, 172]",172,l,0.09501375304535031,colour,0.4
112,26,1,1,5,35,235,364.0987344154855,364.7277693670476,"[63, 0, 191]",191,a,0.10602095897775143,colour,0.4
112,26,1,1,5,36,236,365.23925194481853,365.7837722877739,"[9, 0, 245]",245,a,0.021330695133656263,colour,0.4
112,26,1,1,5,37,237,366.3018281540135,366.8797667172039,"[37, 0, 217]",217,a,0.05465439229737967,colour,0.4
112,26,1,1,5,38,238,367.39546029560734,367.9597828176338,"[46, 0, 208]",208,a,0.04111790796741843,colour,0.4
112,26,1,1,5,39,239,368.4736497387057,369.0878047973383,"[93, 0, 161]",161,l,0.09071098640561104,colour,0.4
112,26,1,1,5,40,240,369.5987840400776,370.2318307061214,"[35, 0, 219]",219,a,0.10986253200098872,colour,0.4
112,26,1,1,5,41,241,370.73933110781945,371.47183410893194,"[30, 0, 224]",224,a,0.209211740992032,colour,0.4
112,26,1,1,5,42,242,371.9892968432978,372.8237732487032,"[69, 0, 185]",185,l,0.31131156987976283,colour,0.4
112,26,1,1,5,43,243,373.3329644310288,373.91978264437057,"[57, 0, 197]",197,a,0.06352419639006257,colour,0.4
112,26,1,1,5,44,244,374.42669345869217,375.11178016779013,"[52, 0, 202]",202,a,0.16175291361287236,colour,0.4
112,26,1,1,5,45,245,375.62982933875173,376.2397730030352,"[89, 0, 165]",165,l,0.0867681949166581,colour,0.4
112,26,1,1,5,46,246,376.7548832956236,377.3517863275483,"[92, 0, 162]",162,l,0.07383468863554299,colour,0.4
112,26,1,1,5,47,247,377.86426336632576,378.5358439172851,"[98, 0, 156]",156,l,0.14816877397242934,colour,0.4
112,26,1,1,5,48,248,379.0517584432382,379.59977259335574,"[40, 0, 214]",214,a,0.02498085901606828,colour,0.4
112,26,1,1,5,49,249,380.1142428864259,380.76817205082625,"[84, 0, 170]",170,l,0.13077929499559104,colour,0.4
112,26,1,1,5,50,250,381.2860483233817,381.8397905685706,"[85, 0, 169]",169,l,0.030487612821161747,colour,0.4
112,26,1,1,6,1,251,386.3947108067805,387.2957979791099,"[62, 0, 192]",192,a,0.37738552468363196,colour,0.28
112,26,1,1,6,2,252,387.80169779097196,388.43178116029594,"[90, 0, 164]",164,l,0.10679604765027761,colour,0.28
112,26,1,1,6,3,253,388.94264658156317,389.495839017909,"[11, 0, 243]",243,a,0.029980733059346676,colour,0.28
112,26,1,1,6,4,254,390.0048478494864,390.64779895264655,"[72, 0, 182]",182,l,0.11970159073825926,colour,0.28
112,26,1,1,6,5,255,391.1610983418068,391.78374078008346,"[83, 0, 171]",171,l,0.100006144028157,colour,0.28
112,26,1,1,6,6,256,392.30162414186634,393.31175346509553,"[35, 0, 219]",219,a,0.4867557493271306,colour,0.28
112,26,1,1,6,7,257,393.8328931449214,394.4398140417179,"[95, 0, 159]",159,l,0.0833440984133631,colour,0.28
112,26,1,1,6,8,258,394.9579408002319,395.63973535131663,"[75, 0, 179]",179,a,0.15852219553198665,colour,0.28
112,26,1,1,6,9,259,396.14567060931586,396.7597524126759,"[23, 0, 231]",231,a,0.0918314780574292,colour,0.28
112,26,1,1,6,10,260,397.2703968863934,397.8477462561568,"[51, 0, 203]",203,a,0.0541904418496415,colour,0.28
112,26,1,1,6,11,261,398.3642361910315,398.9677325974917,"[53, 0, 201]",201,a,0.08039931242819875,colour,0.28
112,26,1,1,6,12,262,399.4734961387003,400.05580087786075,"[68, 0, 186]",186,a,0.059548715595155954,colour,0.28
112,26,1,1,6,13,263,400.5673421387328,401.1357795628719,"[91, 0, 163]",163,l,0.04520484711974859,colour,0.28
112,26,1,1,6,14,264,401.64551031403244,402.27978971775156,"[0, 0, 254]",254,a,0.11131858034059405,colour,0.28
112,26,1,1,6,15,265,402.78625706164166,403.3757502764929,"[15, 0, 239]",239,a,0.06692308664787561,colour,0.28
112,26,1,1,6,16,266,403.89541933569126,404.615786368493,"[70, 0, 184]",184,l,0.19785046763718128,colour,0.28
112,26,1,1,6,17,267,405.12977262493223,405.69573590904474,"[97, 0, 157]",157,a,0.043495949706994,colour,0.28
112,26,1,1,6,18,268,406.20795104024,407.18379292532336,"[65, 0, 189]",189,a,0.45302127092145383,colour,0.28
112,26,1,1,6,19,269,407.6924445385812,408.2957546560792,"[78, 0, 176]",176,l,0.08062459237407893,colour,0.28
112,26,1,1,6,20,270,408.8016745541245,409.39973116084,"[93, 0, 161]",161,l,0.07534587557893246,colour,0.28
112,26,1,1,6,21,271,409.9112007416552,410.5037734378129,"[99, 0, 155]",155,l,0.06938186672050506,colour,0.28
112,26,1,1,6,22,272,411.0204343018122,411.8398008084623,"[71, 0, 183]",183,l,0.2964348279638216,colour,0.28
112,26,1,1,6,23,273,412.3485051972093,412.96779836982023,"[87, 0, 167]",167,l,0.09652651532087475,colour,0.28
112,26,1,1,6,24,274,413.4734520280035,414.0957096788334,"[59, 0, 195]",195,a,0.0986891231732443,colour,0.28
112,26,1,1,6,25,275,414.6163724112557,415.6478036788758,"[80, 0, 174]",174,l,0.5102955262409523,colour,0.28
112,26,1,1,6,26,276,416.1610242987517,416.8157651795773,"[57, 0, 197]",197,a,0.13134091929532588,colour,0.28
112,26,1,1,6,27,277,417.3329522217391,417.95980447914917,"[61, 0, 193]",193,a,0.10383432637900114,colour,0.28
112,26,1,1,6,28,278,418.4735363110667,419.1837614176329,"[27, 0, 227]",227,a,0.18718472635373473,colour,0.28
112,26,1,1,6,29,279,419.69230826792773,420.71178906876594,"[41, 0, 213]",213,a,0.49622774380259216,colour,0.28
112,26,1,1,6,30,280,421.2234906249214,422.1758399945684,"[79, 0, 175]",175,l,0.42916720488574356,colour,0.28
112,26,1,1,6,31,281,422.69234844017774,423.3597404398024,"[88, 0, 166]",166,l,0.14444220392033458,colour,0.28
112,26,1,1,6,32,282,423.87976632337086,424.8397295223549,"[69, 0, 185]",185,a,0.43684641260188073,colour,0.28
112,26,1,1,6,33,283,425.3485508833546,425.9677889174782,"[84, 0, 170]",170,l,0.09611967240925878,colour,0.28
112,26,1,1,6,34,284,426.489235009416,427.0957356727449,"[54, 0, 200]",200,a,0.08343980310019106,colour,0.28
112,26,1,1,6,35,285,427.61412630800623,428.1837645684136,"[96, 0, 158]",158,l,0.04614574508741498,colour,0.28
112,26,1,1,6,36,286,428.6922968464205,429.2637373456964,"[46, 0, 208]",208,a,0.0486529681365937,colour,0.28
112,26,1,1,6,37,287,429.7704677786678,430.3917353008874,"[43, 0, 211]",211,a,0.09849771414883435,colour,0.28
112,26,1,1,6,38,288,430.911100704805,431.54376770334784,"[47, 0, 207]",207,a,0.10933359689079225,colour,0.28
112,26,1,1,6,39,289,432.0612398899393,433.031728621223,"[20, 0, 234]",234,a,0.4413094746414572,colour,0.28
112,26,1,1,6,40,290,433.5515489173122,434.26376845955383,"[98, 0, 156]",156,l,0.1889834206085652,colour,0.28
112,26,1,1,6,41,291,434.7707533170469,435.4157465113094,"[8, 0, 246]",246,a,0.12283621053211391,colour,0.28
112,26,1,1,6,42,292,435.92665446794126,436.567733227741,"[85, 0, 169]",169,l,0.11771503207273781,colour,0.28
112,26,1,1,6,43,293,437.0828395818826,438.0157817999134,"[38, 0, 216]",216,a,0.40957140107639134,colour,0.28
112,26,1,1,6,44,294,438.5359096896136,440.43972227559425,"[73, 0, 181]",181,l,1.3806642920244485,colour,0.28
112,26,1,1,6,45,295,440.9579041725956,441.7277803947218,"[81, 0, 173]",173,l,0.24726867862045765,colour,0.28
112,26,1,1,6,46,296,442.239155058749,442.8958411446074,"[58, 0, 196]",196,a,0.13383711478672922,colour,0.28
112,26,1,1,6,47,297,443.4109482865315,443.96774638211355,"[42, 0, 212]",212,a,0.03381088457535952,colour,0.28
112,26,1,1,6,48,298,444.48909519414883,445.13572796911467,"[92, 0, 162]",162,l,0.12375584081746638,colour,0.28
112,26,1,1,6,49,299,445.64532363112085,446.3597869136138,"[76, 0, 178]",178,a,0.19182423129677773,colour,0.28
112,26,1,1,6,50,300,446.8796855849214,447.42374788504094,"[60, 0, 194]",194,a,0.020978202926926315,colour,0.28
112,26,1,1,7,1,301,453.72271435463335,454.44776224624366,"[96, 0, 158]",158,l,0.20168337621726096,colour,0.14
112,26,1,1,7,2,302,454.95778247423004,455.5117484237999,"[92, 0, 162]",162,l,0.031246947590261698,colour,0.14
112,26,1,1,7,3,303,456.02028818498366,456.59981040260755,"[93, 0, 161]",161,l,0.05617818224709481,colour,0.14
112,26,1,1,7,4,304,457.1140250895405,457.80775041517336,"[85, 0, 169]",169,l,0.17083815147634596,colour,0.14
112,26,1,1,7,5,305,458.3171491541434,458.99176428793,"[81, 0, 173]",173,l,0.1520906916121021,colour,0.14
112,26,1,1,7,6,306,459.5048037386732,460.4877557242289,"[73, 0, 181]",181,a,0.460188478929922,colour,0.14
112,26,1,1,7,7,307,461.0046209942084,461.623819643748,"[84, 0, 170]",170,l,0.09614842315204442,colour,0.14
112,26,1,1,7,8,308,462.12955522199627,462.91975271201227,"[86, 0, 168]",168,l,0.26713505445513874,colour,0.14
112,26,1,1,7,9,309,463.4265071696136,464.03177233820315,"[89, 0, 165]",165,l,0.08185654238332063,colour,0.14
112,26,1,1,7,10,310,464.551464634249,465.54368460190017,"[33, 0, 221]",221,a,0.4694072303827852,colour,0.14
112,26,1,1,7,11,311,466.05146975419484,466.7677526049083,"[80, 0, 174]",174,l,0.19279466767329723,colour,0.14
112,26,1,1,7,12,312,467.28578208351973,467.8797647479223,"[68, 0, 186]",186,a,0.07103405031375587,colour,0.14
112,26,1,1,7,13,313,468.3952310773311,469.07184655452147,"[76, 0, 178]",178,a,0.1535747031448409,colour,0.14
112,26,1,1,7,14,314,469.5828175265342,470.13579807360657,"[24, 0, 230]",230,a,0.030486431205645204,colour,0.14
112,26,1,1,7,15,315,470.6451653050026,471.2637834256748,"[82, 0, 172]",172,l,0.09531425754539669,colour,0.14
112,26,1,1,7,16,316,471.7703161480604,472.8237452856265,"[50, 0, 204]",204,a,0.530345828155987,colour,0.14
112,26,1,1,7,17,317,473.3327056742273,473.93572867801413,"[63, 0, 191]",191,a,0.07975537446327507,colour,0.14
112,26,1,1,7,18,318,474.4420243049972,474.9997345479205,"[57, 0, 197]",197,a,0.03499163477681577,colour,0.14
112,26,1,1,7,19,319,475.5201786957914,476.09573252196424,"[40, 0, 214]",214,a,0.052747390465810895,colour,0.14
112,26,1,1,7,20,320,476.6162207806483,477.1997141466709,"[48, 0, 206]",206,a,0.06283023988362402,colour,0.14
112,26,1,1,7,21,321,477.7076733788708,478.2797121301992,"[66, 0, 188]",188,a,0.04916299867909402,colour,0.14
112,26,1,1,7,22,322,478.7857218250865,479.38373825943563,"[95, 0, 159]",159,l,0.07453218975570053,colour,0.14
112,26,1,1,7,23,323,479.8952062650351,480.76767619885504,"[60, 0, 194]",194,a,0.3497336027212441,colour,0.14
112,26,1,1,7,24,324,481.2857891727472,482.0317396490136,"[54, 0, 200]",200,a,0.22304912365507334,colour,0.14
112,26,1,1,7,25,325,482.551544584916,483.4717246198561,"[29, 0, 225]",225,a,0.39748742058873177,colour,0.14
112,26,1,1,7,26,326,483.98895301576704,484.70369789819233,"[56, 0, 198]",198,a,0.19175176369026303,colour,0.14
112,26,1,1,7,27,327,485.22337483416777,485.91973932122346,"[70, 0, 184]",184,l,0.17334064829628915,colour,0.14
112,26,1,1,7,28,328,486.4264918095432,487.03174476895947,"[99, 0, 155]",155,l,0.08258830814156681,colour,0.14
112,26,1,1,7,29,329,487.55149102187715,488.2157377679832,"[71, 0, 183]",183,a,0.14177626091986895,colour,0.14
112,26,1,1,7,30,330,488.7232216281118,489.5997351780534,"[59, 0, 195]",195,a,0.3532734897453338,colour,0.14
112,26,1,1,7,31,331,490.1138970896136,490.71973372867797,"[58, 0, 196]",196,a,0.08273993886541575,colour,0.14
112,26,1,1,7,32,332,491.23885179741774,491.98371959116776,"[64, 0, 190]",190,a,0.22183450276497751,colour,0.14
112,26,1,1,7,33,333,492.5044721204322,493.3756770211039,"[67, 0, 187]",187,a,0.34830906183924526,colour,0.14
112,26,1,1,7,34,334,493.89523383416235,494.6877266583033,"[62, 0, 192]",192,a,0.26985928672365844,colour,0.14
112,26,1,1,7,35,335,495.20758121891413,495.9037074291846,"[75, 0, 179]",179,a,0.17310946073848754,colour,0.14
112,26,1,1,7,36,336,496.4107096157968,496.96770620986354,"[11, 0, 243]",243,a,0.0342445089481771,colour,0.14
112,26,1,1,7,37,337,497.4888939388329,498.11968583695125,"[74, 0, 180]",180,l,0.10804217611439526,colour,0.14
112,26,1,1,7,38,338,498.6295079604024,499.2396958091995,"[77, 0, 177]",177,a,0.08759566524531692,colour,0.14
112,26,1,1,7,39,339,499.75452410813887,500.3277093449142,"[65, 0, 189]",189,a,0.04833237768616527,colour,0.14
112,26,1,1,7,40,340,500.8483508096542,501.4800111380173,"[78, 0, 176]",176,a,0.10859434818848968,colour,0.14
112,26,1,1,7,41,341,501.988878972712,502.59971391037107,"[55, 0, 199]",199,a,0.08737196074798703,colour,0.14
112,26,1,1,7,42,342,503.1138813358266,503.7677293680608,"[79, 0, 175]",175,a,0.1308639720082283,colour,0.14
112,26,1,1,7,43,343,504.285769480397,504.9117017136887,"[52, 0, 202]",202,a,0.10314430831931531,colour,0.14
112,26,1,1,7,44,344,505.4265339510748,506.015735326102,"[69, 0, 185]",185,a,0.0664544099709019,colour,0.14
112,26,1,1,7,45,345,506.53575096966233,507.0956978634931,"[88, 0, 166]",166,l,0.03739882097579539,colour,0.14
112,26,1,1,7,46,346,507.61386085581034,508.2157377679832,"[87, 0, 167]",167,l,0.07879832887556404,colour,0.14
112,26,1,1,7,47,347,508.7232275358401,509.2797148870304,"[18, 0, 236]",236,a,0.03353755548596382,colour,0.14
112,26,1,1,7,48,348,509.7856761389412,510.3917400270002,"[72, 0, 182]",182,a,0.08325311995577067,colour,0.14
112,26,1,1,7,49,349,510.91070567735005,511.8477434992092,"[91, 0, 163]",163,l,0.41403761389665306,colour,0.14
112,26,1,1,7,50,350,512.3638025666587,512.9596997161862,"[90, 0, 164]",164,l,0.07287843083031476,colour,0.14
112,26,1,1,8,1,351,517.4568187332479,518.3196784326574,"[18, 0, 236]",236,a,0.3391671103890985,colour,0.06
112,26,1,1,8,2,352,518.8325323819881,519.431717357249,"[77, 0, 177]",177,l,0.07615680422168225,colour,0.06
112,26,1,1,8,3,353,519.94194868661,520.8237988487817,"[58, 0, 196]",196,a,0.3586971419863403,colour,0.06
112,26,1,1,8,4,354,521.3329230771633,522.0957321281312,"[56, 0, 198]",198,a,0.23973676923196763,colour,0.06
112,26,1,1,8,5,355,522.6138663697056,523.3757038026815,"[74, 0, 180]",180,a,0.239112917217426,colour,0.06
112,26,1,1,8,6,356,523.8950660558185,524.5597129493253,"[68, 0, 186]",186,a,0.14155531325377524,colour,0.06
112,26,1,1,8,7,357,525.0669624712318,525.7116969088092,"[88, 0, 166]",166,l,0.1216676696203649,colour,0.06
112,26,1,1,8,8,358,526.2232547112508,526.8397078608396,"[72, 0, 182]",182,a,0.09333715098910034,colour,0.06
112,26,1,1,8,9,359,527.3481538866181,527.9917044233298,"[57, 0, 197]",197,a,0.12058774405159056,colour,0.06
112,26,1,1,8,10,360,528.5043669636361,529.1756978161866,"[54, 0, 200]",200,a,0.1481821647612378,colour,0.06
112,26,1,1,8,11,361,529.6919108773582,530.3437034277013,"[8, 0, 246]",246,a,0.12844693951774389,colour,0.06
112,26,1,1,8,12,362,530.8639211142436,531.5196962344926,"[85, 0, 169]",169,l,0.13314591511152685,colour,0.06
112,26,1,1,8,13,363,532.035656446591,532.6716668031877,"[79, 0, 175]",175,l,0.11261393956374377,colour,0.06
112,26,1,1,8,14,364,533.1919900404755,533.9116753260605,"[73, 0, 181]",181,l,0.19695919437799603,colour,0.06
112,26,1,1,8,15,365,534.4263342712075,535.1277006014716,"[65, 0, 189]",189,a,0.1786997098242864,colour,0.06
112,26,1,1,8,16,366,535.645147188101,536.2316775000654,"[94, 0, 160]",160,l,0.06330600567162037,colour,0.06
112,26,1,1,8,17,367,536.7387084374204,537.4396667433903,"[92, 0, 162]",162,l,0.17782852263189852,colour,0.06
112,26,1,1,8,18,368,537.957571372739,538.5277180882404,"[63, 0, 191]",191,a,0.047179196728393435,colour,0.06
112,26,1,1,8,19,369,539.0356513266452,539.7276886285981,"[83, 0, 171]",171,l,0.16937777074053884,colour,0.06
112,26,1,1,8,20,370,540.2387545173988,540.855653106817,"[64, 0, 190]",190,a,0.09404371061827987,colour,0.06
112,26,1,1,8,21,371,541.3637360066641,542.1996869712602,"[89, 0, 165]",165,l,0.3130338580813259,colour,0.06
112,26,1,1,8,22,372,542.7074866959592,543.3276502679801,"[97, 0, 157]",157,l,0.0972003856441006,colour,0.06
112,26,1,1,8,23,373,543.848226748174,544.4157807759475,"[87, 0, 167]",167,l,0.04442581988405436,colour,0.06
112,26,1,1,8,24,374,544.926351600443,545.4956507595489,"[84, 0, 170]",170,l,0.046105179004371166,colour,0.06
112,26,1,1,8,25,375,546.004387443536,546.7436519914772,"[81, 0, 173]",173,l,0.2160922292387113,colour,0.06
112,26,1,1,8,26,376,547.2543173390441,547.8557708667358,"[82, 0, 172]",172,a,0.0784422920551151,colour,0.06
112,26,1,1,8,27,377,548.3637793296948,548.9196318013128,"[93, 0, 161]",161,l,0.03245920536573976,colour,0.06
112,26,1,1,8,28,378,549.4269998708041,550.143710044329,"[86, 0, 168]",168,l,0.19451931887306273,colour,0.06
112,26,1,1,8,29,379,550.6605619236361,551.2076706219232,"[91, 0, 163]",163,l,0.023557499866001308,colour,0.06
112,26,1,1,8,30,380,551.723064483609,552.3836850902298,"[76, 0, 178]",178,a,0.1375648663379252,colour,0.06
112,26,1,1,8,31,381,552.8949530221289,553.4796377720777,"[53, 0, 201]",201,a,0.06173574202693999,colour,0.06
112,26,1,1,8,32,382,553.9887710589683,554.9516912532272,"[67, 0, 187]",187,a,0.4400003309128806,colour,0.06
112,26,1,1,8,33,383,555.4574126529042,556.0156423784792,"[66, 0, 188]",188,a,0.03564108663704246,colour,0.06
112,26,1,1,8,34,384,556.5355686190305,557.1836668945616,"[62, 0, 192]",192,a,0.1254099935758859,colour,0.06
112,26,1,1,8,35,385,557.6917588529177,558.2796971639618,"[52, 0, 202]",202,a,0.06488493387587368,colour,0.06
112,26,1,1,8,36,386,558.8011720067589,559.3357241094345,"[96, 0, 158]",158,l,0.011404202552512288,colour,0.06
112,26,1,1,8,37,387,559.8481676712399,560.7276441239519,"[90, 0, 164]",164,l,0.35607924801297486,colour,0.06
112,26,1,1,8,38,388,561.2386556621641,561.8879157832125,"[45, 0, 209]",209,a,0.12585149495862424,colour,0.06
112,26,1,1,8,39,389,562.3948632251704,562.9677692252444,"[59, 0, 195]",195,a,0.049233103287406266,colour,0.06
112,26,1,1,8,40,390,563.4886233666912,564.4157295759069,"[50, 0, 204]",204,a,0.4037298783659935,colour,0.06
112,26,1,1,8,41,391,564.9263086712454,565.4876738042803,"[51, 0, 203]",203,a,0.037951780715957284,colour,0.06
112,26,1,1,8,42,392,566.0043421513401,566.6157001162646,"[98, 0, 156]",156,l,0.08821518474724144,colour,0.06
112,26,1,1,8,43,393,567.129292132915,567.7276453055674,"[75, 0, 179]",179,a,0.07544827542733401,colour,0.06
112,26,1,1,8,44,394,568.2386182467453,568.7836899739923,"[71, 0, 183]",183,a,0.02216289157513529,colour,0.06
112,26,1,1,8,45,395,569.3011219883338,569.8556661037728,"[95, 0, 159]",159,l,0.030995673965662718,colour,0.06
112,26,1,1,8,46,396,570.3636182467453,573.0237087367568,"[55, 0, 199]",199,a,2.137371881864965,colour,0.06
112,26,1,1,8,47,397,573.5355843728175,574.4076470700093,"[60, 0, 194]",194,a,0.34873244632035494,colour,0.06
112,26,1,1,8,48,398,574.926247231313,575.7196565348422,"[61, 0, 193]",193,a,0.2700243081199005,colour,0.06
112,26,1,1,8,49,399,576.2386489667697,577.1436537243426,"[70, 0, 184]",184,a,0.3820785926654935,colour,0.06
112,26,1,1,8,50,400,577.6606119420612,578.3197178172413,"[99, 0, 155]",155,l,0.13582997513003647,colour,0.06
112,26,1,1,9,1,401,586.4878167703282,588.3916837071301,"[62, 0, 192]",192,a,1.3802972276462242,colour,0.06
112,26,1,1,9,2,402,588.9105394744547,589.7996119830059,"[66, 0, 188]",188,a,0.36572217161301523,colour,0.06
112,26,1,1,9,3,403,590.3166812652489,591.0557323485846,"[92, 0, 162]",162,l,0.21622928755823523,colour,0.06
112,26,1,1,9,4,404,591.5667096221587,592.1917052898789,"[55, 0, 199]",199,a,0.10160909697879106,colour,0.06
112,26,1,1,9,5,405,592.7073500313563,593.5836595690344,"[72, 0, 182]",182,a,0.35350231418851763,colour,0.06
112,26,1,1,9,6,406,594.0980428220937,594.8636552682146,"[58, 0, 196]",196,a,0.24292455799877644,colour,0.06
112,26,1,1,9,7,407,595.3793114313157,596.1756623700494,"[74, 0, 180]",180,a,0.27365950599778444,colour,0.06
112,26,1,1,9,8,408,596.6917371914024,597.3116483081831,"[96, 0, 158]",158,l,0.09643829381093383,colour,0.06
112,26,1,1,9,9,409,597.8322944991523,598.4717403736431,"[93, 0, 161]",161,l,0.11592618387658149,colour,0.06
112,26,1,1,9,10,410,598.9886131267995,599.6636536141159,"[95, 0, 159]",159,l,0.15202176861930639,colour,0.06
112,26,1,1,9,11,411,600.1762677112129,600.7916551139206,"[51, 0, 203]",203,a,0.09247738542035222,colour,0.06
112,26,1,1,9,12,412,601.3011857912643,601.8476210130611,"[78, 0, 176]",176,a,0.023561832145787776,colour,0.06
112,26,1,1,9,13,413,602.3637686958537,602.943629227113,"[97, 0, 157]",157,l,0.05720769532490522,colour,0.06
112,26,1,1,9,14,414,603.4574473112589,604.3276085202815,"[65, 0, 189]",189,a,0.3466730258660391,colour,0.06
112,26,1,1,9,15,415,604.8480274621397,605.5756266876124,"[50, 0, 204]",204,a,0.20406732556875795,colour,0.06
112,26,1,1,9,16,416,606.082433132804,606.8077303289901,"[86, 0, 168]",168,l,0.20228674821555614,colour,0.06
112,26,1,1,9,17,417,607.3168147789547,607.871621195809,"[52, 0, 202]",202,a,0.032013765652664006,colour,0.06
112,26,1,1,9,18,418,608.3793039482553,608.959794239141,"[91, 0, 163]",163,l,0.05776931974105537,colour,0.06
112,26,1,1,9,19,419,609.4730302190874,610.0316518213367,"[61, 0, 193]",193,a,0.03553080977872014,colour,0.06
112,26,1,1,9,20,420,610.5512011513347,611.1116131771123,"[73, 0, 181]",181,a,0.03692463040351868,colour,0.06
112,26,1,1,9,21,421,611.6292980405269,612.1756505547091,"[79, 0, 175]",175,a,0.023505512275733054,colour,0.06
112,26,1,1,9,22,422,612.6920428158483,613.2476310167694,"[94, 0, 160]",160,l,0.03313662041909993,colour,0.06
112,26,1,1,9,23,423,613.7543421513401,614.3676354751224,"[87, 0, 167]",167,l,0.09029744821600616,colour,0.06
112,26,1,1,9,24,424,614.8793023728067,615.5196863884339,"[80, 0, 174]",174,l,0.117470059893094,colour,0.06
112,26,1,1,9,25,425,616.0355335667264,616.7276453055674,"[53, 0, 201]",201,a,0.16909105086233467,colour,0.06
112,26,1,1,9,26,426,617.2386682651704,617.8396495716879,"[56, 0, 198]",198,a,0.07799094473011792,colour,0.06
112,26,1,1,9,27,427,618.3479750806,618.8956182278926,"[71, 0, 183]",183,a,0.02438693947624415,colour,0.06
112,26,1,1,9,28,428,619.4104973329231,620.0396539827343,"[54, 0, 200]",200,a,0.10653650318272412,colour,0.06
112,26,1,1,9,29,429,620.5511145051569,621.1996519189561,"[90, 0, 164]",164,l,0.12499291077256203,colour,0.06
112,26,1,1,9,30,430,621.7073787820991,622.3356240724679,"[83, 0, 171]",171,a,0.10460075049195439,colour,0.06
112,26,1,1,9,31,431,622.8479514498031,623.4956212210236,"[99, 0, 155]",155,l,0.12476329854689538,colour,0.06
112,26,1,1,9,32,432,624.0044252527878,624.7836383801186,"[29, 0, 225]",225,a,0.25668671599123627,colour,0.06
112,26,1,1,9,33,433,625.301108991378,626.1036137726624,"[60, 0, 194]",194,a,0.28002366225700825,colour,0.06
112,26,1,1,9,34,434,626.6136895328527,627.5036670994014,"[76, 0, 178]",178,l,0.36655515572056174,colour,0.06
112,26,1,1,9,35,435,628.0199372682255,628.7676403588848,"[63, 0, 191]",191,a,0.22426413837820292,colour,0.06
112,26,1,1,9,36,436,629.2855788590387,630.1196263663005,"[67, 0, 187]",187,a,0.3113761607091874,colour,0.06
112,26,1,1,9,37,437,630.6292460529367,631.5036434686044,"[75, 0, 179]",179,a,0.35123770020436496,colour,0.06
112,26,1,1,9,38,438,632.0199026097544,632.6076353333192,"[89, 0, 165]",165,l,0.06448439264204353,colour,0.06
112,26,1,1,9,39,439,633.1139908250188,633.7757539786398,"[70, 0, 184]",184,a,0.13866527192294598,colour,0.06
112,26,1,1,9,40,440,634.2854776405729,634.8876404848415,"[68, 0, 186]",186,a,0.07907717174384743,colour,0.06
112,26,1,1,9,41,441,635.3948884312995,636.0476482672384,"[77, 0, 177]",177,a,0.12938074814155698,colour,0.06
112,26,1,1,9,42,442,636.5668234436307,637.215612918837,"[84, 0, 170]",170,l,0.1258144733728841,colour,0.06
112,26,1,1,9,43,443,637.7231814558618,638.2716607380426,"[98, 0, 156]",156,l,0.025919000152498484,colour,0.06
112,26,1,1,9,44,444,638.7856375420233,639.4076131992042,"[85, 0, 169]",169,l,0.09902074153069407,colour,0.06
112,26,1,1,9,45,445,639.9261373482877,640.6076187918661,"[28, 0, 226]",226,a,0.15804879285860807,colour,0.06
112,26,1,1,9,46,446,641.1137367943302,641.7116421642713,"[41, 0, 213]",213,a,0.07509342033881694,colour,0.06
112,26,1,1,9,47,447,642.2230609389953,642.9195892659482,"[59, 0, 195]",195,a,0.1741244017612189,colour,0.06
112,26,1,1,9,48,448,643.4261353790062,644.4395891557215,"[69, 0, 185]",185,a,0.4907426516292617,colour,0.06
112,26,1,1,9,49,449,644.9574059575098,645.6396341329673,"[81, 0, 173]",173,l,0.1595186258200556,colour,0.06
112,26,1,1,9,50,450,646.1605591666885,646.7116461027181,"[82, 0, 172]",172,l,0.02767712832428515,colour,0.06
112,26,1,1,10,1,451,660.3786414994393,660.9758883588947,"[59, 0, 195]",195,a,0.073263218277134,colour,0.06
112,26,1,1,10,2,452,661.4887360066641,662.095672657364,"[79, 0, 175]",175,l,0.08361427672207355,colour,0.06
112,26,1,1,10,3,453,662.6138309235685,663.2236146864016,"[92, 0, 162]",162,l,0.08718645933549851,colour,0.06
112,26,1,1,10,4,454,663.7387521544006,664.3836626410484,"[73, 0, 181]",181,a,0.12200598325580359,colour,0.06
112,26,1,1,10,5,455,664.8949983143248,665.503605265636,"[68, 0, 186]",186,a,0.08546377730090171,colour,0.06
112,26,1,1,10,6,456,666.0200573912589,666.7516084667295,"[76, 0, 178]",178,a,0.20835394458845258,colour,0.06
112,26,1,1,10,7,457,667.2700928373961,668.3436234770343,"[51, 0, 203]",203,a,0.5503969179699197,colour,0.06
112,26,1,1,10,8,458,668.8636777175125,669.575579819968,"[69, 0, 185]",185,l,0.18841195025015622,colour,0.06
112,26,1,1,10,9,459,670.0823941421695,670.6555707142688,"[61, 0, 193]",193,a,0.050378013285808265,colour,0.06
112,26,1,1,10,10,460,671.1762054836145,671.8235645104432,"[74, 0, 180]",180,a,0.12474084936548024,colour,0.06
112,26,1,1,10,11,461,672.332515446702,672.9676613113843,"[58, 0, 196]",196,a,0.11245403811335564,colour,0.06
112,26,1,1,10,12,462,673.4887367943302,674.0716059146216,"[83, 0, 171]",171,l,0.060214709024876356,colour,0.06
112,26,1,1,10,13,463,674.5826213911641,675.159662773367,"[91, 0, 163]",163,l,0.054399180109612644,colour,0.06
112,26,1,1,10,14,464,675.6763681420125,676.2715961472131,"[55, 0, 199]",199,a,0.07279217848554254,colour,0.06
112,26,1,1,10,15,465,676.7856592035387,677.3836232564645,"[99, 0, 155]",155,l,0.0747235988965258,colour,0.06
112,26,1,1,10,16,466,677.8949569605757,678.4875753427623,"[90, 0, 164]",164,l,0.06983597110956907,colour,0.06
112,26,1,1,10,17,467,679.0044098928338,679.61561740865,"[65, 0, 189]",189,a,0.08819470484741032,colour,0.06
112,26,1,1,10,18,468,680.1293386067264,680.7276212809375,"[75, 0, 179]",179,a,0.07490319269709289,colour,0.06
112,26,1,1,10,19,469,681.2386477851542,682.2956656469032,"[78, 0, 176]",176,a,0.5339144661556929,colour,0.06
112,26,1,1,10,20,470,682.8010822098004,683.5756164476043,"[67, 0, 187]",187,a,0.25167660205625,colour,0.06
112,26,1,1,10,21,471,684.0823839021614,684.7196179379243,"[86, 0, 168]",168,l,0.11425115703605115,colour,0.06
112,26,1,1,10,22,472,685.2386682651704,685.919587296783,"[87, 0, 167]",167,l,0.1579849898116663,colour,0.06
112,26,1,1,10,23,473,686.4261767328717,686.959809599095,"[52, 0, 202]",202,a,0.01093788887374103,colour,0.06
112,26,1,1,10,24,474,687.472999499063,688.0556134071667,"[66, 0, 188]",188,a,0.05946403869893402,colour,0.06
112,26,1,1,10,25,475,688.566740342183,689.151549153612,"[96, 0, 158]",158,l,0.06191572966054082,colour,0.06
112,26,1,1,10,26,476,689.6604737021262,690.1995585775003,"[62, 0, 192]",192,a,0.01574359682854265,colour,0.06
112,26,1,1,10,27,477,690.7073992621154,691.3356295863632,"[84, 0, 170]",170,l,0.10489140881691128,colour,0.06
112,26,1,1,10,28,478,691.848064483609,692.4156693175901,"[43, 0, 211]",211,a,0.04471372137777507,colour,0.06
112,26,1,1,10,29,479,692.9262054836145,693.4955948333954,"[77, 0, 177]",177,l,0.046677830861881375,colour,0.06
112,26,1,1,10,30,480,694.0043634190224,694.535567437415,"[44, 0, 210]",210,a,0.008465718012303114,colour,0.06
112,26,1,1,10,31,481,695.0512263574637,695.6635543649318,"[63, 0, 191]",191,a,0.08981419925112277,colour,0.06
112,26,1,1,10,32,482,696.1762295082444,696.8557279375382,"[81, 0, 173]",173,l,0.15643559989985079,colour,0.06
112,26,1,1,10,33,483,697.3637360066641,698.0396307458868,"[95, 0, 159]",159,l,0.1528114298125729,colour,0.06
112,26,1,1,10,34,484,698.5512551082065,699.2635963489302,"[94, 0, 160]",160,l,0.18966910638846457,colour,0.06
112,26,1,1,10,35,485,699.769889219082,700.4157248497941,"[5, 0, 249]",249,a,0.12243724463041872,colour,0.06
112,26,1,1,10,36,486,700.9262169051217,701.6315961314831,"[56, 0, 198]",198,a,0.1818965571001172,colour,0.06
112,26,1,1,10,37,487,702.1449030037038,702.7916153353872,"[80, 0, 174]",174,l,0.12366171146277338,colour,0.06
112,26,1,1,10,38,488,703.3011377421208,703.8555912730517,"[57, 0, 197]",197,a,0.03180857200641185,colour,0.06
112,26,1,1,10,39,489,704.3636320313672,704.9995872494765,"[89, 0, 165]",165,l,0.11311254859901965,colour,0.06
112,26,1,1,10,40,490,705.519904972869,706.5756739492062,"[93, 0, 161]",161,l,0.5326009900309145,colour,0.06
112,26,1,1,10,41,491,707.0823728744872,707.9435264334315,"[72, 0, 182]",182,a,0.3384648831561208,colour,0.06
112,26,1,1,10,42,492,708.4574772436172,709.1115958479932,"[64, 0, 190]",190,a,0.13122040254529566,colour,0.06
112,26,1,1,10,43,493,709.6292622005567,710.2155751095852,"[70, 0, 184]",184,a,0.06283732899464667,colour,0.06
112,26,1,1,10,44,494,710.7230286436388,711.271619384177,"[97, 0, 157]",157,l,0.02554760337807238,colour,0.06
112,26,1,1,10,45,495,711.7855871297652,712.4076135930372,"[85, 0, 169]",169,l,0.09866391704417765,colour,0.06
112,26,1,1,10,46,496,712.92631103436,713.5035954194609,"[54, 0, 200]",200,a,0.05463115544989705,colour,0.06
112,26,1,1,10,47,497,714.019929785165,714.567571357009,"[88, 0, 166]",166,l,0.024672477738931775,colour,0.06
112,26,1,1,10,48,498,715.0824165913509,715.7115484288661,"[71, 0, 183]",183,a,0.105929980520159,colour,0.06
112,26,1,1,10,49,499,716.223038883647,716.8715959896799,"[53, 0, 201]",201,a,0.12549033807590604,colour,0.06
112,26,1,1,10,50,500,717.379307492869,718.0396232627099,"[60, 0, 194]",194,a,0.13717298966366798,colour,0.06
112,26,1,1,11,1,501,722.7691751763923,723.7115748166107,"[94, 0, 160]",160,l,0.4186282819136977,colour,0.06
112,26,1,1,11,2,502,724.2229817759944,724.8315796687966,"[88, 0, 166]",166,l,0.08589385694358498,colour,0.06
112,26,1,1,11,3,503,725.3480912651867,726.1275363677414,"[38, 0, 216]",216,a,0.2567225559614599,colour,0.06
112,26,1,1,11,4,504,726.6450353359105,727.2715516426833,"[57, 0, 197]",197,a,0.10395051096566021,colour,0.06
112,26,1,1,11,5,505,727.7855713759782,728.5116519315634,"[74, 0, 180]",180,a,0.20355217508040369,colour,0.06
112,26,1,1,11,6,506,729.0199199389899,729.5440918386448,"[45, 0, 209]",209,a,0.0014847991988062859,colour,0.06
112,26,1,1,11,7,507,730.0668651913293,730.679567352403,"[78, 0, 176]",176,l,0.08977678383234888,colour,0.06
112,26,1,1,11,8,508,731.1917655483121,731.7515781406546,"[81, 0, 173]",173,l,0.03625391086097807,colour,0.06
112,26,1,1,11,9,509,732.2706245293375,732.8635406590765,"[69, 0, 185]",185,a,0.07077214273158461,colour,0.06
112,26,1,1,11,10,510,733.3793468774529,734.551554037258,"[64, 0, 190]",190,a,0.6492782379500568,colour,0.06
112,26,1,1,11,11,511,735.0669100896921,735.9195620906539,"[98, 0, 156]",156,l,0.33012952806893736,colour,0.06
112,26,1,1,11,12,512,736.4262251759646,737.2075536496704,"[73, 0, 181]",181,a,0.25813488743733615,colour,0.06
112,26,1,1,11,13,513,737.7231475850567,738.4476626032265,"[89, 0, 165]",165,l,0.2018866006983444,colour,0.06
112,26,1,1,11,14,514,738.9574035943951,739.6875443076715,"[97, 0, 157]",157,l,0.20688135467935354,colour,0.06
112,26,1,1,11,15,515,740.2074319513049,740.9275831566192,"[91, 0, 163]",163,l,0.19739360641688108,colour,0.06
112,26,1,1,11,16,516,741.4417214374989,742.1995826021302,"[51, 0, 203]",203,a,0.23528079641982913,colour,0.06
112,26,1,1,11,17,517,742.7076288742246,743.3275943418266,"[87, 0, 167]",167,l,0.096960139577277,colour,0.06
112,26,1,1,11,18,518,743.8480593636632,744.4157252436271,"[75, 0, 179]",179,a,0.04503352416213602,colour,0.06
112,26,1,1,11,19,519,744.9262527450919,745.5435388789047,"[55, 0, 199]",199,a,0.09445843030698597,colour,0.06
112,26,1,1,11,20,520,746.0511861852137,746.6955571029102,"[77, 0, 177]",177,a,0.12127027905080467,colour,0.06
112,26,1,1,11,21,521,747.2074614897138,747.7442912034458,"[72, 0, 182]",182,a,0.013878342579118907,colour,0.06
112,26,1,1,11,22,522,748.2543433328392,748.8235696303891,"[65, 0, 189]",189,a,0.04590549902059138,colour,0.06
112,26,1,1,11,23,523,749.332426831359,750.3596742736408,"[58, 0, 196]",196,a,0.5044796034926549,colour,0.06
112,26,1,1,11,24,524,750.8792952835793,751.5435503004119,"[53, 0, 201]",201,a,0.14178453164640814,colour,0.06
112,26,1,1,11,25,525,752.0511653113645,752.807551129139,"[84, 0, 170]",170,l,0.2336825696984306,colour,0.06
112,26,1,1,11,26,526,753.3167757883202,754.1196913508466,"[50, 0, 204]",204,a,0.2802379144122824,colour,0.06
112,26,1,1,11,27,527,754.6292625943897,755.3435647939332,"[85, 0, 169]",169,l,0.19126300083007663,colour,0.06
112,26,1,1,11,28,528,755.8638096558861,756.4715722014662,"[60, 0, 194]",194,a,0.08557247871067375,colour,0.06
112,26,1,1,11,29,529,756.9886529052164,757.6635185249615,"[83, 0, 171]",171,l,0.1519300026120618,colour,0.06
112,26,1,1,11,30,530,758.1762720436091,758.7915038770298,"[70, 0, 184]",184,a,0.09187519492115825,colour,0.06
112,26,1,1,11,31,531,759.3011708251433,759.9276008796878,"[54, 0, 200]",200,l,0.10319117596372962,colour,0.06
112,26,1,1,11,32,532,760.4417174990522,761.5835654399125,"[86, 0, 168]",168,l,0.6190907357959077,colour,0.06
112,26,1,1,11,33,533,762.0979971359484,762.9995332926046,"[92, 0, 162]",162,l,0.37896760378498584,colour,0.06
112,26,1,1,11,34,534,763.5198336867616,764.1355582214892,"[96, 0, 158]",158,l,0.09311462810728699,colour,0.06
112,26,1,1,11,35,535,764.644993982045,765.1995605467819,"[66, 0, 188]",188,a,0.03203542728442699,colour,0.06
112,26,1,1,11,36,536,765.7073508190224,766.3596585198538,"[31, 0, 223]",223,a,0.12964029260911047,colour,0.06
112,26,1,1,11,37,537,766.8792090313509,767.4716277336702,"[90, 0, 164]",164,l,0.0690419776365161,colour,0.06
112,26,1,1,11,38,538,767.9887210405432,768.8797911356669,"[52, 0, 202]",202,a,0.368434194708243,colour,0.06
112,26,1,1,11,39,539,769.3948305359809,770.2077104003401,"[76, 0, 178]",178,a,0.28963113960344344,colour,0.06
112,26,1,1,11,40,540,770.7229356960161,771.3197950110771,"[79, 0, 175]",175,a,0.07399892236571759,colour,0.06
112,26,1,1,11,41,541,771.8323114344385,772.4557943399996,"[71, 0, 183]",183,a,0.10093522653914988,colour,0.06
112,26,1,1,11,42,542,772.9729868959403,773.559626697097,"[62, 0, 192]",192,a,0.06355649163015187,colour,0.06
112,26,1,1,11,43,543,774.0667726375395,774.807526710676,"[80, 0, 174]",174,a,0.21743800083640963,colour,0.06
112,26,1,1,11,44,544,775.3167694867589,776.1355704306625,"[95, 0, 159]",159,l,0.295742446789518,colour,0.06
112,26,1,1,11,45,545,776.6448825236876,777.3195043527521,"[67, 0, 187]",187,a,0.15198553481604904,colour,0.06
112,26,1,1,11,46,546,777.8323811452137,778.5834957291372,"[93, 0, 161]",161,l,0.22776897309813648,colour,0.06
112,26,1,1,11,47,547,779.098040065146,779.8555451930733,"[68, 0, 186]",186,a,0.23423040937632322,colour,0.06
112,26,1,1,11,48,548,780.3636521175504,780.9355506596621,"[63, 0, 191]",191,a,0.048530875938013196,colour,0.06
112,26,1,1,11,49,549,781.441811234341,782.1675133041572,"[82, 0, 172]",172,l,0.20300354773644358,colour,0.06
112,26,1,1,11,50,550,782.6761471944628,783.3195212881546,"[61, 0, 193]",193,a,0.12067872250918299,colour,0.06
112,26,1,1,12,1,551,787.956601330312,788.7755783234024,"[80, 0, 174]",174,l,0.2948625950375572,colour,0.06
112,26,1,1,12,2,552,789.2855501082959,789.8795796403429,"[99, 0, 155]",155,l,0.07063232746440917,colour,0.06
112,26,1,1,12,3,553,790.3948356560431,791.0955056666862,"[84, 0, 170]",170,l,0.17793801182415336,colour,0.06
112,26,1,1,12,4,554,791.6136450283229,792.2075906712562,"[51, 0, 203]",203,a,0.07063744752667844,colour,0.06
112,26,1,1,12,5,555,792.7229601144791,793.3197650788352,"[53, 0, 201]",201,a,0.07334986433852464,colour,0.06
112,26,1,1,12,6,556,793.8323480621912,794.4155511637218,"[50, 0, 204]",204,a,0.06059713335707784,colour,0.06
112,26,1,1,12,7,557,794.9260282529285,795.5995433750795,"[70, 0, 184]",184,a,0.1502368589863181,colour,0.06
112,26,1,1,12,8,558,796.113581619109,796.6635520018172,"[92, 0, 162]",162,l,0.02696938707958907,colour,0.06
112,26,1,1,12,9,559,797.1761267144466,797.8075633383123,"[67, 0, 187]",187,a,0.10810046538244933,colour,0.06
112,26,1,1,12,10,560,798.3167738190386,800.5275554298423,"[85, 0, 169]",169,l,1.6879676920361817,colour,0.06
112,26,1,1,12,11,561,801.0353799668374,802.9035376816755,"[60, 0, 194]",194,a,1.3454052360029891,colour,0.06
112,26,1,1,12,12,562,803.410357911489,804.2235528525198,"[78, 0, 176]",176,l,0.29014944087248296,colour,0.06
112,26,1,1,12,13,563,804.7384626775747,805.6074923672713,"[66, 0, 188]",188,a,0.34633037995081395,colour,0.06
112,26,1,1,12,14,564,806.1135213606758,806.8715522728162,"[98, 0, 156]",156,l,0.2353658671490848,colour,0.06
112,26,1,1,12,15,565,807.379114508396,808.2075323819881,"[95, 0, 159]",159,l,0.3057803977280855,colour,0.06
112,26,1,1,12,16,566,808.7229924098356,809.4635621630587,"[93, 0, 161]",161,l,0.21737931773532182,colour,0.06
112,26,1,1,12,17,567,809.972999499063,810.6157717962051,"[83, 0, 171]",171,l,0.12034474115353078,colour,0.06
112,26,1,1,12,18,568,811.1290546437958,811.7357191469055,"[56, 0, 198]",198,a,0.08390611654613167,colour,0.06
112,26,1,1,12,19,569,812.2542795297923,812.9515408040024,"[59, 0, 195]",195,a,0.17492627201136202,colour,0.06
112,26,1,1,12,20,570,813.457264566794,814.1195511417463,"[86, 0, 168]",168,l,0.13970778207294643,colour,0.06
112,26,1,1,12,21,571,814.6290633083554,815.4955456026364,"[90, 0, 164]",164,l,0.34372351388446987,colour,0.06
112,26,1,1,12,22,572,816.0041641329881,816.7435263546649,"[96, 0, 158]",158,l,0.2159984939498827,colour,0.06
112,26,1,1,12,23,573,817.2540633083554,817.9596591499867,"[71, 0, 183]",183,a,0.18292567657772452,colour,0.06
112,26,1,1,12,24,574,818.472806120757,819.4077219007304,"[61, 0, 193]",193,a,0.41197267977986485,colour,0.06
112,26,1,1,12,25,575,819.9259522407083,820.7276949301595,"[81, 0, 173]",173,l,0.27907409972976893,colour,0.06
112,26,1,1,12,26,576,821.2385056067724,821.8955221294891,"[74, 0, 180]",180,a,0.1334826535312459,colour,0.06
112,26,1,1,12,27,577,822.4104614929529,823.2158240202116,"[62, 0, 192]",192,a,0.28256908850744367,colour,0.06
112,26,1,1,12,28,578,823.7228675606893,824.3595935353078,"[68, 0, 186]",186,a,0.11421256023459136,colour,0.06
112,26,1,1,12,29,579,824.8791798867751,825.4875229612226,"[94, 0, 160]",160,l,0.08576861396431923,colour,0.06
112,26,1,1,12,30,580,826.0043244282715,826.6876723075984,"[87, 0, 167]",167,l,0.16090220643673092,colour,0.06
112,26,1,1,12,31,581,827.2072031268617,827.8556661037728,"[58, 0, 196]",196,a,0.1259015133837238,colour,0.06
112,26,1,1,12,32,582,828.3635942221154,829.0075173371006,"[91, 0, 163]",163,l,0.12151997745968401,colour,0.06
112,26,1,1,12,33,583,829.5196761484258,830.207531200489,"[73, 0, 181]",181,a,0.16531288693659008,colour,0.06
112,26,1,1,12,34,584,830.7227773698978,831.4635058430722,"[77, 0, 177]",177,a,0.21717254852410406,colour,0.06
112,26,1,1,12,35,585,831.9727616161108,832.6715033571236,"[64, 0, 190]",190,a,0.1753335086395964,colour,0.06
112,26,1,1,12,36,586,833.1915765021695,833.8154847613769,"[88, 0, 166]",166,l,0.10086315276566893,colour,0.06
112,26,1,1,12,37,587,834.3321247515269,835.0715314777335,"[76, 0, 178]",178,a,0.2168708626413718,colour,0.06
112,26,1,1,12,38,588,835.582279139082,836.1835101438919,"[3, 0, 251]",251,a,0.0787487041670829,colour,0.06
112,26,1,1,12,39,589,836.6914965515025,837.3677205458516,"[75, 0, 179]",179,a,0.15339747245889157,colour,0.06
112,26,1,1,12,40,590,837.8791215976235,838.4554942293325,"[69, 0, 185]",185,a,0.05333815922494978,colour,0.06
112,26,1,1,12,41,591,838.9727801268455,839.6635216757422,"[54, 0, 200]",200,a,0.16684809839352965,colour,0.06
112,26,1,1,12,42,592,840.1844163833885,840.7194733965443,"[72, 0, 182]",182,a,0.02095339074730873,colour,0.06
112,26,1,1,12,43,593,841.2383157730801,841.8957714339485,"[55, 0, 199]",199,a,0.1345724251586944,colour,0.06
112,26,1,1,12,44,594,842.4102559053572,843.0074830725789,"[52, 0, 202]",202,a,0.07472320517990738,colour,0.06
112,26,1,1,12,45,595,843.5196182529908,844.1355247445172,"[37, 0, 217]",217,a,0.093297372572124,colour,0.06
112,26,1,1,12,46,596,844.6445906838635,845.2075248989277,"[6, 0, 248]",248,a,0.03936017362866551,colour,0.06
112,26,1,1,12,47,597,845.7227021453436,846.3994928840548,"[79, 0, 175]",175,l,0.15345221711322665,colour,0.06
112,26,1,1,12,48,598,846.9102373946225,847.4554639032576,"[63, 0, 191]",191,a,0.02224008529447019,colour,0.06
112,26,1,1,12,49,599,847.9727064777398,848.5835355075542,"[82, 0, 172]",172,l,0.08822424325626343,colour,0.06
112,26,1,1,12,50,600,849.0977222315269,849.7275129733607,"[65, 0, 189]",189,a,0.10731828748248518,colour,0.06
112,26,1,1,13,1,601,855.5969900719356,856.2234622680116,"[63, 0, 191]",191,a,0.10327979130670428,colour,0.06
112,26,1,1,13,2,602,856.7383331023157,857.3115025851876,"[82, 0, 172]",172,l,0.05043905938509852,colour,0.06
112,26,1,1,13,3,603,857.8320530715864,858.751526546781,"[55, 0, 199]",199,a,0.39630155044142157,colour,0.06
112,26,1,1,13,4,604,859.2695288499817,859.8316478041233,"[65, 0, 189]",189,a,0.03927352756727487,colour,0.06
112,26,1,1,13,5,605,860.347659609979,860.943508710363,"[84, 0, 170]",170,l,0.07238612347282469,colour,0.06
112,26,1,1,13,6,606,861.4571078161243,862.0154903539224,"[68, 0, 186]",186,a,0.03511215152684599,colour,0.06
112,26,1,1,13,7,607,862.5352031299844,863.4875461981865,"[83, 0, 171]",171,l,0.4289289282169193,colour,0.06
112,26,1,1,13,8,608,864.0038770192768,864.63170798379,"[16, 0, 238]",238,a,0.10407575394492596,colour,0.06
112,26,1,1,13,9,609,865.1445524807787,865.8395030610263,"[89, 0, 165]",165,l,0.17212130140978843,colour,0.06
112,26,1,1,13,10,610,866.3476631545927,866.9354931581765,"[95, 0, 159]",159,l,0.06500545085873455,colour,0.06
112,26,1,1,13,11,611,867.4413575239014,868.1835262916284,"[74, 0, 180]",180,a,0.21860339085105807,colour,0.06
112,26,1,1,13,12,612,868.6914839483798,869.6394864406902,"[64, 0, 190]",190,a,0.4253606840502471,colour,0.06
112,26,1,1,13,13,613,870.1602306992281,870.7835147124715,"[98, 0, 156]",156,l,0.0999100455082953,colour,0.06
112,26,1,1,13,14,614,871.3008522038581,871.999653809471,"[86, 0, 168]",168,l,0.176297249738127,colour,0.06
112,26,1,1,13,15,615,872.5195623269537,873.0634761471301,"[34, 0, 220]",220,a,0.021347630419768393,colour,0.06
112,26,1,1,13,16,616,873.5819841484772,874.1434737368254,"[67, 0, 187]",187,a,0.038927337038330734,colour,0.06
112,26,1,1,13,17,617,874.6604705513455,875.2395429969765,"[59, 0, 195]",195,a,0.05682133254595101,colour,0.06
112,26,1,1,13,18,618,875.7538675669348,876.3114982529078,"[58, 0, 196]",196,a,0.034541862667538226,colour,0.06
112,26,1,1,13,19,619,876.8320314100711,877.4717655797722,"[96, 0, 158]",158,a,0.11693206627387553,colour,0.06
112,26,1,1,13,20,620,877.9882685116027,878.5756735552568,"[57, 0, 197]",197,a,0.06470140174496919,colour,0.06
112,26,1,1,13,21,621,879.0819786346983,879.6955090537667,"[73, 0, 181]",181,a,0.09034313436131924,colour,0.06
112,26,1,1,13,22,622,880.2069553977344,880.7594767205883,"[53, 0, 201]",201,a,0.028417558642104268,colour,0.06
112,26,1,1,13,23,623,881.2694898592308,881.8794874805026,"[88, 0, 166]",166,l,0.0863975859247148,colour,0.06
112,26,1,1,13,24,624,882.3944630777696,882.9834998251172,"[69, 0, 185]",185,a,0.06622440391220152,colour,0.06
112,26,1,1,13,25,625,883.5038691423833,884.0475041196914,"[77, 0, 177]",177,a,0.020934880012646317,colour,0.06
112,26,1,1,13,26,626,884.5663441331126,885.2074969358509,"[54, 0, 200]",200,a,0.11830501316580921,colour,0.06
112,26,1,1,13,27,627,885.7228179360973,886.543529820512,"[92, 0, 162]",162,l,0.29698581842239946,colour,0.06
112,26,1,1,13,28,628,887.0509037976153,887.647484269808,"[50, 0, 204]",204,a,0.07423719926737249,colour,0.06
112,26,1,1,13,29,629,888.1603527914267,888.7114208227722,"[70, 0, 184]",184,a,0.02817967557348311,colour,0.06
112,26,1,1,13,30,630,889.2227757945657,889.8556905222358,"[4, 0, 250]",250,a,0.11042297480162233,colour,0.06
112,26,1,1,13,31,631,890.3633287700359,890.9756166051375,"[75, 0, 179]",179,a,0.08937781793065369,colour,0.06
112,26,1,1,13,32,632,891.4883236499736,892.1036090465495,"[78, 0, 176]",176,a,0.09246281313244253,colour,0.06
112,26,1,1,13,33,633,892.6131999823265,893.2155006726971,"[52, 0, 202]",202,a,0.07920123322401196,colour,0.06
112,26,1,1,13,34,634,893.7225977762137,894.5834307445912,"[87, 0, 167]",167,l,0.337306582252495,colour,0.06
112,26,1,1,13,35,635,895.0978222683771,895.9914964727359,"[62, 0, 192]",192,a,0.37110565148759633,colour,0.06
112,26,1,1,13,36,636,896.5039388530422,897.1115001434227,"[91, 0, 163]",163,l,0.08466348238289356,colour,0.06
112,26,1,1,13,37,637,897.6288663854357,898.2794451026712,"[51, 0, 203]",203,a,0.12719372182618827,colour,0.06
112,26,1,1,13,38,638,898.785058588488,899.5834673722275,"[80, 0, 174]",174,l,0.2749048467958346,colour,0.06
112,26,1,1,13,39,639,900.0976273146225,900.7194304673467,"[76, 0, 178]",178,a,0.09843469876796007,colour,0.06
112,26,1,1,13,40,640,901.2381566592958,901.9034786047414,"[71, 0, 183]",183,a,0.142082279198803,colour,0.06
112,26,1,1,13,41,641,902.410116483923,903.0874972037273,"[99, 0, 155]",155,l,0.15416862280108035,colour,0.06
112,26,1,1,13,42,642,903.5978151791496,904.1914429884637,"[93, 0, 161]",161,l,0.07043107226490974,colour,0.06
112,26,1,1,13,43,643,904.70701289922,905.2954667547019,"[90, 0, 164]",164,l,0.06511257693637162,colour,0.06
112,26,1,1,13,44,644,905.8164335361216,906.455461933976,"[97, 0, 157]",157,l,0.11556108866352588,colour,0.06
112,26,1,1,13,45,645,906.9726383422967,907.5834961229702,"[81, 0, 173]",173,l,0.08746845286805183,colour,0.06
112,26,1,1,13,46,646,908.0978423545603,908.695529533783,"[72, 0, 182]",182,a,0.07511586952023208,colour,0.06
112,26,1,1,13,47,647,909.206923890044,909.9354797673877,"[61, 0, 193]",193,a,0.2050692696357146,colour,0.06
112,26,1,1,13,48,648,910.44133507472,911.199522343697,"[66, 0, 188]",188,a,0.23472704901359975,colour,0.06
112,26,1,1,13,49,649,911.7069534285692,912.4554784755455,"[85, 0, 169]",169,l,0.2252172454027459,colour,0.06
112,26,1,1,13,50,650,912.9726446438581,913.6316985314479,"[56, 0, 198]",198,a,0.13572127372026443,colour,0.06
112,26,1,1,14,1,651,925.1905784966657,926.0234554938506,"[65, 0, 189]",189,a,0.3087409376166761,colour,0.06
112,26,1,1,14,2,652,926.5350495300954,927.1114398849895,"[88, 0, 166]",166,l,0.053057741024531424,colour,0.06
112,26,1,1,14,3,653,927.6288825330557,928.239436658565,"[51, 0, 203]",203,a,0.08821951714344323,colour,0.06
112,26,1,1,14,4,654,928.7538344839122,929.4475338156335,"[73, 0, 181]",181,a,0.17083854519296438,colour,0.06
112,26,1,1,14,5,655,929.9569168008165,930.6075589272659,"[60, 0, 194]",194,a,0.12775061989668757,colour,0.06
112,26,1,1,14,6,656,931.1286907301983,931.7434322254267,"[80, 0, 174]",174,l,0.09177870268467814,colour,0.06
112,26,1,1,14,7,657,932.2538644161541,932.9434543595416,"[79, 0, 175]",175,l,0.1664321969728917,colour,0.06
112,26,1,1,14,8,658,933.4568797793472,934.0474702488864,"[68, 0, 186]",186,a,0.06718341878149658,colour,0.06
112,26,1,1,14,9,659,934.5662334624212,935.1034794711741,"[94, 0, 160]",160,l,0.01420129626058042,colour,0.06
112,26,1,1,14,10,660,935.6131972254952,936.175446148729,"[98, 0, 156]",156,l,0.03893048781901598,colour,0.06
112,26,1,1,14,11,661,936.6911775362678,937.2634636228904,"[72, 0, 182]",182,a,0.048966469592414796,colour,0.06
112,26,1,1,14,12,662,937.7849837577669,938.4876781365601,"[64, 0, 190]",190,a,0.18031920422799885,colour,0.06
112,26,1,1,14,13,663,939.003694274812,939.6395195237128,"[74, 0, 180]",180,a,0.11338154529221356,colour,0.06
112,26,1,1,14,14,664,940.1600192039041,941.0474127474008,"[59, 0, 195]",195,a,0.36451345845125616,colour,0.06
112,26,1,1,14,15,665,941.5661795055494,942.1034861665685,"[53, 0, 201]",201,a,0.014034699415788054,colour,0.06
112,26,1,1,14,16,666,942.6131448439555,944.7834505155915,"[83, 0, 171]",171,a,1.6475067189894617,colour,0.06
112,26,1,1,14,17,667,945.300616290071,945.9674639946315,"[96, 0, 158]",158,l,0.14345483214128762,colour,0.06
112,26,1,1,14,18,668,946.4880491393851,947.1034487512661,"[58, 0, 196]",196,a,0.09194648114498705,colour,0.06
112,26,1,1,14,19,669,947.6132748130476,948.2953824716387,"[62, 0, 192]",192,a,0.15941386274062097,colour,0.06
112,26,1,1,14,20,670,948.8162118009059,949.4633798124269,"[95, 0, 159]",159,l,0.12447697261814028,colour,0.06
112,26,1,1,14,21,671,949.9724737147335,950.7195289287483,"[54, 0, 200]",200,a,0.2236111416714266,colour,0.06
112,26,1,1,14,22,672,951.2382464561379,952.0154675109079,"[57, 0, 197]",197,a,0.2544201328419149,colour,0.06
112,26,1,1,14,23,673,952.5349349209573,953.1514558120398,"[99, 0, 155]",155,l,0.09361441852524877,colour,0.06
112,26,1,1,14,24,674,953.6600767055061,954.4954613195732,"[76, 0, 178]",178,l,0.31236392620485276,colour,0.06
112,26,1,1,14,25,675,955.0036198379239,955.7515174883883,"[61, 0, 193]",193,a,0.2246906734071672,colour,0.06
112,26,1,1,14,26,676,956.2693701301469,957.2154478973243,"[81, 0, 173]",173,a,0.42323076527100056,colour,0.06
112,26,1,1,14,27,677,957.7224142439663,958.4074513285886,"[89, 0, 165]",165,l,0.16139687702525407,colour,0.06
112,26,1,1,14,28,678,958.9255796624348,959.6315008207457,"[17, 0, 237]",237,a,0.18267873511649668,colour,0.06
112,26,1,1,14,29,679,960.1442886040313,960.719387144316,"[52, 0, 202]",202,a,0.051859267870895565,colour,0.06
112,26,1,1,14,30,680,961.2380495332181,961.7834745402215,"[9, 0, 245]",245,a,0.022399592911824584,colour,0.06
112,26,1,1,14,31,681,962.300566271646,962.8394140518503,"[93, 0, 161]",161,l,0.015861356863752007,colour,0.06
112,26,1,1,14,32,682,963.3473744655494,964.2954313085647,"[70, 0, 184]",184,l,0.4245005246484652,colour,0.06
112,26,1,1,14,33,683,964.81624685321,965.4074824423296,"[69, 0, 185]",185,a,0.06785925838630646,colour,0.06
112,26,1,1,14,34,684,965.9256166840205,966.5994665750768,"[67, 0, 187]",187,a,0.15113600913900882,colour,0.06
112,26,1,1,14,35,685,967.1130176316947,967.9434338796418,"[90, 0, 164]",164,a,0.3073026123456657,colour,0.06
112,26,1,1,14,36,686,968.4568604809465,969.135538529139,"[55, 0, 199]",199,a,0.15544310817494988,colour,0.06
112,26,1,1,14,37,687,969.6442791516893,970.2954825084889,"[84, 0, 170]",170,a,0.12874153617303818,colour,0.06
112,26,1,1,14,38,688,970.8161838378292,971.4714918568498,"[63, 0, 191]",191,a,0.13257641391828656,colour,0.06
112,26,1,1,14,39,689,971.9880432316568,972.6874651446706,"[86, 0, 168]",168,l,0.17643509584013373,colour,0.06
112,26,1,1,14,40,690,973.2068057362922,973.7914054155117,"[71, 0, 183]",183,a,0.06112016073893756,colour,0.06
112,26,1,1,14,41,691,974.3004878963111,974.8874620726565,"[82, 0, 172]",172,l,0.06360769167076796,colour,0.06
112,26,1,1,14,42,692,975.3943354716757,975.9913972235518,"[91, 0, 163]",163,l,0.0741659130435437,colour,0.06
112,26,1,1,14,43,693,976.5036797024077,977.0873825945891,"[78, 0, 176]",176,a,0.06038563826587051,colour,0.06
112,26,1,1,14,44,694,977.5974524470512,978.2074288005242,"[97, 0, 157]",157,l,0.08645114884711802,colour,0.06
112,26,1,1,14,45,695,978.7223362624645,979.3354287248803,"[66, 0, 188]",188,a,0.08997173758689314,colour,0.06
112,26,1,1,14,46,696,979.8475162500981,980.4394359496655,"[75, 0, 179]",179,a,0.06882299936842173,colour,0.06
112,26,1,1,14,47,697,980.9568821424618,981.5834075076273,"[36, 0, 218]",218,a,0.10335265274625272,colour,0.06
112,26,1,1,14,48,698,982.0974674131721,982.679429506301,"[85, 0, 169]",169,l,0.05885633442085236,colour,0.06
112,26,1,1,14,49,699,983.1913086869754,983.7914566155523,"[77, 0, 177]",177,l,0.07722333900164813,colour,0.06
112,26,1,1,14,50,700,984.3006470100954,984.9513923241757,"[87, 0, 167]",167,l,0.1279258814174682,colour,0.06
112,26,1,1,15,1,701,989.8326127266046,990.4634077755036,"[50, 0, 204]",204,a,0.1069756414508447,colour,0.06
112,26,1,1,15,2,702,990.9749604578828,991.5594632510329,"[57, 0, 197]",197,a,0.06345448561478406,colour,0.06
112,26,1,1,15,3,703,992.0669053635793,993.4714315984165,"[74, 0, 180]",180,l,0.8817465805914253,colour,0.06
112,26,1,1,15,4,704,993.9887037113076,994.5274309745291,"[73, 0, 181]",181,l,0.01542773237451911,colour,0.06
112,26,1,1,15,5,705,995.0355926436605,995.9593747932231,"[99, 0, 155]",155,l,0.40076933859381825,colour,0.06
112,26,1,1,15,6,706,996.4731093820883,997.0713774840115,"[96, 0, 158]",158,l,0.07547938928473741,colour,0.06
112,26,1,1,15,7,707,997.5824122590711,998.1433563707396,"[98, 0, 156]",156,l,0.037451202515512705,colour,0.06
112,26,1,1,15,8,708,998.663599263411,999.1994203375652,"[60, 0, 194]",194,a,0.01228838658425957,colour,0.06
112,26,1,1,15,9,709,999.7124719975982,1000.2794238349888,"[71, 0, 183]",183,a,0.04379645420704037,colour,0.06
112,26,1,1,15,10,710,1000.7907094898401,1001.6793952417793,"[93, 0, 161]",161,l,0.365800547064282,colour,0.06
112,26,1,1,15,11,711,1002.1968508868013,1002.8955638770713,"[90, 0, 164]",164,l,0.17557021009270102,colour,0.06
112,26,1,1,15,12,712,1003.4161222403636,1004.2874456886202,"[61, 0, 193]",193,a,0.34730908705387264,colour,0.06
112,26,1,1,15,13,713,1004.7955025946721,1005.551400831202,"[82, 0, 172]",172,l,0.23286218859720975,colour,0.06
112,26,1,1,15,14,714,1006.0611099208472,1006.7114385458408,"[89, 0, 165]",165,l,0.12737804162316024,colour,0.06
112,26,1,1,15,15,715,1007.2173438715981,1007.839417596464,"[75, 0, 179]",179,a,0.09877655701711774,colour,0.06
112,26,1,1,15,16,716,1008.358003973146,1008.9354328997433,"[97, 0, 157]",157,l,0.05398839886765927,colour,0.06
112,26,1,1,15,17,717,1009.4517302439781,1009.9913964358857,"[53, 0, 201]",201,a,0.016487965709529817,colour,0.06
112,26,1,1,15,18,718,1010.4994371942012,1011.0555405457271,"[92, 0, 162]",162,l,0.03356866945978254,colour,0.06
112,26,1,1,15,19,719,1011.5768314623274,1012.1674077534117,"[62, 0, 192]",192,a,0.06750676629599184,colour,0.06
112,26,1,1,15,20,720,1012.6861524562119,1013.2554504337022,"[78, 0, 176]",176,l,0.04652029252611101,colour,0.06
112,26,1,1,15,21,721,1013.7642690377543,1014.3514121739427,"[84, 0, 170]",170,l,0.06388456537388265,colour,0.06
112,26,1,1,15,22,722,1014.8579925516387,1015.6074250196107,"[81, 0, 173]",173,l,0.22594074031803757,colour,0.06
112,26,1,1,15,23,723,1016.1238090099068,1016.6714143479476,"[67, 0, 187]",187,a,0.024684686912223697,colour,0.06
112,26,1,1,15,24,724,1017.186236739275,1017.9113874246832,"[83, 0, 171]",171,l,0.21135859517380595,colour,0.06
112,26,1,1,15,25,725,1018.4269904185785,1019.3993806379149,"[87, 0, 167]",167,l,0.4492568915011361,colour,0.06
112,26,1,1,15,26,726,1019.9019386671716,1020.5834212922491,"[19, 0, 235]",235,a,0.15856906317640096,colour,0.06
112,26,1,1,15,27,727,1021.0893845133251,1021.7273904872127,"[3, 0, 251]",251,a,0.115080596646294,colour,0.06
112,26,1,1,15,28,728,1022.245959534659,1023.3753765167203,"[77, 0, 177]",177,l,0.6067633584607393,colour,0.06
112,26,1,1,15,29,729,1023.8866231808206,1024.5834425599314,"[47, 0, 207]",207,a,0.17403302947059274,colour,0.06
112,26,1,1,15,30,730,1025.0897657562746,1025.703350919881,"[59, 0, 195]",195,a,0.09061094955541193,colour,0.06
112,26,1,1,15,31,731,1026.2146826547105,1026.8874179619597,"[69, 0, 185]",185,a,0.14997573918662965,colour,0.06
112,26,1,1,15,32,732,1027.402404980734,1027.9433763780398,"[52, 0, 202]",202,a,0.017756543355062604,colour,0.06
112,26,1,1,15,33,733,1028.4648858791916,1029.0154159170343,"[66, 0, 188]",188,a,0.027773226611316204,colour,0.06
112,26,1,1,15,34,734,1029.5272954915417,1030.0874239483383,"[65, 0, 189]",189,a,0.037832445348612964,colour,0.06
112,26,1,1,15,35,735,1030.5954828235554,1031.3594107907265,"[76, 0, 178]",178,a,0.24103685445152223,colour,0.06
112,26,1,1,15,36,736,1031.8767553713406,1032.51941069623,"[51, 0, 203]",203,a,0.11941526480950415,colour,0.06
112,26,1,1,15,37,737,1033.0330653343117,1033.6153799195308,"[54, 0, 200]",200,a,0.05917416815645993,colour,0.06
112,26,1,1,15,38,738,1034.1272252295166,1034.687407643185,"[80, 0, 174]",174,l,0.03684152907226235,colour,0.06
112,26,1,1,15,39,739,1035.2056765800808,1035.791410535574,"[86, 0, 168]",168,l,0.06243993854150176,colour,0.06
112,26,1,1,15,40,740,1036.2994355401024,1036.8874471065355,"[79, 0, 175]",175,l,0.06488099554553628,colour,0.06
112,26,1,1,15,41,741,1037.3939412318869,1037.9593421040336,"[94, 0, 160]",160,l,0.04313754988834262,colour,0.06
112,26,1,1,15,42,742,1038.4715095799183,1039.4873894475168,"[88, 0, 166]",166,l,0.49285839195363224,colour,0.06
112,26,1,1,15,43,743,1040.0034020410385,1040.6874289108673,"[72, 0, 182]",182,a,0.1618198675569147,colour,0.06
112,26,1,1,15,44,744,1041.2060511275195,1042.0873648715205,"[63, 0, 191]",191,a,0.3578881825087592,colour,0.06
112,26,1,1,15,45,745,1042.596602133708,1043.13538492925,"[56, 0, 198]",198,a,0.01525365246925503,colour,0.06
112,26,1,1,15,46,746,1043.6435493552126,1044.1833644208964,"[64, 0, 190]",190,a,0.01706219301559031,colour,0.06
112,26,1,1,15,47,747,1044.6903295860393,1045.327384028118,"[70, 0, 184]",184,a,0.11372340354137123,colour,0.06
112,26,1,1,15,48,748,1045.84673997981,1046.3834440566134,"[58, 0, 196]",196,a,0.013458502828143537,colour,0.06
112,26,1,1,15,49,749,1046.8935347829247,1047.4953325319802,"[55, 0, 199]",199,a,0.07662745006382465,colour,0.06
112,26,1,1,15,50,750,1048.0072006849805,1048.583418929251,"[91, 0, 163]",163,l,0.05577449023257941,colour,0.06
112,26,1,1,16,1,751,1053.0646647741087,1053.9513864164473,"[88, 0, 166]",166,l,0.37123877147678286,colour,0.06
112,26,1,1,16,2,752,1054.4636610184098,1055.0393712014193,"[14, 0, 240]",240,a,0.05269264581147581,colour,0.06
112,26,1,1,16,3,753,1055.5574428214459,1056.2794368318282,"[67, 0, 187]",187,a,0.19868187641259283,colour,0.06
112,26,1,1,16,4,754,1056.7918607013999,1057.4234087837394,"[72, 0, 182]",182,a,0.10869753581937402,colour,0.06
112,26,1,1,16,5,755,1057.9325042613782,1058.7833709587576,"[69, 0, 185]",185,a,0.32783537555951625,colour,0.06
112,26,1,1,16,6,756,1059.29332777753,1059.8953756187111,"[59, 0, 195]",195,a,0.07951434073038399,colour,0.06
112,26,1,1,16,7,757,1060.3942295270972,1061.007372007938,"[62, 0, 192]",192,a,0.09022970660589635,colour,0.06
112,26,1,1,16,8,758,1061.5192318902118,1062.0793666485697,"[85, 0, 169]",169,l,0.03717157198116183,colour,0.06
112,26,1,1,16,9,759,1062.5921729424736,1063.1593740843236,"[47, 0, 207]",207,a,0.043826780281960964,colour,0.06
112,26,1,1,16,10,760,1063.6702922809636,1064.559344309615,"[58, 0, 196]",196,a,0.36574895319063216,colour,0.06
112,26,1,1,16,11,761,1065.0765660101315,1065.6393808899447,"[53, 0, 201]",201,a,0.03962365654297173,colour,0.06
112,26,1,1,16,12,762,1066.154604610172,1066.7433778747218,"[87, 0, 167]",167,l,0.0656655365601182,colour,0.06
112,26,1,1,16,13,763,1067.265686883009,1067.847362650209,"[73, 0, 181]",181,l,0.059238365036435425,colour,0.06
112,26,1,1,16,14,764,1068.3594359968556,1068.9833537082886,"[83, 0, 171]",171,l,0.10080958961043507,colour,0.06
112,26,1,1,16,15,765,1069.5020921095274,1070.1353577539558,"[76, 0, 178]",178,l,0.11092276533599943,colour,0.06
112,26,1,1,16,16,766,1070.6434800383868,1071.3593611661345,"[99, 0, 155]",155,l,0.19257372000720352,colour,0.06
112,26,1,1,16,17,767,1071.8777506198967,1072.4793510521995,"[94, 0, 160]",160,l,0.07848207058850676,colour,0.06
112,26,1,1,16,18,768,1072.9889100865694,1073.6153389596147,"[77, 0, 177]",177,a,0.11376830202061683,colour,0.06
112,26,1,1,16,19,769,1074.1344723883085,1074.7033544644946,"[92, 0, 162]",162,l,0.045363960904069245,colour,0.06
112,26,1,1,16,20,770,1075.2138366736472,1076.1033463513013,"[98, 0, 156]",156,l,0.3658659254433587,colour,0.06
112,26,1,1,16,21,771,1076.6201052828692,1077.199417974567,"[52, 0, 202]",202,a,0.056022219243459404,colour,0.06
112,26,1,1,16,22,772,1077.7139209567104,1078.2713736243313,"[84, 0, 170]",170,l,0.03466041025239974,colour,0.06
112,26,1,1,16,23,773,1078.7931619683513,1079.3514046908822,"[70, 0, 184]",184,a,0.03504401620011777,colour,0.06
112,26,1,1,16,24,774,1079.8648131752852,1080.423362309928,"[97, 0, 157]",157,l,0.03557373897638172,colour,0.06
112,26,1,1,16,25,775,1080.9429352706065,1081.4873634536052,"[75, 0, 179]",179,a,0.021222387440502644,colour,0.06
112,26,1,1,16,26,776,1082.0053964768304,1082.6633755589137,"[80, 0, 174]",174,a,0.1419593992177397,colour,0.06
112,26,1,1,16,27,777,1083.170126471785,1084.1034278774168,"[68, 0, 186]",186,a,0.4099853332154453,colour,0.06
112,26,1,1,16,28,778,1084.6235270162579,1085.1593350935727,"[93, 0, 161]",161,l,0.013359647477045655,colour,0.06
112,26,1,1,16,29,779,1085.6704687239835,1086.279336007312,"[74, 0, 180]",180,l,0.08558074943721294,colour,0.06
112,26,1,1,16,30,780,1086.7953588409582,1087.4873484874843,"[90, 0, 164]",164,l,0.1684695619624108,colour,0.06
112,26,1,1,16,31,781,1087.9985660070088,1088.5753037340473,"[34, 0, 220]",220,a,0.05388993746601045,colour,0.06
112,26,1,1,16,32,782,1089.0933249418158,1089.6793759432621,"[54, 0, 200]",200,a,0.07545615232083946,colour,0.06
112,26,1,1,16,33,783,1090.1908384349663,1090.7913097110577,"[86, 0, 168]",168,l,0.07785743102431297,colour,0.06
112,26,1,1,16,34,784,1091.2883219958749,1091.8953708925983,"[95, 0, 159]",159,l,0.08384231349918991,colour,0.06
112,26,1,1,16,35,785,1092.4040071459021,1093.0474958488485,"[71, 0, 183]",183,a,0.12021398427896202,colour,0.06
112,26,1,1,16,36,786,1093.560248185997,1094.191553265322,"[55, 0, 199]",199,a,0.10767353640403599,colour,0.06
112,26,1,1,16,37,787,1094.701212336542,1095.671301314258,"[89, 0, 165]",165,l,0.4532044092193246,colour,0.06
112,26,1,1,16,38,788,1096.1795547492802,1096.711354262894,"[91, 0, 163]",163,l,0.021457513561472297,colour,0.06
112,26,1,1,16,39,789,1097.2324084781576,1097.7913360986859,"[64, 0, 190]",190,a,0.035778932739049196,colour,0.06
112,26,1,1,16,40,790,1098.3106128872605,1099.2234008280793,"[56, 0, 198]",198,a,0.3894545391667634,colour,0.06
112,26,1,1,16,41,791,1099.7325656226603,1100.3114632006036,"[82, 0, 172]",172,l,0.055571659468114376,colour,0.06
112,26,1,1,16,42,792,1100.8263998072362,1101.3833751335042,"[50, 0, 204]",204,a,0.03411020745988935,colour,0.06
112,26,1,1,16,43,793,1101.9043556995457,1102.58337206149,"[78, 0, 176]",176,l,0.15595392626710236,colour,0.06
112,26,1,1,16,44,794,1103.0918874042109,1103.623393896385,"[65, 0, 189]",189,a,0.008169546024873853,colour,0.06
112,26,1,1,16,45,795,1104.1301369323628,1104.671544710989,"[60, 0, 194]",194,a,0.017506057396531105,colour,0.06
112,26,1,1,16,46,796,1105.1947319956962,1106.079315054696,"[63, 0, 191]",191,a,0.3614654849516228,colour,0.06
112,26,1,1,16,47,797,1106.585772552411,1107.1993368422845,"[66, 0, 188]",188,a,0.09019307908602059,colour,0.06
112,26,1,1,16,48,798,1107.7108032724354,1108.575371475541,"[57, 0, 197]",197,a,0.3414927705889568,colour,0.06
112,26,1,1,16,49,799,1109.0856788171222,1109.7833355126204,"[79, 0, 175]",175,l,0.17438985384069383,colour,0.06
112,26,1,1,16,50,800,1110.292146633612,1111.1433914230438,"[61, 0, 193]",193,a,0.3395117255859077,colour,0.06
