id,age,condition,counterbalance,block,trialinblock,trial,tstart,tend,trialstim,trialintensity,response,RT,trialtype,colourfreq
108,21,1,1,Practice,1,NA,5.513837095350027e-06,0.7421530138817616,"[54, 0, 200]",200,a,0.2020831298432313,colour,0.5
108,21,1,1,Practice,2,NA,1.2508885163697414,1.8301283465116285,"[0, 0, 254]",254,a,0.05666221881983802,colour,0.5
108,21,1,1,Practice,3,NA,2.344562799495179,2.9901258889003657,"[35, 0, 219]",219,a,0.12226789083797485,colour,0.5
108,21,1,1,Practice,4,NA,3.502533610793762,6.558201368665323,"[9, 0, 245]",245,a,2.5322863070759922,colour,0.5
108,21,1,1,Practice,5,NA,7.065444195177406,7.734073264815379,"[82, 0, 172]",172,l,0.14560523093678057,colour,0.5
108,21,1,1,Practice,6,NA,8.252565118484199,9.334092405682895,"[1, 0, 253]",253,a,0.5587507837335579,colour,0.5
108,21,1,1,Practice,7,NA,9.846320140000898,12.822108068154193,"[56, 0, 198]",198,a,2.4524714619037695,colour,0.5
108,21,1,1,Practice,8,NA,13.330658069287892,14.31010167527711,"[61, 0, 193]",193,a,0.45610469055827707,colour,0.5
108,21,1,1,Practice,9,NA,14.83069430309115,15.438127199653536,"[16, 0, 238]",238,a,0.08468278078362346,colour,0.5
108,21,1,1,Practice,10,NA,15.955655312340241,16.518140543135814,"[97, 0, 157]",157,l,0.039081330760382116,colour,0.5
108,21,1,1,1,1,1,4.279704647080507,4.808036347269081,"[53, 0, 201]",201,a,0.004156649869401008,colour,0.5
108,21,1,1,1,2,2,5.327440348104574,6.783998355269432,"[52, 0, 202]",202,a,0.9333636331721209,colour,0.5
108,21,1,1,1,3,3,7.296224120364059,7.839994974492583,"[62, 0, 192]",192,a,0.020635163178667426,colour,0.5
108,21,1,1,1,4,4,8.359863319725264,9.384000560850836,"[75, 0, 179]",179,l,0.5010062763467431,colour,0.5
108,21,1,1,1,5,5,9.891111055098008,10.471992828825023,"[80, 0, 174]",174,l,0.05755270447116345,colour,0.5
108,21,1,1,1,6,6,10.98491530737374,12.456017650605645,"[23, 0, 231]",231,a,0.9478449539165013,colour,0.5
108,21,1,1,1,7,7,12.956994782318361,13.567975049081724,"[40, 0, 214]",214,a,0.08765277283964679,colour,0.5
108,21,1,1,1,8,8,14.081997539266013,14.656008277030196,"[98, 0, 156]",156,l,0.0507332623237744,colour,0.5
108,21,1,1,1,9,9,15.175689939293079,15.85591777128866,"[19, 0, 235]",235,a,0.15726700867526233,colour,0.5
108,21,1,1,1,10,10,16.363338616094552,16.91998153651366,"[55, 0, 199]",199,a,0.03337726031895727,colour,0.5
108,21,1,1,1,11,11,17.441378003859427,17.991967512411065,"[30, 0, 224]",224,a,0.02737386687658727,colour,0.5
108,21,1,1,1,12,12,18.50378131470643,19.703978710225783,"[38, 0, 216]",216,a,0.6768116124439985,colour,0.5
108,21,1,1,1,13,13,20.223242501961067,20.92794982716441,"[64, 0, 190]",190,a,0.1813333574682474,colour,0.5
108,21,1,1,1,14,14,21.441964046563953,22.535951437195763,"[92, 0, 162]",162,l,0.5706914043985307,colour,0.5
108,21,1,1,1,15,15,23.051320092752576,23.983988587919157,"[36, 0, 218]",218,a,0.40931106894277036,colour,0.5
108,21,1,1,1,16,16,24.504463455814403,25.455942819884513,"[71, 0, 183]",183,l,0.42804159328807145,colour,0.5
108,21,1,1,1,17,17,25.97324525885051,26.503929400758352,"[0, 0, 254]",254,a,0.007388943340629339,colour,0.5
108,21,1,1,1,18,18,27.02003769890871,28.295944883604534,"[1, 0, 253]",253,a,0.752478078531567,colour,0.5
108,21,1,1,1,19,19,28.81696601578733,29.535966403374914,"[9, 0, 245]",245,a,0.195683921338059,colour,0.5
108,21,1,1,1,20,20,30.051317729696166,30.615976202243473,"[69, 0, 185]",185,l,0.04131995094940066,colour,0.5
108,21,1,1,1,21,21,31.129454397363588,32.07998813735321,"[56, 0, 198]",198,a,0.42722711991518736,colour,0.5
108,21,1,1,1,22,22,32.598193271202035,33.1279841705109,"[84, 0, 170]",170,l,0.004175554437097162,colour,0.5
108,21,1,1,1,23,23,33.64732082374394,34.191932538931724,"[16, 0, 238]",238,a,0.021234596730209887,colour,0.5
108,21,1,1,1,24,24,34.709850165236276,35.87992031709291,"[37, 0, 217]",217,a,0.6469183132285252,colour,0.5
108,21,1,1,1,25,25,36.39744449133286,37.16799655306386,"[5, 0, 249]",249,a,0.24724938010331243,colour,0.5
108,21,1,1,1,26,26,37.678605580644216,38.69597969960887,"[89, 0, 165]",165,l,0.4938981451559812,colour,0.5
108,21,1,1,1,27,27,39.20989073137753,40.12798574590124,"[47, 0, 207]",207,a,0.3948648005607538,colour,0.5
108,21,1,1,1,28,28,40.6473393344786,41.61592815304175,"[39, 0, 215]",215,a,0.44510614936007187,colour,0.5
108,21,1,1,1,29,29,42.13367445638869,42.943955331575125,"[11, 0, 243]",243,a,0.2869675597175956,colour,0.5
108,21,1,1,1,30,30,43.46172172104707,44.36792889033677,"[78, 0, 176]",176,l,0.38284107844810933,colour,0.5
108,21,1,1,1,31,31,44.88362286257325,45.77594538772246,"[15, 0, 239]",239,a,0.368982034327928,colour,0.5
108,21,1,1,1,32,32,46.28992691793246,47.18400166358333,"[86, 0, 168]",168,l,0.3706531225470826,colour,0.5
108,21,1,1,1,33,33,47.696302653232124,48.58395377191482,"[59, 0, 195]",195,a,0.3642251632991247,colour,0.5
108,21,1,1,1,34,34,49.10256062861299,49.99193127860781,"[73, 0, 181]",181,l,0.36419877561274916,colour,0.5
108,21,1,1,1,35,35,50.510585396841634,51.487968794768676,"[68, 0, 186]",186,l,0.4541071039857343,colour,0.5
108,21,1,1,1,36,36,51.99500406446168,52.7599182217964,"[82, 0, 172]",172,l,0.24155318649718538,colour,0.5
108,21,1,1,1,37,37,53.276223836815916,54.2160075524007,"[94, 0, 160]",160,l,0.4165905231493525,colour,0.5
108,21,1,1,1,38,38,54.72942706447793,55.47194714273792,"[4, 0, 250]",250,a,0.21990623319288716,colour,0.5
108,21,1,1,1,39,39,55.97938137833262,56.935941748612095,"[35, 0, 219]",219,a,0.43329313478898257,colour,0.5
108,21,1,1,1,40,40,57.44817105832044,58.21603078930639,"[10, 0, 244]",244,a,0.2442900218302384,colour,0.5
108,21,1,1,1,41,41,58.72956491052173,59.55191243701847,"[8, 0, 246]",246,a,0.29951509687816724,colour,0.5
108,21,1,1,1,42,42,60.07339239970315,60.99197026935872,"[50, 0, 204]",204,a,0.3955634832382202,colour,0.5
108,21,1,1,1,43,43,61.510907956631854,62.44797807378927,"[57, 0, 197]",197,a,0.41378752171294764,colour,0.5
108,21,1,1,1,44,44,62.96396467357408,63.84799083438702,"[31, 0, 223]",223,a,0.36079830990638584,colour,0.5
108,21,1,1,1,45,45,64.35460705205332,65.29594567132881,"[13, 0, 241]",241,a,0.4179784361622296,colour,0.5
108,21,1,1,1,46,46,65.79536711162655,66.74391980667133,"[21, 0, 233]",233,a,0.4252728564897552,colour,0.5
108,21,1,1,1,47,47,67.26405951171182,68.14391996420454,"[81, 0, 173]",173,l,0.3565526509191841,colour,0.5
108,21,1,1,1,48,48,68.65467156399973,69.57592837361153,"[58, 0, 196]",196,a,0.39812111866194755,colour,0.5
108,21,1,1,1,49,49,70.09227219165768,71.12792273057858,"[28, 0, 226]",226,a,0.5125495064421557,colour,0.5
108,21,1,1,1,50,50,71.63904060708592,72.60791023779893,"[18, 0, 236]",236,a,0.4454803030239418,colour,0.5
108,21,1,1,2,1,51,77.54446677985834,78.47994497185573,"[40, 0, 214]",214,a,0.41132204624591395,colour,0.5
108,21,1,1,2,2,52,78.99849944701418,79.91994609037647,"[86, 0, 168]",168,l,0.3982081586145796,colour,0.5
108,21,1,1,2,3,53,80.4359039394185,81.39994935138384,"[7, 0, 247]",247,a,0.44073209655471146,colour,0.5
108,21,1,1,2,4,54,81.9202375363675,82.73595151596237,"[51, 0, 203]",203,a,0.29237782111158594,colour,0.5
108,21,1,1,2,5,55,83.24837026558816,83.9919356108876,"[83, 0, 171]",171,l,0.22014529764419422,colour,0.5
108,21,1,1,2,6,56,84.49833757634042,85.43191231100354,"[72, 0, 182]",182,l,0.41019131464418024,colour,0.5
108,21,1,1,2,7,57,85.95151520404033,87.70391293801367,"[63, 0, 191]",191,l,1.2290840246714652,colour,0.5
108,21,1,1,2,8,58,88.21714616095414,89.19191875430988,"[1, 0, 253]",253,a,0.4515234748250805,colour,0.5
108,21,1,1,2,9,59,89.70145730866352,90.65593738481402,"[49, 0, 205]",205,a,0.43115258222678676,colour,0.5
108,21,1,1,2,10,60,91.17154825554462,92.08794067421695,"[78, 0, 176]",176,l,0.393397330713924,colour,0.5
108,21,1,1,2,11,61,92.6090579048032,93.53590338799404,"[3, 0, 251]",251,a,0.4036822230555117,colour,0.5
108,21,1,1,2,12,62,94.04653998481808,95.0319196365308,"[2, 0, 252]",252,a,0.46209626854397357,colour,0.5
108,21,1,1,2,13,63,95.54652935097693,96.52790555887623,"[39, 0, 215]",215,a,0.4580093293916434,colour,0.5
108,21,1,1,2,14,64,97.04650887096068,98.15201034711208,"[52, 0, 202]",202,a,0.5824075328418985,colour,0.5
108,21,1,1,2,15,65,98.67155180015834,99.76792629092233,"[24, 0, 230]",230,a,0.5730627506854944,colour,0.5
108,21,1,1,2,16,66,100.28099331090925,101.35190566285746,"[61, 0, 193]",193,l,0.5476600825786591,colour,0.5
108,21,1,1,2,17,67,101.8589846494724,102.89592818456003,"[6, 0, 248]",248,a,0.5136955980560742,colour,0.5
108,21,1,1,2,18,68,103.4059027263429,104.39995053294115,"[28, 0, 226]",226,a,0.47079829417634755,colour,0.5
108,21,1,1,2,19,69,104.92154195404146,105.86393017269438,"[45, 0, 209]",209,a,0.41910601704148576,colour,0.5
108,21,1,1,2,20,70,106.37466089864029,107.29589801596012,"[31, 0, 223]",223,a,0.39792222646065056,colour,0.5
108,21,1,1,2,21,71,107.81208468944533,108.70389757800149,"[58, 0, 196]",196,a,0.36843655770644546,colour,0.5
108,21,1,1,2,22,72,109.21831115719397,110.12796211516252,"[80, 0, 174]",174,l,0.3862454826012254,colour,0.5
108,21,1,1,2,23,73,110.64036983705591,111.67192871071165,"[69, 0, 185]",185,l,0.5083794657839462,colour,0.5
108,21,1,1,2,24,74,112.18708153872285,113.11190738005098,"[20, 0, 234]",234,a,0.40185241494327784,colour,0.5
108,21,1,1,2,25,75,113.62459709559334,114.56791282142513,"[77, 0, 177]",177,l,0.4200587303494103,colour,0.5
108,21,1,1,2,26,76,115.07776605867548,115.95986394985812,"[19, 0, 235]",235,a,0.3587156527210027,colour,0.5
108,21,1,1,2,27,77,116.46838441252476,117.44794814148918,"[97, 0, 157]",157,l,0.4563114596530795,colour,0.5
108,21,1,1,2,28,78,117.96836078178603,119.2398828859441,"[53, 0, 201]",201,a,0.7481910656788386,colour,0.5
108,21,1,1,2,29,79,119.74954116949812,120.75196214037715,"[46, 0, 208]",208,a,0.479801218083594,colour,0.5
108,21,1,1,2,30,80,121.25538387370761,122.19987404806307,"[76, 0, 178]",178,l,0.4211244773468934,colour,0.5
108,21,1,1,2,31,81,122.71253068058286,124.41594107117271,"[96, 0, 158]",158,l,1.1801927796914242,colour,0.5
108,21,1,1,2,32,82,124.93129633594071,125.99989484314574,"[59, 0, 195]",195,a,0.5452032717876136,colour,0.5
108,21,1,1,2,33,83,126.5070041558356,127.48791838251054,"[57, 0, 197]",197,a,0.45538277097512037,colour,0.5
108,21,1,1,2,34,84,128.00931878830306,129.24790749658132,"[9, 0, 245]",245,a,0.7152868143166415,colour,0.5
108,21,1,1,2,35,85,129.7593613236677,130.82391936553176,"[30, 0, 224]",224,a,0.5413376740179956,colour,0.5
108,21,1,1,2,36,86,131.3373967729858,132.4239140879945,"[10, 0, 244]",244,a,0.5631669780705124,colour,0.5
108,21,1,1,2,37,87,132.9312148098834,133.84792191139422,"[85, 0, 169]",169,l,0.39402551495004445,colour,0.5
108,21,1,1,2,38,88,134.36866892682156,135.7199054454686,"[91, 0, 163]",163,l,0.8278034740360454,colour,0.5
108,21,1,1,2,39,89,136.2280651452602,137.84000088222092,"[82, 0, 172]",172,l,1.0885861876886338,colour,0.5
108,21,1,1,2,40,90,138.3530887759989,141.97588993422687,"[18, 0, 236]",236,l,3.1112638358026743,colour,0.5
108,21,1,1,2,41,91,142.48379836033564,143.02387887821533,"[8, 0, 246]",246,a,0.016819583950564265,colour,0.5
108,21,1,1,2,42,92,143.5306794157368,144.70395271643065,"[62, 0, 192]",192,a,0.6499450191040523,colour,0.5
108,21,1,1,2,43,93,145.21813628956443,146.2959334620973,"[37, 0, 217]",217,a,0.554439352476038,colour,0.5
108,21,1,1,2,44,94,146.8119432987878,147.80791189195588,"[17, 0, 237]",237,a,0.47262849617982283,colour,0.5
108,21,1,1,2,45,95,148.31531816447387,149.3919389192015,"[90, 0, 164]",164,l,0.5532897161901928,colour,0.5
108,21,1,1,2,46,96,149.90901529067196,150.95984189450974,"[74, 0, 180]",180,l,0.5275640945183113,colour,0.5
108,21,1,1,2,47,97,151.47149264451582,152.1519138548756,"[81, 0, 173]",173,l,0.15745605470146984,colour,0.5
108,21,1,1,2,48,98,152.6489229889121,153.55193803698057,"[23, 0, 231]",231,a,0.37966864951886237,colour,0.5
108,21,1,1,2,49,99,154.07080719509395,155.11193061695667,"[25, 0, 229]",229,a,0.5177971094963141,colour,0.5
108,21,1,1,2,50,100,155.6332455581869,156.60785825009225,"[38, 0, 216]",216,a,0.4512044595903717,colour,0.5
108,21,1,1,3,1,101,161.3823987894575,161.9758470050292,"[94, 0, 160]",160,l,0.06916288839420304,colour,0.5
108,21,1,1,3,2,102,162.4925870320876,163.43188316636952,"[73, 0, 181]",181,l,0.4160438649705611,colour,0.5
108,21,1,1,3,3,103,163.94578592741163,164.67188184306724,"[79, 0, 175]",175,l,0.20279165863757953,colour,0.5
108,21,1,1,3,4,104,165.20760957582388,166.0399261302664,"[97, 0, 157]",157,l,0.3052656411891803,colour,0.5
108,21,1,1,3,5,105,166.5426869901712,167.50385575153632,"[33, 0, 221]",221,a,0.43783496593823656,colour,0.5
108,21,1,1,3,6,106,168.0124967310694,168.85594652203145,"[10, 0, 244]",244,a,0.3200793678406626,colour,0.5
108,21,1,1,3,7,107,169.3718901926186,170.22389234771254,"[37, 0, 217]",217,a,0.3286502427654341,colour,0.5
108,21,1,1,3,8,108,170.73125805414747,171.66391118930187,"[8, 0, 246]",246,a,0.4092921643750742,colour,0.5
108,21,1,1,3,9,109,172.18437502952293,173.03189600573387,"[23, 0, 231]",231,a,0.3244987129000947,colour,0.5
108,21,1,1,3,10,110,173.54382756794803,174.45585893065436,"[29, 0, 225]",225,a,0.3888318687095307,colour,0.5
108,21,1,1,3,11,111,174.9656141002779,175.85591462050797,"[92, 0, 162]",162,l,0.3669801155338064,colour,0.5
108,21,1,1,3,12,112,176.3718913741177,177.25586554728216,"[89, 0, 165]",165,l,0.3606592823052779,colour,0.5
108,21,1,1,3,13,113,177.76246798032662,178.75188652193174,"[27, 0, 227]",227,a,0.4668346287799068,colour,0.5
108,21,1,1,3,14,114,179.2624545895378,180.20795852330048,"[24, 0, 230]",230,a,0.43143418204272166,colour,0.5
108,21,1,1,3,15,115,180.7225481515634,181.5438795555965,"[71, 0, 183]",183,l,0.2979326240019873,colour,0.5
108,21,1,1,3,16,116,182.0506867885124,182.93588267173618,"[5, 0, 249]",249,a,0.3618423955049366,colour,0.5
108,21,1,1,3,17,117,183.45691798237385,184.27193761162926,"[76, 0, 178]",178,l,0.2916614153655246,colour,0.5
108,21,1,1,3,18,118,184.78510860691313,185.6398751665838,"[36, 0, 218]",218,a,0.33146781648974866,colour,0.5
108,21,1,1,3,19,119,186.16008852078812,187.0478526732768,"[70, 0, 184]",184,l,0.36463003692915663,colour,0.5
108,21,1,1,3,20,120,187.56620471162023,188.4559160383651,"[67, 0, 187]",187,l,0.36637753125978634,colour,0.5
108,21,1,1,3,21,121,188.97250010236166,189.53585021878826,"[0, 0, 254]",254,a,0.03993952099699527,colour,0.5
108,21,1,1,3,22,122,190.05061156395823,190.7758878862369,"[4, 0, 250]",250,a,0.20191062532830983,colour,0.5
108,21,1,1,3,23,123,191.28561115433695,191.9998523077811,"[57, 0, 197]",197,a,0.19088136416394264,colour,0.5
108,21,1,1,3,24,124,192.52138031966751,193.0958534326055,"[35, 0, 219]",219,a,0.05109796364558861,colour,0.5
108,21,1,1,3,25,125,193.61512707045767,194.47991110110888,"[30, 0, 224]",224,a,0.341439601383172,colour,0.5
108,21,1,1,3,26,126,194.99009123048745,195.8398839099682,"[28, 0, 226]",226,a,0.32643879792885855,colour,0.5
108,21,1,1,3,27,127,196.34944491356146,197.15437499800464,"[34, 0, 220]",220,a,0.28142969217151403,colour,0.5
108,21,1,1,3,28,128,197.6621377011179,198.39186211925698,"[21, 0, 233]",233,a,0.20535165711771697,colour,0.5
108,21,1,1,3,29,129,198.9145850596833,199.607886607002,"[77, 0, 177]",177,l,0.1699118257383816,colour,0.5
108,21,1,1,3,30,130,200.11771660734667,201.00784580456093,"[84, 0, 170]",170,l,0.36679146328242496,colour,0.5
108,21,1,1,3,31,131,201.5258548031561,202.31190470186993,"[56, 0, 198]",198,a,0.26285513082984835,colour,0.5
108,21,1,1,3,32,132,202.82276145851938,203.5998588455841,"[88, 0, 166]",166,l,0.2537458685110323,colour,0.5
108,21,1,1,3,33,133,204.11397073883563,205.28785962070106,"[66, 0, 188]",188,l,0.650498766452074,colour,0.5
108,21,1,1,3,34,134,205.8015327695175,207.90390080754878,"[63, 0, 191]",191,a,1.5790755963535048,colour,0.5
108,21,1,1,3,35,135,208.41706825821893,210.23986555676674,"[68, 0, 186]",186,a,1.2994824076886289,colour,0.5
108,21,1,1,3,36,136,210.76085596898338,211.5358328896109,"[51, 0, 203]",203,a,0.2516317036934197,colour,0.5
108,21,1,1,3,37,137,212.0421080366359,212.9038945059874,"[31, 0, 223]",223,a,0.3385448338231072,colour,0.5
108,21,1,1,3,38,138,213.41711276280694,214.22390455694403,"[82, 0, 172]",172,l,0.2835466140531935,colour,0.5
108,21,1,1,3,39,139,214.74524509819457,215.60786140087293,"[20, 0, 234]",234,a,0.33925651339814067,colour,0.5
108,21,1,1,3,40,140,216.12262786598876,216.99188165401574,"[26, 0, 228]",228,a,0.3461283370270394,colour,0.5
108,21,1,1,3,41,141,217.51484011427965,218.40817639883608,"[13, 0, 241]",241,a,0.3700162736931816,colour,0.5
108,21,1,1,3,42,142,218.92098544974579,219.78387862612726,"[86, 0, 168]",168,l,0.34015526983421296,colour,0.5
108,21,1,1,3,43,143,220.2960189266596,221.1038398401579,"[98, 0, 156]",156,l,0.2846115733846091,colour,0.5
108,21,1,1,3,44,144,221.6241008497309,222.4559093429707,"[47, 0, 207]",207,a,0.30834394093835726,colour,0.5
108,21,1,1,3,45,145,222.95544618013082,223.79183943371754,"[90, 0, 164]",164,l,0.3129432735731825,colour,0.5
108,21,1,1,3,46,146,224.29912479559425,225.1518260271987,"[25, 0, 229]",229,a,0.3293847654131241,colour,0.5
108,21,1,1,3,47,147,225.6604173821397,226.41579337895382,"[50, 0, 204]",204,a,0.23224030586425215,colour,0.5
108,21,1,1,3,48,148,226.92606094211806,227.71182293945458,"[15, 0, 239]",239,a,0.26262079254956916,colour,0.5
108,21,1,1,3,49,149,228.22291364060948,228.75184792507207,"[99, 0, 155]",155,l,0.005718248954508454,colour,0.5
108,21,1,1,3,50,150,229.27165955642704,229.84781754220603,"[44, 0, 210]",210,a,0.05283955030608922,colour,0.5
108,21,1,1,4,1,151,234.53643468616065,235.0878256711876,"[25, 0, 229]",229,a,0.03314528503688052,colour,0.5
108,21,1,1,4,2,152,235.60942221229197,237.2958298806334,"[22, 0, 232]",232,a,1.163279460510239,colour,0.5
108,21,1,1,4,3,153,237.81253091688268,238.41584733588388,"[14, 0, 240]",240,a,0.07806183700449765,colour,0.5
108,21,1,1,4,4,154,238.9237951465184,239.5998033133219,"[69, 0, 185]",185,l,0.15257394063519314,colour,0.5
108,21,1,1,4,5,155,240.11255643813638,240.78381049080053,"[10, 0, 244]",244,a,0.1479202572372742,colour,0.5
108,21,1,1,4,6,156,241.30012161959894,242.1358417905285,"[8, 0, 246]",246,a,0.3124391508172266,colour,0.5
108,21,1,1,4,7,157,242.6438360750326,243.42384555883473,"[7, 0, 247]",247,a,0.2622710573486984,colour,0.5
108,21,1,1,4,8,158,243.9350792260375,244.99184817710193,"[29, 0, 225]",225,a,0.5335210140328854,colour,0.5
108,21,1,1,4,9,159,245.51322889066068,246.27182182093384,"[6, 0, 248]",248,a,0.23524692561477423,colour,0.5
108,21,1,1,4,10,160,246.7788255829364,247.85578071291093,"[59, 0, 195]",195,l,0.5536615067976527,colour,0.5
108,21,1,1,4,11,161,248.37261644448154,249.03179793810705,"[46, 0, 208]",208,a,0.1359264673665166,colour,0.5
108,21,1,1,4,12,162,249.5444163676002,250.35987907351227,"[4, 0, 250]",250,a,0.30317313777050003,colour,0.5
108,21,1,1,4,13,163,250.87901840993436,252.79184652294498,"[58, 0, 196]",196,a,1.389471868344117,colour,0.5
108,21,1,1,4,14,164,253.30097193294205,254.09582940797554,"[44, 0, 210]",210,a,0.27167215949157253,colour,0.5
108,21,1,1,4,15,165,254.6133992683608,255.8398094730801,"[17, 0, 237]",237,a,0.703121701546479,colour,0.5
108,21,1,1,4,16,166,256.3476824530517,257.2398486213642,"[37, 0, 217]",217,a,0.3687339113675989,colour,0.5
108,21,1,1,4,17,167,257.7573428633623,258.53581122803735,"[74, 0, 180]",180,l,0.2550093262689188,colour,0.5
108,21,1,1,4,18,168,259.05444053397514,259.8958324799896,"[30, 0, 224]",224,a,0.315816379559692,colour,0.5
108,21,1,1,4,19,169,260.41624393872917,261.2638023303007,"[54, 0, 200]",200,a,0.3241434639203362,colour,0.5
108,21,1,1,4,20,170,261.77565945562674,262.6078153208946,"[63, 0, 191]",191,a,0.30897763901157305,colour,0.5
108,21,1,1,4,21,171,263.1069287737482,263.9518507607281,"[2, 0, 252]",252,a,0.3222498527029529,colour,0.5
108,21,1,1,4,22,172,264.45700580999255,265.247821638186,"[35, 0, 219]",219,a,0.2675682849949226,colour,0.5
108,21,1,1,4,23,173,265.76935477007646,266.49589179316536,"[84, 0, 170]",170,l,0.20318274764576927,colour,0.5
108,21,1,1,4,24,174,267.00387150538154,267.7198522762628,"[27, 0, 227]",227,a,0.1932503473944962,colour,0.5
108,21,1,1,4,25,175,268.23817635158775,269.03980876418063,"[53, 0, 201]",201,a,0.27819346031174064,colour,0.5
108,21,1,1,4,26,176,269.5506391331437,270.2798389485106,"[20, 0, 234]",234,a,0.20588334911735728,colour,0.5
108,21,1,1,4,27,177,270.8006966346293,271.43984003551304,"[81, 0, 173]",173,l,0.11593366687884554,colour,0.5
108,21,1,1,4,28,178,271.9465610162006,272.7678034109995,"[79, 0, 175]",175,l,0.2978475532727316,colour,0.5
108,21,1,1,4,29,179,273.2746886254172,273.99980189546477,"[24, 0, 230]",230,a,0.20168337621726096,colour,0.5
108,21,1,1,4,30,180,274.5090793300187,275.2718434824492,"[77, 0, 177]",177,l,0.2384933975408785,colour,0.5
108,21,1,1,4,31,181,275.7915243569878,276.39182273467304,"[28, 0, 226]",226,a,0.0770016037276946,colour,0.5
108,21,1,1,4,32,182,276.9009249077644,277.4957897870918,"[51, 0, 203]",203,a,0.07180165604222566,colour,0.5
108,21,1,1,4,33,183,278.0130110938335,278.5918322657235,"[5, 0, 249]",249,a,0.05496986291836947,colour,0.5
108,21,1,1,4,34,184,279.1079890069668,280.54380787565606,"[13, 0, 241]",241,a,0.9125390301342122,colour,0.5
108,21,1,1,4,35,185,281.0611166161834,281.6798257153132,"[97, 0, 157]",157,l,0.09535482368664816,colour,0.5
108,21,1,1,4,36,186,282.1860921977204,283.1598203117028,"[64, 0, 190]",190,l,0.45075271831592545,colour,0.5
108,21,1,1,4,37,187,283.67256083345274,285.2158173248172,"[39, 0, 215]",215,a,1.0199089113157243,colour,0.5
108,21,1,1,4,38,188,285.7350236150087,286.42377466656035,"[82, 0, 172]",172,l,0.1653392746229656,colour,0.5
108,21,1,1,4,39,189,286.93827410414815,287.88782834931044,"[68, 0, 186]",186,a,0.42621060356032103,colour,0.5
108,21,1,1,4,40,190,288.40688694728306,289.48784197639907,"[72, 0, 182]",182,a,0.5575341936782934,colour,0.5
108,21,1,1,4,41,191,290.00074279337423,291.00814709672704,"[71, 0, 183]",183,l,0.4841272216872312,colour,0.5
108,21,1,1,4,42,192,291.5069675281993,292.37579871952767,"[83, 0, 171]",171,l,0.3454662820440717,colour,0.5
108,21,1,1,4,43,193,292.8819694974227,293.9597906945273,"[66, 0, 188]",188,l,0.5544216294074431,colour,0.5
108,21,1,1,4,44,194,294.47573751583695,295.14381008117925,"[73, 0, 181]",181,l,0.14520902192452922,colour,0.5
108,21,1,1,4,45,195,295.66319084510906,296.2477826474351,"[15, 0, 239]",239,a,0.06129148375475779,colour,0.5
108,21,1,1,4,46,196,296.75361274863826,297.35176663525635,"[89, 0, 165]",165,l,0.07475983275799081,colour,0.5
108,21,1,1,4,47,197,297.8629514655913,298.8957986092428,"[62, 0, 192]",192,a,0.5094424559501931,colour,0.5
108,21,1,1,4,48,198,299.4097805332858,300.2238238185528,"[0, 0, 254]",254,a,0.2908934158622287,colour,0.5
108,21,1,1,4,49,199,300.7379412255832,301.83181794552365,"[60, 0, 194]",194,a,0.5770508344867267,colour,0.5
108,21,1,1,4,50,200,302.34070822945796,302.9758048634976,"[80, 0, 174]",174,l,0.11111181124579161,colour,0.5
108,21,1,1,5,1,201,310.73115762340603,311.775779972435,"[13, 0, 241]",241,a,0.5205414278316312,colour,0.4
108,21,1,1,5,2,202,312.2963682679692,313.1757872191956,"[77, 0, 177]",177,l,0.3562013403279707,colour,0.4
108,21,1,1,5,3,203,313.68474642623914,314.3917998916004,"[53, 0, 201]",201,a,0.18372675916180015,colour,0.4
108,21,1,1,5,4,204,314.90415483817924,315.5438441094593,"[82, 0, 172]",172,l,0.1134910344844684,colour,0.4
108,21,1,1,5,5,205,316.06335759948706,316.7997655828949,"[71, 0, 183]",183,l,0.2120273454929702,colour,0.4
108,21,1,1,5,6,206,317.3144268911565,317.87187207565876,"[43, 0, 211]",211,a,0.034002687607426196,colour,0.4
108,21,1,1,5,7,207,318.39252850657795,318.9997723570559,"[91, 0, 163]",163,l,0.08405341499019414,colour,0.4
108,21,1,1,5,8,208,319.51757852500305,320.78379079850856,"[10, 0, 244]",244,a,0.7429497641860507,colour,0.4
108,21,1,1,5,9,209,321.28945863514673,322.23179368459387,"[98, 0, 156]",156,l,0.4189146079006605,colour,0.4
108,21,1,1,5,10,210,322.74457910470665,323.3997512469068,"[32, 0, 222]",222,a,0.13184582977555692,colour,0.4
108,21,1,1,5,11,211,323.91639360017143,324.8797856217716,"[66, 0, 188]",188,l,0.4399648847174831,colour,0.4
108,21,1,1,5,12,212,325.40086307394085,325.9517873515724,"[50, 0, 204]",204,a,0.02763853140641004,colour,0.4
108,21,1,1,5,13,213,326.46338178165024,327.03180699655786,"[86, 0, 168]",168,l,0.045146951742935926,colour,0.4
108,21,1,1,5,14,214,327.5415334154386,328.2637905149022,"[39, 0, 215]",215,a,0.19901664549252018,colour,0.4
108,21,1,1,5,15,215,328.77784018043894,329.36777292733314,"[48, 0, 206]",206,a,0.06657728989375755,colour,0.4
108,21,1,1,5,16,216,329.8872446696623,330.48775611800374,"[96, 0, 158]",158,l,0.07719025592086837,colour,0.4
108,21,1,1,5,17,217,330.99661528813886,331.79984395822976,"[97, 0, 157]",157,l,0.2799031453905627,colour,0.4
108,21,1,1,5,18,218,332.2991188878659,332.8798135848483,"[45, 0, 209]",209,a,0.0574357322184369,colour,0.4
108,21,1,1,5,19,219,333.39288099866826,334.0318353534676,"[93, 0, 161]",161,l,0.11587143922224641,colour,0.4
108,21,1,1,5,20,220,334.5490861986764,335.3197985556908,"[88, 0, 166]",166,l,0.24627224839059636,colour,0.4
108,21,1,1,5,21,221,335.83209600072587,336.7597760434728,"[69, 0, 185]",185,l,0.4043324626982212,colour,0.4
108,21,1,1,5,22,222,337.269549329998,337.8478006068035,"[2, 0, 252]",252,a,0.05525737040443346,colour,0.4
108,21,1,1,5,23,223,338.3633169545792,339.4318441756186,"[55, 0, 199]",199,a,0.5451886994414963,colour,0.4
108,21,1,1,5,24,224,339.9414256592281,340.9517905022949,"[75, 0, 179]",179,l,0.4870649183867499,colour,0.4
108,21,1,1,5,25,225,341.47261234850157,342.4077541960287,"[60, 0, 194]",194,a,0.4117131352541037,colour,0.4
108,21,1,1,5,26,226,342.9257769792457,343.51975688675884,"[14, 0, 240]",240,a,0.07073590898653492,colour,0.4
108,21,1,1,5,27,227,344.03510663768975,344.8557685036794,"[65, 0, 189]",189,a,0.3009817791171372,colour,0.4
108,21,1,1,5,28,228,345.3751713229576,346.00778475846164,"[3, 0, 251]",251,a,0.10938676615478471,colour,0.4
108,21,1,1,5,29,229,346.5157463537762,347.05577449011616,"[58, 0, 196]",196,a,0.016705368587281555,colour,0.4
108,21,1,1,5,30,230,347.5626136245555,348.1197500338312,"[63, 0, 191]",191,l,0.03180423966841772,colour,0.4
108,21,1,1,5,31,231,348.62702082342,349.1597813209519,"[99, 0, 155]",155,l,0.009533434349577874,colour,0.4
108,21,1,1,5,32,232,349.67389597109286,350.2397761536995,"[90, 0, 164]",164,l,0.04256962408544496,colour,0.4
108,21,1,1,5,33,233,350.7527041460853,351.9117509444477,"[68, 0, 186]",186,a,0.6327737307874486,colour,0.4
108,21,1,1,5,34,234,352.4277229719446,353.0877602927503,"[7, 0, 247]",247,a,0.1366338146617636,colour,0.4
108,21,1,1,5,35,235,353.5995142304455,356.0077489184914,"[4, 0, 250]",250,a,1.8848303941776976,colour,0.4
108,21,1,1,5,36,236,356.5214401842677,357.15976753638824,"[85, 0, 169]",169,l,0.11494550749193877,colour,0.4
108,21,1,1,5,37,237,357.6776883134735,358.2397836368182,"[9, 0, 245]",245,a,0.03874971251934767,colour,0.4
108,21,1,1,5,38,238,358.75582891964586,359.5757893460104,"[80, 0, 174]",174,l,0.2965880340198055,colour,0.4
108,21,1,1,5,39,239,360.083989218052,361.29583696986083,"[40, 0, 214]",214,a,0.6885872117127292,colour,0.4
108,21,1,1,5,40,240,361.8029454948846,362.71180127793923,"[24, 0, 230]",230,a,0.3855511322035454,colour,0.4
108,21,1,1,5,41,241,363.22544725140324,364.0637360854307,"[76, 0, 178]",178,l,0.3150184477563016,colour,0.4
108,21,1,1,5,42,242,364.5847639130079,365.58376315049827,"[23, 0, 231]",231,a,0.4755965190124698,colour,0.4
108,21,1,1,5,43,243,366.0913478352595,366.8957513477071,"[72, 0, 182]",182,l,0.2810917723691091,colour,0.4
108,21,1,1,5,44,244,367.4059472309309,368.14375888119685,"[61, 0, 193]",193,a,0.21472085773712024,colour,0.4
108,21,1,1,5,45,245,368.6558007202693,369.5757255429635,"[16, 0, 238]",238,a,0.39652840577764437,colour,0.4
108,21,1,1,5,46,246,370.09324302180903,370.8397759961663,"[59, 0, 195]",195,a,0.22353197867050767,colour,0.4
108,21,1,1,5,47,247,371.3588712218334,372.02380680438364,"[18, 0, 236]",236,a,0.14163605170324445,colour,0.4
108,21,1,1,5,48,248,372.5307625171845,373.4318138494855,"[54, 0, 200]",200,a,0.3776411307044327,colour,0.4
108,21,1,1,5,49,249,373.9526884710067,374.655779452587,"[11, 0, 243]",243,a,0.17979696457041427,colour,0.4
108,21,1,1,5,50,250,375.1714604279259,375.91975231817923,"[37, 0, 217]",217,a,0.22494273481424898,colour,0.4
108,21,1,1,6,1,251,382.51494566502515,383.09580183879007,"[88, 0, 166]",166,l,0.05657793581485748,colour,0.28
108,21,1,1,6,2,252,383.60962071060203,384.3197595649399,"[59, 0, 195]",195,a,0.18678930506575853,colour,0.28
108,21,1,1,6,3,253,384.8283265014179,385.6877112983493,"[72, 0, 182]",182,l,0.3360080723068677,colour,0.28
108,21,1,1,6,4,254,386.20327136298874,387.0637412054348,"[56, 0, 198]",198,a,0.33703404088737443,colour,0.28
108,21,1,1,6,5,255,387.5783465875429,388.32775463711005,"[94, 0, 160]",160,l,0.22601872181985527,colour,0.28
108,21,1,1,6,6,256,388.84399566135835,389.6397471666569,"[89, 0, 165]",165,l,0.27251183899352327,colour,0.28
108,21,1,1,6,7,257,390.1565974705736,391.06377743923804,"[73, 0, 181]",181,l,0.38400292390724644,colour,0.28
108,21,1,1,6,8,258,391.578396212135,392.49579963326687,"[71, 0, 183]",183,l,0.39406844414770603,colour,0.28
108,21,1,1,6,9,259,393.01585938752396,394.0877567481366,"[35, 0, 219]",219,a,0.5485190605395474,colour,0.28
108,21,1,1,6,10,260,394.5942288181395,395.4957535532885,"[61, 0, 193]",193,a,0.3889256041147746,colour,0.28
108,21,1,1,6,11,261,396.0053358245059,396.6237475699745,"[58, 0, 196]",196,a,0.09510355000384152,colour,0.28
108,21,1,1,6,12,262,397.13029880303657,398.47976301499875,"[46, 0, 208]",208,a,0.8260343181318603,colour,0.28
108,21,1,1,6,13,263,398.9897107753204,399.7757291663438,"[75, 0, 179]",179,l,0.26273225096520036,colour,0.28
108,21,1,1,6,14,264,400.28649494459387,400.9917753156042,"[2, 0, 252]",252,a,0.18194066791329533,colour,0.28
108,21,1,1,6,15,265,401.50528423069045,402.3757357041468,"[40, 0, 214]",214,a,0.3471546994987875,colour,0.28
108,21,1,1,6,16,266,402.89593724301085,403.6637780693709,"[7, 0, 247]",247,a,0.24438927101437002,colour,0.28
108,21,1,1,6,17,267,404.1648717795033,405.1518185441382,"[92, 0, 162]",162,l,0.4636614122428,colour,0.28
108,21,1,1,6,18,268,405.66482018568786,406.5757814690587,"[85, 0, 169]",169,l,0.38763260788982734,colour,0.28
108,21,1,1,6,19,269,407.08662483497756,407.8557251805905,"[76, 0, 178]",178,l,0.2457062917528674,colour,0.28
108,21,1,1,6,20,270,408.3684850007412,409.3357694016304,"[79, 0, 175]",175,l,0.4438891654717736,colour,0.28
108,21,1,1,6,21,271,409.85295132378815,410.78373172157444,"[77, 0, 177]",177,l,0.4074536915868521,colour,0.28
108,21,1,1,6,22,272,411.2904420684208,411.9996967386105,"[97, 0, 157]",157,l,0.18590669630793855,colour,0.28
108,21,1,1,6,23,273,412.50916085613426,413.10372089874,"[34, 0, 220]",220,a,0.07020500471116975,colour,0.28
108,21,1,1,6,24,274,413.61979138769675,414.2877469807863,"[80, 0, 174]",174,l,0.14460171153768897,colour,0.28
108,21,1,1,6,25,275,414.8073274245835,415.5117153407773,"[32, 0, 222]",222,a,0.1810667238314636,colour,0.28
108,21,1,1,6,26,276,416.0260355784558,416.5917034781305,"[51, 0, 203]",203,a,0.042464467231184244,colour,0.28
108,21,1,1,6,27,277,417.1041442831047,418.1997023312142,"[36, 0, 218]",218,a,0.5722037727246061,colour,0.28
108,21,1,1,6,28,278,418.71490990382154,419.71172802260844,"[95, 0, 159]",159,l,0.4736016894457862,colour,0.28
108,21,1,1,6,29,279,420.2304215254262,421.1917623974732,"[48, 0, 206]",206,a,0.43795233202399686,colour,0.28
108,21,1,1,6,30,280,421.69923719920916,422.8317415394122,"[65, 0, 189]",189,a,0.6091969324625097,colour,0.28
108,21,1,1,6,31,281,423.3397460638662,424.4717159551801,"[70, 0, 184]",184,a,0.6093914923258126,colour,0.28
108,21,1,1,6,32,282,424.9804215254262,425.7517337097088,"[25, 0, 229]",229,a,0.24793506582500413,colour,0.28
108,21,1,1,6,33,283,426.26171691616764,427.4156929482706,"[50, 0, 204]",204,a,0.6306950120488182,colour,0.28
108,21,1,1,6,34,284,427.93355307308957,428.6237274837913,"[90, 0, 164]",164,l,0.1668059568037279,colour,0.28
108,21,1,1,6,35,285,429.13666926079895,429.7917157661286,"[63, 0, 191]",191,a,0.1372198574244976,colour,0.28
108,21,1,1,6,36,286,430.30346497765277,430.90369482612005,"[42, 0, 212]",212,a,0.07703192986082286,colour,0.28
108,21,1,1,6,37,287,431.4126859346288,434.607733007113,"[3, 0, 251]",251,a,2.672076402930543,colour,0.28
108,21,1,1,6,38,288,435.10346608038526,436.78372738929465,"[87, 0, 167]",167,l,1.1569755626260303,colour,0.28
108,21,1,1,6,39,289,437.29103165573906,438.3998434068635,"[54, 0, 200]",200,a,0.585539395629894,colour,0.28
108,21,1,1,6,40,290,438.91593949578237,439.83182030858006,"[99, 0, 155]",155,l,0.3924737619818188,colour,0.28
108,21,1,1,6,41,291,440.35348262195475,441.2477704382036,"[86, 0, 168]",168,l,0.37092802696861327,colour,0.28
108,21,1,1,6,42,292,441.75975753267994,442.6477146696416,"[43, 0, 211]",211,a,0.3648045106092468,colour,0.28
108,21,1,1,6,43,293,443.1668410091079,444.1116817063303,"[18, 0, 236]",236,a,0.4214978432864882,colour,0.28
108,21,1,1,6,44,294,444.6199540460366,445.4717068967293,"[84, 0, 170]",170,l,0.32836588606005535,colour,0.28
108,21,1,1,6,45,295,445.97930969839217,447.0077678231173,"[60, 0, 194]",194,a,0.5049534001736902,colour,0.28
108,21,1,1,6,46,296,447.52692015637876,448.3997543976875,"[68, 0, 186]",186,a,0.34964853193378076,colour,0.28
108,21,1,1,6,47,297,448.91781971621094,449.73569984844653,"[55, 0, 199]",199,a,0.2948740166029893,colour,0.28
108,21,1,1,6,48,298,450.24595283932285,451.1357370275073,"[67, 0, 187]",187,a,0.36646890349220484,colour,0.28
108,21,1,1,6,49,299,451.65219466702547,452.5916755150538,"[93, 0, 161]",161,l,0.4161923449137248,colour,0.28
108,21,1,1,6,50,300,453.10526398703223,453.9597379191546,"[66, 0, 188]",188,a,0.3311137490090914,colour,0.28
108,21,1,1,7,1,301,462.0731982336729,462.6236739207525,"[57, 0, 197]",197,a,0.026352624408900738,colour,0.14
108,21,1,1,7,2,302,463.1365018762881,464.51969899144024,"[54, 0, 200]",200,a,0.8597999105113558,colour,0.14
108,21,1,1,7,3,303,465.02715016243747,465.79177405533846,"[55, 0, 199]",199,a,0.24143345741322264,colour,0.14
108,21,1,1,7,4,304,466.308333307039,466.9197444412275,"[88, 0, 166]",166,l,0.08800999104278162,colour,0.14
108,21,1,1,7,5,305,467.43327147327363,467.95972413453273,"[97, 0, 157]",157,l,0.002938878256827593,colour,0.14
108,21,1,1,7,6,306,468.4802982516121,470.32768571411725,"[69, 0, 185]",185,a,1.3239689901820384,colour,0.14
108,21,1,1,7,7,307,470.8397338546929,471.4397372417734,"[20, 0, 234]",234,a,0.07660224399296567,colour,0.14
108,21,1,1,7,8,308,471.94915370387025,472.47970393812284,"[9, 0, 245]",245,a,0.007346801809035242,colour,0.14
108,21,1,1,7,9,309,472.99599379929714,474.0397083334392,"[64, 0, 190]",190,a,0.5203740433207713,colour,0.14
108,21,1,1,7,10,310,474.5584199531586,475.5996934302966,"[43, 0, 211]",211,a,0.5179274724796414,colour,0.14
108,21,1,1,7,11,311,476.1209311777493,477.03175461507635,"[52, 0, 202]",202,a,0.3874423803645186,colour,0.14
108,21,1,1,7,12,312,477.54285083006835,478.39170733781066,"[75, 0, 179]",179,a,0.3257668967708014,colour,0.14
108,21,1,1,7,13,313,478.904089853575,479.9677306282683,"[87, 0, 167]",167,l,0.5403396684559993,colour,0.14
108,21,1,1,7,14,314,480.4821894997149,481.67168964626035,"[63, 0, 191]",191,a,0.666135631094221,colour,0.14
108,21,1,1,7,15,315,482.18530647514854,483.11163838324137,"[38, 0, 216]",216,a,0.40328207559650764,colour,0.14
108,21,1,1,7,16,316,483.62282872741343,484.2717245409731,"[83, 0, 171]",171,l,0.12587512558093295,colour,0.14
108,21,1,1,7,17,317,484.7791225427645,485.91972908127354,"[62, 0, 192]",192,a,0.617404681397602,colour,0.14
108,21,1,1,7,18,318,486.435289539746,487.207655261911,"[58, 0, 196]",196,a,0.2490039636613801,colour,0.14
108,21,1,1,7,19,319,487.7164569305605,488.5837056490127,"[85, 0, 169]",169,l,0.34380819072248414,colour,0.14
108,21,1,1,7,20,320,489.09153727511875,489.8397051038919,"[8, 0, 246]",246,a,0.22486160253174603,colour,0.14
108,21,1,1,7,21,321,490.3571977704996,491.2156944448943,"[23, 0, 231]",231,a,0.3352144727832638,colour,0.14
108,21,1,1,7,22,322,491.73223479202716,492.4797110273503,"[34, 0, 220]",220,a,0.2242468090262264,colour,0.14
108,21,1,1,7,23,323,492.9977806782117,493.9197196289315,"[89, 0, 165]",165,l,0.39862405986059457,colour,0.14
108,21,1,1,7,24,324,494.43527417979203,495.27967865322717,"[96, 0, 158]",158,l,0.32104665343649685,colour,0.14
108,21,1,1,7,25,325,495.79465385666117,496.47970748273656,"[53, 0, 201]",201,a,0.16173952288227156,colour,0.14
108,21,1,1,7,26,326,496.9977728013182,497.79171931074234,"[80, 0, 174]",174,l,0.27060444321250543,colour,0.14
108,21,1,1,7,27,327,498.31034467817517,499.12766121688765,"[86, 0, 168]",168,l,0.294201327720657,colour,0.14
108,21,1,1,7,28,328,499.63855302584125,500.41565592674306,"[91, 0, 163]",163,l,0.25384945003315806,colour,0.14
108,21,1,1,7,29,329,500.93534979817923,501.75972444965737,"[94, 0, 160]",160,l,0.30100974219385535,colour,0.14
108,21,1,1,7,30,330,502.2791445981711,503.1917013513739,"[71, 0, 183]",183,a,0.389271400810685,colour,0.14
108,21,1,1,7,31,331,503.69721992040286,504.66364731255453,"[72, 0, 182]",182,a,0.443169608945027,colour,0.14
108,21,1,1,7,32,332,505.1814629327855,506.01570696919225,"[66, 0, 188]",188,a,0.3110768377664499,colour,0.14
108,21,1,1,7,33,333,506.52803789114114,507.4076722760801,"[61, 0, 193]",193,a,0.3563415494863875,colour,0.14
108,21,1,1,7,34,334,507.9186038634507,508.79966042604065,"[84, 0, 170]",170,l,0.357662902562879,colour,0.14
108,21,1,1,7,35,335,509.3098035338917,510.1117073062924,"[68, 0, 186]",186,a,0.2765562427812256,colour,0.14
108,21,1,1,7,36,336,510.6242997419322,511.3036563867354,"[95, 0, 159]",159,l,0.1684735004673712,colour,0.14
108,21,1,1,7,37,337,511.8151003677049,512.5996969749103,"[92, 0, 162]",162,l,0.26131125481333584,colour,0.14
108,21,1,1,7,38,338,513.1127064934117,513.7756641817396,"[59, 0, 195]",195,a,0.1396231051767245,colour,0.14
108,21,1,1,7,39,339,514.2844745150069,515.0556866624975,"[74, 0, 180]",180,a,0.24852937937248498,colour,0.14
108,21,1,1,7,40,340,515.5565117696533,516.3996449084952,"[50, 0, 204]",204,a,0.3182759473565966,colour,0.14
108,21,1,1,7,41,341,516.9174258703133,517.7117292041657,"[73, 0, 181]",181,a,0.271077846060507,colour,0.14
108,21,1,1,7,42,342,518.2299544241396,519.0317270458327,"[77, 0, 177]",177,a,0.2784766354598105,colour,0.14
108,21,1,1,7,43,343,519.5423916057334,520.2396367322654,"[93, 0, 161]",161,l,0.1740129433455877,colour,0.14
108,21,1,1,7,44,344,520.7454999164911,521.3996606623405,"[70, 0, 184]",184,a,0.130802531959489,colour,0.14
108,21,1,1,7,45,345,521.917340405751,522.6876171691692,"[81, 0, 173]",173,a,0.24697408179054037,colour,0.14
108,21,1,1,7,46,346,523.1862040499691,523.7196695317398,"[99, 0, 155]",155,l,0.01052316912682727,colour,0.14
108,21,1,1,7,47,347,524.2330386315589,524.8716310419841,"[76, 0, 178]",178,a,0.11513809813186526,colour,0.14
108,21,1,1,7,48,348,525.3892450131243,526.0797215036582,"[65, 0, 189]",189,a,0.1671155197545886,colour,0.14
108,21,1,1,7,49,349,526.592669188336,527.1596895548864,"[78, 0, 176]",176,a,0.044033943209797144,colour,0.14
108,21,1,1,7,50,350,527.6706337453215,528.2156428510789,"[82, 0, 172]",172,a,0.02172690408769995,colour,0.14
108,21,1,1,8,1,351,537.1073214381468,537.6636563710053,"[33, 0, 221]",221,a,0.03135761839803308,colour,0.06
108,21,1,1,8,2,352,538.1715628278907,539.215668844874,"[72, 0, 182]",182,l,0.5210762706119567,colour,0.06
108,21,1,1,8,3,353,539.7339964648127,540.2636467611301,"[58, 0, 196]",196,a,0.006287750089541078,colour,0.06
108,21,1,1,8,4,354,540.7808976063388,541.3116360989516,"[99, 0, 155]",155,l,0.007377521775197238,colour,0.06
108,21,1,1,8,5,355,541.829413909989,542.4317114495789,"[70, 0, 184]",184,a,0.07893656875239685,colour,0.06
108,21,1,1,8,6,356,542.9388124915422,544.2236461940338,"[77, 0, 177]",177,a,0.7615105409058742,colour,0.06
108,21,1,1,8,7,357,544.7356801561546,546.231695223134,"[50, 0, 204]",204,a,0.97271632385673,colour,0.06
108,21,1,1,8,8,358,546.7513209591853,547.3676638320321,"[79, 0, 175]",175,l,0.09307169885141775,colour,0.06
108,21,1,1,8,9,359,547.8763071746216,548.4317106618546,"[64, 0, 190]",190,a,0.032062602578662336,colour,0.06
108,21,1,1,8,10,360,548.938772713067,549.6076546317781,"[42, 0, 212]",212,a,0.14550243713892996,colour,0.06
108,21,1,1,8,11,361,550.1267746696831,550.8156190627487,"[98, 0, 156]",156,l,0.16578865284100175,colour,0.06
108,21,1,1,8,12,362,551.3299290604773,552.0557075362885,"[56, 0, 198]",198,a,0.20295864931540564,colour,0.06
108,21,1,1,8,13,363,552.5642283927882,553.3036674144096,"[89, 0, 165]",165,l,0.214488094788976,colour,0.06
108,21,1,1,8,14,364,553.8034697037656,554.5676331907744,"[71, 0, 183]",183,a,0.24089900840772316,colour,0.06
108,21,1,1,8,15,365,555.0846252792398,555.9116772952257,"[80, 0, 174]",174,a,0.3037241282290779,colour,0.06
108,21,1,1,8,16,366,556.4285079068504,557.0077071707929,"[94, 0, 160]",160,l,0.06290034437552094,colour,0.06
108,21,1,1,8,17,367,557.5160480397171,558.3516728999093,"[91, 0, 163]",163,l,0.3129665104788728,colour,0.06
108,21,1,1,8,18,368,558.846681296709,559.615696965484,"[93, 0, 161]",161,l,0.24620411300566047,colour,0.06
108,21,1,1,8,19,369,560.1278234813944,560.951662502368,"[63, 0, 191]",191,a,0.300448905560188,colour,0.06
108,21,1,1,8,20,370,561.4715808660258,562.2956156284199,"[60, 0, 194]",194,a,0.30071672081248835,colour,0.06
108,21,1,1,8,21,371,562.8153591244482,563.6157587993075,"[73, 0, 181]",181,a,0.2770296455710195,colour,0.06
108,21,1,1,8,22,372,564.1278124537203,564.9276331750443,"[54, 0, 200]",200,a,0.2763770428718999,colour,0.06
108,21,1,1,8,23,373,565.440388269024,566.2076119388803,"[52, 0, 202]",202,a,0.24391704972367734,colour,0.06
108,21,1,1,8,24,374,566.7215505398926,567.3996874438599,"[65, 0, 189]",189,a,0.15483619162114337,colour,0.06
108,21,1,1,8,25,375,567.9136579463957,568.5916479458683,"[83, 0, 171]",171,l,0.15465699171181768,colour,0.06
108,21,1,1,8,26,376,569.1011561740888,569.8076436828705,"[75, 0, 179]",179,a,0.18319152254844084,colour,0.06
108,21,1,1,8,27,377,570.3205322906142,571.1516279227217,"[68, 0, 186]",186,a,0.3077374182175845,colour,0.06
108,21,1,1,8,28,378,571.6642711644527,572.5436231619096,"[81, 0, 173]",173,a,0.35598708817269653,colour,0.06
108,21,1,1,8,29,379,573.0548690383439,573.8236787256901,"[90, 0, 164]",164,l,0.24536088888999075,colour,0.06
108,21,1,1,8,30,380,574.3361392229563,575.2716721594916,"[76, 0, 178]",178,a,0.4121680272510275,colour,0.06
108,21,1,1,8,31,381,575.7892688013962,576.527647195966,"[87, 0, 167]",167,l,0.2150828021694906,colour,0.06
108,21,1,1,8,32,382,577.0392518660519,577.7836383801186,"[51, 0, 203]",203,a,0.21896257833577693,colour,0.06
108,21,1,1,8,33,383,578.2913357047946,579.0956576911849,"[74, 0, 180]",180,a,0.2810441170586273,colour,0.06
108,21,1,1,8,34,384,579.6038351140451,580.3436589231133,"[61, 0, 193]",193,a,0.21651167515665293,colour,0.06
108,21,1,1,8,35,385,580.8540781169431,581.4796574643115,"[95, 0, 159]",159,l,0.10215890582185239,colour,0.06
108,21,1,1,8,36,386,581.994743338495,582.8317080624984,"[69, 0, 185]",185,a,0.3136663747136481,colour,0.06
108,21,1,1,8,37,387,583.3260634627659,584.0636431377498,"[55, 0, 199]",199,a,0.21438411949202418,colour,0.06
108,21,1,1,8,38,388,584.5760551919811,585.3276183664566,"[59, 0, 195]",195,a,0.2282983020413667,colour,0.06
108,21,1,1,8,39,389,585.8416778781102,586.4636413260596,"[97, 0, 157]",157,l,0.09863949863938615,colour,0.06
108,21,1,1,8,40,390,586.9822950504604,587.7516218575183,"[85, 0, 169]",169,l,0.24591936240904033,colour,0.06
108,21,1,1,8,41,391,588.2648680773564,588.8956107447157,"[96, 0, 158]",158,l,0.10734625038458034,colour,0.06
108,21,1,1,8,42,392,589.4054864312056,590.0635777593707,"[15, 0, 239]",239,a,0.13471617887262255,colour,0.06
108,21,1,1,8,43,393,590.5743860729854,591.311578991299,"[66, 0, 188]",188,a,0.21381579985609278,colour,0.06
108,21,1,1,8,44,394,591.8243447191198,592.4715887429193,"[88, 0, 166]",166,l,0.12391771137481555,colour,0.06
108,21,1,1,8,45,395,592.9806255375734,593.7196364487172,"[84, 0, 170]",170,l,0.21561882650712505,colour,0.06
108,21,1,1,8,46,396,594.2306125406758,594.8476233761758,"[92, 0, 162]",162,l,0.0936459262156859,colour,0.06
108,21,1,1,8,47,397,595.3492172706174,596.0876318989904,"[86, 0, 168]",168,l,0.21504538680892438,colour,0.06
108,21,1,1,8,48,398,596.6011266356218,597.4316118065617,"[82, 0, 172]",172,l,0.30721636005910113,colour,0.06
108,21,1,1,8,49,399,597.9450002047815,598.7836765831453,"[67, 0, 187]",187,a,0.3155328104621731,colour,0.06
108,21,1,1,8,50,400,599.3042195864255,600.1117065186263,"[78, 0, 176]",176,a,0.2841472290456295,colour,0.06
108,21,1,1,9,1,401,611.4909765960765,612.1516161073232,"[72, 0, 182]",182,l,0.13597254734486341,colour,0.06
108,21,1,1,9,2,402,612.6646732811932,613.2235946002183,"[82, 0, 172]",172,l,0.0355859482078813,colour,0.06
108,21,1,1,9,3,403,613.7427552042645,614.3596069259802,"[96, 0, 158]",158,l,0.09366325539303944,colour,0.06
108,21,1,1,9,4,404,614.867851696501,615.9596611192101,"[62, 0, 192]",192,a,0.5685957502573729,colour,0.06
108,21,1,1,9,5,405,616.477234130376,617.1916253390955,"[38, 0, 216]",216,a,0.19131065619876608,colour,0.06
108,21,1,1,9,6,406,617.7115586688742,618.2476345613832,"[5, 0, 249]",249,a,0.012706257111858577,colour,0.06
108,21,1,1,9,7,407,618.7584708380746,619.3037816297729,"[85, 0, 169]",169,l,0.02038152643945068,colour,0.06
108,21,1,1,9,8,408,619.8225460248068,621.5995918180561,"[54, 0, 200]",200,a,1.2540184099343605,colour,0.06
108,21,1,1,9,9,409,622.11954090168,623.0475785565213,"[67, 0, 187]",187,a,0.40462745330296457,colour,0.06
108,21,1,1,9,10,410,623.5570863909088,624.4076049284195,"[77, 0, 177]",177,l,0.32727926509687677,colour,0.06
108,21,1,1,9,11,411,624.9163703632657,625.5517056679237,"[53, 0, 201]",201,a,0.11198260460514575,colour,0.06
108,21,1,1,9,12,412,626.0726744185667,626.8316084194812,"[79, 0, 175]",175,l,0.23566991614643484,colour,0.06
108,21,1,1,9,13,413,627.3382833201322,628.1356306890957,"[84, 0, 170]",170,l,0.2740088473656215,colour,0.06
108,21,1,1,9,14,414,628.6507394062937,629.4875958227203,"[52, 0, 202]",202,a,0.3135820917086676,colour,0.06
108,21,1,1,9,15,415,629.9945302678389,630.7915972184855,"[83, 0, 171]",171,l,0.27381192438770086,colour,0.06
108,21,1,1,9,16,416,631.3070154986344,632.3036091252579,"[76, 0, 178]",178,l,0.47337759111542255,colour,0.06
108,21,1,1,9,17,417,632.8226610278361,633.5836170336697,"[95, 0, 159]",159,l,0.23758912732591853,colour,0.06
108,21,1,1,9,18,418,634.103894978587,634.9275855196756,"[98, 0, 156]",156,l,0.30041857942705974,colour,0.06
108,21,1,1,9,19,419,635.4475854093907,636.2716670394875,"[89, 0, 165]",165,l,0.30069072695914656,colour,0.06
108,21,1,1,9,20,420,636.7915755569702,637.6156028363039,"[91, 0, 163]",163,l,0.30092782218707725,colour,0.06
108,21,1,1,9,21,421,638.132988770667,639.5916097427835,"[47, 0, 207]",207,a,0.9351639029337093,colour,0.06
108,21,1,1,9,22,422,640.1017674229224,640.9356282472727,"[70, 0, 184]",184,a,0.31046007509576157,colour,0.06
108,21,1,1,9,23,423,641.4455267767771,642.207595397369,"[90, 0, 164]",164,l,0.238758455903735,colour,0.06
108,21,1,1,9,24,424,642.7268008998362,643.5435995311709,"[74, 0, 180]",180,a,0.2937247742083855,colour,0.06
108,21,1,1,9,25,425,644.0549304783344,644.8476210130611,"[87, 0, 167]",167,l,0.26929923781426623,colour,0.06
108,21,1,1,9,26,426,645.3644484739052,646.1356362029328,"[94, 0, 160]",160,l,0.24795239506056532,colour,0.06
108,21,1,1,9,27,427,646.6456977846683,647.4795771197532,"[88, 0, 166]",166,l,0.310498671955429,colour,0.06
108,21,1,1,9,28,428,647.9910124360467,648.9115678060916,"[97, 0, 157]",157,l,0.39715619618073106,colour,0.06
108,21,1,1,9,29,429,649.4284968791762,650.2555823720759,"[69, 0, 185]",185,a,0.3037414574646391,colour,0.06
108,21,1,1,9,30,430,650.7722231499502,651.4316102311714,"[73, 0, 181]",181,a,0.14624326128978282,colour,0.06
108,21,1,1,9,31,431,651.9494687806,652.6876305598998,"[80, 0, 174]",174,a,0.21461963932961226,colour,0.06
108,21,1,1,9,32,432,653.1994034021627,653.9196211674716,"[99, 0, 155]",155,l,0.19672524993075058,colour,0.06
108,21,1,1,9,33,433,654.4339051713469,655.239610738412,"[78, 0, 176]",176,a,0.28239815932465717,colour,0.06
108,21,1,1,9,34,434,655.7465160389547,656.5276050544344,"[56, 0, 198]",198,a,0.2578753430279903,colour,0.06
108,21,1,1,9,35,435,657.0432470390806,657.7915700431331,"[61, 0, 193]",193,a,0.22510224243160337,colour,0.06
108,21,1,1,9,36,436,658.3095904632355,659.0235929460614,"[71, 0, 183]",183,a,0.1890468298806809,colour,0.06
108,21,1,1,9,37,437,659.5299169300124,660.3435813355027,"[51, 0, 203]",203,a,0.29031170543748885,colour,0.06
108,21,1,1,9,38,438,660.8580295731081,661.5915746904793,"[60, 0, 194]",194,a,0.21020895888796076,colour,0.06
108,21,1,1,9,39,439,662.1009411342093,662.8475587854045,"[86, 0, 168]",168,l,0.2233023665030487,colour,0.06
108,21,1,1,9,40,440,663.3665346757625,664.0877858927706,"[55, 0, 199]",199,a,0.19786937237950042,colour,0.06
108,21,1,1,9,41,441,664.6008623650414,665.3756191257853,"[64, 0, 190]",190,a,0.25182114355266094,colour,0.06
108,21,1,1,9,42,442,665.8821384573239,666.7276035578107,"[58, 0, 196]",196,a,0.32217305270023644,colour,0.06
108,21,1,1,9,43,443,667.2414917465649,667.9915980849764,"[81, 0, 173]",173,l,0.22682492446620017,colour,0.06
108,21,1,1,9,44,444,668.5070368450833,669.2155621126294,"[92, 0, 162]",162,l,0.18590039480477571,colour,0.06
108,21,1,1,9,45,445,669.7257993496605,670.4236277620075,"[63, 0, 191]",191,a,0.1745170661015436,colour,0.06
108,21,1,1,9,46,446,670.9315802988713,671.6796035862062,"[57, 0, 197]",197,a,0.22457133809803054,colour,0.06
108,21,1,1,9,47,447,672.1971750219818,672.9595685654203,"[66, 0, 188]",188,a,0.23897270805900916,colour,0.06
108,21,1,1,9,48,448,673.4660678107757,674.15164997807,"[75, 0, 179]",179,a,0.16219441493740305,colour,0.06
108,21,1,1,9,49,449,674.6692682815483,675.4316200772882,"[68, 0, 186]",186,a,0.23896758805494756,colour,0.06
108,21,1,1,9,50,450,675.9504549708217,676.7116295610904,"[50, 0, 204]",204,a,0.237882936373353,colour,0.06
108,21,1,1,10,1,451,681.574800005008,682.3355953217251,"[54, 0, 200]",200,a,0.23675062938127667,colour,0.06
108,21,1,1,10,2,452,682.8567802938051,683.5035934501793,"[52, 0, 202]",202,a,0.12343564402544871,colour,0.06
108,21,1,1,10,3,453,684.0149180957815,684.6955492260167,"[55, 0, 199]",199,a,0.15716460871044546,colour,0.06
108,21,1,1,10,4,454,685.1900972169242,685.8476202253951,"[39, 0, 215]",215,a,0.1342423822497949,colour,0.06
108,21,1,1,10,5,455,686.3619455830776,687.4955936518381,"[99, 0, 155]",155,l,0.6103961932822131,colour,0.06
108,21,1,1,10,6,456,687.99722338625,688.815590312006,"[92, 0, 162]",162,l,0.29498823190806434,colour,0.06
108,21,1,1,10,7,457,689.3253612354747,690.1036204679986,"[80, 0, 174]",174,l,0.2549041694146581,colour,0.06
108,21,1,1,10,8,458,690.622332087718,691.3755494150682,"[79, 0, 175]",175,l,0.22994260879931971,colour,0.06
108,21,1,1,10,9,459,691.8878358324291,692.4955365441856,"[73, 0, 181]",181,a,0.08419362414861098,colour,0.06
108,21,1,1,10,10,460,693.0130359061295,693.6235916069709,"[95, 0, 159]",159,l,0.0872979176347144,colour,0.06
108,21,1,1,10,11,461,694.1379780108109,694.8555369222304,"[88, 0, 166]",166,l,0.19414870988111943,colour,0.06
108,21,1,1,10,12,462,695.3730492811301,696.2555303844274,"[74, 0, 180]",180,a,0.3590401817345992,colour,0.06
108,21,1,1,10,13,463,696.7637771241716,697.3836405856418,"[89, 0, 165]",165,l,0.0966600290266797,colour,0.06
108,21,1,1,10,14,464,697.8983097708551,699.3035713160061,"[78, 0, 176]",176,a,0.8818773374659941,colour,0.06
108,21,1,1,10,15,465,699.8225586278713,700.5995327411802,"[61, 0, 193]",193,a,0.2537273577763699,colour,0.06
108,21,1,1,10,16,466,701.119358157157,702.1516125627095,"[84, 0, 170]",170,l,0.5088764993706718,colour,0.06
108,21,1,1,10,17,467,702.6662364556105,703.4475487817544,"[48, 0, 206]",206,a,0.25786589074414223,colour,0.06
108,21,1,1,10,18,468,703.9650442052516,704.5915431828471,"[91, 0, 163]",163,l,0.10131095553515479,colour,0.06
108,21,1,1,10,19,469,705.1074955179938,705.7595621850924,"[66, 0, 188]",188,a,0.12869978859089315,colour,0.06
108,21,1,1,10,20,470,706.2809291140293,706.927546922816,"[98, 0, 156]",156,l,0.12324896105565131,colour,0.06
108,21,1,1,10,21,471,707.4371343140374,708.3035681652837,"[90, 0, 164]",164,l,0.3430622465675697,colour,0.06
108,21,1,1,10,22,472,708.8121469171019,709.5116062454181,"[59, 0, 195]",195,a,0.17607433290686458,colour,0.06
108,21,1,1,10,23,473,710.0308779140469,710.719556497992,"[96, 0, 158]",158,l,0.16526089928811416,colour,0.06
108,21,1,1,10,24,474,711.2341091047856,711.8315702163964,"[56, 0, 198]",198,a,0.07429706380935386,colour,0.06
108,21,1,1,10,25,475,712.3462023800821,712.9755709190504,"[50, 0, 204]",204,a,0.10599457123316824,colour,0.06
108,21,1,1,10,26,476,713.4868514538975,714.2315522570279,"[85, 0, 169]",169,l,0.22159386292332783,colour,0.06
108,21,1,1,10,27,477,714.752524552343,715.5035221640719,"[76, 0, 178]",178,l,0.2255854913382791,colour,0.06
108,21,1,1,10,28,478,716.0214602703927,716.6475547681912,"[57, 0, 197]",197,a,0.10275833925697953,colour,0.06
108,21,1,1,10,29,479,717.1651360501419,717.7995406968985,"[28, 0, 226]",226,a,0.11116813129046932,colour,0.06
108,21,1,1,10,30,480,718.3056043486577,718.8715597558767,"[67, 0, 187]",187,a,0.04262988251866773,colour,0.06
108,21,1,1,10,31,481,719.3837437732727,720.0235196907306,"[77, 0, 177]",177,a,0.11636335280491039,colour,0.06
108,21,1,1,10,32,482,720.541050560365,721.6316229130025,"[69, 0, 185]",185,a,0.5671625449322164,colour,0.06
108,21,1,1,10,33,483,722.147277500655,722.9915480664931,"[71, 0, 183]",183,a,0.3215287207858637,colour,0.06
108,21,1,1,10,34,484,723.497243472375,724.0796041375725,"[70, 0, 184]",184,a,0.05890832212753594,colour,0.06
108,21,1,1,10,35,485,724.591029213916,725.2715484919026,"[82, 0, 172]",172,l,0.1571598825394176,colour,0.06
108,21,1,1,10,36,486,725.7796006717253,726.7675710419426,"[75, 0, 179]",179,a,0.4644999102456495,colour,0.06
108,21,1,1,10,37,487,727.2796380870859,728.0555334564415,"[51, 0, 203]",203,a,0.2524969831574708,colour,0.06
108,21,1,1,10,38,488,728.5764584902208,729.5515280434047,"[97, 0, 157]",157,l,0.4517991669708863,colour,0.06
108,21,1,1,10,39,489,730.0612213792047,730.8076141444035,"[83, 0, 171]",171,l,0.22304439742583781,colour,0.06
108,21,1,1,10,40,490,731.3268936899258,731.9435319472104,"[62, 0, 192]",192,a,0.09352698473958299,colour,0.06
108,21,1,1,10,41,491,732.4473132618587,733.079532457632,"[65, 0, 189]",189,a,0.10875858191866428,colour,0.06
108,21,1,1,10,42,492,733.5879465818871,734.3675023551914,"[68, 0, 186]",186,a,0.25622867327183485,colour,0.06
108,21,1,1,10,43,493,734.8855397106963,735.5435042204335,"[87, 0, 167]",167,l,0.13468033890239894,colour,0.06
108,21,1,1,10,44,494,736.0573979230248,736.8235459995922,"[94, 0, 160]",160,l,0.24275047809351236,colour,0.06
108,21,1,1,10,45,495,737.3387145814486,738.0475407472695,"[86, 0, 168]",168,l,0.18553136114496738,colour,0.06
108,21,1,1,10,46,496,738.5474115658435,739.2635195489274,"[93, 0, 161]",161,l,0.19278836611192673,colour,0.06
108,21,1,1,10,47,497,739.7840235614567,740.3995405393653,"[64, 0, 190]",190,a,0.09720471798209473,colour,0.06
108,21,1,1,10,48,498,740.919712145871,741.7195387749234,"[53, 0, 201]",201,a,0.27654442738275975,colour,0.06
108,21,1,1,10,49,499,742.2321579920826,742.9435421871603,"[81, 0, 173]",173,l,0.18797793198609725,colour,0.06
108,21,1,1,10,50,500,743.4385202578269,744.0075516016805,"[63, 0, 191]",191,a,0.04575544374529272,colour,0.06
108,21,1,1,11,1,501,750.4064190583304,750.9915149834706,"[78, 0, 176]",176,l,0.0608925178530626,colour,0.06
108,21,1,1,11,2,502,751.5008770948625,753.2715425841743,"[72, 0, 182]",182,l,1.245957565435674,colour,0.06
108,21,1,1,11,3,503,753.783333543397,754.6315784084145,"[57, 0, 197]",197,a,0.32561172149144113,colour,0.06
108,21,1,1,11,4,504,755.1428538233158,755.9675132253324,"[91, 0, 163]",163,l,0.30152252956759185,colour,0.06
108,21,1,1,11,5,505,756.4872090659919,757.2634951304644,"[67, 0, 187]",187,a,0.25291839824058115,colour,0.06
108,21,1,1,11,6,506,757.7840668844874,758.5835540183471,"[60, 0, 194]",194,a,0.2762490430031903,colour,0.06
108,21,1,1,11,7,507,759.0965737767983,759.8715243097395,"[51, 0, 203]",203,a,0.2516576974885538,colour,0.06
108,21,1,1,11,8,508,760.3777734629693,761.0475234180922,"[69, 0, 185]",185,a,0.14632754435297102,colour,0.06
108,21,1,1,11,9,509,761.5664485023008,762.3355232479516,"[87, 0, 167]",167,l,0.24563343031331897,colour,0.06
108,21,1,1,11,10,510,762.8483161511249,763.5755049892468,"[80, 0, 174]",174,l,0.20382353500463068,colour,0.06
108,21,1,1,11,11,511,764.0827793233912,764.8875573833357,"[98, 0, 156]",156,l,0.2814611998619512,colour,0.06
108,21,1,1,11,12,512,765.3951979941921,766.2075930342544,"[58, 0, 196]",196,a,0.28897774923825637,colour,0.06
108,21,1,1,11,13,513,766.7232846434927,767.4635062369052,"[75, 0, 179]",179,a,0.21681572421221063,colour,0.06
108,21,1,1,11,14,514,767.973301578837,768.7355025316356,"[70, 0, 184]",184,a,0.2388557358062826,colour,0.06
108,21,1,1,11,15,515,769.2545516773243,770.0235303245718,"[52, 0, 202]",202,a,0.2442459111334756,colour,0.06
108,21,1,1,11,16,516,770.5371562119108,771.3355275802314,"[54, 0, 200]",200,a,0.2749954313621856,colour,0.06
108,21,1,1,11,17,517,771.849674919562,772.623532923928,"[31, 0, 223]",223,a,0.2504509535501711,colour,0.06
108,21,1,1,11,18,518,773.1215955958469,773.855514473049,"[65, 0, 189]",189,a,0.2105134017765522,colour,0.06
108,21,1,1,11,19,519,774.3722946723574,775.1035739941872,"[77, 0, 177]",177,l,0.20798294176347554,colour,0.06
108,21,1,1,11,20,520,775.6223135769833,776.5115585901076,"[71, 0, 183]",183,l,0.3658958576852456,colour,0.06
108,21,1,1,11,21,521,777.028536893893,777.7355454608332,"[66, 0, 188]",188,a,0.18369997764239088,colour,0.06
108,21,1,1,11,22,522,778.2367982846918,778.7915428677807,"[62, 0, 192]",192,a,0.04078432056121528,colour,0.06
108,21,1,1,11,23,523,779.3058268715977,779.9915063188528,"[82, 0, 172]",172,l,0.16249216248979792,colour,0.06
108,21,1,1,11,24,524,780.5088678347529,781.2714984734193,"[83, 0, 171]",171,l,0.2393858524155803,colour,0.06
108,21,1,1,11,25,525,781.7900966655579,782.5594853063812,"[85, 0, 169]",169,l,0.2459461439284496,colour,0.06
108,21,1,1,11,26,526,783.0725519325351,783.9755264144624,"[53, 0, 201]",201,a,0.37962532648816705,colour,0.06
108,21,1,1,11,27,527,784.4944247171516,785.1915052160621,"[88, 0, 166]",166,l,0.17378333117812872,colour,0.06
108,21,1,1,11,28,528,785.697521606402,786.431519252772,"[79, 0, 175]",175,l,0.21062682941555977,colour,0.06
108,21,1,1,11,29,529,786.947492461768,787.511516842409,"[96, 0, 158]",158,l,0.04060827137436718,colour,0.06
108,21,1,1,11,30,530,788.0256850555888,788.6955220506061,"[97, 0, 157]",157,l,0.14661544567206874,colour,0.06
108,21,1,1,11,31,531,789.2131797386683,790.5435195804457,"[76, 0, 178]",178,a,0.8145139311091043,colour,0.06
108,21,1,1,11,32,532,791.0650601953967,791.6475212912774,"[89, 0, 165]",165,l,0.05904498661402613,colour,0.06
108,21,1,1,11,33,533,792.1588022200158,792.7195399564225,"[93, 0, 161]",161,l,0.048927478783298284,colour,0.06
108,21,1,1,11,34,534,793.2411112913978,794.6715529817156,"[74, 0, 180]",180,a,0.9070602395222522,colour,0.06
108,21,1,1,11,35,535,795.1785083006835,795.8795524649904,"[30, 0, 224]",224,a,0.17633820965420455,colour,0.06
108,21,1,1,11,36,536,796.3987800228642,797.1115186540992,"[86, 0, 168]",168,l,0.18948439264204353,colour,0.06
108,21,1,1,11,37,537,797.6175322874915,798.3354795310297,"[84, 0, 170]",170,l,0.2039113626233302,colour,0.06
108,21,1,1,11,38,538,798.8426045975648,799.4634904831182,"[21, 0, 233]",233,a,0.09764109924435616,colour,0.06
108,21,1,1,11,39,539,799.9838854002883,800.6635118295671,"[81, 0, 173]",173,l,0.15641984605463222,colour,0.06
108,21,1,1,11,40,540,801.1714269510121,801.70351042744,"[59, 0, 195]",195,a,0.008845779404509813,colour,0.06
108,21,1,1,11,41,541,802.2182292372454,802.7435046930332,"[55, 0, 199]",199,a,0.0018798265373334289,colour,0.06
108,21,1,1,11,42,542,803.2651228956529,805.063485993247,"[73, 0, 181]",181,a,1.2754219665075652,colour,0.06
108,21,1,1,11,43,543,805.5776372710243,806.3915344394627,"[95, 0, 159]",159,l,0.2908335512620397,colour,0.06
108,21,1,1,11,44,544,806.9065907751792,807.647479543637,"[63, 0, 191]",191,a,0.21843994478695095,colour,0.06
108,21,1,1,11,45,545,808.1557932372089,808.9114977014833,"[56, 0, 198]",198,a,0.23245573957683519,colour,0.06
108,21,1,1,11,46,546,809.4213241572143,810.2234772341326,"[92, 0, 162]",162,l,0.27880273992195725,colour,0.06
108,21,1,1,11,47,547,810.7338755541132,811.32749194192,"[64, 0, 190]",190,a,0.07031370617914945,colour,0.06
108,21,1,1,11,48,548,811.8432308125775,812.4074930761708,"[99, 0, 155]",155,l,0.040945009677670896,colour,0.06
108,21,1,1,11,49,549,812.9213536956813,813.5915030105389,"[50, 0, 204]",204,a,0.14683127327589318,colour,0.06
108,21,1,1,11,50,550,814.1088664956624,815.0634938701987,"[94, 0, 160]",160,l,0.4313554128748365,colour,0.06
108,21,1,1,12,1,551,820.2173871946288,820.9355226965272,"[56, 0, 198]",198,a,0.19398683920735493,colour,0.06
108,21,1,1,12,2,552,821.4525435357355,822.1195054555428,"[69, 0, 185]",185,a,0.1436375766643323,colour,0.06
108,21,1,1,12,3,553,822.6400996587472,823.3034736422705,"[98, 0, 156]",156,l,0.14008154190378264,colour,0.06
108,21,1,1,12,4,554,823.8118499572738,824.5594833371579,"[95, 0, 159]",159,l,0.22495651943609118,colour,0.06
108,21,1,1,12,5,555,825.0775147849927,825.7755357879796,"[90, 0, 164]",164,l,0.17473958909977227,colour,0.06
108,21,1,1,12,6,556,826.296288317244,826.9354888257803,"[93, 0, 161]",161,l,0.11584229464642704,colour,0.06
108,21,1,1,12,7,557,827.4400775246322,827.9754909683252,"[16, 0, 238]",238,a,0.012052079022396356,colour,0.06
108,21,1,1,12,8,558,828.486952278472,829.0714865793125,"[87, 0, 167]",167,l,0.061265489959623665,colour,0.06
108,21,1,1,12,9,559,829.5825611327309,830.2874618362985,"[86, 0, 168]",168,l,0.1815294927218929,colour,0.06
108,21,1,1,12,10,560,830.8013362404308,831.3995023362804,"[83, 0, 171]",171,l,0.07495084800757468,colour,0.06
108,21,1,1,12,11,561,831.9106300589629,832.4635208092513,"[42, 0, 212]",212,a,0.02971606864593923,colour,0.06
108,21,1,1,12,12,562,832.9731215912616,834.0155041385442,"[60, 0, 194]",194,a,0.5190999518381432,colour,0.06
108,21,1,1,12,13,563,834.5356154866167,835.2394807692617,"[80, 0, 174]",174,l,0.18042514874832705,colour,0.06
108,21,1,1,12,14,564,835.7420328908483,836.4634774861624,"[75, 0, 179]",179,l,0.19812222139444202,colour,0.06
108,21,1,1,12,15,565,836.9764129616087,837.543467198906,"[78, 0, 176]",176,l,0.043914214009419084,colour,0.06
108,21,1,1,12,16,566,838.0545370262116,838.5995524334721,"[57, 0, 197]",197,a,0.022889143379870802,colour,0.06
108,21,1,1,12,17,567,839.1169454570627,839.7275015517371,"[84, 0, 170]",170,l,0.08719315461348742,colour,0.06
108,21,1,1,12,18,568,840.2420293462346,840.7835194386425,"[91, 0, 163]",163,l,0.018159841594751924,colour,0.06
108,21,1,1,12,19,569,841.3045519923908,841.9115020338213,"[65, 0, 189]",189,a,0.0836682336521335,colour,0.06
108,21,1,1,12,20,570,842.4294373831945,843.1434839767753,"[71, 0, 183]",183,a,0.19166551140369847,colour,0.06
108,21,1,1,12,21,571,843.6638686539372,844.2155337557197,"[67, 0, 187]",187,a,0.02832185401348397,colour,0.06
108,21,1,1,12,22,572,844.7263274970464,845.3195059281425,"[82, 0, 172]",172,l,0.069973029429093,colour,0.06
108,21,1,1,12,23,573,845.8357946077595,846.4075950822444,"[81, 0, 173]",173,l,0.04943750920938328,colour,0.06
108,21,1,1,12,24,574,846.9138269062969,847.9034734846791,"[63, 0, 191]",191,a,0.46633247524732724,colour,0.06
108,21,1,1,12,25,575,848.4139068570221,848.9435035903007,"[96, 0, 158]",158,l,0.006371639319695532,colour,0.06
108,21,1,1,12,26,576,849.4607197770383,849.9995273848763,"[74, 0, 180]",180,a,0.015740052214823663,colour,0.06
108,21,1,1,12,27,577,850.5075996508822,851.4395013280446,"[97, 0, 157]",157,l,0.40860175248235464,colour,0.06
108,21,1,1,12,28,578,851.9607847616426,853.4794818090159,"[59, 0, 195]",195,a,0.9955672641517594,colour,0.06
108,21,1,1,12,29,579,853.9919891739264,854.6874525415478,"[54, 0, 200]",200,a,0.17217722750501707,colour,0.06
108,21,1,1,12,30,580,855.1950537678204,856.0874605760328,"[79, 0, 175]",175,l,0.3690651358338073,colour,0.06
108,21,1,1,12,31,581,856.6013125309255,857.4395127495518,"[77, 0, 177]",177,l,0.31491841084789485,colour,0.06
108,21,1,1,12,32,582,857.9606319494196,858.7914483447094,"[94, 0, 160]",160,l,0.30772166431415826,colour,0.06
108,21,1,1,12,33,583,859.3044452601462,860.0314387506223,"[28, 0, 226]",226,a,0.20376170112285763,colour,0.06
108,21,1,1,12,34,584,860.5296751086134,861.2874610486324,"[70, 0, 184]",184,a,0.23466167057631537,colour,0.06
108,21,1,1,12,35,585,861.7951008718228,862.5594581310288,"[99, 0, 155]",155,l,0.2410250391694717,colour,0.06
108,21,1,1,12,36,586,863.076315918006,863.6234793608892,"[52, 0, 202]",202,a,0.023963555053342134,colour,0.06
108,21,1,1,12,37,587,864.1388783425791,864.8714593251352,"[55, 0, 199]",199,a,0.2092723932582885,colour,0.06
108,21,1,1,12,38,588,865.3888153271982,866.1354727568687,"[53, 0, 201]",201,a,0.2232137512182817,colour,0.06
108,21,1,1,12,39,589,866.654441164108,867.4395253526163,"[51, 0, 203]",203,a,0.26176181458868086,colour,0.06
108,21,1,1,12,40,590,867.9420172157697,868.6635728756664,"[72, 0, 182]",182,a,0.19819311366882175,colour,0.06
108,21,1,1,12,41,591,869.1763354527648,869.8635367206298,"[73, 0, 181]",181,l,0.16423650609795004,colour,0.06
108,21,1,1,12,42,592,870.3795469511533,871.1114572141669,"[66, 0, 188]",188,a,0.2085957660456188,colour,0.06
108,21,1,1,12,43,593,871.6295445880969,872.2314368601656,"[50, 0, 204]",204,a,0.078573836653959,colour,0.06
108,21,1,1,12,44,594,872.7388088681619,873.2874212702154,"[88, 0, 166]",166,l,0.02518172055715695,colour,0.06
108,21,1,1,12,45,595,873.8014228865504,874.343465544749,"[62, 0, 192]",192,a,0.01875139813637361,colour,0.06
108,21,1,1,12,46,596,874.8638659758144,875.4714658629964,"[64, 0, 190]",190,a,0.08429720555432141,colour,0.06
108,21,1,1,12,47,597,875.9889703449444,876.5354284098139,"[92, 0, 162]",162,l,0.023178620147518814,colour,0.06
108,21,1,1,12,48,598,877.0513760188478,877.6074632226373,"[89, 0, 165]",165,l,0.033097235835157335,colour,0.06
108,21,1,1,12,49,599,878.1137785420287,878.6874690830591,"[76, 0, 178]",178,a,0.051047945220489055,colour,0.06
108,21,1,1,12,50,600,879.2075170220342,880.2394874646561,"[85, 0, 169]",169,l,0.5084767457447015,colour,0.06
108,21,1,1,13,1,601,885.097614711558,885.6234868439496,"[32, 0, 222]",222,a,0.0017411928274668753,colour,0.06
108,21,1,1,13,2,602,886.1453240248957,887.167424688756,"[57, 0, 197]",197,a,0.49881255452055484,colour,0.06
108,21,1,1,13,3,603,887.6766308372025,888.2234244587598,"[80, 0, 174]",174,l,0.02358467527665198,colour,0.06
108,21,1,1,13,4,604,888.7391326095094,889.2794545548968,"[59, 0, 195]",195,a,0.016949946933891624,colour,0.06
108,21,1,1,13,5,605,889.7867040767451,890.3674606074928,"[58, 0, 196]",196,a,0.05743218760471791,colour,0.06
108,21,1,1,13,6,606,890.8804130183416,891.4554186109453,"[55, 0, 199]",199,a,0.05159617873141542,colour,0.06
108,21,1,1,13,7,607,891.9741767044761,892.9994844556786,"[90, 0, 164]",164,l,0.5019956172909588,colour,0.06
108,21,1,1,13,8,608,893.5210376736941,894.1354227384436,"[91, 0, 163]",163,l,0.09101109701441601,colour,0.06
108,21,1,1,13,9,609,894.6460589413764,895.279470308742,"[69, 0, 185]",185,a,0.11011774418875575,colour,0.06
108,21,1,1,13,10,610,895.7879714729497,896.3434706647531,"[88, 0, 166]",166,l,0.03202597488416359,colour,0.06
108,21,1,1,13,11,611,896.8506213313085,897.4794751136797,"[62, 0, 192]",192,a,0.10549044847721234,colour,0.06
108,21,1,1,13,12,612,897.9911936051794,898.9514502194361,"[82, 0, 172]",172,l,0.4368680742336437,colour,0.06
108,21,1,1,13,13,613,899.4599375990219,900.247470721486,"[65, 0, 189]",189,a,0.26419893314596266,colour,0.06
108,21,1,1,13,14,614,900.7568690666812,901.407464719261,"[51, 0, 203]",203,a,0.12726973404642195,colour,0.06
108,21,1,1,13,15,615,901.9288489774335,902.6954822721891,"[61, 0, 193]",193,a,0.2434125331346877,colour,0.06
108,21,1,1,13,16,616,903.2105323064025,903.8154780659243,"[67, 0, 187]",187,a,0.08177895477274433,colour,0.06
108,21,1,1,13,17,617,904.3357717646868,905.3034251991776,"[75, 0, 179]",179,a,0.4569353115512058,colour,0.06
108,21,1,1,13,18,618,905.8231513660285,906.8794205266167,"[87, 0, 167]",167,l,0.5328778636758216,colour,0.06
108,21,1,1,13,19,619,907.3856444737175,908.1194853694178,"[48, 0, 206]",206,a,0.21045235567726195,colour,0.06
108,21,1,1,13,20,620,908.635647230607,909.2154994911398,"[56, 0, 198]",198,a,0.05646884051384404,colour,0.06
108,21,1,1,13,21,621,909.7294183998602,910.4074241531198,"[54, 0, 200]",200,a,0.15469598246272653,colour,0.06
108,21,1,1,13,22,622,910.9168599137338,911.6954598230077,"[97, 0, 157]",157,l,0.2551526862080209,colour,0.06
108,21,1,1,13,23,623,912.2137697198777,913.015533676953,"[94, 0, 160]",160,l,0.27838486939435825,colour,0.06
108,21,1,1,13,24,624,913.5262880336959,914.3514306846773,"[71, 0, 183]",183,l,0.30194276315160096,colour,0.06
108,21,1,1,13,25,625,914.8726231398759,915.4874319828232,"[98, 0, 156]",156,l,0.09157272131415084,colour,0.06
108,21,1,1,13,26,626,915.9975329491426,916.7834457894787,"[96, 0, 158]",158,l,0.26251484802924097,colour,0.06
108,21,1,1,13,27,627,917.2944396045059,918.3035086945165,"[60, 0, 194]",194,a,0.48590228526154533,colour,0.06
108,21,1,1,13,28,628,918.8100729244761,919.3993995424826,"[53, 0, 201]",201,a,0.06612830550875515,colour,0.06
108,21,1,1,13,29,629,919.9209299174836,920.6716557755135,"[45, 0, 209]",209,a,0.2280537237529643,colour,0.06
108,21,1,1,13,30,630,921.1865801728563,921.9514317087014,"[92, 0, 162]",162,l,0.24191355553921312,colour,0.06
108,21,1,1,13,31,631,922.4678212128347,923.2474144014996,"[72, 0, 182]",182,l,0.25634525163332,colour,0.06
108,21,1,1,13,32,632,923.7646754867164,924.5594408017932,"[93, 0, 161]",161,l,0.2714000119594857,colour,0.06
108,21,1,1,13,33,633,925.0771000651876,925.7913991140085,"[52, 0, 202]",202,a,0.19118265627184883,colour,0.06
108,21,1,1,13,34,634,926.3115703266812,927.0955789219588,"[85, 0, 169]",169,l,0.2606535321683623,colour,0.06
108,21,1,1,13,35,635,927.6083863974782,928.3834279088769,"[99, 0, 155]",155,l,0.25174906977918,colour,0.06
108,21,1,1,13,36,636,928.8895616652444,929.6874135507969,"[83, 0, 171]",171,l,0.27442947478266433,colour,0.06
108,21,1,1,13,37,637,930.2021339359344,930.9354065119987,"[70, 0, 184]",184,a,0.20854062755824998,colour,0.06
108,21,1,1,13,38,638,931.4411003424902,932.2234602987301,"[63, 0, 191]",191,a,0.2589430593070574,colour,0.06
108,21,1,1,13,39,639,932.7379979394027,933.519436690025,"[50, 0, 204]",204,a,0.25807226600591093,colour,0.06
108,21,1,1,13,40,640,934.0348786009126,934.6314437130932,"[76, 0, 178]",178,a,0.0730962275993079,colour,0.06
108,21,1,1,13,41,641,935.1443539824104,935.7834887186764,"[78, 0, 176]",176,l,0.1158915254054591,colour,0.06
108,21,1,1,13,42,642,936.3006434654817,936.9194407860632,"[81, 0, 173]",173,l,0.0954887312836945,colour,0.06
108,21,1,1,13,43,643,937.425546185521,938.0634883563034,"[86, 0, 168]",168,l,0.11452133540296927,colour,0.06
108,21,1,1,13,44,644,938.5825835819705,939.1993963129353,"[89, 0, 165]",165,l,0.09357227699365467,colour,0.06
108,21,1,1,13,45,645,939.7076469911844,940.3273899357882,"[84, 0, 170]",170,l,0.09640481689712033,colour,0.06
108,21,1,1,13,46,646,940.8481590066222,941.4234249313595,"[68, 0, 186]",186,a,0.05189944006269798,colour,0.06
108,21,1,1,13,47,647,941.9449151340523,942.5114538270864,"[95, 0, 159]",159,l,0.04321553139016032,colour,0.06
108,21,1,1,13,48,648,943.0230183248641,943.6874100061832,"[77, 0, 177]",177,a,0.1409976274590008,colour,0.06
108,21,1,1,13,49,649,944.1949521555798,944.7994635030627,"[66, 0, 188]",188,a,0.08124371815938503,colour,0.06
108,21,1,1,13,50,650,945.3199407340726,945.8634091145359,"[73, 0, 181]",181,a,0.020128283475060016,colour,0.06
108,21,1,1,14,1,651,950.7879072760697,951.8474823793513,"[52, 0, 202]",202,a,0.5462044281302951,colour,0.06
108,21,1,1,14,2,652,952.3495886673336,953.0634076179122,"[87, 0, 167]",167,l,0.19053950591478497,colour,0.06
108,21,1,1,14,3,653,953.5849541405914,954.4554004940437,"[95, 0, 159]",159,l,0.34706057037692517,colour,0.06
108,21,1,1,14,4,654,954.975638266711,956.3594206369016,"[60, 0, 194]",194,a,0.8604588147718459,colour,0.06
108,21,1,1,14,5,655,956.8667056048871,957.7434015054023,"[98, 0, 156]",156,l,0.35324710205895826,colour,0.06
108,21,1,1,14,6,656,958.2574448694359,958.8714321497828,"[62, 0, 192]",192,a,0.0912875768262893,colour,0.06
108,21,1,1,14,7,657,959.3824019402382,960.407374922419,"[91, 0, 163]",163,l,0.5019696234958246,colour,0.06
108,21,1,1,14,8,658,960.913654401782,961.7994119092473,"[71, 0, 183]",183,a,0.3624737304635346,colour,0.06
108,21,1,1,14,9,659,962.3198966233176,963.1114008941804,"[94, 0, 160]",160,l,0.26821694924728945,colour,0.06
108,21,1,1,14,10,660,963.6325216693804,964.4954719534144,"[73, 0, 181]",181,l,0.3400012760539539,colour,0.06
108,21,1,1,14,11,661,965.0074098171317,965.5993913505226,"[50, 0, 204]",204,a,0.06863119639456272,colour,0.06
108,21,1,1,14,12,662,966.1167036356637,966.7194001411553,"[70, 0, 184]",184,a,0.07926976238377392,colour,0.06
108,21,1,1,14,13,663,967.2261325432919,967.8073687783908,"[75, 0, 179]",179,a,0.05798396572936326,colour,0.06
108,21,1,1,14,14,664,968.3225921047851,968.8714289990021,"[74, 0, 180]",180,a,0.025538938760291785,colour,0.06
108,21,1,1,14,15,665,969.3850753663573,970.0313851875835,"[66, 0, 188]",188,a,0.12297602579928935,colour,0.06
108,21,1,1,14,16,666,970.5309881909052,971.2234232772025,"[67, 0, 187]",187,a,0.16920566000044346,colour,0.06
108,21,1,1,14,17,667,971.7340701140347,972.4393914450193,"[64, 0, 190]",190,a,0.18208678474184126,colour,0.06
108,21,1,1,14,18,668,972.9527873263578,973.7273924564361,"[82, 0, 172]",172,l,0.25130559923127294,colour,0.06
108,21,1,1,14,19,669,974.233982680249,974.9114728891873,"[78, 0, 176]",176,l,0.1543147395714186,colour,0.06
108,21,1,1,14,20,670,975.4226459041238,976.2394441416254,"[55, 0, 199]",199,a,0.2935825958265923,colour,0.06
108,21,1,1,14,21,671,976.7506537841982,977.5994224643218,"[4, 0, 250]",250,a,0.3254337031394243,colour,0.06
108,21,1,1,14,22,672,978.110065362649,978.9594244178152,"[58, 0, 196]",196,a,0.32616310578305274,colour,0.06
108,21,1,1,14,23,673,979.4569392500562,980.2474821429932,"[53, 0, 201]",201,a,0.26710709143662825,colour,0.06
108,21,1,1,14,24,674,980.75385929615,981.4873894474586,"[90, 0, 164]",164,l,0.2106559740495868,colour,0.06
108,21,1,1,14,25,675,982.0037813147064,982.7594645112986,"[69, 0, 185]",185,a,0.23231356119504198,colour,0.06
108,21,1,1,14,26,676,983.2693984869984,984.2154734972864,"[48, 0, 206]",206,a,0.42265771952224895,colour,0.06
108,21,1,1,14,27,677,984.7225942315417,985.4474093602621,"[76, 0, 178]",178,l,0.2014994501369074,colour,0.06
108,21,1,1,14,28,678,985.9496527066804,986.7034115721472,"[97, 0, 157]",157,l,0.23052865150384605,colour,0.06
108,21,1,1,14,29,679,987.2170650286716,988.0154088278068,"[86, 0, 168]",168,l,0.27490287757245824,colour,0.06
108,21,1,1,14,30,680,988.5296376932529,989.3593717999756,"[83, 0, 171]",171,l,0.3063916466780938,colour,0.06
108,21,1,1,14,31,681,989.8733588440227,990.72740781639,"[84, 0, 170]",170,l,0.33068918308708817,colour,0.06
108,21,1,1,14,32,682,991.2483222163864,991.9594122085837,"[57, 0, 197]",197,a,0.1876132307224907,colour,0.06
108,21,1,1,14,33,683,992.4678613851429,993.3353420788189,"[99, 0, 155]",155,l,0.34276292368303984,colour,0.06
108,21,1,1,14,34,684,993.8443028611946,995.663407460379,"[61, 0, 193]",193,a,1.3086385376518592,colour,0.06
108,21,1,1,14,35,685,996.1755875393283,997.0154029201367,"[51, 0, 203]",203,a,0.3168187174596824,colour,0.06
108,21,1,1,14,36,686,997.5351968284231,998.3514476200799,"[59, 0, 195]",195,a,0.2931635437416844,colour,0.06
108,21,1,1,14,37,687,998.8633921791334,999.7194127442199,"[68, 0, 186]",186,a,0.3327151265111752,colour,0.06
108,21,1,1,14,38,688,1000.2383382222615,1001.1513959474978,"[93, 0, 161]",161,l,0.3896471298066899,colour,0.06
108,21,1,1,14,39,689,1001.6602200653288,1002.5513957111398,"[56, 0, 198]",198,a,0.367994662548881,colour,0.06
108,21,1,1,14,40,690,1003.0664221146144,1003.8713959159795,"[54, 0, 200]",200,a,0.28151791368145496,colour,0.06
108,21,1,1,14,41,691,1004.3789597268915,1005.1673660057131,"[65, 0, 189]",189,a,0.2650425510946661,colour,0.06
108,21,1,1,14,42,692,1005.6757880069199,1006.4714422322577,"[85, 0, 169]",169,l,0.2723491806536913,colour,0.06
108,21,1,1,14,43,693,1006.9882984438445,1007.7673780574114,"[72, 0, 182]",182,a,0.25572415662463754,colour,0.06
108,21,1,1,14,44,694,1008.2852153391577,1009.0793449869379,"[77, 0, 177]",177,a,0.27077891695080325,colour,0.06
108,21,1,1,14,45,695,1009.5976556715323,1010.2154636511696,"[80, 0, 174]",174,l,0.09443046728847548,colour,0.06
108,21,1,1,14,46,696,1010.7227458622656,1011.5434242697083,"[89, 0, 165]",165,l,0.2973457935731858,colour,0.06
108,21,1,1,14,47,697,1012.0508399945684,1012.7353489317466,"[18, 0, 236]",236,a,0.16124012629734352,colour,0.06
108,21,1,1,14,48,698,1013.2539388530422,1014.0154363970505,"[79, 0, 175]",175,l,0.23814602551283315,colour,0.06
108,21,1,1,14,49,699,1014.5351956468658,1015.2713811073336,"[92, 0, 162]",162,l,0.21283394191414118,colour,0.06
108,21,1,1,14,50,700,1015.7851881638053,1016.4233749129344,"[96, 0, 158]",158,l,0.11492345208534971,colour,0.06
108,21,1,1,15,1,701,1021.0968384412699,1021.6314543469343,"[52, 0, 202]",202,a,0.010435341508127749,colour,0.06
108,21,1,1,15,2,702,1022.1446214037715,1022.7033910921309,"[63, 0, 191]",191,a,0.0356056404998526,colour,0.06
108,21,1,1,15,3,703,1023.2226690622629,1023.8634036006988,"[51, 0, 203]",203,a,0.11738656449597329,colour,0.06
108,21,1,1,15,4,704,1024.3788939546212,1025.031378098356,"[58, 0, 196]",196,a,0.12911962834186852,colour,0.06
108,21,1,1,15,5,705,1025.5506879700697,1026.1113469373086,"[97, 0, 157]",157,l,0.03731729491846636,colour,0.06
108,21,1,1,15,6,706,1026.6289061638527,1027.199385285261,"[54, 0, 200]",200,a,0.047134692140389234,colour,0.06
108,21,1,1,15,7,707,1027.707018019224,1028.6873406892992,"[93, 0, 161]",161,l,0.45698926848126575,colour,0.06
108,21,1,1,15,8,708,1029.2070140807773,1029.9034218908637,"[68, 0, 186]",186,a,0.17307716544019058,colour,0.06
108,21,1,1,15,9,709,1030.4109494679724,1031.1593977150624,"[14, 0, 240]",240,a,0.225973823457025,colour,0.06
108,21,1,1,15,10,710,1031.677414984384,1032.3273210127954,"[85, 0, 169]",169,l,0.12681759893894196,colour,0.06
108,21,1,1,15,11,711,1032.8335756798624,1033.559355731064,"[47, 0, 207]",207,a,0.202316680457443,colour,0.06
108,21,1,1,15,12,712,1034.0681455843733,1034.7913317663479,"[78, 0, 176]",176,l,0.19990910036722198,colour,0.06
108,21,1,1,15,13,713,1035.3025165966828,1036.2873590425588,"[50, 0, 204]",204,a,0.4615275550750084,colour,0.06
108,21,1,1,15,14,714,1036.8025441658683,1037.6073793334654,"[61, 0, 193]",193,a,0.28149585833307356,colour,0.06
108,21,1,1,15,15,715,1038.1157481654664,1038.7673500943347,"[57, 0, 197]",197,a,0.12831106263911352,colour,0.06
108,21,1,1,15,16,716,1039.2875504516414,1039.9913582328008,"[60, 0, 194]",194,a,0.18045744416303933,colour,0.06
108,21,1,1,15,17,717,1040.5063271347317,1041.2555020275177,"[72, 0, 182]",182,a,0.2258115588920191,colour,0.06
108,21,1,1,15,18,718,1041.771940368577,1042.3913351534284,"[65, 0, 189]",189,a,0.09604090329958126,colour,0.06
108,21,1,1,15,19,719,1042.9125969254528,1043.5513697173446,"[89, 0, 165]",165,l,0.11544608563417569,colour,0.06
108,21,1,1,15,20,720,1044.0687714054948,1044.6873521108646,"[91, 0, 163]",163,l,0.09516065765637904,colour,0.06
108,21,1,1,15,21,721,1045.1938332393183,1045.97534682072,"[73, 0, 181]",181,a,0.2585314903408289,colour,0.06
108,21,1,1,15,22,722,1046.4906607316807,1047.0793642853969,"[23, 0, 231]",231,a,0.06531343830283731,colour,0.06
108,21,1,1,15,23,723,1047.6000092947506,1048.383369619667,"[67, 0, 187]",187,a,0.2599654833320528,colour,0.06
108,21,1,1,15,24,724,1048.8968986208783,1049.5273900145548,"[69, 0, 185]",185,a,0.1071394812897779,colour,0.06
108,21,1,1,15,25,725,1050.0374425378977,1050.7993232939043,"[71, 0, 183]",183,a,0.23848197603365406,colour,0.06
108,21,1,1,15,26,726,1051.3187855839496,1052.0073444387526,"[90, 0, 164]",164,l,0.16587175434688106,colour,0.06
108,21,1,1,15,27,727,1052.5219671500963,1053.1113473311416,"[55, 0, 199]",199,a,0.06613854557508603,colour,0.06
108,21,1,1,15,28,728,1053.6312633316847,1054.3674023183412,"[56, 0, 198]",198,a,0.21272799739381298,colour,0.06
108,21,1,1,15,29,729,1054.8812341870507,1055.4393784481217,"[80, 0, 174]",174,l,0.03483961021993309,colour,0.06
108,21,1,1,15,30,730,1055.9594346578233,1056.663383041916,"[95, 0, 159]",159,l,0.18070832401281223,colour,0.06
108,21,1,1,15,31,731,1057.1781577778165,1057.9353576750727,"[82, 0, 172]",172,l,0.23416266776621342,colour,0.06
108,21,1,1,15,32,732,1058.4437635286013,1059.0553983672871,"[74, 0, 180]",180,l,0.08853971387725323,colour,0.06
108,21,1,1,15,33,733,1059.5687446239754,1060.1913488592254,"[66, 0, 188]",188,a,0.09918536909390241,colour,0.06
108,21,1,1,15,34,734,1060.7093456486473,1061.6313259531744,"[83, 0, 171]",171,l,0.39872291521169245,colour,0.06
108,21,1,1,15,35,735,1062.1469037408824,1062.807398710691,"[96, 0, 158]",158,l,0.13715999282430857,colour,0.06
108,21,1,1,15,36,736,1063.3187005132204,1063.9913432666217,"[81, 0, 173]",173,l,0.1498741268296726,colour,0.06
108,21,1,1,15,37,737,1064.506215676316,1065.119328618748,"[84, 0, 170]",170,l,0.08979253773577511,colour,0.06
108,21,1,1,15,38,738,1065.6313082301058,1066.3433438463835,"[53, 0, 201]",201,a,0.1887699561775662,colour,0.06
108,21,1,1,15,39,739,1066.8499328886392,1067.5513653850066,"[70, 0, 184]",184,a,0.17885961121646687,colour,0.06
108,21,1,1,15,40,740,1068.0686646732502,1068.8073321507545,"[94, 0, 160]",160,l,0.2153584943152964,colour,0.06
108,21,1,1,15,41,741,1069.306959178648,1070.0553349580732,"[88, 0, 166]",166,l,0.22492225479800254,colour,0.06
108,21,1,1,15,42,742,1070.5725409048027,1071.1033845542697,"[64, 0, 190]",190,a,0.00742281402926892,colour,0.06
108,21,1,1,15,43,743,1071.619451892504,1072.3753859690041,"[92, 0, 162]",162,l,0.23252663185121492,colour,0.06
108,21,1,1,15,44,744,1072.885221483186,1073.5993106120732,"[98, 0, 156]",156,l,0.19081480416934937,colour,0.06
108,21,1,1,15,45,745,1074.119620064681,1074.879367357411,"[77, 0, 177]",177,l,0.23639459267724305,colour,0.06
108,21,1,1,15,46,746,1075.4007827293826,1075.975371633016,"[59, 0, 195]",195,a,0.051255502039566636,colour,0.06
108,21,1,1,15,47,747,1076.494655116985,1077.239397667814,"[86, 0, 168]",168,l,0.2216222198912874,colour,0.06
108,21,1,1,15,48,748,1077.7487243330688,1078.4553540202323,"[76, 0, 178]",178,l,0.18130263750208542,colour,0.06
108,21,1,1,15,49,749,1078.969398171932,1079.7113475674414,"[99, 0, 155]",155,l,0.21850059705320746,colour,0.06
108,21,1,1,15,50,750,1080.2194028980448,1080.8874081157264,"[79, 0, 175]",175,a,0.14468244992895052,colour,0.06
108,21,1,1,16,1,751,1085.5651342384517,1086.4153534530778,"[52, 0, 202]",202,a,0.3260760658304207,colour,0.06
108,21,1,1,16,2,752,1086.9253665917786,1087.6153507748968,"[77, 0, 177]",177,l,0.16671222151489928,colour,0.06
108,21,1,1,16,3,753,1088.128418582608,1088.8233301720466,"[78, 0, 176]",176,l,0.17151989869307727,colour,0.06
108,21,1,1,16,4,754,1089.3315371333738,1089.9834155421122,"[67, 0, 187]",187,a,0.1286080225254409,colour,0.06
108,21,1,1,16,5,755,1090.5034524533548,1091.159351635084,"[68, 0, 186]",186,a,0.1326197370653972,colour,0.06
108,21,1,1,16,6,756,1091.6752693118178,1092.359393461491,"[60, 0, 194]",194,a,0.16090496338438243,colour,0.06
108,21,1,1,16,7,757,1092.878942397656,1093.5593588818447,"[50, 0, 204]",204,a,0.15707678103353828,colour,0.06
108,21,1,1,16,8,758,1094.0670735357562,1094.6874001600663,"[54, 0, 200]",200,a,0.0968719181837514,colour,0.06
108,21,1,1,16,9,759,1095.2077230034047,1095.9833383482764,"[66, 0, 188]",188,a,0.2522854878916405,colour,0.06
108,21,1,1,16,10,760,1096.5045658557792,1097.0872876776266,"[94, 0, 160]",160,l,0.05938330024946481,colour,0.06
108,21,1,1,16,11,761,1097.5982984280563,1098.3193680820987,"[97, 0, 157]",157,l,0.19766299705952406,colour,0.06
108,21,1,1,16,12,762,1098.832689920382,1099.4473168064724,"[82, 0, 172]",172,l,0.09122849995037541,colour,0.06
108,21,1,1,16,13,763,1099.9576769234263,1100.49529669201,"[99, 0, 155]",155,l,0.01425092079443857,colour,0.06
108,21,1,1,16,14,764,1101.0045804280671,1101.7354958362412,"[72, 0, 182]",182,a,0.20733782212482765,colour,0.06
108,21,1,1,16,15,765,1102.2545662496123,1103.679365703254,"[88, 0, 166]",166,l,0.9015251289238222,colour,0.06
108,21,1,1,16,16,766,1104.1810170991812,1104.9513438810245,"[84, 0, 170]",170,l,0.24730294314213097,colour,0.06
108,21,1,1,16,17,767,1105.462294766854,1106.1433382537798,"[65, 0, 189]",189,a,0.15775458986172453,colour,0.06
108,21,1,1,16,18,768,1106.6496835054131,1107.319335392851,"[74, 0, 180]",180,a,0.14627398125594482,colour,0.06
108,21,1,1,16,19,769,1107.8372286007507,1108.4633301878348,"[95, 0, 159]",159,l,0.10275164392078295,colour,0.06
108,21,1,1,16,20,770,1108.9778670407832,1109.7193855688674,"[87, 0, 167]",167,l,0.21831312641734257,colour,0.06
108,21,1,1,16,21,771,1110.2286094403244,1110.9033281555749,"[61, 0, 193]",193,a,0.151392009051051,colour,0.06
108,21,1,1,16,22,772,1111.4163357047946,1112.0633465718129,"[83, 0, 171]",171,l,0.12393031449755654,colour,0.06
108,21,1,1,16,23,773,1112.5722711203853,1113.2553626060253,"[8, 0, 246]",246,a,0.15974272409221157,colour,0.06
108,21,1,1,16,24,774,1113.775359345018,1114.399347161001,"[53, 0, 201]",201,a,0.10061975597636774,colour,0.06
108,21,1,1,16,25,775,1114.9070082518738,1115.9753054669127,"[76, 0, 178]",178,l,0.54492285347078,colour,0.06
108,21,1,1,16,26,776,1116.4851126241847,1117.023319616972,"[30, 0, 224]",224,a,0.01522017561364919,colour,0.06
108,21,1,1,16,27,777,1117.531969654956,1118.1273634693353,"[80, 0, 174]",174,l,0.07197022205218673,colour,0.06
108,21,1,1,16,28,778,1118.6413272764767,1119.2953300901572,"[71, 0, 183]",183,l,0.13062215055106208,colour,0.06
108,21,1,1,16,29,779,1119.8131720980746,1120.399321954872,"[86, 0, 168]",168,l,0.061549452890176326,colour,0.06
108,21,1,1,16,30,780,1120.9082122388063,1121.447290024953,"[48, 0, 206]",206,a,0.015725086093880236,colour,0.06
108,21,1,1,16,31,781,1121.9550444573397,1122.8473016040516,"[73, 0, 181]",181,l,0.3689316220697947,colour,0.06
108,21,1,1,16,32,782,1123.3632724499912,1124.3753387074685,"[69, 0, 185]",185,l,0.49494695680914447,colour,0.06
108,21,1,1,16,33,783,1124.8882091983687,1125.551371292735,"[85, 0, 169]",169,l,0.13981412048451602,colour,0.06
108,21,1,1,16,34,784,1126.0600945860497,1126.6233186717727,"[89, 0, 165]",165,l,0.039990327146369964,colour,0.06
108,21,1,1,16,35,785,1127.1382052598638,1127.6872839754797,"[75, 0, 179]",179,a,0.025757129362318665,colour,0.06
108,21,1,1,16,36,786,1128.2008054936887,1128.9433019411517,"[92, 0, 162]",162,l,0.21911972283851355,colour,0.06
108,21,1,1,16,37,787,1129.4507456290885,1130.0632744979812,"[57, 0, 197]",197,a,0.08921909803757444,colour,0.06
108,21,1,1,16,38,788,1130.5757688659942,1131.5032917641802,"[79, 0, 175]",175,l,0.404150505841244,colour,0.06
108,21,1,1,16,39,789,1132.0132552782889,1132.5753450877964,"[58, 0, 196]",196,a,0.038743017124943435,colour,0.06
108,21,1,1,16,40,790,1133.091410062916,1133.7433282500715,"[90, 0, 164]",164,l,0.1286151116946712,colour,0.06
108,21,1,1,16,41,791,1134.2632879675366,1135.2472836446832,"[93, 0, 161]",161,l,0.46078121702885255,colour,0.06
108,21,1,1,16,42,792,1135.7632347983308,1136.6473157037399,"[55, 0, 199]",199,a,0.3607447468675673,colour,0.06
108,21,1,1,16,43,793,1137.1538464567857,1137.8873053219286,"[96, 0, 158]",158,l,0.21010104508604854,colour,0.06
108,21,1,1,16,44,794,1138.4038582721842,1138.9433302980615,"[64, 0, 190]",190,a,0.016094907419756055,colour,0.06
108,21,1,1,16,45,795,1139.4507854075055,1140.1352652001078,"[59, 0, 195]",195,a,0.16120231710374355,colour,0.06
108,21,1,1,16,46,796,1140.6538763890858,1141.7513256853563,"[51, 0, 203]",203,a,0.5741722146631218,colour,0.06
108,21,1,1,16,47,797,1142.263300176768,1143.14328587224,"[70, 0, 184]",184,l,0.35674839228158817,colour,0.06
108,21,1,1,16,48,798,1143.6417226978228,1144.3352656727075,"[62, 0, 192]",192,a,0.1702190256328322,colour,0.06
108,21,1,1,16,49,799,1144.8448018640047,1145.5433179312968,"[91, 0, 163]",163,l,0.17519487492972985,colour,0.06
108,21,1,1,16,50,800,1146.0641571066808,1146.7913278279011,"[81, 0, 173]",173,l,0.20384874113369733,colour,0.06
