id,age,condition,counterbalance,block,trialinblock,trial,tstart,tend,trialstim,trialintensity,response,RT,trialtype,colourfreq
039,80,0,2,Practice,1,NA,6.301794201135635e-06,1.1571732736192644,"[16, 0, 238]",238,a,0.6322806356474757,colour,0.5
039,80,0,2,Practice,2,NA,1.672958618029952,2.781172117218375,"[57, 0, 197]",197,a,0.5875133513472974,colour,0.5
039,80,0,2,Practice,3,NA,3.2953422996215522,4.333202708046883,"[34, 0, 220]",220,a,0.5146498866379261,colour,0.5
039,80,0,2,Practice,4,NA,4.84218830242753,6.069160525687039,"[61, 0, 193]",193,a,0.7039913134649396,colour,0.5
039,80,0,2,Practice,5,NA,6.576540804002434,15.213276625145227,"[45, 0, 209]",209,a,8.113544597756118,colour,0.5
039,80,0,2,Practice,6,NA,15.733105585444719,22.165197884198278,"[73, 0, 181]",181,a,5.908984176814556,colour,0.5
039,80,0,2,Practice,7,NA,22.686045330483466,43.83720103185624,"[33, 0, 221]",221,a,20.628645437769592,colour,0.5
039,80,0,2,Practice,8,NA,44.35576299019158,45.78114769887179,"[12, 0, 242]",242,a,0.9021218055859208,colour,0.5
039,80,0,2,Practice,9,NA,46.293245857581496,47.62917988700792,"[93, 0, 161]",161,a,0.8128420552238822,colour,0.5
039,80,0,2,Practice,10,NA,48.12450414802879,49.11718255234882,"[90, 0, 164]",164,a,0.46944543346762657,colour,0.5
039,80,0,2,1,1,1,4.453317836858332,5.864018788095564,"[9, 0, 245]",245,a,0.8868000176735222,colour,0.5
039,80,0,2,1,2,2,6.376034633256495,7.120206501334906,"[74, 0, 180]",180,a,0.2226166808977723,colour,0.5
039,80,0,2,1,3,3,7.639972840435803,8.759993052575737,"[52, 0, 202]",202,a,0.5967923612333834,colour,0.5
039,80,0,2,1,4,4,9.280538418795913,10.455947939772159,"[81, 0, 173]",173,a,0.6524116760119796,colour,0.5
039,80,0,2,1,5,5,10.968076031189412,12.191981769632548,"[69, 0, 185]",185,a,0.7006873399950564,colour,0.5
039,80,0,2,1,6,6,12.702441529370844,13.935960653237998,"[72, 0, 182]",182,a,0.7101715435273945,colour,0.5
039,80,0,2,1,7,7,14.452444680500776,15.615937605500221,"[1, 0, 253]",253,a,0.640242625027895,colour,0.5
039,80,0,2,1,8,8,16.1243143142201,17.327949197031558,"[14, 0, 240]",240,a,0.6804082132875919,colour,0.5
039,80,0,2,1,9,9,17.843114234041423,19.175985323730856,"[19, 0, 235]",235,a,0.8095900695770979,colour,0.5
039,80,0,2,1,10,10,19.689819949213415,20.871975657064468,"[18, 0, 236]",236,a,0.6590826380997896,colour,0.5
039,80,0,2,1,11,11,21.392964099999517,22.90398469660431,"[31, 0, 223]",223,a,0.9877380011603236,colour,0.5
039,80,0,2,1,12,12,23.421812132466584,25.432021799962968,"[17, 0, 237]",237,a,1.4870444382540882,colour,0.5
039,80,0,2,1,13,13,25.95317329512909,27.199940607883036,"[89, 0, 165]",165,a,0.7235032278113067,colour,0.5
039,80,0,2,1,14,14,27.718779440037906,30.975966734346002,"[92, 0, 162]",162,a,2.733860982116312,colour,0.5
039,80,0,2,1,15,15,31.48442103061825,33.367931253276765,"[53, 0, 201]",201,a,1.3603134853765368,colour,0.5
039,80,0,2,1,16,16,33.87634498393163,35.031950750388205,"[96, 0, 158]",158,l,0.6323452265933156,colour,0.5
039,80,0,2,1,17,17,35.54812639625743,36.663917490746826,"[41, 0, 213]",213,a,0.5924742347560823,colour,0.5
039,80,0,2,1,18,18,37.173189017456025,37.871941392309964,"[95, 0, 159]",159,l,0.1754875024780631,colour,0.5
039,80,0,2,1,19,19,38.39194246381521,39.48799321334809,"[34, 0, 220]",220,a,0.5728760678321123,colour,0.5
039,80,0,2,1,20,20,40.00125243002549,41.079964112490416,"[0, 0, 254]",254,a,0.5553696164861321,colour,0.5
039,80,0,2,1,21,21,41.59495585784316,42.5758992289193,"[99, 0, 155]",155,l,0.45600544149056077,colour,0.5
039,80,0,2,1,22,22,43.09663876146078,44.50392270507291,"[16, 0, 238]",238,a,0.883963932748884,colour,0.5
039,80,0,2,1,23,23,45.01849776133895,46.82428958080709,"[66, 0, 188]",188,a,1.2824851996265352,colour,0.5
039,80,0,2,1,24,24,47.331093662884086,49.4559325799346,"[65, 0, 189]",189,a,1.6016153986565769,colour,0.5
039,80,0,2,1,25,25,49.9717159550637,50.83994180522859,"[88, 0, 166]",166,l,0.3451992543414235,colour,0.5
039,80,0,2,1,26,26,51.34660410275683,52.38393557630479,"[24, 0, 230]",230,a,0.5140228839591146,colour,0.5
039,80,0,2,1,27,27,52.893599373754114,53.911957713309675,"[73, 0, 181]",181,l,0.49417383735999465,colour,0.5
039,80,0,2,1,28,28,54.42582660354674,55.47196407802403,"[49, 0, 205]",205,a,0.5228812666609883,colour,0.5
039,80,0,2,1,29,29,55.98824448697269,57.01595509191975,"[80, 0, 174]",174,l,0.5045709754340351,colour,0.5
039,80,0,2,1,30,30,57.53510348685086,58.51991324359551,"[61, 0, 193]",193,a,0.46164373960345984,colour,0.5
039,80,0,2,1,31,31,59.035149566829205,60.18391147302464,"[59, 0, 195]",195,a,0.6251169722527266,colour,0.5
039,80,0,2,1,32,32,60.69180020643398,61.695924954954535,"[13, 0, 241]",241,a,0.4815833708271384,colour,0.5
039,80,0,2,1,33,33,62.20742564974353,63.68793224589899,"[51, 0, 203]",203,l,0.9572964683175087,colour,0.5
039,80,0,2,1,34,34,64.20739374822006,65.17590970499441,"[10, 0, 244]",244,a,0.44520027842372656,colour,0.5
039,80,0,2,1,35,35,65.69179744971916,66.69590329332277,"[32, 0, 222]",222,a,0.48158652149140835,colour,0.5
039,80,0,2,1,36,36,67.20731734205037,68.35193520132452,"[30, 0, 224]",224,a,0.6212025377899408,colour,0.5
039,80,0,2,1,37,37,68.86367180990055,69.96790313255042,"[27, 0, 227]",227,a,0.5809349426999688,colour,0.5
039,80,0,2,1,38,38,70.48866078210995,71.75193969113752,"[5, 0, 249]",249,a,0.7401904799044132,colour,0.5
039,80,0,2,1,39,39,72.26983880670741,73.23992108879611,"[82, 0, 172]",172,l,0.44518098002299666,colour,0.5
039,80,0,2,1,40,40,73.7563929068856,75.31995963864028,"[68, 0, 186]",186,l,1.0403617238625884,colour,0.5
039,80,0,2,1,41,41,75.83444174705073,76.79989240132272,"[33, 0, 221]",221,a,0.44219602178782225,colour,0.5
039,80,0,2,1,42,42,77.31891988543794,78.36792022548616,"[54, 0, 200]",200,a,0.5257161692716181,colour,0.5
039,80,0,2,1,43,43,78.88141220528632,80.1519583594054,"[29, 0, 225]",225,a,0.7473576879128814,colour,0.5
039,80,0,2,1,44,44,80.66263315919787,81.85593431256711,"[4, 0, 250]",250,a,0.6700862995348871,colour,0.5
039,80,0,2,1,45,45,82.36575722368434,83.82388628227636,"[35, 0, 219]",219,a,0.9326901566237211,colour,0.5
039,80,0,2,1,46,46,84.3372731055133,85.73588377423584,"[63, 0, 191]",191,l,0.8753981781192124,colour,0.5
039,80,0,2,1,47,47,86.24353226227686,87.35189857333899,"[23, 0, 231]",231,a,0.5840884670615196,colour,0.5
039,80,0,2,1,48,48,87.8694873386994,88.79990973044187,"[26, 0, 228]",228,a,0.4070917470380664,colour,0.5
039,80,0,2,1,49,49,89.30693830456585,90.39190622977912,"[55, 0, 199]",199,a,0.5616518524475396,colour,0.5
039,80,0,2,1,50,50,90.90075594792143,91.86394474469125,"[71, 0, 183]",183,l,0.43986327201128006,colour,0.5
039,80,0,2,2,1,51,96.55617069918662,97.78394636744633,"[58, 0, 196]",196,a,0.7037632763385773,colour,0.5
039,80,0,2,2,2,52,98.29267596220598,99.93592244992033,"[76, 0, 178]",178,a,1.120083227287978,colour,0.5
039,80,0,2,2,3,53,100.4487909716554,101.33591827517375,"[22, 0, 232]",232,a,0.3638856681063771,colour,0.5
039,80,0,2,2,4,54,101.85513441171497,103.33587140776217,"[54, 0, 200]",200,a,0.9577474221587181,colour,0.5
039,80,0,2,2,5,55,103.85505091631785,104.89587698457763,"[25, 0, 229]",229,a,0.5176954972557724,colour,0.5
039,80,0,2,2,6,56,105.41754126688465,106.64789190003648,"[44, 0, 210]",210,a,0.7071089972741902,colour,0.5
039,80,0,2,2,7,57,107.16757277492434,108.36788044730201,"[38, 0, 216]",216,a,0.677079034037888,colour,0.5
039,80,0,2,2,8,58,108.88628329150379,109.70389206428081,"[94, 0, 160]",160,l,0.29434035532176495,colour,0.5
039,80,0,2,2,9,59,110.21443098690361,111.23991045495495,"[2, 0, 252]",252,a,0.5021913587115705,colour,0.5
039,80,0,2,2,10,60,111.74565351614729,112.68789246724918,"[77, 0, 177]",177,l,0.43136210832744837,colour,0.5
039,80,0,2,2,11,61,113.20012571569532,114.00792063539848,"[36, 0, 218]",218,a,0.2845202013850212,colour,0.5
039,80,0,2,2,12,62,114.52812847541645,115.44792175386101,"[67, 0, 187]",187,l,0.39644727343693376,colour,0.5
039,80,0,2,2,13,63,115.96575470315292,116.91990631166846,"[82, 0, 172]",172,l,0.43100607115775347,colour,0.5
039,80,0,2,2,14,64,117.43443410657346,118.49588746065274,"[98, 0, 156]",156,l,0.5369742549955845,colour,0.5
039,80,0,2,2,15,65,119.01335531519726,120.18390005128458,"[63, 0, 191]",191,l,0.6481195432133973,colour,0.5
039,80,0,2,2,16,66,120.70007530320436,121.67987061385065,"[3, 0, 251]",251,a,0.456500506028533,colour,0.5
039,80,0,2,2,17,67,122.20007490925491,123.2239155843854,"[80, 0, 174]",174,l,0.5005876179784536,colour,0.5
039,80,0,2,2,18,68,123.73130413424224,124.65588303375989,"[60, 0, 194]",194,a,0.4021277129650116,colour,0.5
039,80,0,2,2,19,69,125.16882520494983,126.15186659339815,"[90, 0, 164]",164,l,0.45987852243706584,colour,0.5
039,80,0,2,2,20,70,126.66885316791013,127.72787964390591,"[31, 0, 223]",223,a,0.5358498250134289,colour,0.5
039,80,0,2,2,21,71,128.24801501631737,129.2958519360982,"[74, 0, 180]",180,l,0.5244278996251523,colour,0.5
039,80,0,2,2,22,72,129.8105727150105,130.86388054816052,"[95, 0, 159]",159,l,0.5300484746694565,colour,0.5
039,80,0,2,2,23,73,131.37311859801412,132.52788744168356,"[39, 0, 215]",215,a,0.6314504081383348,colour,0.5
039,80,0,2,2,24,74,133.04488937649876,134.36785878567025,"[62, 0, 192]",192,a,0.7997033554129303,colour,0.5
039,80,0,2,2,25,75,134.88875191798434,135.9119108458981,"[78, 0, 176]",176,l,0.5001252433285117,colour,0.5
039,80,0,2,2,26,76,136.41998074855655,137.43188356002793,"[35, 0, 219]",219,a,0.488622578792274,colour,0.5
039,80,0,2,2,27,77,137.9512194255367,138.89589195046574,"[12, 0, 242]",242,a,0.4213942615315318,colour,0.5
039,80,0,2,2,28,78,139.404287958052,140.43994597997516,"[17, 0, 237]",237,a,0.5124384416267276,colour,0.5
039,80,0,2,2,29,79,140.95120879169554,142.16789927287027,"[33, 0, 221]",221,a,0.6934901992790401,colour,0.5
039,80,0,2,2,30,80,142.68533207522705,143.87184805097058,"[40, 0, 214]",214,a,0.6629521744325757,colour,0.5
039,80,0,2,2,31,81,144.3886518809013,145.53591480944306,"[42, 0, 212]",212,a,0.6241563819348812,colour,0.5
039,80,0,2,2,32,82,146.0449141887948,147.5758535428904,"[55, 0, 199]",199,a,1.0069096330553293,colour,0.5
039,80,0,2,2,33,83,148.0924947145395,149.30391159886494,"[11, 0, 243]",243,a,0.688172098249197,colour,0.5
039,80,0,2,2,34,84,149.81172235123813,151.10386859066784,"[32, 0, 222]",222,a,0.7687600627541542,colour,0.5
039,80,0,2,2,35,85,151.6267750635743,152.7519196048379,"[15, 0, 239]",239,a,0.6018564319238067,colour,0.5
039,80,0,2,2,36,86,153.26521899411455,154.42387509718537,"[26, 0, 228]",228,a,0.6356141474097967,colour,0.5
039,80,0,2,2,37,87,154.93688422162086,155.9359094533138,"[99, 0, 155]",155,l,0.4757509068585932,colour,0.5
039,80,0,2,2,38,88,156.4525053324178,157.51189099578187,"[8, 0, 246]",246,a,0.5361003107391298,colour,0.5
039,80,0,2,2,39,89,158.0305868620053,159.03983160713688,"[81, 0, 173]",173,l,0.4859436391852796,colour,0.5
039,80,0,2,2,40,90,159.54627177584916,160.67192122759297,"[13, 0, 241]",241,a,0.6024645301513374,colour,0.5
039,80,0,2,2,41,91,161.18688304023817,162.2239116462879,"[24, 0, 230]",230,a,0.5145238563418388,colour,0.5
039,80,0,2,2,42,92,162.73374558473006,163.735856205225,"[68, 0, 186]",186,l,0.47877446189522743,colour,0.5
039,80,0,2,2,43,93,164.2493647262454,165.49588155327365,"[64, 0, 190]",190,a,0.7236855789087713,colour,0.5
039,80,0,2,2,44,94,166.00494985561818,167.07190366182476,"[69, 0, 185]",185,l,0.5438338690437376,colour,0.5
039,80,0,2,2,45,95,167.58302862755954,168.53597861249,"[10, 0, 244]",244,a,0.4285449283197522,colour,0.5
039,80,0,2,2,46,96,169.05475876154378,170.0718883019872,"[23, 0, 231]",231,a,0.4939674618653953,colour,0.5
039,80,0,2,2,47,97,170.57363343331963,171.71988339023665,"[50, 0, 204]",204,a,0.6228952878154814,colour,0.5
039,80,0,2,2,48,98,172.22988786408678,173.28783441428095,"[43, 0, 211]",211,a,0.5346812838688493,colour,0.5
039,80,0,2,2,49,99,173.81084761954844,174.79184967372566,"[97, 0, 157]",157,l,0.45775844948366284,colour,0.5
039,80,0,2,2,50,100,175.3108165054582,176.57585590565577,"[51, 0, 203]",203,a,0.7418525093235075,colour,0.5
039,80,0,2,3,1,101,181.68754391372204,182.97586197126657,"[93, 0, 161]",161,l,0.7644257885403931,colour,0.5
039,80,0,2,3,2,102,183.48514767643064,184.4560786965303,"[40, 0, 214]",214,a,0.4476117971353233,colour,0.5
039,80,0,2,3,3,103,184.96959903324023,185.80789850093424,"[53, 0, 201]",201,a,0.315148810390383,colour,0.5
039,80,0,2,3,4,104,186.32892081467435,187.2798480070196,"[24, 0, 230]",230,a,0.4275658275000751,colour,0.5
039,80,0,2,3,5,105,187.79768253164366,188.7198432176374,"[72, 0, 182]",182,l,0.41102351108565927,colour,0.5
039,80,0,2,3,6,106,189.23870095424354,190.1998811373487,"[51, 0, 203]",203,a,0.4381677657365799,colour,0.5
039,80,0,2,3,7,107,190.7080979445018,191.8798399725929,"[52, 0, 202]",202,a,0.6606245450675488,colour,0.5
039,80,0,2,3,8,108,192.4009052151814,193.31990765081719,"[89, 0, 165]",165,l,0.39577104011550546,colour,0.5
039,80,0,2,3,9,109,193.83837823709473,194.87191264191642,"[47, 0, 207]",207,a,0.5104463691823184,colour,0.5
039,80,0,2,3,10,110,195.38536799373105,196.51184097770602,"[20, 0, 234]",234,a,0.6014019339345396,colour,0.5
039,80,0,2,3,11,111,197.02980625908822,198.0078332014382,"[82, 0, 172]",172,l,0.4547872757539153,colour,0.5
039,80,0,2,3,12,112,198.51415442861617,199.49590400233865,"[8, 0, 246]",246,a,0.4584461045451462,colour,0.5
039,80,0,2,3,13,113,200.01425407128409,201.09582665096968,"[35, 0, 219]",219,a,0.5583006176166236,colour,0.5
039,80,0,2,3,14,114,201.60803587455302,202.5838411320001,"[87, 0, 167]",167,l,0.45291887084022164,colour,0.5
039,80,0,2,3,15,115,203.09241043170914,204.0642606881447,"[83, 0, 171]",171,l,0.44866809202358127,colour,0.5
039,80,0,2,3,16,116,204.57672591134906,205.68001712439582,"[45, 0, 209]",209,a,0.5799755342304707,colour,0.5
039,80,0,2,3,17,117,206.18611661624163,207.51186027610675,"[23, 0, 231]",231,a,0.8025299874134362,colour,0.5
039,80,0,2,3,18,118,208.031041753944,210.02385485358536,"[21, 0, 233]",233,a,1.4694997840560973,colour,0.5
039,80,0,2,3,19,119,210.53102284949273,211.49592802673578,"[84, 0, 170]",170,l,0.44167614495381713,colour,0.5
039,80,0,2,3,20,120,212.01539504295215,213.12786719808355,"[2, 0, 252]",252,a,0.5892127961851656,colour,0.5
039,80,0,2,3,21,121,213.64044033549726,214.78381954925135,"[76, 0, 178]",178,l,0.6200977996923029,colour,0.5
039,80,0,2,3,22,122,215.2966782245785,216.39204919617623,"[31, 0, 223]",223,a,0.5721183083951473,colour,0.5
039,80,0,2,3,23,123,216.89423267776147,218.01585544878617,"[34, 0, 220]",220,a,0.6107876757159829,colour,0.5
039,80,0,2,3,24,124,218.5169164701365,219.6238472131081,"[29, 0, 225]",225,a,0.5837536985054612,colour,0.5
039,80,0,2,3,25,125,220.141806980595,221.47183095803484,"[58, 0, 196]",196,a,0.806700028013438,colour,0.5
039,80,0,2,3,26,126,221.9855742114596,223.29585744952783,"[61, 0, 193]",193,a,0.7870258488692343,colour,0.5
039,80,0,2,3,27,127,223.80421131569892,224.9918481768109,"[9, 0, 245]",245,a,0.6644672993570566,colour,0.5
039,80,0,2,3,28,128,225.50737830949947,226.80785163352266,"[14, 0, 240]",240,a,0.7772080576978624,colour,0.5
039,80,0,2,3,29,129,227.319865509402,231.1278230873868,"[57, 0, 197]",197,a,3.2846923116594553,colour,0.5
039,80,0,2,3,30,130,231.6480143861845,233.35184737341478,"[32, 0, 222]",222,a,1.1787308235652745,colour,0.5
039,80,0,2,3,31,131,233.8685507727787,234.83181046228856,"[69, 0, 185]",185,l,0.44028626289218664,colour,0.5
039,80,0,2,3,32,132,235.35295841284096,236.4797925534658,"[78, 0, 176]",176,l,0.6035314588807523,colour,0.5
039,80,0,2,3,33,133,236.9935803115368,237.91983266267926,"[6, 0, 248]",248,a,0.40298275277018547,colour,0.5
039,80,0,2,3,34,134,238.43115336960182,239.56781239062548,"[81, 0, 173]",173,l,0.6134674036875367,colour,0.5
039,80,0,2,3,35,135,240.0873310007155,241.1518161809072,"[39, 0, 215]",215,a,0.5413455506786704,colour,0.5
039,80,0,2,3,36,136,241.66542907152325,242.7998246597126,"[86, 0, 168]",168,l,0.6111641926690936,colour,0.5
039,80,0,2,3,37,137,243.30722935684025,244.33582335850224,"[16, 0, 238]",238,a,0.505409867502749,colour,0.5
039,80,0,2,3,38,138,244.8541155322455,245.9837999357842,"[96, 0, 158]",158,l,0.6064719124697149,colour,0.5
039,80,0,2,3,39,139,246.4947551540099,247.83984176861122,"[37, 0, 217]",217,a,0.8218957856297493,colour,0.5
039,80,0,2,3,40,140,248.35424628900364,249.49584177462384,"[43, 0, 211]",211,a,0.6186015792191029,colour,0.5
039,80,0,2,3,41,141,250.01035893522203,250.98380584316328,"[66, 0, 188]",188,l,0.4508724473416805,colour,0.5
039,80,0,2,3,42,142,251.49473034171388,252.51982265897095,"[0, 0, 254]",254,a,0.5018762820400298,colour,0.5
039,80,0,2,3,43,143,253.02724153455347,254.16782522993162,"[18, 0, 236]",236,a,0.6173782935366035,colour,0.5
039,80,0,2,3,44,144,254.68348454404622,255.80778074124828,"[22, 0, 232]",232,a,0.6011132448911667,colour,0.5
039,80,0,2,3,45,145,256.3240800546482,257.24786535510793,"[15, 0, 239]",239,a,0.4006023481488228,colour,0.5
039,80,0,2,3,46,146,257.76156607316807,258.83180416096,"[95, 0, 159]",159,l,0.5469913324341178,colour,0.5
039,80,0,2,3,47,147,259.3396483901888,260.39181643305346,"[90, 0, 164]",164,l,0.5289094722829759,colour,0.5
039,80,0,2,3,48,148,260.90216000843793,262.0159310675226,"[94, 0, 160]",160,l,0.5905341496691108,colour,0.5
039,80,0,2,3,49,149,262.52718757791445,263.7118044286035,"[74, 0, 180]",180,l,0.6602436960674822,colour,0.5
039,80,0,2,3,50,150,264.2315495000221,265.26403076108545,"[80, 0, 174]",174,l,0.5092439576983452,colour,0.5
039,80,0,2,4,1,151,270.0901241558604,272.5598216508515,"[38, 0, 216]",216,l,1.9456815584562719,colour,0.5
039,80,0,2,4,2,152,273.0770610743202,274.0397674101405,"[57, 0, 197]",197,a,0.4395021158270538,colour,0.5
039,80,0,2,4,3,153,274.5613466221839,275.487777385395,"[25, 0, 229]",229,a,0.40319464169442654,colour,0.5
039,80,0,2,4,4,154,275.9988676928915,276.88013102440163,"[26, 0, 228]",228,a,0.3580114562064409,colour,0.5
039,80,0,2,4,5,155,277.38951125275344,278.44780911365524,"[61, 0, 193]",193,l,0.5351172713562846,colour,0.5
039,80,0,2,4,6,156,278.9676865176298,279.90380510268733,"[0, 0, 254]",254,a,0.4129817127250135,colour,0.5
039,80,0,2,4,7,157,280.42076292680576,281.4237762419507,"[76, 0, 178]",178,l,0.47989022731781006,colour,0.5
039,80,0,2,4,8,158,281.92401766963303,282.9518267358653,"[4, 0, 250]",250,a,0.5046146926470101,colour,0.5
039,80,0,2,4,9,159,283.46859787683934,284.4557884321548,"[77, 0, 177]",177,l,0.476547263097018,colour,0.5
039,80,0,2,4,10,160,284.97182623203844,285.96782436361536,"[7, 0, 247]",247,a,0.47287976974621415,colour,0.5
039,80,0,2,4,11,161,286.4874390717596,287.51980572380126,"[17, 0, 237]",237,a,0.5091636134311557,colour,0.5
039,80,0,2,4,12,162,288.0342890135944,289.3438440305181,"[51, 0, 203]",203,l,0.7863066862337291,colour,0.5
039,80,0,2,4,13,163,289.8624311950989,290.91179859964177,"[3, 0, 251]",251,a,0.5261746058240533,colour,0.5
039,80,0,2,4,14,164,291.4249002779834,292.4238049928099,"[83, 0, 171]",171,l,0.4756745006889105,colour,0.5
039,80,0,2,4,15,165,292.940515874885,293.9758048634976,"[19, 0, 235]",235,a,0.5120445960201323,colour,0.5
039,80,0,2,4,16,166,294.49038661504164,295.3997768466361,"[94, 0, 160]",160,l,0.38649006094783545,colour,0.5
039,80,0,2,4,17,167,295.9122235593386,296.7757882429287,"[84, 0, 170]",170,l,0.3403872447088361,colour,0.5
039,80,0,2,4,18,168,297.28721371339634,298.3438727813773,"[92, 0, 162]",162,l,0.533755746204406,colour,0.5
039,80,0,2,4,19,169,298.86536259017885,300.0957864788361,"[40, 0, 214]",214,a,0.7071227822452784,colour,0.5
039,80,0,2,4,20,170,300.61531020887196,301.6957914410159,"[81, 0, 173]",173,l,0.557170279789716,colour,0.5
039,80,0,2,4,21,171,302.2090711379424,303.2957944343798,"[32, 0, 222]",222,a,0.5637853159569204,colour,0.5
039,80,0,2,4,22,172,303.80278598703444,304.90380392130464,"[46, 0, 208]",208,a,0.5776841384358704,colour,0.5
039,80,0,2,4,23,173,305.412174328696,306.551785224583,"[55, 0, 199]",199,a,0.6165630323812366,colour,0.5
039,80,0,2,4,24,174,307.0684701134451,308.2077619940974,"[13, 0, 241]",241,a,0.6160136177204549,colour,0.5
039,80,0,2,4,25,175,308.72590765729547,309.74399463739246,"[69, 0, 185]",185,l,0.4948225016705692,colour,0.5
039,80,0,2,4,26,176,310.2450485690497,311.24776216736063,"[98, 0, 156]",156,l,0.49212859524413943,colour,0.5
039,80,0,2,4,27,177,311.7639972837642,312.84777421923354,"[27, 0, 227]",227,a,0.5604691337794065,colour,0.5
039,80,0,2,4,28,178,313.36026661796495,314.9117588214576,"[60, 0, 194]",194,l,1.028123749885708,colour,0.5
039,80,0,2,4,29,179,315.4227841440588,316.6478021033108,"[12, 0, 242]",242,a,0.7018460347317159,colour,0.5
039,80,0,2,4,30,180,317.15717484848574,318.24781100451946,"[82, 0, 172]",172,l,0.5673905820585787,colour,0.5
039,80,0,2,4,31,181,318.76417215168476,319.8237563134171,"[42, 0, 212]",212,a,0.536340163089335,colour,0.5
039,80,0,2,4,32,182,320.3423804990016,321.3598133013584,"[63, 0, 191]",191,l,0.49186038644984365,colour,0.5
039,80,0,2,4,33,183,321.87908300058916,322.88778423843905,"[28, 0, 226]",226,a,0.4854426668025553,colour,0.5
039,80,0,2,4,34,184,323.4049559207633,324.5357718435116,"[65, 0, 189]",189,l,0.6077562440186739,colour,0.5
039,80,0,2,4,35,185,325.03379001049325,326.16783546982333,"[74, 0, 180]",180,l,0.6107427775859833,colour,0.5
039,80,0,2,4,36,186,326.67445405060425,327.9837637017481,"[58, 0, 196]",196,l,0.7860164218582213,colour,0.5
039,80,0,2,4,37,187,328.4991587451659,329.5598582783714,"[35, 0, 219]",219,a,0.5367907229810953,colour,0.5
039,80,0,2,4,38,188,330.075991388876,331.2157633677125,"[41, 0, 213]",213,a,0.6163381463848054,colour,0.5
039,80,0,2,4,39,189,331.73223479185253,332.68776407372206,"[96, 0, 158]",158,l,0.43217658158391714,colour,0.5
039,80,0,2,4,40,190,333.2032697875984,334.20778168644756,"[9, 0, 245]",245,a,0.4812954696826637,colour,0.5
039,80,0,2,4,41,191,334.71889444300905,335.80776813812554,"[91, 0, 163]",163,l,0.5656895614229143,colour,0.5
039,80,0,2,4,42,192,336.32821819372475,337.38375834561884,"[97, 0, 157]",157,l,0.5321606704965234,colour,0.5
039,80,0,2,4,43,193,337.8908073999919,339.0077756997198,"[33, 0, 221]",221,a,0.5937995258718729,colour,0.5
039,80,0,2,4,44,194,339.51573256915435,340.5837722090073,"[31, 0, 223]",223,a,0.5446900906972587,colour,0.5
039,80,0,2,4,45,195,341.08139653038234,342.12773880455643,"[67, 0, 187]",187,l,0.5230951248668134,colour,0.5
039,80,0,2,4,46,196,342.6439841608517,343.711883591488,"[14, 0, 240]",240,a,0.5446948166936636,colour,0.5
039,80,0,2,4,47,197,344.2249797564,345.31979382922873,"[75, 0, 179]",179,l,0.5715011511929333,colour,0.5
039,80,0,2,4,48,198,345.83438424533233,347.01575226150453,"[53, 0, 201]",201,a,0.658024768345058,colour,0.5
039,80,0,2,4,49,199,347.521882079076,348.4557750415988,"[24, 0, 230]",230,a,0.41084391763433814,colour,0.5
039,80,0,2,4,50,200,348.97500850679353,349.9917371124029,"[29, 0, 225]",225,a,0.493765024933964,colour,0.5
039,80,0,2,5,1,201,361.38167923269793,362.02375166583806,"[99, 0, 155]",155,l,0.11797418259084225,colour,0.5
039,80,0,2,5,2,202,362.538735140115,363.375789267011,"[45, 0, 209]",209,a,0.3140846388414502,colour,0.5
039,80,0,2,5,3,203,363.8842463204637,366.3838052130304,"[79, 0, 175]",175,a,1.976286930963397,colour,0.5
039,80,0,2,5,4,204,366.89984970819205,367.8797013387084,"[38, 0, 216]",216,a,0.45650995802134275,colour,0.5
039,80,0,2,5,5,205,368.39987964043394,369.09578687278554,"[72, 0, 182]",182,l,0.17298461170867085,colour,0.5
039,80,0,2,5,6,206,369.602998978924,370.3677359055728,"[51, 0, 203]",203,a,0.23940475704148412,colour,0.5
039,80,0,2,5,7,207,370.8864617040381,371.4957889993675,"[91, 0, 163]",163,l,0.08610889688134193,colour,0.5
039,80,0,2,5,8,208,372.0115251131356,372.70370498718694,"[62, 0, 192]",192,a,0.16899298317730427,colour,0.5
039,80,0,2,5,9,209,373.20215008361265,373.8717929124832,"[98, 0, 156]",156,l,0.14635038748383522,colour,0.5
039,80,0,2,5,10,210,374.38971762824804,375.1357370275073,"[53, 0, 201]",201,a,0.22290024999529123,colour,0.5
039,80,0,2,5,11,211,375.65530762495473,376.6317343711853,"[8, 0, 246]",246,a,0.45385386096313596,colour,0.5
039,80,0,2,5,12,212,377.139601837378,378.17572223441675,"[33, 0, 221]",221,a,0.5098768677562475,colour,0.5
039,80,0,2,5,13,213,378.68937647901475,379.7197510576807,"[28, 0, 226]",226,a,0.5073149004019797,colour,0.5
039,80,0,2,5,14,214,380.2363213370554,381.19206723431125,"[25, 0, 229]",229,a,0.4449450667016208,colour,0.5
039,80,0,2,5,15,215,381.7082590274513,382.8637391575612,"[14, 0, 240]",240,a,0.6322329803369939,colour,0.5
039,80,0,2,5,16,216,383.3810644391924,384.37575618410483,"[0, 0, 254]",254,a,0.47137015825137496,colour,0.5
039,80,0,2,5,17,217,384.89667964261025,385.87974308617413,"[63, 0, 191]",191,l,0.4598257467150688,colour,0.5
039,80,0,2,5,18,218,386.3966749161482,387.42372464807704,"[48, 0, 206]",206,l,0.503850631415844,colour,0.5
039,80,0,2,5,19,219,387.9297067737207,388.92773281782866,"[32, 0, 222]",222,a,0.47481237165629864,colour,0.5
039,80,0,2,5,20,220,389.445918653626,390.3757483069785,"[64, 0, 190]",190,l,0.40710789477452636,colour,0.5
039,80,0,2,5,21,221,390.8828851892613,391.8877818756737,"[87, 0, 167]",167,l,0.4816908910870552,colour,0.5
039,80,0,2,5,22,222,392.39844092167914,393.4397510262206,"[66, 0, 188]",188,l,0.5160578857176006,colour,0.5
039,80,0,2,5,23,223,393.9473719447851,395.0077374968678,"[93, 0, 161]",161,l,0.5371247041039169,colour,0.5
039,80,0,2,5,24,224,395.52539754798636,396.4797413535416,"[22, 0, 232]",232,a,0.43097771471366286,colour,0.5
039,80,0,2,5,25,225,396.99423685250804,398.0797289866023,"[97, 0, 157]",157,l,0.5623233602382243,colour,0.5
039,80,0,2,5,26,226,398.58793161576614,399.53571552364156,"[1, 0, 253]",253,a,0.42312285164371133,colour,0.5
039,80,0,2,5,27,227,400.0427220421843,401.279755059164,"[16, 0, 238]",238,a,0.7137169442139566,colour,0.5
039,80,0,2,5,28,228,401.79272637469694,402.5597570599057,"[83, 0, 171]",171,l,0.2438441882841289,colour,0.5
039,80,0,2,5,29,229,403.07391779031605,404.0637423871085,"[9, 0, 245]",245,a,0.46651128167286515,colour,0.5
039,80,0,2,5,30,230,404.5739823807962,405.3517020442523,"[65, 0, 189]",189,l,0.25449772039428353,colour,0.5
039,80,0,2,5,31,231,405.8707854547538,406.82369447965175,"[6, 0, 248]",248,a,0.42964690923690796,colour,0.5
039,80,0,2,5,32,232,407.3395660761744,408.32775109261274,"[24, 0, 230]",230,a,0.4649886731058359,colour,0.5
039,80,0,2,5,33,233,408.839631060604,410.0637585343793,"[52, 0, 202]",202,a,0.7011430193670094,colour,0.5
039,80,0,2,5,34,234,410.5757279060781,411.52772242063656,"[90, 0, 164]",164,l,0.42875799909234047,colour,0.5
039,80,0,2,5,35,235,412.0444805645384,413.2557091903873,"[23, 0, 231]",231,a,0.6879145228303969,colour,0.5
039,80,0,2,5,36,236,413.76325133955106,414.7676825001836,"[67, 0, 187]",187,l,0.4812679002061486,colour,0.5
039,80,0,2,5,37,237,415.2788015580736,416.2556784702465,"[76, 0, 178]",178,l,0.45387985464185476,colour,0.5
039,80,0,2,5,38,238,416.763165875338,417.64769576489925,"[89, 0, 165]",165,l,0.361363478936255,colour,0.5
039,80,0,2,5,39,239,418.1537539027631,419.03968037012964,"[13, 0, 241]",241,a,0.36254777340218425,colour,0.5
039,80,0,2,5,40,240,419.56080114562064,420.4956913255155,"[31, 0, 223]",223,a,0.41206168895587325,colour,0.5
039,80,0,2,5,41,241,421.0134470812045,421.8077645935118,"[74, 0, 180]",180,l,0.2709514214657247,colour,0.5
039,80,0,2,5,42,242,422.32593979500234,423.7197211254388,"[57, 0, 197]",197,l,0.8704089382663369,colour,0.5
039,80,0,2,5,43,243,424.2321828044951,425.32791926478967,"[73, 0, 181]",181,l,0.5724424435757101,colour,0.5
039,80,0,2,5,44,244,425.84157587215304,426.9037019154057,"[54, 0, 200]",200,a,0.5388623527251184,colour,0.5
039,80,0,2,5,45,245,427.4197661029175,428.5037419302389,"[2, 0, 252]",252,a,0.5588496392592788,colour,0.5
039,80,0,2,5,46,246,429.01546002784744,430.31167666520923,"[7, 0, 247]",247,a,0.773007691372186,colour,0.5
039,80,0,2,5,47,247,430.81970403250307,431.8637060741894,"[30, 0, 224]",224,a,0.5208175135776401,colour,0.5
039,80,0,2,5,48,248,432.38206244492903,433.3196941865608,"[5, 0, 249]",249,a,0.4143081861548126,colour,0.5
039,80,0,2,5,49,249,433.83521565422416,434.82371968543157,"[43, 0, 211]",211,a,0.46557195857167244,colour,0.5
039,80,0,2,5,50,250,435.33522668201476,436.3917175778188,"[36, 0, 218]",218,a,0.5449543613940477,colour,0.5
039,80,0,2,6,1,251,465.2155908634886,466.0236496599391,"[1, 0, 253]",253,a,0.2839865400455892,colour,0.5
039,80,0,2,6,2,252,466.54470151197165,467.50371002871543,"[68, 0, 186]",186,l,0.43623713310807943,colour,0.5
039,80,0,2,6,3,253,468.0133466506377,468.95173142524436,"[46, 0, 208]",208,a,0.4151888252235949,colour,0.5
039,80,0,2,6,4,254,469.4663978535682,470.5197178958915,"[28, 0, 226]",226,a,0.5299901855178177,colour,0.5
039,80,0,2,6,5,255,471.02883385354653,471.91168911056593,"[63, 0, 191]",191,l,0.359520279802382,colour,0.5
039,80,0,2,6,6,256,472.41954909358174,473.39166598394513,"[48, 0, 206]",206,l,0.4467961420305073,colour,0.5
039,80,0,2,6,7,257,473.9060118217021,474.83970589144155,"[92, 0, 162]",162,l,0.4106206065043807,colour,0.5
039,80,0,2,6,8,258,475.35911579988897,476.3436695570126,"[89, 0, 165]",165,l,0.4613176351413131,colour,0.5
039,80,0,2,6,9,259,476.8591004400514,477.87187798321247,"[72, 0, 182]",182,l,0.4898887937888503,colour,0.5
039,80,0,2,6,10,260,478.39032611995935,479.39973588706926,"[36, 0, 218]",218,a,0.48612835304811597,colour,0.5
039,80,0,2,6,11,261,479.9058393170126,481.03967997664586,"[61, 0, 193]",193,a,0.610593116376549,colour,0.5
039,80,0,2,6,12,262,481.54668058780953,482.49588155327365,"[75, 0, 179]",179,l,0.43839422753080726,colour,0.5
039,80,0,2,6,13,263,483.0029286383651,484.0076878722757,"[18, 0, 236]",236,a,0.48521029809489846,colour,0.5
039,80,0,2,6,14,264,484.5147822187282,485.49572086380795,"[99, 0, 155]",155,l,0.4576371447183192,colour,0.5
039,80,0,2,6,15,265,486.0148204220459,486.98369989870116,"[31, 0, 223]",223,a,0.4456658042035997,colour,0.5
039,80,0,2,6,16,266,487.4869743338786,488.38368942262605,"[78, 0, 176]",176,l,0.37160386657342315,colour,0.5
039,80,0,2,6,17,267,488.89531851094216,489.8716471893713,"[4, 0, 250]",250,a,0.45294840913265944,colour,0.5
039,80,0,2,6,18,268,490.3796958248131,491.73564431630075,"[49, 0, 205]",205,a,0.8327761730179191,colour,0.5
039,80,0,2,6,19,269,492.25477538164705,493.0396685549058,"[67, 0, 187]",187,l,0.2617870206013322,colour,0.5
039,80,0,2,6,20,270,493.551626898814,494.31970678968355,"[57, 0, 197]",197,l,0.24484101263806224,colour,0.5
039,80,0,2,6,21,271,494.8328947201371,495.7516931435093,"[9, 0, 245]",245,a,0.3955311877653003,colour,0.5
039,80,0,2,6,22,272,496.2708289353177,496.991650860291,"[93, 0, 161]",161,l,0.19755547726526856,colour,0.5
039,80,0,2,6,23,273,497.50518734473735,498.33587928442284,"[27, 0, 227]",227,a,0.3075018981471658,colour,0.5
039,80,0,2,6,24,274,498.84897348005325,499.83165686251596,"[20, 0, 234]",234,a,0.4597261040471494,colour,0.5
039,80,0,2,6,25,275,500.34891125233844,501.21565033402294,"[76, 0, 178]",178,l,0.34405001206323504,colour,0.5
039,80,0,2,6,26,276,501.724001836963,502.4237175588496,"[22, 0, 232]",232,a,0.17712905211374164,colour,0.5
039,80,0,2,6,27,277,502.9449194665067,503.63165284506977,"[74, 0, 180]",180,l,0.1634826846420765,colour,0.5
039,80,0,2,6,28,278,504.14807267533615,504.9356566038914,"[2, 0, 252]",252,a,0.26443012058734894,colour,0.5
039,80,0,2,6,29,279,505.4324932335876,506.37566008558497,"[24, 0, 230]",230,a,0.4182352237403393,colour,0.5
039,80,0,2,6,30,280,506.88724545715377,507.6316619035788,"[91, 0, 163]",163,l,0.22153990576043725,colour,0.5
039,80,0,2,6,31,281,508.15289295557886,508.9436162300408,"[16, 0, 238]",238,a,0.2674328018911183,colour,0.5
039,80,0,2,6,32,282,509.4497436848469,510.21567042032257,"[60, 0, 194]",194,a,0.24260633066296577,colour,0.5
039,80,0,2,6,33,283,510.7309894510545,511.6236707698554,"[34, 0, 220]",220,a,0.3693065633997321,colour,0.5
039,80,0,2,6,34,284,512.1372352172621,513.0796419465914,"[12, 0, 242]",242,a,0.41915249079465866,colour,0.5
039,80,0,2,6,35,285,513.5920796007849,514.5436109527946,"[70, 0, 184]",184,l,0.44096682872623205,colour,0.5
039,80,0,2,6,36,286,515.0641051190905,515.759680732619,"[35, 0, 219]",219,a,0.17229301808401942,colour,0.5
039,80,0,2,6,37,287,516.2672898359597,517.2556477505714,"[15, 0, 239]",239,a,0.4652072577737272,colour,0.5
039,80,0,2,6,38,288,517.7672185497358,518.3836791822687,"[94, 0, 160]",160,l,0.09625515528023243,colour,0.5
039,80,0,2,6,39,289,518.8917876821943,519.5999860577285,"[73, 0, 181]",181,l,0.18495437689125538,colour,0.5
039,80,0,2,6,40,290,520.1104828394018,520.8556743743829,"[79, 0, 175]",175,l,0.22186207212507725,colour,0.5
039,80,0,2,6,41,291,521.3761681467295,522.2636377024464,"[41, 0, 213]",213,l,0.3641641167923808,colour,0.5
039,80,0,2,6,42,292,522.7823059991933,523.575637715403,"[64, 0, 190]",190,l,0.27125035086646676,colour,0.5
039,80,0,2,6,43,293,524.0935714892112,524.9436213499866,"[86, 0, 168]",168,l,0.32673733308911324,colour,0.5
039,80,0,2,6,44,294,525.4530137875117,526.2156432447955,"[19, 0, 235]",235,a,0.23946540942415595,colour,0.5
039,80,0,2,6,45,295,526.734168575611,527.487614333164,"[83, 0, 171]",171,l,0.23017773451283574,colour,0.5
039,80,0,2,6,46,296,527.9998373417184,528.8876203987747,"[8, 0, 246]",246,a,0.3645878955721855,colour,0.5
039,80,0,2,6,47,297,529.4060212736949,530.4316697018221,"[42, 0, 212]",212,a,0.5025253398343921,colour,0.5
039,80,0,2,6,48,298,530.9529086309485,531.671656169463,"[90, 0, 164]",164,l,0.1955094477161765,colour,0.5
039,80,0,2,6,49,299,532.1872378955595,533.0636785840616,"[65, 0, 189]",189,l,0.3531923578120768,colour,0.5
039,80,0,2,6,50,300,533.5810018968768,534.3118117540143,"[0, 0, 254]",254,a,0.20752765564247966,colour,0.5
039,80,0,2,7,1,301,541.945682739839,542.8316186591983,"[76, 0, 178]",178,l,0.3619637000374496,colour,0.5
039,80,0,2,7,2,302,543.3383581507951,543.9596938085742,"[0, 0, 254]",254,a,0.0981889390386641,colour,0.5
039,80,0,2,7,3,303,544.4788733171299,545.1436119764112,"[61, 0, 193]",193,l,0.1413312149234116,colour,0.5
039,80,0,2,7,4,304,545.6508969445713,546.3276605079882,"[57, 0, 197]",197,l,0.15351917082443833,colour,0.5
039,80,0,2,7,5,305,546.8383750859648,547.5116188484244,"[64, 0, 190]",190,l,0.1622783043421805,colour,0.5
039,80,0,2,7,6,306,548.0290528321639,548.7517140172422,"[79, 0, 175]",175,l,0.19961686665192246,colour,0.5
039,80,0,2,7,7,307,549.2636731485836,549.9596177958883,"[47, 0, 207]",207,a,0.17288299929350615,colour,0.5
039,80,0,2,7,8,308,550.4666054104455,551.1996668851934,"[92, 0, 162]",162,l,0.20974422106519341,colour,0.5
039,80,0,2,7,9,309,551.7176439822651,552.2876367038116,"[48, 0, 206]",206,a,0.046826704405248165,colour,0.5
039,80,0,2,7,10,310,552.7957755299285,553.5677155046724,"[21, 0, 233]",233,a,0.24946830794215202,colour,0.5
039,80,0,2,7,11,311,554.0769988466054,554.72765436396,"[5, 0, 249]",249,a,0.1272839126177132,colour,0.5
039,80,0,2,7,12,312,555.2489866344258,556.2317420905456,"[95, 0, 159]",159,l,0.4596327622421086,colour,0.5
039,80,0,2,7,13,313,556.7489149542525,557.3756596916355,"[58, 0, 196]",196,a,0.10350822191685438,colour,0.5
039,80,0,2,7,14,314,557.8895073146559,558.6155760549009,"[52, 0, 202]",202,a,0.20306892646476626,colour,0.5
039,80,0,2,7,15,315,559.1239070775919,559.9356920500286,"[67, 0, 187]",187,l,0.288631952367723,colour,0.5
039,80,0,2,7,16,316,560.4429191229865,561.4236049191095,"[42, 0, 212]",212,a,0.4574685790576041,colour,0.5
039,80,0,2,7,17,317,561.9448710232973,562.6396152283996,"[98, 0, 156]",156,l,0.17176250787451863,colour,0.5
039,80,0,2,7,18,318,563.140820002649,563.9916032049805,"[37, 0, 217]",217,a,0.32749588042497635,colour,0.5
039,80,0,2,7,19,319,564.4949394734576,565.0956443003379,"[32, 0, 222]",222,a,0.0775155727751553,colour,0.5
039,80,0,2,7,20,320,565.6042321105488,566.6876703384332,"[53, 0, 201]",201,a,0.5602403092198074,colour,0.5
039,80,0,2,7,21,321,567.1979698031209,567.9356562104076,"[97, 0, 157]",157,l,0.21437230426818132,colour,0.5
039,80,0,2,7,22,322,568.4355711396784,569.1516172885895,"[49, 0, 205]",205,a,0.1928005749359727,colour,0.5
039,80,0,2,7,23,323,569.6707247234881,570.4476409414783,"[38, 0, 216]",216,a,0.25363952992483974,colour,0.5
039,80,0,2,7,24,324,570.9676262591965,571.8396192453802,"[19, 0, 235]",235,a,0.3487919168546796,colour,0.5
039,80,0,2,7,25,325,572.3581890808418,573.0076256445609,"[62, 0, 192]",192,l,0.12645959295332432,colour,0.5
039,80,0,2,7,26,326,573.5144891976379,574.1756383455358,"[30, 0, 224]",224,a,0.13796895230188966,colour,0.5
039,80,0,2,7,27,327,574.6872461661696,575.3756214887835,"[56, 0, 198]",198,l,0.17829365469515324,colour,0.5
039,80,0,2,7,28,328,575.8803287353367,576.6156028360128,"[87, 0, 167]",167,l,0.21277683414518833,colour,0.5
039,80,0,2,7,29,329,577.1303251907229,577.9435985069722,"[34, 0, 220]",220,a,0.3025004486553371,colour,0.5
039,80,0,2,7,30,330,578.4523970251903,579.1356184799224,"[81, 0, 173]",173,l,0.16001487197354436,colour,0.5
039,80,0,2,7,31,331,579.6429542540573,580.4636074551381,"[43, 0, 211]",211,a,0.2973871473222971,colour,0.5
039,80,0,2,7,32,332,580.9710987983271,581.6476437775418,"[70, 0, 184]",184,l,0.15337384212762117,colour,0.5
039,80,0,2,7,33,333,582.1605186006054,582.8716330109164,"[2, 0, 252]",252,a,0.18789601186290383,colour,0.5
039,80,0,2,7,34,334,583.3791980035603,584.0636415621266,"[4, 0, 250]",250,a,0.16106250137090683,colour,0.5
039,80,0,2,7,35,335,584.5823839018121,585.25594195351,"[83, 0, 171]",171,l,0.1502821515314281,colour,0.5
039,80,0,2,7,36,336,585.7698703142814,586.4636255721562,"[45, 0, 209]",209,a,0.1708539053797722,colour,0.5
039,80,0,2,7,37,337,586.9729585391469,587.7116713086143,"[10, 0, 244]",244,a,0.21552430326119065,colour,0.5
039,80,0,2,7,38,338,588.2229152158834,588.9196085641161,"[85, 0, 169]",169,l,0.1734985802322626,colour,0.5
039,80,0,2,7,39,339,589.4261278957129,590.5196907203645,"[41, 0, 213]",213,a,0.5685705440118909,colour,0.5
039,80,0,2,7,40,340,591.0373042980209,591.6955700996332,"[84, 0, 170]",170,l,0.13493200624361634,colour,0.5
039,80,0,2,7,41,341,592.2091290331446,592.8956178338267,"[46, 0, 208]",208,a,0.1633050604723394,colour,0.5
039,80,0,2,7,42,342,593.412190082483,594.1358016179875,"[15, 0, 239]",239,a,0.19835892273113132,colour,0.5
039,80,0,2,7,43,343,594.6488985703327,595.4317984892987,"[59, 0, 195]",195,l,0.25969806173816323,colour,0.5
039,80,0,2,7,44,344,595.933390414808,596.463605879806,"[29, 0, 225]",225,a,0.007736315485090017,colour,0.5
039,80,0,2,7,45,345,596.9957882114686,597.6795752290636,"[8, 0, 246]",246,a,0.16050796676427126,colour,0.5
039,80,0,2,7,46,346,598.1989366947673,598.9036121182144,"[11, 0, 243]",243,a,0.18140306789427996,colour,0.5
039,80,0,2,7,47,347,599.4176944731735,600.1836129375733,"[6, 0, 248]",248,a,0.24265949986875057,colour,0.5
039,80,0,2,7,48,348,600.6988079072908,601.3675953028724,"[96, 0, 158]",158,l,0.1453984617255628,colour,0.5
039,80,0,2,7,49,349,601.8863809653558,602.5116594145074,"[89, 0, 165]",165,l,0.10197891807183623,colour,0.5
039,80,0,2,7,50,350,603.0162867102772,603.6876124427654,"[75, 0, 179]",179,l,0.14811757393181324,colour,0.5
039,80,0,2,8,1,351,608.1296729817986,608.8555715805851,"[49, 0, 205]",205,l,0.20177199132740498,colour,0.5
039,80,0,2,8,2,352,609.3694739476778,610.39157579327,"[84, 0, 170]",170,l,0.49880428379401565,colour,0.5
039,80,0,2,8,3,353,610.8929160507396,611.4796275319532,"[52, 0, 202]",202,a,0.06346827000379562,colour,0.5
039,80,0,2,8,4,354,611.974291707389,612.6315677743405,"[29, 0, 225]",225,a,0.1347142094746232,colour,0.5
039,80,0,2,8,5,355,613.1461325907148,613.9355916194618,"[32, 0, 222]",222,a,0.2661606795154512,colour,0.5
039,80,0,2,8,6,356,614.4430160089396,615.0556118316017,"[23, 0, 231]",231,a,0.0892663593403995,colour,0.5
039,80,0,2,8,7,357,615.5680045876652,616.2476774905808,"[93, 0, 161]",161,l,0.1563666770234704,colour,0.5
039,80,0,2,8,8,358,616.7573527093045,617.4715722012334,"[37, 0, 217]",217,a,0.19094556104391813,colour,0.5
039,80,0,2,8,9,359,617.9917221465148,619.071610246785,"[18, 0, 236]",236,a,0.5568173942156136,colour,0.5
039,80,0,2,8,10,360,619.5730670830235,620.191607221961,"[74, 0, 180]",180,l,0.0954119311645627,colour,0.5
039,80,0,2,8,11,361,620.6981324614026,621.3197658662684,"[87, 0, 167]",167,l,0.09871905529871583,colour,0.5
039,80,0,2,8,12,362,621.8387669627555,622.4556698845699,"[96, 0, 158]",158,l,0.09383457852527499,colour,0.5
039,80,0,2,8,13,363,622.96369685838,623.663565392606,"[78, 0, 176]",176,l,0.17660641903057694,colour,0.5
039,80,0,2,8,14,364,624.1823368766345,624.8236086210236,"[76, 0, 178]",178,l,0.11786981346085668,colour,0.5
039,80,0,2,8,15,365,625.3388240705244,626.023581918329,"[90, 0, 164]",164,l,0.1617966308258474,colour,0.5
039,80,0,2,8,16,366,626.5418811812997,627.295564034488,"[40, 0, 214]",214,a,0.23053062055259943,colour,0.5
039,80,0,2,8,17,367,627.8073805938475,628.4315995974466,"[12, 0, 242]",242,a,0.09765449026599526,colour,0.5
039,80,0,2,8,18,368,628.9512848039158,629.6875746338628,"[67, 0, 187]",187,l,0.2130348035134375,colour,0.5
039,80,0,2,8,19,369,630.2012993763201,630.8315757303499,"[38, 0, 216]",216,a,0.10699809063225985,colour,0.5
039,80,0,2,8,20,370,631.3419870473444,632.2876024390571,"[66, 0, 188]",188,l,0.42277666088193655,colour,0.5
039,80,0,2,8,21,371,632.782625014428,633.3916065134108,"[13, 0, 241]",241,a,0.08798951143398881,colour,0.5
039,80,0,2,8,22,372,633.892932198476,634.5755802136846,"[4, 0, 250]",250,a,0.15940716722980142,colour,0.5
039,80,0,2,8,23,373,635.0960310571827,636.0235697091557,"[51, 0, 203]",203,l,0.4042332135140896,colour,0.5
039,80,0,2,8,24,374,636.5335288909264,637.1915753204376,"[2, 0, 252]",252,a,0.13483157567679882,colour,0.5
039,80,0,2,8,25,375,637.7072543269023,638.7035462674685,"[62, 0, 192]",192,l,0.47710731206461787,colour,0.5
039,80,0,2,8,26,376,639.2188215814531,640.2395489043556,"[53, 0, 201]",201,l,0.4974636319093406,colour,0.5
039,80,0,2,8,27,377,640.7500622277148,641.359610076528,"[11, 0, 243]",243,a,0.08624949958175421,colour,0.5
039,80,0,2,8,28,378,641.8750236304477,642.5755904535763,"[92, 0, 162]",162,l,0.1773464549332857,colour,0.5
039,80,0,2,8,29,379,643.0834015998989,643.7195895807818,"[94, 0, 160]",160,l,0.112850246950984,colour,0.5
039,80,0,2,8,30,380,644.2396615445614,644.9036014843732,"[24, 0, 230]",230,a,0.14087632251903415,colour,0.5
039,80,0,2,8,31,381,645.4133688635193,646.0476029748097,"[99, 0, 155]",155,l,0.11105155292898417,colour,0.5
039,80,0,2,8,32,382,646.5539576788433,647.1999146142043,"[6, 0, 248]",248,a,0.12270033359527588,colour,0.5
039,80,0,2,8,33,383,647.7102404665202,648.3755844673142,"[7, 0, 247]",247,a,0.14190819906070828,colour,0.5
039,80,0,2,8,34,384,648.882094740402,649.5516083878465,"[9, 0, 245]",245,a,0.14623459661379457,colour,0.5
039,80,0,2,8,35,385,650.0695736696944,650.8797824708745,"[48, 0, 206]",206,a,0.2869348702952266,colour,0.5
039,80,0,2,8,36,386,651.3977268789895,652.119583830703,"[80, 0, 174]",174,l,0.19850346399471164,colour,0.5
039,80,0,2,8,37,387,652.6321360943839,653.2635719305836,"[72, 0, 182]",182,l,0.10819420078769326,colour,0.5
039,80,0,2,8,38,388,653.7727808356285,654.5276015098207,"[17, 0, 237]",237,a,0.2319071120582521,colour,0.5
039,80,0,2,8,39,389,655.0383830419742,655.623545920942,"[28, 0, 226]",226,a,0.06276328628882766,colour,0.5
039,80,0,2,8,40,390,656.1320277866907,656.8316127518192,"[16, 0, 238]",238,a,0.17623344669118524,colour,0.5
039,80,0,2,8,41,391,657.3508265251294,658.4236277621239,"[44, 0, 210]",210,a,0.5495670847594738,colour,0.5
039,80,0,2,8,42,392,658.9446292016655,659.72765436396,"[55, 0, 199]",199,l,0.2583593796007335,colour,0.5
039,80,0,2,8,43,393,660.2429694565944,660.9115800154395,"[56, 0, 198]",198,l,0.1448352625593543,colour,0.5
039,80,0,2,8,44,394,661.430421997793,662.2395752924494,"[14, 0, 240]",240,a,0.28591165877878666,colour,0.5
039,80,0,2,8,45,395,662.7604282521643,663.4156126035377,"[54, 0, 200]",200,l,0.13185173738747835,colour,0.5
039,80,0,2,8,46,396,663.9322332954034,664.7276055268012,"[98, 0, 156]",156,l,0.27238265750929713,colour,0.5
039,80,0,2,8,47,397,665.2447334923781,665.8716759402305,"[79, 0, 175]",175,l,0.1037342892959714,colour,0.5
039,80,0,2,8,48,398,666.3853557845578,666.9915468851104,"[33, 0, 221]",221,a,0.08297506486997008,colour,0.5
039,80,0,2,8,49,399,667.5104254954495,668.1115544941276,"[10, 0, 244]",244,a,0.07775542512536049,colour,0.5
039,80,0,2,8,50,400,668.6228440874256,669.2635892597027,"[75, 0, 179]",179,l,0.11752992449328303,colour,0.5
039,80,0,2,9,1,401,714.0709308627993,715.4395521339029,"[33, 0, 221]",221,a,0.8446931624785066,colour,0.5
039,80,0,2,9,2,402,715.9467886588536,716.5755510693416,"[96, 0, 158]",158,l,0.10563617153093219,colour,0.5
039,80,0,2,9,3,403,717.0873487237841,717.6635772078298,"[71, 0, 183]",183,a,0.05340117448940873,colour,0.5
039,80,0,2,9,4,404,718.1835948205553,718.9435524269938,"[52, 0, 202]",202,a,0.23670730600133538,colour,0.5
039,80,0,2,9,5,405,719.4647681191564,720.0635553100146,"[37, 0, 217]",217,a,0.07552861981093884,colour,0.5
039,80,0,2,9,6,406,720.5741643374786,721.2076808619313,"[20, 0, 234]",234,a,0.10845689615234733,colour,0.5
039,80,0,2,9,7,407,721.716137915384,722.3275419604033,"[16, 0, 238]",238,a,0.08813641592860222,colour,0.5
039,80,0,2,9,8,408,722.841158001218,723.39151632227,"[85, 0, 169]",169,l,0.027193091344088316,colour,0.5
039,80,0,2,9,9,409,723.9036105428822,725.0075527830049,"[13, 0, 241]",241,a,0.5806887890212238,colour,0.5
039,80,0,2,9,10,410,725.5286148753949,726.2395146400668,"[30, 0, 224]",224,a,0.18754706485196948,colour,0.5
039,80,0,2,9,11,411,726.7472824631259,727.3835385795683,"[40, 0, 214]",214,a,0.11295225331559777,colour,0.5
039,80,0,2,9,12,412,727.9035813985392,728.5514981108718,"[43, 0, 211]",211,a,0.12256051832810044,colour,0.5
039,80,0,2,9,13,413,729.0620571202599,729.6634846539237,"[84, 0, 170]",170,l,0.07813587971031666,colour,0.5
039,80,0,2,9,14,414,730.1714525511488,730.7915204185992,"[57, 0, 197]",197,l,0.09690933348610997,colour,0.5
039,80,0,2,9,15,415,731.312011434231,732.0715275392868,"[1, 0, 253]",253,a,0.23622287577018142,colour,0.5
039,80,0,2,9,16,416,732.5777010740712,733.2475112876855,"[2, 0, 252]",252,a,0.14655479369685054,colour,0.5
039,80,0,2,9,17,417,733.7652406557463,734.4075564853847,"[51, 0, 203]",203,l,0.11909349262714386,colour,0.5
039,80,0,2,9,18,418,734.9215218676254,735.503527677618,"[42, 0, 212]",212,l,0.05880592204630375,colour,0.5
039,80,0,2,9,19,419,736.0152382925153,737.1435095765628,"[10, 0, 244]",244,a,0.6050213780254126,colour,0.5
039,80,0,2,9,20,420,737.6629529623315,738.3916155714542,"[47, 0, 207]",207,a,0.20537056168541312,colour,0.5
039,80,0,2,9,21,421,738.9130289745517,739.6715632216074,"[62, 0, 192]",192,l,0.2352733132429421,colour,0.5
039,80,0,2,9,22,422,740.1786240912043,740.8875412354246,"[74, 0, 180]",180,l,0.18553963163867593,colour,0.5
039,80,0,2,9,23,423,741.3849902953953,742.0234980289824,"[82, 0, 172]",172,l,0.11527515621855855,colour,0.5
039,80,0,2,9,24,424,742.5411962834187,743.1275619678199,"[9, 0, 245]",245,a,0.061905883718281984,colour,0.5
039,80,0,2,9,25,425,743.6363600916229,744.1755182221532,"[3, 0, 251]",251,a,0.015929885674268007,colour,0.5
039,80,0,2,9,26,426,744.6832143655047,745.3514716443606,"[94, 0, 160]",160,a,0.1449868925847113,colour,0.5
039,80,0,2,9,27,427,745.8707055039704,747.9518346129917,"[26, 0, 228]",228,a,1.5578760518692434,colour,0.5
039,80,0,2,9,28,428,748.4657677002251,749.3354929215275,"[66, 0, 188]",188,l,0.3464083611033857,colour,0.5
039,80,0,2,9,29,429,749.8555337712169,750.5755593399517,"[78, 0, 176]",176,a,0.196893815882504,colour,0.5
039,80,0,2,9,30,430,751.0899126604199,752.6235278039239,"[6, 0, 248]",248,a,1.0103329415433109,colour,0.5
039,80,0,2,9,31,431,753.1389783793129,753.8315052315593,"[34, 0, 220]",220,a,0.1694833212532103,colour,0.5
039,80,0,2,9,32,432,754.3420736934058,755.0794938607141,"[59, 0, 195]",195,l,0.21172487176954746,colour,0.5
039,80,0,2,9,33,433,755.5946210888214,756.2394858892076,"[56, 0, 198]",198,l,0.12194769410416484,colour,0.5
039,80,0,2,9,34,434,756.7509397161193,757.4154897239059,"[92, 0, 162]",162,l,0.1414060457609594,colour,0.5
039,80,0,2,9,35,435,757.9227514546365,758.6555301481858,"[58, 0, 196]",196,a,0.2109623863361776,colour,0.5
039,80,0,2,9,36,436,759.1712847724557,760.0795092205517,"[17, 0, 237]",237,a,0.3849213724024594,colour,0.5
039,80,0,2,9,37,437,760.5932587757707,761.2795152072795,"[98, 0, 156]",156,l,0.16304354695603251,colour,0.5
039,80,0,2,9,38,438,761.796330852434,762.5194646529853,"[63, 0, 191]",191,l,0.20001622661948204,colour,0.5
039,80,0,2,9,39,439,763.0307711819187,764.1195728029124,"[39, 0, 215]",215,a,0.5656726257875562,colour,0.5
039,80,0,2,9,40,440,764.6400906001218,765.32751832949,"[87, 0, 167]",167,l,0.16420539235696197,colour,0.5
039,80,0,2,9,41,441,765.8432390834205,766.5434841341339,"[80, 0, 174]",174,l,0.1769486707635224,colour,0.5
039,80,0,2,9,42,442,767.0619200617075,767.8397090421058,"[69, 0, 185]",185,l,0.25456073554232717,colour,0.5
039,80,0,2,9,43,443,768.3587837880477,769.0875007482246,"[65, 0, 189]",189,l,0.2053437801077962,colour,0.5
039,80,0,2,9,44,444,769.6088215969503,770.4155657361262,"[19, 0, 235]",235,l,0.2839778754860163,colour,0.5
039,80,0,2,9,45,445,770.9367361357436,771.6475910018198,"[49, 0, 205]",205,l,0.18767073191702366,colour,0.5
039,80,0,2,9,46,446,772.1573544424027,772.8876798693091,"[29, 0, 225]",225,a,0.2070172317326069,colour,0.5
039,80,0,2,9,47,447,773.4071748484857,774.1755288559943,"[68, 0, 186]",186,l,0.24508637795224786,colour,0.5
039,80,0,2,9,48,448,774.6885348302312,775.5915979272686,"[23, 0, 231]",231,l,0.3808367964811623,colour,0.5
039,80,0,2,9,49,449,776.1103560207412,777.1035105851479,"[11, 0, 243]",243,a,0.47042729146778584,colour,0.5
039,80,0,2,9,50,450,777.6104544824921,778.2555544087663,"[81, 0, 173]",173,l,0.12100128224119544,colour,0.5
039,80,0,2,10,1,451,782.3325441973284,782.9595394209027,"[84, 0, 170]",170,l,0.11335436999797821,colour,0.5
039,80,0,2,10,2,452,783.4796755812131,784.2796227270737,"[54, 0, 200]",200,l,0.27686462411656976,colour,0.5
039,80,0,2,10,3,453,784.7945030136034,785.3676019981503,"[13, 0, 241]",241,a,0.0499605368822813,colour,0.5
039,80,0,2,10,4,454,785.8881631181575,786.5194772561081,"[80, 0, 174]",174,l,0.10836197901517153,colour,0.5
039,80,0,2,10,5,455,787.0163213685155,787.6716435663402,"[60, 0, 194]",194,l,0.13286234624683857,colour,0.5
039,80,0,2,10,6,456,788.1838468820788,788.9035132629797,"[57, 0, 197]",197,l,0.1969524989835918,colour,0.5
039,80,0,2,10,7,457,789.41825215891,790.135507021565,"[69, 0, 185]",185,l,0.19390885811299086,colour,0.5
039,80,0,2,10,8,458,790.6525361314416,791.2474959273823,"[43, 0, 211]",211,a,0.07242944650352001,colour,0.5
039,80,0,2,10,9,459,791.7620898880996,792.3755080611445,"[90, 0, 164]",164,l,0.09100637072697282,colour,0.5
039,80,0,2,10,10,460,792.8868831191212,793.5596298477612,"[75, 0, 179]",179,l,0.15015375753864646,colour,0.5
039,80,0,2,10,11,461,794.0744116730057,794.6875970829278,"[81, 0, 173]",173,l,0.09032659279182553,colour,0.5
039,80,0,2,10,12,462,795.1994018265978,795.8474611113779,"[11, 0, 243]",243,a,0.12548049166798592,colour,0.5
039,80,0,2,10,13,463,796.355699186679,796.9755075098947,"[78, 0, 176]",176,l,0.09654778288677335,colour,0.5
039,80,0,2,10,14,464,797.4964069435373,798.0715755885467,"[64, 0, 190]",190,l,0.052571735344827175,colour,0.5
039,80,0,2,10,15,465,798.5913576814346,799.2314939675853,"[12, 0, 242]",242,a,0.11716207209974527,colour,0.5
039,80,0,2,10,16,466,799.7474640258588,800.3755112118088,"[9, 0, 245]",245,a,0.10524902073666453,colour,0.5
039,80,0,2,10,17,467,800.888270244468,801.5595751032233,"[71, 0, 183]",183,l,0.14819988794624805,colour,0.5
039,80,0,2,10,18,468,802.0755754876882,802.6796744782478,"[91, 0, 163]",163,l,0.07662941934540868,colour,0.5
039,80,0,2,10,19,469,803.1861083451658,803.8475060099736,"[31, 0, 223]",223,a,0.13850852102041245,colour,0.5
039,80,0,2,10,20,470,804.3579425332136,805.0555811119266,"[62, 0, 192]",192,l,0.17516100453212857,colour,0.5
039,80,0,2,10,21,471,805.5611898712814,806.3594934982248,"[39, 0, 215]",215,a,0.27600879687815905,colour,0.5
039,80,0,2,10,22,472,806.8736743144691,807.5435302141123,"[89, 0, 165]",165,l,0.14624523045495152,colour,0.5
039,80,0,2,10,23,473,808.0612127142958,808.7275539333932,"[20, 0, 234]",234,a,0.14359346637502313,colour,0.5
039,80,0,2,10,24,474,809.2485329238698,809.951454157941,"[10, 0, 244]",244,a,0.17956420173868537,colour,0.5
039,80,0,2,10,25,475,810.4674092498608,811.1114934477955,"[25, 0, 229]",229,a,0.12084019929170609,colour,0.5
039,80,0,2,10,26,476,811.6133827269077,812.3434875998646,"[44, 0, 210]",210,a,0.20689553301781416,colour,0.5
039,80,0,2,10,27,477,812.8634118712507,813.5034800223075,"[99, 0, 155]",155,l,0.12116315308958292,colour,0.5
039,80,0,2,10,28,478,814.0154174924828,814.5914998599328,"[95, 0, 159]",159,l,0.05327317491173744,colour,0.5
039,80,0,2,10,29,479,815.1090260031633,815.7754932525568,"[19, 0, 235]",235,a,0.14318741066381335,colour,0.5
039,80,0,2,10,30,480,816.2966727106832,817.023499998264,"[48, 0, 206]",206,l,0.20391608867794275,colour,0.5
039,80,0,2,10,31,481,817.530910209287,818.7915727999061,"[51, 0, 203]",203,a,0.7374938167631626,colour,0.5
039,80,0,2,10,32,482,819.2868844582699,820.0558808282949,"[7, 0, 247]",247,a,0.2451773565262556,colour,0.5
039,80,0,2,10,33,483,820.5679285749793,821.2877016882412,"[83, 0, 171]",171,l,0.19643025938421488,colour,0.5
039,80,0,2,10,34,484,821.7898182165809,822.4235556880012,"[79, 0, 175]",175,l,0.11050765169784427,colour,0.5
039,80,0,2,10,35,485,822.9306842992082,823.7436768035404,"[27, 0, 227]",227,l,0.28871387243270874,colour,0.5
039,80,0,2,10,36,486,824.258491711691,824.9755819467828,"[15, 0, 239]",239,a,0.19292109226807952,colour,0.5
039,80,0,2,10,37,487,825.4928548471071,826.1675664731301,"[0, 0, 254]",254,a,0.1636949679814279,colour,0.5
039,80,0,2,10,38,488,826.6837299098261,827.415457428433,"[16, 0, 238]",238,a,0.2086229412816465,colour,0.5
039,80,0,2,10,39,489,827.9235942852683,828.7514627436176,"[30, 0, 224]",224,a,0.31248207995668054,colour,0.5
039,80,0,2,10,40,490,829.259851268027,829.9674848681316,"[34, 0, 220]",220,a,0.184252149425447,colour,0.5
039,80,0,2,10,41,491,830.4785602092743,831.1914717392065,"[53, 0, 201]",201,a,0.18992274347692728,colour,0.5
039,80,0,2,10,42,492,831.7129950248636,832.519450080581,"[23, 0, 231]",231,a,0.28309290343895555,colour,0.5
039,80,0,2,10,43,493,833.025535393972,833.8634382588789,"[14, 0, 240]",240,a,0.31459545716643333,colour,0.5
039,80,0,2,10,44,494,834.3691667481326,835.0314828613773,"[97, 0, 157]",157,l,0.13890985026955605,colour,0.5
039,80,0,2,10,45,495,835.5410986095667,836.1434749183245,"[76, 0, 178]",178,l,0.07907795952633023,colour,0.5
039,80,0,2,10,46,496,836.6505082189105,837.4074942576699,"[24, 0, 230]",230,l,0.23373455740511417,colour,0.5
039,80,0,2,10,47,497,837.9161005788483,838.7194686704315,"[6, 0, 248]",248,a,0.2800618656910956,colour,0.5
039,80,0,2,10,48,498,839.2285850215703,839.9594645900652,"[74, 0, 180]",180,l,0.20760484971106052,colour,0.5
039,80,0,2,10,49,499,840.4785602092743,841.1115088080987,"[45, 0, 209]",209,a,0.10979400295764208,colour,0.5
039,80,0,2,10,50,500,841.6194038433023,842.3434718460776,"[59, 0, 195]",195,l,0.2009271918796003,colour,0.5
039,80,0,2,11,1,501,846.8736278405413,848.063587999437,"[50, 0, 204]",204,a,0.6659414651803672,colour,0.5
039,80,0,2,11,2,502,848.5751379248686,849.2001643124968,"[1, 0, 253]",253,a,0.09816136956214905,colour,0.5
039,80,0,2,11,3,503,849.7158259893768,850.5036422871053,"[57, 0, 197]",197,l,0.2640780224464834,colour,0.5
039,80,0,2,11,4,504,851.0127787245438,853.3354826816358,"[76, 0, 178]",178,l,1.7996237981133163,colour,0.5
039,80,0,2,11,5,505,853.8563927495852,854.631432291586,"[73, 0, 181]",181,l,0.2517140177078545,colour,0.5
039,80,0,2,11,6,506,855.1378362262622,856.1515215840191,"[6, 0, 248]",248,a,0.4918595985509455,colour,0.5
039,80,0,2,11,7,507,856.6682643680833,857.5836048242636,"[39, 0, 215]",215,a,0.3924371344037354,colour,0.5
039,80,0,2,11,8,508,858.090273423586,858.7194611872546,"[0, 0, 254]",254,l,0.10483351349830627,colour,0.5
039,80,0,2,11,9,509,859.2323698811233,860.2635943796486,"[69, 0, 185]",185,l,0.5070336945354939,colour,0.5
039,80,0,2,11,10,510,860.779038653709,861.4635653137229,"[91, 0, 163]",163,l,0.16123382467776537,colour,0.5
039,80,0,2,11,11,511,861.9819626444951,862.6476146327332,"[93, 0, 161]",161,l,0.14265611255541444,colour,0.5
039,80,0,2,11,12,512,863.153934284579,864.0235318997875,"[51, 0, 203]",203,a,0.3466478199698031,colour,0.5
039,80,0,2,11,13,513,864.5449118255638,865.343454123009,"[11, 0, 243]",243,a,0.2756574861705303,colour,0.5
039,80,0,2,11,14,514,865.8448306145146,866.7274491703138,"[54, 0, 200]",200,a,0.360099233686924,colour,0.5
039,80,0,2,11,15,515,867.2354529071599,868.135570036713,"[61, 0, 193]",193,a,0.37733905110508204,colour,0.5
039,80,0,2,11,16,516,868.6549842776731,869.2794628255069,"[80, 0, 174]",174,l,0.10170873999595642,colour,0.5
039,80,0,2,11,17,517,869.7956723421812,870.6874958644621,"[10, 0, 244]",244,a,0.36885600350797176,colour,0.5
039,80,0,2,11,18,518,871.2019724589773,871.9275299874134,"[89, 0, 165]",165,l,0.20252384338527918,colour,0.5
039,80,0,2,11,19,519,872.4363222038373,873.1274560228921,"[4, 0, 250]",250,a,0.16782404854893684,colour,0.5
039,80,0,2,11,20,520,873.6395679665729,874.3434336432256,"[2, 0, 252]",252,a,0.18083868687972426,colour,0.5
039,80,0,2,11,21,521,874.8581528468058,875.7514844052494,"[67, 0, 187]",187,l,0.37101821787655354,colour,0.5
039,80,0,2,11,22,522,876.2643139362335,876.8635394773446,"[34, 0, 220]",220,a,0.07672827458009124,colour,0.5
039,80,0,2,11,23,523,877.3737188191153,878.2474466967396,"[70, 0, 184]",184,l,0.35121643263846636,colour,0.5
039,80,0,2,11,24,524,878.7656215047464,879.4236809313297,"[72, 0, 182]",182,l,0.13511947728693485,colour,0.5
039,80,0,2,11,25,525,879.9250822351314,880.7035159412771,"[53, 0, 201]",201,l,0.2550794309936464,colour,0.5
039,80,0,2,11,26,526,881.2220511180349,881.9034569431096,"[14, 0, 240]",240,a,0.15864468179643154,colour,0.5
039,80,0,2,11,27,527,882.4094004719518,883.2556768949144,"[47, 0, 207]",207,a,0.32285676896572113,colour,0.5
039,80,0,2,11,28,528,883.7688014162704,884.7434861822985,"[13, 0, 241]",241,a,0.45205044047906995,colour,0.5
039,80,0,2,11,29,529,885.2531350133941,886.2794636134058,"[30, 0, 224]",224,a,0.5033193337731063,colour,0.5
039,80,0,2,11,30,530,886.8000873550773,887.5515504926443,"[27, 0, 227]",227,a,0.2287138095125556,colour,0.5
039,80,0,2,11,31,531,888.0654701888561,888.8475623298436,"[83, 0, 171]",171,l,0.25750434026122093,colour,0.5
039,80,0,2,11,32,532,889.3636907143518,889.8961325907148,"[95, 0, 159]",159,l,0.009516499005258083,colour,0.5
039,80,0,2,11,33,533,890.4105288404971,891.03951101657,"[87, 0, 167]",167,l,0.10591619601473212,colour,0.5
039,80,0,2,11,34,534,891.5513401785865,892.6635071034543,"[49, 0, 205]",205,a,0.5891549014486372,colour,0.5
039,80,0,2,11,35,535,893.176374443341,893.9195888722315,"[5, 0, 249]",249,a,0.22035364247858524,colour,0.5
039,80,0,2,11,36,536,894.4333002241328,895.1434965799563,"[32, 0, 222]",222,a,0.19415658712387085,colour,0.5
039,80,0,2,11,37,537,895.6606635358185,896.4154940559529,"[77, 0, 177]",177,l,0.23192680440843105,colour,0.5
039,80,0,2,11,38,538,896.9262842526659,897.7435070560314,"[15, 0, 239]",239,a,0.2944526015780866,colour,0.5
039,80,0,2,11,39,539,898.2564630112611,898.9754996327683,"[96, 0, 158]",158,l,0.1956319333985448,colour,0.5
039,80,0,2,11,40,540,900.4585662274621,901.0075488449074,"[62, 0, 192]",192,l,0.02511004079133272,colour,0.5
039,80,0,2,11,41,541,901.522043555975,902.7434838190675,"[33, 0, 221]",221,l,0.6962928068824112,colour,0.5
039,80,0,2,11,42,542,903.2564094485715,904.2955530066974,"[85, 0, 169]",169,l,0.5159964459016919,colour,0.5
039,80,0,2,11,43,543,904.8062644344755,905.6715143849142,"[44, 0, 210]",210,a,0.34256993932649493,colour,0.5
039,80,0,2,11,44,544,906.1832068823278,907.055538576562,"[12, 0, 242]",242,a,0.3492598063312471,colour,0.5
039,80,0,2,11,45,545,907.5738138146698,908.3594442675821,"[28, 0, 226]",226,a,0.2624959433451295,colour,0.5
039,80,0,2,11,46,546,908.866564608179,909.7355285254307,"[18, 0, 236]",236,a,0.34582862025126815,colour,0.5
039,80,0,2,11,47,547,910.2418761402369,910.8953850711696,"[63, 0, 191]",191,a,0.130996304564178,colour,0.5
039,80,0,2,11,48,548,911.4052016804926,912.1355038704351,"[9, 0, 245]",245,a,0.20586405042558908,colour,0.5
039,80,0,2,11,49,549,912.6564576551318,913.3754438641481,"[3, 0, 251]",251,a,0.198684633243829,colour,0.5
039,80,0,2,11,50,550,913.8877897523344,914.7995481798425,"[97, 0, 157]",157,l,0.3872525463812053,colour,0.5
039,80,0,2,12,1,551,920.5299700992182,921.2314541894011,"[16, 0, 238]",238,a,0.17750675044953823,colour,0.5
039,80,0,2,12,2,552,921.751719137188,922.4874686105177,"[58, 0, 196]",196,a,0.21273390529677272,colour,0.5
039,80,0,2,12,3,553,923.0016194945201,923.7355064698495,"[33, 0, 221]",221,a,0.21282488340511918,colour,0.5
039,80,0,2,12,4,554,924.2494379817508,925.0474560703151,"[53, 0, 201]",201,a,0.2748737330548465,colour,0.5
039,80,0,2,12,5,555,925.5622784616426,926.4874894842505,"[40, 0, 214]",214,a,0.40251840837299824,colour,0.5
039,80,0,2,12,6,556,926.9907347746193,928.0076252506115,"[64, 0, 190]",190,l,0.49075210373848677,colour,0.5
039,80,0,2,12,7,557,928.5244909147732,929.191457954701,"[11, 0, 243]",243,a,0.14344971254467964,colour,0.5
039,80,0,2,12,8,558,929.7124038622715,930.5036686747335,"[88, 0, 166]",166,l,0.2654675110243261,colour,0.5
039,80,0,2,12,9,559,931.014801517129,931.97540865466,"[54, 0, 200]",200,a,0.4371973294764757,colour,0.5
039,80,0,2,12,10,560,932.4864536696114,933.3674881765619,"[70, 0, 184]",184,l,0.3575857086107135,colour,0.5
039,80,0,2,12,11,561,933.8842971269041,934.7914467691444,"[32, 0, 222]",222,l,0.38310022884979844,colour,0.5
039,80,0,2,12,12,562,935.3062404096127,936.1514865318313,"[42, 0, 212]",212,l,0.3222632431425154,colour,0.5
039,80,0,2,12,13,563,936.6655050837435,937.7354178545065,"[97, 0, 157]",157,l,0.5463710245676339,colour,0.5
039,80,0,2,12,14,564,938.2439607665874,939.3514610105194,"[63, 0, 191]",191,l,0.5843554944731295,colour,0.5
039,80,0,2,12,15,565,939.870230525732,940.7914755200036,"[13, 0, 241]",241,a,0.39806676795706153,colour,0.5
039,80,0,2,12,16,566,941.3077421444468,942.0234251674265,"[81, 0, 173]",173,l,0.1921105571091175,colour,0.5
039,80,0,2,12,17,567,942.5422710888088,943.3516193367541,"[34, 0, 220]",220,a,0.2833906509913504,colour,0.5
039,80,0,2,12,18,568,943.8575400225818,944.575440004468,"[72, 0, 182]",182,l,0.1925945938564837,colour,0.5
039,80,0,2,12,19,569,945.0937061845325,945.7834524847567,"[69, 0, 185]",185,l,0.16616713861003518,colour,0.5
039,80,0,2,12,20,570,946.2969653382897,946.9995380188338,"[46, 0, 208]",208,a,0.17911521764472127,colour,0.5
039,80,0,2,12,21,571,947.5157585628331,948.1354451877996,"[91, 0, 163]",163,l,0.096433961763978,colour,0.5
039,80,0,2,12,22,572,948.6563989720307,949.3513798783533,"[10, 0, 244]",244,l,0.17146042780950665,colour,0.5
039,80,0,2,12,23,573,949.8595443046652,950.5676300399937,"[7, 0, 247]",247,a,0.18471570638939738,colour,0.5
039,80,0,2,12,24,574,951.078228039667,951.7914794585668,"[93, 0, 161]",161,l,0.19004838028922677,colour,0.5
039,80,0,2,12,25,575,952.344021261204,953.0875610066578,"[89, 0, 165]",165,l,0.22049700189381838,colour,0.5
039,80,0,2,12,26,576,953.5952091007493,954.423466285225,"[55, 0, 199]",199,a,0.3050084598362446,colour,0.5
039,80,0,2,12,27,577,954.9389125281014,955.6794117833488,"[35, 0, 219]",219,a,0.21714458568021655,colour,0.5
039,80,0,2,12,28,578,956.1889475807548,956.9996423879638,"[36, 0, 218]",218,a,0.28766309190541506,colour,0.5
039,80,0,2,12,29,579,957.5171295404434,958.3035197220743,"[49, 0, 205]",205,a,0.26327969692647457,colour,0.5
039,80,0,2,12,30,580,958.8138707806356,959.4474684372544,"[75, 0, 179]",179,l,0.10970026766881347,colour,0.5
039,80,0,2,12,31,581,959.9546080757864,960.8874029954895,"[50, 0, 204]",204,a,0.40990656381472945,colour,0.5
039,80,0,2,12,32,582,961.4074899251573,962.6314039346762,"[68, 0, 186]",186,l,0.7123187915422022,colour,0.5
039,80,0,2,12,33,583,963.14595457213,963.8714939835481,"[29, 0, 225]",225,a,0.20266090193763375,colour,0.5
039,80,0,2,12,34,584,964.3802653262392,965.0793634974398,"[37, 0, 217]",217,a,0.17567969905212522,colour,0.5
039,80,0,2,12,35,585,965.5989876585081,966.3034397712909,"[30, 0, 224]",224,a,0.1810202500782907,colour,0.5
039,80,0,2,12,36,586,966.8176867538132,967.4634873322211,"[61, 0, 193]",193,l,0.12271648133173585,colour,0.5
039,80,0,2,12,37,587,967.9739951412193,968.6634208508767,"[62, 0, 192]",192,l,0.16634633857756853,colour,0.5
039,80,0,2,12,38,588,969.1770494952798,969.879444945138,"[9, 0, 245]",245,a,0.17918926058337092,colour,0.5
039,80,0,2,12,39,589,970.3961121104658,971.0634501529858,"[28, 0, 226]",226,a,0.14421495469287038,colour,0.5
039,80,0,2,12,40,590,971.5834815506823,972.2874771961942,"[19, 0, 235]",235,a,0.18099464988335967,colour,0.5
039,80,0,2,12,41,591,972.8021566215903,973.711463751737,"[23, 0, 231]",231,l,0.38437786512076855,colour,0.5
039,80,0,2,12,42,592,974.2259627957828,975.375426535029,"[71, 0, 183]",183,l,0.6262232852168381,colour,0.5
039,80,0,2,12,43,593,975.8826185553335,976.8394420146942,"[25, 0, 229]",229,a,0.4340678295120597,colour,0.5
039,80,0,2,12,44,594,977.3510825247504,979.1994490884244,"[24, 0, 230]",230,a,1.32533248513937,colour,0.5
039,80,0,2,12,45,595,979.7102664601989,980.3754793102853,"[2, 0, 252]",252,a,0.14202241459861398,colour,0.5
039,80,0,2,12,46,596,980.882246370893,981.7993918228894,"[47, 0, 207]",207,a,0.39397195167839527,colour,0.5
039,80,0,2,12,47,597,982.3115864745341,982.9913791064173,"[98, 0, 156]",156,l,0.15708308247849345,colour,0.5
039,80,0,2,12,48,598,983.4990571327507,984.1674144486897,"[79, 0, 175]",175,l,0.14541579084470868,colour,0.5
039,80,0,2,12,49,599,984.6864399635233,985.4314097636379,"[80, 0, 174]",174,l,0.2219337522983551,colour,0.5
039,80,0,2,12,50,600,985.9520567422733,986.887507758569,"[60, 0, 194]",194,l,0.41226530726999044,colour,0.5
039,80,0,2,13,1,601,994.1388649516739,995.2074134405702,"[48, 0, 206]",206,a,0.5444270013831556,colour,0.5
039,80,0,2,13,2,602,995.7201263927855,996.3674468230456,"[79, 0, 175]",175,l,0.12411148380488157,colour,0.5
039,80,0,2,13,3,603,996.8764930698089,997.4714146628976,"[41, 0, 213]",213,a,0.07194856042042375,colour,0.5
039,80,0,2,13,4,604,997.9858940145932,998.7114838380367,"[82, 0, 172]",172,l,0.20244586188346148,colour,0.5
039,80,0,2,13,5,605,999.2201681407169,999.9595642331988,"[54, 0, 200]",200,a,0.21598431561142206,colour,0.5
039,80,0,2,13,6,606,1000.4701992543414,1001.1513593196869,"[95, 0, 159]",159,l,0.15781012224033475,colour,0.5
039,80,0,2,13,7,607,1001.6577431680635,1002.3513759402558,"[73, 0, 181]",181,l,0.16894099581986666,colour,0.5
039,80,0,2,13,8,608,1002.8625363521278,1003.8554632728919,"[15, 0, 239]",239,a,0.4698971747420728,colour,0.5
039,80,0,2,13,9,609,1004.3625288689509,1005.1433685799129,"[59, 0, 195]",195,a,0.25758980493992567,colour,0.5
039,80,0,2,13,10,610,1005.6594922379591,1006.9513517580926,"[58, 0, 196]",196,l,0.768840407487005,colour,0.5
039,80,0,2,13,11,611,1007.4719613213092,1008.3114801361226,"[27, 0, 227]",227,a,0.31614524126052856,colour,0.5
039,80,0,2,13,12,612,1008.8176453998312,1009.6634346358478,"[62, 0, 192]",192,l,0.32256453577429056,colour,0.5
039,80,0,2,13,13,613,1010.1769742709585,1010.8634528312832,"[60, 0, 194]",194,l,0.16319045098498464,colour,0.5
039,80,0,2,13,14,614,1011.380104242824,1012.0073991832323,"[9, 0, 245]",245,a,0.10410686768591404,colour,0.5
039,80,0,2,13,15,615,1012.5207734028809,1013.3993782745674,"[83, 0, 171]",171,l,0.35618716152384877,colour,0.5
039,80,0,2,13,16,616,1013.898806410376,1014.6073852409609,"[51, 0, 203]",203,a,0.1853419211693108,colour,0.5
039,80,0,2,13,17,617,1015.1160498512909,1015.9513998068869,"[35, 0, 219]",219,a,0.3124273354187608,colour,0.5
039,80,0,2,13,18,618,1016.4599025468342,1017.3753406768665,"[37, 0, 217]",217,a,0.3925174791365862,colour,0.5
039,80,0,2,13,19,619,1017.881574863568,1018.7673414298333,"[86, 0, 168]",168,l,0.36258518882095814,colour,0.5
039,80,0,2,13,20,620,1019.2879198789597,1019.8793350621127,"[36, 0, 218]",218,a,0.06871075322851539,colour,0.5
039,80,0,2,13,21,621,1020.3973968359642,1021.2393519817851,"[66, 0, 188]",188,l,0.31865797797217965,colour,0.5
039,80,0,2,13,22,622,1021.756715466734,1022.7516127987765,"[31, 0, 223]",223,a,0.4716864163056016,colour,0.5
039,80,0,2,13,23,623,1023.2722708052024,1024.351358610671,"[85, 0, 169]",169,l,0.555895006749779,colour,0.5
039,80,0,2,13,24,624,1024.8660045592114,1025.6633712262847,"[75, 0, 179]",179,l,0.2741986811161041,colour,0.5
039,80,0,2,13,25,625,1026.1784090516157,1027.5113829346374,"[50, 0, 204]",204,a,0.8094451338984072,colour,0.5
039,80,0,2,13,26,626,1028.0222696238197,1029.0634840237908,"[77, 0, 177]",177,l,0.5147845819592476,colour,0.5
039,80,0,2,13,27,627,1029.5724046342075,1030.3273796956055,"[5, 0, 249]",249,a,0.2312942878343165,colour,0.5
039,80,0,2,13,28,628,1030.8380923047662,1031.527375441976,"[12, 0, 242]",242,a,0.16618761839345098,colour,0.5
039,80,0,2,13,29,629,1032.0412778095342,1032.9753700573929,"[20, 0, 234]",234,a,0.4114012089557946,colour,0.5
039,80,0,2,13,30,630,1033.4943467355333,1034.5913824937306,"[1, 0, 253]",253,a,0.5737846703268588,colour,0.5
039,80,0,2,13,31,631,1035.1037567388266,1036.0954005098902,"[39, 0, 215]",215,a,0.468809372279793,colour,0.5
039,80,0,2,13,32,632,1036.6037421664223,1037.511403020937,"[44, 0, 210]",210,a,0.3840844500809908,colour,0.5
039,80,0,2,13,33,633,1038.0256137694232,1038.8956540678628,"[18, 0, 236]",236,a,0.3442741106264293,colour,0.5
039,80,0,2,13,34,634,1039.403012685012,1040.3993956041522,"[88, 0, 166]",166,l,0.4734910191036761,colour,0.5
039,80,0,2,13,35,635,1040.9185325773433,1041.7594747510739,"[71, 0, 183]",183,l,0.31784507958218455,colour,0.5
039,80,0,2,13,36,636,1042.2780544324778,1043.2793974471278,"[30, 0, 224]",224,a,0.47853342816233635,colour,0.5
039,80,0,2,13,37,637,1043.7934274203144,1044.8873636112548,"[72, 0, 182]",182,l,0.5707047954201698,colour,0.5
039,80,0,2,13,38,638,1045.402992204763,1046.2953399363905,"[76, 0, 178]",178,l,0.3662991560995579,colour,0.5
039,80,0,2,13,39,639,1046.8122804309241,1047.895340172574,"[34, 0, 220]",220,a,0.5598425245843828,colour,0.5
039,80,0,2,13,40,640,1048.4057235266082,1049.4153723577037,"[3, 0, 251]",251,a,0.48665334936231375,colour,0.5
039,80,0,2,13,41,641,1049.9369657477364,1051.0313942460343,"[64, 0, 190]",190,l,0.5714633422903717,colour,0.5
039,80,0,2,13,42,642,1051.5462308158167,1052.375340282917,"[29, 0, 225]",225,a,0.30597220081835985,colour,0.5
039,80,0,2,13,43,643,1052.8901859107427,1053.919353352394,"[47, 0, 207]",207,a,0.5060325381346047,colour,0.5
039,80,0,2,13,44,644,1054.4367802464403,1055.6953601799905,"[56, 0, 198]",198,a,0.7354194303043187,colour,0.5
039,80,0,2,13,45,645,1056.2025262066163,1057.247356900014,"[19, 0, 235]",235,a,0.521439396776259,colour,0.5
039,80,0,2,13,46,646,1057.7649948955514,1058.6074135978706,"[90, 0, 164]",164,l,0.31706014508381486,colour,0.5
039,80,0,2,13,47,647,1059.1264867684804,1060.2473293305375,"[45, 0, 209]",209,a,0.5978061202913523,colour,0.5
039,80,0,2,13,48,648,1060.7671504141763,1062.1193656399846,"[14, 0, 240]",240,a,0.8292051716707647,colour,0.5
039,80,0,2,13,49,649,1062.6264808606356,1064.0073286849074,"[13, 0, 241]",241,a,0.8574840966612101,colour,0.5
039,80,0,2,13,50,650,1064.5048789633438,1065.5273581128567,"[52, 0, 202]",202,a,0.49932888662442565,colour,0.5
039,80,0,2,14,1,651,1071.2458075098693,1071.9593673101626,"[17, 0, 237]",237,a,0.18949896516278386,colour,0.5
039,80,0,2,14,2,652,1072.4651647219434,1073.0873030377552,"[6, 0, 248]",248,a,0.09928619395941496,colour,0.5
039,80,0,2,14,3,653,1073.605776380282,1074.2713464489207,"[16, 0, 238]",238,a,0.142539928201586,colour,0.5
039,80,0,2,14,4,654,1074.77764995303,1075.4153625112958,"[22, 0, 232]",232,a,0.11436970438808203,colour,0.5
039,80,0,2,14,5,655,1075.9340950050391,1076.615356682334,"[2, 0, 252]",252,a,0.15801255870610476,colour,0.5
039,80,0,2,14,6,656,1077.1114438232034,1077.8073896523565,"[9, 0, 245]",245,a,0.1728223473764956,colour,0.5
039,80,0,2,14,7,657,1078.3116943882778,1079.183342365548,"[43, 0, 211]",211,a,0.34918221831321716,colour,0.5
039,80,0,2,14,8,658,1079.701849185396,1080.3273926926777,"[52, 0, 202]",202,l,0.1023444072343409,colour,0.5
039,80,0,2,14,9,659,1080.842541581951,1081.59136319533,"[56, 0, 198]",198,l,0.2250805809162557,colour,0.5
039,80,0,2,14,10,660,1082.108986618463,1082.8633134099655,"[77, 0, 177]",177,l,0.23084136517718434,colour,0.5
039,80,0,2,14,11,661,1083.3744675200433,1084.0793276578188,"[5, 0, 249]",249,a,0.18194381892681122,colour,0.5
039,80,0,2,14,12,662,1084.5933651141822,1085.351293232292,"[35, 0, 219]",219,a,0.23458093218505383,colour,0.5
039,80,0,2,14,13,663,1085.8589763785712,1086.743348336313,"[0, 0, 254]",254,a,0.3610220146365464,colour,0.5
039,80,0,2,14,14,664,1087.249450978823,1087.927352362778,"[94, 0, 160]",160,l,0.15464084409177303,colour,0.5
039,80,0,2,14,15,665,1088.4369515692815,1089.495328987483,"[49, 0, 205]",205,a,0.5355280530638993,colour,0.5
039,80,0,2,14,16,666,1090.0150291603059,1090.951321825385,"[45, 0, 209]",209,a,0.4130722973495722,colour,0.5
039,80,0,2,14,17,667,1091.4683481785469,1092.3114147572778,"[36, 0, 218]",218,a,0.31976862298324704,colour,0.5
039,80,0,2,14,18,668,1092.827665627934,1093.7433054069988,"[99, 0, 155]",155,l,0.39218310359865427,colour,0.5
039,80,0,2,14,19,669,1094.249561255332,1094.8793342742138,"[89, 0, 165]",165,l,0.10689214617013931,colour,0.5
039,80,0,2,14,20,670,1095.390287523158,1096.1193160153925,"[34, 0, 220]",220,a,0.2056828811764717,colour,0.5
039,80,0,2,14,21,671,1096.6403556587175,1097.4873390351422,"[10, 0, 244]",244,a,0.3239733222872019,colour,0.5
039,80,0,2,14,22,672,1097.9994525541551,1098.9993761479855,"[7, 0, 247]",247,a,0.4877821118570864,colour,0.5
039,80,0,2,14,23,673,1099.519508763682,1100.399319591932,"[80, 0, 174]",174,l,0.35658967262133956,colour,0.5
039,80,0,2,14,24,674,1100.9101578374393,1101.6313673071563,"[13, 0, 241]",241,a,0.19820217229425907,colour,0.5
039,80,0,2,14,25,675,1102.1447344375774,1102.967350173276,"[85, 0, 169]",169,l,0.2993614971637726,colour,0.5
039,80,0,2,14,26,676,1103.4882503943518,1104.151331750676,"[71, 0, 183]",183,l,0.13993345573544502,colour,0.5
039,80,0,2,14,27,677,1104.6602381821722,1105.4393142513,"[19, 0, 235]",235,a,0.25584861217066646,colour,0.5
039,80,0,2,14,28,678,1105.9570822161622,1106.8152953214012,"[87, 0, 167]",167,l,0.33526409743353724,colour,0.5
039,80,0,2,14,29,679,1107.3322078529745,1107.98330841586,"[81, 0, 173]",173,l,0.12800504453480244,colour,0.5
039,80,0,2,14,30,680,1108.5040432219394,1109.4873713306151,"[60, 0, 194]",194,a,0.45996674383059144,colour,0.5
039,80,0,2,14,31,681,1110.00399792986,1110.7513308054768,"[82, 0, 172]",172,l,0.22404437232762575,colour,0.5
039,80,0,2,14,32,682,1111.2584704440087,1111.95133915497,"[3, 0, 251]",251,a,0.16967866895720363,colour,0.5
039,80,0,2,14,33,683,1112.4492360176519,1113.4233473436907,"[57, 0, 197]",197,l,0.4511950071901083,colour,0.5
039,80,0,2,14,34,684,1113.93369682692,1114.7993402290158,"[97, 0, 157]",157,l,0.34247777890414,colour,0.5
039,80,0,2,14,35,685,1115.3086290853098,1116.2073449110612,"[21, 0, 233]",233,a,0.375491913408041,colour,0.5
039,80,0,2,14,36,686,1116.714940623846,1117.6153291133232,"[91, 0, 163]",163,l,0.38926588697358966,colour,0.5
039,80,0,2,14,37,687,1118.1246656249277,1118.8073392398655,"[27, 0, 227]",227,a,0.15946309361606836,colour,0.5
039,80,0,2,14,38,688,1119.3278621570207,1120.359329264611,"[59, 0, 195]",195,l,0.5083629242144525,colour,0.5
039,80,0,2,14,39,689,1120.874643963296,1121.719357212074,"[55, 0, 199]",199,l,0.32139441976323724,colour,0.5
039,80,0,2,14,40,690,1122.2333501637913,1123.1113934111781,"[64, 0, 190]",190,l,0.35565034998580813,colour,0.5
039,80,0,2,14,41,691,1123.623575065285,1124.6633365680464,"[46, 0, 208]",208,a,0.516536015085876,colour,0.5
039,80,0,2,14,42,692,1125.1705029886216,1125.9513064655475,"[79, 0, 175]",175,l,0.255882088560611,colour,0.5
039,80,0,2,14,43,693,1126.4709558323957,1127.3913505133241,"[78, 0, 176]",176,l,0.3973279129713774,colour,0.5
039,80,0,2,14,44,694,1128.7627688786015,1129.5833519753069,"[8, 0, 246]",246,a,0.2905180808156729,colour,0.5
039,80,0,2,14,45,695,1130.1018556444906,1130.823629888706,"[62, 0, 192]",192,l,0.198738984297961,colour,0.5
039,80,0,2,14,46,696,1131.3338277409784,1132.623291102238,"[50, 0, 204]",204,l,0.7662036088295281,colour,0.5
039,80,0,2,14,47,697,1133.1307769319974,1133.8473303546198,"[96, 0, 158]",158,a,0.1932605872862041,colour,0.5
039,80,0,2,14,48,698,1134.3655335195363,1135.7832992789336,"[14, 0, 240]",240,a,0.8944465364329517,colour,0.5
039,80,0,2,14,49,699,1136.2914093537256,1137.4793695630506,"[20, 0, 234]",234,a,0.6617741812951863,colour,0.5
039,80,0,2,14,50,700,1137.9884756742977,1138.7755905324593,"[92, 0, 162]",162,l,0.2763431719504297,colour,0.5
039,80,0,2,15,1,701,1145.2018629699014,1145.88730138354,"[27, 0, 227]",227,a,0.16162412613630295,colour,0.5
039,80,0,2,15,2,702,1146.4434697194956,1147.1032813666388,"[50, 0, 204]",204,a,0.1501419423148036,colour,0.5
039,80,0,2,15,3,703,1147.6179131362587,1148.287303510122,"[80, 0, 174]",174,l,0.14653352554887533,colour,0.5
039,80,0,2,15,4,704,1148.8054846194573,1149.4152841363102,"[36, 0, 218]",218,a,0.08657796727493405,colour,0.5
039,80,0,2,15,5,705,1149.9304574439302,1150.631398420781,"[33, 0, 221]",221,a,0.17758748913183808,colour,0.5
039,80,0,2,15,6,706,1151.149206164293,1151.871288002003,"[70, 0, 184]",184,l,0.19907532865181565,colour,0.5
039,80,0,2,15,7,707,1152.3835484255105,1153.0153517201543,"[86, 0, 168]",168,l,0.10867193574085832,colour,0.5
039,80,0,2,15,8,708,1153.5242152223364,1154.3913280642591,"[63, 0, 191]",191,l,0.3444155012257397,colour,0.5
039,80,0,2,15,9,709,1154.8992573642172,1155.4954195716418,"[22, 0, 232]",232,a,0.07309622736647725,colour,0.5
039,80,0,2,15,10,710,1156.0087567702867,1156.7193969902582,"[74, 0, 180]",180,l,0.18783023953437805,colour,0.5
039,80,0,2,15,11,711,1157.227330622729,1157.87131517753,"[23, 0, 231]",231,a,0.1205211840569973,colour,0.5
039,80,0,2,15,12,712,1158.3851167201065,1159.1113110971637,"[48, 0, 206]",206,a,0.20307916589081287,colour,0.5
039,80,0,2,15,13,713,1159.6199040273204,1160.2395985289477,"[69, 0, 185]",185,l,0.09740912402048707,colour,0.5
039,80,0,2,15,14,714,1160.760392806027,1161.5993220335804,"[31, 0, 223]",223,a,0.31602669321000576,colour,0.5
039,80,0,2,15,15,715,1162.1197886308655,1162.7752502495423,"[84, 0, 170]",170,l,0.132197140250355,colour,0.5
039,80,0,2,15,16,716,1163.291716947686,1163.9593228055164,"[20, 0, 234]",234,a,0.15695902099832892,colour,0.5
039,80,0,2,15,17,717,1164.4668381735682,1165.2232944895513,"[19, 0, 235]",235,a,0.2341788155026734,colour,0.5
039,80,0,2,15,18,718,1165.7324262009934,1166.5913710719906,"[30, 0, 224]",224,a,0.33557641692459583,colour,0.5
039,80,0,2,15,19,719,1167.1074628285132,1167.7194009288214,"[39, 0, 215]",215,a,0.08868819382041693,colour,0.5
039,80,0,2,15,20,720,1168.232316317968,1168.8473173580132,"[64, 0, 190]",190,l,0.09190433984622359,colour,0.5
039,80,0,2,15,21,721,1169.3574947300367,1169.9833844280802,"[61, 0, 193]",193,l,0.10267760092392564,colour,0.5
039,80,0,2,15,22,722,1170.4980063517578,1171.1753023946658,"[9, 0, 245]",245,a,0.15454120095819235,colour,0.5
039,80,0,2,15,23,723,1171.6855675950646,1172.3753351629712,"[77, 0, 177]",177,l,0.1663758773356676,colour,0.5
039,80,0,2,15,24,724,1172.8886440042406,1173.807328212075,"[3, 0, 251]",251,a,0.3953976738266647,colour,0.5
039,80,0,2,15,25,725,1174.3261398687027,1174.9672717978247,"[41, 0, 213]",213,a,0.1254048738628626,colour,0.5
039,80,0,2,15,26,726,1175.4748265501112,1176.1432819338515,"[99, 0, 155]",155,l,0.14539216039702296,colour,0.5
039,80,0,2,15,27,727,1176.6624220577069,1177.3272969881073,"[82, 0, 172]",172,l,0.14164826087653637,colour,0.5
039,80,0,2,15,28,728,1177.8347611557692,1178.6152794887312,"[71, 0, 183]",183,l,0.2657723478041589,colour,0.5
039,80,0,2,15,29,729,1179.124194584787,1179.7995084016584,"[79, 0, 175]",175,l,0.1522033317014575,colour,0.5
039,80,0,2,15,30,730,1180.3116762712598,1180.8872816911899,"[43, 0, 211]",211,a,0.0527513287961483,colour,0.5
039,80,0,2,15,31,731,1181.4054596493952,1182.1913980897516,"[6, 0, 248]",248,a,0.26290790596976876,colour,0.5
039,80,0,2,15,32,732,1182.7024119910784,1183.3192723775283,"[54, 0, 200]",200,a,0.09367979690432549,colour,0.5
039,80,0,2,15,33,733,1183.8271630806848,1184.623315914534,"[46, 0, 208]",208,l,0.2726000603288412,colour,0.5
039,80,0,2,15,34,734,1185.1398097882047,1186.1433028075844,"[4, 0, 250]",250,a,0.48044436844065785,colour,0.5
039,80,0,2,15,35,735,1186.6554486220703,1187.5193409854546,"[95, 0, 159]",159,l,0.3407984203658998,colour,0.5
039,80,0,2,15,36,736,1188.030386000406,1188.9832824221812,"[83, 0, 171]",171,l,0.4297627001069486,colour,0.5
039,80,0,2,15,37,737,1189.4995423508808,1190.3592910612933,"[40, 0, 214]",214,a,0.33682687766849995,colour,0.5
039,80,0,2,15,38,738,1190.8741122712381,1191.6073064720258,"[29, 0, 225]",225,a,0.20980172231793404,colour,0.5
039,80,0,2,15,39,739,1192.1242162464187,1192.9114854922518,"[52, 0, 202]",202,l,0.26405360409989953,colour,0.5
039,80,0,2,15,40,740,1193.4210405880585,1194.175244893413,"[35, 0, 219]",219,a,0.24059929186478257,colour,0.5
039,80,0,2,15,41,741,1194.6929821381345,1195.5273648081347,"[13, 0, 241]",241,a,0.31114772986620665,colour,0.5
039,80,0,2,15,42,742,1196.0365989198908,1196.9512741700746,"[47, 0, 207]",207,a,0.3913587839342654,colour,0.5
039,80,0,2,15,43,743,1197.45844886126,1198.4872736567631,"[60, 0, 194]",194,l,0.5053767845965922,colour,0.5
039,80,0,2,15,44,744,1199.0001961351372,1199.7752482802607,"[85, 0, 169]",169,l,0.2520928969606757,colour,0.5
039,80,0,2,15,45,745,1200.2813430461101,1201.4073296301067,"[53, 0, 201]",201,a,0.6035869913175702,colour,0.5
039,80,0,2,15,46,746,1201.9220949136652,1202.8153154077008,"[68, 0, 186]",186,l,0.37013285234570503,colour,0.5
039,80,0,2,15,47,747,1203.3283623415045,1204.0712683885358,"[17, 0, 237]",237,a,0.21970222098752856,colour,0.5
039,80,0,2,15,48,748,1204.5782886920497,1205.4152030036785,"[87, 0, 167]",167,l,0.3139255251735449,colour,0.5
039,80,0,2,15,49,749,1205.9218672704883,1206.6712327850983,"[5, 0, 249]",249,a,0.23524416889995337,colour,0.5
039,80,0,2,15,50,750,1207.1786047928035,1207.8872253713198,"[93, 0, 161]",161,l,0.18625958263874054,colour,0.5
039,80,0,2,16,1,751,1213.600784777198,1214.3913359409198,"[82, 0, 172]",172,l,0.2671760143712163,colour,0.5
039,80,0,2,16,2,752,1214.8985787676647,1215.5112746269442,"[38, 0, 216]",216,a,0.08944870997220278,colour,0.5
039,80,0,2,16,3,753,1216.02351653995,1216.7832752540708,"[39, 0, 215]",215,a,0.2351693380624056,colour,0.5
039,80,0,2,16,4,754,1217.2903806283139,1218.0313241411932,"[61, 0, 193]",193,l,0.2176971510052681,colour,0.5
039,80,0,2,16,5,755,1218.5403495146893,1219.271255864296,"[89, 0, 165]",165,l,0.20803414192050695,colour,0.5
039,80,0,2,16,6,756,1219.790225846693,1220.5274262484163,"[69, 0, 185]",185,l,0.21365944296121597,colour,0.5
039,80,0,2,16,7,757,1221.027826395817,1221.6232209978625,"[3, 0, 251]",251,a,0.07198361260816455,colour,0.5
039,80,0,2,16,8,758,1222.137267512735,1223.0632733162493,"[76, 0, 178]",178,l,0.4027023343369365,colour,0.5
039,80,0,2,16,9,759,1223.5746578266844,1224.5432289219461,"[70, 0, 184]",184,l,0.4453999581746757,colour,0.5
039,80,0,2,16,10,760,1225.0590052083135,1225.7272250717506,"[50, 0, 204]",204,a,0.1451700311154127,colour,0.5
039,80,0,2,16,11,761,1226.2466314355843,1227.071264843922,"[73, 0, 181]",181,l,0.3013401790522039,colour,0.5
039,80,0,2,16,12,762,1227.5902820881456,1228.5592974419706,"[44, 0, 210]",210,a,0.44578120158985257,colour,0.5
039,80,0,2,16,13,763,1229.0757196350023,1230.0072739403695,"[13, 0, 241]",241,a,0.4087636233307421,colour,0.5
039,80,0,2,16,14,764,1230.5285613122396,1231.3192889192142,"[95, 0, 159]",159,l,0.2677218853496015,colour,0.5
039,80,0,2,16,15,765,1231.825306490995,1232.687190240249,"[54, 0, 200]",200,a,0.33840383728966117,colour,0.5
039,80,0,2,16,16,766,1233.2002879800275,1234.1192585141398,"[75, 0, 179]",179,l,0.40563569869846106,colour,0.5
039,80,0,2,16,17,767,1234.6277683428489,1235.6312609687448,"[97, 0, 157]",157,l,0.4804711500182748,colour,0.5
039,80,0,2,16,18,768,1236.1434075706638,1237.00722549716,"[35, 0, 219]",219,a,0.34034234657883644,colour,0.5
039,80,0,2,16,19,769,1237.5185209983028,1238.2231948464178,"[46, 0, 208]",208,a,0.18135186797007918,colour,0.5
039,80,0,2,16,20,770,1238.7329551363364,1239.5432576728053,"[25, 0, 229]",229,l,0.2870293934829533,colour,0.5
039,80,0,2,16,21,771,1240.0609728624113,1241.9192336229607,"[55, 0, 199]",199,l,1.334813537541777,colour,0.5
039,80,0,2,16,22,772,1242.4364923452958,1243.1352199078538,"[19, 0, 235]",235,a,0.17638271441683173,colour,0.5
039,80,0,2,16,23,773,1243.6546558099799,1244.3352503124624,"[24, 0, 230]",230,a,0.15724495286121964,colour,0.5
039,80,0,2,16,24,774,1244.8431099019945,1245.4632754432969,"[6, 0, 248]",248,a,0.10714932763949037,colour,0.5
039,80,0,2,16,25,775,1245.9743728395551,1246.8712415280752,"[32, 0, 222]",222,a,0.3704581684432924,colour,0.5
039,80,0,2,16,26,776,1247.3835637858137,1248.3113655266352,"[31, 0, 223]",223,a,0.40500593930482864,colour,0.5
039,80,0,2,16,27,777,1248.8274009632878,1249.5832385476679,"[23, 0, 231]",231,a,0.2322970195673406,colour,0.5
039,80,0,2,16,28,778,1250.0930425543338,1250.815234275069,"[60, 0, 194]",194,l,0.19944948190823197,colour,0.5
039,80,0,2,16,29,779,1251.3272788710892,1251.999337551184,"[11, 0, 243]",243,a,0.14944837940856814,colour,0.5
039,80,0,2,16,30,780,1252.514801517129,1253.4232508512214,"[85, 0, 169]",169,l,0.38537429505959153,colour,0.5
039,80,0,2,16,31,781,1253.9366471264511,1254.6953428508714,"[53, 0, 201]",201,a,0.2356069008819759,colour,0.5
039,80,0,2,16,32,782,1255.202273357194,1256.2232826743275,"[15, 0, 239]",239,a,0.49778185971081257,colour,0.5
039,80,0,2,16,33,783,1256.7335281819105,1257.8393557625823,"[68, 0, 186]",186,l,0.5827040988951921,colour,0.5
039,80,0,2,16,34,784,1258.3599227904342,1259.0232373028994,"[1, 0, 253]",253,a,0.14024104923009872,colour,0.5
039,80,0,2,16,35,785,1259.5318160550669,1260.2632552781142,"[64, 0, 190]",190,l,0.20897740265354514,colour,0.5
039,80,0,2,16,36,786,1260.7818259010091,1261.6232840130106,"[77, 0, 177]",177,l,0.31900534965097904,colour,0.5
039,80,0,2,16,37,787,1262.1411823411472,1262.9032340263948,"[41, 0, 213]",213,a,0.2391255204565823,colour,0.5
039,80,0,2,16,38,788,1263.4224143228494,1264.367270379793,"[10, 0, 244]",244,a,0.420107567217201,colour,0.5
039,80,0,2,16,39,789,1264.8754529226571,1265.8632511822507,"[81, 0, 173]",173,l,0.4650146667845547,colour,0.5
039,80,0,2,16,40,790,1266.3753643073142,1267.0872467174195,"[47, 0, 207]",207,a,0.1890035066753626,colour,0.5
039,80,0,2,16,41,791,1267.5941319321282,1268.6473519373685,"[5, 0, 249]",249,a,0.5298235882073641,colour,0.5
039,80,0,2,16,42,792,1269.1579708112404,1269.9112365813926,"[72, 0, 182]",182,l,0.2304065590724349,colour,0.5
039,80,0,2,16,43,793,1270.4237730912864,1271.3112320131622,"[59, 0, 195]",195,l,0.3643933357670903,colour,0.5
039,80,0,2,16,44,794,1271.829961749725,1272.799232315272,"[22, 0, 232]",232,a,0.4460182962939143,colour,0.5
039,80,0,2,16,45,795,1273.3143646633253,1274.1112390235066,"[43, 0, 211]",211,a,0.27368746930733323,colour,0.5
039,80,0,2,16,46,796,1274.6268869158812,1275.503225991968,"[94, 0, 160]",160,l,0.3530797176063061,colour,0.5
039,80,0,2,16,47,797,1276.017419804819,1276.711232564412,"[92, 0, 162]",162,l,0.1708515421487391,colour,0.5
039,80,0,2,16,48,798,1277.2205123617314,1278.0072034420446,"[84, 0, 170]",170,l,0.2634793766774237,colour,0.5
039,80,0,2,16,49,799,1278.5172638418153,1279.1351966708899,"[2, 0, 252]",252,a,0.09482864569872618,colour,0.5
039,80,0,2,16,50,800,1279.642417836003,1280.3912339350209,"[45, 0, 209]",209,a,0.2258517313748598,colour,0.5
