id,age,condition,counterbalance,block,trialinblock,trial,tstart,tend,trialstim,trialintensity,response,RT,trialtype,colourfreq
120,22,1,2,Practice,1,NA,5.5138953030109406e-06,2.0689296501223,"[44, 0, 210]",210,l,1.544774911366403,colour,0.5
120,22,1,2,Practice,2,NA,2.5801954024937004,3.8365245973691344,"[61, 0, 193]",193,l,0.7331094453111291,colour,0.5
120,22,1,2,Practice,3,NA,4.345742747187614,5.044490751810372,"[86, 0, 168]",168,l,0.1752123909536749,colour,0.5
120,22,1,2,Practice,4,NA,5.564515233272687,6.676513853250071,"[8, 0, 246]",246,l,0.5887052211910486,colour,0.5
120,22,1,2,Practice,5,NA,7.1894979532808065,9.180484800133854,"[85, 0, 169]",169,l,1.4679494476877153,colour,0.5
120,22,1,2,Practice,6,NA,9.692381492815912,10.836477336008102,"[1, 0, 253]",253,l,0.6212411881424487,colour,0.5
120,22,1,2,Practice,7,NA,11.348213733639568,13.292486964724958,"[97, 0, 157]",157,l,1.4209928293712437,colour,0.5
120,22,1,2,Practice,8,NA,13.801299847429618,14.404480464756489,"[76, 0, 178]",178,l,0.0785816207062453,colour,0.5
120,22,1,2,Practice,9,NA,14.911866445327178,18.084484576480463,"[43, 0, 211]",211,l,2.6491152064409107,colour,0.5
120,22,1,2,Practice,10,NA,18.60076595074497,19.636479856679216,"[45, 0, 209]",209,l,0.5124354735016823,colour,0.5
120,22,1,2,1,1,1,4.304113282589242,4.975964399520308,"[20, 0, 234]",234,a,0.1477901132311672,colour,0.5
120,22,1,2,1,2,2,5.494304797844961,6.112017130712047,"[15, 0, 239]",239,a,0.09455166012048721,colour,0.5
120,22,1,2,1,3,3,6.618866694159806,7.679915890563279,"[77, 0, 177]",177,a,0.5376474903896451,colour,0.5
120,22,1,2,1,4,4,8.19703851849772,8.791925144381821,"[76, 0, 178]",178,l,0.07195635256357491,colour,0.5
120,22,1,2,1,5,5,9.30638340790756,10.615915609989315,"[51, 0, 203]",203,l,0.7862293510697782,colour,0.5
120,22,1,2,1,6,6,11.134435208048671,12.255917232716456,"[36, 0, 218]",218,l,0.5980326631106436,colour,0.5
120,22,1,2,1,7,7,12.766506358515471,13.943945945706218,"[33, 0, 221]",221,l,0.6637705897446722,colour,0.5
120,22,1,2,1,8,8,14.464597822865471,15.439949792576954,"[56, 0, 198]",198,l,0.45203454652801156,colour,0.5
120,22,1,2,1,9,9,15.948972201207653,17.063888034550473,"[98, 0, 156]",156,l,0.5915121578145772,colour,0.5
120,22,1,2,1,10,10,17.570023162057623,18.5119124467019,"[89, 0, 165]",165,l,0.41847851988859475,colour,0.5
120,22,1,2,1,11,11,19.02330698654987,19.560036029201,"[73, 0, 181]",181,l,0.012609356315806508,colour,0.5
120,22,1,2,1,12,12,20.070011149859056,20.743921290850267,"[68, 0, 186]",186,l,0.1505777514539659,colour,0.5
120,22,1,2,1,13,13,21.25750049133785,22.447916498640552,"[5, 0, 249]",249,l,0.6671690822113305,colour,0.5
120,22,1,2,1,14,14,22.965746867004782,24.43992261728272,"[93, 0, 161]",161,l,0.9541776564437896,colour,0.5
120,22,1,2,1,15,15,24.94689978659153,26.03187982062809,"[28, 0, 226]",226,l,0.561626770766452,colour,0.5
120,22,1,2,1,16,16,26.54070294345729,27.5599592293147,"[49, 0, 205]",205,l,0.4944650928955525,colour,0.5
120,22,1,2,1,17,17,28.073338356334716,29.255921171046793,"[61, 0, 193]",193,l,0.6591074594762176,colour,0.5
120,22,1,2,1,18,18,29.776312716538087,30.807903060456738,"[7, 0, 247]",247,l,0.5192588458303362,colour,0.5
120,22,1,2,1,19,19,31.32773849624209,32.19986396585591,"[53, 0, 201]",201,l,0.3488608216866851,colour,0.5
120,22,1,2,1,20,20,32.71709765843116,33.67985760141164,"[9, 0, 245]",245,l,0.4394657565280795,colour,0.5
120,22,1,2,1,21,21,34.18579462473281,34.99193207593635,"[45, 0, 209]",209,l,0.28279954800382257,colour,0.5
120,22,1,2,1,22,22,35.49954412388615,36.42388286720961,"[91, 0, 163]",163,l,0.4009118308313191,colour,0.5
120,22,1,2,1,23,23,36.93710248707794,37.51985552185215,"[69, 0, 185]",185,l,0.05940252868458629,colour,0.5
120,22,1,2,1,24,24,38.03086684993468,38.57592572411522,"[55, 0, 199]",199,a,0.02182849054224789,colour,0.5
120,22,1,2,1,25,25,39.09559968300164,39.983911807183176,"[58, 0, 196]",196,l,0.36524754972197115,colour,0.5
120,22,1,2,1,26,26,40.501790224574506,41.39186953334138,"[40, 0, 214]",214,l,0.36656929505988955,colour,0.5
120,22,1,2,1,27,27,41.90808789222501,42.911886925576255,"[11, 0, 243]",243,l,0.48034652112983167,colour,0.5
120,22,1,2,1,28,28,43.42377574136481,44.255847128108144,"[34, 0, 220]",220,l,0.3088169787079096,colour,0.5
120,22,1,2,1,29,29,44.769816629588604,45.63991182600148,"[42, 0, 212]",212,l,0.3475351380184293,colour,0.5
120,22,1,2,1,30,30,46.16049162950367,47.44786608638242,"[96, 0, 158]",158,l,0.7641637655906379,colour,0.5
120,22,1,2,1,31,31,47.95730006345548,48.831860285717994,"[24, 0, 230]",230,l,0.35116560524329543,colour,0.5
120,22,1,2,1,32,32,49.34801444783807,50.35184813966043,"[70, 0, 184]",184,l,0.4805261145811528,colour,0.5
120,22,1,2,1,33,33,50.86357429716736,51.99990114499815,"[17, 0, 237]",237,l,0.612951529212296,colour,0.5
120,22,1,2,1,34,34,52.5211997164879,53.12790013034828,"[44, 0, 210]",210,a,0.08344206749461591,colour,0.5
120,22,1,2,1,35,35,53.64608102128841,54.67980876448564,"[75, 0, 179]",179,l,0.510411107679829,colour,0.5
120,22,1,2,1,36,36,55.19286848278716,55.91187904868275,"[90, 0, 164]",164,l,0.19568211492151022,colour,0.5
120,22,1,2,1,37,37,56.428716926369816,57.079864375526085,"[66, 0, 188]",188,l,0.1280942962039262,colour,0.5
120,22,1,2,1,38,38,57.60063401260413,58.54384976858273,"[62, 0, 192]",192,l,0.4198687942698598,colour,0.5
120,22,1,2,1,39,39,59.05372327729128,59.887856838759035,"[88, 0, 166]",166,l,0.3107976275496185,colour,0.5
120,22,1,2,1,40,40,60.39886737940833,61.231807589298114,"[6, 0, 248]",248,l,0.3096763496287167,colour,0.5
120,22,1,2,1,41,41,61.7425822163932,62.28787306533195,"[10, 0, 244]",244,a,0.021958853350952268,colour,0.5
120,22,1,2,1,42,42,62.80503113940358,63.33589188475162,"[12, 0, 242]",242,a,0.007567346561700106,colour,0.5
120,22,1,2,1,43,43,63.86756670870818,64.95182561175898,"[54, 0, 200]",200,l,0.5609273014124483,colour,0.5
120,22,1,2,1,44,44,65.46265025716275,66.21581470686942,"[41, 0, 213]",213,l,0.2297572297975421,colour,0.5
120,22,1,2,1,45,45,66.7282568756491,67.68784006102942,"[95, 0, 159]",159,l,0.43643038952723145,colour,0.5
120,22,1,2,1,46,46,68.1969766849652,69.07182126352564,"[18, 0, 236]",236,l,0.3515106139238924,colour,0.5
120,22,1,2,1,47,47,69.58900099922903,70.35180796729401,"[29, 0, 225]",225,l,0.23951711389236152,colour,0.5
120,22,1,2,1,48,48,70.87030787300318,71.50382049800828,"[57, 0, 197]",197,l,0.11057959473691881,colour,0.5
120,22,1,2,1,49,49,72.01059011067264,72.79981032409705,"[14, 0, 240]",240,l,0.27559611457400024,colour,0.5
120,22,1,2,1,50,50,73.31333320471458,74.1438587482553,"[48, 0, 206]",206,l,0.30714549869298935,colour,0.5
120,22,1,2,2,1,51,78.54900441784412,79.46381958434358,"[74, 0, 180]",180,l,0.39083726424723864,colour,0.5
120,22,1,2,2,2,52,79.97161752730608,80.80781641462818,"[57, 0, 197]",197,l,0.3128995809238404,colour,0.5
120,22,1,2,2,3,53,81.31540246889926,82.151775829494,"[2, 0, 252]",252,l,0.31313391868025064,colour,0.5
120,22,1,2,2,4,54,82.66939194593579,83.38381893839687,"[11, 0, 243]",243,l,0.20003922702744603,colour,0.5
120,22,1,2,2,5,55,83.89484680793248,84.51975430361927,"[53, 0, 201]",201,l,0.10176809038966894,colour,0.5
120,22,1,2,2,6,56,85.03553943242878,85.57582017336972,"[63, 0, 191]",191,l,0.017005458939820528,colour,0.5
120,22,1,2,2,7,57,86.08231921424158,87.8558202679269,"[33, 0, 221]",221,l,1.2501820549368858,colour,0.5
120,22,1,2,2,8,58,88.36461818474345,89.2718049583491,"[38, 0, 216]",216,l,0.38386580580845475,colour,0.5
120,22,1,2,2,9,59,89.78640224947594,90.68777547031641,"[24, 0, 230]",230,l,0.37793094851076603,colour,0.5
120,22,1,2,2,10,60,91.20841277530417,92.07974897883832,"[93, 0, 161]",161,l,0.34804871235974133,colour,0.5
120,22,1,2,2,11,61,92.60003969981335,93.47980813425966,"[0, 0, 254]",254,l,0.35642304830253124,colour,0.5
120,22,1,2,2,12,62,93.99064735206775,95.08776018908247,"[45, 0, 209]",209,l,0.5738103799521923,colour,0.5
120,22,1,2,2,13,63,95.59997944138013,96.47177605004981,"[16, 0, 238]",238,l,0.3475012672133744,colour,0.5
120,22,1,2,2,14,64,96.99163944879547,97.85581514798105,"[43, 0, 211]",211,l,0.34103235555812716,colour,0.5
120,22,1,2,2,15,65,98.36658111051656,99.21574932849035,"[87, 0, 167]",167,l,0.3257574534509331,colour,0.5
120,22,1,2,2,16,66,99.72598320571706,100.33583083865233,"[51, 0, 203]",203,l,0.0864935819990933,colour,0.5
120,22,1,2,2,17,67,100.85105591942556,102.1197920339182,"[61, 0, 193]",193,l,0.7456136445980519,colour,0.5
120,22,1,2,2,18,68,102.63360399706289,103.50374881806783,"[44, 0, 210]",210,l,0.3469112867023796,colour,0.5
120,22,1,2,2,19,69,104.0241210651584,104.8318177505862,"[9, 0, 245]",245,l,0.28431112691760063,colour,0.5
120,22,1,2,2,20,70,105.35216164053418,106.19177556177601,"[19, 0, 235]",235,l,0.3162598703056574,colour,0.5
120,22,1,2,2,21,71,106.71161020966247,107.49576478288509,"[28, 0, 226]",226,l,0.25852133869193494,colour,0.5
120,22,1,2,2,22,72,108.011072965106,108.63181357574649,"[77, 0, 177]",177,l,0.09784223884344101,colour,0.5
120,22,1,2,2,23,73,109.15132408891805,110.08776649064384,"[55, 0, 199]",199,l,0.41300800652243197,colour,0.5
120,22,1,2,2,24,74,110.6032479647547,111.16776871192269,"[59, 0, 195]",195,l,0.04146365565247834,colour,0.5
120,22,1,2,2,25,75,111.68137587560341,112.84773698379286,"[89, 0, 165]",165,l,0.6434095674194396,colour,0.5
120,22,1,2,2,26,76,113.3688685647212,114.6797449614387,"[72, 0, 182]",182,l,0.7875727578066289,colour,0.5
120,22,1,2,2,27,77,115.19833663315512,116.01574318460189,"[7, 0, 247]",247,l,0.2942919584456831,colour,0.5
120,22,1,2,2,28,78,116.52629253198393,117.2637756310869,"[17, 0, 237]",237,a,0.21424641413614154,colour,0.5
120,22,1,2,2,29,79,117.77603032928891,118.39176516421139,"[56, 0, 198]",198,l,0.0924071716144681,colour,0.5
120,22,1,2,2,30,80,118.90110107394867,119.99173200246878,"[32, 0, 222]",222,l,0.5660268121864647,colour,0.5
120,22,1,2,2,31,81,120.51177460071631,121.05572637519799,"[4, 0, 250]",250,a,0.020673341816291213,colour,0.5
120,22,1,2,2,32,82,121.57425700081512,122.45568628166802,"[60, 0, 194]",194,l,0.35809886059723794,colour,0.5
120,22,1,2,2,33,83,122.96491506532766,123.86369205708615,"[84, 0, 170]",170,l,0.37550052837468684,colour,0.5
120,22,1,2,2,34,84,124.37115050549619,125.03975082188845,"[86, 0, 168]",168,l,0.14533409313298762,colour,0.5
120,22,1,2,2,35,85,125.55997419543564,126.75971646280959,"[18, 0, 236]",236,l,0.6766867514234036,colour,0.5
120,22,1,2,2,36,86,127.27869489090517,128.26375160645694,"[71, 0, 183]",183,l,0.46189564908854663,colour,0.5
120,22,1,2,2,37,87,128.77870060154237,129.6237153254915,"[20, 0, 234]",234,l,0.3198694637976587,colour,0.5
120,22,1,2,2,38,88,130.1398655490484,131.79172585858032,"[58, 0, 196]",196,l,1.1284857785794884,colour,0.5
120,22,1,2,2,39,89,132.29588821413927,133.1117059928365,"[76, 0, 178]",178,l,0.2927535979542881,colour,0.5
120,22,1,2,2,40,90,133.62402449408546,134.39967436878942,"[73, 0, 181]",181,l,0.2523580512497574,colour,0.5
120,22,1,2,2,41,91,134.92085045413114,136.31173064769246,"[5, 0, 249]",249,l,0.8675426840782166,colour,0.5
120,22,1,2,2,42,92,136.8271365032997,137.7117452987004,"[82, 0, 172]",172,l,0.35970890102908015,colour,0.5
120,22,1,2,2,43,93,138.21952236793004,139.19969973224215,"[22, 0, 232]",232,l,0.45689775003120303,colour,0.5
120,22,1,2,2,44,94,139.71948318043724,140.61571514280513,"[52, 0, 202]",202,l,0.37239860161207616,colour,0.5
120,22,1,2,2,45,95,141.12571586342528,142.14374256390147,"[36, 0, 218]",218,l,0.49468131409958005,colour,0.5
120,22,1,2,2,46,96,142.65698817721568,143.48768031736836,"[92, 0, 162]",162,l,0.3061790019273758,colour,0.5
120,22,1,2,2,47,97,144.00186761515215,144.95164641202427,"[40, 0, 214]",214,l,0.4264377427753061,colour,0.5
120,22,1,2,2,48,98,145.47054528305307,146.4877153695561,"[47, 0, 207]",207,l,0.49378334637731314,colour,0.5
120,22,1,2,2,49,99,147.00184752908535,148.08770190016367,"[39, 0, 215]",215,l,0.559908029390499,colour,0.5
120,22,1,2,2,50,100,148.5980897708796,150.27969919680618,"[99, 0, 155]",155,l,1.1583258733153343,colour,0.5
120,22,1,2,3,1,101,155.00349616631866,155.9436619831249,"[64, 0, 190]",190,l,0.41394890332594514,colour,0.5
120,22,1,2,3,2,102,156.45949161658064,157.0157278245315,"[56, 0, 198]",198,l,0.03348789131268859,colour,0.5
120,22,1,2,3,3,103,157.52186019532382,158.6716242621187,"[37, 0, 217]",217,l,0.6262130932882428,colour,0.5
120,22,1,2,3,4,104,159.1782162503805,159.83969741663896,"[65, 0, 189]",189,l,0.1382866227068007,colour,0.5
120,22,1,2,3,5,105,160.35009985952638,161.22362820687704,"[21, 0, 233]",233,l,0.35017035785131156,colour,0.5
120,22,1,2,3,6,106,161.74218758312054,162.56767229852267,"[48, 0, 206]",206,l,0.30218028905801475,colour,0.5
120,22,1,2,3,7,107,163.08578623575158,163.61565449042246,"[18, 0, 236]",236,a,0.007262510014697909,colour,0.5
120,22,1,2,3,8,108,164.13272394938394,166.96765032201074,"[31, 0, 223]",223,l,2.311526241712272,colour,0.5
120,22,1,2,3,9,109,167.4778645071201,168.40766982524656,"[17, 0, 237]",237,l,0.40639022132381797,colour,0.5
120,22,1,2,3,10,110,168.91530865477398,169.799649635097,"[2, 0, 252]",252,l,0.36089673871174455,colour,0.5
120,22,1,2,3,11,111,170.30591355031356,172.28763636411168,"[0, 0, 254]",254,l,1.4581580555532128,colour,0.5
120,22,1,2,3,12,112,172.8072098926641,174.83961982885376,"[67, 0, 187]",187,l,1.5092902234755456,colour,0.5
120,22,1,2,3,13,113,175.3535444319714,177.4717024010606,"[54, 0, 200]",200,l,1.5948610256891698,colour,0.5
120,22,1,2,3,14,114,177.97979927272536,178.51968026068062,"[51, 0, 203]",203,l,0.016461952356621623,colour,0.5
120,22,1,2,3,15,115,179.0150720719248,180.13560611056164,"[23, 0, 231]",231,l,0.6015461585484445,colour,0.5
120,22,1,2,3,16,116,180.65112421219237,181.94362102309242,"[68, 0, 186]",186,l,0.769041541730985,colour,0.5
120,22,1,2,3,17,117,182.4505099710077,184.47962775314227,"[19, 0, 235]",235,l,1.5065892313141376,colour,0.5
120,22,1,2,3,18,118,184.99750065687113,185.64760796003975,"[98, 0, 156]",156,l,0.12687928276136518,colour,0.5
120,22,1,2,3,19,119,186.15359145705588,187.70360608841293,"[97, 0, 157]",157,l,1.0266601864714175,colour,0.5
120,22,1,2,3,20,120,188.21713211992756,190.31959534762427,"[83, 0, 171]",171,l,1.5791497428435832,colour,0.5
120,22,1,2,3,21,121,190.82647760002874,191.3996239565313,"[78, 0, 176]",176,l,0.0596077220980078,colour,0.5
120,22,1,2,3,22,122,191.91029933444224,194.37561710667796,"[30, 0, 224]",224,l,1.9319049082696438,colour,0.5
120,22,1,2,3,23,123,194.88934399932623,195.48757555452175,"[52, 0, 202]",202,l,0.074870808981359,colour,0.5
120,22,1,2,3,24,124,195.99873339314945,197.55159867787734,"[74, 0, 180]",180,l,1.0295206860173494,colour,0.5
120,22,1,2,3,25,125,198.06121106701903,199.36757320701145,"[27, 0, 227]",227,l,0.7831435718107969,colour,0.5
120,22,1,2,3,26,126,199.8737213315908,201.64762213849463,"[86, 0, 168]",168,l,1.2500765044242144,colour,0.5
120,22,1,2,3,27,127,202.15628890460357,203.72762829833664,"[9, 0, 245]",245,l,1.0480806534178555,colour,0.5
120,22,1,2,3,28,128,204.23436404019594,205.62360544246621,"[87, 0, 167]",167,l,0.8658062191680074,colour,0.5
120,22,1,2,3,29,129,206.14069735072553,207.12757638935,"[71, 0, 183]",183,l,0.4635986366774887,colour,0.5
120,22,1,2,3,30,130,207.64202126231976,208.52757331728935,"[26, 0, 228]",228,l,0.362095998134464,colour,0.5
120,22,1,2,3,31,131,209.04834216670133,210.14360196096823,"[45, 0, 209]",209,l,0.5719561555888504,colour,0.5
120,22,1,2,3,32,132,210.6576364468783,211.5995840204414,"[12, 0, 242]",242,l,0.4185722549445927,colour,0.5
120,22,1,2,3,33,133,212.11083441297524,212.6475949632004,"[24, 0, 230]",230,a,0.013491176068782806,colour,0.5
120,22,1,2,3,34,134,213.15772171434946,214.27958143688738,"[22, 0, 232]",232,l,0.5985052776522934,colour,0.5
120,22,1,2,3,35,135,214.79824124393053,215.7515756774228,"[6, 0, 248]",248,l,0.42821201658807695,colour,0.5
120,22,1,2,3,36,136,216.26873926538974,217.39955779048614,"[79, 0, 175]",175,l,0.6075605724472553,colour,0.5
120,22,1,2,3,37,137,217.90931629622355,218.86357075278647,"[55, 0, 199]",199,l,0.4308381781447679,colour,0.5
120,22,1,2,3,38,138,219.3794082631357,220.29552745167166,"[66, 0, 188]",188,l,0.39274386991746724,colour,0.5
120,22,1,2,3,39,139,220.8168894322589,221.5915133394301,"[89, 0, 165]",165,l,0.251578631112352,colour,0.5
120,22,1,2,3,40,140,222.09824553667568,222.97564105247147,"[40, 0, 214]",214,l,0.35399656649678946,colour,0.5
120,22,1,2,3,41,141,223.48879962600768,224.11157366074622,"[47, 0, 207]",207,a,0.09950702358037233,colour,0.5
120,22,1,2,3,42,142,224.63051034114324,225.55956814065576,"[25, 0, 229]",229,l,0.40571556403301656,colour,0.5
120,22,1,2,3,43,143,226.06789659359492,227.22352344403043,"[58, 0, 196]",196,l,0.6318817108403891,colour,0.5
120,22,1,2,3,44,144,227.73986389511265,228.5596063437406,"[15, 0, 239]",239,l,0.2967357696034014,colour,0.5
120,22,1,2,3,45,145,229.067968667252,229.95955049642362,"[96, 0, 158]",158,l,0.36863304511643946,colour,0.5
120,22,1,2,3,46,146,230.47553018503822,231.3195402091369,"[73, 0, 181]",181,l,0.3206985085271299,colour,0.5
120,22,1,2,3,47,147,231.83491140650585,232.47152005066164,"[72, 0, 182]",182,l,0.11326522706076503,colour,0.5
120,22,1,2,3,48,148,232.9911987357773,233.85553118539974,"[44, 0, 210]",210,l,0.3410158141050488,colour,0.5
120,22,1,2,3,49,149,234.36775122536346,235.2715265096631,"[16, 0, 238]",238,l,0.38061579316854477,colour,0.5
120,22,1,2,3,50,150,235.78949236078188,236.55154314567335,"[62, 0, 192]",192,l,0.2387510845437646,colour,0.5
120,22,1,2,4,1,151,241.1650665383786,241.86348804505542,"[31, 0, 223]",223,a,0.1742289587855339,colour,0.5
120,22,1,2,4,2,152,242.38457039534114,243.27953772014007,"[84, 0, 170]",170,l,0.3715809783898294,colour,0.5
120,22,1,2,4,3,153,243.79151357570663,244.70349463028833,"[21, 0, 233]",233,l,0.3892705470789224,colour,0.5
120,22,1,2,4,4,154,245.212721838383,245.74354162393138,"[54, 0, 200]",200,l,0.007452737540006638,colour,0.5
120,22,1,2,4,5,155,246.25956030306406,247.4554999929387,"[66, 0, 188]",188,l,0.6724702422507107,colour,0.5
120,22,1,2,4,6,156,247.9640974421054,248.8715736924205,"[53, 0, 201]",201,l,0.3843155773356557,colour,0.5
120,22,1,2,4,7,157,249.38563141506165,249.9355011114385,"[30, 0, 224]",224,a,0.026573146926239133,colour,0.5
120,22,1,2,4,8,158,250.44488507020287,251.02350154612213,"[25, 0, 229]",229,a,0.04977064416743815,colour,0.5
120,22,1,2,4,9,159,251.54494268959388,252.57559056160972,"[19, 0, 235]",235,l,0.5075573036447167,colour,0.5
120,22,1,2,4,10,160,253.0917415728327,254.02350587840192,"[61, 0, 193]",193,l,0.4085000513587147,colour,0.5
120,22,1,2,4,11,161,254.53075283183716,255.35952930757776,"[34, 0, 220]",220,l,0.3055622400715947,colour,0.5
120,22,1,2,4,12,162,255.8744306473527,256.66348387044854,"[86, 0, 168]",168,l,0.2657432828564197,colour,0.5
120,22,1,2,4,13,163,257.1709104171023,258.00748424534686,"[40, 0, 214]",214,l,0.31319142039865255,colour,0.5
120,22,1,2,4,14,164,258.5147225339897,259.255464310525,"[51, 0, 203]",203,l,0.2173534610774368,colour,0.5
120,22,1,2,4,15,165,259.7646923062857,260.6395349157974,"[24, 0, 230]",230,l,0.35008607478812337,colour,0.5
120,22,1,2,4,16,166,261.1574216042645,261.70350723317824,"[9, 0, 245]",245,a,0.022509055444970727,colour,0.5
120,22,1,2,4,17,167,262.2200989576522,263.06348906923085,"[22, 0, 232]",232,l,0.3200955311767757,colour,0.5
120,22,1,2,4,18,168,263.57952901604585,264.1435125579592,"[50, 0, 204]",204,l,0.04069093079306185,colour,0.5
120,22,1,2,4,19,169,264.65758800390176,265.63144336105324,"[36, 0, 218]",218,l,0.4505725922062993,colour,0.5
120,22,1,2,4,20,170,266.1419206347782,266.9434993248433,"[60, 0, 194]",194,l,0.27858618926256895,colour,0.5
120,22,1,2,4,21,171,267.4558260969352,268.2314921191428,"[74, 0, 180]",180,l,0.2523017313797027,colour,0.5
120,22,1,2,4,22,172,268.7526890784502,269.6474177327473,"[26, 0, 228]",228,l,0.3718007442075759,colour,0.5
120,22,1,2,4,23,173,270.1588110909797,270.88750159018673,"[81, 0, 173]",173,l,0.20517536555416882,colour,0.5
120,22,1,2,4,24,174,271.4089415522758,272.1994764220435,"[94, 0, 160]",160,l,0.2672123264055699,colour,0.5
120,22,1,2,4,25,175,272.7072881497443,273.6794606051408,"[47, 0, 207]",207,l,0.4488388844765723,colour,0.5
120,22,1,2,4,26,176,274.1916664666496,274.8714846833609,"[99, 0, 155]",155,l,0.1565161533653736,colour,0.5
120,22,1,2,4,27,177,275.37925072479993,276.26346646249294,"[10, 0, 244]",244,l,0.3611677046865225,colour,0.5
120,22,1,2,4,28,178,276.77121123624966,277.6074609295465,"[85, 0, 169]",169,l,0.3129255746025592,colour,0.5
120,22,1,2,4,29,179,278.1149300117977,278.7914667080622,"[90, 0, 164]",164,l,0.1531806760467589,colour,0.5
120,22,1,2,4,30,180,279.3024217165075,280.12745784199797,"[52, 0, 202]",202,l,0.30207788944244385,colour,0.5
120,22,1,2,4,31,181,280.64610622730106,281.29544041189365,"[48, 0, 206]",206,l,0.12349851336330175,colour,0.5
120,22,1,2,4,32,182,281.8047696261201,283.3754449961707,"[68, 0, 186]",186,l,1.0477313122246414,colour,0.5
120,22,1,2,4,33,183,283.8829195923172,284.7594179280568,"[28, 0, 226]",226,l,0.35351961967535317,colour,0.5
120,22,1,2,4,34,184,285.27352251834236,286.0794638346415,"[78, 0, 176]",176,l,0.28260735142976046,colour,0.5
120,22,1,2,4,35,185,286.586034555221,287.4634170741774,"[43, 0, 211]",211,l,0.3541036923415959,colour,0.5
120,22,1,2,4,36,186,287.9787717300933,288.80752693815157,"[87, 0, 167]",167,l,0.30633732792921364,colour,0.5
120,22,1,2,4,37,187,289.3216807593126,291.1994854803197,"[63, 0, 191]",191,l,1.3544821778777987,colour,0.5
120,22,1,2,4,38,188,291.71233252226375,292.6474649941083,"[1, 0, 253]",253,l,0.4119887345004827,colour,0.5
120,22,1,2,4,39,189,293.16543478379026,294.03143950132653,"[12, 0, 242]",242,l,0.3429271460045129,colour,0.5
120,22,1,2,4,40,190,294.54038195940666,295.39143630326726,"[44, 0, 210]",210,l,0.3276723299641162,colour,0.5
120,22,1,2,4,41,191,295.8998301345855,296.83144084038213,"[37, 0, 217]",217,l,0.407134982990101,colour,0.5
120,22,1,2,4,42,192,297.33844597265124,298.34344268986024,"[18, 0, 236]",236,l,0.48155917110852897,colour,0.5
120,22,1,2,4,43,193,298.8540582032874,300.5274945483543,"[64, 0, 190]",190,l,1.1503319921903312,colour,0.5
120,22,1,2,4,44,194,301.04293585009873,301.99150357209146,"[45, 0, 209]",209,l,0.4253247354645282,colour,0.5
120,22,1,2,4,45,195,302.5116560533643,303.06338351848535,"[98, 0, 156]",156,l,0.028584909392520785,colour,0.5
120,22,1,2,4,46,196,303.5741900471039,304.3114183282014,"[62, 0, 192]",192,l,0.21390534401871264,colour,0.5
120,22,1,2,4,47,197,304.824193690205,306.71940322965384,"[80, 0, 174]",174,l,1.3705132631585002,colour,0.5
120,22,1,2,4,48,198,307.2318741490599,309.5114146261476,"[82, 0, 172]",172,l,1.756236444460228,colour,0.5
120,22,1,2,4,49,199,310.0235468384344,310.91942552127875,"[5, 0, 249]",249,l,0.3727180100977421,colour,0.5
120,22,1,2,4,50,200,311.429660580121,312.3274249951355,"[38, 0, 216]",216,l,0.3744206039700657,colour,0.5
120,22,1,2,5,1,201,318.06068804021925,319.3114139959216,"[96, 0, 158]",158,l,0.7267866504844278,colour,0.4
120,22,1,2,5,2,202,319.8270998757798,320.5353525527753,"[60, 0, 194]",194,l,0.1890454248059541,colour,0.4
120,22,1,2,5,3,203,321.0318585529458,323.46337099419907,"[26, 0, 228]",228,l,1.9083769745193422,colour,0.4
120,22,1,2,5,4,204,323.98483025468886,325.7993574019056,"[79, 0, 175]",175,l,1.2915082587860525,colour,0.4
120,22,1,2,5,5,205,326.31296456535347,327.9193825921975,"[73, 0, 181]",181,l,1.0830816989764571,colour,0.4
120,22,1,2,5,6,206,328.43935744906776,329.9753283392638,"[52, 0, 202]",202,l,1.013356087030843,colour,0.4
120,22,1,2,5,7,207,330.4862888613716,331.7433718764223,"[68, 0, 186]",186,l,0.7341302926652133,colour,0.4
120,22,1,2,5,8,208,332.25185589841567,333.93538847146556,"[66, 0, 188]",188,l,1.1604538201354444,colour,0.4
120,22,1,2,5,9,209,334.45634479122236,335.98340847250074,"[89, 0, 165]",165,l,1.0038474760949612,colour,0.4
120,22,1,2,5,10,210,336.5031615945045,339.6393576853443,"[21, 0, 233]",233,l,2.612895996775478,colour,0.4
120,22,1,2,5,11,211,340.16075314278714,341.6313417488709,"[75, 0, 179]",179,l,0.9473952439147979,colour,0.4
120,22,1,2,5,12,212,342.14513638289645,343.15133393509313,"[13, 0, 241]",241,l,0.48308729170821607,colour,0.4
120,22,1,2,5,13,213,343.66080217668787,344.5753207774833,"[1, 0, 253]",253,l,0.3913453249260783,colour,0.4
120,22,1,2,5,14,214,345.08262405055575,345.8872904891614,"[15, 0, 239]",239,l,0.28139194450341165,colour,0.4
120,22,1,2,5,15,215,346.39514553989284,346.9993800872471,"[88, 0, 166]",166,l,0.08115658210590482,colour,0.4
120,22,1,2,5,16,216,347.50593229732476,348.0793114164844,"[64, 0, 190]",190,l,0.050049880519509315,colour,0.4
120,22,1,2,5,17,217,348.59965373110026,349.4553196115885,"[16, 0, 238]",238,l,0.3322468448895961,colour,0.4
120,22,1,2,5,18,218,349.97473796480335,350.94329413142987,"[53, 0, 201]",201,l,0.44529427541419864,colour,0.4
120,22,1,2,5,19,219,351.46039037173614,352.0953641633969,"[58, 0, 196]",196,l,0.11174695263616741,colour,0.4
120,22,1,2,5,20,220,352.6165831780527,353.1753372400999,"[27, 0, 227]",227,a,0.03536417125724256,colour,0.4
120,22,1,2,5,21,221,353.69465713202953,354.95130100939423,"[22, 0, 232]",232,l,0.7332870694808662,colour,0.4
120,22,1,2,5,22,222,355.4603722549509,356.3913555650506,"[41, 0, 213]",213,l,0.407787584932521,colour,0.4
120,22,1,2,5,23,223,356.8994118706323,357.70331227988936,"[20, 0, 234]",234,l,0.2804246600717306,colour,0.4
120,22,1,2,5,24,224,358.2119026398286,358.9193010663148,"[55, 0, 199]",199,l,0.18434251635335386,colour,0.4
120,22,1,2,5,25,225,359.4307152982801,360.7113266410306,"[9, 0, 245]",245,l,0.7572691072709858,colour,0.4
120,22,1,2,5,26,226,361.2278506238945,362.57531486963853,"[82, 0, 172]",172,l,0.8242941205389798,colour,0.4
120,22,1,2,5,27,227,363.08811149932444,364.54329877882265,"[77, 0, 177]",177,l,0.9321258557029068,colour,0.4
120,22,1,2,5,28,228,365.05730018159375,365.98360224463977,"[50, 0, 204]",204,l,0.4027747199870646,colour,0.4
120,22,1,2,5,29,229,366.49639966199175,368.5273011701647,"[70, 0, 184]",184,l,1.507919641211629,colour,0.4
120,22,1,2,5,30,230,369.04322650819086,370.1273739528842,"[84, 0, 170]",170,l,0.5531846934463829,colour,0.4
120,22,1,2,5,31,231,370.64496840769425,371.5193372212816,"[91, 0, 163]",163,l,0.3512294082902372,colour,0.4
120,22,1,2,5,32,232,372.0356174139306,372.96728404588066,"[56, 0, 198]",198,l,0.4162186346948147,colour,0.4
120,22,1,2,5,33,233,373.4813634301536,374.39927304023877,"[36, 0, 218]",218,l,0.39457643311470747,colour,0.4
120,22,1,2,5,34,234,374.91158287692815,375.73527520149946,"[51, 0, 203]",203,l,0.29904606682248414,colour,0.4
120,22,1,2,5,35,235,376.2552764462307,377.11923710559495,"[33, 0, 221]",221,l,0.34075666358694434,colour,0.4
120,22,1,2,5,36,236,377.6386093790643,378.81530341668986,"[92, 0, 162]",162,l,0.6533502265810966,colour,0.4
120,22,1,2,5,37,237,379.32600321318023,380.29529468901455,"[31, 0, 223]",223,l,0.44628715980798006,colour,0.4
120,22,1,2,5,38,238,380.8031788843218,381.62322735087946,"[8, 0, 246]",246,l,0.2958106263540685,colour,0.4
120,22,1,2,5,39,239,382.1313328873366,383.1512405935209,"[62, 0, 192]",192,l,0.5042486076708883,colour,0.4
120,22,1,2,5,40,240,383.67092676181346,384.42328737303615,"[12, 0, 242]",242,l,0.23523522610776126,colour,0.4
120,22,1,2,5,41,241,384.93032125593163,386.35929221264087,"[87, 0, 167]",167,l,0.9060611634049565,colour,0.4
120,22,1,2,5,42,242,386.8677841112949,387.40723659517244,"[25, 0, 229]",229,a,0.01600942388176918,colour,0.4
120,22,1,2,5,43,243,387.91472733882256,388.47929455991834,"[6, 0, 248]",248,a,0.0411670901812613,colour,0.4
120,22,1,2,5,44,244,388.99287730501965,389.51930295675993,"[17, 0, 237]",237,a,0.0031042899936437607,colour,0.4
120,22,1,2,5,45,245,390.0397390066646,390.847244676901,"[76, 0, 178]",178,l,0.28423550841398537,colour,0.4
120,22,1,2,5,46,246,391.3678106958978,392.18326259218156,"[69, 0, 185]",185,l,0.29205412860028446,colour,0.4
120,22,1,2,5,47,247,392.69729904737324,393.28726614941843,"[97, 0, 157]",157,l,0.06626252876594663,colour,0.4
120,22,1,2,5,48,248,393.8071137943771,394.4712313618511,"[49, 0, 205]",205,l,0.1408147164620459,colour,0.4
120,22,1,2,5,49,249,394.9790616002865,395.9592019431293,"[86, 0, 168]",168,l,0.45803202502429485,colour,0.4
120,22,1,2,5,50,250,396.47808230365627,397.11918708728626,"[85, 0, 169]",169,l,0.11795671400614083,colour,0.4
120,22,1,2,6,1,251,401.668296267977,402.54324994189665,"[86, 0, 168]",168,l,0.350933630252257,colour,0.28
120,22,1,2,6,2,252,403.0596597096883,403.91121029900387,"[39, 0, 215]",215,l,0.32822607667185366,colour,0.28
120,22,1,2,6,3,253,404.4190641681198,405.143198663136,"[32, 0, 222]",222,a,0.200895840767771,colour,0.28
120,22,1,2,6,4,254,405.6533722821623,407.10322177410126,"[92, 0, 162]",162,l,0.92645408725366,colour,0.28
120,22,1,2,6,5,255,407.6225298505742,408.63127440121025,"[64, 0, 190]",190,l,0.48538459185510874,colour,0.28
120,22,1,2,6,6,256,409.13821927504614,409.73526141699404,"[80, 0, 174]",174,l,0.07375150010921061,colour,0.28
120,22,1,2,6,7,257,410.2474830322899,410.7912213425152,"[82, 0, 172]",172,l,0.020381108624860644,colour,0.28
120,22,1,2,6,8,258,411.31153569417074,411.94324608216994,"[62, 0, 192]",192,a,0.1085508968681097,colour,0.28
120,22,1,2,6,9,259,412.45111412974074,412.97522672708146,"[78, 0, 176]",176,l,0.0012839362025260925,colour,0.28
120,22,1,2,6,10,260,413.498019548133,414.2632033736445,"[60, 0, 194]",194,l,0.24178684526123106,colour,0.28
120,22,1,2,6,11,261,414.77936738193966,415.5672705762554,"[19, 0, 235]",235,l,0.2646082201972604,colour,0.28
120,22,1,2,6,12,262,416.0761905850377,418.71126165636815,"[71, 0, 183]",183,l,2.1117942139972,colour,0.28
120,22,1,2,6,13,263,419.21814509038813,420.847244676901,"[96, 0, 158]",158,l,1.1057447479106486,colour,0.28
120,22,1,2,6,14,264,421.358806601027,421.9991863153409,"[75, 0, 179]",179,l,0.1171193984337151,colour,0.28
120,22,1,2,6,15,265,422.51627940521576,423.51923757838085,"[54, 0, 200]",200,l,0.4794690334238112,colour,0.28
120,22,1,2,6,16,266,424.03183807292953,425.7591765008401,"[79, 0, 175]",175,l,1.203844561940059,colour,0.28
120,22,1,2,6,17,267,426.26871484704316,427.38318524090573,"[36, 0, 218]",218,l,0.5915318499319255,colour,0.28
120,22,1,2,6,18,268,427.8936459731776,428.89520166278817,"[18, 0, 236]",236,l,0.4781921864487231,colour,0.28
120,22,1,2,6,19,269,429.40853352844715,430.2792632097844,"[51, 0, 203]",203,l,0.34754065168090165,colour,0.28
120,22,1,2,6,20,270,430.7990907684434,431.43922472326085,"[99, 0, 155]",155,l,0.11551802302710712,colour,0.28
120,22,1,2,6,21,271,431.9569014918525,432.49518110393547,"[91, 0, 163]",163,l,0.0148853890132159,colour,0.28
120,22,1,2,6,22,272,433.0038797718007,434.41519581805915,"[16, 0, 238]",238,l,0.8879765677265823,colour,0.28
120,22,1,2,6,23,273,434.9256762426812,435.75917689455673,"[46, 0, 208]",208,l,0.31007846584543586,colour,0.28
120,22,1,2,6,24,274,436.2694245565217,436.7992148299236,"[73, 0, 181]",181,l,0.006889144890010357,colour,0.28
120,22,1,2,6,25,275,437.3177623907104,438.11115224612877,"[57, 0, 197]",197,l,0.26999681373126805,colour,0.28
120,22,1,2,6,26,276,438.6303409875836,440.399171034107,"[94, 0, 160]",160,l,1.2456122662406415,colour,0.28
120,22,1,2,6,27,277,440.91152380011044,441.79125639470294,"[35, 0, 219]",219,l,0.35656483261846006,colour,0.28
120,22,1,2,6,28,278,442.3022031323053,444.15121617517434,"[83, 0, 171]",171,l,1.3258444932289422,colour,0.28
120,22,1,2,6,29,279,444.6615571784787,445.50318128685467,"[26, 0, 228]",228,l,0.31855362630449235,colour,0.28
120,22,1,2,6,30,280,446.0209407629445,446.79915890377015,"[50, 0, 204]",204,l,0.2549105635844171,colour,0.28
120,22,1,2,6,31,281,447.3199679253157,448.4311701897532,"[95, 0, 159]",159,l,0.5878265521023422,colour,0.28
120,22,1,2,6,32,282,448.9449478883762,449.67111068754457,"[69, 0, 185]",185,l,0.20306632318533957,colour,0.28
120,22,1,2,6,33,283,450.1792973561678,450.97515386575833,"[53, 0, 201]",201,l,0.27254066173918545,colour,0.28
120,22,1,2,6,34,284,451.4918767407071,452.14316242956556,"[85, 0, 169]",169,l,0.1279785055667162,colour,0.28
120,22,1,2,6,35,285,452.66376665141433,453.3751196798403,"[65, 0, 189]",189,l,0.18841802910901606,colour,0.28
120,22,1,2,6,36,286,453.8824379192665,455.99114635423757,"[70, 0, 184]",184,l,1.585383134894073,colour,0.28
120,22,1,2,6,37,287,456.50884714745916,457.3991399204824,"[97, 0, 157]",157,l,0.36711516487412155,colour,0.28
120,22,1,2,6,38,288,457.9150695905555,458.7431076061912,"[11, 0, 243]",243,l,0.30468869069591165,colour,0.28
120,22,1,2,6,39,289,459.25881396606565,460.15912065352313,"[34, 0, 220]",220,l,0.37697390420362353,colour,0.28
120,22,1,2,6,40,290,460.66502144304104,461.6551225313451,"[49, 0, 205]",205,l,0.46677184966392815,colour,0.28
120,22,1,2,6,41,291,462.16500706761144,463.4551081166137,"[74, 0, 180]",180,l,0.7655059909448028,colour,0.28
120,22,1,2,6,42,292,463.96310140704736,465.1591139580123,"[93, 0, 161]",161,l,0.6717081509996206,colour,0.28
120,22,1,2,6,43,293,465.66661021555774,466.3111343656201,"[28, 0, 226]",226,a,0.12124256673268974,colour,0.28
120,22,1,2,6,44,294,466.8229432308581,467.7271289022174,"[89, 0, 165]",165,l,0.37961306259967387,colour,0.28
120,22,1,2,6,45,295,468.2462372991722,469.40713183232583,"[61, 0, 193]",193,l,0.6376842358149588,colour,0.28
120,22,1,2,6,46,296,469.9178840103559,471.1831747647375,"[81, 0, 173]",173,l,0.7419107097666711,colour,0.28
120,22,1,2,6,47,297,471.70054906001315,472.68715437618084,"[77, 0, 177]",177,l,0.4632965575437993,colour,0.28
120,22,1,2,6,48,298,473.20055122626945,473.83110134559684,"[98, 0, 156]",156,l,0.10725711449049413,colour,0.28
120,22,1,2,6,49,299,474.34112372784875,475.24716204823926,"[1, 0, 253]",253,l,0.3827055371366441,colour,0.28
120,22,1,2,6,50,300,475.763047213899,476.7351184510626,"[58, 0, 196]",196,l,0.4472193920519203,colour,0.28
120,22,1,2,7,1,301,481.5006240482908,484.05512930545956,"[99, 0, 155]",155,l,2.0303619399201125,colour,0.14
120,22,1,2,7,2,302,484.56165118934587,485.2871105805971,"[11, 0, 243]",243,l,0.21376237808726728,colour,0.14
120,22,1,2,7,3,303,485.8003660400864,488.4390604896471,"[20, 0, 234]",234,l,2.115533382864669,colour,0.14
120,22,1,2,7,4,304,488.9489269091282,490.12706793495454,"[64, 0, 190]",190,l,0.662059725029394,colour,0.14
120,22,1,2,7,5,305,490.64478802657686,491.66309435712174,"[97, 0, 157]",157,l,0.4951968577224761,colour,0.14
120,22,1,2,7,6,306,492.1759949619882,492.7910519889556,"[56, 0, 198]",198,l,0.091669105226174,colour,0.14
120,22,1,2,7,7,307,493.30099678365514,493.9350989952218,"[98, 0, 156]",156,l,0.11068553919903934,colour,0.14
120,22,1,2,7,8,308,494.4436995952856,495.3750873846002,"[65, 0, 189]",189,l,0.40878795250318944,colour,0.14
120,22,1,2,7,9,309,495.8811441368889,496.5510567466263,"[80, 0, 174]",174,l,0.14688938902691007,colour,0.14
120,22,1,2,7,10,310,497.0685952755157,497.91105512389913,"[47, 0, 207]",207,l,0.31908768066205084,colour,0.14
120,22,1,2,7,11,311,498.42863461282104,499.1190693276003,"[42, 0, 212]",212,l,0.16785811493173242,colour,0.14
120,22,1,2,7,12,312,499.63122989679687,500.46303780097514,"[75, 0, 179]",179,l,0.3062707679346204,colour,0.14
120,22,1,2,7,13,313,500.9771309699863,501.679064396536,"[94, 0, 160]",160,l,0.17863569571636617,colour,0.14
120,22,1,2,7,14,314,502.19576954841614,502.8710506656207,"[95, 0, 159]",159,l,0.15242803748697042,colour,0.14
120,22,1,2,7,15,315,503.38344478514045,504.1350480315741,"[74, 0, 180]",180,l,0.2286599762737751,colour,0.14
120,22,1,2,7,16,316,504.6513861194253,505.4550604613032,"[60, 0, 194]",194,l,0.2802108018659055,colour,0.14
120,22,1,2,7,17,317,505.96399504248984,506.5670980720315,"[51, 0, 203]",203,l,0.08224477735348046,colour,0.14
120,22,1,2,7,18,318,507.08695162436925,507.6630986894015,"[61, 0, 193]",193,l,0.052853272296488285,colour,0.14
120,22,1,2,7,19,319,508.18065572925843,508.8552255614195,"[93, 0, 161]",161,l,0.1514938361942768,colour,0.14
120,22,1,2,7,20,320,509.36815767385997,510.24721561116166,"[28, 0, 226]",226,l,0.35570743097923696,colour,0.14
120,22,1,2,7,21,321,510.76014457293786,511.6070221858099,"[66, 0, 188]",188,l,0.32383233681321144,colour,0.14
120,22,1,2,7,22,322,512.1207888568752,512.9590321958531,"[52, 0, 202]",202,l,0.31490189116448164,colour,0.14
120,22,1,2,7,23,323,513.4779074362013,514.1430608173832,"[79, 0, 175]",175,l,0.14192851167172194,colour,0.14
120,22,1,2,7,24,324,514.6497197593562,515.4950152949896,"[87, 0, 167]",167,l,0.32220457354560494,colour,0.14
120,22,1,2,7,25,325,516.0092376451939,516.7750461094547,"[50, 0, 204]",204,l,0.24261076981201768,colour,0.14
120,22,1,2,7,26,326,517.2903503531124,518.1350637853611,"[63, 0, 191]",191,l,0.3179778242483735,colour,0.14
120,22,1,2,7,27,327,518.6514436209109,519.231047073612,"[72, 0, 182]",182,l,0.05667908722534776,colour,0.14
120,22,1,2,7,28,328,519.7447424586862,520.3110406303313,"[70, 0, 184]",184,l,0.04315994796343148,colour,0.14
120,22,1,2,7,29,329,520.8229499261361,521.4790283204056,"[82, 0, 172]",172,l,0.12976301927119493,colour,0.14
120,22,1,2,7,30,330,521.9982217878569,523.2390326841269,"[92, 0, 162]",162,l,0.7175541252363473,colour,0.14
120,22,1,2,7,31,331,523.7481846679002,524.7430764923338,"[90, 0, 164]",164,l,0.4716441116761416,colour,0.14
120,22,1,2,7,32,332,525.263807926327,525.8790421837475,"[59, 0, 195]",195,l,0.09187902486883104,colour,0.14
120,22,1,2,7,33,333,526.3888794586528,527.2709975752514,"[78, 0, 176]",176,l,0.35891451477073133,colour,0.14
120,22,1,2,7,34,334,527.7794240957592,528.4469799341168,"[96, 0, 158]",158,l,0.14429946127347648,colour,0.14
120,22,1,2,7,35,335,528.9669705447741,529.5670417521615,"[91, 0, 163]",163,l,0.07688257144764066,colour,0.14
120,22,1,2,7,36,336,530.0762213049456,530.8709801672958,"[58, 0, 196]",196,l,0.2713768482208252,colour,0.14
120,22,1,2,7,37,337,531.3887892679777,532.2310746428557,"[57, 0, 197]",197,l,0.319061293033883,colour,0.14
120,22,1,2,7,38,338,532.7492606537417,533.7430193847977,"[84, 0, 170]",170,l,0.4703495418652892,colour,0.14
120,22,1,2,7,39,339,534.2492931459565,534.9830961532425,"[76, 0, 178]",178,l,0.2104213871061802,colour,0.14
120,22,1,2,7,40,340,535.4994369980413,536.1750024715438,"[88, 0, 166]",166,l,0.15230870246887207,colour,0.14
120,22,1,2,7,41,341,536.6867487153504,537.3670127650257,"[62, 0, 192]",192,l,0.15506522660143673,colour,0.14
120,22,1,2,7,42,342,537.876667689532,538.6309727157932,"[89, 0, 165]",165,l,0.23107267357409,colour,0.14
120,22,1,2,7,43,343,539.1422203511465,539.7270158685278,"[18, 0, 236]",236,a,0.06147651863284409,colour,0.14
120,22,1,2,7,44,344,540.2358921605628,540.767082554521,"[53, 0, 201]",201,a,0.00782846612855792,colour,0.14
120,22,1,2,7,45,345,541.2984163081273,542.1030106728431,"[85, 0, 169]",169,l,0.2811977784149349,colour,0.14
120,22,1,2,7,46,346,542.612883787835,543.3109937626868,"[68, 0, 186]",186,l,0.17478743172250688,colour,0.14
120,22,1,2,7,47,347,543.8317326798569,544.750954976771,"[86, 0, 168]",168,l,0.39599230722524226,colour,0.14
120,22,1,2,7,48,348,545.2691799784079,545.8230066399556,"[15, 0, 239]",239,a,0.030682530254125595,colour,0.14
120,22,1,2,7,49,349,546.3331066097599,547.222988601774,"[54, 0, 200]",200,l,0.3665436948649585,colour,0.14
120,22,1,2,7,50,350,547.7393522898201,548.6389205169398,"[55, 0, 199]",199,l,0.3735277564264834,colour,0.14
120,22,1,2,8,1,351,553.1005881296005,553.7829694924876,"[52, 0, 202]",202,l,0.1581557320896536,colour,0.06
120,22,1,2,8,2,352,554.3062857342884,555.1749611177947,"[86, 0, 168]",168,l,0.3454142801929265,colour,0.06
120,22,1,2,8,3,353,555.681217155885,557.3189569241367,"[76, 0, 178]",178,l,1.114700006088242,colour,0.06
120,22,1,2,8,4,354,557.8375143310986,558.406984140398,"[55, 0, 199]",199,l,0.046146084321662784,colour,0.06
120,22,1,2,8,5,355,558.9155768635683,559.8229337786324,"[77, 0, 177]",177,l,0.384035159368068,colour,0.06
120,22,1,2,8,6,356,560.3375011372846,560.9829953287262,"[50, 0, 204]",204,l,0.12230713083408773,colour,0.06
120,22,1,2,8,7,357,561.4936844913755,562.4070672418457,"[65, 0, 189]",189,l,0.3901149518787861,colour,0.06
120,22,1,2,8,8,358,562.9155067591928,563.966960698599,"[95, 0, 159]",159,l,0.52668677107431,colour,0.06
120,22,1,2,8,9,359,564.4792205169797,565.0629431994166,"[67, 0, 187]",187,l,0.060349333100020885,colour,0.06
120,22,1,2,8,10,360,565.572971095331,566.3349647726864,"[99, 0, 155]",155,l,0.23773653875105083,colour,0.06
120,22,1,2,8,11,361,566.8553811302409,567.6309408142697,"[89, 0, 165]",165,l,0.2521816084627062,colour,0.06
120,22,1,2,8,12,362,568.152350056218,569.0229155041743,"[93, 0, 161]",161,l,0.34763990086503327,colour,0.06
120,22,1,2,8,13,363,569.5429250195157,570.3429346291814,"[85, 0, 169]",169,l,0.276722906390205,colour,0.06
120,22,1,2,8,14,364,570.8553326872643,571.4149161877576,"[96, 0, 158]",158,l,0.036161314230412245,colour,0.06
120,22,1,2,8,15,365,571.9334393304307,572.5349547688384,"[66, 0, 188]",188,l,0.076578916516155,colour,0.06
120,22,1,2,8,16,366,573.0443009184673,573.7589472827967,"[80, 0, 174]",174,l,0.1914321284275502,colour,0.06
120,22,1,2,8,17,367,574.2786220293492,575.1349255456589,"[71, 0, 183]",183,l,0.333144812611863,colour,0.06
120,22,1,2,8,18,368,575.6536558507942,576.5509137806948,"[19, 0, 235]",235,l,0.37391136190854013,colour,0.06
120,22,1,2,8,19,369,577.0599495801143,577.8229522893671,"[87, 0, 167]",167,l,0.23771999729797244,colour,0.06
120,22,1,2,8,20,370,578.3432654594071,579.1349424810614,"[63, 0, 191]",191,l,0.26837613992393017,colour,0.06
120,22,1,2,8,21,371,579.6558007332496,580.5268805432133,"[58, 0, 196]",196,l,0.34779625735245645,colour,0.06
120,22,1,2,8,22,372,581.0464505269192,582.5269179586321,"[72, 0, 182]",182,l,0.9571830914355814,colour,0.06
120,22,1,2,8,23,373,583.0464272901881,584.158918610774,"[53, 0, 201]",201,l,0.5894176876172423,colour,0.06
120,22,1,2,8,24,374,584.6728278538212,585.7028936219867,"[88, 0, 166]",166,l,0.5067030526697636,colour,0.06
120,22,1,2,8,25,375,586.2196866015438,586.878907488659,"[78, 0, 176]",176,l,0.13595151295885444,colour,0.06
120,22,1,2,8,26,376,587.3915769062005,588.1910197723191,"[68, 0, 186]",186,l,0.2764483962673694,colour,0.06
120,22,1,2,8,27,377,588.7040814599022,589.2309190740343,"[75, 0, 179]",179,l,0.0035217662807554007,colour,0.06
120,22,1,2,8,28,378,589.7509053524118,590.4628593889065,"[83, 0, 171]",171,l,0.18728375411592424,colour,0.06
120,22,1,2,8,29,379,590.9710968637373,591.7829108093865,"[57, 0, 197]",197,l,0.2885087316390127,colour,0.06
120,22,1,2,8,30,380,592.2991335007828,593.0148893275764,"[94, 0, 160]",160,l,0.19230764685198665,colour,0.06
120,22,1,2,8,31,381,593.5335652821232,594.1189472354017,"[70, 0, 184]",184,l,0.062078708317130804,colour,0.06
120,22,1,2,8,32,382,594.627532475628,595.2789012657013,"[62, 0, 192]",192,l,0.1283731386065483,colour,0.06
120,22,1,2,8,33,383,595.7991065222304,596.6228866747115,"[84, 0, 170]",170,l,0.3004146800376475,colour,0.06
120,22,1,2,8,34,384,597.1453971085139,597.9668980771676,"[97, 0, 157]",157,l,0.2983867696020752,colour,0.06
120,22,1,2,8,35,385,598.4733998749871,599.3108929384034,"[56, 0, 198]",198,l,0.31410041567869484,colour,0.06
120,22,1,2,8,36,386,599.8172167178709,600.5989109387156,"[61, 0, 193]",193,l,0.2583523790817708,colour,0.06
120,22,1,2,8,37,387,601.1140793056693,601.7988792734686,"[79, 0, 175]",175,l,0.16159872896969318,colour,0.06
120,22,1,2,8,38,388,602.318849010393,603.2068661442026,"[98, 0, 156]",156,l,0.3648529164493084,colour,0.06
120,22,1,2,8,39,389,603.7249907152727,604.454897409305,"[54, 0, 200]",200,l,0.20653925254009664,colour,0.06
120,22,1,2,8,40,390,604.9750085365959,605.518880360527,"[69, 0, 185]",185,l,0.020537859061732888,colour,0.06
120,22,1,2,8,41,391,606.0374818781856,606.6308919773437,"[91, 0, 163]",163,l,0.06999894045293331,colour,0.06
120,22,1,2,8,42,392,607.1469051428139,607.6868897120003,"[73, 0, 181]",181,l,0.019302759785205126,colour,0.06
120,22,1,2,8,43,393,608.1953827922698,608.8230562645476,"[90, 0, 164]",164,l,0.10492830630391836,colour,0.06
120,22,1,2,8,44,394,609.3360037368257,610.1514001009054,"[92, 0, 162]",162,l,0.29217858356423676,colour,0.06
120,22,1,2,8,45,395,610.6640025647357,611.6628556868527,"[81, 0, 173]",173,l,0.4754096681717783,colour,0.06
120,22,1,2,8,46,396,612.1797573675867,613.0148731798399,"[59, 0, 195]",195,l,0.32244127453304827,colour,0.06
120,22,1,2,8,47,397,613.5288631613366,614.3268960607238,"[82, 0, 172]",172,l,0.27835342660546303,colour,0.06
120,22,1,2,8,48,398,614.8376868355554,615.7268469089177,"[10, 0, 244]",244,l,0.36576781957410276,colour,0.06
120,22,1,2,8,49,399,616.2438667432871,617.1028877932113,"[60, 0, 194]",194,l,0.3357473434880376,colour,0.06
120,22,1,2,8,50,400,617.608330540359,618.174843357876,"[14, 0, 240]",240,a,0.043301338562741876,colour,0.06
120,22,1,2,9,1,401,624.3115652324632,625.3588609518483,"[82, 0, 172]",172,l,0.5233851647935808,colour,0.06
120,22,1,2,9,2,402,625.8748560003005,626.4388332408853,"[61, 0, 193]",193,l,0.04060074035078287,colour,0.06
120,22,1,2,9,3,403,626.9529811542016,627.9188394793309,"[97, 0, 157]",157,l,0.4409048678353429,colour,0.06
120,22,1,2,9,4,404,628.4389687236398,629.0788108389825,"[58, 0, 196]",196,l,0.11658022413030267,colour,0.06
120,22,1,2,9,5,405,629.5951729514636,630.2947850530036,"[55, 0, 199]",199,l,0.1764742718078196,colour,0.06
120,22,1,2,9,6,406,630.813824133249,631.5108663931023,"[91, 0, 163]",163,l,0.17399383313022554,colour,0.06
120,22,1,2,9,7,407,632.0170893482864,632.742840972729,"[69, 0, 185]",185,l,0.2024692534469068,colour,0.06
120,22,1,2,9,8,408,633.251293880865,634.0948549213354,"[81, 0, 173]",173,l,0.3200695374980569,colour,0.06
120,22,1,2,9,9,409,634.6108684805222,635.6548373871483,"[80, 0, 174]",174,l,0.5180249279364944,colour,0.06
120,22,1,2,9,10,410,636.175943762064,636.8308327430859,"[62, 0, 192]",192,l,0.13156013609841466,colour,0.06
120,22,1,2,9,11,411,637.3478490328416,638.0947887552902,"[51, 0, 203]",203,l,0.22364632366225123,colour,0.06
120,22,1,2,9,12,412,638.6133977561258,639.3508103569038,"[75, 0, 179]",179,l,0.21182347694411874,colour,0.06
120,22,1,2,9,13,413,639.8655962997582,640.4788310038857,"[53, 0, 201]",201,l,0.08985426556318998,colour,0.06
120,22,1,2,9,14,414,640.9906434135046,641.8308071431238,"[64, 0, 190]",190,l,0.31682188785634935,colour,0.06
120,22,1,2,9,15,415,642.3499706783332,643.022798925871,"[86, 0, 168]",168,l,0.1495285474229604,colour,0.06
120,22,1,2,9,16,416,643.5374320568517,644.1507912159432,"[49, 0, 205]",205,l,0.08998265909031034,colour,0.06
120,22,1,2,9,17,417,644.6624319092371,645.3588105395902,"[76, 0, 178]",178,l,0.17301158257760108,colour,0.06
120,22,1,2,9,18,418,645.8655978753231,646.5829176623374,"[89, 0, 165]",165,l,0.19397046230733395,colour,0.06
120,22,1,2,9,19,419,647.1023549202364,647.9027835817542,"[52, 0, 202]",202,l,0.2772045796737075,colour,0.06
120,22,1,2,9,20,420,648.41484450805,649.2627709312364,"[93, 0, 161]",161,l,0.32460821233689785,colour,0.06
120,22,1,2,9,21,421,649.774151686579,650.6547999719623,"[56, 0, 198]",198,l,0.35730801918543875,colour,0.06
120,22,1,2,9,22,422,651.1648302311078,651.8308142323513,"[88, 0, 166]",166,l,0.14273943938314915,colour,0.06
120,22,1,2,9,23,423,652.3523002741858,653.1747929456178,"[90, 0, 164]",164,l,0.29779521375894547,colour,0.06
120,22,1,2,9,24,424,653.6816373888869,654.2388148875907,"[73, 0, 181]",181,l,0.034139311872422695,colour,0.06
120,22,1,2,9,25,425,654.7597830228042,655.3987937301863,"[96, 0, 158]",158,l,0.115743302507326,colour,0.06
120,22,1,2,9,26,426,655.9160045797471,656.478778622346,"[85, 0, 169]",169,l,0.039408570155501366,colour,0.06
120,22,1,2,9,27,427,656.9941230381373,657.8468012069352,"[59, 0, 195]",195,l,0.32790154800750315,colour,0.06
120,22,1,2,9,28,428,658.3550548292696,659.0547732692212,"[94, 0, 160]",160,l,0.176707822130993,colour,0.06
120,22,1,2,9,29,429,659.5726674406324,660.374795938842,"[99, 0, 155]",155,l,0.2778875073418021,colour,0.06
120,22,1,2,9,30,430,660.88611013419,661.5347665108275,"[60, 0, 194]",194,a,0.125396060757339,colour,0.06
120,22,1,2,9,31,431,662.0423328727484,662.6388023633044,"[83, 0, 171]",171,l,0.07098749256692827,colour,0.06
120,22,1,2,9,32,432,663.1538734505884,663.6867802229244,"[92, 0, 162]",162,l,0.009575564647093415,colour,0.06
120,22,1,2,9,33,433,664.2008237673435,664.8147973252926,"[57, 0, 197]",197,l,0.09109212155453861,colour,0.06
120,22,1,2,9,34,434,665.3257562720682,666.174772071885,"[71, 0, 183]",183,l,0.32570467819459736,colour,0.06
120,22,1,2,9,35,435,666.6864769619424,667.6628233916126,"[50, 0, 204]",204,l,0.4658762451726943,colour,0.06
120,22,1,2,9,36,436,668.170212129131,668.9107857337222,"[98, 0, 156]",156,l,0.21734243328683078,colour,0.06
120,22,1,2,9,37,437,669.4202015937772,672.110726893181,"[79, 0, 175]",175,l,2.1672630144748837,colour,0.06
120,22,1,2,9,38,438,672.6240280386992,673.3668453807477,"[95, 0, 159]",159,l,0.21942469431087375,colour,0.06
120,22,1,2,9,39,439,673.8740742171649,674.7587216093671,"[70, 0, 184]",184,l,0.361701759044081,colour,0.06
120,22,1,2,9,40,440,675.280349829467,676.3827791863587,"[66, 0, 188]",188,l,0.5794565484393388,colour,0.06
120,22,1,2,9,41,441,676.8896945216693,678.0547390046995,"[87, 0, 167]",167,l,0.6418081917800009,colour,0.06
120,22,1,2,9,42,442,678.5615204325877,679.5267340326682,"[25, 0, 229]",229,l,0.4421458747237921,colour,0.06
120,22,1,2,9,43,443,680.0459113526158,680.7668033179361,"[65, 0, 189]",189,l,0.19754224666394293,colour,0.06
120,22,1,2,9,44,444,681.2802679096349,682.5667810263112,"[72, 0, 182]",182,l,0.7632524073123932,colour,0.06
120,22,1,2,9,45,445,683.0769700051751,684.0947458259761,"[74, 0, 180]",180,l,0.4946848584804684,colour,0.06
120,22,1,2,9,46,446,684.6097440517042,685.5827408258338,"[67, 0, 187]",187,l,0.4497896274551749,colour,0.06
120,22,1,2,9,47,447,686.0940290272702,687.5987049574032,"[45, 0, 209]",209,l,0.9814313682727516,colour,0.06
120,22,1,2,9,48,448,688.1096666611265,688.7106976697687,"[84, 0, 170]",170,l,0.07768050231970847,colour,0.06
120,22,1,2,9,49,449,689.2190241534263,689.8227100742515,"[68, 0, 186]",186,l,0.08032044838182628,colour,0.06
120,22,1,2,9,50,450,690.3297849171795,691.1587681618985,"[78, 0, 176]",176,l,0.30575561826117337,colour,0.06
120,22,1,2,10,1,451,695.7679167191964,696.4147216281854,"[66, 0, 188]",188,l,0.12268719170242548,colour,0.06
120,22,1,2,10,2,452,696.9249740161467,697.8387116212398,"[71, 0, 183]",183,l,0.39117242651991546,colour,0.06
120,22,1,2,10,3,453,698.3468167639803,699.0227485136129,"[95, 0, 159]",159,l,0.1525867572054267,colour,0.06
120,22,1,2,10,4,454,699.5356573893223,700.3906954799313,"[70, 0, 184]",184,l,0.331754538230598,colour,0.06
120,22,1,2,10,5,455,700.9106411922257,701.6626776687335,"[92, 0, 162]",162,l,0.2287391391582787,colour,0.06
120,22,1,2,10,6,456,702.1762954660226,702.9107215367258,"[68, 0, 186]",186,l,0.21115905954502523,colour,0.06
120,22,1,2,10,7,457,703.4263121061958,703.9747131525073,"[86, 0, 168]",168,l,0.025184053694829345,colour,0.06
120,22,1,2,10,8,458,704.488861459773,705.1186766636092,"[77, 0, 177]",177,l,0.10651983576826751,colour,0.06
120,22,1,2,10,9,459,705.629463106161,706.2147525057662,"[72, 0, 182]",182,l,0.062016874784603715,colour,0.06
120,22,1,2,10,10,460,706.7231290077325,707.4148141818587,"[82, 0, 172]",172,l,0.16860208893194795,colour,0.06
120,22,1,2,10,11,461,707.9277092728298,708.542666262947,"[75, 0, 179]",179,l,0.09174157283268869,colour,0.06
120,22,1,2,10,12,462,709.0526417775545,709.8867426500656,"[58, 0, 196]",196,l,0.31085788598284125,colour,0.06
120,22,1,2,10,13,463,710.3964034821838,710.9351454689167,"[88, 0, 166]",166,l,0.015438348054885864,colour,0.06
120,22,1,2,10,14,464,711.4432352515869,712.166832147399,"[52, 0, 202]",202,a,0.20024087582714856,colour,0.06
120,22,1,2,10,15,465,712.6776103191078,713.4386965765152,"[64, 0, 190]",190,l,0.23807367053814232,colour,0.06
120,22,1,2,10,16,466,713.9588254268747,714.5667081649881,"[65, 0, 189]",189,l,0.0844235303811729,colour,0.06
120,22,1,2,10,17,467,715.0838296115398,715.6866994847078,"[80, 0, 174]",174,l,0.07977694179862738,colour,0.06
120,22,1,2,10,18,468,716.1932134914678,716.894674697658,"[90, 0, 164]",164,l,0.17818434885703027,colour,0.06
120,22,1,2,10,19,469,717.4123175954446,718.3747045667842,"[12, 0, 242]",242,l,0.43774189497344196,colour,0.06
120,22,1,2,10,20,470,718.8823595440481,719.4466554054525,"[74, 0, 180]",180,l,0.040937084471806884,colour,0.06
120,22,1,2,10,21,471,719.9605106916279,720.7746896794997,"[17, 0, 237]",237,l,0.29089070903137326,colour,0.06
120,22,1,2,10,22,472,721.288621371612,721.838666722877,"[62, 0, 192]",192,l,0.026796063175424933,colour,0.06
120,22,1,2,10,23,473,722.3524381201714,723.8066801703535,"[69, 0, 185]",185,l,0.931003789883107,colour,0.06
120,22,1,2,10,24,474,724.3212617076933,724.9186787903309,"[87, 0, 167]",167,l,0.07413904392160475,colour,0.06
120,22,1,2,10,25,475,725.4305707570165,726.1427193533164,"[93, 0, 161]",161,l,0.18879730231128633,colour,0.06
120,22,1,2,10,26,476,726.6390749043785,727.3746687269304,"[57, 0, 197]",197,l,0.2123323252890259,colour,0.06
120,22,1,2,10,27,477,727.8890549167991,728.6786638558842,"[59, 0, 195]",195,l,0.27037608716636896,colour,0.06
120,22,1,2,10,28,478,729.1972689181566,729.750651715789,"[56, 0, 198]",198,l,0.03009727573953569,colour,0.06
120,22,1,2,10,29,479,730.2598407210317,731.1667573167942,"[84, 0, 170]",170,l,0.38399262400344014,colour,0.06
120,22,1,2,10,30,480,731.6816779549699,732.4626010262873,"[73, 0, 181]",181,l,0.25780650903470814,colour,0.06
120,22,1,2,10,31,481,732.9838440655731,733.7506284790579,"[83, 0, 171]",171,l,0.24353827605955303,colour,0.06
120,22,1,2,10,32,482,734.2608328177594,735.0946245216765,"[89, 0, 165]",165,l,0.31051012058742344,colour,0.06
120,22,1,2,10,33,483,735.6046244546305,736.6306316454429,"[85, 0, 169]",169,l,0.502701582852751,colour,0.06
120,22,1,2,10,34,484,737.1418517117854,737.9426442864351,"[54, 0, 200]",200,l,0.2777634463272989,colour,0.06
120,22,1,2,10,35,485,738.4543349980377,739.102626279695,"[78, 0, 176]",176,l,0.1253334393259138,colour,0.06
120,22,1,2,10,36,486,739.6106806162279,740.4226981801912,"[53, 0, 201]",201,l,0.2889332971535623,colour,0.06
120,22,1,2,10,37,487,740.9387633332517,741.982610147912,"[50, 0, 204]",204,l,0.5206247018650174,colour,0.06
120,22,1,2,10,38,488,742.501151801087,743.2147627456579,"[99, 0, 155]",155,l,0.188334533944726,colour,0.06
120,22,1,2,10,39,489,743.7219447144307,744.2706832864787,"[96, 0, 158]",158,l,0.02545462572015822,colour,0.06
120,22,1,2,10,40,490,744.784378671553,745.6306320393924,"[98, 0, 156]",156,l,0.32297020917758346,colour,0.06
120,22,1,2,10,41,491,746.1448669924866,746.8946376761887,"[60, 0, 194]",194,l,0.22667223843745887,colour,0.06
120,22,1,2,10,42,492,747.4104992109351,747.974607208278,"[63, 0, 191]",191,l,0.040866192197427154,colour,0.06
120,22,1,2,10,43,493,748.4887208570726,749.4866066945251,"[51, 0, 203]",203,l,0.47458889428526163,colour,0.06
120,22,1,2,10,44,494,750.0042338387575,750.918657916598,"[37, 0, 217]",217,l,0.3911621868610382,colour,0.06
120,22,1,2,10,45,495,751.4261266048998,752.2705970343668,"[81, 0, 173]",173,l,0.32111322786659,colour,0.06
120,22,1,2,10,46,496,752.7871273190249,753.854602891719,"[55, 0, 199]",199,l,0.5442640939727426,colour,0.06
120,22,1,2,10,47,497,754.3651018268429,755.1666371941101,"[79, 0, 175]",175,l,0.2782856854610145,colour,0.06
120,22,1,2,10,48,498,755.6776363130193,756.4946159357205,"[76, 0, 178]",178,l,0.2940568325575441,colour,0.06
120,22,1,2,10,49,499,757.0058218236081,757.790619940497,"[67, 0, 187]",187,l,0.2613479676656425,colour,0.06
120,22,1,2,10,50,500,758.3026666883379,758.9106270140037,"[94, 0, 160]",160,l,0.08498633559793234,colour,0.06
120,22,1,2,11,1,501,763.7251191087998,764.5425599247683,"[63, 0, 191]",191,l,0.29338296316564083,colour,0.06
120,22,1,2,11,2,502,765.0540289012715,765.838604495395,"[68, 0, 186]",186,l,0.26130543230101466,colour,0.06
120,22,1,2,11,3,503,766.3507717598695,767.2545671304688,"[85, 0, 169]",169,l,0.38041808269917965,colour,0.06
120,22,1,2,11,4,504,767.7741371141747,768.4865787315648,"[50, 0, 204]",204,l,0.18932426744140685,colour,0.06
120,22,1,2,11,5,505,768.9928221667651,769.6225495429244,"[89, 0, 165]",165,l,0.10681758308783174,colour,0.06
120,22,1,2,11,6,506,770.1334651666693,771.006577613065,"[7, 0, 247]",247,l,0.34987773071043193,colour,0.06
120,22,1,2,11,7,507,771.5240117728245,772.1265957141295,"[64, 0, 190]",190,l,0.07916805660352111,colour,0.06
120,22,1,2,11,8,508,772.633472058922,773.3025969776791,"[66, 0, 188]",188,l,0.1458015877287835,colour,0.06
120,22,1,2,11,9,509,773.8211890431121,774.446520710364,"[98, 0, 156]",156,l,0.10224897577427328,colour,0.06
120,22,1,2,11,10,510,774.9615102712996,775.718561188085,"[71, 0, 183]",183,l,0.23390363459475338,colour,0.06
120,22,1,2,11,11,511,776.229541402543,776.9105710878503,"[93, 0, 161]",161,l,0.15774455736391246,colour,0.06
120,22,1,2,11,12,512,777.4313289094716,778.254556102911,"[51, 0, 203]",203,l,0.29989047162234783,colour,0.06
120,22,1,2,11,13,513,778.7750874634366,779.5985580531415,"[58, 0, 196]",196,l,0.3001649819780141,colour,0.06
120,22,1,2,11,14,514,780.1188050571363,780.9585918765515,"[76, 0, 178]",178,l,0.31650759908370674,colour,0.06
120,22,1,2,11,15,515,781.4782055772375,782.1985536420252,"[80, 0, 174]",174,l,0.19771711411885917,colour,0.06
120,22,1,2,11,16,516,782.7125329896808,783.342538814526,"[67, 0, 187]",187,l,0.10425837524235249,colour,0.06
120,22,1,2,11,17,517,783.8555489084683,784.6385514838621,"[61, 0, 193]",193,l,0.2596449798438698,colour,0.06
120,22,1,2,11,18,518,785.151203966001,785.7905813434627,"[82, 0, 172]",172,l,0.11601426801644266,colour,0.06
120,22,1,2,11,19,519,786.2927248475607,786.8305412973277,"[77, 0, 177]",177,l,0.014416712801903486,colour,0.06
120,22,1,2,11,20,520,787.3396428688429,788.0545479895081,"[69, 0, 185]",185,l,0.1917353894095868,colour,0.06
120,22,1,2,11,21,521,788.5754117555916,789.2385419528,"[83, 0, 171]",171,l,0.1481378790922463,colour,0.06
120,22,1,2,11,22,522,789.7545535427053,790.5345538342372,"[99, 0, 155]",155,l,0.25668562506325543,colour,0.06
120,22,1,2,11,23,523,791.0513239707798,791.6465217343066,"[72, 0, 182]",182,l,0.0717523405328393,colour,0.06
120,22,1,2,11,24,524,792.1608078873251,792.8545564177912,"[94, 0, 160]",160,l,0.1777491495013237,colour,0.06
120,22,1,2,11,25,525,793.3721800174098,794.2225884548388,"[32, 0, 222]",222,l,0.327407272066921,colour,0.06
120,22,1,2,11,26,526,794.7399111564737,795.5825249985792,"[75, 0, 179]",179,l,0.31927239429205656,colour,0.06
120,22,1,2,11,27,527,796.0994164391886,796.838524938561,"[79, 0, 175]",175,l,0.21570009761489928,colour,0.06
120,22,1,2,11,28,528,797.349273965694,798.2065262557007,"[60, 0, 194]",194,l,0.34114775247871876,colour,0.06
120,22,1,2,11,29,529,798.7170263724402,799.3825302759651,"[55, 0, 199]",199,l,0.1421585171483457,colour,0.06
120,22,1,2,11,30,530,799.8888670525048,800.7344910553657,"[74, 0, 180]",180,l,0.329460782231763,colour,0.06
120,22,1,2,11,31,531,801.2410030930769,801.9345291007776,"[62, 0, 192]",192,l,0.17022985219955444,colour,0.06
120,22,1,2,11,32,532,802.4440800498705,803.1665749663953,"[90, 0, 164]",164,l,0.2072257250547409,colour,0.06
120,22,1,2,11,33,533,803.6868456013035,804.598572625313,"[86, 0, 168]",168,l,0.3952885055914521,colour,0.06
120,22,1,2,11,34,534,805.117660936201,805.83050624514,"[17, 0, 237]",237,a,0.1894944088999182,colour,0.06
120,22,1,2,11,35,535,806.3520675115287,807.0705156659242,"[56, 0, 198]",198,l,0.1951858694665134,colour,0.06
120,22,1,2,11,36,536,807.5863850777969,808.1665663018357,"[65, 0, 189]",189,l,0.05682205315679312,colour,0.06
120,22,1,2,11,37,537,808.680188825354,809.4145042253658,"[54, 0, 200]",200,l,0.21126421634107828,colour,0.06
120,22,1,2,11,38,538,809.9300904625561,810.6385136747267,"[91, 0, 163]",163,l,0.18508845986798406,colour,0.06
120,22,1,2,11,39,539,811.1489050900564,811.910478534177,"[96, 0, 158]",158,l,0.2382583839353174,colour,0.06
120,22,1,2,11,40,540,812.4315167737659,813.110502401134,"[70, 0, 184]",184,l,0.15565520711243153,colour,0.06
120,22,1,2,11,41,541,813.619697707938,814.206529406365,"[73, 0, 181]",181,l,0.0641979908104986,colour,0.06
120,22,1,2,11,42,542,814.7127196723595,815.470497234026,"[59, 0, 195]",195,l,0.23444596002809703,colour,0.06
120,22,1,2,11,43,543,815.9783814291004,817.0704896720126,"[84, 0, 170]",170,l,0.5693433845881373,colour,0.06
120,22,1,2,11,44,544,817.5876827985048,818.1585062546656,"[95, 0, 159]",159,l,0.045308768982067704,colour,0.06
120,22,1,2,11,45,545,818.6679642563686,819.3985196137801,"[97, 0, 157]",157,l,0.20800750819034874,colour,0.06
120,22,1,2,11,46,546,819.9173558636103,820.5904901290778,"[57, 0, 197]",197,l,0.14993538986891508,colour,0.06
120,22,1,2,11,47,547,821.1053319980856,822.0145037528127,"[81, 0, 173]",173,l,0.3859646082855761,colour,0.06
120,22,1,2,11,48,548,822.5286099186633,823.3104675852228,"[87, 0, 167]",167,l,0.2587194428779185,colour,0.06
120,22,1,2,11,49,549,823.8254020079039,824.6464921957813,"[92, 0, 162]",162,l,0.29784050583839417,colour,0.06
120,22,1,2,11,50,550,825.1538348535541,825.7744478583336,"[52, 0, 202]",202,l,0.0975956916809082,colour,0.06
120,22,1,2,12,1,551,830.7009633854032,831.558455133345,"[77, 0, 177]",177,l,0.3333421291317791,colour,0.06
120,22,1,2,12,2,552,832.0768652423285,832.7904627961107,"[54, 0, 200]",200,l,0.1898823466617614,colour,0.06
120,22,1,2,12,3,553,833.3118330475409,834.1824520581868,"[67, 0, 187]",187,l,0.347562313079834,colour,0.06
120,22,1,2,12,4,554,834.703825460514,835.72648614645,"[51, 0, 203]",203,l,0.49932396435178816,colour,0.06
120,22,1,2,12,5,555,836.235026094364,836.8224454100709,"[66, 0, 188]",188,l,0.06408653245307505,colour,0.06
120,22,1,2,12,6,556,837.3288814357948,838.1904573610518,"[81, 0, 173]",173,l,0.33883627341128886,colour,0.06
120,22,1,2,12,7,557,838.7037695343606,839.2305575239006,"[57, 0, 197]",197,l,0.0012847238685935736,colour,0.06
120,22,1,2,12,8,558,839.7528466165531,840.3424628023058,"[79, 0, 175]",175,l,0.0665236480999738,colour,0.06
120,22,1,2,12,9,559,840.8622639733367,841.3984774723649,"[93, 0, 161]",161,l,0.012971300166100264,colour,0.06
120,22,1,2,12,10,560,841.9090575396549,842.5344207144808,"[60, 0, 194]",194,l,0.10200321604497731,colour,0.06
120,22,1,2,12,11,561,843.0497690688353,843.8224288686179,"[91, 0, 163]",163,l,0.24938057945109904,colour,0.06
120,22,1,2,12,12,562,844.3309593643062,844.9424233390018,"[97, 0, 157]",157,l,0.088183966698125,colour,0.06
120,22,1,2,12,13,563,845.4574310171884,846.286485941615,"[62, 0, 192]",192,l,0.3166222081054002,colour,0.06
120,22,1,2,12,14,564,846.8058964179363,847.7264408541378,"[65, 0, 189]",189,l,0.3972939664963633,colour,0.06
120,22,1,2,12,15,565,848.2433976733591,850.094448472606,"[50, 0, 204]",204,l,1.3277227422222495,colour,0.06
120,22,1,2,12,16,566,850.6027005196083,852.1024167540018,"[82, 0, 172]",172,l,0.9763287066016346,colour,0.06
120,22,1,2,12,17,567,852.6184858453926,853.2464204372372,"[56, 0, 198]",198,a,0.10465930984355509,colour,0.06
120,22,1,2,12,18,568,853.7590410178527,854.3107090124395,"[73, 0, 181]",181,l,0.02630257490091026,colour,0.06
120,22,1,2,12,19,569,854.8236505773384,855.6304382674862,"[61, 0, 193]",193,l,0.2835045314859599,colour,0.06
120,22,1,2,12,20,570,856.1517797680572,856.9504239156377,"[92, 0, 162]",162,l,0.27535232435911894,colour,0.06
120,22,1,2,12,21,571,857.4642067342065,858.206458120374,"[80, 0, 174]",174,l,0.21893868898041546,colour,0.06
120,22,1,2,12,22,572,858.7142206174321,859.6704821102321,"[45, 0, 209]",209,l,0.4328491527121514,colour,0.06
120,22,1,2,12,23,573,860.1829802049324,861.2784444051795,"[74, 0, 180]",180,l,0.5721294477116317,colour,0.06
120,22,1,2,12,24,574,861.7936474303715,862.7744045353029,"[71, 0, 183]",183,l,0.4574491339735687,colour,0.06
120,22,1,2,12,25,575,863.2935976090375,864.542458312586,"[72, 0, 182]",182,l,0.7241222858428955,colour,0.06
120,22,1,2,12,26,576,865.0592406583019,866.6143926095683,"[38, 0, 216]",216,l,1.0318266511894763,colour,0.06
120,22,1,2,12,27,577,867.1231452340726,867.6623736200854,"[59, 0, 195]",195,l,0.015944045735523105,colour,0.06
120,22,1,2,12,28,578,868.1700408065226,869.0224298925605,"[86, 0, 168]",168,l,0.3293599577154964,colour,0.06
120,22,1,2,12,29,579,869.5293345942628,870.1184167256579,"[88, 0, 166]",166,l,0.06577652343548834,colour,0.06
120,22,1,2,12,30,580,870.638771249447,871.2544347983785,"[76, 0, 178]",178,l,0.09244340541772544,colour,0.06
120,22,1,2,12,31,581,871.7638002464082,872.9024263639003,"[96, 0, 158]",158,l,0.615329961758107,colour,0.06
120,22,1,2,12,32,582,873.4212771856692,874.3344062997494,"[87, 0, 167]",167,l,0.39016536390408874,colour,0.06
120,22,1,2,12,33,583,874.8431167828385,875.4863955934998,"[75, 0, 179]",179,l,0.11994248279370368,colour,0.06
120,22,1,2,12,34,584,875.9993911150377,876.638371890178,"[95, 0, 159]",159,l,0.11570076714269817,colour,0.06
120,22,1,2,12,35,585,877.1555665920023,877.9823718713596,"[99, 0, 155]",155,l,0.30352960363961756,colour,0.06
120,22,1,2,12,36,586,878.4993318412453,879.0864018162247,"[68, 0, 186]",186,l,0.0637052902020514,colour,0.06
120,22,1,2,12,37,587,879.5930631214287,880.310361247044,"[98, 0, 156]",156,l,0.19421267742291093,colour,0.06
120,22,1,2,12,38,588,880.8282562061213,881.4223645930178,"[90, 0, 164]",164,l,0.07167593436315656,colour,0.06
120,22,1,2,12,39,589,881.9369252566248,882.4863711749204,"[85, 0, 169]",169,l,0.024839045014232397,colour,0.06
120,22,1,2,12,40,590,883.0006577221211,883.5903546460904,"[64, 0, 190]",190,l,0.06648190063424408,colour,0.06
120,22,1,2,12,41,591,884.1100156081375,884.9823604498524,"[53, 0, 201]",201,l,0.34898173226974905,colour,0.06
120,22,1,2,12,42,592,885.5006953342818,886.7743864185177,"[55, 0, 199]",199,l,0.7503724794369191,colour,0.06
120,22,1,2,12,43,593,887.2844147083815,888.1663485052995,"[52, 0, 202]",202,l,0.35854193684644997,colour,0.06
120,22,1,2,12,44,594,888.6750782867894,889.3504007575102,"[89, 0, 165]",165,l,0.15231382241472602,colour,0.06
120,22,1,2,12,45,595,889.8625735358801,890.6303531967569,"[69, 0, 185]",185,l,0.24445790518075228,colour,0.06
120,22,1,2,12,46,596,891.1438150312752,891.6783936778083,"[63, 0, 191]",191,l,0.011238774051889777,colour,0.06
120,22,1,2,12,47,597,892.1907027268317,892.9748336693738,"[78, 0, 176]",176,l,0.26079894695430994,colour,0.06
120,22,1,2,12,48,598,893.4876484158449,894.1984185529873,"[70, 0, 184]",184,l,0.1875369967892766,colour,0.06
120,22,1,2,12,49,599,894.7072818481829,895.5503265571315,"[25, 0, 229]",229,l,0.3198021163698286,colour,0.06
120,22,1,2,12,50,600,896.0667694078293,896.8623809455894,"[83, 0, 171]",171,l,0.2723307420965284,colour,0.06
120,22,1,2,13,1,601,901.1138512690086,901.7023485398386,"[80, 0, 174]",174,l,0.06367457006126642,colour,0.06
120,22,1,2,13,2,602,902.2092185830697,902.7503523933701,"[50, 0, 204]",204,a,0.018311056774109602,colour,0.06
120,22,1,2,13,3,603,903.2715521096252,903.7983471881598,"[54, 0, 200]",200,a,0.003485532244667411,colour,0.06
120,22,1,2,13,4,604,904.3183661559597,905.0303465800826,"[55, 0, 199]",199,l,0.18854209035634995,colour,0.06
120,22,1,2,13,5,605,905.53910314315,906.126371616032,"[93, 0, 161]",161,l,0.06429723976179957,colour,0.06
120,22,1,2,13,6,606,906.6327371434309,907.2303365764674,"[73, 0, 181]",181,l,0.07423474849201739,colour,0.06
120,22,1,2,13,7,607,907.7421426847577,908.5583235891536,"[83, 0, 171]",171,l,0.29294382547959685,colour,0.06
120,22,1,2,13,8,608,909.0702281587292,909.9423359052744,"[51, 0, 203]",203,l,0.3486367235891521,colour,0.06
120,22,1,2,13,9,609,910.4608783463482,911.2063364221249,"[60, 0, 194]",194,l,0.22229346446692944,colour,0.06
120,22,1,2,13,10,610,911.7133931480348,912.3183685189579,"[74, 0, 180]",180,l,0.08297024061903358,colour,0.06
120,22,1,2,13,11,611,912.8372528178152,913.6863229684532,"[66, 0, 188]",188,l,0.3257353981025517,colour,0.06
120,22,1,2,13,12,612,914.1965308517683,916.7822952289134,"[98, 0, 156]",156,l,2.062454042956233,colour,0.06
120,22,1,2,13,13,613,917.292297919048,918.0383294336498,"[72, 0, 182]",182,l,0.22260617767460644,colour,0.06
120,22,1,2,13,14,614,918.5579069005325,919.2142834356055,"[89, 0, 165]",165,l,0.13294056430459023,colour,0.06
120,22,1,2,13,15,615,919.7301749028265,920.2944786413573,"[86, 0, 168]",168,l,0.042793278116732836,colour,0.06
120,22,1,2,13,16,616,920.8066116413102,921.4703093697317,"[91, 0, 163]",163,l,0.14026215160265565,colour,0.06
120,22,1,2,13,17,617,921.9785121858586,922.6383132073097,"[81, 0, 173]",173,l,0.1366588594391942,colour,0.06
120,22,1,2,13,18,618,923.1537021277472,923.9825526464265,"[84, 0, 170]",170,l,0.3054677171166986,colour,0.06
120,22,1,2,13,19,619,924.4949530675076,925.1102924814913,"[70, 0, 184]",184,l,0.09196763997897506,colour,0.06
120,22,1,2,13,20,620,925.6200939165428,926.3023011996411,"[59, 0, 195]",195,l,0.16990256658755243,colour,0.06
120,22,1,2,13,21,621,926.8121703760698,927.6302866369952,"[20, 0, 234]",234,l,0.2953368304297328,colour,0.06
120,22,1,2,13,22,622,928.1389293784741,928.8782879696228,"[67, 0, 187]",187,l,0.21617783210240304,colour,0.06
120,22,1,2,13,23,623,929.3889432614669,929.9822848315816,"[82, 0, 172]",172,l,0.07012300193309784,colour,0.06
120,22,1,2,13,24,624,930.500763075659,931.1343020882923,"[52, 0, 202]",202,l,0.11021646927110851,colour,0.06
120,22,1,2,13,25,625,931.641411983408,932.3582398574799,"[57, 0, 197]",197,l,0.19358213082887232,colour,0.06
120,22,1,2,13,26,626,932.8743566044141,933.4062681293581,"[90, 0, 164]",164,l,0.008531480329111218,colour,0.06
120,22,1,2,13,27,627,933.9211958567612,934.4623099747114,"[87, 0, 167]",167,l,0.01774273789487779,colour,0.06
120,22,1,2,13,28,628,934.9837251242716,935.6382667336147,"[88, 0, 166]",166,l,0.1269316643010825,colour,0.06
120,22,1,2,13,29,629,936.1598677784204,936.9103572296444,"[15, 0, 239]",239,l,0.22717439103871584,colour,0.06
120,22,1,2,13,30,630,937.4254665200133,938.1182926644105,"[71, 0, 183]",183,l,0.16979780374094844,colour,0.06
120,22,1,2,13,31,631,938.6286687196698,939.2143050972372,"[94, 0, 160]",160,l,0.062375667970627546,colour,0.06
120,22,1,2,13,32,632,939.7223204430193,940.4062350462191,"[53, 0, 201]",201,l,0.16051919851452112,colour,0.06
120,22,1,2,13,33,633,940.9255092521198,941.6142799698282,"[77, 0, 177]",177,l,0.16543950978666544,colour,0.06
120,22,1,2,13,34,634,942.1308464882895,942.8702779407613,"[96, 0, 158]",158,l,0.21657719160430133,colour,0.06
120,22,1,2,13,35,635,943.3807307961397,944.2222501416691,"[5, 0, 249]",249,l,0.31820152839645743,colour,0.06
120,22,1,2,13,36,636,944.740105716046,945.4382731926162,"[64, 0, 190]",190,l,0.1747890072874725,colour,0.06
120,22,1,2,13,37,637,945.9588679622393,946.5102614464704,"[99, 0, 155]",155,l,0.028124110074713826,colour,0.06
120,22,1,2,13,38,638,947.0214058945421,947.9662958874833,"[75, 0, 179]",179,l,0.4216040773317218,colour,0.06
120,22,1,2,13,39,639,948.4744821621571,949.2382646854967,"[65, 0, 189]",189,l,0.2404580106958747,colour,0.06
120,22,1,2,13,40,640,949.7557248391677,950.3342554569244,"[69, 0, 185]",185,l,0.05349760362878442,colour,0.06
120,22,1,2,13,41,641,950.8515005710069,951.6382466473151,"[62, 0, 192]",192,l,0.2633593361824751,colour,0.06
120,22,1,2,13,42,642,952.1484253862873,952.7103097320069,"[78, 0, 176]",176,l,0.03860630700364709,colour,0.06
120,22,1,2,13,43,643,953.2265824417118,953.8702338300645,"[56, 0, 198]",198,l,0.12042533722706139,colour,0.06
120,22,1,2,13,44,644,954.3827224725392,955.2702610841952,"[63, 0, 191]",191,l,0.36415699147619307,colour,0.06
120,22,1,2,13,45,645,955.7890295924153,956.5502013142686,"[61, 0, 193]",193,l,0.2367720112670213,colour,0.06
120,22,1,2,13,46,646,957.0716873561032,957.7262994635385,"[68, 0, 186]",186,l,0.13129625958390534,colour,0.06
120,22,1,2,13,47,647,958.2434953469783,958.838277997449,"[97, 0, 157]",157,l,0.07175588514655828,colour,0.06
120,22,1,2,13,48,648,959.3528256639838,960.1342359222472,"[85, 0, 169]",169,l,0.2580522687640041,colour,0.06
120,22,1,2,13,49,649,960.6510879783891,961.438231051201,"[79, 0, 175]",175,l,0.26369292358867824,colour,0.06
120,22,1,2,13,50,650,961.9480679321568,962.710215209052,"[58, 0, 196]",196,l,0.23897872725501657,colour,0.06
120,22,1,2,14,1,651,966.8962516547181,967.8222945674788,"[80, 0, 174]",174,l,0.4018932939507067,colour,0.06
120,22,1,2,14,2,652,968.3369564490858,968.990251931129,"[82, 0, 172]",172,l,0.13008951698429883,colour,0.06
120,22,1,2,14,3,653,969.5088101259898,970.1022154989187,"[52, 0, 202]",202,l,0.07008598046377301,colour,0.06
120,22,1,2,14,4,654,970.6181424122769,971.5342178840656,"[70, 0, 184]",184,l,0.39268873166292906,colour,0.06
120,22,1,2,14,5,655,972.0556940799579,972.8462194972672,"[95, 0, 159]",159,l,0.26721114479005337,colour,0.06
120,22,1,2,14,6,656,973.3547685036901,974.0862340379972,"[92, 0, 162]",162,l,0.20814535417594016,colour,0.06
120,22,1,2,14,7,657,974.6045086642262,975.6461916917469,"[94, 0, 160]",160,l,0.5181466261856258,colour,0.06
120,22,1,2,14,8,658,976.1673146081157,977.9021951765753,"[83, 0, 171]",171,l,1.2116868125740439,colour,0.06
120,22,1,2,14,9,659,978.4172339683864,979.2222182401456,"[85, 0, 169]",169,l,0.2816621223464608,colour,0.06
120,22,1,2,14,10,660,979.7296983499546,980.3103596717119,"[14, 0, 240]",240,a,0.05731947999447584,colour,0.06
120,22,1,2,14,11,661,980.823492645286,981.5742211609613,"[69, 0, 185]",185,l,0.2274004586506635,colour,0.06
120,22,1,2,14,12,662,982.0890386116225,983.902198721189,"[63, 0, 191]",191,l,1.289768249494955,colour,0.06
120,22,1,2,14,13,663,984.4184572522063,985.2541973094922,"[96, 0, 158]",158,l,0.3124604430049658,colour,0.06
120,22,1,2,14,14,664,985.7621460955124,986.814197892556,"[74, 0, 180]",180,l,0.5282345837913454,colour,0.06
120,22,1,2,14,15,665,987.3251647162251,988.1341996884439,"[58, 0, 196]",196,l,0.2857848966959864,colour,0.06
120,22,1,2,14,16,666,988.6532627930865,989.4381999373436,"[54, 0, 200]",200,l,0.25936416792683303,colour,0.06
120,22,1,2,14,17,667,989.9523691183422,990.5341725917533,"[90, 0, 164]",164,l,0.058588843792676926,colour,0.06
120,22,1,2,14,18,668,991.0461957089137,991.7421915216837,"[81, 0, 173]",173,l,0.17277409392409027,colour,0.06
120,22,1,2,14,19,669,992.2493171705864,992.8861436110456,"[62, 0, 192]",192,l,0.11423290520906448,colour,0.06
120,22,1,2,14,20,670,993.4061783326324,993.9581767634954,"[64, 0, 190]",190,l,0.028692035237327218,colour,0.06
120,22,1,2,14,21,671,994.4687257171609,995.1261908409651,"[97, 0, 157]",157,l,0.13429460488259792,colour,0.06
120,22,1,2,14,22,672,995.6405396156479,996.1742486513685,"[56, 0, 198]",198,l,0.010438873898237944,colour,0.06
120,22,1,2,14,23,673,996.6875360123813,997.2622423907742,"[37, 0, 217]",217,a,0.05179579742252827,colour,0.06
120,22,1,2,14,24,674,997.7804961430375,998.4301765176933,"[66, 0, 188]",188,l,0.12392583582550287,colour,0.06
120,22,1,2,14,25,675,998.939204833936,999.6621778788976,"[72, 0, 182]",182,l,0.19979110453277826,colour,0.06
120,22,1,2,14,26,676,1000.1734475695994,1000.8461348204874,"[86, 0, 168]",168,l,0.14933910756371915,colour,0.06
120,22,1,2,14,27,677,1001.3610424618237,1001.974168858258,"[93, 0, 161]",161,l,0.09028552612289786,colour,0.06
120,22,1,2,14,28,678,1002.485992689617,1003.1822208710946,"[79, 0, 175]",175,l,0.17299622274003923,colour,0.06
120,22,1,2,14,29,679,1003.6891161203384,1004.3421477260999,"[75, 0, 179]",179,l,0.1299788465257734,colour,0.06
120,22,1,2,14,30,680,1004.8609914588742,1005.3981903591193,"[99, 0, 155]",155,l,0.014484848361462355,colour,0.06
120,22,1,2,14,31,681,1005.9077980220318,1006.5421129101887,"[65, 0, 189]",189,l,0.11094232648611069,colour,0.06
120,22,1,2,14,32,682,1007.0497281088028,1007.6061809319071,"[60, 0, 194]",194,l,0.032967227743938565,colour,0.06
120,22,1,2,14,33,683,1008.1279446349945,1008.6542131421156,"[98, 0, 156]",156,l,0.003496559802442789,colour,0.06
120,22,1,2,14,34,684,1009.1748390255962,1010.0461693212856,"[68, 0, 186]",186,l,0.34806998004205525,colour,0.06
120,22,1,2,14,35,685,1010.5654175335076,1011.3261355452705,"[53, 0, 201]",201,l,0.23507690033875406,colour,0.06
120,22,1,2,14,36,686,1011.8332899447996,1012.6061600581743,"[55, 0, 199]",199,l,0.24961885600350797,colour,0.06
120,22,1,2,14,37,687,1013.1143526344094,1013.8621655120514,"[73, 0, 181]",181,l,0.2243733622599393,colour,0.06
120,22,1,2,14,38,688,1014.380073467968,1014.9341651876457,"[88, 0, 166]",166,l,0.03080029017291963,colour,0.06
120,22,1,2,14,39,689,1015.4424873390235,1016.2861866189633,"[84, 0, 170]",170,l,0.32033813977614045,colour,0.06
120,22,1,2,14,40,690,1016.8033053088002,1017.3501825672574,"[67, 0, 187]",187,l,0.023424352519214153,colour,0.06
120,22,1,2,14,41,691,1017.865849936381,1018.550143025117,"[87, 0, 167]",167,l,0.1608571179676801,colour,0.06
120,22,1,2,14,42,692,1019.0690296869725,1019.6941218960565,"[61, 0, 193]",193,l,0.10184134566225111,colour,0.06
120,22,1,2,14,43,693,1020.209653388476,1020.7421663154382,"[59, 0, 195]",195,a,0.00927624199539423,colour,0.06
120,22,1,2,14,44,694,1021.2565300562419,1022.0541706855875,"[57, 0, 197]",197,l,0.27431178465485573,colour,0.06
120,22,1,2,14,45,695,1022.5704508782364,1023.1580986245535,"[76, 0, 178]",178,l,0.06425352301448584,colour,0.06
120,22,1,2,14,46,696,1023.6641986998729,1024.2061536777765,"[49, 0, 205]",205,a,0.018566662445664406,colour,0.06
120,22,1,2,14,47,697,1024.724523220677,1025.4621295933612,"[71, 0, 183]",183,l,0.21221614070236683,colour,0.06
120,22,1,2,14,48,698,1025.9765386262443,1027.022106151795,"[50, 0, 204]",204,l,0.5208062648307532,colour,0.06
120,22,1,2,14,49,699,1027.540625355905,1028.3581110700034,"[51, 0, 203]",203,l,0.29413717705756426,colour,0.06
120,22,1,2,14,50,700,1028.8687439127825,1029.654109166935,"[77, 0, 177]",177,l,0.26202341238968074,colour,0.06
120,22,1,2,15,1,701,1034.1352382588666,1034.7341098128818,"[88, 0, 166]",166,l,0.07474438450299203,colour,0.06
120,22,1,2,15,2,702,1035.247119906824,1036.142177815782,"[33, 0, 221]",221,l,0.37184446095488966,colour,0.06
120,22,1,2,15,3,703,1036.6533265961334,1037.2860763422213,"[84, 0, 170]",170,l,0.10963160870596766,colour,0.06
120,22,1,2,15,4,704,1037.7939640821423,1038.5340918535367,"[63, 0, 191]",191,l,0.21689463104121387,colour,0.06
120,22,1,2,15,5,705,1039.0439452761784,1039.9021231029183,"[40, 0, 214]",214,l,0.3352317998651415,colour,0.06
120,22,1,2,15,6,706,1040.4204245102592,1041.2301089337561,"[64, 0, 190]",190,l,0.2864831844344735,colour,0.06
120,22,1,2,15,7,707,1041.7484461814165,1042.5900754097383,"[82, 0, 172]",172,l,0.31858316459693015,colour,0.06
120,22,1,2,15,8,708,1043.1078833288047,1043.7580855488777,"[69, 0, 185]",185,l,0.12693363358266652,colour,0.06
120,22,1,2,15,9,709,1044.2640670766123,1045.022064010147,"[54, 0, 200]",200,l,0.23354681069031358,colour,0.06
120,22,1,2,15,10,710,1045.5297662490048,1046.2700952752493,"[62, 0, 192]",192,l,0.21703365840949118,colour,0.06
120,22,1,2,15,11,711,1046.7797064827755,1047.4621051750146,"[66, 0, 188]",188,l,0.15797692630439997,colour,0.06
120,22,1,2,15,12,712,1047.9674986915197,1048.766079036286,"[87, 0, 167]",167,l,0.275224324548617,colour,0.06
120,22,1,2,15,13,713,1049.280117854476,1049.854068443412,"[85, 0, 169]",169,l,0.05070130084641278,colour,0.06
120,22,1,2,15,14,714,1050.3738046300132,1051.0941034641583,"[72, 0, 182]",182,l,0.19688058644533157,colour,0.06
120,22,1,2,15,15,715,1051.608154097572,1052.1348286597058,"[51, 0, 203]",203,a,0.00391954998485744,colour,0.06
120,22,1,2,15,16,716,1052.6551205620635,1053.3340687742457,"[83, 0, 171]",171,l,0.15566584118641913,colour,0.06
120,22,1,2,15,17,717,1053.842542949831,1054.5900730467401,"[55, 0, 199]",199,l,0.2242461503483355,colour,0.06
120,22,1,2,15,18,718,1055.1104803457856,1055.8060468670446,"[61, 0, 193]",193,l,0.17229675315320492,colour,0.06
120,22,1,2,15,19,719,1056.313539186027,1056.99006131012,"[71, 0, 183]",183,l,0.1530774887651205,colour,0.06
120,22,1,2,15,20,720,1057.5010383736808,1058.1100427834317,"[90, 0, 164]",164,l,0.08565390342846513,colour,0.06
120,22,1,2,15,21,721,1058.6261343243532,1059.470055733109,"[93, 0, 161]",161,l,0.32055869325995445,colour,0.06
120,22,1,2,15,22,722,1059.9854852196295,1060.582098463783,"[89, 0, 165]",165,l,0.07329148845747113,colour,0.06
120,22,1,2,15,23,723,1061.0960006176028,1061.7180389489513,"[96, 0, 158]",158,l,0.09879061859101057,colour,0.06
120,22,1,2,15,24,724,1062.236621168442,1062.8060728607234,"[76, 0, 178]",178,l,0.04652535752393305,colour,0.06
120,22,1,2,15,25,725,1063.314662826946,1063.8620394815225,"[53, 0, 201]",201,a,0.023981249891221523,colour,0.06
120,22,1,2,15,26,726,1064.3770818179473,1064.9420613951515,"[98, 0, 156]",156,l,0.04193233186379075,colour,0.06
120,22,1,2,15,27,727,1065.455209728796,1066.0862438841723,"[77, 0, 177]",177,l,0.10758636938408017,colour,0.06
120,22,1,2,15,28,728,1066.595864544157,1067.1740466086194,"[95, 0, 159]",159,l,0.05483549670316279,colour,0.06
120,22,1,2,15,29,729,1067.6895855842158,1068.230028589256,"[78, 0, 176]",176,l,0.015434409491717815,colour,0.06
120,22,1,2,15,30,730,1068.7381494857837,1069.3020428370219,"[79, 0, 175]",175,l,0.04064366943202913,colour,0.06
120,22,1,2,15,31,731,1069.816238011932,1070.3504243881907,"[58, 0, 196]",196,a,0.010750799207016826,colour,0.06
120,22,1,2,15,32,732,1070.8630812028423,1071.7020500050858,"[65, 0, 189]",189,l,0.31431269831955433,colour,0.06
120,22,1,2,15,33,733,1072.2082091572229,1072.7741071819328,"[70, 0, 184]",184,l,0.042552638333290815,colour,0.06
120,22,1,2,15,34,734,1073.2862484527286,1074.9820221366826,"[81, 0, 173]",173,l,1.1723593745846301,colour,0.06
120,22,1,2,15,35,735,1075.489450652618,1077.1580285199452,"[68, 0, 186]",186,l,1.1456641356926411,colour,0.06
120,22,1,2,15,36,736,1077.6773452612106,1078.3420528091956,"[97, 0, 157]",157,l,0.14047955395653844,colour,0.06
120,22,1,2,15,37,737,1078.8506624677684,1079.3820214276202,"[57, 0, 197]",197,a,0.008033659541979432,colour,0.06
120,22,1,2,15,38,738,1079.8974820279982,1080.750064886175,"[75, 0, 179]",179,l,0.32955018524080515,colour,0.06
120,22,1,2,15,39,739,1081.2568699447438,1082.3740023402497,"[67, 0, 187]",187,l,0.5937637721654028,colour,0.06
120,22,1,2,15,40,740,1082.8822153965011,1083.5900379943196,"[59, 0, 195]",195,l,0.18442482990212739,colour,0.06
120,22,1,2,15,41,741,1084.0903981660958,1084.9980181697756,"[80, 0, 174]",174,l,0.3916643396951258,colour,0.06
120,22,1,2,15,42,742,1085.5073351748288,1086.1340350611135,"[92, 0, 162]",162,l,0.10337301064282656,colour,0.06
120,22,1,2,15,43,743,1086.6479364272673,1087.1820369451307,"[50, 0, 204]",204,a,0.010713777970522642,colour,0.06
120,22,1,2,15,44,744,1087.6948958022986,1088.478028740501,"[73, 0, 181]",181,l,0.2583685265854001,colour,0.06
120,22,1,2,15,45,745,1088.9932550028898,1089.8859951314516,"[94, 0, 160]",160,l,0.36943688383325934,colour,0.06
120,22,1,2,15,46,746,1090.3994829598814,1092.669992560288,"[38, 0, 216]",216,l,1.7471331004053354,colour,0.06
120,22,1,2,15,47,747,1093.1818790130783,1094.0220045396127,"[86, 0, 168]",168,l,0.31681952462531626,colour,0.06
120,22,1,2,15,48,748,1094.5409333428834,1095.5179560051765,"[60, 0, 194]",194,l,0.4537158727180213,colour,0.06
120,22,1,2,15,49,749,1096.0252805461641,1097.1820204036776,"[99, 0, 155]",155,l,0.6334011666476727,colour,0.06
120,22,1,2,15,50,750,1097.697176561458,1098.2380264089443,"[56, 0, 198]",198,a,0.01747925509698689,colour,0.06
120,22,1,2,16,1,751,1103.4787341176998,1104.1580340338405,"[75, 0, 179]",179,l,0.1552042542025447,colour,0.06
120,22,1,2,16,2,752,1104.667364823399,1106.2220020189416,"[97, 0, 157]",157,l,1.0308369176927954,colour,0.06
120,22,1,2,16,3,753,1106.7297901159618,1107.3100292352028,"[53, 0, 201]",201,l,0.056275395676493645,colour,0.06
120,22,1,2,16,4,754,1107.8242007794324,1108.5339425860438,"[96, 0, 158]",158,l,0.18639996484853327,colour,0.06
120,22,1,2,16,5,755,1109.0428456596565,1110.109977799002,"[99, 0, 155]",155,l,0.543832439230755,colour,0.06
120,22,1,2,16,6,756,1110.6209844010882,1111.2140006546397,"[67, 0, 187]",187,l,0.07049242896027863,colour,0.06
120,22,1,2,16,7,757,1111.7303466196172,1112.421985713765,"[86, 0, 168]",168,l,0.1659507213626057,colour,0.06
120,22,1,2,16,8,758,1112.935715363361,1113.5019623350818,"[81, 0, 173]",173,l,0.04296853928826749,colour,0.06
120,22,1,2,16,9,759,1114.0137515079696,1114.5579919712618,"[83, 0, 171]",171,l,0.02124284254387021,colour,0.06
120,22,1,2,16,10,760,1115.0762973171659,1115.6939868070185,"[28, 0, 226]",226,a,0.09457962308079004,colour,0.06
120,22,1,2,16,11,761,1116.201251089573,1116.8619500785135,"[94, 0, 160]",160,l,0.13733509182929993,colour,0.06
120,22,1,2,16,12,762,1117.373149271123,1118.0699575869367,"[65, 0, 189]",189,l,0.1713562502991408,colour,0.06
120,22,1,2,16,13,763,1118.5784171903506,1119.2619529142976,"[98, 0, 156]",156,l,0.1605381031986326,colour,0.06
120,22,1,2,16,14,764,1119.7814984796569,1120.405936905183,"[78, 0, 176]",176,l,0.10107610374689102,colour,0.06
120,22,1,2,16,15,765,1120.9220662552398,1121.6699488435406,"[60, 0, 194]",194,l,0.22422448871657252,colour,0.06
120,22,1,2,16,16,766,1122.18877839786,1122.750005415408,"[64, 0, 190]",190,l,0.038234910694882274,colour,0.06
120,22,1,2,16,17,767,1123.2669571146835,1124.021928133443,"[63, 0, 191]",191,l,0.23165438324213028,colour,0.06
120,22,1,2,16,18,768,1124.532534588594,1125.2139801746234,"[66, 0, 188]",188,l,0.1581037442665547,colour,0.06
120,22,1,2,16,19,769,1125.735675742384,1126.4619748122059,"[88, 0, 166]",166,l,0.20303796650841832,colour,0.06
120,22,1,2,16,20,770,1126.970012607053,1127.5979275065474,"[82, 0, 172]",172,l,0.10453682392835617,colour,0.06
120,22,1,2,16,21,771,1128.1120159493294,1128.8859967067838,"[52, 0, 202]",202,l,0.25074919243343174,colour,0.06
120,22,1,2,16,22,772,1129.3932582323905,1130.2299281586893,"[62, 0, 192]",192,l,0.31335959234274924,colour,0.06
120,22,1,2,16,23,773,1130.737213708926,1131.4139095188584,"[12, 0, 242]",242,a,0.1536143000703305,colour,0.06
120,22,1,2,16,24,774,1131.9244746200275,1132.6699492372572,"[84, 0, 170]",170,l,0.22246321174316108,colour,0.06
120,22,1,2,16,25,775,1133.1901355893351,1133.7499624863267,"[51, 0, 203]",203,a,0.03659887658432126,colour,0.06
120,22,1,2,16,26,776,1134.268266650848,1135.0619798533153,"[70, 0, 184]",184,l,0.2703457607422024,colour,0.06
120,22,1,2,16,27,777,1135.5807554507628,1136.1183292919304,"[87, 0, 167]",167,l,0.014350153040140867,colour,0.06
120,22,1,2,16,28,778,1136.6276466907002,1137.2139545746613,"[55, 0, 199]",199,a,0.06076050759293139,colour,0.06
120,22,1,2,16,29,779,1137.7235673577525,1138.3899692289997,"[69, 0, 185]",185,l,0.14305924181826413,colour,0.06
120,22,1,2,16,30,780,1138.911085056141,1139.5579159590416,"[89, 0, 165]",165,l,0.12369976844638586,colour,0.06
120,22,1,2,16,31,781,1140.0673389085568,1140.6059186309576,"[85, 0, 169]",169,l,0.015100034885108471,colour,0.06
120,22,1,2,16,32,782,1141.1141785546206,1141.9979315237142,"[79, 0, 175]",175,l,0.36038001347333193,colour,0.06
120,22,1,2,16,33,783,1142.5048208653461,1143.3018825419713,"[61, 0, 193]",193,l,0.2717785704880953,colour,0.06
120,22,1,2,16,34,784,1143.8094426025636,1144.6299215422478,"[90, 0, 164]",164,l,0.290204236516729,colour,0.06
120,22,1,2,16,35,785,1145.1469516165089,1145.6859507844783,"[25, 0, 229]",229,a,0.015709313796833158,colour,0.06
120,22,1,2,16,36,786,1146.1959282681346,1147.0059202848934,"[56, 0, 198]",198,l,0.2866824702359736,colour,0.06
120,22,1,2,16,37,787,1147.5240413113497,1148.1978955261875,"[54, 0, 200]",200,l,0.1506155605893582,colour,0.06
120,22,1,2,16,38,788,1148.7115286837798,1149.237934642937,"[92, 0, 162]",162,l,0.0033165724016726017,colour,0.06
120,22,1,2,16,39,789,1149.758353757672,1150.669939391315,"[50, 0, 204]",204,l,0.3882804196327925,colour,0.06
120,22,1,2,16,40,790,1151.1813599248417,1152.0939333229326,"[91, 0, 163]",163,l,0.3895592358894646,colour,0.06
120,22,1,2,16,41,791,1152.60317313415,1153.3419303232804,"[58, 0, 196]",196,l,0.2154842703603208,colour,0.06
120,22,1,2,16,42,792,1153.8532193126157,1154.6938974042423,"[59, 0, 195]",195,l,0.3173287669196725,colour,0.06
120,22,1,2,16,43,793,1155.2125520911068,1155.7899535538163,"[68, 0, 186]",186,l,0.05445070960558951,colour,0.06
120,22,1,2,16,44,794,1156.30635662633,1157.1019023917615,"[95, 0, 159]",159,l,0.2725950120948255,colour,0.06
120,22,1,2,16,45,795,1157.6187493281905,1158.4858902897686,"[57, 0, 197]",197,l,0.3446080784779042,colour,0.06
120,22,1,2,16,46,796,1158.9937496727798,1159.9578601117246,"[74, 0, 180]",180,l,0.44091550167649984,colour,0.06
120,22,1,2,16,47,797,1160.4638904763851,1161.4058770406991,"[80, 0, 174]",174,l,0.41895546671003103,colour,0.06
120,22,1,2,16,48,798,1161.916481132852,1162.701895617647,"[93, 0, 161]",161,l,0.2620529509149492,colour,0.06
120,22,1,2,16,49,799,1163.2136749445926,1163.9338638957124,"[73, 0, 181]",181,l,0.19681914639659226,colour,0.06
120,22,1,2,16,50,800,1164.4494387111627,1165.4939834200777,"[72, 0, 182]",182,l,0.5209988551214337,colour,0.06
