id,age,condition,counterbalance,block,trialinblock,trial,tstart,tend,trialstim,trialintensity,response,RT,trialtype,colourfreq
113,20,1,1,Practice,1,NA,5.513778887689114e-06,1.3043192294426262,"[78, 0, 176]",176,a,0.7487999515142292,colour,0.5
113,20,1,1,Practice,2,NA,1.8132548056310043,2.5923478100448847,"[1, 0, 253]",253,a,0.2644604468951002,colour,0.5
113,20,1,1,Practice,3,NA,3.1016752630239353,3.648334189201705,"[40, 0, 214]",214,a,0.02332394919358194,colour,0.5
113,20,1,1,Practice,4,NA,4.16427037678659,6.968297372572124,"[36, 0, 218]",218,a,2.2807853602571413,colour,0.5
113,20,1,1,Practice,5,NA,7.476751669077203,8.40831030649133,"[48, 0, 206]",206,a,0.4082398080499843,colour,0.5
113,20,1,1,Practice,6,NA,8.930241222726181,9.72834398818668,"[59, 0, 195]",195,a,0.27525733900256455,colour,0.5
113,20,1,1,Practice,7,NA,10.24230897682719,11.056313665118068,"[72, 0, 182]",182,a,0.2906882220413536,colour,0.5
113,20,1,1,Practice,8,NA,11.570464155287482,12.384334936039522,"[32, 0, 222]",222,a,0.29046491149347275,colour,0.5
113,20,1,1,Practice,9,NA,12.89653864572756,13.512309654266573,"[54, 0, 200]",200,a,0.09239034540951252,colour,0.5
113,20,1,1,Practice,10,NA,14.020478806341998,21.760345150833018,"[79, 0, 175]",175,a,7.214669657871127,colour,0.5
113,20,1,1,1,1,1,4.227485404000618,5.112002690671943,"[0, 0, 254]",254,a,0.36045251321047544,colour,0.5
113,20,1,1,1,2,2,5.618922957335599,6.19997329718899,"[13, 0, 241]",241,a,0.05775907973293215,colour,0.5
113,20,1,1,1,3,3,6.706522561027668,7.623974425136112,"[20, 0, 234]",234,a,0.3943626469699666,colour,0.5
113,20,1,1,1,4,4,8.14416493626777,9.024006090359762,"[19, 0, 235]",235,a,0.363600917509757,colour,0.5
113,20,1,1,1,5,5,9.543285242049024,10.415969821857288,"[8, 0, 246]",246,a,0.34940159041434526,colour,0.5
113,20,1,1,1,6,6,10.933878389769234,11.71202970854938,"[29, 0, 225]",225,a,0.253673794795759,colour,0.5
113,20,1,1,1,7,7,12.231895690667443,12.872003620141186,"[43, 0, 211]",211,a,0.1168922878568992,colour,0.5
113,20,1,1,1,8,8,13.388165481388569,14.151982777868398,"[44, 0, 210]",210,a,0.24044726719148457,colour,0.5
113,20,1,1,1,9,9,14.66938997991383,15.255974248750135,"[70, 0, 184]",184,l,0.06340092257596552,colour,0.5
113,20,1,1,1,10,10,15.763139093760401,16.303998244926333,"[88, 0, 166]",166,l,0.01756828499492258,colour,0.5
113,20,1,1,1,11,11,16.81181254191324,17.351964345900342,"[90, 0, 164]",164,l,0.017130328342318535,colour,0.5
113,20,1,1,1,12,12,17.858695172704756,19.42401176178828,"[51, 0, 203]",203,a,1.041880787583068,colour,0.5
113,20,1,1,1,13,13,19.936864135670476,20.719994060811587,"[72, 0, 182]",182,l,0.2597760434728116,colour,0.5
113,20,1,1,1,14,14,21.233686114195734,22.60800239769742,"[89, 0, 165]",165,l,0.8511282110121101,colour,0.5
113,20,1,1,1,15,15,23.12431982799899,23.80797018110752,"[58, 0, 196]",196,a,0.15923466288950294,colour,0.5
113,20,1,1,1,16,16,24.328537996625528,26.07998419890646,"[9, 0, 245]",245,a,1.237399687524885,colour,0.5
113,20,1,1,1,17,17,26.60140311543364,27.383929668576457,"[91, 0, 163]",163,l,0.2592242653481662,colour,0.5
113,20,1,1,1,18,18,27.898693376686424,28.64793246635236,"[3, 0, 251]",251,a,0.22603802022058517,colour,0.5
113,20,1,1,1,19,19,29.164237293647602,29.92799236252904,"[21, 0, 233]",233,a,0.24036889185663313,colour,0.5
113,20,1,1,1,20,20,30.445509053650312,31.159969185478985,"[2, 0, 252]",252,a,0.1910865579266101,colour,0.5
113,20,1,1,1,21,21,31.679890699801035,32.72800685605034,"[83, 0, 171]",171,l,0.5248276530764997,colour,0.5
113,20,1,1,1,22,22,33.24233575828839,33.888017001445405,"[76, 0, 178]",178,l,0.12224662315566093,colour,0.5
113,20,1,1,1,23,23,34.39858900755644,34.98401221865788,"[54, 0, 200]",200,a,0.062136283377185464,colour,0.5
113,20,1,1,1,24,24,35.48894080647733,36.11998279672116,"[6, 0, 248]",248,a,0.10766053944826126,colour,0.5
113,20,1,1,1,25,25,36.617215635371394,37.56794432899915,"[79, 0, 175]",175,l,0.4273618151200935,colour,0.5
113,20,1,1,1,26,26,38.08595765999053,38.98396220023278,"[96, 0, 158]",158,l,0.3746522341389209,colour,0.5
113,20,1,1,1,27,27,39.49828361941036,40.03194129804615,"[85, 0, 169]",169,l,0.010737421340309083,colour,0.5
113,20,1,1,1,28,28,40.54508945019916,41.15197411319241,"[5, 0, 249]",249,a,0.08359694748651236,colour,0.5
113,20,1,1,1,29,29,41.67014419485349,42.287957294494845,"[53, 0, 201]",201,a,0.09458288573659956,colour,0.5
113,20,1,1,1,30,30,42.79506857634988,43.34393107064534,"[73, 0, 181]",181,l,0.02590600319672376,colour,0.5
113,20,1,1,1,31,31,43.85757507488597,44.567967565963045,"[10, 0, 244]",244,a,0.18708035722374916,colour,0.5
113,20,1,1,1,32,32,45.076406502514146,46.439952281536534,"[40, 0, 214]",214,a,0.8502546607051045,colour,0.5
113,20,1,1,1,33,33,46.95716019754764,47.551917163073085,"[68, 0, 186]",186,l,0.07174691138789058,colour,0.5
113,20,1,1,1,34,34,48.06651742523536,48.63196477119345,"[49, 0, 205]",205,a,0.04227148264180869,colour,0.5
113,20,1,1,1,35,35,49.1340935084736,49.775955627672374,"[32, 0, 222]",222,a,0.11854092683643103,colour,0.5
113,20,1,1,1,36,36,50.29030382842757,51.04793735011481,"[84, 0, 170]",170,l,0.23439976305235177,colour,0.5
113,20,1,1,1,37,37,51.555888311588205,52.59992895019241,"[12, 0, 242]",242,a,0.5206138956127688,colour,0.5
113,20,1,1,1,38,38,53.118409382295795,54.055944237625226,"[80, 0, 174]",174,l,0.4142333552008495,colour,0.5
113,20,1,1,1,39,39,54.571625213022344,55.47196762263775,"[99, 0, 155]",155,l,0.3771484295139089,colour,0.5
113,20,1,1,1,40,40,55.97974450420588,56.72796944063157,"[48, 0, 206]",206,a,0.2249254055786878,colour,0.5
113,20,1,1,1,41,41,57.234121707850136,57.9119443227537,"[37, 0, 217]",217,a,0.15454395790584385,colour,0.5
113,20,1,1,1,42,42,58.421525412471965,58.95197088376153,"[69, 0, 185]",185,l,0.007117583532817662,colour,0.5
113,20,1,1,1,43,43,59.46841355704237,61.047947983955964,"[35, 0, 219]",219,a,1.054728041519411,colour,0.5
113,20,1,1,1,44,44,61.56389007915277,62.7919835812645,"[66, 0, 188]",188,l,0.7047159897629172,colour,0.5
113,20,1,1,1,45,45,63.29832410684321,64.08797769562807,"[50, 0, 204]",204,a,0.2664025010308251,colour,0.5
113,20,1,1,1,46,46,64.5951421468053,66.95194095140323,"[47, 0, 207]",207,a,1.8335177844855934,colour,0.5
113,20,1,1,1,47,47,67.47017601761036,68.23194373981096,"[94, 0, 160]",160,l,0.2384516499005258,colour,0.5
113,20,1,1,1,48,48,68.75142690376379,69.41596391424537,"[45, 0, 209]",209,a,0.141188642825,colour,0.5
113,20,1,1,1,49,49,69.9233473436907,70.79198436904699,"[78, 0, 176]",176,l,0.3502759285038337,colour,0.5
113,20,1,1,1,50,50,71.30914187268354,72.60797719156835,"[14, 0, 240]",240,a,0.7756598495179787,colour,0.5
113,20,1,1,2,1,51,77.88708594976924,78.45592352142558,"[75, 0, 179]",179,l,0.04469678597524762,colour,0.5
113,20,1,1,2,2,52,78.96594690007623,80.45591879519634,"[86, 0, 168]",168,l,0.9667282904265448,colour,0.5
113,20,1,1,2,3,53,80.9660453615943,81.57594058278482,"[54, 0, 200]",200,a,0.0867095118155703,colour,0.5
113,20,1,1,2,4,54,82.09090278937947,82.9599316912936,"[17, 0, 237]",237,a,0.34560373425483704,colour,0.5
113,20,1,1,2,5,55,83.46593902318273,84.00793008762412,"[1, 0, 253]",253,a,0.01872382895089686,colour,0.5
113,20,1,1,2,6,56,84.52850971848238,85.38394384703133,"[69, 0, 185]",185,l,0.3322476315079257,colour,0.5
113,20,1,1,2,7,57,85.9034077123506,86.6719503721688,"[81, 0, 173]",173,l,0.24290722876321524,colour,0.5
113,20,1,1,2,8,58,87.18684523110278,87.80793749191798,"[12, 0, 242]",242,a,0.09771356696728617,colour,0.5
113,20,1,1,2,9,59,88.32745373877697,90.13591859047301,"[64, 0, 190]",190,l,1.2851349946577102,colour,0.5
113,20,1,1,2,10,60,90.65561521879863,91.55195024621207,"[99, 0, 155]",155,l,0.37304416112601757,colour,0.5
113,20,1,1,2,11,61,92.06198544020299,92.87192406330723,"[94, 0, 160]",160,l,0.2866698121652007,colour,0.5
113,20,1,1,2,12,62,93.38993424340151,93.95992538973223,"[56, 0, 198]",198,a,0.0466238739900291,colour,0.5
113,20,1,1,2,13,63,94.46804728033021,95.35990585503168,"[16, 0, 238]",238,a,0.36634602362755686,colour,0.5
113,20,1,1,2,14,64,95.8783543856116,96.75197592494078,"[38, 0, 216]",216,a,0.3486871540080756,colour,0.5
113,20,1,1,2,15,65,97.27068912005052,98.07194068364333,"[89, 0, 165]",165,l,0.27797881432343274,colour,0.5
113,20,1,1,2,16,66,98.5832200369332,99.75992924941238,"[61, 0, 193]",193,a,0.653667256818153,colour,0.5
113,20,1,1,2,17,67,100.2706623384729,101.06391843606252,"[72, 0, 182]",182,l,0.26999398204497993,colour,0.5
113,20,1,1,2,18,68,101.58319758775178,102.1599349208409,"[74, 0, 180]",180,l,0.05380447278730571,colour,0.5
113,20,1,1,2,19,69,102.67690377240069,103.90393822290935,"[35, 0, 219]",219,a,0.7037120766472071,colour,0.5
113,20,1,1,2,20,70,104.41123618779238,105.0319141226355,"[26, 0, 228]",228,a,0.09724134567659348,colour,0.5
113,20,1,1,2,21,71,105.55185217852704,106.07996096194256,"[20, 0, 234]",234,a,0.004612723481841385,colour,0.5
113,20,1,1,2,22,72,106.59874623082578,107.84787661908194,"[8, 0, 246]",246,a,0.7259301065932959,colour,0.5
113,20,1,1,2,23,73,108.36435788928065,108.91990631190129,"[47, 0, 207]",207,a,0.03220793174114078,colour,0.5
113,20,1,1,2,24,74,109.42691795085557,109.99187889706809,"[44, 0, 210]",210,a,0.04171734151896089,colour,0.5
113,20,1,1,2,25,75,110.50504122779239,111.63189860514831,"[83, 0, 171]",171,l,0.6035720249637961,colour,0.5
113,20,1,1,2,26,76,112.14564855385106,113.0239454380935,"[19, 0, 235]",235,a,0.35505446104798466,colour,0.5
113,20,1,1,2,27,77,113.53620586160105,114.20794119406492,"[52, 0, 202]",202,a,0.1483830262441188,colour,0.5
113,20,1,1,2,28,78,114.72370605857577,115.39191331923939,"[4, 0, 250]",250,a,0.14486480061896145,colour,0.5
113,20,1,1,2,29,79,115.91126572620124,116.63193602045067,"[42, 0, 212]",212,a,0.19727584649808705,colour,0.5
113,20,1,1,2,30,80,117.13313843205106,117.84795460058376,"[23, 0, 231]",231,a,0.19161431142129004,colour,0.5
113,20,1,1,2,31,81,118.36751771508716,119.34393658442423,"[41, 0, 213]",213,a,0.4530988584738225,colour,0.5
113,20,1,1,2,32,82,119.85191472130828,120.87988408317324,"[29, 0, 225]",225,a,0.5051964030135423,colour,0.5
113,20,1,1,2,33,83,121.39878553664312,122.22393488301896,"[93, 0, 161]",161,l,0.3019541846588254,colour,0.5
113,20,1,1,2,34,84,122.7430194747867,123.58389745187014,"[97, 0, 157]",157,l,0.31776946142781526,colour,0.5
113,20,1,1,2,35,85,124.10245822870638,124.99187062634155,"[60, 0, 194]",194,a,0.3659978638170287,colour,0.5
113,20,1,1,2,36,86,125.49942537874449,126.26383698871359,"[82, 0, 172]",172,l,0.24122235598042607,colour,0.5
113,20,1,1,2,37,87,126.78074991411995,127.41591704660095,"[98, 0, 156]",156,l,0.11197078926488757,colour,0.5
113,20,1,1,2,38,88,127.93696062790696,128.50393136998173,"[22, 0, 232]",232,a,0.04353966668713838,colour,0.5
113,20,1,1,2,39,89,129.01507720944937,129.93590433325153,"[34, 0, 220]",220,a,0.3975039621582255,colour,0.5
113,20,1,1,2,40,90,130.45256559108384,131.26390433637425,"[18, 0, 236]",236,a,0.2879860452376306,colour,0.5
113,20,1,1,2,41,91,131.78169475041796,132.55996540456545,"[14, 0, 240]",240,a,0.2549577325116843,colour,0.5
113,20,1,1,2,42,92,133.07882747333497,133.87191067251842,"[95, 0, 159]",159,l,0.27002824656665325,colour,0.5
113,20,1,1,2,43,93,134.39161635935307,135.31992498016916,"[62, 0, 192]",192,a,0.40494292380753905,colour,0.5
113,20,1,1,2,44,94,135.82913743017707,136.88788860768545,"[2, 0, 252]",252,a,0.5354437697678804,colour,0.5
113,20,1,1,2,45,95,137.40727291628718,137.93592441931833,"[30, 0, 224]",224,a,0.005449646036140621,colour,0.5
113,20,1,1,2,46,96,138.45408938091714,139.45587783528026,"[10, 0, 244]",244,a,0.4784778958419338,colour,0.5
113,20,1,1,2,47,97,139.97170453355648,140.63989997887984,"[58, 0, 196]",196,a,0.14430632709991187,colour,0.5
113,20,1,1,2,48,98,141.1460955690127,142.23195909988135,"[55, 0, 199]",199,a,0.5625439138384536,colour,0.5
113,20,1,1,2,49,99,142.73983680596575,143.8238843132276,"[48, 0, 206]",206,a,0.5607976010069251,colour,0.5
113,20,1,1,2,50,100,144.333540233667,145.02390132739674,"[78, 0, 176]",176,l,0.16719862120226026,colour,0.5
113,20,1,1,3,1,101,150.05142682499718,150.84790340054315,"[42, 0, 212]",212,a,0.2722255130065605,colour,0.5
113,20,1,1,3,2,102,151.36471904604696,152.06396333442535,"[55, 0, 199]",199,a,0.1758927699411288,colour,0.5
113,20,1,1,3,3,103,152.58366980892606,153.18388941744342,"[89, 0, 165]",165,l,0.07726587436627597,colour,0.5
113,20,1,1,3,4,104,153.6928982490208,154.49591384851374,"[65, 0, 189]",189,l,0.2797991700936109,colour,0.5
113,20,1,1,3,5,105,155.00544570747297,155.70386607025284,"[95, 0, 159]",159,l,0.17509838263504207,colour,0.5
113,20,1,1,3,6,106,156.22419009520672,156.79987822275143,"[97, 0, 157]",157,l,0.05244058440439403,colour,0.5
113,20,1,1,3,7,107,157.31791991065256,157.85653492773417,"[83, 0, 171]",171,l,0.015332815470173955,colour,0.5
113,20,1,1,3,8,108,158.3621822844725,159.4879636747064,"[73, 0, 181]",181,a,0.6025082471314818,colour,0.5
113,20,1,1,3,9,109,160.00277897680644,160.6559050893411,"[47, 0, 207]",207,a,0.12977026170119643,colour,0.5
113,20,1,1,3,10,110,161.1654208006803,161.96794960659463,"[76, 0, 178]",178,a,0.2784809678560123,colour,0.5
113,20,1,1,3,11,111,162.47904621541966,163.34389562450815,"[60, 0, 194]",194,a,0.34163376747164875,colour,0.5
113,20,1,1,3,12,112,163.85403164313175,165.25589705491439,"[33, 0, 221]",221,a,0.8785509148146957,colour,0.5
113,20,1,1,3,13,113,165.7758402308682,166.39987806521822,"[43, 0, 211]",211,a,0.10070561431348324,colour,0.5
113,20,1,1,3,14,114,166.91650742152706,167.9838956402382,"[75, 0, 179]",179,l,0.5443726506782696,colour,0.5
113,20,1,1,3,15,115,168.4945842246525,169.47993985179346,"[61, 0, 193]",193,a,0.4648724884027615,colour,0.5
113,20,1,1,3,16,116,169.99176074331626,170.8158786072163,"[6, 0, 248]",248,a,0.3008084869943559,colour,0.5
113,20,1,1,3,17,117,171.3354594449047,172.5038900161162,"[74, 0, 180]",180,l,0.6437167397234589,colour,0.5
113,20,1,1,3,18,118,173.02437394252047,173.91986495803576,"[25, 0, 229]",229,a,0.3721217740094289,colour,0.5
113,20,1,1,3,19,119,174.4305547240656,174.96785508352332,"[37, 0, 217]",217,a,0.01388031174428761,colour,0.5
113,20,1,1,3,20,120,175.47231460094918,176.11189359542914,"[78, 0, 176]",176,l,0.1162483497755602,colour,0.5
113,20,1,1,3,21,121,176.62857848394196,177.67983949987683,"[23, 0, 231]",231,a,0.5279366727918386,colour,0.5
113,20,1,1,3,22,122,178.1911030993797,179.06386132840998,"[29, 0, 225]",225,a,0.3494740581372753,colour,0.5
113,20,1,1,3,23,123,179.58162929327227,180.47984493488912,"[36, 0, 218]",218,a,0.37244236457627267,colour,0.5
113,20,1,1,3,24,124,180.99021607963368,181.87985887704417,"[85, 0, 169]",169,l,0.3663436605129391,colour,0.5
113,20,1,1,3,25,125,182.396481144242,183.65584364940878,"[56, 0, 198]",198,a,0.736010986729525,colour,0.5
113,20,1,1,3,26,126,184.16215621179435,184.82389691635035,"[12, 0, 242]",242,a,0.13844747515395284,colour,0.5
113,20,1,1,3,27,127,185.3346524545923,186.2878611960914,"[92, 0, 162]",162,l,0.42990054609254,colour,0.5
113,20,1,1,3,28,128,186.80339566071052,187.39205825445242,"[54, 0, 200]",200,a,0.06492116779554635,colour,0.5
113,20,1,1,3,29,129,187.90079296927433,188.49585398391355,"[31, 0, 223]",223,a,0.06876155931968242,colour,0.5
113,20,1,1,3,30,130,189.01299849071074,189.63190018048044,"[45, 0, 209]",209,a,0.09553244814742357,colour,0.5
113,20,1,1,3,31,131,190.13797604152933,191.59988168859854,"[38, 0, 216]",216,a,0.9514029579004273,colour,0.5
113,20,1,1,3,32,132,192.10990231041797,193.07988967583515,"[1, 0, 253]",253,a,0.44731995731126517,colour,0.5
113,20,1,1,3,33,133,193.59429340891074,194.45590894902125,"[22, 0, 232]",232,a,0.33818840328603983,colour,0.5
113,20,1,1,3,34,134,194.96926032577176,195.52787680807523,"[53, 0, 201]",201,a,0.03524251456838101,colour,0.5
113,20,1,1,3,35,135,196.047576981131,196.72788161307108,"[59, 0, 195]",195,a,0.15706732880789787,colour,0.5
113,20,1,1,3,36,136,197.23510080878623,197.76790108473506,"[8, 0, 246]",246,a,0.009616142022423446,colour,0.5
113,20,1,1,3,37,137,198.28192672575824,198.9518960530404,"[62, 0, 192]",192,a,0.14678913180250674,colour,0.5
113,20,1,1,3,38,138,199.4693918703124,200.35186982282903,"[80, 0, 174]",174,l,0.3595045260153711,colour,0.5
113,20,1,1,3,39,139,200.8600503965281,201.43185717251617,"[30, 0, 224]",224,a,0.04847849439829588,colour,0.5
113,20,1,1,3,40,140,201.93942019576207,202.82388391939458,"[20, 0, 234]",234,a,0.36117522045969963,colour,0.5
113,20,1,1,3,41,141,203.33004642650485,204.17589631455485,"[21, 0, 233]",233,a,0.3225909232860431,colour,0.5
113,20,1,1,3,42,142,204.69008225074504,205.2718403316103,"[81, 0, 173]",173,l,0.058466033078730106,colour,0.5
113,20,1,1,3,43,143,205.78376716771163,206.32785349246114,"[11, 0, 243]",243,a,0.02083248004782945,colour,0.5
113,20,1,1,3,44,144,206.84714918560348,208.38384302239865,"[3, 0, 251]",251,a,1.0126089771511033,colour,0.5
113,20,1,1,3,45,145,208.89526022179052,209.51186736521777,"[52, 0, 202]",202,a,0.09330524946562946,colour,0.5
113,20,1,1,3,46,146,210.02102388907224,210.93585943477228,"[35, 0, 219]",219,a,0.39256710349582136,colour,0.5
113,20,1,1,3,47,147,211.44204832962714,212.2958822620567,"[68, 0, 186]",186,a,0.3303630786249414,colour,0.5
113,20,1,1,3,48,148,212.8178312953096,213.6398385388311,"[2, 0, 252]",252,a,0.29959386598784477,colour,0.5
113,20,1,1,3,49,149,214.16085809573997,214.70386370725464,"[64, 0, 190]",190,a,0.019690720713697374,colour,0.5
113,20,1,1,3,50,150,215.22331575723365,216.14380574889947,"[32, 0, 222]",222,a,0.3970663993386552,colour,0.5
113,20,1,1,4,1,151,220.55067654850427,221.42385816189926,"[21, 0, 233]",233,a,0.3614765126258135,colour,0.5
113,20,1,1,4,2,152,221.94539011223242,222.91187185514718,"[91, 0, 163]",163,l,0.4411542994203046,colour,0.5
113,20,1,1,4,3,153,223.43174453254323,224.263859437895,"[28, 0, 226]",226,a,0.3088464882457629,colour,0.5
113,20,1,1,4,4,154,224.77546883409377,225.52788901736494,"[42, 0, 212]",212,a,0.22905291093047708,colour,0.5
113,20,1,1,4,5,155,226.04112302791327,226.75986544648185,"[13, 0, 241]",241,a,0.19548148452304304,colour,0.5
113,20,1,1,4,6,156,227.27553933253512,228.10379376017954,"[94, 0, 160]",160,l,0.30501161061692983,colour,0.5
113,20,1,1,4,7,157,228.6067330322694,229.41588829574175,"[98, 0, 156]",156,l,0.28606289555318654,colour,0.5
113,20,1,1,4,8,158,229.9349039645167,230.81585458258633,"[84, 0, 170]",170,l,0.357660933281295,colour,0.5
113,20,1,1,4,9,159,231.325515623088,232.103850080166,"[48, 0, 206]",206,a,0.25506013247650117,colour,0.5
113,20,1,1,4,10,160,232.6224628444761,233.79182998137549,"[65, 0, 189]",189,a,0.6460786337265745,colour,0.5
113,20,1,1,4,11,161,234.3099516199436,235.08787253883202,"[92, 0, 162]",162,l,0.25464265572372824,colour,0.5
113,20,1,1,4,12,162,235.60676690307446,236.37584558711387,"[99, 0, 155]",155,l,0.24577403324656188,colour,0.5
113,20,1,1,4,13,163,236.88997480960097,237.7118375117425,"[56, 0, 198]",198,a,0.2984528944361955,colour,0.5
113,20,1,1,4,14,164,238.21812762494665,239.09584082954098,"[11, 0, 243]",243,a,0.35451410443056375,colour,0.5
113,20,1,1,4,15,165,239.60870935115963,240.4078932235716,"[32, 0, 222]",222,a,0.27583274780772626,colour,0.5
113,20,1,1,4,16,166,240.92142655712087,241.6878467813367,"[90, 0, 164]",164,l,0.24231291539035738,colour,0.5
113,20,1,1,4,17,167,242.2035064889351,243.17590222216677,"[6, 0, 248]",248,a,0.4493549591861665,colour,0.5
113,20,1,1,4,18,168,243.68789089203347,244.54382993094623,"[16, 0, 238]",238,a,0.33256310201250017,colour,0.5
113,20,1,1,4,19,169,245.06282275670674,245.99196948157623,"[62, 0, 192]",192,a,0.40580899093765765,colour,0.5
113,20,1,1,4,20,170,246.50036312593147,247.26382477942389,"[59, 0, 195]",195,a,0.2407107501057908,colour,0.5
113,20,1,1,4,21,171,247.7817652488593,248.5198644066695,"[71, 0, 183]",183,a,0.21501112217083573,colour,0.5
113,20,1,1,4,22,172,249.03186331654433,249.7198176177917,"[64, 0, 190]",190,a,0.16466973652131855,colour,0.5
113,20,1,1,4,23,173,250.2349751718575,250.87982933863532,"[95, 0, 159]",159,l,0.12151564517989755,colour,0.5
113,20,1,1,4,24,174,251.39126701804344,252.07984123274218,"[70, 0, 184]",184,a,0.16526680695824325,colour,0.5
113,20,1,1,4,25,175,252.59440092882141,253.6718881445704,"[4, 0, 250]",250,a,0.5542676356853917,colour,0.5
113,20,1,1,4,26,176,254.1881591010606,254.815824256395,"[67, 0, 187]",187,a,0.10437586449552327,colour,0.5
113,20,1,1,4,27,177,255.32881644566078,256.0318026642781,"[77, 0, 177]",177,l,0.1797654569381848,colour,0.5
113,20,1,1,4,28,178,256.54751199646853,257.11184160772245,"[17, 0, 237]",237,a,0.041080492665059865,colour,0.5
113,20,1,1,4,29,179,257.6256522088079,258.23180156142917,"[72, 0, 182]",182,l,0.08293371100444347,colour,0.5
113,20,1,1,4,30,180,258.75060967344325,259.6638292693533,"[66, 0, 188]",188,a,0.39007287728600204,colour,0.5
113,20,1,1,4,31,181,260.17249112261925,260.96789328660816,"[79, 0, 175]",175,l,0.27206797467079014,colour,0.5
113,20,1,1,4,32,182,261.48493342427537,262.42388494336046,"[20, 0, 234]",234,a,0.41558227757923305,colour,0.5
113,20,1,1,4,33,183,262.93817524879705,263.90386181673966,"[50, 0, 204]",204,a,0.44241421250626445,colour,0.5
113,20,1,1,4,34,184,264.422399356612,265.25581119651906,"[27, 0, 227]",227,a,0.314237451297231,colour,0.5
113,20,1,1,4,35,185,265.76214857120067,266.4478118708357,"[55, 0, 199]",199,a,0.16232950414996594,colour,0.5
113,20,1,1,4,36,186,266.9653230481781,267.8558338820003,"[19, 0, 235]",235,a,0.3673168537206948,colour,0.5
113,20,1,1,4,37,187,268.3703077196842,269.2077935017878,"[5, 0, 249]",249,a,0.3140724297845736,colour,0.5
113,20,1,1,4,38,188,269.71408991655335,270.38382529933006,"[85, 0, 169]",169,l,0.1463972550118342,colour,0.5
113,20,1,1,4,39,189,270.90152552269865,272.00781941681635,"[24, 0, 230]",230,a,0.5828915694728494,colour,0.5
113,20,1,1,4,40,190,272.5265337935416,273.51182049757335,"[2, 0, 252]",252,a,0.4618938317289576,colour,0.5
113,20,1,1,4,41,191,274.0265861749649,274.5678017567843,"[83, 0, 171]",171,l,0.01801057392731309,colour,0.5
113,20,1,1,4,42,192,275.08905998431146,276.0398099456215,"[40, 0, 214]",214,a,0.42790020257234573,colour,0.5
113,20,1,1,4,43,193,276.5454411546234,277.3758577964036,"[33, 0, 221]",221,a,0.3071060832589865,colour,0.5
113,20,1,1,4,44,194,277.8890784162795,278.86389905877877,"[26, 0, 228]",228,a,0.45139074872713536,colour,0.5
113,20,1,1,4,45,195,279.37348054233007,280.19180296361446,"[3, 0, 251]",251,a,0.29493191197980195,colour,0.5
113,20,1,1,4,46,196,280.70170543156564,281.53585888340604,"[9, 0, 245]",245,a,0.3109086655313149,colour,0.5
113,20,1,1,4,47,197,282.0454608469736,282.60781177622266,"[44, 0, 210]",210,a,0.03901949687860906,colour,0.5
113,20,1,1,4,48,198,283.12367588991765,283.7437858990161,"[68, 0, 186]",186,a,0.09695383813232183,colour,0.5
113,20,1,1,4,49,199,284.2652717693709,285.14378566271625,"[36, 0, 218]",218,a,0.35520215320866555,colour,0.5
113,20,1,1,4,50,200,285.65582986478694,286.5117732360959,"[15, 0, 239]",239,a,0.33240989595651627,colour,0.5
113,20,1,1,5,1,201,290.9519496160792,291.543818115606,"[80, 0, 174]",174,l,0.06773598457220942,colour,0.4
113,20,1,1,5,2,202,292.06219260324724,292.80776380584575,"[26, 0, 228]",228,a,0.22232720407191664,colour,0.4
113,20,1,1,5,3,203,293.32777590479236,293.9917898878921,"[88, 0, 166]",166,l,0.14069121540524065,colour,0.4
113,20,1,1,5,4,204,294.49960260943044,295.103785489453,"[11, 0, 243]",243,a,0.08099520148243755,colour,0.4
113,20,1,1,5,5,205,295.62469476938713,296.15184571943246,"[42, 0, 212]",212,a,0.0038427546387538314,colour,0.4
113,20,1,1,5,6,206,296.67162978160195,297.20781043719035,"[82, 0, 172]",172,l,0.01297564769629389,colour,0.4
113,20,1,1,5,7,207,297.71841198171023,298.2798759699799,"[75, 0, 179]",179,l,0.03805969445966184,colour,0.4
113,20,1,1,5,8,208,298.7972717505181,299.45581324456725,"[90, 0, 164]",164,l,0.13519667100626975,colour,0.4
113,20,1,1,5,9,209,299.9690830950858,300.6957709612325,"[73, 0, 181]",181,l,0.20185036689508706,colour,0.4
113,20,1,1,5,10,210,301.20493418036494,301.7677939586574,"[56, 0, 198]",198,a,0.039772530319169164,colour,0.4
113,20,1,1,5,11,211,302.2836580723524,303.3677926196251,"[29, 0, 225]",225,a,0.5608216256368905,colour,0.4
113,20,1,1,5,12,212,303.8774418446701,304.49580751010217,"[45, 0, 209]",209,a,0.09339347097557038,colour,0.4
113,20,1,1,5,13,213,305.0040991483256,305.6398665019078,"[95, 0, 159]",159,l,0.11237960122525692,colour,0.4
113,20,1,1,5,14,214,306.1603571237065,306.799757705885,"[0, 0, 254]",254,a,0.11625780200120062,colour,0.4
113,20,1,1,5,15,215,307.3166781143518,307.9838743725559,"[65, 0, 189]",189,l,0.14369429054204375,colour,0.4
113,20,1,1,5,16,216,308.50406527752057,309.0798022419913,"[63, 0, 191]",191,l,0.05235984595492482,colour,0.4
113,20,1,1,5,17,217,309.5979140343843,311.6158076361753,"[76, 0, 178]",178,a,1.4946350308600813,colour,0.4
113,20,1,1,5,18,218,312.1291070252191,312.7278119022958,"[53, 0, 201]",201,a,0.07542306929826736,colour,0.4
113,20,1,1,5,19,219,313.2291868183529,314.38379851786885,"[35, 0, 219]",219,a,0.6313101993873715,colour,0.4
113,20,1,1,5,20,220,314.9010678738123,315.47985399339814,"[27, 0, 227]",227,a,0.05543696414679289,colour,0.4
113,20,1,1,5,21,221,315.9947586983908,316.54380118020345,"[43, 0, 211]",211,a,0.026024944614619017,colour,0.4
113,20,1,1,5,22,222,317.05726047069766,317.72781268996187,"[60, 0, 194]",194,a,0.14725544524844736,colour,0.4
113,20,1,1,5,23,223,318.2466633373406,318.9837814249331,"[77, 0, 177]",177,l,0.21390795975457877,colour,0.4
113,20,1,1,5,24,224,319.49665191583335,320.23980451060925,"[7, 0, 247]",247,a,0.2198483378160745,colour,0.4
113,20,1,1,5,25,225,320.7466200143099,321.2877981807105,"[5, 0, 249]",249,a,0.017919989419169724,colour,0.4
113,20,1,1,5,26,226,321.8091655034805,322.4798059441382,"[78, 0, 176]",176,l,0.1476961588487029,colour,0.4
113,20,1,1,5,27,227,322.9966377373785,323.5757688659942,"[18, 0, 236]",236,a,0.055854047066532075,colour,0.4
113,20,1,1,5,28,228,324.0903254111763,324.80776183656417,"[66, 0, 188]",188,a,0.19418376218527555,colour,0.4
113,20,1,1,5,29,229,325.3248323003063,325.9037909244653,"[97, 0, 157]",157,l,0.05584695772267878,colour,0.4
113,20,1,1,5,30,230,326.41851012804545,327.03976898570545,"[87, 0, 167]",167,l,0.09804085281211883,colour,0.4
113,20,1,1,5,31,231,327.55906861741096,328.16775551927276,"[89, 0, 165]",165,l,0.08533695875667036,colour,0.4
113,20,1,1,5,32,232,328.6848504014779,329.32796613231767,"[4, 0, 250]",250,a,0.11982525838539004,colour,0.4
113,20,1,1,5,33,233,329.8311940935673,330.88779408473056,"[49, 0, 205]",205,a,0.533316214219667,colour,0.4
113,20,1,1,5,34,234,331.39364978589583,332.07184655440506,"[85, 0, 169]",169,l,0.15472079475875944,colour,0.4
113,20,1,1,5,35,235,332.5835067568114,333.55180097860284,"[68, 0, 186]",186,a,0.44518373697064817,colour,0.4
113,20,1,1,5,36,236,334.06795890128706,334.9518625760684,"[67, 0, 187]",187,a,0.36059823620598763,colour,0.4
113,20,1,1,5,37,237,335.4585347198881,336.0558595608454,"[91, 0, 163]",163,l,0.07394851022399962,colour,0.4
113,20,1,1,5,38,238,336.56862213788554,337.1437943272758,"[30, 0, 224]",224,a,0.051904166233725846,colour,0.4
113,20,1,1,5,39,239,337.66235707327724,338.2077840495622,"[81, 0, 173]",173,l,0.022110510035417974,colour,0.4
113,20,1,1,5,40,240,338.7155573864002,339.34380228305236,"[48, 0, 206]",206,a,0.10531755012925714,colour,0.4
113,20,1,1,5,41,241,339.8560308050364,340.751793574309,"[70, 0, 184]",184,a,0.3722552878316492,colour,0.4
113,20,1,1,5,42,242,341.26243489724584,341.95973988831975,"[84, 0, 170]",170,l,0.18403947283513844,colour,0.4
113,20,1,1,5,43,243,342.471785665839,343.05574337625876,"[99, 0, 155]",155,l,0.059865761548280716,colour,0.4
113,20,1,1,5,44,244,343.56934366363566,344.1758935576072,"[47, 0, 207]",207,a,0.08333700930234045,colour,0.4
113,20,1,1,5,45,245,344.694429915864,345.23179013992194,"[61, 0, 193]",193,a,0.014503375976346433,colour,0.4
113,20,1,1,5,46,246,345.74120266363025,346.31977019878104,"[32, 0, 222]",222,a,0.055188447469845414,colour,0.4
113,20,1,1,5,47,247,346.83403529797215,347.37579084257595,"[13, 0, 241]",241,a,0.021289735101163387,colour,0.4
113,20,1,1,5,48,248,347.89371004432905,348.4718270197045,"[59, 0, 195]",195,a,0.05487494613043964,colour,0.4
113,20,1,1,5,49,249,348.9874756996287,349.62374126841314,"[54, 0, 200]",200,a,0.11293216713238508,colour,0.4
113,20,1,1,5,50,250,350.14514600648545,350.7118067917181,"[9, 0, 245]",245,a,0.04334431898314506,colour,0.4
113,20,1,1,6,1,251,355.3630802531261,355.95175663148984,"[39, 0, 215]",215,a,0.06460097106173635,colour,0.28
113,20,1,1,6,2,252,356.4576367511181,357.5917968195863,"[28, 0, 226]",226,a,0.6108577806735411,colour,0.28
113,20,1,1,6,3,253,358.09823698806576,358.64779580186587,"[78, 0, 176]",176,l,0.026208870694972575,colour,0.28
113,20,1,1,6,4,254,359.1607399418717,360.0558406561613,"[27, 0, 227]",227,a,0.3717263527214527,colour,0.28
113,20,1,1,6,5,255,360.5670313942246,361.23175823839847,"[61, 0, 193]",193,a,0.14213978056795895,colour,0.28
113,20,1,1,6,6,256,361.7387962649809,362.30379029433243,"[91, 0, 163]",163,l,0.04151884315069765,colour,0.28
113,20,1,1,6,7,257,362.81698295113165,363.471810084302,"[66, 0, 188]",188,a,0.1317182236816734,colour,0.28
113,20,1,1,6,8,258,363.99068711930886,365.487739182543,"[34, 0, 220]",220,a,0.9740254676435143,colour,0.28
113,20,1,1,6,9,259,366.00635549158324,366.54377006634604,"[92, 0, 162]",162,l,0.014013431617058814,colour,0.28
113,20,1,1,6,10,260,367.0532018885715,367.78373644768726,"[71, 0, 183]",183,a,0.20724251144565642,colour,0.28
113,20,1,1,6,11,261,368.3033519438468,368.9037432691548,"[72, 0, 182]",182,a,0.0778834248194471,colour,0.28
113,20,1,1,6,12,262,369.4125599039253,370.0877598988591,"[83, 0, 171]",171,l,0.1518539902754128,colour,0.28
113,20,1,1,6,13,263,370.60007309773937,371.27176313789096,"[53, 0, 201]",201,a,0.14869692141655833,colour,0.28
113,20,1,1,6,14,264,371.7875213070074,372.7437441513175,"[68, 0, 186]",186,a,0.4328083104919642,colour,0.28
113,20,1,1,6,15,265,373.2562905070372,374.4317465018248,"[69, 0, 185]",185,a,0.6572792178485543,colour,0.28
113,20,1,1,6,16,266,374.93898184527643,375.4957641870715,"[63, 0, 191]",191,a,0.03346351254731417,colour,0.28
113,20,1,1,6,17,267,376.0171957067214,376.7197187624406,"[89, 0, 165]",165,l,0.17940075555816293,colour,0.28
113,20,1,1,6,18,268,377.23586486978456,377.87975726486184,"[50, 0, 204]",204,a,0.12058498722035438,colour,0.28
113,20,1,1,6,19,269,378.39210945449304,378.91977161657996,"[93, 0, 161]",161,l,0.0042952835792675614,colour,0.28
113,20,1,1,6,20,270,379.43897318060044,379.98386413254775,"[20, 0, 234]",234,a,0.021550854900851846,colour,0.28
113,20,1,1,6,21,271,380.5014804668026,381.36779419495724,"[81, 0, 173]",173,l,0.3429756003897637,colour,0.28
113,20,1,1,6,22,272,381.8765324543929,382.4317559541669,"[97, 0, 157]",157,l,0.03192790737375617,colour,0.28
113,20,1,1,6,23,273,382.938999568345,383.5038667791523,"[90, 0, 164]",164,l,0.04159761231858283,colour,0.28
113,20,1,1,6,24,274,384.0171657744795,384.623706609942,"[7, 0, 247]",247,a,0.08353511372115463,colour,0.28
113,20,1,1,6,25,275,385.14209960831795,386.31973238952924,"[46, 0, 208]",208,a,0.6542997735086828,colour,0.28
113,20,1,1,6,26,276,386.8295923221158,387.3598593812203,"[75, 0, 179]",179,l,0.006951774354092777,colour,0.28
113,20,1,1,6,27,277,387.8763201715192,388.6477772911312,"[19, 0, 235]",235,a,0.2479646042920649,colour,0.28
113,20,1,1,6,28,278,389.15766951907426,389.8480239174096,"[64, 0, 190]",190,a,0.16799182689283043,colour,0.28
113,20,1,1,6,29,279,390.3608365129912,390.96775544050615,"[54, 0, 200]",200,a,0.08386830729432404,colour,0.28
113,20,1,1,6,30,280,391.48579791607335,392.16774331009947,"[51, 0, 203]",203,a,0.1586572848027572,colour,0.28
113,20,1,1,6,31,281,392.68913426354993,393.65575227711815,"[84, 0, 170]",170,l,0.44347838405519724,colour,0.28
113,20,1,1,6,32,282,394.1732650299091,394.80775514116976,"[36, 0, 218]",218,a,0.11108384816907346,colour,0.28
113,20,1,1,6,33,283,395.31398538989015,395.9677550466731,"[98, 0, 156]",156,a,0.13155083917081356,colour,0.28
113,20,1,1,6,34,284,396.48583808832336,397.1357827135362,"[41, 0, 213]",213,a,0.12666360510047525,colour,0.28
113,20,1,1,6,35,285,397.6420870051952,398.27973418543115,"[23, 0, 231]",231,a,0.11436025239527225,colour,0.28
113,20,1,1,6,36,286,398.79828038986307,400.4557348692324,"[52, 0, 202]",202,a,1.134117533103563,colour,0.28
113,20,1,1,6,37,287,400.97025833139196,401.84778445912525,"[74, 0, 180]",180,a,0.3542285661678761,colour,0.28
113,20,1,1,6,38,288,402.3607927960111,402.94375643937383,"[86, 0, 168]",168,l,0.05957431567367166,colour,0.28
113,20,1,1,6,39,289,403.454547817586,404.06372781458776,"[42, 0, 212]",212,a,0.08585683535784483,colour,0.28
113,20,1,1,6,40,290,404.57958168827463,405.1997334450716,"[58, 0, 196]",196,a,0.09689357969909906,colour,0.28
113,20,1,1,6,41,291,405.7202130390797,406.27975505928043,"[85, 0, 169]",169,l,0.03652605845127255,colour,0.28
113,20,1,1,6,42,292,406.7982473068405,408.0957510325825,"[55, 0, 199]",199,a,0.7740584718994796,colour,0.28
113,20,1,1,6,43,293,408.6107939776266,409.27176628867164,"[62, 0, 192]",192,a,0.13760385720524937,colour,0.28
113,20,1,1,6,44,294,409.78585258184467,410.8557905589696,"[88, 0, 166]",166,l,0.5466573508456349,colour,0.28
113,20,1,1,6,45,295,411.36393765569665,412.0397516564699,"[59, 0, 195]",195,a,0.15242191613651812,colour,0.28
113,20,1,1,6,46,296,412.552813950344,413.1996846081456,"[25, 0, 229]",229,a,0.12347936094738543,colour,0.28
113,20,1,1,6,47,297,413.70906956261024,415.18376062985044,"[57, 0, 197]",197,a,0.9517649023327976,colour,0.28
113,20,1,1,6,48,298,415.6934295472456,416.41571500361897,"[40, 0, 214]",214,a,0.19898395636118948,colour,0.28
113,20,1,1,6,49,299,416.92780922411475,417.551722997101,"[65, 0, 189]",189,a,0.10090214351657778,colour,0.28
113,20,1,1,6,50,300,418.0684441195335,418.71973451634403,"[77, 0, 177]",177,l,0.12802709976676852,colour,0.28
113,20,1,1,7,1,301,423.52703437162563,424.11970592313446,"[78, 0, 176]",176,l,0.06834447663277388,colour,0.14
113,20,1,1,7,2,302,424.63741717417724,425.3037489404669,"[75, 0, 179]",179,l,0.14299285085871816,colour,0.14
113,20,1,1,7,3,303,425.82498865714297,426.48764190264046,"[86, 0, 168]",168,l,0.1394009761279449,colour,0.14
113,20,1,1,7,4,304,426.9967369864462,427.5917322288733,"[42, 0, 212]",212,a,0.07162324385717511,colour,0.14
113,20,1,1,7,5,305,428.1060528603848,428.7438087420305,"[67, 0, 187]",187,a,0.11371198203414679,colour,0.14
113,20,1,1,7,6,306,429.26242190029006,429.9036956137279,"[76, 0, 178]",178,l,0.11802656413055956,colour,0.14
113,20,1,1,7,7,307,430.4193895860808,430.99172293406446,"[34, 0, 220]",220,a,0.048983011045493186,colour,0.14
113,20,1,1,7,8,308,431.5131611491088,432.0402183638653,"[61, 0, 193]",193,a,0.008650037925690413,colour,0.14
113,20,1,1,7,9,309,432.5599874599138,433.2157322540879,"[85, 0, 169]",169,l,0.13238185411319137,colour,0.14
113,20,1,1,7,10,310,433.73195909988135,434.3916943408549,"[54, 0, 200]",200,a,0.13644870708230883,colour,0.14
113,20,1,1,7,11,311,434.9038574844599,435.56768320919946,"[14, 0, 240]",240,a,0.14049114158842713,colour,0.14
113,20,1,1,7,12,312,436.0757389336359,436.6396939974511,"[55, 0, 199]",199,a,0.04070318827871233,colour,0.14
113,20,1,1,7,13,313,437.15380392142106,437.83172814862337,"[88, 0, 166]",166,l,0.15455931797623634,colour,0.14
113,20,1,1,7,14,314,438.34132735524327,439.0316766335163,"[58, 0, 196]",196,a,0.16707022744230926,colour,0.14
113,20,1,1,7,15,315,439.54446599213406,440.1996597958496,"[91, 0, 163]",163,l,0.13226724497508258,colour,0.14
113,20,1,1,7,16,316,440.7163198721828,441.3116817850387,"[57, 0, 197]",197,a,0.07217462814878672,colour,0.14
113,20,1,1,7,17,317,441.82772470475174,442.3997165884357,"[84, 0, 170]",170,l,0.04873055580537766,colour,0.14
113,20,1,1,7,18,318,442.9214604279259,443.50374074850697,"[87, 0, 167]",167,l,0.05894219281617552,colour,0.14
113,20,1,1,7,19,319,444.0151910309214,444.78387193067465,"[98, 0, 156]",156,l,0.24576615635305643,colour,0.14
113,20,1,1,7,20,320,445.29632730793674,445.97585882036947,"[95, 0, 159]",159,l,0.15653721219860017,colour,0.14
113,20,1,1,7,21,321,446.48375306802336,447.19972281123046,"[82, 0, 172]",172,l,0.1925686001777649,colour,0.14
113,20,1,1,7,22,322,447.718302492518,448.2877123223152,"[70, 0, 184]",184,a,0.04601104976609349,colour,0.14
113,20,1,1,7,23,323,448.79869471583515,449.49577482091263,"[72, 0, 182]",182,a,0.17423664778470993,colour,0.14
113,20,1,1,7,24,324,450.00183650350664,450.66374734940473,"[68, 0, 186]",186,a,0.13897010870277882,colour,0.14
113,20,1,1,7,25,325,451.1636028079083,451.7757571293041,"[65, 0, 189]",189,a,0.08876893215347081,colour,0.14
113,20,1,1,7,26,326,452.2885949310148,452.8397184946807,"[66, 0, 188]",188,a,0.027736205141991377,colour,0.14
113,20,1,1,7,27,327,453.35111403255723,454.35172528144903,"[81, 0, 173]",173,a,0.47726681968197227,colour,0.14
113,20,1,1,7,28,328,454.86673711251933,455.55970192165114,"[73, 0, 181]",181,a,0.1698992227902636,colour,0.14
113,20,1,1,7,29,329,456.0698477863334,456.743711855961,"[64, 0, 190]",190,a,0.1508146309060976,colour,0.14
113,20,1,1,7,30,330,457.25739957706537,457.8157021641964,"[39, 0, 215]",215,a,0.03512632998172194,colour,0.14
113,20,1,1,7,31,331,458.33538540184963,458.9197286873823,"[60, 0, 194]",194,a,0.06098034547176212,colour,0.14
113,20,1,1,7,32,332,459.4292266756529,460.4076884237584,"[59, 0, 195]",195,a,0.45510629122145474,colour,0.14
113,20,1,1,7,33,333,460.929243610939,461.48768522567116,"[18, 0, 236]",236,a,0.03504637931473553,colour,0.14
113,20,1,1,7,34,334,462.0073475894751,462.6636634601746,"[80, 0, 174]",174,l,0.13297498610336334,colour,0.14
113,20,1,1,7,35,335,463.179243217106,463.719749482465,"[63, 0, 191]",191,a,0.01720279606524855,colour,0.14
113,20,1,1,7,36,336,464.2261195463361,464.8796615602914,"[74, 0, 180]",180,a,0.1305083290208131,colour,0.14
113,20,1,1,7,37,337,465.3979915432865,465.999675864703,"[77, 0, 177]",177,a,0.07839936285745353,colour,0.14
113,20,1,1,7,38,338,466.50735270942096,467.1356385659892,"[97, 0, 157]",157,l,0.10501468263100833,colour,0.14
113,20,1,1,7,39,339,467.6486449337099,468.1757336561568,"[62, 0, 192]",192,a,0.004403985105454922,colour,0.14
113,20,1,1,7,40,340,468.6948288817657,469.5996887041256,"[92, 0, 162]",162,l,0.38149570079986006,colour,0.14
113,20,1,1,7,41,341,470.116739869467,470.74370673601516,"[90, 0, 164]",164,l,0.10414428310468793,colour,0.14
113,20,1,1,7,42,342,471.2573633432621,471.9197097828146,"[11, 0, 243]",243,a,0.13906108716037124,colour,0.14
113,20,1,1,7,43,343,472.41674963687547,472.967744806665,"[83, 0, 171]",171,l,0.027842543553560972,colour,0.14
113,20,1,1,7,44,344,473.47929630754516,474.1437041366007,"[56, 0, 198]",198,a,0.1413576026679948,colour,0.14
113,20,1,1,7,45,345,474.6578120912891,475.4718439549906,"[15, 0, 239]",239,a,0.290657895966433,colour,0.14
113,20,1,1,7,46,346,475.985880623688,476.51170825154986,"[52, 0, 202]",202,a,0.00282190612051636,colour,0.14
113,20,1,1,7,47,347,477.03596482798457,477.58371076895855,"[71, 0, 183]",183,a,0.024415296385996044,colour,0.14
113,20,1,1,7,48,348,478.098491018638,478.73571993457153,"[96, 0, 158]",158,l,0.11387818504590541,colour,0.14
113,20,1,1,7,49,349,479.25480098172557,479.7837088784436,"[99, 0, 155]",155,l,0.005866334890015423,colour,0.14
113,20,1,1,7,50,350,480.3016418648185,480.9116729629459,"[93, 0, 161]",161,l,0.0867102995980531,colour,0.14
113,20,1,1,8,1,351,485.5040188037092,486.22369345545303,"[69, 0, 185]",185,a,0.1954188629752025,colour,0.06
113,20,1,1,8,2,352,486.7392161047319,487.32765932637267,"[54, 0, 200]",200,a,0.06500033079646528,colour,0.06
113,20,1,1,8,3,353,487.8485595479142,488.4557025737595,"[93, 0, 161]",161,l,0.08372731052804738,colour,0.06
113,20,1,1,8,4,354,488.9737564708339,489.6157150823856,"[71, 0, 183]",183,l,0.11876148066949099,colour,0.06
113,20,1,1,8,5,355,490.12992622470483,490.7917141907383,"[87, 0, 167]",167,l,0.1374656172702089,colour,0.06
113,20,1,1,8,6,356,491.3028265533503,491.8717846418731,"[50, 0, 204]",204,a,0.04587911139242351,colour,0.06
113,20,1,1,8,7,357,492.3809892148711,492.91969363507815,"[73, 0, 181]",181,a,0.0161291720578447,colour,0.06
113,20,1,1,8,8,358,493.42777692875825,493.9836947788717,"[61, 0, 193]",193,a,0.03252734080888331,colour,0.06
113,20,1,1,8,9,359,494.49047365481965,495.05575007165316,"[60, 0, 194]",194,a,0.04210252279881388,colour,0.06
113,20,1,1,8,10,360,495.56846893182956,496.53567259421106,"[62, 0, 192]",192,a,0.44381118391174823,colour,0.06
113,20,1,1,8,11,361,497.0528273410164,497.63167253753636,"[99, 0, 155]",155,l,0.055854046950116754,colour,0.06
113,20,1,1,8,12,362,498.1340604253346,498.743696102174,"[65, 0, 189]",189,a,0.08640782593283802,colour,0.06
113,20,1,1,8,13,363,499.2591116253752,500.53570449573454,"[41, 0, 213]",213,a,0.7533157888101414,colour,0.06
113,20,1,1,8,14,364,501.05597338231746,501.72766224085353,"[51, 0, 203]",203,a,0.14833615848328918,colour,0.06
113,20,1,1,8,15,365,502.24339992995374,502.9516995238373,"[85, 0, 169]",169,l,0.18496697989758104,colour,0.06
113,20,1,1,8,16,366,503.4622553822119,504.08768191735726,"[64, 0, 190]",190,a,0.10218214266933501,colour,0.06
113,20,1,1,8,17,367,504.60281229612883,505.1681304606609,"[68, 0, 186]",186,a,0.042013119789771736,colour,0.06
113,20,1,1,8,18,368,505.68088437314145,506.3036843497539,"[89, 0, 165]",165,l,0.09949690115172416,colour,0.06
113,20,1,1,8,19,369,506.82157086231746,507.3596569444053,"[88, 0, 166]",166,l,0.01469163445290178,colour,0.06
113,20,1,1,8,20,370,507.86841213924345,508.4717033520574,"[70, 0, 184]",184,a,0.07993339281529188,colour,0.06
113,20,1,1,8,21,371,508.99341213924345,509.66368315252475,"[81, 0, 173]",173,l,0.14683206100016832,colour,0.06
113,20,1,1,8,22,372,510.18097653298173,510.82368896564003,"[52, 0, 202]",202,a,0.11951727094128728,colour,0.06
113,20,1,1,8,23,373,511.33712108084,511.903745632153,"[97, 0, 157]",157,l,0.043245069799013436,colour,0.06
113,20,1,1,8,24,374,512.4152762591839,513.0476695349207,"[86, 0, 168]",168,l,0.1091228894656524,colour,0.06
113,20,1,1,8,25,375,513.5559363607317,514.1436844442505,"[72, 0, 182]",182,l,0.0644335865508765,colour,0.06
113,20,1,1,8,26,376,514.6653235207777,515.2076930711046,"[77, 0, 177]",177,a,0.019197231740690768,colour,0.06
113,20,1,1,8,27,377,515.7277284068987,516.3676736780908,"[74, 0, 180]",180,a,0.11665558640379459,colour,0.06
113,20,1,1,8,28,378,516.8858898396138,517.5836749289883,"[92, 0, 162]",162,l,0.17444735544268042,colour,0.06
113,20,1,1,8,29,379,518.1046440735226,518.6316622975282,"[1, 0, 253]",253,a,0.0037746193120256066,colour,0.06
113,20,1,1,8,30,380,519.1515184334712,519.8396594177466,"[90, 0, 164]",164,l,0.1648709918372333,colour,0.06
113,20,1,1,8,31,381,520.3546129596652,520.9199720841134,"[67, 0, 187]",187,a,0.04197609820403159,colour,0.06
113,20,1,1,8,32,382,521.4327531720046,522.3756648118142,"[80, 0, 174]",174,l,0.419713327428326,colour,0.06
113,20,1,1,8,33,383,522.8859075626824,523.5436471864814,"[95, 0, 159]",159,l,0.13446175446733832,colour,0.06
113,20,1,1,8,34,384,524.0577271782095,524.7996757859364,"[75, 0, 179]",179,a,0.21867664612364024,colour,0.06
113,20,1,1,8,35,385,525.3077728642384,525.9116725691129,"[57, 0, 197]",197,a,0.08066870318725705,colour,0.06
113,20,1,1,8,36,386,526.4327496273909,527.7276736623608,"[55, 0, 199]",199,a,0.7719872362213209,colour,0.06
113,20,1,1,8,37,387,528.2458579223603,528.9436737316428,"[58, 0, 196]",196,a,0.17486680124420673,colour,0.06
113,20,1,1,8,38,388,529.4646838362096,530.0556878439384,"[63, 0, 191]",191,a,0.06759144307579845,colour,0.06
113,20,1,1,8,39,389,530.574084780761,531.207666289527,"[66, 0, 188]",188,a,0.11050489463377744,colour,0.06
113,20,1,1,8,40,390,531.7146369685652,532.3756758396048,"[98, 0, 156]",156,l,0.13768971560057253,colour,0.06
113,20,1,1,8,41,391,532.8865282639163,533.5356938618934,"[59, 0, 195]",195,a,0.12583731638733298,colour,0.06
113,20,1,1,8,42,392,534.0427626085002,534.6236361115007,"[91, 0, 163]",163,l,0.05791228578891605,colour,0.06
113,20,1,1,8,43,393,535.1382513397839,535.7036478796508,"[53, 0, 201]",201,a,0.04202217829879373,colour,0.06
113,20,1,1,8,44,394,536.2039405071409,536.7436905882787,"[76, 0, 178]",178,a,0.01648481481242925,colour,0.06
113,20,1,1,8,45,395,537.2507089226274,537.807686218177,"[96, 0, 158]",158,l,0.03371596778742969,colour,0.06
113,20,1,1,8,46,396,538.3288026610389,538.895648160018,"[56, 0, 198]",198,a,0.040323520777747035,colour,0.06
113,20,1,1,8,47,397,539.4102019483689,540.6237077914411,"[83, 0, 171]",171,l,0.690199616830796,colour,0.06
113,20,1,1,8,48,398,541.1445702037308,542.4076395868324,"[84, 0, 170]",170,l,0.7397426768438891,colour,0.06
113,20,1,1,8,49,399,542.9258380252868,547.4957114116987,"[40, 0, 214]",214,a,4.046569523285143,colour,0.06
113,20,1,1,8,50,400,548.0038738683797,548.8796422617743,"[94, 0, 160]",160,l,0.3523491333471611,colour,0.06
113,20,1,1,9,1,401,553.3624087458011,554.0156096891733,"[78, 0, 176]",176,l,0.12895106221549213,colour,0.06
113,20,1,1,9,2,402,554.5351566560566,555.4316452833591,"[68, 0, 186]",186,a,0.37320800102315843,colour,0.06
113,20,1,1,9,3,403,555.9413598868996,556.7356726729777,"[70, 0, 184]",184,a,0.27101522451266646,colour,0.06
113,20,1,1,9,4,404,557.2547812894918,557.7996249798452,"[86, 0, 168]",168,l,0.02132360578980297,colour,0.06
113,20,1,1,9,5,405,558.3173590740189,558.9436650670832,"[92, 0, 162]",162,l,0.10312619141768664,colour,0.06
113,20,1,1,9,6,406,559.4579057479277,560.1356708613457,"[75, 0, 179]",179,l,0.15440650575328618,colour,0.06
113,20,1,1,9,7,407,560.6454559632111,561.3596238613827,"[85, 0, 169]",169,l,0.19083134573884308,colour,0.06
113,20,1,1,9,8,408,561.8797742002644,562.8716353742639,"[89, 0, 165]",165,l,0.4684478216804564,colour,0.06
113,20,1,1,9,9,409,563.3797659294214,563.9996660186443,"[37, 0, 217]",217,a,0.09653005993459374,colour,0.06
113,20,1,1,9,10,410,564.5204768370604,565.1756170777371,"[77, 0, 177]",177,l,0.13187812513206154,colour,0.06
113,20,1,1,9,11,411,565.6922870002454,566.3356398262549,"[66, 0, 188]",188,a,0.11907773884013295,colour,0.06
113,20,1,1,9,12,412,566.849492962705,567.5276534974109,"[69, 0, 185]",185,a,0.15499097295105457,colour,0.06
113,20,1,1,9,13,413,568.0369738611626,568.5676643046318,"[91, 0, 163]",163,l,0.019899459090083838,colour,0.06
113,20,1,1,9,14,414,569.0870805146405,569.6636662171222,"[54, 0, 200]",200,a,0.053293260862119496,colour,0.06
113,20,1,1,9,15,415,570.1807288039709,570.7835926939733,"[98, 0, 156]",156,l,0.07953600224573165,colour,0.06
113,20,1,1,9,16,416,571.290028924006,571.8396519346861,"[93, 0, 161]",161,l,0.026100169168785214,colour,0.06
113,20,1,1,9,17,417,572.3526417608373,572.9676073545124,"[76, 0, 178]",178,a,0.09169560123700649,colour,0.06
113,20,1,1,9,18,418,573.4775775639573,574.1676082209451,"[64, 0, 190]",190,a,0.1668918152572587,colour,0.06
113,20,1,1,9,19,419,574.6807587362127,575.223653283203,"[82, 0, 172]",172,a,0.019519003806635737,colour,0.06
113,20,1,1,9,20,420,575.7433416408021,579.0556224655593,"[74, 0, 180]",180,a,2.789072666200809,colour,0.06
113,20,1,1,9,21,421,579.5713168316288,580.2156278848415,"[80, 0, 174]",174,l,0.12085871014278382,colour,0.06
113,20,1,1,9,22,422,580.7244996580994,581.3836086840602,"[61, 0, 193]",193,a,0.13464804354589432,colour,0.06
113,20,1,1,9,23,423,581.8975405896781,582.5756077829283,"[81, 0, 173]",173,l,0.15477908391039819,colour,0.06
113,20,1,1,9,24,424,583.0851034080843,583.6316689929226,"[50, 0, 204]",204,a,0.023248330922797322,colour,0.06
113,20,1,1,9,25,425,584.147548466688,584.7596267757472,"[59, 0, 195]",195,a,0.08906589192338288,colour,0.06
113,20,1,1,9,26,426,585.272999026347,585.8956135016633,"[88, 0, 166]",166,l,0.0991448030108586,colour,0.06
113,20,1,1,9,27,427,586.4136926047504,587.079612802132,"[99, 0, 155]",155,l,0.14261948491912335,colour,0.06
113,20,1,1,9,28,428,587.6011994971195,588.1436962597072,"[94, 0, 160]",160,l,0.019128702580928802,colour,0.06
113,20,1,1,9,29,429,588.6636969371466,589.5916719704401,"[83, 0, 171]",171,l,0.4046802286757156,colour,0.06
113,20,1,1,9,30,430,590.1011912262766,590.783587180078,"[71, 0, 183]",183,a,0.15905349364038557,colour,0.06
113,20,1,1,9,31,431,591.29047318222,591.911569775315,"[79, 0, 175]",175,l,0.09769269311800599,colour,0.06
113,20,1,1,9,32,432,592.431199449813,593.4236210666131,"[67, 0, 187]",187,a,0.4699960299767554,colour,0.06
113,20,1,1,9,33,433,593.9186696356628,594.4956739963964,"[96, 0, 158]",158,l,0.05365993140731007,colour,0.06
113,20,1,1,9,34,434,595.0123710941989,595.8076925197383,"[84, 0, 170]",170,a,0.2718840485904366,colour,0.06
113,20,1,1,9,35,435,596.3206232689554,596.9196042320691,"[53, 0, 201]",201,a,0.07564795529469848,colour,0.06
113,20,1,1,9,36,436,597.4299560782965,598.7196088794153,"[9, 0, 245]",245,a,0.7662615042645484,colour,0.06
113,20,1,1,9,37,437,599.2288205416407,600.0716382099781,"[56, 0, 198]",198,a,0.3196776449913159,colour,0.06
113,20,1,1,9,38,438,600.5881962801795,601.303596522077,"[62, 0, 192]",192,a,0.1920140649890527,colour,0.06
113,20,1,1,9,39,439,601.8225657170406,602.5676375230541,"[58, 0, 196]",196,a,0.22172028745990247,colour,0.06
113,20,1,1,9,40,440,603.0882069140207,603.7995899275411,"[87, 0, 167]",167,l,0.18793697201181203,colour,0.06
113,20,1,1,9,41,441,604.3069186124485,605.5436861772323,"[73, 0, 181]",181,l,0.7133321571163833,colour,0.06
113,20,1,1,9,42,442,606.0568827724783,606.5915998965502,"[72, 0, 182]",182,a,0.011582220788113773,colour,0.06
113,20,1,1,9,43,443,607.1037898217328,607.6716404154431,"[12, 0, 242]",242,a,0.044546730583533645,colour,0.06
113,20,1,1,9,44,444,608.1819481509738,608.9115914368303,"[63, 0, 191]",191,a,0.20638156426139176,colour,0.06
113,20,1,1,9,45,445,609.431911129388,609.9996486894088,"[65, 0, 189]",189,a,0.04475704429205507,colour,0.06
113,20,1,1,9,46,446,610.5100462216651,611.0556386131793,"[55, 0, 199]",199,a,0.02264850353822112,colour,0.06
113,20,1,1,9,47,447,611.572581077111,612.2556056089234,"[95, 0, 159]",159,l,0.15969900717027485,colour,0.06
113,20,1,1,9,48,448,612.7756811170839,613.4795719997492,"[90, 0, 164]",164,l,0.18065279175061733,colour,0.06
113,20,1,1,9,49,449,613.9950076090172,614.6795571122784,"[52, 0, 202]",202,a,0.16124209540430456,colour,0.06
113,20,1,1,9,50,450,615.1981517598033,615.9036381122423,"[97, 0, 157]",157,l,0.1822230553952977,colour,0.06
113,20,1,1,10,1,451,620.715668844874,621.2476719766855,"[56, 0, 198]",198,a,0.008025398361496627,colour,0.06
113,20,1,1,10,2,452,621.7633450751891,622.3996311238734,"[96, 0, 158]",158,l,0.1129451640881598,colour,0.06
113,20,1,1,10,3,453,622.9195605152054,623.5516272925306,"[55, 0, 199]",199,a,0.1087487357435748,colour,0.06
113,20,1,1,10,4,454,624.0601379090222,624.687631741399,"[21, 0, 233]",233,a,0.10412774153519422,colour,0.06
113,20,1,1,10,5,455,625.20081415819,625.8475473638391,"[95, 0, 159]",159,l,0.12354198237881064,colour,0.06
113,20,1,1,10,6,456,626.3570807982469,626.9756075466285,"[92, 0, 162]",162,l,0.09518665145151317,colour,0.06
113,20,1,1,10,7,457,627.4820134505862,628.1356011505704,"[82, 0, 172]",172,l,0.13024642143864185,colour,0.06
113,20,1,1,10,8,458,628.6539090782171,629.2876268577529,"[74, 0, 180]",180,l,0.11031466722488403,colour,0.06
113,20,1,1,10,9,459,629.7821232548449,630.4635688584531,"[70, 0, 184]",184,a,0.15802319289650768,colour,0.06
113,20,1,1,10,10,460,630.9696084855823,631.5836406643502,"[72, 0, 182]",182,a,0.09069208172149956,colour,0.06
113,20,1,1,10,11,461,632.0821633483283,632.6875667568529,"[73, 0, 181]",181,a,0.08207788388244808,colour,0.06
113,20,1,1,10,12,462,633.2088809104171,634.1036500064656,"[84, 0, 170]",170,l,0.3713545622304082,colour,0.06
113,20,1,1,10,13,463,634.6151648795931,635.2075426219963,"[62, 0, 192]",192,a,0.0815331949852407,colour,0.06
113,20,1,1,10,14,464,635.7276807515882,636.2876134669641,"[77, 0, 177]",177,a,0.03660837223287672,colour,0.06
113,20,1,1,10,15,465,636.8077023659134,637.6796130384319,"[25, 0, 229]",229,a,0.34885178157128394,colour,0.06
113,20,1,1,10,16,466,638.1983447442763,638.8715652696555,"[79, 0, 175]",175,l,0.1499158744700253,colour,0.06
113,20,1,1,10,17,467,639.3858008304378,640.0716098530684,"[76, 0, 178]",178,l,0.16152408928610384,colour,0.06
113,20,1,1,10,18,468,640.5898744575679,641.2875240639551,"[86, 0, 168]",168,l,0.17426067241467535,colour,0.06
113,20,1,1,10,19,469,641.8086223899154,642.7516226451844,"[75, 0, 179]",179,a,0.41997484117746353,colour,0.06
113,20,1,1,10,20,470,643.2617082515499,643.8475839914754,"[93, 0, 161]",161,l,0.06277352594770491,colour,0.06
113,20,1,1,10,21,471,644.3554935991997,645.007539786282,"[91, 0, 163]",163,l,0.12865331477951258,colour,0.06
113,20,1,1,10,22,472,645.527484931401,646.1276135614607,"[32, 0, 222]",222,a,0.07695079757831991,colour,0.06
113,20,1,1,10,23,473,646.6383545274148,647.5755597337848,"[51, 0, 203]",203,a,0.41183365206234157,colour,0.06
113,20,1,1,10,24,474,648.0934876000974,648.775601954083,"[65, 0, 189]",189,a,0.15872660162858665,colour,0.06
113,20,1,1,10,25,475,649.2966179662617,649.9115729259793,"[71, 0, 183]",183,a,0.09165739815216511,colour,0.06
113,20,1,1,10,26,476,650.4216526247328,651.1355420737527,"[53, 0, 201]",201,a,0.1905737705528736,colour,0.06
113,20,1,1,10,27,477,651.6560689292382,652.3915872147772,"[87, 0, 167]",167,l,0.21233336383011192,colour,0.06
113,20,1,1,10,28,478,652.9028433312196,653.4636117876507,"[85, 0, 169]",169,l,0.0374354487285018,colour,0.06
113,20,1,1,10,29,479,653.9808724789182,654.5596243339824,"[63, 0, 191]",191,a,0.06826373818330467,colour,0.06
113,20,1,1,10,30,480,655.0777822063537,655.5995882734424,"[60, 0, 194]",194,a,0.0077630969462916255,colour,0.06
113,20,1,1,10,31,481,656.1152471933747,656.687665218371,"[94, 0, 160]",160,l,0.04903421108610928,colour,0.06
113,20,1,1,10,32,482,657.2090514457086,657.823575538001,"[54, 0, 200]",200,a,0.09122928767465055,colour,0.06
113,20,1,1,10,33,483,658.3340345103061,658.8795694003347,"[59, 0, 195]",195,a,0.02240865142084658,colour,0.06
113,20,1,1,10,34,484,659.3965626702411,660.6476185711799,"[67, 0, 187]",187,a,0.727829625364393,colour,0.06
113,20,1,1,10,35,485,661.1621841748711,661.807612962788,"[88, 0, 166]",166,a,0.12217927549500018,colour,0.06
113,20,1,1,10,36,486,662.3183980395552,662.8955630892888,"[99, 0, 155]",155,l,0.05386433738749474,colour,0.06
113,20,1,1,10,37,487,663.4121510918485,664.1595903056441,"[98, 0, 156]",156,l,0.22435708588454872,colour,0.06
113,20,1,1,10,38,488,664.6777143073268,665.2476038413588,"[50, 0, 204]",204,a,0.04647224326618016,colour,0.06
113,20,1,1,10,39,489,665.7560120578855,666.3595730551751,"[61, 0, 193]",193,a,0.08038277097512037,colour,0.06
113,20,1,1,10,40,490,666.8809210795444,667.9196542504942,"[81, 0, 173]",173,l,0.5154021324124187,colour,0.06
113,20,1,1,10,41,491,668.4278041041689,669.1115596140735,"[78, 0, 176]",176,l,0.1604926068102941,colour,0.06
113,20,1,1,10,42,492,669.6309187164297,670.207586732693,"[89, 0, 165]",165,l,0.06608025636523962,colour,0.06
113,20,1,1,10,43,493,670.7279103638139,671.3435683385469,"[90, 0, 164]",164,l,0.09234190243296325,colour,0.06
113,20,1,1,10,44,494,671.8529371452751,672.5435951987747,"[83, 0, 171]",171,l,0.1673604918178171,colour,0.06
113,20,1,1,10,45,495,673.0560604222119,673.6955571029102,"[80, 0, 174]",174,l,0.11624244216363877,colour,0.06
113,20,1,1,10,46,496,674.2122845269041,674.8635126959998,"[58, 0, 196]",196,a,0.1405025632120669,colour,0.06
113,20,1,1,10,47,497,675.371977626346,676.0315163382329,"[68, 0, 186]",186,a,0.13622815336566418,colour,0.06
113,20,1,1,10,48,498,676.5438319002278,677.1915520837065,"[57, 0, 197]",197,a,0.12439977878239006,colour,0.06
113,20,1,1,10,49,499,677.696925717406,678.2795620748075,"[66, 0, 188]",188,a,0.05924624192994088,colour,0.06
113,20,1,1,10,50,500,678.7783320939634,679.3996035546297,"[97, 0, 157]",157,l,0.09794081596191972,colour,0.06
113,20,1,1,11,1,501,683.9805995437782,684.711489351932,"[36, 0, 218]",218,a,0.2043575900606811,colour,0.06
113,20,1,1,11,2,502,685.2060857858742,686.159629296395,"[68, 0, 186]",186,a,0.43037591804750264,colour,0.06
113,20,1,1,11,3,503,686.6746824813308,687.2475357060321,"[63, 0, 191]",191,a,0.060781059437431395,colour,0.06
113,20,1,1,11,4,504,687.7571266419254,688.3275644094683,"[67, 0, 187]",187,a,0.04710397217422724,colour,0.06
113,20,1,1,11,5,505,688.8352656726493,689.4075883869082,"[85, 0, 169]",169,l,0.049009792623110116,colour,0.06
113,20,1,1,11,6,506,689.9290305402828,690.5276282912819,"[59, 0, 195]",195,a,0.07530137081630528,colour,0.06
113,20,1,1,11,7,507,691.0383491711691,691.751551359077,"[80, 0, 174]",174,a,0.1898077402729541,colour,0.06
113,20,1,1,11,8,508,692.2726993096294,692.8315402840963,"[52, 0, 202]",202,a,0.03543668065685779,colour,0.06
113,20,1,1,11,9,509,693.3508340080734,693.8795764895622,"[86, 0, 168]",168,l,0.00552605208940804,colour,0.06
113,20,1,1,11,10,510,694.3976603188785,695.2795467148535,"[71, 0, 183]",183,l,0.35854551126249135,colour,0.06
113,20,1,1,11,11,511,695.7882235342404,696.455541884643,"[88, 0, 166]",166,l,0.1416466855444014,colour,0.06
113,20,1,1,11,12,512,696.9625011420576,697.5355741328094,"[95, 0, 159]",159,l,0.04997117049060762,colour,0.06
113,20,1,1,11,13,513,698.0562317451695,698.6875285537681,"[93, 0, 161]",161,l,0.10795553005300462,colour,0.06
113,20,1,1,11,14,514,699.1969300498022,699.8715117066167,"[60, 0, 194]",194,a,0.15136247058399022,colour,0.06
113,20,1,1,11,15,515,700.3843420251505,700.9836081326939,"[81, 0, 173]",173,a,0.07585590588860214,colour,0.06
113,20,1,1,11,16,516,701.4937788097886,702.0955647435039,"[98, 0, 156]",156,l,0.07661051477771252,colour,0.06
113,20,1,1,11,17,517,702.6107585314894,703.903536893893,"[78, 0, 176]",176,l,0.7750612036325037,colour,0.06
113,20,1,1,11,18,518,704.4195467305835,705.1116060878849,"[50, 0, 204]",204,a,0.16868184495251626,colour,0.06
113,20,1,1,11,19,519,705.6226916690357,706.2715890579857,"[76, 0, 178]",178,a,0.1256108550587669,colour,0.06
113,20,1,1,11,20,520,706.7788850537036,707.3755683195777,"[11, 0, 243]",243,a,0.07330575352534652,colour,0.06
113,20,1,1,11,21,521,707.8765139436582,708.503571788664,"[75, 0, 179]",179,l,0.10369687422644347,colour,0.06
113,20,1,1,11,22,522,709.0171279652277,709.5915435766801,"[54, 0, 200]",200,a,0.05114286218304187,colour,0.06
113,20,1,1,11,23,523,710.1112382357242,710.8394979409641,"[66, 0, 188]",188,a,0.205234291148372,colour,0.06
113,20,1,1,11,24,524,711.3608711713459,711.9835703235585,"[51, 0, 203]",203,a,0.09934684599284083,colour,0.06
113,20,1,1,11,25,525,712.5020184603054,713.0875704589998,"[56, 0, 198]",198,a,0.062214658595621586,colour,0.06
113,20,1,1,11,26,526,713.5841755071888,714.207602092647,"[69, 0, 185]",185,a,0.10039368830621243,colour,0.06
113,20,1,1,11,27,527,714.724670587224,715.327552200295,"[61, 0, 193]",193,a,0.07965730677824467,colour,0.06
113,20,1,1,11,28,528,715.8340345103061,716.431604323443,"[34, 0, 220]",220,a,0.07461922976654023,colour,0.06
113,20,1,1,11,29,529,716.9433799226535,717.543591654161,"[94, 0, 160]",160,l,0.0768617884023115,colour,0.06
113,20,1,1,11,30,530,718.0527532979613,718.7595385543536,"[82, 0, 172]",172,l,0.1833529993891716,colour,0.06
113,20,1,1,11,31,531,719.2715756671969,719.8236354026012,"[92, 0, 162]",162,l,0.028759023058228195,colour,0.06
113,20,1,1,11,32,532,720.3383384585613,720.9115544152446,"[91, 0, 163]",163,l,0.04975534288678318,colour,0.06
113,20,1,1,11,33,533,721.4321060831426,721.9915193157503,"[97, 0, 157]",157,l,0.035147203831002116,colour,0.06
113,20,1,1,11,34,534,722.5114203501726,723.2075816127472,"[72, 0, 182]",182,a,0.17290741787292063,colour,0.06
113,20,1,1,11,35,535,723.7144999101292,724.2955285884673,"[62, 0, 192]",192,a,0.057706698193214834,colour,0.06
113,20,1,1,11,36,536,724.8082316947402,725.7595633666497,"[84, 0, 170]",170,l,0.42831374087836593,colour,0.06
113,20,1,1,11,37,537,726.2770469747484,726.9115240891697,"[79, 0, 175]",175,l,0.11155055568087846,colour,0.06
113,20,1,1,11,38,538,727.4176239747321,728.0235555307008,"[87, 0, 167]",167,l,0.08267574198544025,colour,0.06
113,20,1,1,11,39,539,728.5427370085381,729.1835975776194,"[55, 0, 199]",199,a,0.11764965357724577,colour,0.06
113,20,1,1,11,40,540,729.6989177900832,730.295677068294,"[70, 0, 184]",184,a,0.07312143361195922,colour,0.06
113,20,1,1,11,41,541,730.8081864025444,731.4235143343685,"[65, 0, 189]",189,a,0.09209732408635318,colour,0.06
113,20,1,1,11,42,542,731.9332616270985,732.5515520679764,"[73, 0, 181]",181,a,0.09514057147316635,colour,0.06
113,20,1,1,11,43,543,733.0582639900967,733.695536622894,"[57, 0, 197]",197,a,0.1139396249782294,colour,0.06
113,20,1,1,11,44,544,734.2144896701211,735.4075631806627,"[53, 0, 201]",201,a,0.6697775243083015,colour,0.06
113,20,1,1,11,45,545,735.919716872042,736.5195363330422,"[74, 0, 180]",180,a,0.07449871290009469,colour,0.06
113,20,1,1,11,46,546,737.031170147704,737.735510014696,"[90, 0, 164]",164,l,0.18112422537524253,colour,0.06
113,20,1,1,11,47,547,738.2498538831715,738.9275319565786,"[83, 0, 171]",171,l,0.1544352563796565,colour,0.06
113,20,1,1,11,48,548,739.4373150892789,740.3995606254321,"[77, 0, 177]",177,l,0.438975149882026,colour,0.06
113,20,1,1,11,49,549,740.9060614461778,741.535517812823,"[89, 0, 165]",165,l,0.10607412806712091,colour,0.06
113,20,1,1,11,50,550,742.0467562061967,742.6315402053297,"[64, 0, 190]",190,a,0.061135126976296306,colour,0.06
113,20,1,1,12,1,551,747.3122390770586,747.8715550296474,"[74, 0, 180]",180,l,0.03522439766675234,colour,0.06
113,20,1,1,12,2,552,748.3911933688214,748.9515116593102,"[98, 0, 156]",156,l,0.037021122639998794,colour,0.06
113,20,1,1,12,3,553,749.4693040427519,750.0476006118115,"[85, 0, 169]",169,l,0.05494229367468506,colour,0.06
113,20,1,1,12,4,554,750.5630106212338,751.1834943899885,"[65, 0, 189]",189,a,0.09719644719734788,colour,0.06
113,20,1,1,12,5,555,751.7036144027952,752.3355740540428,"[75, 0, 179]",179,a,0.1085541759384796,colour,0.06
113,20,1,1,12,6,556,752.8446317225462,753.5114841532195,"[44, 0, 210]",210,a,0.14303381089121103,colour,0.06
113,20,1,1,12,7,557,754.0340601890348,754.5995610980317,"[89, 0, 165]",165,l,0.04231716878712177,colour,0.06
113,20,1,1,12,8,558,755.1120995768579,755.719523414853,"[52, 0, 202]",202,a,0.08400457806419581,colour,0.06
113,20,1,1,12,9,559,756.2372409674572,757.8315312255872,"[90, 0, 164]",164,l,1.0709670964861289,colour,0.06
113,20,1,1,12,10,560,758.3340077287285,759.1835526792565,"[73, 0, 181]",181,l,0.3264789702370763,colour,0.06
113,20,1,1,12,11,561,759.6934055226156,760.5755577645032,"[66, 0, 188]",188,a,0.3587128957733512,colour,0.06
113,20,1,1,12,12,562,761.084033328807,761.6956354782451,"[60, 0, 194]",194,a,0.0883605140261352,colour,0.06
113,20,1,1,12,13,563,762.2090447503142,762.77552948636,"[53, 0, 201]",201,a,0.04344435583334416,colour,0.06
113,20,1,1,12,14,564,763.2871199779911,763.8395936455345,"[51, 0, 203]",203,a,0.029065829003229737,colour,0.06
113,20,1,1,12,15,565,764.3495764581021,765.0395121981855,"[80, 0, 174]",174,l,0.16701193829067051,colour,0.06
113,20,1,1,12,16,566,765.5527800795389,766.1595371364383,"[56, 0, 198]",198,a,0.08339135989081115,colour,0.06
113,20,1,1,12,17,567,766.6777273041662,767.351513786125,"[54, 0, 200]",200,a,0.15028333279769868,colour,0.06
113,20,1,1,12,18,568,767.8529804683058,768.4315172834322,"[57, 0, 197]",197,a,0.05526997346896678,colour,0.06
113,20,1,1,12,19,569,768.9496538881212,769.56749810162,"[82, 0, 172]",172,a,0.09476326708681881,colour,0.06
113,20,1,1,12,20,570,770.0747291126754,770.5995500703575,"[96, 0, 158]",158,l,0.0016328851925209165,colour,0.06
113,20,1,1,12,21,571,771.1216302542016,771.751518275938,"[58, 0, 196]",196,a,0.10660188156180084,colour,0.06
113,20,1,1,12,22,572,772.2622080419678,773.1435426598182,"[88, 0, 166]",166,l,0.35806501924525946,colour,0.06
113,20,1,1,12,23,573,773.6528736572945,774.3035224791383,"[92, 0, 162]",162,l,0.12725673720706254,colour,0.06
113,20,1,1,12,24,574,774.8247409281321,775.4475519324187,"[55, 0, 199]",199,a,0.09955597808584571,colour,0.06
113,20,1,1,12,25,575,775.9653305312386,776.631537448382,"[95, 0, 159]",159,l,0.14285067247692496,colour,0.06
113,20,1,1,12,26,576,777.1388468348887,777.7275129732443,"[99, 0, 155]",155,l,0.06530713685788214,colour,0.06
113,20,1,1,12,27,577,778.2487822283292,778.8954839262879,"[59, 0, 195]",195,a,0.12342382862698287,colour,0.06
113,20,1,1,12,28,578,779.4049397730269,780.3355189155554,"[91, 0, 163]",163,l,0.4071413717465475,colour,0.06
113,20,1,1,12,29,579,780.8332003446994,781.4315121634863,"[63, 0, 191]",191,a,0.07510641717817634,colour,0.06
113,20,1,1,12,30,580,781.9339969373541,782.5275180144235,"[68, 0, 186]",186,a,0.07035112148150802,colour,0.06
113,20,1,1,12,31,581,783.0434435681673,783.6555199080613,"[94, 0, 160]",160,l,0.08881067985203117,colour,0.06
113,20,1,1,12,32,582,784.1683970943559,785.8474993146956,"[78, 0, 176]",176,l,1.1556546034989879,colour,0.06
113,20,1,1,12,33,583,786.3558405773947,787.0394539089175,"[79, 0, 175]",175,l,0.16026220680214465,colour,0.06
113,20,1,1,12,34,584,787.5589989066357,788.1834321623901,"[9, 0, 245]",245,a,0.10104156495071948,colour,0.06
113,20,1,1,12,35,585,788.6995896912413,789.2954762069276,"[81, 0, 173]",173,l,0.0732714890036732,colour,0.06
113,20,1,1,12,36,586,789.8089583405526,790.455808912171,"[84, 0, 170]",170,l,0.12377316993661225,colour,0.06
113,20,1,1,12,37,587,790.9652111958712,791.6634933187161,"[7, 0, 247]",247,a,0.17493966280017048,colour,0.06
113,20,1,1,12,38,588,792.1839819712332,792.7515037036501,"[87, 0, 167]",167,l,0.04437501379288733,colour,0.06
113,20,1,1,12,39,589,793.2621237589046,793.8474347239826,"[64, 0, 190]",190,a,0.06208114488981664,colour,0.06
113,20,1,1,12,40,590,794.3558382143965,794.9675128314411,"[62, 0, 192]",192,a,0.08860233530867845,colour,0.06
113,20,1,1,12,41,591,795.4808386082295,796.1835195961175,"[83, 0, 171]",171,l,0.1793822447070852,colour,0.06
113,20,1,1,12,42,592,796.7013742071576,797.5755171984201,"[50, 0, 204]",204,a,0.35144210618454963,colour,0.06
113,20,1,1,12,43,593,798.0921339517226,798.8155079982243,"[69, 0, 185]",185,a,0.20010562951210886,colour,0.06
113,20,1,1,12,44,594,799.3207103089662,799.8715050112223,"[71, 0, 183]",183,l,0.027430186863057315,colour,0.06
113,20,1,1,12,45,595,800.3832636750303,800.9354774042731,"[93, 0, 161]",161,l,0.02724626089911908,colour,0.06
113,20,1,1,12,46,596,801.4496243497124,802.1754882901441,"[76, 0, 178]",178,l,0.2024962742580101,colour,0.06
113,20,1,1,12,47,597,802.6840824019164,803.3434832678176,"[70, 0, 184]",184,a,0.13628998724743724,colour,0.06
113,20,1,1,12,48,598,803.8538303878158,804.4235076389741,"[67, 0, 187]",187,a,0.04622254497371614,colour,0.06
113,20,1,1,12,49,599,804.9228278609226,805.8155115428381,"[61, 0, 193]",193,a,0.3694672525161877,colour,0.06
113,20,1,1,12,50,600,806.3309132814175,806.9594921593089,"[86, 0, 168]",168,l,0.10563144530169666,colour,0.06
113,20,1,1,13,1,601,811.3144138942007,811.9275028120028,"[62, 0, 192]",192,a,0.08898239664267749,colour,0.06
113,20,1,1,13,2,602,812.4340579835698,813.0235153583344,"[68, 0, 186]",186,a,0.06628269306384027,colour,0.06
113,20,1,1,13,3,603,813.5434979188722,814.0955040912377,"[59, 0, 195]",195,a,0.028781472239643335,colour,0.06
113,20,1,1,13,4,604,814.6059059558902,815.1834861192619,"[86, 0, 168]",168,l,0.054278663359582424,colour,0.06
113,20,1,1,13,5,605,815.6986164980335,816.2635636596242,"[82, 0, 172]",172,l,0.04163345228880644,colour,0.06
113,20,1,1,13,6,606,816.7646416159114,817.3994850070449,"[99, 0, 155]",155,l,0.11232840130105615,colour,0.06
113,20,1,1,13,7,607,817.9208326374646,818.6075100903399,"[53, 0, 201]",201,a,0.16329285129904747,colour,0.06
113,20,1,1,13,8,608,819.1259235686157,819.759496412822,"[97, 0, 157]",157,l,0.11968268628697842,colour,0.06
113,20,1,1,13,9,609,820.2728257341078,820.9035061738687,"[9, 0, 245]",245,a,0.10763218253850937,colour,0.06
113,20,1,1,13,10,610,821.415231360821,822.0314915259369,"[69, 0, 185]",185,a,0.0929799327859655,colour,0.06
113,20,1,1,13,11,611,822.5340850013308,823.135498750722,"[94, 0, 160]",160,l,0.07826899993233383,colour,0.06
113,20,1,1,13,12,612,823.6434686167631,824.2475073491223,"[88, 0, 166]",166,l,0.07756716653238982,colour,0.06
113,20,1,1,13,13,613,824.7560053626075,825.2955691545503,"[77, 0, 177]",177,l,0.0161843104287982,colour,0.06
113,20,1,1,13,14,614,825.8028241902357,826.3674992043525,"[65, 0, 189]",189,l,0.04147788311820477,colour,0.06
113,20,1,1,13,15,615,826.881028599455,827.4634790614946,"[72, 0, 182]",182,l,0.05945852480363101,colour,0.06
113,20,1,1,13,16,616,827.9747631410137,828.9114642245695,"[71, 0, 183]",183,l,0.41339840192813426,colour,0.06
113,20,1,1,13,17,617,829.4278879932826,830.0314434767934,"[63, 0, 191]",191,a,0.0802693433361128,colour,0.06
113,20,1,1,13,18,618,830.5528879932826,831.1834561869036,"[85, 0, 169]",169,l,0.1072785088326782,colour,0.06
113,20,1,1,13,19,619,831.6841131219408,832.3515330845257,"[73, 0, 181]",181,l,0.1442543393932283,colour,0.06
113,20,1,1,13,20,620,832.8715778727783,833.5034276410006,"[81, 0, 173]",173,l,0.1086065573617816,colour,0.06
113,20,1,1,13,21,621,834.0121993774083,834.8715440019732,"[87, 0, 167]",167,l,0.33601358614396304,colour,0.06
113,20,1,1,13,22,622,835.3872198573081,835.9354990657885,"[90, 0, 164]",164,l,0.025019456050358713,colour,0.06
113,20,1,1,13,23,623,836.4496152912034,836.9995785848005,"[93, 0, 161]",161,l,0.02678467344958335,colour,0.06
113,20,1,1,13,24,624,837.5121879557846,838.103485772619,"[58, 0, 196]",196,a,0.067965202848427,colour,0.06
113,20,1,1,13,25,625,838.6215180081781,839.2394941600505,"[92, 0, 162]",162,l,0.09447536582592875,colour,0.06
113,20,1,1,13,26,626,839.7465239159064,840.3914749686373,"[50, 0, 204]",204,a,0.12157235888298601,colour,0.06
113,20,1,1,13,27,627,840.9056349110324,841.6234829054447,"[75, 0, 179]",179,a,0.19449490041006356,colour,0.06
113,20,1,1,13,28,628,842.1399535419187,842.8154469520086,"[54, 0, 200]",200,a,0.14902538887690753,colour,0.06
113,20,1,1,13,29,629,843.330630893819,843.9434772025561,"[52, 0, 202]",202,a,0.08954047632869333,colour,0.06
113,20,1,1,13,30,630,844.4555852076737,845.0634871748043,"[67, 0, 187]",187,a,0.08454335934948176,colour,0.06
113,20,1,1,13,31,631,845.5806379830465,846.1755052255467,"[25, 0, 229]",229,a,0.07193241291679442,colour,0.06
113,20,1,1,13,32,632,846.6840312019922,847.3035425652051,"[83, 0, 171]",171,l,0.09633156156633049,colour,0.06
113,20,1,1,13,33,633,847.8246487681754,848.4794652675046,"[38, 0, 216]",216,a,0.13155044545419514,colour,0.06
113,20,1,1,13,34,634,848.9984293424059,849.5675166123547,"[55, 0, 199]",199,a,0.045723148388788104,colour,0.06
113,20,1,1,13,35,635,850.0765352901071,850.6559381724801,"[76, 0, 178]",178,a,0.05607696378137916,colour,0.06
113,20,1,1,13,36,636,851.1702371424763,851.7595153173897,"[64, 0, 190]",190,a,0.0658518256386742,colour,0.06
113,20,1,1,13,37,637,852.2796227270737,852.8234896796057,"[61, 0, 193]",193,a,0.020524886320345104,colour,0.06
113,20,1,1,13,38,638,853.342220203951,853.9114945506444,"[60, 0, 194]",194,a,0.04600514203775674,colour,0.06
113,20,1,1,13,39,639,854.4201961824438,854.951500631636,"[57, 0, 197]",197,a,0.008178604301065207,colour,0.06
113,20,1,1,13,40,640,855.4676392560359,856.031502159778,"[84, 0, 170]",170,l,0.04056652367580682,colour,0.06
113,20,1,1,13,41,641,856.5457893144339,857.0795332452981,"[91, 0, 163]",163,l,0.010412104660645127,colour,0.06
113,20,1,1,13,42,642,857.5926770651713,858.2314431617269,"[66, 0, 188]",188,a,0.11576903937384486,colour,0.06
113,20,1,1,13,43,643,858.7493166773347,859.3995192715665,"[74, 0, 180]",180,a,0.12719214637763798,colour,0.06
113,20,1,1,13,44,644,859.9208566620946,860.4475885601714,"[56, 0, 198]",198,a,0.0015446636825799942,colour,0.06
113,20,1,1,13,45,645,860.9571645298274,861.5754431553651,"[89, 0, 165]",165,l,0.0947447563521564,colour,0.06
113,20,1,1,13,46,646,862.0832661169115,862.6234919639537,"[98, 0, 156]",156,l,0.016989331576041877,colour,0.06
113,20,1,1,13,47,647,863.130164107657,864.2874807409244,"[70, 0, 184]",184,a,0.6340269485954195,colour,0.06
113,20,1,1,13,48,648,864.8020168060903,865.5034701763652,"[51, 0, 203]",203,a,0.17838817765004933,colour,0.06
113,20,1,1,13,49,649,866.0207348061958,866.6874663261697,"[79, 0, 175]",175,l,0.1434122968930751,colour,0.06
113,20,1,1,13,50,650,867.2082558769034,867.8474945884664,"[78, 0, 176]",176,l,0.11584111303091049,colour,0.06
113,20,1,1,14,1,651,872.3324709420558,872.9833706435747,"[91, 0, 163]",163,l,0.12696371576748788,colour,0.06
113,20,1,1,14,2,652,873.4895705661038,874.1674431995489,"[64, 0, 190]",190,l,0.15459279483184218,colour,0.06
113,20,1,1,14,3,653,874.6769947507419,875.3194405497052,"[81, 0, 173]",173,l,0.11916596035007387,colour,0.06
113,20,1,1,14,4,654,875.8332172799855,876.4234509251546,"[74, 0, 180]",180,a,0.0675552092725411,colour,0.06
113,20,1,1,14,5,655,876.9425185816363,877.575401801616,"[67, 0, 187]",187,a,0.1094356031389907,colour,0.06
113,20,1,1,14,6,656,878.083313772222,878.6234754223842,"[98, 0, 156]",156,l,0.017064556013792753,colour,0.06
113,20,1,1,14,7,657,879.1176492596278,879.6634945003316,"[59, 0, 195]",195,a,0.022632749751210213,colour,0.06
113,20,1,1,14,8,658,880.1678130207583,880.8714735035319,"[96, 0, 158]",158,l,0.18040900107007474,colour,0.06
113,20,1,1,14,9,659,881.3865361408098,882.0474233811256,"[63, 0, 191]",191,a,0.1381958075799048,colour,0.06
113,20,1,1,14,10,660,882.5584404331166,883.2634088782361,"[3, 0, 251]",251,a,0.1816945142345503,colour,0.06
113,20,1,1,14,11,661,883.7646947851172,884.4154538837029,"[65, 0, 189]",189,a,0.12749855848960578,colour,0.06
113,20,1,1,14,12,662,884.9365277913166,885.5194284192985,"[70, 0, 184]",184,a,0.05954477714840323,colour,0.06
113,20,1,1,14,13,663,886.0303092005197,886.6154925593873,"[71, 0, 183]",183,a,0.061914941878058016,colour,0.06
113,20,1,1,14,14,664,887.1240516189719,887.7994028507965,"[99, 0, 155]",155,l,0.15199813793879002,colour,0.06
113,20,1,1,14,15,665,888.3115427574376,888.9274346766761,"[72, 0, 182]",182,a,0.09259711450431496,colour,0.06
113,20,1,1,14,16,666,889.4384855993558,889.9914515742566,"[85, 0, 169]",169,l,0.028082395787350833,colour,0.06
113,20,1,1,14,17,667,890.5025111614959,891.1994675990427,"[53, 0, 201]",201,a,0.17369668511673808,colour,0.06
113,20,1,1,14,18,668,891.7056155338651,892.2634317212505,"[84, 0, 170]",170,l,0.03451508120633662,colour,0.06
113,20,1,1,14,19,669,892.783779770718,893.3994983978337,"[78, 0, 176]",176,l,0.09280230826698244,colour,0.06
113,20,1,1,14,20,670,893.908715180005,894.5513701111777,"[82, 0, 172]",172,l,0.11925063724629581,colour,0.06
113,20,1,1,14,21,671,895.0649243185762,895.7034099966986,"[52, 0, 202]",202,a,0.1149632305605337,colour,0.06
113,20,1,1,14,22,672,896.2212354630465,896.7834725709399,"[51, 0, 203]",203,a,0.039232961484231055,colour,0.06
113,20,1,1,14,23,673,897.299337472301,897.8794811788248,"[94, 0, 160]",160,l,0.05691546178422868,colour,0.06
113,20,1,1,14,24,674,898.393077921588,898.9674399700016,"[97, 0, 157]",157,l,0.05133033276069909,colour,0.06
113,20,1,1,14,25,675,899.4867971031927,900.0394826596603,"[54, 0, 200]",200,a,0.029577828594483435,colour,0.06
113,20,1,1,14,26,676,900.549426087644,901.3754288981436,"[89, 0, 165]",165,l,0.30284979031421244,colour,0.06
113,20,1,1,14,27,677,901.8840336438734,902.4234595898306,"[66, 0, 188]",188,a,0.01610790437553078,colour,0.06
113,20,1,1,14,28,678,902.9308406561613,903.6314362300327,"[1, 0, 253]",253,a,0.1772145169088617,colour,0.06
113,20,1,1,14,29,679,904.1497150129871,904.7274535024771,"[62, 0, 192]",192,a,0.05457641079556197,colour,0.06
113,20,1,1,14,30,680,905.2434566437732,905.9034518231638,"[80, 0, 174]",174,l,0.1365385039243847,colour,0.06
113,20,1,1,14,31,681,906.4153294283897,907.0634198271437,"[10, 0, 244]",244,a,0.12467232020571828,colour,0.06
113,20,1,1,14,32,682,907.5716890160693,908.167444381048,"[60, 0, 194]",194,a,0.07238376035820693,colour,0.06
113,20,1,1,14,33,683,908.6708716282155,909.3434198586037,"[83, 0, 171]",171,l,0.14938418252859265,colour,0.06
113,20,1,1,14,34,684,909.8583430744475,910.4474558340153,"[58, 0, 196]",196,a,0.06646071141585708,colour,0.06
113,20,1,1,14,35,685,910.9679511819268,911.6074703118065,"[93, 0, 161]",161,l,0.11688362318091094,colour,0.06
113,20,1,1,14,36,686,912.1209473253693,912.7434475853806,"[90, 0, 164]",164,l,0.09921215067151934,colour,0.06
113,20,1,1,14,37,687,913.2613982947078,913.8074239167618,"[88, 0, 166]",166,l,0.02263314346782863,colour,0.06
113,20,1,1,14,38,688,914.3239875008585,915.015484446194,"[68, 0, 186]",186,l,0.16818993142805994,colour,0.06
113,20,1,1,14,39,689,915.5271261377493,916.6474878143054,"[95, 0, 159]",159,l,0.5971137394662946,colour,0.06
113,20,1,1,14,40,690,917.1539898166666,917.7114582380746,"[57, 0, 197]",197,a,0.03409209055826068,colour,0.06
113,20,1,1,14,41,691,918.2320370813832,918.759431428276,"[76, 0, 178]",178,l,0.003975086961872876,colour,0.06
113,20,1,1,14,42,692,919.2790382597595,919.9834943112219,"[69, 0, 185]",185,a,0.1812652221415192,colour,0.06
113,20,1,1,14,43,693,920.5003776982194,921.0874475790188,"[55, 0, 199]",199,a,0.06492234929464757,colour,0.06
113,20,1,1,14,44,694,921.5970842010574,922.2394059385406,"[92, 0, 162]",162,l,0.11957989248912781,colour,0.06
113,20,1,1,14,45,695,922.7527533767279,923.4474794648122,"[75, 0, 179]",179,l,0.17137614486273378,colour,0.06
113,20,1,1,14,46,696,923.955881379894,924.5354370743735,"[79, 0, 175]",175,l,0.05624907440505922,colour,0.06
113,20,1,1,14,47,697,925.0495997737162,925.6634184879949,"[61, 0, 193]",193,a,0.09059125720523298,colour,0.06
113,20,1,1,14,48,698,926.174573386088,927.0634430639911,"[77, 0, 177]",177,a,0.3655347009189427,colour,0.06
113,20,1,1,14,49,699,927.5808880752884,928.2954198869411,"[56, 0, 198]",198,a,0.19159225607290864,colour,0.06
113,20,1,1,14,50,700,928.815171259921,929.3834275149275,"[50, 0, 204]",204,a,0.04489370877854526,colour,0.06
113,20,1,1,15,1,701,933.8176245260984,934.4314459973248,"[96, 0, 158]",158,l,0.09003987291362137,colour,0.06
113,20,1,1,15,2,702,934.93103048997,935.8554782391293,"[91, 0, 163]",163,l,0.39986231143120676,colour,0.06
113,20,1,1,15,3,703,936.3574844902614,937.2314380416647,"[84, 0, 170]",170,l,0.3510128140915185,colour,0.06
113,20,1,1,15,4,704,937.7480319518363,938.4314680527896,"[85, 0, 169]",169,l,0.1601082131965086,colour,0.06
113,20,1,1,15,5,705,938.9511820103507,939.9754421313992,"[82, 0, 172]",172,l,0.5013686146121472,colour,0.06
113,20,1,1,15,6,706,940.4699889407493,941.2153852757765,"[69, 0, 185]",185,a,0.22205860109534115,colour,0.06
113,20,1,1,15,7,707,941.7356462853495,942.4554930478334,"[73, 0, 181]",181,a,0.19662403163965791,colour,0.06
113,20,1,1,15,8,708,942.9699444362195,943.5514323387761,"[70, 0, 184]",184,a,0.05814465484581888,colour,0.06
113,20,1,1,15,9,709,944.0637620792259,944.6954361922108,"[90, 0, 164]",164,l,0.11676743871066719,colour,0.06
113,20,1,1,15,10,710,945.2114728103625,945.8154304105556,"[40, 0, 214]",214,a,0.080606869305484,colour,0.06
113,20,1,1,15,11,711,946.3365456719184,946.8714380573947,"[79, 0, 175]",175,l,0.01169013453181833,colour,0.06
113,20,1,1,15,12,712,947.3833290535258,947.9833785205847,"[59, 0, 195]",195,a,0.07397095940541476,colour,0.06
113,20,1,1,15,13,713,948.4958311408991,949.1034396926407,"[58, 0, 196]",196,a,0.08422907022759318,colour,0.06
113,20,1,1,15,14,714,949.6208634362556,950.5674476893619,"[60, 0, 194]",194,a,0.42373410041909665,colour,0.06
113,20,1,1,15,15,715,951.0739500854397,952.0234302876052,"[78, 0, 176]",176,l,0.42615310207474977,colour,0.06
113,20,1,1,15,16,716,952.5426728116581,953.2393460739404,"[75, 0, 179]",179,l,0.1733914545038715,colour,0.06
113,20,1,1,15,17,717,953.7457953009289,954.3194232204696,"[61, 0, 193]",193,a,0.05024449958000332,colour,0.06
113,20,1,1,15,18,718,954.8395578054478,955.5354228959186,"[54, 0, 200]",200,a,0.17264039034489542,colour,0.06
113,20,1,1,15,19,719,956.0426279131789,956.8394101132872,"[64, 0, 190]",190,l,0.27347164147067815,colour,0.06
113,20,1,1,15,20,720,957.355101328576,958.0153966185171,"[66, 0, 188]",188,a,0.13688902684953064,colour,0.06
113,20,1,1,15,21,721,958.5270134978928,959.4394446142251,"[83, 0, 171]",171,l,0.3892320162849501,colour,0.06
113,20,1,1,15,22,722,959.9488441409776,960.5994303411571,"[65, 0, 189]",189,a,0.12728194321971387,colour,0.06
113,20,1,1,15,23,723,961.1207385871094,961.751389094512,"[68, 0, 186]",186,a,0.10731946886517107,colour,0.06
113,20,1,1,15,24,724,962.2613281902159,962.831446154858,"[50, 0, 204]",204,a,0.04683143075089902,colour,0.06
113,20,1,1,15,25,725,963.3394246855751,964.0394279151224,"[74, 0, 180]",180,l,0.1766615571686998,colour,0.06
113,20,1,1,15,26,726,964.5582143655047,965.2953734131297,"[71, 0, 183]",183,a,0.2139422243926674,colour,0.06
113,20,1,1,15,27,727,965.8082486301428,966.4313766804989,"[92, 0, 162]",162,l,0.10010224243160337,colour,0.06
113,20,1,1,15,28,728,966.9491867868928,967.5193898223806,"[80, 0, 174]",174,l,0.04694525233935565,colour,0.06
113,20,1,1,15,29,729,968.0273277868982,968.631409054622,"[89, 0, 165]",165,l,0.0807041492080316,colour,0.06
113,20,1,1,15,30,730,969.1522935222602,969.6874285169179,"[98, 0, 156]",156,l,0.012214737362228334,colour,0.06
113,20,1,1,15,31,731,970.1991430700291,970.8153933889698,"[86, 0, 168]",168,l,0.092910222010687,colour,0.06
113,20,1,1,15,32,732,971.3242903683567,972.0473891166039,"[94, 0, 160]",160,l,0.20024308178108186,colour,0.06
113,20,1,1,15,33,733,972.5585369253531,973.2394890399883,"[77, 0, 177]",177,a,0.16692726139444858,colour,0.06
113,20,1,1,15,34,734,973.7523548046593,974.4633616954088,"[88, 0, 166]",166,l,0.1877053906209767,colour,0.06
113,20,1,1,15,35,735,974.971083438606,975.5114455563016,"[95, 0, 159]",159,l,0.016902685398235917,colour,0.06
113,20,1,1,15,36,736,976.0179833985167,976.6553997850278,"[48, 0, 206]",206,a,0.11447368003427982,colour,0.06
113,20,1,1,15,37,737,977.1742445246782,977.7514087868622,"[53, 0, 201]",201,a,0.05392814055085182,colour,0.06
113,20,1,1,15,38,738,978.2679924570257,978.9114043599693,"[87, 0, 167]",167,l,0.11996034753974527,colour,0.06
113,20,1,1,15,39,739,979.4242508262396,980.1513876767131,"[63, 0, 191]",191,a,0.20380699343513697,colour,0.06
113,20,1,1,15,40,740,980.6585761524038,981.2393708862364,"[81, 0, 173]",173,l,0.05730891379062086,colour,0.06
113,20,1,1,15,41,741,981.7523043924011,982.2873866116861,"[93, 0, 161]",161,l,0.011710614548064768,colour,0.06
113,20,1,1,15,42,742,982.7992004139815,983.4953801872907,"[3, 0, 251]",251,a,0.17323352221865207,colour,0.06
113,20,1,1,15,43,743,984.0022720970446,984.663387768087,"[56, 0, 198]",198,a,0.13774958020076156,colour,0.06
113,20,1,1,15,44,744,985.1741858416935,985.8633787883446,"[76, 0, 178]",178,l,0.1645886042388156,colour,0.06
113,20,1,1,15,45,745,986.3785745454952,987.0714460131712,"[67, 0, 187]",187,a,0.16630892327520996,colour,0.06
113,20,1,1,15,46,746,987.5849234205671,988.175380376284,"[99, 0, 155]",155,l,0.06709598493762314,colour,0.06
113,20,1,1,15,47,747,988.6942940390436,989.2313895986881,"[57, 0, 197]",197,a,0.01356877968646586,colour,0.06
113,20,1,1,15,48,748,989.7412073897431,990.3594588398701,"[51, 0, 203]",203,a,0.09499642380978912,colour,0.06
113,20,1,1,15,49,749,990.8661510697566,991.4954302057158,"[97, 0, 157]",157,l,0.10600599274039268,colour,0.06
113,20,1,1,15,50,750,992.0067528821528,992.7113648966188,"[72, 0, 182]",182,a,0.18110807763878256,colour,0.06
113,20,1,1,16,1,751,997.6934850794496,998.3513727892423,"[97, 0, 157]",157,l,0.13380718242842704,colour,0.06
113,20,1,1,16,2,752,998.8661376790842,999.4794160367455,"[70, 0, 184]",184,a,0.09949690126813948,colour,0.06
113,20,1,1,16,3,753,999.9975479152054,1000.9113697014982,"[63, 0, 191]",191,l,0.3905057138763368,colour,0.06
113,20,1,1,16,4,754,1001.4199189149076,1002.4074020977132,"[93, 0, 161]",161,l,0.4642238242086023,colour,0.06
113,20,1,1,16,5,755,1002.9209346435964,1003.4634148646146,"[52, 0, 202]",202,a,0.03159589518327266,colour,0.06
113,20,1,1,16,6,756,1003.9720778994961,1004.6554080558708,"[64, 0, 190]",190,a,0.16004165320191532,colour,0.06
113,20,1,1,16,7,757,1005.1751200441504,1005.71939462726,"[94, 0, 160]",160,l,0.02131809201091528,colour,0.06
113,20,1,1,16,8,758,1006.237585582654,1006.9033797493903,"[91, 0, 163]",163,l,0.14241822971962392,colour,0.06
113,20,1,1,16,9,759,1007.4251196503174,1007.9514139855746,"[56, 0, 198]",198,a,0.0020657218992710114,colour,0.06
113,20,1,1,16,10,760,1008.4729372713482,1009.1273142385762,"[87, 0, 167]",167,l,0.13123143010307103,colour,0.06
113,20,1,1,16,11,761,1009.644767126767,1010.1753961301874,"[59, 0, 195]",195,a,0.007385004893876612,colour,0.06
113,20,1,1,16,12,762,1010.7073649974773,1011.2873649501707,"[83, 0, 171]",171,l,0.056780766462907195,colour,0.06
113,20,1,1,16,13,763,1011.8010046221316,1013.0873766867444,"[51, 0, 203]",203,a,0.7637582195457071,colour,0.06
113,20,1,1,16,14,764,1013.5979061574908,1014.4873941735132,"[62, 0, 192]",192,a,0.37561243039090186,colour,0.06
113,20,1,1,16,15,765,1014.9947949323105,1015.6473700543866,"[78, 0, 176]",176,l,0.13004083395935595,colour,0.06
113,20,1,1,16,16,766,1016.1666681107599,1016.7994052137947,"[40, 0, 214]",214,a,0.10836237284820527,colour,0.06
113,20,1,1,16,17,767,1017.3084191654343,1017.9353112012614,"[90, 0, 164]",164,l,0.10361731727607548,colour,0.06
113,20,1,1,16,18,768,1018.4489831685787,1019.0794119407656,"[92, 0, 162]",162,l,0.1070488968398422,colour,0.06
113,20,1,1,16,19,769,1019.5840636548819,1020.2074028066127,"[79, 0, 175]",175,l,0.0993110059062019,colour,0.06
113,20,1,1,16,20,770,1020.7257249127142,1021.3193613867043,"[84, 0, 170]",170,l,0.07039326301310211,colour,0.06
113,20,1,1,16,21,771,1021.8350636296673,1022.5113238578197,"[53, 0, 201]",201,a,0.151797276455909,colour,0.06
113,20,1,1,16,22,772,1023.0240502011729,1023.671387960203,"[69, 0, 185]",185,a,0.12469122477341443,colour,0.06
113,20,1,1,16,23,773,1024.1777863811003,1024.8234428119613,"[74, 0, 180]",180,a,0.12229112780187279,colour,0.06
113,20,1,1,16,24,774,1025.334064442548,1025.9193813152378,"[50, 0, 204]",204,a,0.05993271537590772,colour,0.06
113,20,1,1,16,25,775,1026.4300218505086,1027.0393495397875,"[85, 0, 169]",169,l,0.08609235531184822,colour,0.06
113,20,1,1,16,26,776,1027.5548977890285,1028.207423680462,"[49, 0, 205]",205,a,0.12914404680486768,colour,0.06
113,20,1,1,16,27,777,1028.726765847532,1029.3834062472451,"[73, 0, 181]",181,l,0.1332628873642534,colour,0.06
113,20,1,1,16,28,778,1029.8996862622444,1030.447331378702,"[61, 0, 193]",193,a,0.024444047012366354,colour,0.06
113,20,1,1,16,29,779,1030.9621451053536,1031.9673675022786,"[89, 0, 165]",165,l,0.4773700071964413,colour,0.06
113,20,1,1,16,30,780,1032.4777520376956,1033.0473847842077,"[80, 0, 174]",174,l,0.046296194079332054,colour,0.06
113,20,1,1,16,31,781,1033.5559434499592,1034.151362864417,"[86, 0, 168]",168,l,0.07211594516411424,colour,0.06
113,20,1,1,16,32,782,1034.6652928007534,1035.3353023002855,"[75, 0, 179]",179,l,0.14662411028984934,colour,0.06
113,20,1,1,16,33,783,1035.8533353235107,1036.471366613754,"[71, 0, 183]",183,a,0.09470970404800028,colour,0.06
113,20,1,1,16,34,784,1036.9782624620711,1037.5913604382658,"[60, 0, 194]",194,a,0.08971219311933964,colour,0.06
113,20,1,1,16,35,785,1038.1033735265955,1038.6953263091855,"[96, 0, 158]",158,l,0.06870011938735843,colour,0.06
113,20,1,1,16,36,786,1039.212724846555,1039.8793047359213,"[55, 0, 199]",199,a,0.14328232768457383,colour,0.06
113,20,1,1,16,37,787,1040.3885321519338,1041.1913464961108,"[72, 0, 182]",182,a,0.2771812762366608,colour,0.06
113,20,1,1,16,38,788,1041.7034115721472,1042.47935853526,"[67, 0, 187]",187,l,0.25262577075045556,colour,0.06
113,20,1,1,16,39,789,1043.0002646644134,1043.671437978628,"[77, 0, 177]",177,a,0.1480510140536353,colour,0.06
113,20,1,1,16,40,790,1044.1878010951914,1044.9113169262419,"[82, 0, 172]",172,l,0.20017967256717384,colour,0.06
113,20,1,1,16,41,791,1045.4221984951291,1046.095338675892,"[99, 0, 155]",155,l,0.14978629921097308,colour,0.06
113,20,1,1,16,42,792,1046.626097648521,1047.1993711068062,"[88, 0, 166]",166,l,0.050878591486252844,colour,0.06
113,20,1,1,16,43,793,1047.718975181342,1048.3032940484118,"[57, 0, 197]",197,a,0.061042179237119853,colour,0.06
113,20,1,1,16,44,794,1048.8127668305533,1049.4232866914244,"[81, 0, 173]",173,l,0.08753580064512789,colour,0.06
113,20,1,1,16,45,795,1049.937705784454,1050.983455714304,"[76, 0, 178]",178,a,0.5224567005643621,colour,0.06
113,20,1,1,16,46,796,1051.5001630521147,1052.0713483393192,"[46, 0, 208]",208,a,0.04798343009315431,colour,0.06
113,20,1,1,16,47,797,1052.578343436704,1053.1353333353763,"[65, 0, 189]",189,a,0.03393533988855779,colour,0.06
113,20,1,1,16,48,798,1053.6564320552861,1054.2313230386935,"[66, 0, 188]",188,a,0.05152607418131083,colour,0.06
113,20,1,1,16,49,799,1054.7501965290867,1055.3353787064552,"[95, 0, 159]",159,l,0.06200867728330195,colour,0.06
113,20,1,1,16,50,800,1055.8315796686802,1056.5113514270633,"[68, 0, 186]",186,a,0.1565383936977014,colour,0.06
