id,age,condition,counterbalance,block,trialinblock,trial,tstart,tend,trialstim,trialintensity,response,RT,trialtype,colourfreq
102,28,1,2,Practice,1,NA,5.9076701290905476e-06,1.674180456175236,"[27, 0, 227]",227,a,1.1497472494666,colour,0.5
102,28,1,2,Practice,2,NA,2.1883567376062274,3.3222812334424816,"[47, 0, 207]",207,a,0.6107909801357891,colour,0.5
102,28,1,2,Practice,3,NA,3.8288161193195265,5.002188207086874,"[69, 0, 185]",185,a,0.6500471630424727,colour,0.5
102,28,1,2,Practice,4,NA,5.516378666943638,6.474176911578979,"[2, 0, 252]",252,a,0.4344874983653426,colour,0.5
102,28,1,2,Practice,5,NA,6.985252839134773,7.9782892521470785,"[54, 0, 200]",200,a,0.46980364818591624,colour,0.5
102,28,1,2,Practice,6,NA,8.485538574226666,10.28218379599275,"[84, 0, 170]",170,l,1.2737582535191905,colour,0.5
102,28,1,2,Practice,7,NA,10.797548310103593,11.754167774342932,"[17, 0, 237]",237,a,0.43338788097025827,colour,0.5
102,28,1,2,Practice,8,NA,12.266321657778462,13.24222499228199,"[61, 0, 193]",193,a,0.452586286701262,colour,0.5
102,28,1,2,Practice,9,NA,13.750674362410791,14.890156809677137,"[98, 0, 156]",156,l,0.6161835163657088,colour,0.5
102,28,1,2,Practice,10,NA,15.406843070173636,16.498240494023776,"[49, 0, 205]",205,a,0.5680264191469178,colour,0.5
102,28,1,2,1,1,1,4.439909966866253,7.480003072007094,"[67, 0, 187]",187,a,2.516013178101275,colour,0.5
102,28,1,2,1,2,2,7.987642695254181,9.311992012808332,"[90, 0, 164]",164,l,0.8010251805244479,colour,0.5
102,28,1,2,1,3,3,9.8313323999173,10.79201005093637,"[56, 0, 198]",198,a,0.4375748553138692,colour,0.5
102,28,1,2,1,4,4,11.300000590767013,12.279981410480104,"[87, 0, 167]",167,l,0.4566519565123599,colour,0.5
102,28,1,2,1,5,5,12.80005080610863,13.808046662859851,"[48, 0, 206]",206,a,0.4846583289618138,colour,0.5
102,28,1,2,1,6,6,14.31562681539799,15.287948516488541,"[4, 0, 250]",250,a,0.44898574869148433,colour,0.5
102,28,1,2,1,7,7,15.800096492224839,16.75198980726418,"[76, 0, 178]",178,l,0.4285987164475955,colour,0.5
102,28,1,2,1,8,8,17.26875247384305,18.415958236611914,"[97, 0, 157]",157,l,0.6237784381373785,colour,0.5
102,28,1,2,1,9,9,18.925067298405338,19.85598556950572,"[43, 0, 211]",211,a,0.40765242325142026,colour,0.5
102,28,1,2,1,10,10,20.362511003069812,21.415955479664262,"[19, 0, 235]",235,a,0.5300856811227277,colour,0.5
102,28,1,2,1,11,11,21.925034215353662,23.07194813838578,"[51, 0, 203]",203,a,0.6236082967370749,colour,0.5
102,28,1,2,1,12,12,23.58129468918196,24.551963419595268,"[14, 0, 240]",240,a,0.44750173782813363,colour,0.5
102,28,1,2,1,13,13,25.065579258516664,26.527968760143267,"[18, 0, 236]",236,a,0.9389590262435377,colour,0.5
102,28,1,2,1,14,14,27.034300027764402,34.200014178437414,"[64, 0, 190]",190,l,6.642282099899603,colour,0.5
102,28,1,2,1,15,15,34.70619893542607,35.83199799925205,"[6, 0, 248]",248,a,0.6024225452856626,colour,0.5
102,28,1,2,1,16,16,36.346794587763725,37.431953100836836,"[3, 0, 251]",251,a,0.5620691080985125,colour,0.5
102,28,1,2,1,17,17,37.94059072926757,38.879947145906044,"[65, 0, 189]",189,l,0.4160244026861619,colour,0.5
102,28,1,2,1,18,18,39.393650812417036,40.38392045890214,"[68, 0, 186]",186,l,0.4669080941239372,colour,0.5
102,28,1,2,1,19,19,40.8936537662521,41.87995502282865,"[71, 0, 183]",183,l,0.4629912980017252,colour,0.5
102,28,1,2,1,20,20,42.393648843164556,43.375944688305026,"[32, 0, 222]",222,a,0.45894020042032935,colour,0.5
102,28,1,2,1,21,21,43.89365455394727,44.839974951406475,"[98, 0, 156]",156,l,0.42297578044235706,colour,0.5
102,28,1,2,1,22,22,45.346765443187905,46.303927233064314,"[88, 0, 166]",166,l,0.43406726492685266,colour,0.5
102,28,1,2,1,23,23,46.81552500624093,47.82392770567094,"[54, 0, 200]",200,a,0.48501318399212323,colour,0.5
102,28,1,2,1,24,24,48.331168756994884,49.30400088222814,"[15, 0, 239]",239,a,0.44960841885767877,colour,0.5
102,28,1,2,1,25,25,49.815501769364346,50.77592381447903,"[34, 0, 220]",220,a,0.4371046034793835,colour,0.5
102,28,1,2,1,26,26,51.284319621598115,52.263968035491416,"[11, 0, 243]",243,a,0.4564140737056732,colour,0.5
102,28,1,2,1,27,27,52.78435447695665,54.23194325470831,"[58, 0, 196]",196,a,0.9243642837100197,colour,0.5
102,28,1,2,1,28,28,54.75300474782125,55.83194679932785,"[50, 0, 204]",204,a,0.5555891637341119,colour,0.5
102,28,1,2,1,29,29,56.34677804625244,57.32790850175661,"[89, 0, 165]",165,l,0.45800914903520606,colour,0.5
102,28,1,2,1,30,30,57.84674082783749,58.92000401724363,"[93, 0, 161]",161,l,0.5499449600756634,colour,0.5
102,28,1,2,1,31,31,59.4404676524573,60.48792331034201,"[63, 0, 191]",191,a,0.5241744500235654,colour,0.5
102,28,1,2,1,32,32,61.00307239082758,62.00795489677694,"[20, 0, 234]",234,a,0.4817222087585833,colour,0.5
102,28,1,2,1,33,33,62.518606258614454,63.4719308091735,"[0, 0, 254]",254,a,0.42997757048578933,colour,0.5
102,28,1,2,1,34,34,63.98730398790212,64.96791732389829,"[85, 0, 169]",169,l,0.45726359900436364,colour,0.5
102,28,1,2,1,35,35,65.48730064020492,66.5919029249053,"[55, 0, 199]",199,a,0.5812127692624927,colour,0.5
102,28,1,2,1,36,36,67.11237955704564,68.15197208421887,"[66, 0, 188]",188,l,0.5162876885733567,colour,0.5
102,28,1,2,1,37,37,68.65934507388738,69.72796206478961,"[70, 0, 184]",184,l,0.5453755614871625,colour,0.5
102,28,1,2,1,38,38,70.23742401238997,72.9999365908443,"[62, 0, 192]",192,l,2.2395850441243965,colour,0.5
102,28,1,2,1,39,39,73.51866336623789,74.54389667062787,"[12, 0, 242]",242,a,0.5019060165795963,colour,0.5
102,28,1,2,1,40,40,75.0498809601122,76.18391652044374,"[1, 0, 253]",253,a,0.6107716817059554,colour,0.5
102,28,1,2,1,41,41,76.69052387395641,77.76792874542298,"[29, 0, 225]",225,a,0.5541362666990608,colour,0.5
102,28,1,2,1,42,42,78.28428102470934,79.37589388218476,"[42, 0, 212]",212,a,0.5683982095506508,colour,0.5
102,28,1,2,1,43,43,79.89363564935047,80.83190544552053,"[40, 0, 214]",214,a,0.41496889604604803,colour,0.5
102,28,1,2,1,44,44,81.34675992935081,82.22388438263442,"[31, 0, 223]",223,a,0.3539933006686624,colour,0.5
102,28,1,2,1,45,45,82.73732496018056,83.74387697834754,"[26, 0, 228]",228,a,0.483202675008215,colour,0.5
102,28,1,2,1,46,46,84.25299352320144,85.22395369948936,"[28, 0, 226]",226,a,0.44756475315080024,colour,0.5
102,28,1,2,1,47,47,85.73735134783783,86.72788802176365,"[69, 0, 185]",185,l,0.46725625375984237,colour,0.5
102,28,1,2,1,48,48,87.23731924939784,88.2079084229772,"[30, 0, 224]",224,a,0.4479022789746523,colour,0.5
102,28,1,2,1,49,49,88.72176844626665,89.7839157327544,"[45, 0, 209]",209,a,0.5390511861478444,colour,0.5
102,28,1,2,1,50,50,90.29979224636918,91.3279018063622,"[46, 0, 208]",208,a,0.5048307152173948,colour,0.5
102,28,1,2,2,1,51,98.20530589015107,99.28790637498605,"[57, 0, 197]",197,l,0.5585890869260766,colour,0.5
102,28,1,2,2,2,52,99.79983616014943,100.70388981769793,"[58, 0, 196]",196,l,0.3807811143051367,colour,0.5
102,28,1,2,2,3,53,101.22163079716847,102.1119053667353,"[78, 0, 176]",176,l,0.36710127544938587,colour,0.5
102,28,1,2,2,4,54,102.62788506792276,103.53595398305333,"[4, 0, 250]",250,a,0.38468963967170566,colour,0.5
102,28,1,2,2,5,55,104.04985811706865,105.08004954579519,"[45, 0, 209]",209,a,0.5070011992647778,colour,0.5
102,28,1,2,2,6,56,105.59663734486094,106.47186897537904,"[11, 0, 243]",243,a,0.352068576408783,colour,0.5
102,28,1,2,2,7,57,106.98723664027057,107.93592208155314,"[36, 0, 218]",218,a,0.4253463381319307,colour,0.5
102,28,1,2,2,8,58,108.45598202486872,109.33595477076597,"[72, 0, 182]",182,l,0.35665806115139276,colour,0.5
102,28,1,2,2,9,59,109.84668332635192,110.86392195551889,"[40, 0, 214]",214,a,0.4941385903803166,colour,0.5
102,28,1,2,2,10,60,111.37785956641892,112.36783737319638,"[34, 0, 220]",220,a,0.46671550354221836,colour,0.5
102,28,1,2,2,11,61,112.8779215971299,114.11187700985465,"[53, 0, 201]",201,a,0.7106324572232552,colour,0.5
102,28,1,2,2,12,62,114.62779920955654,115.5679582838493,"[75, 0, 179]",179,l,0.41683296803967096,colour,0.5
102,28,1,2,2,13,63,116.08100856022793,116.99985348936752,"[2, 0, 252]",252,a,0.39581696409732103,colour,0.5
102,28,1,2,2,14,64,117.51845738489646,118.56855535405339,"[49, 0, 205]",205,a,0.5266990014060866,colour,0.5
102,28,1,2,2,15,65,119.08102864638204,119.9919265556382,"[47, 0, 207]",207,a,0.3877742397307884,colour,0.5
102,28,1,2,2,16,66,120.50294340634719,121.40789109378238,"[13, 0, 241]",241,a,0.38171531647094525,colour,0.5
102,28,1,2,2,17,67,121.92472032026853,122.89588214558898,"[42, 0, 212]",212,a,0.4478270544495899,colour,0.5
102,28,1,2,2,18,68,123.40914706792682,124.34387107065413,"[5, 0, 249]",249,a,0.41150856713647954,colour,0.5
102,28,1,2,2,19,69,124.86224574793596,126.69590341325966,"[55, 0, 199]",199,l,1.3104788573691621,colour,0.5
102,28,1,2,2,20,70,127.20595100952778,127.89587860097527,"[67, 0, 187]",187,l,0.16664795897668228,colour,0.5
102,28,1,2,2,21,71,128.40908365874202,129.43181761790765,"[19, 0, 235]",235,a,0.49941100366413593,colour,0.5
102,28,1,2,2,22,72,129.94037332638982,131.0879008611373,"[99, 0, 155]",155,l,0.6242817729944363,colour,0.5
102,28,1,2,2,23,73,131.59657275414793,132.68789889191976,"[54, 0, 200]",200,a,0.5681201544648502,colour,0.5
102,28,1,2,2,24,74,133.20598330488428,134.31984884198755,"[9, 0, 245]",245,a,0.5905957507784478,colour,0.5
102,28,1,2,2,25,75,134.83096848643618,135.9998298586288,"[85, 0, 169]",169,l,0.6460413577442523,colour,0.5
102,28,1,2,2,26,76,136.51839043112705,137.64785265442333,"[10, 0, 244]",244,a,0.606068375549512,colour,0.5
102,28,1,2,2,27,77,138.15911762794713,139.24783729444607,"[18, 0, 236]",236,a,0.5654317632724997,colour,0.5
102,28,1,2,2,28,78,139.7683950588107,140.84787037747446,"[50, 0, 204]",204,l,0.5561129785783123,colour,0.5
102,28,1,2,2,29,79,141.3621427572798,142.4558705665404,"[82, 0, 172]",172,l,0.5704899244592525,colour,0.5
102,28,1,2,2,30,80,142.97150880342815,144.02386035805102,"[80, 0, 174]",174,l,0.5291581743804272,colour,0.5
102,28,1,2,2,31,81,144.53403674188303,145.65583039427293,"[7, 0, 247]",247,a,0.5985506475844886,colour,0.5
102,28,1,2,2,32,82,146.17463239422068,147.25585087423678,"[21, 0, 233]",233,a,0.5579443614115007,colour,0.5
102,28,1,2,2,33,83,147.76835409886553,148.75185156741645,"[27, 0, 227]",227,a,0.4602028699591756,colour,0.5
102,28,1,2,2,34,84,149.26840785879176,150.39190253106062,"[20, 0, 234]",234,a,0.6002315813093446,colour,0.5
102,28,1,2,2,35,85,150.90914056947804,152.03184755018447,"[22, 0, 232]",232,a,0.5996258465165738,colour,0.5
102,28,1,2,2,36,86,152.54957474503317,155.0718748830841,"[63, 0, 191]",191,l,1.9995163574058097,colour,0.5
102,28,1,2,2,37,87,155.58082404348534,156.64786840826855,"[12, 0, 242]",242,a,0.54397859054734,colour,0.5
102,28,1,2,2,38,88,157.1590006557526,158.3038059285609,"[38, 0, 216]",216,a,0.6215413941827137,colour,0.5
102,28,1,2,2,39,89,158.81521977577358,159.8718642492313,"[74, 0, 180]",180,l,0.5334002870949917,colour,0.5
102,28,1,2,2,40,90,160.39335660962388,161.5438947014045,"[61, 0, 193]",193,l,0.6273045392881613,colour,0.5
102,28,1,2,2,41,91,162.0652125880879,163.11178445609403,"[3, 0, 251]",251,a,0.5232638786255848,colour,0.5
102,28,1,2,2,42,92,163.62763733894099,164.54384507684154,"[69, 0, 185]",185,l,0.39289187162648886,colour,0.5
102,28,1,2,2,43,93,165.06515508663142,166.03189047938213,"[89, 0, 165]",165,l,0.44312532371259294,colour,0.5
102,28,1,2,2,44,94,166.5495129112387,167.44786210672464,"[93, 0, 161]",161,l,0.37514399987412617,colour,0.5
102,28,1,2,2,45,95,167.95579987121164,169.04784674674738,"[70, 0, 184]",184,l,0.5690795627597254,colour,0.5
102,28,1,2,2,46,96,169.5651560712431,170.6958214933402,"[73, 0, 181]",181,l,0.6073200174141675,colour,0.5
102,28,1,2,2,47,97,171.20581631426467,172.25585402501747,"[86, 0, 168]",168,l,0.5269632719282527,colour,0.5
102,28,1,2,2,48,98,172.76829108354286,173.83185660862364,"[68, 0, 186]",186,l,0.5402862864721101,colour,0.5
102,28,1,2,2,49,99,174.34643540042453,175.5118045422132,"[79, 0, 175]",175,l,0.642434518202208,colour,0.5
102,28,1,2,2,50,100,176.01828507738537,177.08780791354366,"[31, 0, 223]",223,a,0.5462408406310715,colour,0.5
102,28,1,2,3,1,101,184.8456065520295,186.16781846861704,"[38, 0, 216]",216,a,0.7981729494931642,colour,0.5
102,28,1,2,3,2,102,186.67456642503385,187.61580148598296,"[19, 0, 235]",235,a,0.41805388990906067,colour,0.5
102,28,1,2,3,3,103,188.12768676658743,189.06379907563678,"[8, 0, 246]",246,a,0.4129354703181889,colour,0.5
102,28,1,2,3,4,104,189.58073818511912,190.5598316703108,"[86, 0, 168]",168,l,0.45605764325591736,colour,0.5
102,28,1,2,3,5,105,191.10878689595847,192.07179650777834,"[36, 0, 218]",218,a,0.4365201363689266,colour,0.5
102,28,1,2,3,6,106,192.58071179746184,193.52779743724386,"[61, 0, 193]",193,a,0.4239458225783892,colour,0.5
102,28,1,2,3,7,107,194.03385104358313,194.65578273893334,"[40, 0, 214]",214,a,0.09864694287534803,colour,0.5
102,28,1,2,3,8,108,195.17446855438175,196.4877496243862,"[93, 0, 161]",161,l,0.7900813882297371,colour,0.5
102,28,1,2,3,9,109,197.00261474205763,198.09578604722628,"[75, 0, 179]",179,l,0.5698672542930581,colour,0.5
102,28,1,2,3,10,110,198.61202450509882,199.4637707187503,"[96, 0, 158]",158,l,0.3285386549832765,colour,0.5
102,28,1,2,3,11,111,199.9712969144166,200.98379876057152,"[48, 0, 206]",206,a,0.48929743823828176,colour,0.5
102,28,1,2,3,12,112,201.50259170206846,202.52781516031246,"[35, 0, 219]",219,a,0.5019024719658773,colour,0.5
102,28,1,2,3,13,113,203.03385931436787,206.9838196343917,"[66, 0, 188]",188,l,3.426859493541997,colour,0.5
102,28,1,2,3,14,114,207.50256925285794,208.50376811937895,"[0, 0, 254]",254,a,0.47793065558653325,colour,0.5
102,28,1,2,3,15,115,209.01812596368836,210.03177705180133,"[70, 0, 184]",184,l,0.4901820158411283,colour,0.5
102,28,1,2,3,16,116,210.54939081906923,211.50377914705314,"[20, 0, 234]",234,a,0.43101653561461717,colour,0.5
102,28,1,2,3,17,117,212.01815235134563,212.98376488982467,"[78, 0, 176]",176,l,0.4423029737372417,colour,0.5
102,28,1,2,3,18,118,213.50254365289584,214.8717842985643,"[87, 0, 167]",167,l,0.8459933085832745,colour,0.5
102,28,1,2,3,19,119,215.3930832806509,216.34374779692735,"[27, 0, 227]",227,a,0.4275014621380251,colour,0.5
102,28,1,2,3,20,120,216.86184520678944,217.8558142465772,"[33, 0, 221]",221,a,0.47070397960487753,colour,0.5
102,28,1,2,3,21,121,218.36192062826012,220.93579959552153,"[58, 0, 196]",196,a,2.05064699013019,colour,0.5
102,28,1,2,3,22,122,221.45558108988917,222.48778822124586,"[52, 0, 202]",202,a,0.508987757290015,colour,0.5
102,28,1,2,3,23,123,223.0026033205213,224.00781153692515,"[67, 0, 187]",187,a,0.4819935685081873,colour,0.5
102,28,1,2,3,24,124,224.51810213603312,225.5918261249608,"[30, 0, 224]",224,a,0.5503636180947069,colour,0.5
102,28,1,2,3,25,125,226.11167221004143,227.11177657917142,"[63, 0, 191]",191,a,0.4766545952879824,colour,0.5
102,28,1,2,3,26,126,227.6274786191061,228.5517846136354,"[55, 0, 199]",199,a,0.40106220202869736,colour,0.5
102,28,1,2,3,27,127,229.06492941299803,230.03973076705006,"[84, 0, 170]",170,l,0.45148351855459623,colour,0.5
102,28,1,2,3,28,128,230.549290388386,231.663781352574,"[31, 0, 223]",223,a,0.591159737930866,colour,0.5
102,28,1,2,3,29,129,232.17438427137677,233.2797545553185,"[32, 0, 222]",222,a,0.5821233406895772,colour,0.5
102,28,1,2,3,30,130,233.79937457293272,234.75176846593968,"[12, 0, 242]",242,a,0.429180032806471,colour,0.5
102,28,1,2,3,31,131,235.2680435514776,236.30370746713015,"[41, 0, 213]",213,a,0.5123838893487118,colour,0.5
102,28,1,2,3,32,132,236.81497913601925,237.78381293901475,"[10, 0, 244]",244,a,0.4457428226596676,colour,0.5
102,28,1,2,3,33,133,238.2993342037371,239.2637565403129,"[15, 0, 239]",239,a,0.4412439224834088,colour,0.5
102,28,1,2,3,34,134,239.78367981914198,240.75979898113292,"[1, 0, 253]",253,a,0.4528489818330854,colour,0.5
102,28,1,2,3,35,135,241.26806206221227,244.13577950937906,"[54, 0, 200]",200,l,2.3443988239741884,colour,0.5
102,28,1,2,3,36,136,244.64311665907735,246.0237811950501,"[89, 0, 165]",165,l,0.85739199272939,colour,0.5
102,28,1,2,3,37,137,246.533633837651,247.5037330671039,"[56, 0, 198]",198,a,0.4467817877884954,colour,0.5
102,28,1,2,3,38,138,248.01797984691802,248.9677148871706,"[28, 0, 226]",226,a,0.426370730943745,colour,0.5
102,28,1,2,3,39,139,249.4867464991985,250.5517913090007,"[97, 0, 157]",157,l,0.5416576574498322,colour,0.5
102,28,1,2,3,40,140,251.06494280375773,252.03173648568918,"[34, 0, 220]",220,a,0.4435794278688263,colour,0.5
102,28,1,2,3,41,141,252.54926203150535,253.59171230354696,"[23, 0, 231]",231,a,0.5191777287982404,colour,0.5
102,28,1,2,3,42,142,254.1117675207206,255.16772315793787,"[88, 0, 166]",166,l,0.5327709215926006,colour,0.5
102,28,1,2,3,43,143,255.67428640069556,256.70375315324054,"[21, 0, 233]",233,a,0.506272584607359,colour,0.5
102,28,1,2,3,44,144,257.2309799079667,258.3997424248664,"[82, 0, 172]",172,l,0.6403361079574097,colour,0.5
102,28,1,2,3,45,145,258.9085651607893,260.22375362584717,"[57, 0, 197]",197,a,0.7919041064451449,colour,0.5
102,28,1,2,3,46,146,260.73662745932234,261.8717472770368,"[69, 0, 185]",185,l,0.611723606911255,colour,0.5
102,28,1,2,3,47,147,262.3929474038596,263.47174333859584,"[29, 0, 225]",225,a,0.5556084621639457,colour,0.5
102,28,1,2,3,48,148,263.98661830241326,265.0077307985339,"[79, 0, 175]",175,l,0.49768438379396684,colour,0.5
102,28,1,2,3,49,149,265.51795995770954,266.5677349733014,"[2, 0, 252]",252,a,0.5264221278193872,colour,0.5
102,28,1,2,3,50,150,267.08041582236183,268.0877118151693,"[77, 0, 177]",177,l,0.48447085835505277,colour,0.5
102,28,1,2,4,1,151,276.64216591540026,278.1677680563589,"[56, 0, 198]",198,l,1.001632490719203,colour,0.5
102,28,1,2,4,2,152,278.67422732384875,279.7197728297615,"[71, 0, 183]",183,l,0.5222906857379712,colour,0.5
102,28,1,2,4,3,153,280.2366237177921,281.1996861049265,"[79, 0, 175]",175,l,0.4403238987433724,colour,0.5
102,28,1,2,4,4,154,281.7211107238254,282.7917182112287,"[95, 0, 159]",159,l,0.5474129256326705,colour,0.5
102,28,1,2,4,5,155,283.2992211699893,284.3997199756559,"[51, 0, 203]",203,a,0.5773259053821675,colour,0.5
102,28,1,2,4,6,156,284.90847024397226,285.87168465557625,"[30, 0, 224]",224,a,0.4399032714718487,colour,0.5
102,28,1,2,4,7,157,286.39269888718263,287.5677034656401,"[69, 0, 185]",185,l,0.651546139997663,colour,0.5
102,28,1,2,4,8,158,288.08038510239567,289.0876984244096,"[61, 0, 193]",193,a,0.4841136402392294,colour,0.5
102,28,1,2,4,9,159,289.595976077806,290.35171884138254,"[37, 0, 217]",217,a,0.23245407265494578,colour,0.5
102,28,1,2,4,10,160,290.8616175639618,291.83168331650086,"[82, 0, 172]",172,l,0.4467605201061815,colour,0.5
102,28,1,2,4,11,161,292.34599547472317,293.3117123823031,"[43, 0, 211]",211,a,0.44243373052449897,colour,0.5
102,28,1,2,4,12,162,293.83035329935956,294.7437072308094,"[22, 0, 232]",232,a,0.3902349880663678,colour,0.5
102,28,1,2,4,13,163,295.2522290685738,296.2717055293906,"[13, 0, 241]",241,a,0.49615350531530567,colour,0.5
102,28,1,2,4,14,164,296.7835010131821,298.5037295224902,"[75, 0, 179]",179,l,1.1969571476220153,colour,0.5
102,28,1,2,4,15,165,299.0178715393413,300.09572775804554,"[3, 0, 251]",251,a,0.5545541370520368,colour,0.5
102,28,1,2,4,16,166,300.6115975762659,301.5197031190619,"[77, 0, 177]",177,l,0.38479203957831487,colour,0.5
102,28,1,2,4,17,167,302.0335001270287,302.9996888618334,"[16, 0, 238]",238,a,0.44291501003317535,colour,0.5
102,28,1,2,4,18,168,303.51780990246334,304.51168048082036,"[17, 0, 237]",237,a,0.47056061975308694,colour,0.5
102,28,1,2,4,19,169,305.01768761334824,306.7036791102146,"[52, 0, 202]",202,a,1.1632884545833804,colour,0.5
102,28,1,2,4,20,170,307.2209974931611,308.2396905947826,"[15, 0, 239]",239,a,0.4953197338618338,colour,0.5
102,28,1,2,4,21,171,308.7521871240169,309.84767542383634,"[29, 0, 225]",225,a,0.5722685319196898,colour,0.5
102,28,1,2,4,22,172,310.3615590778645,311.351750742906,"[6, 0, 248]",248,a,0.4668576818658039,colour,0.5
102,28,1,2,4,23,173,311.86156833323184,313.4156868768623,"[48, 0, 206]",206,a,1.030885384971043,colour,0.5
102,28,1,2,4,24,174,313.9240338471136,314.8396551486512,"[72, 0, 182]",182,l,0.3922609307046514,colour,0.5
102,28,1,2,4,25,175,315.34589189328835,316.31966334063327,"[24, 0, 230]",230,a,0.4504142272635363,colour,0.5
102,28,1,2,4,26,176,316.8303005240159,317.9037011655746,"[21, 0, 233]",233,a,0.5502352243638597,colour,0.5
102,28,1,2,4,27,177,318.42405531171244,319.6316494457715,"[5, 0, 249]",249,a,0.6845842859474942,colour,0.5
102,28,1,2,4,28,178,320.1427501855942,321.1596564089705,"[50, 0, 204]",204,a,0.49359665863448754,colour,0.5
102,28,1,2,4,29,179,321.6739209118241,322.6876771567622,"[0, 0, 254]",254,a,0.4903423110663425,colour,0.5
102,28,1,2,4,30,180,323.20524248099537,324.4476726669236,"[7, 0, 247]",247,a,0.7190745412372053,colour,0.5
102,28,1,2,4,31,181,324.95525085020927,326.10366453792085,"[40, 0, 214]",214,a,0.6253920242306776,colour,0.5
102,28,1,2,4,32,182,326.61155779784895,327.7196503437299,"[86, 0, 168]",168,l,0.584904679475585,colour,0.5
102,28,1,2,4,33,183,328.236608357809,329.2636364173377,"[35, 0, 219]",219,a,0.5043943341297563,colour,0.5
102,28,1,2,4,34,184,329.7833930994384,330.79964081267826,"[68, 0, 186]",186,l,0.49296926232636906,colour,0.5
102,28,1,2,4,35,185,331.3145929702441,332.335661355668,"[94, 0, 160]",160,l,0.4978198667813558,colour,0.5
102,28,1,2,4,36,186,332.84588618250564,334.52763517279527,"[55, 0, 199]",199,a,1.1583953148219734,colour,0.5
102,28,1,2,4,37,187,335.0489010718593,336.0876424983144,"[98, 0, 156]",156,l,0.5154137448116671,colour,0.5
102,28,1,2,4,38,188,336.5958461087139,337.69566316733835,"[99, 0, 155]",155,l,0.5765295492601581,colour,0.5
102,28,1,2,4,39,189,338.2051625302993,339.23165811036597,"[9, 0, 245]",245,a,0.503123393835267,colour,0.5
102,28,1,2,4,40,190,339.75207842257805,340.799634511146,"[91, 0, 163]",163,l,0.5241460931720212,colour,0.5
102,28,1,2,4,41,191,341.3145429518481,343.7276765265851,"[62, 0, 192]",192,l,1.8900390497874469,colour,0.5
102,28,1,2,4,42,192,344.2363968626305,345.2556531636801,"[14, 0, 240]",240,a,0.496383117424557,colour,0.5
102,28,1,2,4,43,193,345.7676912564202,346.81561874155886,"[76, 0, 178]",178,l,0.5246198896202259,colour,0.5
102,28,1,2,4,44,194,347.33016996414517,348.59963687421987,"[93, 0, 161]",161,l,0.746360175893642,colour,0.5
102,28,1,2,4,45,195,349.1114418102661,350.1596556212753,"[87, 0, 167]",167,l,0.5249050339625683,colour,0.5
102,28,1,2,4,46,196,350.673979594867,351.7196148976218,"[45, 0, 209]",209,a,0.5225159655383322,colour,0.5
102,28,1,2,4,47,197,352.23638189648045,353.2316147873353,"[27, 0, 227]",227,a,0.4723274118732661,colour,0.5
102,28,1,2,4,48,198,353.752003591886,354.5836384653521,"[46, 0, 208]",208,a,0.30820557961123995,colour,0.5
102,28,1,2,4,49,199,355.09572342576575,356.1197129652137,"[97, 0, 157]",157,l,0.5007670146296732,colour,0.5
102,28,1,2,4,50,200,356.62699182573124,358.0876960613532,"[49, 0, 205]",205,a,0.9374076677777339,colour,0.5
102,28,1,2,5,1,201,373.34493445421685,374.40758822637144,"[47, 0, 207]",207,a,0.5385978696867824,colour,0.4
102,28,1,2,5,2,202,374.9239570471691,375.847589565441,"[80, 0, 174]",174,l,0.4004269287979696,colour,0.4
102,28,1,2,5,3,203,376.3613310411456,377.3675805857638,"[18, 0, 236]",236,a,0.4829864536586683,colour,0.4
102,28,1,2,5,4,204,377.8770185087924,378.799624665,"[95, 0, 159]",159,l,0.399360394483665,colour,0.4
102,28,1,2,5,5,205,379.31447087807464,380.3035979779961,"[44, 0, 210]",210,a,0.46627951628761366,colour,0.4
102,28,1,2,5,6,206,380.81447186268633,381.79959276347654,"[11, 0, 243]",243,a,0.46204094812856056,colour,0.4
102,28,1,2,5,7,207,382.3144137704221,383.33559558342677,"[14, 0, 240]",240,a,0.49797819278319366,colour,0.4
102,28,1,2,5,8,208,383.8457046196272,386.1276119358954,"[60, 0, 194]",194,a,1.7586816406983417,colour,0.4
102,28,1,2,5,9,209,386.64253731197095,387.6556378036912,"[19, 0, 235]",235,a,0.48992562224157155,colour,0.4
102,28,1,2,5,10,210,388.1737907458155,389.22373353972216,"[21, 0, 233]",233,a,0.5267135737231001,colour,0.4
102,28,1,2,5,11,211,389.73628757041297,390.74362452319474,"[79, 0, 175]",175,l,0.4840317203197628,colour,0.4
102,28,1,2,5,12,212,391.2518710627628,392.343621372449,"[65, 0, 189]",189,l,0.5683474034885876,colour,0.4
102,28,1,2,5,13,213,392.86125128739513,393.79958843116765,"[92, 0, 162]",162,l,0.41502915442106314,colour,0.4
102,28,1,2,5,14,214,394.3143326381978,395.2635863989417,"[29, 0, 225]",225,a,0.4261277281329967,colour,0.4
102,28,1,2,5,15,215,395.78315994274453,396.7436064062931,"[13, 0, 241]",241,a,0.43731137248687446,colour,0.4
102,28,1,2,5,16,216,397.25275879114633,398.23959804102196,"[90, 0, 164]",164,l,0.46437409045756795,colour,0.4
102,28,1,2,5,17,217,398.75188149968744,399.88758696606965,"[4, 0, 250]",250,a,0.6124565538775641,colour,0.4
102,28,1,2,5,18,218,400.40816796734,401.43162069501705,"[46, 0, 208]",208,a,0.5001636429224163,colour,0.4
102,28,1,2,5,19,219,401.939378865849,403.44760965160094,"[59, 0, 195]",195,a,0.9849743901868351,colour,0.4
102,28,1,2,5,20,220,403.9549495582178,404.9355735280551,"[98, 0, 156]",156,l,0.45765862631378695,colour,0.4
102,28,1,2,5,21,221,405.45497299204,406.7196885467565,"[73, 0, 181]",181,l,0.7415186298894696,colour,0.4
102,28,1,2,5,22,222,407.23621726894635,408.3355983403453,"[89, 0, 165]",165,l,0.5766114691796247,colour,0.4
102,28,1,2,5,23,223,408.84560379511095,409.8555460376083,"[32, 0, 222]",222,a,0.48677406838396564,colour,0.4
102,28,1,2,5,24,224,410.376825327432,411.36760027805576,"[69, 0, 185]",185,a,0.4674567212641705,colour,0.4
102,28,1,2,5,25,225,411.8769417088479,412.8635808850813,"[6, 0, 248]",248,a,0.4634469775191974,colour,0.4
102,28,1,2,5,26,226,413.3768359612732,414.36766920107766,"[84, 0, 170]",170,l,0.4674992566287983,colour,0.4
102,28,1,2,5,27,227,414.8768885396712,415.8795950477943,"[78, 0, 176]",176,l,0.47952297402662225,colour,0.4
102,28,1,2,5,28,228,416.3924539151194,417.41557817542343,"[88, 0, 166]",166,l,0.499787520209793,colour,0.4
102,28,1,2,5,29,229,417.9236746597744,421.1516018692055,"[61, 0, 193]",193,l,2.7046475769602694,colour,0.4
102,28,1,2,5,30,230,421.6579772475234,422.81559077851125,"[8, 0, 246]",246,a,0.634290575486375,colour,0.4
102,28,1,2,5,31,231,423.32994310898357,424.4155569077702,"[93, 0, 161]",161,l,0.5631124055653345,colour,0.4
102,28,1,2,5,32,232,424.92360967522836,425.98363098228583,"[50, 0, 204]",204,a,0.5366971700277645,colour,0.4
102,28,1,2,5,33,233,426.5017937705561,427.6155907784996,"[87, 0, 167]",167,l,0.5905043785751332,colour,0.4
102,28,1,2,5,34,234,428.126744293666,430.0475635716284,"[66, 0, 188]",188,l,1.3975601254787762,colour,0.4
102,28,1,2,5,35,235,430.56426913055475,431.5756122824678,"[83, 0, 171]",171,l,0.48820609159884043,colour,0.4
102,28,1,2,5,36,236,432.0954882998194,433.5515435800189,"[64, 0, 190]",190,a,0.9327488662092946,colour,0.4
102,28,1,2,5,37,237,434.06421221984783,435.0715582310804,"[42, 0, 212]",212,a,0.48429165853303857,colour,0.4
102,28,1,2,5,38,238,435.5805491391511,440.53563851260697,"[67, 0, 187]",187,a,4.432584829453845,colour,0.4
102,28,1,2,5,39,239,441.048586389079,442.07955330013647,"[97, 0, 157]",157,l,0.5076435616938397,colour,0.4
102,28,1,2,5,40,240,442.5954156352964,443.91950619619456,"[75, 0, 179]",179,l,0.8007467315765098,colour,0.4
102,28,1,2,5,41,241,444.43923137060483,445.40752954335767,"[48, 0, 206]",206,a,0.44506540792644955,colour,0.4
102,28,1,2,5,42,242,445.92358407523716,446.9036200333503,"[28, 0, 226]",226,a,0.4567551441141404,colour,0.4
102,28,1,2,5,43,243,447.42362641365617,448.4475277316815,"[37, 0, 217]",217,a,0.5006437409319915,colour,0.4
102,28,1,2,5,44,244,448.95484597678296,450.2555251637823,"[33, 0, 221]",221,a,0.777775677270256,colour,0.4
102,28,1,2,5,45,245,450.7673241921875,452.047496617859,"[82, 0, 172]",172,l,0.7568805839982815,colour,0.4
102,28,1,2,5,46,246,452.5642049337039,453.58354985003825,"[55, 0, 199]",199,a,0.4962011606548913,colour,0.4
102,28,1,2,5,47,247,454.09552768440335,455.079575749347,"[91, 0, 163]",163,l,0.46078773093177006,colour,0.4
102,28,1,2,5,48,248,455.5954818013706,456.5755177594838,"[56, 0, 198]",198,a,0.4566291134688072,colour,0.4
102,28,1,2,5,49,249,457.0954705767799,458.17554729792755,"[63, 0, 191]",191,a,0.5566919318807777,colour,0.4
102,28,1,2,5,50,250,458.6892639613361,459.855599206785,"[10, 0, 244]",244,a,0.6429878715134691,colour,0.4
102,28,1,2,6,1,251,474.0477593129908,475.3355656511267,"[86, 0, 168]",168,l,0.7636287373316009,colour,0.28
102,28,1,2,6,2,252,475.84558489051415,476.7594953260268,"[20, 0, 234]",234,a,0.39072847680654377,colour,0.28
102,28,1,2,6,3,253,477.26737558905734,478.1755354825582,"[94, 0, 160]",160,l,0.384919251780957,colour,0.28
102,28,1,2,6,4,254,478.6891548660642,479.7355215404241,"[70, 0, 184]",184,l,0.5230165435059462,colour,0.28
102,28,1,2,6,5,255,480.25164814607706,481.2155305201013,"[23, 0, 231]",231,a,0.44048261860734783,colour,0.28
102,28,1,2,6,6,256,481.73611939829425,482.5835006193374,"[52, 0, 202]",202,a,0.32404054250218906,colour,0.28
102,28,1,2,6,7,257,483.0954370998661,484.29557415819727,"[72, 0, 182]",182,l,0.6768838135176338,colour,0.28
102,28,1,2,6,8,258,484.81414418300847,485.75152349387645,"[83, 0, 171]",171,l,0.4142001090804115,colour,0.28
102,28,1,2,6,9,259,486.2673287214129,487.24750016245525,"[12, 0, 242]",242,a,0.4570855807105545,colour,0.28
102,28,1,2,6,10,260,487.7673163152649,488.75151798003935,"[62, 0, 192]",192,l,0.4609039154020138,colour,0.28
102,28,1,2,6,11,261,489.2672861860483,490.2555231945589,"[57, 0, 197]",197,a,0.4648683668929152,colour,0.28
102,28,1,2,6,12,262,490.7673308875528,491.7034959719458,"[85, 0, 169]",169,l,0.4128878150077071,colour,0.28
102,28,1,2,6,13,263,492.22029054001905,493.17549412875087,"[80, 0, 174]",174,l,0.4318518824875355,colour,0.28
102,28,1,2,6,14,264,493.6891213891795,494.6794556263776,"[30, 0, 224]",224,a,0.4669652017473709,colour,0.28
102,28,1,2,6,15,265,495.1890983491903,496.59148308529984,"[61, 0, 193]",193,a,0.8790145191014744,colour,0.28
102,28,1,2,6,16,266,497.1109514723066,498.0555003515037,"[73, 0, 181]",181,l,0.4210471177357249,colour,0.28
102,28,1,2,6,17,267,498.56414349377155,499.6794914663478,"[79, 0, 175]",175,l,0.5923160691163503,colour,0.28
102,28,1,2,6,18,268,500.18914442913956,501.16750496739405,"[75, 0, 179]",179,l,0.45504939812235534,colour,0.28
102,28,1,2,6,19,269,501.68915525989723,502.70345067969174,"[55, 0, 199]",199,a,0.49097522121155635,colour,0.28
102,28,1,2,6,20,270,503.22030274925055,504.2714916711557,"[8, 0, 246]",246,a,0.527873055631062,colour,0.28
102,28,1,2,6,21,271,504.78292560449336,506.0635588297155,"[65, 0, 189]",189,l,0.7573768296570051,colour,0.28
102,28,1,2,6,22,272,506.5797413614928,507.7434673787502,"[21, 0, 233]",233,a,0.6405023109109607,colour,0.28
102,28,1,2,6,23,273,508.25161781994393,509.31147843794315,"[87, 0, 167]",167,l,0.5365349055791739,colour,0.28
102,28,1,2,6,24,274,509.8296518600255,511.04748519632267,"[84, 0, 170]",170,l,0.6945659130287822,colour,0.28
102,28,1,2,6,25,275,511.5640718138311,512.575489008741,"[68, 0, 186]",186,l,0.4883498453127686,colour,0.28
102,28,1,2,6,26,276,513.0952898015676,514.119535340782,"[4, 0, 250]",250,a,0.5009328237210866,colour,0.28
102,28,1,2,6,27,277,514.6264873093169,515.5674766104785,"[56, 0, 198]",198,a,0.4176123888173606,colour,0.28
102,28,1,2,6,28,278,516.0796982353786,517.2074555003492,"[95, 0, 159]",159,l,0.6044575463747606,colour,0.28
102,28,1,2,6,29,279,517.720232841617,518.7675372627273,"[53, 0, 201]",201,a,0.5239247518184129,colour,0.28
102,28,1,2,6,30,280,519.2828092230775,520.2394885518879,"[18, 0, 236]",236,a,0.4334056040388532,colour,0.28
102,28,1,2,6,31,281,520.7515207369579,521.7194735069934,"[74, 0, 180]",180,l,0.44456719304434955,colour,0.28
102,28,1,2,6,32,282,522.235971509188,523.2714861573186,"[78, 0, 176]",176,l,0.512907704222016,colour,0.28
102,28,1,2,6,33,283,523.7827282877697,524.8394814626663,"[82, 0, 172]",172,l,0.5334341578418389,colour,0.28
102,28,1,2,6,34,284,525.3608891461918,526.31950777155,"[31, 0, 223]",223,a,0.4353515959519427,colour,0.28
102,28,1,2,6,35,285,526.8296687953989,527.919469174667,"[0, 0, 254]",254,a,0.5661016949161422,colour,0.28
102,28,1,2,6,36,286,528.4390446877223,529.8394720103825,"[59, 0, 195]",195,a,0.8771102748578414,colour,0.28
102,28,1,2,6,37,287,530.3609218354104,531.367467158183,"[92, 0, 162]",162,l,0.48324639187194407,colour,0.28
102,28,1,2,6,38,288,531.8765210815764,532.9274603052763,"[97, 0, 157]",157,l,0.5275843667041045,colour,0.28
102,28,1,2,6,39,289,533.4389702508633,534.8554692376929,"[66, 0, 188]",188,l,0.8931287698505912,colour,0.28
102,28,1,2,6,40,290,535.3764976477541,536.3755075194931,"[32, 0, 222]",222,a,0.47562665783334523,colour,0.28
102,28,1,2,6,41,291,536.892086260108,538.9355109065655,"[58, 0, 196]",196,a,1.5200819986639544,colour,0.28
102,28,1,2,6,42,292,539.4546043523878,540.5434756494942,"[14, 0, 240]",240,a,0.565525892394362,colour,0.28
102,28,1,2,6,43,293,541.0640212046565,542.095431192196,"[51, 0, 203]",203,a,0.508313493366586,colour,0.28
102,28,1,2,6,44,294,542.6108634477714,543.8554775084485,"[64, 0, 190]",190,l,0.7213096159393899,colour,0.28
102,28,1,2,6,45,295,544.3764523555001,545.4154852278298,"[48, 0, 206]",206,a,0.5156071230885573,colour,0.28
102,28,1,2,6,46,296,545.9232922355295,546.9354297743412,"[88, 0, 166]",166,l,0.4888413648295682,colour,0.28
102,28,1,2,6,47,297,547.4546165616193,548.6554495454184,"[90, 0, 164]",164,l,0.6775628036411945,colour,0.28
102,28,1,2,6,48,298,549.1733019832172,550.4314300736587,"[71, 0, 183]",183,l,0.734855941060232,colour,0.28
102,28,1,2,6,49,299,550.9388688355684,552.0954367060331,"[17, 0, 237]",237,a,0.6331937150098383,colour,0.28
102,28,1,2,6,50,300,552.610796887835,553.6555007453426,"[91, 0, 163]",163,l,0.5213627851044293,colour,0.28
102,28,1,2,7,1,301,558.500609476323,566.4074629834213,"[34, 0, 220]",220,a,7.3827302569989115,colour,0.14
102,28,1,2,7,2,302,566.923234734044,567.9434508372215,"[60, 0, 194]",194,a,0.4969963352777995,colour,0.14
102,28,1,2,7,3,303,568.4544716263772,569.4394326258043,"[80, 0, 174]",174,l,0.4616155947151128,colour,0.14
102,28,1,2,7,4,304,569.9544619771477,570.8874250954541,"[30, 0, 224]",224,a,0.4099453932722099,colour,0.14
102,28,1,2,7,5,305,571.4076866878313,572.423446426139,"[78, 0, 176]",176,l,0.4925498165539466,colour,0.14
102,28,1,2,7,6,306,572.938861746341,573.8714310188952,"[82, 0, 172]",172,l,0.4092750677955337,colour,0.14
102,28,1,2,7,7,307,574.3919765740575,575.791420857684,"[63, 0, 191]",191,a,0.8761043927515857,colour,0.14
102,28,1,2,7,8,308,576.2982869678526,578.1433933357475,"[23, 0, 231]",231,a,1.3220134183357004,colour,0.14
102,28,1,2,7,9,309,578.6575491371914,579.7834372101643,"[72, 0, 182]",182,l,0.6024595668131951,colour,0.14
102,28,1,2,7,10,310,580.2981633002637,581.7754330826574,"[54, 0, 200]",200,a,0.9540874298254494,colour,0.14
102,28,1,2,7,11,311,582.282582761778,583.223409798491,"[67, 0, 187]",187,a,0.4175513427180704,colour,0.14
102,28,1,2,7,12,312,583.7357633617066,584.8874361231283,"[68, 0, 186]",186,l,0.628430150449276,colour,0.14
102,28,1,2,7,13,313,585.4075456910359,586.3274532160431,"[79, 0, 175]",175,l,0.39667712326627225,colour,0.14
102,28,1,2,7,14,314,586.8450331125932,587.7915661867592,"[55, 0, 199]",199,a,0.4232223278959282,colour,0.14
102,28,1,2,7,15,315,588.2981530602847,589.319482959283,"[65, 0, 189]",189,l,0.49800300505012274,colour,0.14
102,28,1,2,7,16,316,589.8294131894945,591.3594401876326,"[61, 0, 193]",193,a,1.0067753287148662,colour,0.14
102,28,1,2,7,17,317,591.876335186389,592.8554310346663,"[3, 0, 251]",251,a,0.45597178488969803,colour,0.14
102,28,1,2,7,18,318,593.3762770941248,594.695372903021,"[70, 0, 184]",184,l,0.7958520163956564,colour,0.14
102,28,1,2,7,19,319,595.2043905926112,596.2154040955938,"[98, 0, 156]",156,l,0.4876944859570358,colour,0.14
102,28,1,2,7,20,320,596.7356188203266,597.6313938398671,"[76, 0, 178]",178,l,0.3724036210332997,colour,0.14
102,28,1,2,7,21,321,598.1419120818027,599.0874148554576,"[97, 0, 157]",157,l,0.4221758796775248,colour,0.14
102,28,1,2,7,22,322,599.5950068233942,600.743391760363,"[17, 0, 237]",237,a,0.6250241723028012,colour,0.14
102,28,1,2,7,23,323,601.2512625710806,602.2153509264172,"[51, 0, 203]",203,a,0.44099776886287145,colour,0.14
102,28,1,2,7,24,324,602.7356759279501,603.9993647267693,"[66, 0, 188]",188,a,0.740392230974976,colour,0.14
102,28,1,2,7,25,325,604.5168414357177,605.4954504906491,"[88, 0, 166]",166,l,0.4551600687846076,colour,0.14
102,28,1,2,7,26,326,606.0168802295229,606.9434020003537,"[84, 0, 170]",170,l,0.40314643384772353,colour,0.14
102,28,1,2,7,27,327,607.4543735587795,608.7114055764687,"[74, 0, 180]",180,l,0.7336610130150802,colour,0.14
102,28,1,2,7,28,328,609.2200940109906,610.2553628993337,"[43, 0, 211]",211,a,0.5120286404562648,colour,0.14
102,28,1,2,7,29,329,610.7668523649336,612.2793575587857,"[58, 0, 196]",196,a,0.9891397029859945,colour,0.14
102,28,1,2,7,30,330,612.798028014251,613.8713707604911,"[7, 0, 247]",247,a,0.5500225476571359,colour,0.14
102,28,1,2,7,31,331,614.3918623587815,615.3753558888857,"[90, 0, 164]",164,l,0.46024422376649454,colour,0.14
102,28,1,2,7,32,332,615.8918357742077,616.919438848563,"[57, 0, 197]",197,a,0.5042647588998079,colour,0.14
102,28,1,2,7,33,333,617.4387268541905,618.4793922172103,"[59, 0, 195]",195,a,0.517271909135161,colour,0.14
102,28,1,2,7,34,334,618.9855659465247,619.8393818196782,"[85, 0, 169]",169,l,0.3305429360771086,colour,0.14
102,28,1,2,7,35,335,620.3606252695317,621.3673686967522,"[89, 0, 165]",165,l,0.4834295301698148,colour,0.14
102,28,1,2,7,36,336,621.8761327496613,623.7833726194513,"[71, 0, 183]",183,l,1.3839031296956819,colour,0.14
102,28,1,2,7,37,337,624.2982314355904,625.2793559833954,"[99, 0, 155]",155,l,0.4579882752150297,colour,0.14
102,28,1,2,7,38,338,625.7981363218278,626.7913795038767,"[83, 0, 171]",171,l,0.470021051063668,colour,0.14
102,28,1,2,7,39,339,627.298079804983,628.3994147451886,"[62, 0, 192]",192,a,0.5781777937954757,colour,0.14
102,28,1,2,7,40,340,628.9074415188225,629.8393912719912,"[81, 0, 173]",173,l,0.40848698242916726,colour,0.14
102,28,1,2,7,41,341,630.3606532325794,631.2874002831813,"[94, 0, 160]",160,l,0.40344654431100935,colour,0.14
102,28,1,2,7,42,342,631.798202094069,633.1033628520672,"[75, 0, 179]",179,l,0.7820595376542769,colour,0.14
102,28,1,2,7,43,343,633.6113703272713,634.5513836786267,"[53, 0, 201]",201,a,0.4173445736814756,colour,0.14
102,28,1,2,7,44,344,635.0637092788238,636.2313686337438,"[73, 0, 181]",181,l,0.6443994147703052,colour,0.14
102,28,1,2,7,45,345,636.7512036911212,637.7594027722953,"[93, 0, 161]",161,l,0.48484579953947105,colour,0.14
102,28,1,2,7,46,346,638.2668056942348,639.7593405446387,"[69, 0, 185]",185,a,0.9691945656959433,colour,0.14
102,28,1,2,7,47,347,640.2667958480888,641.2153414741333,"[91, 0, 163]",163,l,0.4251675321429502,colour,0.14
102,28,1,2,7,48,348,641.7354774296982,642.8233463893121,"[52, 0, 202]",202,a,0.5644038258178625,colour,0.14
102,28,1,2,7,49,349,643.3449340603838,644.2073913034983,"[56, 0, 198]",198,a,0.33911223226459697,colour,0.14
102,28,1,2,7,50,350,644.720018983382,645.6793453495775,"[64, 0, 190]",190,a,0.4361113244376611,colour,0.14
102,28,1,2,8,1,351,658.4533842182136,659.9753291073721,"[79, 0, 175]",175,l,0.9976873376581352,colour,0.06
102,28,1,2,8,2,352,660.4855007650622,661.5594086799829,"[70, 0, 184]",184,l,0.5505282456579152,colour,0.06
102,28,1,2,8,3,353,662.0792638234852,662.9593106123793,"[55, 0, 199]",199,a,0.3567636118095834,colour,0.06
102,28,1,2,8,4,354,663.4698379127658,664.3673253737215,"[92, 0, 162]",162,l,0.37415269008488394,colour,0.06
102,28,1,2,8,5,355,664.876061463583,665.7193348732835,"[46, 0, 208]",208,a,0.31986026352387853,colour,0.06
102,28,1,2,8,6,356,666.2354413928115,666.8477490730002,"[93, 0, 161]",161,l,0.08936321048531681,colour,0.06
102,28,1,2,8,7,357,667.360556740372,668.7753078397072,"[78, 0, 176]",176,l,0.8914911591564305,colour,0.06
102,28,1,2,8,8,358,669.2823732358229,670.2233010970522,"[64, 0, 190]",190,a,0.41769037026097067,colour,0.06
102,28,1,2,8,9,359,670.7354163835989,672.1913436639006,"[66, 0, 188]",188,a,0.9325263433565851,colour,0.06
102,28,1,2,8,10,360,672.7041481805209,673.8073865773331,"[98, 0, 156]",156,l,0.5806023083277978,colour,0.06
102,28,1,2,8,11,361,674.313557943562,675.3032813259924,"[68, 0, 186]",186,a,0.46633977466262877,colour,0.06
102,28,1,2,8,12,362,675.8135561712843,676.8713081390306,"[58, 0, 196]",196,a,0.5345538613619283,colour,0.06
102,28,1,2,8,13,363,677.3916626789724,678.5353309190541,"[87, 0, 167]",167,l,0.6202885707898531,colour,0.06
102,28,1,2,8,14,364,679.0480161004234,682.8073121405032,"[51, 0, 203]",203,a,3.2361593736277428,colour,0.06
102,28,1,2,8,15,365,683.3135410082177,684.5033037752146,"[84, 0, 170]",170,l,0.6665504821576178,colour,0.06
102,28,1,2,8,16,366,685.0166726728203,685.7513155433116,"[59, 0, 195]",195,a,0.21135221034637652,colour,0.06
102,28,1,2,8,17,367,686.2666564266838,687.3193545655522,"[56, 0, 198]",198,a,0.5293582479935139,colour,0.06
102,28,1,2,8,18,368,687.8292269004451,688.7433409542427,"[94, 0, 160]",160,l,0.39097187350853346,colour,0.06
102,28,1,2,8,19,369,689.251030989748,690.1913113685441,"[50, 0, 204]",204,a,0.41703934321412817,colour,0.06
102,28,1,2,8,20,370,690.7040946175111,691.5113350780739,"[91, 0, 163]",163,l,0.28385921588051133,colour,0.06
102,28,1,2,8,21,371,692.032297715894,692.9993076191458,"[34, 0, 220]",220,a,0.4436562277842313,colour,0.06
102,28,1,2,8,22,372,693.5166724759038,694.5352809006581,"[75, 0, 179]",179,l,0.49534651535213925,colour,0.06
102,28,1,2,8,23,373,695.0478794359369,695.9352856267942,"[88, 0, 166]",166,l,0.36434356740210205,colour,0.06
102,28,1,2,8,24,374,696.4540124022169,697.3833056656586,"[71, 0, 183]",183,l,0.40577259738347493,colour,0.06
102,28,1,2,8,25,375,697.8915754421323,698.8233137001225,"[76, 0, 178]",178,l,0.40828139492077753,colour,0.06
102,28,1,2,8,26,376,699.3446548237407,700.351278521819,"[95, 0, 159]",159,l,0.48328577645588666,colour,0.06
102,28,1,2,8,27,377,700.860389946698,701.6953043738613,"[72, 0, 182]",182,l,0.3115930470521562,colour,0.06
102,28,1,2,8,28,378,702.2039959591348,703.0952768046409,"[53, 0, 201]",201,a,0.3677629363373853,colour,0.06
102,28,1,2,8,29,379,703.6103108821553,704.5352836575767,"[96, 0, 158]",158,l,0.40161201072623953,colour,0.06
102,28,1,2,8,30,380,705.047845171357,705.9432822712406,"[99, 0, 155]",155,l,0.3722866488387808,colour,0.06
102,28,1,2,8,31,381,706.4540427283209,707.5673466413864,"[77, 0, 177]",177,l,0.589893129945267,colour,0.06
102,28,1,2,8,32,382,708.0790554790874,708.9593125816027,"[65, 0, 189]",189,a,0.3574075496289879,colour,0.06
102,28,1,2,8,33,383,709.4697646574641,710.3512761587335,"[86, 0, 168]",168,l,0.3582369888026733,colour,0.06
102,28,1,2,8,34,384,710.8602962114091,711.7832843979995,"[83, 0, 171]",171,l,0.39968610493815504,colour,0.06
102,28,1,2,8,35,385,712.2978253806068,713.2232565924933,"[82, 0, 172]",172,l,0.402358742285287,colour,0.06
102,28,1,2,8,36,386,713.735262783739,714.599284776079,"[60, 0, 194]",194,a,0.3406261753698345,colour,0.06
102,28,1,2,8,37,387,715.1102791775775,715.9912901008793,"[54, 0, 200]",200,a,0.35764346324140206,colour,0.06
102,28,1,2,8,38,388,716.5009363683057,717.6313162522565,"[69, 0, 185]",185,a,0.6070490515267011,colour,0.06
102,28,1,2,8,39,389,718.1415591959958,719.0952638077433,"[63, 0, 191]",191,a,0.43037259779521264,colour,0.06
102,28,1,2,8,40,390,719.610299460619,720.5432381605206,"[89, 0, 165]",165,l,0.40960904900566675,colour,0.06
102,28,1,2,8,41,391,721.0634221652581,722.0232916447567,"[57, 0, 197]",197,a,0.43666979772388004,colour,0.06
102,28,1,2,8,42,392,722.532116349932,723.4472685811634,"[52, 0, 202]",202,a,0.39175129428622313,colour,0.06
102,28,1,2,8,43,393,723.9539523407293,724.9832591918821,"[80, 0, 174]",174,l,0.5061973600531928,colour,0.06
102,28,1,2,8,44,394,725.500878079125,726.423301884759,"[73, 0, 181]",181,l,0.39903429019614123,colour,0.06
102,28,1,2,8,45,395,726.9384001591243,727.9593216400535,"[62, 0, 192]",192,l,0.49764381771092303,colour,0.06
102,28,1,2,8,46,396,728.4696807683213,729.399337551411,"[42, 0, 212]",212,a,0.40635115682380274,colour,0.06
102,28,1,2,8,47,397,729.9071461345011,730.8072829958983,"[90, 0, 164]",164,l,0.3768544720078353,colour,0.06
102,28,1,2,8,48,398,731.3133247868682,733.2712904159562,"[67, 0, 187]",187,l,1.4347096273559146,colour,0.06
102,28,1,2,8,49,399,733.7821993529215,734.6392888720729,"[97, 0, 157]",157,l,0.3337827113282401,colour,0.06
102,28,1,2,8,50,400,735.1570987745654,736.0232751032454,"[81, 0, 173]",173,l,0.3427828747953754,colour,0.06
102,28,1,2,9,1,401,766.7969102799543,768.255215207173,"[53, 0, 201]",201,a,0.9344349199382123,colour,0.06
102,28,1,2,9,2,402,768.766530592955,769.7912192086515,"[64, 0, 190]",190,l,0.5014779062476009,colour,0.06
102,28,1,2,9,3,403,770.2977005314897,770.8231805802498,"[97, 0, 157]",157,l,0.002466656034812331,colour,0.06
102,28,1,2,9,4,404,771.344646552956,772.4311764370068,"[78, 0, 176]",176,l,0.5633365038083866,colour,0.06
102,28,1,2,9,5,405,772.9383087868919,774.0792323158239,"[73, 0, 181]",181,l,0.6176466533797793,colour,0.06
102,28,1,2,9,6,406,774.5945235746331,776.1591739479045,"[96, 0, 158]",158,l,1.0420398847782053,colour,0.06
102,28,1,2,9,7,407,776.6726200392586,777.8791913558671,"[11, 0, 243]",243,a,0.6831774688616861,colour,0.06
102,28,1,2,9,8,408,778.3914775714802,779.4232719524589,"[94, 0, 160]",160,l,0.5085482254216913,colour,0.06
102,28,1,2,9,9,409,779.9382760977023,781.3991851331084,"[77, 0, 177]",177,l,0.9376329475489911,colour,0.06
102,28,1,2,9,10,410,781.9070141961856,782.9672064322804,"[55, 0, 199]",199,a,0.5369508066796698,colour,0.06
102,28,1,2,9,11,411,783.485112433118,784.5032935352356,"[89, 0, 165]",165,l,0.49484318046597764,colour,0.06
102,28,1,2,9,12,412,785.0163973746239,786.8872222648934,"[87, 0, 167]",167,l,1.3474574302090332,colour,0.06
102,28,1,2,9,13,413,787.4069474393036,788.383227684215,"[66, 0, 188]",188,l,0.4529328709759284,colour,0.06
102,28,1,2,9,14,414,788.8914029377047,789.9512052664941,"[74, 0, 180]",180,l,0.5365230901807081,colour,0.06
102,28,1,2,9,15,415,790.4695311069372,791.6152115050354,"[83, 0, 171]",171,l,0.6223294795490801,colour,0.06
102,28,1,2,9,16,416,792.1256537347508,793.1112114104908,"[63, 0, 191]",191,a,0.46210672036977485,colour,0.06
102,28,1,2,9,17,417,793.6257354577538,794.7352399406955,"[79, 0, 175]",175,l,0.5862248505000025,colour,0.06
102,28,1,2,9,18,418,795.2507115808257,796.2951940970379,"[81, 0, 173]",173,l,0.5210674007830676,colour,0.06
102,28,1,2,9,19,419,796.8132103746757,797.9832198072982,"[67, 0, 187]",187,a,0.6467258616758045,colour,0.06
102,28,1,2,9,20,420,798.5007406269724,799.5752188305487,"[80, 0, 174]",174,l,0.5512214141781442,colour,0.06
102,28,1,2,9,21,421,800.0944339747075,801.1991894654057,"[60, 0, 194]",194,a,0.5814014213683549,colour,0.06
102,28,1,2,9,22,422,801.7194207316497,803.0711954991275,"[59, 0, 195]",195,a,0.8283990366617218,colour,0.06
102,28,1,2,9,23,423,803.5787547778455,804.7431802651845,"[75, 0, 179]",179,l,0.6410064334631898,colour,0.06
102,28,1,2,9,24,424,805.2507856238517,806.4152146558044,"[82, 0, 172]",172,l,0.6411702733312268,colour,0.06
102,28,1,2,9,25,425,806.9225490485551,808.0311791939312,"[84, 0, 170]",170,l,0.5852087284147274,colour,0.06
102,28,1,2,9,26,426,808.5475527408707,809.6471618489595,"[72, 0, 182]",182,l,0.5765055246884003,colour,0.06
102,28,1,2,9,27,427,810.1569495070144,811.2392368844594,"[98, 0, 156]",156,l,0.5588691112934612,colour,0.06
102,28,1,2,9,28,428,811.7507153223851,813.1593661446241,"[51, 0, 203]",203,a,0.8853353498270735,colour,0.06
102,28,1,2,9,29,429,813.6725058239826,814.8872163571941,"[86, 0, 168]",168,l,0.6910764395433944,colour,0.06
102,28,1,2,9,30,430,815.4070203007723,816.5112279520254,"[57, 0, 197]",197,a,0.5807874158490449,colour,0.06
102,28,1,2,9,31,431,817.0320803130453,818.1911979409633,"[52, 0, 202]",202,a,0.6357832509092987,colour,0.06
102,28,1,2,9,32,432,818.7038165623962,819.9112043212808,"[70, 0, 184]",184,l,0.6840285695798229,colour,0.06
102,28,1,2,9,33,433,820.4227032391937,821.4311563508527,"[93, 0, 161]",161,l,0.4851270054059569,colour,0.06
102,28,1,2,9,34,434,821.9382481346547,823.0871635818621,"[58, 0, 196]",196,a,0.6256208486156538,colour,0.06
102,28,1,2,9,35,435,823.5945125469298,824.6951279309578,"[88, 0, 166]",166,l,0.5772116901353002,colour,0.06
102,28,1,2,9,36,436,825.2038514177548,826.2871722464915,"[90, 0, 164]",164,l,0.5599663655739278,colour,0.06
102,28,1,2,9,37,437,826.7976081746747,828.0951338386512,"[69, 0, 185]",185,a,0.7743846652447246,colour,0.06
102,28,1,2,9,38,438,828.610175005364,829.7991796192655,"[26, 0, 228]",228,a,0.6654705570545048,colour,0.06
102,28,1,2,9,39,439,830.3132629531028,831.5272098193527,"[99, 0, 155]",155,l,0.6906703845597804,colour,0.06
102,28,1,2,9,40,440,832.0475820823922,833.2551903949061,"[61, 0, 193]",193,a,0.6845504152297508,colour,0.06
102,28,1,2,9,41,441,833.7663935346354,835.3911695840943,"[76, 0, 178]",178,l,1.1015810938260984,colour,0.06
102,28,1,2,9,42,442,835.9069799316057,837.215131160483,"[91, 0, 163]",163,l,0.7848184272588696,colour,0.06
102,28,1,2,9,43,443,837.7350745254662,840.159142046381,"[68, 0, 186]",186,a,1.9006405901454855,colour,0.06
102,28,1,2,9,44,444,840.6725298485835,841.6471279782127,"[92, 0, 162]",162,l,0.4512046757445205,colour,0.06
102,28,1,2,9,45,445,842.157002676191,843.2551277734165,"[50, 0, 204]",204,a,0.5748029294190928,colour,0.06
102,28,1,2,9,46,446,843.7663281562272,845.1031135476951,"[62, 0, 192]",192,a,0.8134262021631002,colour,0.06
102,28,1,2,9,47,447,845.6100340085977,846.8472386488866,"[85, 0, 169]",169,l,0.7138769586454146,colour,0.06
102,28,1,2,9,48,448,847.3601432023279,848.5192572856613,"[54, 0, 200]",200,a,0.6359108569449745,colour,0.06
102,28,1,2,9,49,449,849.0318518824934,850.2311665908492,"[29, 0, 225]",225,a,0.6762961956555955,colour,0.06
102,28,1,2,9,50,450,850.7504699564597,852.1751755075238,"[56, 0, 198]",198,a,0.9013124910125043,colour,0.06
102,28,1,2,10,1,451,860.9684962771717,862.6231825494906,"[88, 0, 166]",166,l,1.1306953543971758,colour,0.06
102,28,1,2,10,2,452,863.1411551102356,866.5831760904111,"[67, 0, 187]",187,l,2.9186098032223526,colour,0.06
102,28,1,2,10,3,453,867.0944150701107,868.1831075612572,"[78, 0, 176]",176,l,0.5653679602546617,colour,0.06
102,28,1,2,10,4,454,868.703696045588,869.8631578947534,"[79, 0, 175]",175,l,0.6360487029887736,colour,0.06
102,28,1,2,10,5,455,870.3757379192684,871.5036767471465,"[52, 0, 202]",202,a,0.6047052753565367,colour,0.06
102,28,1,2,10,6,456,872.0163292392972,873.151087112783,"[53, 0, 201]",201,a,0.6115050225344021,colour,0.06
102,28,1,2,10,7,457,873.672427842539,874.8551309241739,"[69, 0, 185]",185,l,0.6593112031405326,colour,0.06
102,28,1,2,10,8,458,875.3758273222775,876.4870978096151,"[80, 0, 174]",174,l,0.5881200362928212,colour,0.06
102,28,1,2,10,9,459,877.0005793471355,877.9912664701405,"[96, 0, 158]",158,l,0.46736141058499925,colour,0.06
102,28,1,2,10,10,460,878.5005570948415,880.8071163991408,"[66, 0, 188]",188,a,1.7830933827790432,colour,0.06
102,28,1,2,10,11,461,881.3287564516941,882.4471323105099,"[89, 0, 165]",165,l,0.5952096539258491,colour,0.06
102,28,1,2,10,12,462,882.9536467163998,884.1110838044842,"[99, 0, 155]",155,l,0.634370920015499,colour,0.06
102,28,1,2,10,13,463,884.6256247870915,885.5990724932344,"[21, 0, 233]",233,a,0.45008615378174,colour,0.06
102,28,1,2,10,14,464,886.1098900579673,887.1991382654523,"[63, 0, 191]",191,a,0.5658709012786858,colour,0.06
102,28,1,2,10,15,465,887.7193439317343,888.8151209205098,"[61, 0, 193]",193,a,0.5724315840925556,colour,0.06
102,28,1,2,10,16,466,889.328617030289,890.4951291125035,"[91, 0, 163]",163,l,0.6438177045492921,colour,0.06
102,28,1,2,10,17,467,891.0161996640381,892.415098077443,"[94, 0, 160]",160,l,0.8755782148218714,colour,0.06
102,28,1,2,10,18,468,892.9224029317847,894.1031194553943,"[92, 0, 162]",162,l,0.6573742696782574,colour,0.06
102,28,1,2,10,19,469,894.6099304271338,895.8790759590629,"[86, 0, 168]",168,l,0.7458406933292281,colour,0.06
102,28,1,2,10,20,470,896.3912105440395,897.6070648053428,"[75, 0, 179]",179,a,0.6925994411285501,colour,0.06
102,28,1,2,10,21,471,898.1255399133079,899.1670784324233,"[56, 0, 198]",198,a,0.5182104436098598,colour,0.06
102,28,1,2,10,22,472,899.6880024733546,900.8311705293017,"[29, 0, 225]",225,a,0.6198100481706206,colour,0.06
102,28,1,2,10,23,473,901.3442223810707,902.3991252685664,"[59, 0, 195]",195,a,0.5316086827369872,colour,0.06
102,28,1,2,10,24,474,902.9067570148909,903.9351465992513,"[60, 0, 194]",194,a,0.5051020749961026,colour,0.06
102,28,1,2,10,25,475,904.4536071348994,905.6950916971546,"[54, 0, 200]",200,a,0.718212019011844,colour,0.06
102,28,1,2,10,26,476,906.2036265318166,907.4150768097606,"[76, 0, 178]",178,l,0.6881946700741537,colour,0.06
102,28,1,2,10,27,477,907.9223025011306,909.1591357448488,"[97, 0, 157]",157,l,0.713463420572225,colour,0.06
102,28,1,2,10,28,478,909.6723656149115,910.8311323262751,"[68, 0, 186]",186,l,0.6353917682426982,colour,0.06
102,28,1,2,10,29,479,911.3441633042239,912.359089271049,"[57, 0, 197]",197,a,0.49159001442603767,colour,0.06
102,28,1,2,10,30,480,912.8754443072539,914.0870800865814,"[58, 0, 196]",196,a,0.6883191253582481,colour,0.06
102,28,1,2,10,31,481,914.5942222826125,915.8231490725884,"[98, 0, 156]",156,l,0.7055963514139876,colour,0.06
102,28,1,2,10,32,482,916.3441703934222,917.4872045418306,"[74, 0, 180]",180,l,0.6196966206189245,colour,0.06
102,28,1,2,10,33,483,918.0005167256459,919.231080732483,"[85, 0, 169]",169,l,0.7073288789542858,colour,0.06
102,28,1,2,10,34,484,919.7504502641677,920.9271011179371,"[71, 0, 183]",183,l,0.6533208090404514,colour,0.06
102,28,1,2,10,35,485,921.4379072611337,922.5750825599243,"[81, 0, 173]",173,l,0.6138421033101622,colour,0.06
102,28,1,2,10,36,486,923.0941736426612,924.3030615600583,"[84, 0, 170]",170,l,0.6856126172351651,colour,0.06
102,28,1,2,10,37,487,924.8129051442083,926.0311161786085,"[95, 0, 159]",159,l,0.6948837465897668,colour,0.06
102,28,1,2,10,38,488,926.5472597196349,927.6470578736626,"[87, 0, 167]",167,l,0.5765772045997437,colour,0.06
102,28,1,2,10,39,489,928.1567005964753,929.1510453651135,"[51, 0, 203]",203,a,0.4709465885825921,colour,0.06
102,28,1,2,10,40,490,929.6723266241606,930.8231089003384,"[82, 0, 172]",172,l,0.6273667669156566,colour,0.06
102,28,1,2,10,41,491,931.3441172242456,932.4870560619747,"[83, 0, 171]",171,l,0.6195327807508875,colour,0.06
102,28,1,2,10,42,492,933.0003670642618,934.0950790940842,"[8, 0, 246]",246,a,0.5713622928305995,colour,0.06
102,28,1,2,10,43,493,934.6097539842303,935.7030966123275,"[72, 0, 182]",182,l,0.5699562634108588,colour,0.06
102,28,1,2,10,44,494,936.2191539011546,937.3350438055058,"[64, 0, 190]",190,l,0.5925047212222125,colour,0.06
102,28,1,2,10,45,495,937.8441867380461,938.9990279886406,"[77, 0, 177]",177,l,0.6316360549826641,colour,0.06
102,28,1,2,10,46,496,939.5159718242649,940.6230691219098,"[62, 0, 192]",192,a,0.5836597330053337,colour,0.06
102,28,1,2,10,47,497,941.1409975719289,942.2631059070991,"[50, 0, 204]",204,a,0.5991166039602831,colour,0.06
102,28,1,2,10,48,498,942.7816176427295,944.0870324312418,"[65, 0, 189]",189,a,0.7805704068450723,colour,0.06
102,28,1,2,10,49,499,944.5941037350276,945.783053210529,"[93, 0, 161]",161,l,0.6657462491129991,colour,0.06
102,28,1,2,10,50,500,946.2971948335471,947.391033707303,"[90, 0, 164]",164,l,0.5706911796296481,colour,0.06
102,28,1,2,11,1,501,953.8276779050648,954.935011116293,"[59, 0, 195]",195,a,0.5832190195797011,colour,0.06
102,28,1,2,11,2,502,955.4535000088508,956.6310291386908,"[57, 0, 197]",197,a,0.654229017382022,colour,0.06
102,28,1,2,11,3,503,957.1410117503838,958.231031501753,"[65, 0, 189]",189,a,0.5667491773492657,colour,0.06
102,28,1,2,11,4,504,958.7502533412771,959.9910435534257,"[51, 0, 203]",203,a,0.7174369305139408,colour,0.06
102,28,1,2,11,5,505,960.5003290581517,961.7190008920734,"[95, 0, 159]",159,l,0.6954800290695857,colour,0.06
102,28,1,2,11,6,506,962.2346584274201,963.4390218446497,"[85, 0, 169]",169,l,0.6815256797126494,colour,0.06
102,28,1,2,11,7,507,963.9534143474011,965.4230254050344,"[66, 0, 188]",188,l,0.9464117696916219,colour,0.06
102,28,1,2,11,8,508,965.9377912735508,967.079038149881,"[64, 0, 190]",190,a,0.6178644501196686,colour,0.06
102,28,1,2,11,9,509,967.5939832182485,968.6630870024965,"[70, 0, 184]",184,l,0.545746958028758,colour,0.06
102,28,1,2,11,10,510,969.1721074490051,970.2550765734632,"[80, 0, 174]",174,l,0.5595614921185188,colour,0.06
102,28,1,2,11,11,511,970.7659165874065,971.8390033339092,"[62, 0, 192]",192,a,0.5498776124441065,colour,0.06
102,28,1,2,11,12,512,972.359641442803,973.4790452391026,"[17, 0, 237]",237,a,0.596110379206948,colour,0.06
102,28,1,2,11,13,513,974.0003450088843,975.1590380711132,"[60, 0, 194]",194,a,0.6353539590490982,colour,0.06
102,28,1,2,11,14,514,975.6721769627766,976.8709973947261,"[53, 0, 201]",201,a,0.6755573409900535,colour,0.06
102,28,1,2,11,15,515,977.3909104335762,978.487017465086,"[58, 0, 196]",196,a,0.5727761991147418,colour,0.06
102,28,1,2,11,16,516,979.0002658458834,980.1030324154708,"[35, 0, 219]",219,a,0.579441644862527,colour,0.06
102,28,1,2,11,17,517,980.6095208275656,981.7030804646492,"[81, 0, 173]",173,l,0.5701366447901819,colour,0.06
102,28,1,2,11,18,518,982.2190081782173,983.4149944960081,"[97, 0, 157]",157,l,0.6727377991483081,colour,0.06
102,28,1,2,11,19,519,983.922125664365,985.0390667430765,"[54, 0, 200]",200,a,0.5937047692714259,colour,0.06
102,28,1,2,11,20,520,985.5471545628097,987.1990000256046,"[77, 0, 177]",177,l,1.128772205527639,colour,0.06
102,28,1,2,11,21,521,987.718909519841,988.8070214823238,"[56, 0, 198]",198,a,0.5647318993578665,colour,0.06
102,28,1,2,11,22,522,989.3283173136588,990.3670571647526,"[73, 0, 181]",181,l,0.5155086616578046,colour,0.06
102,28,1,2,11,23,523,990.8751879136544,992.1430298160994,"[91, 0, 163]",163,l,0.7445055561838672,colour,0.06
102,28,1,2,11,24,524,992.6564345536754,993.7270026564947,"[88, 0, 166]",166,l,0.5471545628097374,colour,0.06
102,28,1,2,11,25,525,994.2345383044449,995.5750148184597,"[86, 0, 168]",168,l,0.8175446473469492,colour,0.06
102,28,1,2,11,26,526,996.0939133106149,997.1909884150373,"[55, 0, 199]",199,a,0.5736639274691697,colour,0.06
102,28,1,2,11,27,527,997.7032478491019,998.7830012228806,"[67, 0, 187]",187,a,0.5563961536972784,colour,0.06
102,28,1,2,11,28,528,999.2970585628937,1000.4550017427828,"[99, 0, 155]",155,l,0.6347895780636463,colour,0.06
102,28,1,2,11,29,529,1000.9688928798714,1001.9750045784458,"[50, 0, 204]",204,a,0.4827828354027588,colour,0.06
102,28,1,2,11,30,530,1002.4845508090511,1003.5989685179375,"[90, 0, 164]",164,l,0.5911116887582466,colour,0.06
102,28,1,2,11,31,531,1004.1095300829329,1005.3110357552941,"[61, 0, 193]",193,a,0.6781326984637417,colour,0.06
102,28,1,2,11,32,532,1005.8282954552269,1006.9430097299628,"[78, 0, 176]",176,l,0.5914232207578607,colour,0.06
102,28,1,2,11,33,533,1007.4532550367876,1008.7349831532629,"[79, 0, 175]",175,l,0.7584004348318558,colour,0.06
102,28,1,2,11,34,534,1009.2501330214145,1010.5270404656767,"[83, 0, 171]",171,l,0.7536006364389323,colour,0.06
102,28,1,2,11,35,535,1011.0470125814027,1012.4390265708207,"[68, 0, 186]",186,a,0.8688434522191528,colour,0.06
102,28,1,2,11,36,536,1012.9532434183348,1014.1430400560785,"[82, 0, 172]",172,l,0.66677458040067,colour,0.06
102,28,1,2,11,37,537,1014.6563238830131,1015.8229738112423,"[71, 0, 183]",183,l,0.6440303812851198,colour,0.06
102,28,1,2,11,38,538,1016.343840744521,1017.4949916603218,"[69, 0, 185]",185,a,0.627793695719447,colour,0.06
102,28,1,2,11,39,539,1018.0156939660956,1019.1269987180422,"[96, 0, 158]",158,l,0.5879380795813631,colour,0.06
102,28,1,2,11,40,540,1019.6406681199733,1020.6629656979931,"[87, 0, 167]",167,l,0.4988930964609608,colour,0.06
102,28,1,2,11,41,541,1021.1718931969081,1022.9590160157531,"[74, 0, 180]",180,l,1.2637978941202164,colour,0.06
102,28,1,2,11,42,542,1023.4697012483084,1024.5349697624915,"[7, 0, 247]",247,a,0.5427493978932034,colour,0.06
102,28,1,2,11,43,543,1025.0468963969033,1026.1509650205844,"[75, 0, 179]",179,l,0.5807700866134837,colour,0.06
102,28,1,2,11,44,544,1026.6720237567788,1027.9430038222636,"[98, 0, 156]",156,l,0.7477339098986704,colour,0.06
102,28,1,2,11,45,545,1028.4532132891472,1029.5990197178908,"[92, 0, 162]",162,l,0.6224921378598083,colour,0.06
102,28,1,2,11,46,546,1030.1093753015448,1031.2069852485147,"[63, 0, 191]",191,a,0.5741070039512124,colour,0.06
102,28,1,2,11,47,547,1031.718805150711,1032.7589978988399,"[89, 0, 165]",165,l,0.5168465557217132,colour,0.06
102,28,1,2,11,48,548,1033.2656300646195,1034.4869867451198,"[94, 0, 160]",160,l,0.6979281743406318,colour,0.06
102,28,1,2,11,49,549,1035.0000334768847,1036.198962216411,"[93, 0, 161]",161,l,0.6755569471570197,colour,0.06
102,28,1,2,11,50,550,1036.7188409906812,1037.9029694001656,"[52, 0, 202]",202,a,0.6607778847683221,colour,0.06
102,28,1,2,12,1,551,1046.999189071561,1048.2949428234424,"[80, 0, 174]",174,l,0.7716836709587369,colour,0.06
102,28,1,2,12,2,552,1048.8125183876837,1049.8389942754584,"[56, 0, 198]",198,a,0.5031037015723996,colour,0.06
102,28,1,2,12,3,553,1050.3593117939017,1051.598925982602,"[99, 0, 155]",155,l,0.7164054484746885,colour,0.06
102,28,1,2,12,4,554,1052.1093544277246,1053.0789314176654,"[85, 0, 169]",169,l,0.4462733328982722,colour,0.06
102,28,1,2,12,5,555,1053.5937784184352,1054.6710418992734,"[88, 0, 166]",166,l,0.553995663736714,colour,0.06
102,28,1,2,12,6,556,1055.1873744862678,1056.4229222174326,"[52, 0, 202]",202,a,0.7121515203325544,colour,0.06
102,28,1,2,12,7,557,1056.9374120000866,1058.1349146240973,"[90, 0, 164]",164,l,0.6740804193832446,colour,0.06
102,28,1,2,12,8,558,1058.6562742584501,1059.8069592546963,"[62, 0, 192]",192,a,0.6273466807615478,colour,0.06
102,28,1,2,12,9,559,1060.328055012389,1061.9109435953724,"[79, 0, 175]",175,l,1.0594683475792408,colour,0.06
102,28,1,2,12,10,560,1062.4218214185094,1064.1429561669356,"[70, 0, 184]",184,l,1.1979429435741622,colour,0.06
102,28,1,2,12,11,561,1064.6562348738662,1066.078968833026,"[78, 0, 176]",176,l,0.8994476313237101,colour,0.06
102,28,1,2,12,12,562,1066.5936614462407,1068.0229143405159,"[82, 0, 172]",172,l,0.9059291510784533,colour,0.06
102,28,1,2,12,13,563,1068.531260523072,1069.694934946514,"[94, 0, 160]",160,l,0.6407177445071284,colour,0.06
102,28,1,2,12,14,564,1070.2035320088326,1071.302965067851,"[76, 0, 178]",178,a,0.5767993336194195,colour,0.06
102,28,1,2,12,15,565,1071.8124033847125,1073.1349906363175,"[75, 0, 179]",179,l,0.7998617601406295,colour,0.06
102,28,1,2,12,16,566,1073.6561781600758,1074.8789436268853,"[54, 0, 200]",200,a,0.6994763820548542,colour,0.06
102,28,1,2,12,17,567,1075.3904996524216,1076.8309511572297,"[59, 0, 195]",195,a,0.9170781370485201,colour,0.06
102,28,1,2,12,18,568,1077.3436580000853,1078.7829212722136,"[83, 0, 171]",171,l,0.9159135351073928,colour,0.06
102,28,1,2,12,19,569,1079.2967525447311,1080.702984366304,"[84, 0, 170]",170,l,0.8832786872517318,colour,0.06
102,28,1,2,12,20,570,1081.218634024728,1082.454938333598,"[81, 0, 173]",173,l,0.7129506334022153,colour,0.06
102,28,1,2,12,21,571,1082.968607341667,1084.2389359862718,"[58, 0, 196]",196,a,0.7470383782929275,colour,0.06
102,28,1,2,12,22,572,1084.7498661908903,1085.9989429179695,"[92, 0, 162]",162,l,0.7256986331485678,colour,0.06
102,28,1,2,12,23,573,1086.5154929078126,1087.7588785635598,"[96, 0, 158]",158,l,0.7200410387304146,colour,0.06
102,28,1,2,12,24,574,1088.2654973385797,1089.3589065266133,"[60, 0, 194]",194,a,0.5700645710167009,colour,0.06
102,28,1,2,12,25,575,1089.8748496001645,1091.0868949790602,"[63, 0, 191]",191,a,0.6886814634490293,colour,0.06
102,28,1,2,12,26,576,1091.5936456924246,1092.8709493455244,"[36, 0, 218]",218,a,0.7539850299071986,colour,0.06
102,28,1,2,12,27,577,1093.390461055562,1094.4149200591492,"[77, 0, 177]",177,l,0.5010958758357447,colour,0.06
102,28,1,2,12,28,578,1094.921697554033,1096.062909378059,"[86, 0, 168]",168,l,0.6179251023568213,colour,0.06
102,28,1,2,12,29,579,1096.5779261263378,1097.6868737113837,"[38, 0, 216]",216,a,0.5855852449603844,colour,0.06
102,28,1,2,12,30,580,1098.2029782616883,1099.2789144823037,"[93, 0, 161]",161,l,0.5526309881825,colour,0.06
102,28,1,2,12,31,581,1099.7966613694443,1100.8708910563437,"[87, 0, 167]",167,l,0.5509981036302634,colour,0.06
102,28,1,2,12,32,582,1101.3903858310077,1102.414918483788,"[91, 0, 163]",163,l,0.5012274203472771,colour,0.06
102,28,1,2,12,33,583,1102.9216995232564,1104.2388977832452,"[73, 0, 181]",181,l,0.793950922874501,colour,0.06
102,28,1,2,12,34,584,1104.749739766412,1105.8949184050143,"[55, 0, 199]",199,a,0.6217710062628612,colour,0.06
102,28,1,2,12,35,585,1106.4060825540219,1107.606916719349,"[69, 0, 185]",185,a,0.6775541390234139,colour,0.06
102,28,1,2,12,36,586,1108.1248719508876,1109.2469436583924,"[66, 0, 188]",188,a,0.5986014536756556,colour,0.06
102,28,1,2,12,37,587,1109.765575123136,1110.950926423713,"[53, 0, 201]",201,a,0.661996049748268,colour,0.06
102,28,1,2,12,38,588,1111.468649680115,1112.974880517053,"[98, 0, 156]",156,l,0.9828082384774461,colour,0.06
102,28,1,2,12,39,589,1113.4842644831806,1115.4548705921334,"[68, 0, 186]",186,l,1.4472134427342098,colour,0.06
102,28,1,2,12,40,590,1115.9685789847863,1116.9909127966384,"[74, 0, 180]",180,l,0.49896635179175064,colour,0.06
102,28,1,2,12,41,591,1117.4998564432317,1118.494892805029,"[95, 0, 159]",159,l,0.4716968647844624,colour,0.06
102,28,1,2,12,42,592,1119.0155439108494,1120.1348949318053,"[67, 0, 187]",187,l,0.5960351546818856,colour,0.06
102,28,1,2,12,43,593,1120.6560978155467,1121.6148751607398,"[61, 0, 193]",193,a,0.435332297522109,colour,0.06
102,28,1,2,12,44,594,1122.1248530462908,1123.1029670370917,"[71, 0, 183]",183,l,0.4546965123154223,colour,0.06
102,28,1,2,12,45,595,1123.609199843253,1124.622921035887,"[51, 0, 203]",203,a,0.49068574456032366,colour,0.06
102,28,1,2,12,46,596,1125.1405434677727,1126.1989094410674,"[89, 0, 165]",165,l,0.5350012701528613,colour,0.06
102,28,1,2,12,47,597,1126.7185786894115,1127.9189532367163,"[33, 0, 221]",221,a,0.6768936596636195,colour,0.06
102,28,1,2,12,48,598,1128.4373838401225,1130.006871033227,"[64, 0, 190]",190,a,1.0461768406676129,colour,0.06
102,28,1,2,12,49,599,1130.5158989627962,1131.7668673310836,"[65, 0, 189]",189,a,0.7185578155622352,colour,0.06
102,28,1,2,12,50,600,1132.274940578529,1133.3588427235954,"[57, 0, 197]",197,a,0.5605212942464277,colour,0.06
102,28,1,2,13,1,601,1139.649099570117,1140.7989047149313,"[50, 0, 204]",204,a,0.6256539316673297,colour,0.06
102,28,1,2,13,2,602,1141.3061170155124,1142.3429219023674,"[76, 0, 178]",178,l,0.5135559743503109,colour,0.06
102,28,1,2,13,3,603,1142.8529954924306,1143.8868863144598,"[90, 0, 164]",164,l,0.5106493925850373,colour,0.06
102,28,1,2,13,4,604,1144.3998530955287,1145.4868398406543,"[8, 0, 246]",246,a,0.5636980542039964,colour,0.06
102,28,1,2,13,5,605,1145.9936051263066,1147.1668244019093,"[14, 0, 240]",240,a,0.649926252401201,colour,0.06
102,28,1,2,13,6,606,1147.681049520208,1148.894812066661,"[63, 0, 191]",191,l,0.6905955538968556,colour,0.06
102,28,1,2,13,7,607,1149.4154356032668,1150.4948396358523,"[64, 0, 190]",190,l,0.5560121540911496,colour,0.06
102,28,1,2,13,8,608,1151.0091982678568,1152.3188665906491,"[71, 0, 183]",183,l,0.7863296134455595,colour,0.06
102,28,1,2,13,9,609,1152.837281046377,1153.9508129961323,"[42, 0, 212]",212,a,0.5901948158279993,colour,0.06
102,28,1,2,13,10,610,1154.4622678033193,1155.5989196810697,"[98, 0, 156]",156,l,0.6132603930891491,colour,0.06
102,28,1,2,13,11,611,1156.1184097295627,1157.2708406441088,"[85, 0, 169]",169,l,0.6288980392564554,colour,0.06
102,28,1,2,13,12,612,1157.7904193078866,1158.8868611083308,"[73, 0, 181]",181,l,0.5730897003377322,colour,0.06
102,28,1,2,13,13,613,1159.3998286770948,1160.4628274581337,"[78, 0, 176]",176,l,0.5397238747391384,colour,0.06
102,28,1,2,13,14,614,1160.9778938310046,1162.0789377191977,"[83, 0, 171]",171,l,0.5776370435487479,colour,0.06
102,28,1,2,13,15,615,1162.5872023756674,1163.6388442202297,"[77, 0, 177]",177,l,0.5283236152026802,colour,0.06
102,28,1,2,13,16,616,1164.1497523694707,1165.182803512318,"[51, 0, 203]",203,a,0.5096683227748144,colour,0.06
102,28,1,2,13,17,617,1165.6966781078954,1167.0788396516,"[60, 0, 194]",194,a,0.8588905758515466,colour,0.06
102,28,1,2,13,18,618,1167.5872330956627,1168.6548434167635,"[74, 0, 180]",180,l,0.5441562149790116,colour,0.06
102,28,1,2,13,19,619,1169.165355357196,1170.3348571225943,"[54, 0, 200]",200,a,0.6460929515305907,colour,0.06
102,28,1,2,13,20,620,1170.8529702863016,1171.8788219285489,"[53, 0, 201]",201,a,0.5025668897724245,colour,0.06
102,28,1,2,13,21,621,1172.3996991018357,1173.4868327514268,"[88, 0, 166]",166,l,0.5637807618186343,colour,0.06
102,28,1,2,13,22,622,1173.9934893356403,1175.2308215819648,"[81, 0, 173]",173,l,0.7139726631576195,colour,0.06
102,28,1,2,13,23,623,1175.7435587509535,1176.9348149810976,"[62, 0, 192]",192,a,0.6681349236750975,colour,0.06
102,28,1,2,13,24,624,1177.4465616279922,1178.6548083644884,"[69, 0, 185]",185,l,0.6848942425567657,colour,0.06
102,28,1,2,13,25,625,1179.1653868648573,1180.478818383941,"[96, 0, 158]",158,l,0.7901609450636897,colour,0.06
102,28,1,2,13,26,626,1180.9934720064339,1182.3988909303152,"[72, 0, 182]",182,l,0.882104239135515,colour,0.06
102,28,1,2,13,27,627,1182.91531449568,1184.3187740368885,"[91, 0, 163]",163,l,0.8800999580416828,colour,0.06
102,28,1,2,13,28,628,1184.8372322095092,1186.398873994971,"[70, 0, 184]",184,l,1.0383700299134944,colour,0.06
102,28,1,2,13,29,629,1186.9153302495251,1188.0628136735468,"[75, 0, 179]",179,l,0.6241171454894356,colour,0.06
102,28,1,2,13,30,630,1188.5714776896348,1189.950836626871,"[67, 0, 187]",187,l,0.8559772987209726,colour,0.06
102,28,1,2,13,31,631,1190.4631535624503,1191.7268171551405,"[84, 0, 170]",170,l,0.7409660642733797,colour,0.06
102,28,1,2,13,32,632,1192.2434325233917,1193.3668563034153,"[66, 0, 188]",188,a,0.6006344855413772,colour,0.06
102,28,1,2,13,33,633,1193.8840592895576,1195.0307979512145,"[82, 0, 172]",172,l,0.623383804660989,colour,0.06
102,28,1,2,13,34,634,1195.5403422125964,1196.574802141724,"[59, 0, 195]",195,a,0.5112011705059558,colour,0.06
102,28,1,2,13,35,635,1197.0870871757797,1198.2788128700922,"[55, 0, 199]",199,a,0.6683511449955404,colour,0.06
102,28,1,2,13,36,636,1198.7903082433913,1200.022795792931,"[52, 0, 202]",202,a,0.7092201263003517,colour,0.06
102,28,1,2,13,37,637,1200.540225240402,1201.7988251580682,"[56, 0, 198]",198,a,0.7353013805986848,colour,0.06
102,28,1,2,13,38,638,1202.306104412448,1203.7107911770581,"[58, 0, 196]",196,a,0.881504412041977,colour,0.06
102,28,1,2,13,39,639,1204.2278311110567,1205.4467920277675,"[99, 0, 155]",155,l,0.6957305149699096,colour,0.06
102,28,1,2,13,40,640,1205.9621372434485,1207.0787872701185,"[93, 0, 161]",161,l,0.5933526711596642,colour,0.06
102,28,1,2,13,41,641,1207.5870771327172,1208.8227855529403,"[89, 0, 165]",165,l,0.71246817233623,colour,0.06
102,28,1,2,13,42,642,1209.3370764435094,1210.5107549432723,"[97, 0, 157]",157,l,0.6502956797194201,colour,0.06
102,28,1,2,13,43,643,1211.0246382034384,1213.5188138153171,"[68, 0, 186]",186,l,1.9708467487071175,colour,0.06
102,28,1,2,13,44,644,1214.0401466681797,1215.2548083644942,"[86, 0, 168]",168,l,0.6913489808212034,colour,0.06
102,28,1,2,13,45,645,1215.7746162465482,1216.9748175017303,"[92, 0, 162]",162,l,0.6768523058854043,colour,0.06
102,28,1,2,13,46,646,1217.4932843389106,1218.4707732964598,"[79, 0, 175]",175,l,0.45416166973882355,colour,0.06
102,28,1,2,13,47,647,1218.977672095847,1220.0787837255048,"[95, 0, 159]",159,l,0.5776795788842719,colour,0.06
102,28,1,2,13,48,648,1220.587090917339,1221.726834878209,"[87, 0, 167]",167,l,0.6163780761999078,colour,0.06
102,28,1,2,13,49,649,1222.2433927449747,1223.4147566131724,"[94, 0, 160]",160,l,0.6486048998485785,colour,0.06
102,28,1,2,13,50,650,1223.9308383204043,1224.934816162655,"[80, 0, 174]",174,l,0.48088292343891226,colour,0.06
102,28,1,2,14,1,651,1234.5081390196865,1235.654746924556,"[95, 0, 159]",159,l,0.6225023778388277,colour,0.06
102,28,1,2,14,2,652,1236.1651103851327,1237.1987747458334,"[61, 0, 193]",193,a,0.5105170604365412,colour,0.06
102,28,1,2,14,3,653,1237.711979409738,1238.3507641592587,"[90, 0, 164]",164,l,0.1154940893757157,colour,0.06
102,28,1,2,14,4,654,1238.8682448066538,1239.462724664394,"[94, 0, 160]",160,l,0.0710698623151984,colour,0.06
102,28,1,2,14,5,655,1239.9776681573712,1241.070745333418,"[59, 0, 195]",195,a,0.5698621342889965,colour,0.06
102,28,1,2,14,6,656,1241.5870613789011,1242.5747852063796,"[86, 0, 168]",168,l,0.4644737334456295,colour,0.06
102,28,1,2,14,7,657,1243.0869910774345,1244.2067296426103,"[91, 0, 163]",163,l,0.5964715357986279,colour,0.06
102,28,1,2,14,8,658,1244.7276245389658,1245.9667704450258,"[97, 0, 157]",157,l,0.7158591843908653,colour,0.06
102,28,1,2,14,9,659,1246.4775911605393,1247.5267864351626,"[63, 0, 191]",191,a,0.5259384852251969,colour,0.06
102,28,1,2,14,10,660,1248.0400974374497,1249.3028626679443,"[72, 0, 182]",182,a,0.7394005273527,colour,0.06
102,28,1,2,14,11,661,1249.821365345124,1250.9987617489242,"[55, 0, 199]",199,a,0.6539950729929842,colour,0.06
102,28,1,2,14,12,662,1251.5086360530404,1253.7827956354013,"[99, 0, 155]",155,l,1.7507393469568342,colour,0.06
102,28,1,2,14,13,663,1254.2901079728326,1255.3508047253708,"[64, 0, 190]",190,a,0.537378917040769,colour,0.06
102,28,1,2,14,14,664,1255.8681833667215,1256.8627561720496,"[92, 0, 162]",162,l,0.4711880160612054,colour,0.06
102,28,1,2,14,15,665,1257.3838590189698,1258.390755258326,"[56, 0, 198]",198,a,0.48361700074747205,colour,0.06
102,28,1,2,14,16,666,1258.899399188289,1259.9267466567399,"[81, 0, 173]",173,l,0.503992217592895,colour,0.06
102,28,1,2,14,17,667,1260.446316655929,1261.422749319143,"[62, 0, 192]",192,a,0.4531183723011054,colour,0.06
102,28,1,2,14,18,668,1261.930722529767,1263.1667869865487,"[66, 0, 188]",188,a,0.712884861161001,colour,0.06
102,28,1,2,14,19,669,1263.6807001790148,1264.7347216396593,"[70, 0, 184]",184,a,0.5308383204101119,colour,0.06
102,28,1,2,14,20,670,1265.2431261113961,1266.4868008499325,"[23, 0, 231]",231,a,0.7208799302170519,colour,0.06
102,28,1,2,14,21,671,1266.9931084867858,1268.4547650414752,"[65, 0, 189]",189,a,0.9382950022991281,colour,0.06
102,28,1,2,14,22,672,1268.9618938467465,1269.94277224096,"[51, 0, 203]",203,a,0.45750148184015416,colour,0.06
102,28,1,2,14,23,673,1270.4619271267147,1271.7747084064467,"[82, 0, 172]",172,l,0.7894504473078996,colour,0.06
102,28,1,2,14,24,674,1272.2900524405704,1273.3826948108908,"[76, 0, 178]",178,l,0.569468288536882,colour,0.06
102,28,1,2,14,25,675,1273.8993684683228,1275.1507279254438,"[58, 0, 196]",196,a,0.728121572319651,colour,0.06
102,28,1,2,14,26,676,1275.6649624960264,1276.8307522651157,"[67, 0, 187]",187,l,0.6426015088218264,colour,0.06
102,28,1,2,14,27,677,1277.3368933052116,1278.350725956203,"[53, 0, 201]",201,a,0.4904640093736816,colour,0.06
102,28,1,2,14,28,678,1278.8680805729819,1279.8947139990632,"[68, 0, 186]",186,l,0.5032533629564568,colour,0.06
102,28,1,2,14,29,679,1280.415009068296,1281.5187153538864,"[89, 0, 165]",165,l,0.5805495330132544,colour,0.06
102,28,1,2,14,30,680,1282.0400316652085,1283.1667605988914,"[87, 0, 167]",167,l,0.603479627345223,colour,0.06
102,28,1,2,14,31,681,1283.68059659758,1284.8867409853556,"[98, 0, 156]",156,l,0.6829848782799672,colour,0.06
102,28,1,2,14,32,682,1285.3993781175523,1286.4547280199768,"[31, 0, 223]",223,a,0.5320265530899633,colour,0.06
102,28,1,2,14,33,683,1286.961851705244,1288.0787171655684,"[93, 0, 161]",161,l,0.5936590831552166,colour,0.06
102,28,1,2,14,34,684,1288.5867994714645,1289.7987507212383,"[71, 0, 183]",183,l,0.6887314818741288,colour,0.06
102,28,1,2,14,35,685,1290.3054596869333,1291.4866779700387,"[84, 0, 170]",170,l,0.6585743176983669,colour,0.06
102,28,1,2,14,36,686,1291.9931069113954,1293.2066752919054,"[85, 0, 169]",169,l,0.6903167110867798,colour,0.06
102,28,1,2,14,37,687,1293.7274504591187,1294.886753194587,"[35, 0, 219]",219,a,0.6359671769023407,colour,0.06
102,28,1,2,14,38,688,1295.3992997422174,1296.4387217341864,"[96, 0, 158]",158,l,0.5161203041207045,colour,0.06
102,28,1,2,14,39,689,1296.9461833391397,1298.1427009548934,"[88, 0, 166]",166,l,0.6734616876929067,colour,0.06
102,28,1,2,14,40,690,1298.6493366652576,1299.7427159210201,"[52, 0, 202]",202,a,0.5701590940007009,colour,0.06
102,28,1,2,14,41,691,1300.2586519053439,1301.4787085009739,"[57, 0, 197]",197,a,0.6966611725219991,colour,0.06
102,28,1,2,14,42,692,1301.9930525606906,1303.04674082782,"[79, 0, 175]",175,l,0.5303050532238558,colour,0.06
102,28,1,2,14,43,693,1303.5555356006953,1304.6386634450173,"[50, 0, 204]",204,a,0.5599112271738704,colour,0.06
102,28,1,2,14,44,694,1305.1492647884297,1306.1587296898651,"[78, 0, 176]",176,l,0.48621362587437034,colour,0.06
102,28,1,2,14,45,695,1306.664901056094,1307.7907611660194,"[74, 0, 180]",180,l,0.6025938682141714,colour,0.06
102,28,1,2,14,46,696,1308.305581779132,1309.3827345893078,"[80, 0, 174]",174,l,0.5538814484898467,colour,0.06
102,28,1,2,14,47,697,1309.8993184498977,1311.038770964893,"[77, 0, 177]",177,l,0.6161252271849662,colour,0.06
102,28,1,2,14,48,698,1311.5556474529149,1312.5827164724178,"[73, 0, 181]",181,l,0.5039473192009609,colour,0.06
102,28,1,2,14,49,699,1313.1023412161449,1314.1426915025804,"[83, 0, 171]",171,l,0.5169320202548988,colour,0.06
102,28,1,2,14,50,700,1314.6491728254186,1315.9267084537132,"[69, 0, 185]",185,l,0.754130752873607,colour,0.06
102,28,1,2,15,1,701,1340.5390496107866,1341.7426572380064,"[85, 0, 169]",169,l,0.6796131646842696,colour,0.06
102,28,1,2,15,2,702,1342.2584660101274,1343.4626860675053,"[65, 0, 189]",189,a,0.680782492767321,colour,0.06
102,28,1,2,15,3,703,1343.9772010562883,1344.5026661389275,"[63, 0, 191]",191,a,0.0020609949133358896,colour,0.06
102,28,1,2,15,4,704,1345.0240919393545,1345.6386299681326,"[79, 0, 175]",175,l,0.0912355532636866,colour,0.06
102,28,1,2,15,5,705,1346.1491104008746,1346.8066426026926,"[75, 0, 179]",179,l,0.13422539399471134,colour,0.06
102,28,1,2,15,6,706,1347.3209689393698,1348.0306352929038,"[69, 0, 185]",185,l,0.18625872122356668,colour,0.06
102,28,1,2,15,7,707,1348.5397774377489,1349.1106419095304,"[78, 0, 176]",176,l,0.047502919391263276,colour,0.06
102,28,1,2,15,8,708,1349.617816400918,1350.2306565605977,"[60, 0, 194]",194,a,0.08973381936084479,colour,0.06
102,28,1,2,15,9,709,1350.7429010285414,1351.9747154956567,"[55, 0, 199]",199,a,0.7094201999425422,colour,0.06
102,28,1,2,15,10,710,1352.4928648931673,1353.662656135246,"[83, 0, 171]",171,l,0.6464513512037229,colour,0.06
102,28,1,2,15,11,711,1354.18037072703,1355.2306545913452,"[89, 0, 165]",165,l,0.5270373148960061,colour,0.06
102,28,1,2,15,12,712,1355.742854160897,1356.8145915917994,"[52, 0, 202]",202,a,0.548446376924403,colour,0.06
102,28,1,2,15,13,713,1357.3209071055753,1358.3826692108996,"[80, 0, 174]",174,l,0.5383733775815926,colour,0.06
102,28,1,2,15,14,714,1358.899081354757,1359.8948065527948,"[82, 0, 172]",172,l,0.47234631644096226,colour,0.06
102,28,1,2,15,15,715,1360.414705019357,1361.4066047935048,"[71, 0, 183]",183,l,0.46889662140165456,colour,0.06
102,28,1,2,15,16,716,1361.9146839486202,1362.9906839722535,"[74, 0, 180]",180,l,0.5528381510521285,colour,0.06
102,28,1,2,15,17,717,1363.5082654441649,1364.5746607510955,"[59, 0, 195]",195,a,0.5431231575203128,colour,0.06
102,28,1,2,15,18,718,1365.086570450163,1366.4786190979648,"[91, 0, 163]",163,l,0.8686890646640677,colour,0.06
102,28,1,2,15,19,719,1366.992841065512,1368.1106182787917,"[98, 0, 156]",156,l,0.5944731623749249,colour,0.06
102,28,1,2,15,20,720,1368.6178254593688,1369.8467022309487,"[72, 0, 182]",182,a,0.705529791477602,colour,0.06
102,28,1,2,15,21,721,1370.3678858162311,1371.4546461000573,"[16, 0, 238]",238,a,0.5635558759095147,colour,0.06
102,28,1,2,15,22,722,1371.961613034713,1372.758684397617,"[50, 0, 204]",204,a,0.2741584008326754,colour,0.06
102,28,1,2,15,23,723,1373.2739886532945,1374.5586717945407,"[90, 0, 164]",164,l,0.7613530965172686,colour,0.06
102,28,1,2,15,24,724,1375.0708174071915,1376.214598681021,"[58, 0, 196]",196,a,0.6209466870641336,colour,0.06
102,28,1,2,15,25,725,1376.7271003302303,1377.7826412478753,"[10, 0, 244]",244,a,0.5321805467829108,colour,0.06
102,28,1,2,15,26,726,1378.289631813299,1379.54267299184,"[94, 0, 160]",160,l,0.7297414599452168,colour,0.06
102,28,1,2,15,27,727,1380.0553089424793,1381.094645469886,"[57, 0, 197]",197,a,0.5161990732885897,colour,0.06
102,28,1,2,15,28,728,1381.6021082563966,1383.078595467232,"[66, 0, 188]",188,a,0.9531126615474932,colour,0.06
102,28,1,2,15,29,729,1383.5865560747916,1384.7506621532084,"[76, 0, 178]",178,l,0.6408165998291224,colour,0.06
102,28,1,2,15,30,730,1385.2582856287772,1386.3666369313141,"[61, 0, 193]",193,a,0.5849621809611563,colour,0.06
102,28,1,2,15,31,731,1386.8834472532326,1388.046626612544,"[53, 0, 201]",201,a,0.6399040591495577,colour,0.06
102,28,1,2,15,32,732,1388.5552740871208,1389.710621823382,"[67, 0, 187]",187,l,0.6321240299148485,colour,0.06
102,28,1,2,15,33,733,1390.2270879241114,1391.334621602844,"[99, 0, 155]",155,l,0.5841662186721805,colour,0.06
102,28,1,2,15,34,734,1391.8520211180148,1392.958686760685,"[87, 0, 167]",167,l,0.583131585852243,colour,0.06
102,28,1,2,15,35,735,1393.4690836981463,1394.5586706130125,"[73, 0, 181]",181,l,0.5663844761729706,colour,0.06
102,28,1,2,15,36,736,1395.0785474180593,1396.1749265969847,"[86, 0, 168]",168,l,0.5730967895651702,colour,0.06
102,28,1,2,15,37,737,1396.687745685922,1397.7266399245418,"[51, 0, 203]",203,a,0.5153385202866048,colour,0.06
102,28,1,2,15,38,738,1398.2354362728074,1399.590623319993,"[81, 0, 173]",173,l,0.8331397581205238,colour,0.06
102,28,1,2,15,39,739,1400.1097029812227,1401.2545952939254,"[5, 0, 249]",249,a,0.6214831049728673,colour,0.06
102,28,1,2,15,40,740,1401.7659878734848,1402.8066236980958,"[95, 0, 159]",159,l,0.5173156260279939,colour,0.06
102,28,1,2,15,41,741,1403.3127923074062,1404.526618656877,"[93, 0, 161]",161,l,0.6905238739564084,colour,0.06
102,28,1,2,15,42,742,1405.0471791781601,1407.2306077237008,"[64, 0, 190]",190,l,1.6602643098740373,colour,0.06
102,28,1,2,15,43,743,1407.7502584612812,1408.8226169869595,"[70, 0, 184]",184,l,0.5490497486316599,colour,0.06
102,28,1,2,15,44,744,1409.328417744342,1410.4305892129487,"[77, 0, 177]",177,l,0.578887109993957,colour,0.06
102,28,1,2,15,45,745,1410.9377333782322,1412.0306022098812,"[62, 0, 192]",192,a,0.569434023957001,colour,0.06
102,28,1,2,15,46,746,1412.5471545628097,1413.6626376244822,"[97, 0, 157]",157,l,0.5923022844945081,colour,0.06
102,28,1,2,15,47,747,1414.172171645856,1415.3265792722814,"[92, 0, 162]",162,l,0.6312213354103733,colour,0.06
102,28,1,2,15,48,748,1415.8440796119976,1416.9186314647377,"[54, 0, 200]",200,a,0.55144354319782,colour,0.06
102,28,1,2,15,49,749,1417.437680012139,1418.646597861807,"[84, 0, 170]",170,l,0.6854834358382504,colour,0.06
102,28,1,2,15,50,750,1419.1565064305323,1420.1426123395795,"[56, 0, 198]",198,a,0.4626994582649786,colour,0.06
102,28,1,2,16,1,751,1435.561917477491,1436.990552427771,"[59, 0, 195]",195,a,0.9044766479055397,colour,0.06
102,28,1,2,16,2,752,1437.500195938279,1438.462600602972,"[83, 0, 171]",171,l,0.4390289338771254,colour,0.06
102,28,1,2,16,3,753,1438.9689491997997,1440.1185897170799,"[90, 0, 164]",164,l,0.6263155925553292,colour,0.06
102,28,1,2,16,4,754,1440.6251064860553,1441.5745520496857,"[58, 0, 196]",196,a,0.4260528974409681,colour,0.06
102,28,1,2,16,5,755,1442.09398853514,1443.1746635080199,"[89, 0, 165]",165,l,0.5574445711390581,colour,0.06
102,28,1,2,16,6,756,1443.6875381291902,1444.7345873382583,"[62, 0, 192]",192,a,0.5236273982736748,colour,0.06
102,28,1,2,16,7,757,1445.2500967876113,1446.2945659130346,"[81, 0, 173]",173,l,0.5211036345863249,colour,0.06
102,28,1,2,16,8,758,1446.8126778952137,1447.8466203110293,"[84, 0, 170]",170,l,0.5106336387689225,colour,0.06
102,28,1,2,16,9,759,1448.3595445567626,1449.3105662911257,"[60, 0, 194]",194,a,0.4278330802626442,colour,0.06
102,28,1,2,16,10,760,1449.828241104493,1450.766520352976,"[53, 0, 201]",201,a,0.4147873331385199,colour,0.06
102,28,1,2,16,11,761,1451.2813764121966,1452.270582675119,"[75, 0, 179]",179,l,0.4660912580147851,colour,0.06
102,28,1,2,16,12,762,1452.78143135368,1453.870603155112,"[52, 0, 202]",202,a,0.5661158733710181,colour,0.06
102,28,1,2,16,13,763,1454.3908092151978,1455.7025393205695,"[65, 0, 189]",189,a,0.7885556297260337,colour,0.06
102,28,1,2,16,14,764,1456.2188699383405,1457.4866311023943,"[94, 0, 160]",160,l,0.7444571131491102,colour,0.06
102,28,1,2,16,15,765,1458.0000736491638,1459.4225535778096,"[73, 0, 181]",181,l,0.8992333792266436,colour,0.06
102,28,1,2,16,16,766,1459.9375463014876,1461.0785549011198,"[74, 0, 180]",180,l,0.6175210165965836,colour,0.06
102,28,1,2,16,17,767,1461.593916658312,1462.6625627937901,"[56, 0, 198]",198,a,0.5453416907403152,colour,0.06
102,28,1,2,16,18,768,1463.1719762983557,1464.2465671418468,"[61, 0, 193]",193,a,0.5513202694710344,colour,0.06
102,28,1,2,16,19,769,1464.7658011906024,1465.9345341690641,"[72, 0, 182]",182,l,0.6453863922215533,colour,0.06
102,28,1,2,16,20,770,1466.453431085858,1467.7105225742562,"[82, 0, 172]",172,l,0.7339816034655087,colour,0.06
102,28,1,2,16,21,771,1468.2188482768252,1469.2785391472862,"[79, 0, 175]",175,l,0.5363529488095082,colour,0.06
102,28,1,2,16,22,772,1469.7969421814778,1470.8545303093852,"[70, 0, 184]",184,l,0.5342880154785234,colour,0.06
102,28,1,2,16,23,773,1471.37512391372,1473.2705696782214,"[66, 0, 188]",188,l,1.372185036627343,colour,0.06
102,28,1,2,16,24,774,1473.781386849092,1474.9425965857517,"[99, 0, 155]",155,l,0.6381782270327676,colour,0.06
102,28,1,2,16,25,775,1475.45322707374,1476.6546000200906,"[47, 0, 207]",207,a,0.6779771293804515,colour,0.06
102,28,1,2,16,26,776,1477.171902649192,1478.3585745146265,"[55, 0, 199]",199,a,0.663403260638006,colour,0.06
102,28,1,2,16,27,777,1478.8750280122913,1480.0625588553376,"[28, 0, 226]",226,a,0.6642043429601472,colour,0.06
102,28,1,2,16,28,778,1480.5781151723058,1481.9264997154532,"[86, 0, 168]",168,l,0.8250344122643583,colour,0.06
102,28,1,2,16,29,779,1482.4374889969476,1483.6624993846053,"[64, 0, 190]",190,a,0.7016133891593199,colour,0.06
102,28,1,2,16,30,780,1484.1719006799685,1485.502544440562,"[98, 0, 156]",156,l,0.8073314389330335,colour,0.06
102,28,1,2,16,31,781,1486.0156203169317,1487.5664849068562,"[5, 0, 249]",249,a,1.0274990990874358,colour,0.06
102,28,1,2,16,32,782,1488.0781197015604,1489.2704861829116,"[57, 0, 197]",197,a,0.6690482520207297,colour,0.06
102,28,1,2,16,33,783,1489.7812037108233,1490.9105410850025,"[67, 0, 187]",187,l,0.6061416308803018,colour,0.06
102,28,1,2,16,34,784,1491.4220057383354,1492.5266812783375,"[77, 0, 177]",177,l,0.5815239073999692,colour,0.06
102,28,1,2,16,35,785,1493.046905061521,1494.230533680704,"[85, 0, 169]",169,l,0.6604305127984844,colour,0.06
102,28,1,2,16,36,786,1494.75004814766,1495.886608653178,"[71, 0, 183]",183,l,0.6132989899779204,colour,0.06
102,28,1,2,16,37,787,1496.4062298523204,1497.6705247797945,"[88, 0, 166]",166,l,0.7410538918920793,colour,0.06
102,28,1,2,16,38,788,1498.1874028431776,1499.2305124130507,"[92, 0, 162]",162,l,0.5197314759716392,colour,0.06
102,28,1,2,16,39,789,1499.749939052359,1500.8305167453364,"[76, 0, 178]",178,l,0.5571145283756778,colour,0.06
102,28,1,2,16,40,790,1501.3437667015241,1502.3905240708846,"[63, 0, 191]",191,a,0.5234678907436319,colour,0.06
102,28,1,2,16,41,791,1502.9062233538716,1503.9425087581621,"[87, 0, 167]",167,l,0.512933698046254,colour,0.06
102,28,1,2,16,42,792,1504.4530833200552,1506.1985128383967,"[96, 0, 158]",158,l,1.2220392152376007,colour,0.06
102,28,1,2,16,43,793,1506.7186799077608,1507.7585225270013,"[51, 0, 203]",203,a,0.5164314422872849,colour,0.06
102,28,1,2,16,44,794,1508.2656048584904,1509.3984927522542,"[95, 0, 159]",159,l,0.6095271290687378,colour,0.06
102,28,1,2,16,45,795,1509.906160338549,1511.0305797606707,"[54, 0, 200]",200,a,0.6010299066838343,colour,0.06
102,28,1,2,16,46,796,1511.546732753981,1512.9904795663024,"[69, 0, 185]",185,l,0.9203431184287183,colour,0.06
102,28,1,2,16,47,797,1513.4998812554986,1514.7745567758102,"[78, 0, 176]",176,l,0.751341537135886,colour,0.06
102,28,1,2,16,48,798,1515.2810959939961,1516.4304887822946,"[68, 0, 186]",186,l,0.6262427310866769,colour,0.06
102,28,1,2,16,49,799,1516.9373072371236,1518.0064992428233,"[97, 0, 157]",157,l,0.5456906380713917,colour,0.06
102,28,1,2,16,50,800,1518.5155862492684,1519.6144651673094,"[50, 0, 204]",204,a,0.5755855009774677,colour,0.06
