id,age,condition,counterbalance,block,trialinblock,trial,tstart,tend,trialstim,trialintensity,response,RT,trialtype,colourfreq
170,21,0,1,Practice,1,NA,5.9076701290905476e-06,0.7024713024147786,"[17, 0, 237]",237,a,0.17805641918675974,colour,0.5
170,21,0,1,Practice,2,NA,1.219861555378884,1.806470568291843,"[57, 0, 197]",197,a,0.06352808472001925,colour,0.5
170,21,0,1,Practice,3,NA,2.305605289468076,3.086507400730625,"[90, 0, 164]",164,l,0.25494571623858064,colour,0.5
170,21,0,1,Practice,4,NA,3.605804654129315,10.510463690152392,"[64, 0, 190]",190,a,6.381270908284932,colour,0.5
170,21,0,1,Practice,5,NA,11.028585708292667,12.6865500935819,"[18, 0, 236]",236,a,1.1350094877416268,colour,0.5
170,21,0,1,Practice,6,NA,13.20030200079782,14.302487607637886,"[22, 0, 232]",232,a,0.5783859104267322,colour,0.5
170,21,0,1,Practice,7,NA,14.80980959138833,15.782542478176765,"[33, 0, 221]",221,a,0.4490237748832442,colour,0.5
170,21,0,1,Practice,8,NA,16.294664258428384,17.286463998956606,"[46, 0, 208]",208,a,0.46842933585867286,colour,0.5
170,21,0,1,Practice,9,NA,17.796659874147736,18.846464408561587,"[87, 0, 167]",167,l,0.52639710821677,colour,0.5
170,21,0,1,Practice,10,NA,19.35933528310852,20.310451559722424,"[68, 0, 186]",186,a,0.42776123189833015,colour,0.5
170,21,0,1,1,1,1,4.241734165232629,5.191922541591339,"[47, 0, 207]",207,a,0.42604800348635763,colour,0.5
170,21,0,1,1,2,2,5.7114419239223935,6.639912865590304,"[82, 0, 172]",172,l,0.40533960121683776,colour,0.5
170,21,0,1,1,3,3,7.148995733063202,8.111986454867292,"[80, 0, 174]",174,l,0.4396360708633438,colour,0.5
170,21,0,1,1,4,4,8.633593612757977,9.61600368010113,"[87, 0, 167]",167,l,0.4591960193356499,colour,0.5
170,21,0,1,1,5,5,10.133652689633891,11.007916690665297,"[18, 0, 236]",236,a,0.35098260542145,colour,0.5
170,21,0,1,1,6,6,11.524342415679712,12.479937504569534,"[78, 0, 176]",176,l,0.43226013029925525,colour,0.5
170,21,0,1,1,7,7,12.993239246250596,15.167907805473078,"[70, 0, 184]",184,l,1.6513450221391395,colour,0.5
170,21,0,1,1,8,8,15.680849572236184,16.639884114905726,"[60, 0, 194]",194,a,0.4356389318127185,colour,0.5
170,21,0,1,1,9,9,17.149760975094978,18.111893113469705,"[98, 0, 156]",156,l,0.4387936351704411,colour,0.5
170,21,0,1,1,10,10,18.6186259042006,19.5599271543324,"[6, 0, 248]",248,a,0.41806160216219723,colour,0.5
170,21,0,1,1,11,11,20.072804724273738,21.007913539884612,"[96, 0, 158]",158,l,0.41175810317508876,colour,0.5
170,21,0,1,1,12,12,21.52598435804248,22.447922188730445,"[50, 0, 204]",204,a,0.39855561061995104,colour,0.5
170,21,0,1,1,13,13,22.96456216578372,23.93595558369998,"[59, 0, 195]",195,a,0.4480332531966269,colour,0.5
170,21,0,1,1,14,14,24.449083245592192,25.407878723926842,"[56, 0, 198]",198,a,0.43539002136094496,colour,0.5
170,21,0,1,1,15,15,25.917877676314674,26.88791035761824,"[40, 0, 214]",214,a,0.4465815382427536,colour,0.5
170,21,0,1,1,16,16,27.402489734406117,28.31985816831002,"[30, 0, 224]",224,a,0.39410200441488996,colour,0.5
170,21,0,1,1,17,17,28.840034878987353,29.80789589561755,"[33, 0, 221]",221,a,0.44444216892588884,colour,0.5
170,21,0,1,1,18,18,30.324533509556204,31.2319065357442,"[53, 0, 201]",201,a,0.3840057722409256,colour,0.5
170,21,0,1,1,19,19,31.746536718623247,32.70388914668001,"[10, 0, 244]",244,a,0.43401392485247925,colour,0.5
170,21,0,1,1,20,20,33.216582002991345,34.22408830648055,"[23, 0, 231]",231,a,0.48403901275014505,colour,0.5
170,21,0,1,1,21,21,34.732288959785365,35.82388523971895,"[13, 0, 241]",241,a,0.5680781831033528,colour,0.5
170,21,0,1,1,22,22,36.34384257835336,37.26385017170105,"[45, 0, 209]",209,a,0.39671635162085295,colour,0.5
170,21,0,1,1,23,23,37.781423956679646,38.7918726807693,"[95, 0, 159]",159,l,0.48707950091920793,colour,0.5
170,21,0,1,1,24,24,39.31280951341614,40.37587128498126,"[88, 0, 166]",166,l,0.5396933360607363,colour,0.5
170,21,0,1,1,25,25,40.89112216857029,41.91985320585081,"[84, 0, 170]",170,l,0.5054653955157846,colour,0.5
170,21,0,1,1,26,26,42.438061082328204,43.43993499974022,"[83, 0, 171]",171,l,0.47851493424968794,colour,0.5
170,21,0,1,1,27,27,43.95381018059561,44.95192681089975,"[12, 0, 242]",242,a,0.47472692717565224,colour,0.5
170,21,0,1,1,28,28,45.46954194968566,46.47186170035275,"[91, 0, 163]",163,l,0.479786267853342,colour,0.5
170,21,0,1,1,29,29,46.98523827269673,48.03187116840854,"[75, 0, 179]",179,l,0.5230895928107202,colour,0.5
170,21,0,1,1,30,30,48.54790659243008,49.51182639604667,"[51, 0, 203]",203,a,0.4395265818457119,colour,0.5
170,21,0,1,1,31,31,50.0341605929425,51.01591175654903,"[1, 0, 253]",253,a,0.45912906556623057,colour,0.5
170,21,0,1,1,32,32,51.53351389843738,52.57590625848388,"[58, 0, 196]",196,a,0.5190896968124434,colour,0.5
170,21,0,1,1,33,33,53.0961062060087,54.05582603998482,"[72, 0, 182]",182,l,0.4362710540299304,colour,0.5
170,21,0,1,1,34,34,54.56505463033682,55.60782941442449,"[63, 0, 191]",191,a,0.519512293045409,colour,0.5
170,21,0,1,1,35,35,56.127611097937915,57.127858432999346,"[5, 0, 249]",249,a,0.47693837026599795,colour,0.5
170,21,0,1,1,36,36,57.64343305770308,58.55989052669611,"[36, 0, 218]",218,a,0.39314417191781104,colour,0.5
170,21,0,1,1,37,37,59.080998682184145,59.97582969488576,"[7, 0, 247]",247,a,0.3713723865803331,colour,0.5
170,21,0,1,1,38,38,60.487405605090316,61.527839370886795,"[68, 0, 186]",186,l,0.5171094410470687,colour,0.5
170,21,0,1,1,39,39,62.03133396297926,62.99190095887752,"[3, 0, 251]",251,a,0.4371812312165275,colour,0.5
170,21,0,1,1,40,40,63.5002426088904,64.46393083129078,"[89, 0, 165]",165,l,0.4403394791879691,colour,0.5
170,21,0,1,1,41,41,64.9846270242706,65.92783566872822,"[35, 0, 219]",219,a,0.41958814777899534,colour,0.5
170,21,0,1,1,42,42,66.4379319009604,67.41580014070496,"[28, 0, 226]",226,a,0.45300279709044844,colour,0.5
170,21,0,1,1,43,43,67.92394486791454,68.90386189252604,"[32, 0, 222]",222,a,0.45655370911117643,colour,0.5
170,21,0,1,1,44,44,69.42407720006304,70.39188701671083,"[2, 0, 252]",252,a,0.44451699953060597,colour,0.5
170,21,0,1,1,45,45,70.90856125834398,71.88780362543184,"[14, 0, 240]",240,a,0.4559846022166312,colour,0.5
170,21,0,1,1,46,46,72.408666021307,73.37581850966671,"[17, 0, 237]",237,a,0.4438261943869293,colour,0.5
170,21,0,1,1,47,47,73.89309494121699,74.83180862572044,"[21, 0, 233]",233,a,0.41534958133706823,colour,0.5
170,21,0,1,1,48,48,75.34637343022041,76.30383259040536,"[39, 0, 215]",215,a,0.4367279149009846,colour,0.5
170,21,0,1,1,49,49,76.8126689105411,77.77586128126131,"[77, 0, 177]",177,l,0.43980030447710305,colour,0.5
170,21,0,1,1,50,50,78.29703796596732,79.20785280887503,"[34, 0, 220]",220,a,0.387287687684875,colour,0.5
170,21,0,1,2,1,51,85.23432435392169,86.24782656301977,"[66, 0, 188]",188,l,0.48923580563860014,colour,0.5
170,21,0,1,2,2,52,86.76655943563674,87.7118235603557,"[11, 0, 243]",243,a,0.42182322160806507,colour,0.5
170,21,0,1,2,3,53,88.21986234310316,89.25581099506235,"[77, 0, 177]",177,l,0.5126633179024793,colour,0.5
170,21,0,1,2,4,54,89.76684457989177,90.75980655878084,"[74, 0, 180]",180,l,0.46966286026872694,colour,0.5
170,21,0,1,2,5,55,91.26678471534979,92.19981402612757,"[34, 0, 220]",220,a,0.40947301097912714,colour,0.5
170,21,0,1,2,6,56,92.72015497036045,93.68778007349465,"[90, 0, 164]",164,l,0.44426257529994473,colour,0.5
170,21,0,1,2,7,57,94.20467447477859,95.18377348210197,"[52, 0, 202]",202,a,0.45582076243590564,colour,0.5
170,21,0,1,2,8,58,95.70476348389639,96.63181855063885,"[86, 0, 168]",168,l,0.403686631238088,colour,0.5
170,21,0,1,2,9,59,97.14576383598614,98.07177993800724,"[12, 0, 242]",242,a,0.4027555802022107,colour,0.5
170,21,0,1,2,10,60,98.58352677716175,99.5598314498202,"[1, 0, 253]",253,a,0.45306620618794113,colour,0.5
170,21,0,1,2,11,61,100.0678840171895,101.04780576797202,"[38, 0, 216]",216,a,0.4564954199595377,colour,0.5
170,21,0,1,2,12,62,101.56795806018636,102.7517713206471,"[64, 0, 190]",190,l,0.6602278160280548,colour,0.5
170,21,0,1,2,13,63,103.27127022302011,104.19180832640268,"[4, 0, 250]",250,a,0.39718384633306414,colour,0.5
170,21,0,1,2,14,64,104.70892918895697,106.6798716536141,"[54, 0, 200]",200,a,1.4477709520142525,colour,0.5
170,21,0,1,2,15,65,107.19354203477269,108.17580322845606,"[47, 0, 207]",207,a,0.45928581611951813,colour,0.5
170,21,0,1,2,16,66,108.69362907466711,109.60837292141514,"[23, 0, 231]",231,a,0.3914860819349997,colour,0.5
170,21,0,1,2,17,67,110.12823888787534,111.04778410645667,"[2, 0, 252]",252,a,0.3964627150562592,colour,0.5
170,21,0,1,2,18,68,111.56587658612989,112.52777478017379,"[83, 0, 171]",171,l,0.4385648108436726,colour,0.5
170,21,0,1,2,19,69,113.03459421696607,113.99177847290412,"[95, 0, 159]",159,l,0.4337216913700104,colour,0.5
170,21,0,1,2,20,70,114.50356193969492,115.52775233099237,"[81, 0, 173]",173,l,0.5008739434415475,colour,0.5
170,21,0,1,2,21,71,116.03487542271614,116.9277876195847,"[7, 0, 247]",247,a,0.3694724753149785,colour,0.5
170,21,0,1,2,22,72,117.44124059792375,118.36779429920716,"[78, 0, 176]",176,l,0.40325103799114004,colour,0.5
170,21,0,1,2,23,73,118.8788704192848,119.79181557311676,"[80, 0, 174]",174,l,0.38969565968727693,colour,0.5
170,21,0,1,2,24,74,120.3009476713487,121.19980693690013,"[67, 0, 187]",187,a,0.37552903313189745,colour,0.5
170,21,0,1,2,25,75,121.70725258818129,122.71176054503303,"[16, 0, 238]",238,a,0.4814640501863323,colour,0.5
170,21,0,1,2,26,76,123.22300916950917,124.14377452182816,"[51, 0, 203]",203,a,0.39751428278395906,colour,0.5
170,21,0,1,2,27,77,124.66057676327182,125.583783170674,"[56, 0, 198]",198,a,0.39991122717037797,colour,0.5
170,21,0,1,2,28,78,126.0981691693305,127.03180460847216,"[72, 0, 182]",182,l,0.41019374842289835,colour,0.5
170,21,0,1,2,29,79,127.5513850369025,128.47174236510182,"[94, 0, 160]",160,l,0.39690736669581383,colour,0.5
170,21,0,1,2,30,80,128.98903533822158,129.91175219550496,"[59, 0, 195]",195,a,0.3992889511282556,colour,0.5
170,21,0,1,2,31,81,130.42732957709813,131.0877732205554,"[15, 0, 239]",239,a,0.13766125024994835,colour,0.5
170,21,0,1,2,32,82,131.5986319379299,132.35981695633382,"[18, 0, 236]",236,a,0.23870824940968305,colour,0.5
170,21,0,1,2,33,83,132.87996491626836,133.71174951735884,"[44, 0, 210]",210,a,0.3083952917950228,colour,0.5
170,21,0,1,2,34,84,134.22385593759827,135.12775248853723,"[22, 0, 232]",232,a,0.3805777400266379,colour,0.5
170,21,0,1,2,35,85,135.64581582363462,136.487760459946,"[6, 0, 248]",248,a,0.31875224981922656,colour,0.5
170,21,0,1,2,36,86,137.0052129405085,137.79973777761916,"[75, 0, 179]",179,l,0.2710063464473933,colour,0.5
170,21,0,1,2,37,87,138.31791375257308,139.11989645013819,"[5, 0, 249]",249,a,0.27863986208103597,colour,0.5
170,21,0,1,2,38,88,139.63050980167463,140.51974663126748,"[32, 0, 222]",222,a,0.36598103400319815,colour,0.5
170,21,0,1,2,39,89,141.03689742606366,141.87972309504403,"[9, 0, 245]",245,a,0.3195041011204012,colour,0.5
170,21,0,1,2,40,90,142.39633668446913,143.25569953676313,"[62, 0, 192]",192,l,0.3360755490139127,colour,0.5
170,21,0,1,2,41,91,143.77145690581528,144.62394439533819,"[26, 0, 228]",228,a,0.3287035468965769,colour,0.5
170,21,0,1,2,42,92,145.1282306170906,149.76777878165012,"[58, 0, 196]",196,a,4.116633439203724,colour,0.5
170,21,0,1,2,43,93,150.28453494317364,151.07176575955236,"[25, 0, 229]",229,a,0.26364025194197893,colour,0.5
170,21,0,1,2,44,94,151.58151501382235,152.33591131545836,"[42, 0, 212]",212,a,0.23096406320109963,colour,0.5
170,21,0,1,2,45,95,152.84721507830545,153.63193315966055,"[60, 0, 194]",194,a,0.2613941504387185,colour,0.5
170,21,0,1,2,46,96,154.14415458287112,154.87976366112707,"[96, 0, 158]",158,l,0.21312128158751875,colour,0.5
170,21,0,1,2,47,97,155.3942867180449,156.16772703034803,"[39, 0, 215]",215,a,0.2505850576562807,colour,0.5
170,21,0,1,2,48,98,156.67566932091722,157.95982026465936,"[71, 0, 183]",183,l,0.7613996643340215,colour,0.5
170,21,0,1,2,49,99,158.4726423023385,159.24770092626568,"[14, 0, 240]",240,a,0.25153265020344406,colour,0.5
170,21,0,1,2,50,100,159.75397528067697,160.56774223281536,"[29, 0, 225]",225,a,0.29092114977538586,colour,0.5
170,21,0,1,3,1,101,165.21030961780343,166.6556816562079,"[7, 0, 247]",247,a,0.9219504337524995,colour,0.5
170,21,0,1,3,2,102,167.16437146574026,168.3357136049308,"[48, 0, 206]",206,a,0.6482580602169037,colour,0.5
170,21,0,1,3,3,103,168.85225630213972,169.99188126658555,"[62, 0, 192]",192,a,0.6165979931247421,colour,0.5
170,21,0,1,3,4,104,170.50835937308148,171.38373598799808,"[34, 0, 220]",220,a,0.35193019796861336,colour,0.5
170,21,0,1,3,5,105,171.899492963159,172.75995031243656,"[25, 0, 229]",229,a,0.33672893891343847,colour,0.5
170,21,0,1,3,6,106,173.27459782455117,174.10398784436984,"[99, 0, 155]",155,l,0.30620472255395725,colour,0.5
170,21,0,1,3,7,107,174.61815447098343,175.48767617699923,"[97, 0, 157]",157,l,0.3458464647992514,colour,0.5
170,21,0,1,3,8,108,176.00898125534877,176.88767877640203,"[51, 0, 203]",203,a,0.3552684333990328,colour,0.5
170,21,0,1,3,9,109,177.3997568397317,178.31170792726334,"[53, 0, 201]",201,a,0.3885219998192042,colour,0.5
170,21,0,1,3,10,110,178.8216493781656,179.74375144246733,"[0, 0, 254]",254,a,0.39869542577071115,colour,0.5
170,21,0,1,3,11,111,180.25935836252756,181.151654978632,"[1, 0, 253]",253,a,0.36896323290420696,colour,0.5
170,21,0,1,3,12,112,181.66578261455288,182.59965554263908,"[86, 0, 168]",168,l,0.41055923711974174,colour,0.5
170,21,0,1,3,13,113,183.1189141991781,184.03964331769384,"[46, 0, 208]",208,a,0.39737683068960905,colour,0.5
170,21,0,1,3,14,114,184.55661333736498,185.5597424407606,"[49, 0, 205]",205,a,0.47981935093412176,colour,0.5
170,21,0,1,3,15,115,186.07234274339862,186.95173855271423,"[87, 0, 167]",167,l,0.3560206784750335,colour,0.5
170,21,0,1,3,16,116,187.46307224786142,188.42367902211845,"[37, 0, 217]",217,a,0.4372221911326051,colour,0.5
170,21,0,1,3,17,117,188.93202303524595,189.79967909463448,"[3, 0, 251]",251,a,0.3443927806802094,colour,0.5
170,21,0,1,3,18,118,190.30710465973243,191.21583527175244,"[73, 0, 181]",181,l,0.38541140721645206,colour,0.5
170,21,0,1,3,19,119,191.72902201046236,192.66363261139486,"[45, 0, 209]",209,a,0.4114024605951272,colour,0.5
170,21,0,1,3,20,120,193.1822815948981,194.09561468666652,"[9, 0, 245]",245,a,0.3898953394382261,colour,0.5
170,21,0,1,3,21,121,194.60420839791186,195.51165034703445,"[43, 0, 211]",211,a,0.38407115056179464,colour,0.5
170,21,0,1,3,22,122,196.0138519440079,196.91165767255006,"[2, 0, 252]",252,a,0.3744857360725291,colour,0.5
170,21,0,1,3,23,123,197.4201411069953,198.30366638756823,"[91, 0, 163]",163,l,0.36014581739436835,colour,0.5
170,21,0,1,3,24,124,198.8109029068146,199.73567130591255,"[55, 0, 199]",199,a,0.4014196558855474,colour,0.5
170,21,0,1,3,25,125,200.24846616829745,201.25564164144453,"[11, 0, 243]",243,a,0.48373811470810324,colour,0.5
170,21,0,1,3,26,126,201.76424953114474,202.67967827542452,"[22, 0, 232]",232,a,0.39197326893918216,colour,0.5
170,21,0,1,3,27,127,203.1862350171432,204.0956757327658,"[93, 0, 161]",161,l,0.3860647970577702,colour,0.5
170,21,0,1,3,28,128,204.6083268414368,205.65562927472638,"[77, 0, 177]",177,l,0.533504446153529,colour,0.5
170,21,0,1,3,29,129,206.17727187875425,207.19964546017582,"[89, 0, 165]",165,l,0.4991008504293859,colour,0.5
170,21,0,1,3,30,130,207.7086168693495,208.7276262216037,"[95, 0, 159]",159,l,0.4959402394015342,colour,0.5
170,21,0,1,3,31,131,209.24381721467944,210.2876065450837,"[12, 0, 242]",242,a,0.5204689441015944,colour,0.5
170,21,0,1,3,32,132,210.80646387295565,212.11176550749224,"[66, 0, 188]",188,l,0.7819075990701094,colour,0.5
170,21,0,1,3,33,133,212.61913357116282,213.54361367528327,"[42, 0, 212]",212,a,0.4136103590717539,colour,0.5
170,21,0,1,3,34,134,214.04750644532032,215.07157750136685,"[98, 0, 156]",156,l,0.5007746943156235,colour,0.5
170,21,0,1,3,35,135,215.57881559600355,217.14364415890304,"[63, 0, 191]",191,l,1.0415908841532655,colour,0.5
170,21,0,1,3,36,136,217.65714991261484,218.6156783636543,"[35, 0, 219]",219,a,0.4351222063996829,colour,0.5
170,21,0,1,3,37,137,219.1259963309276,220.02366185048595,"[8, 0, 246]",246,a,0.374288025603164,colour,0.5
170,21,0,1,3,38,138,220.53233826928772,221.4555946950568,"[24, 0, 230]",230,a,0.3998391534551047,colour,0.5
170,21,0,1,3,39,139,221.96070444805082,222.91163482953561,"[85, 0, 169]",169,l,0.42770963814109564,colour,0.5
170,21,0,1,3,40,140,223.42956819554092,224.35960112896282,"[5, 0, 249]",249,a,0.40674326702719554,colour,0.5
170,21,0,1,3,41,141,224.86714130314067,225.83163375826553,"[13, 0, 241]",241,a,0.4411555272527039,colour,0.5
170,21,0,1,3,42,142,226.353249580774,227.31161694892216,"[50, 0, 204]",204,a,0.43495048966724426,colour,0.5
170,21,0,1,3,43,143,227.82212396210525,228.71163727133535,"[14, 0, 240]",240,a,0.3661495998967439,colour,0.5
170,21,0,1,3,44,144,229.2285785403219,230.16774829803035,"[44, 0, 210]",210,a,0.4159789466066286,colour,0.5
170,21,0,1,3,45,145,230.68185860471567,231.59959489043104,"[96, 0, 158]",158,l,0.3949022987508215,colour,0.5
170,21,0,1,3,46,146,232.11943328770576,233.08760583616095,"[80, 0, 174]",174,l,0.4448206545202993,colour,0.5
170,21,0,1,3,47,147,233.60394570289645,234.59958189353347,"[59, 0, 195]",195,a,0.4722941428190097,colour,0.5
170,21,0,1,3,48,148,235.11967983504292,236.12758589180885,"[61, 0, 193]",193,a,0.4844568829284981,colour,0.5
170,21,0,1,3,49,149,236.6353875795612,237.55158511042828,"[90, 0, 164]",164,l,0.3928432738757692,colour,0.5
170,21,0,1,3,50,150,238.0730177947553,239.5356595693156,"[67, 0, 187]",187,l,0.9392327729729004,colour,0.5
170,21,0,1,4,1,151,244.088347447454,245.19165472657187,"[90, 0, 164]",164,l,0.5792039277148433,colour,0.5
170,21,0,1,4,2,152,245.69866202771664,246.63961629988626,"[19, 0, 235]",235,a,0.41760749818058684,colour,0.5
170,21,0,1,4,3,153,247.1538258556393,248.02359647210687,"[20, 0, 234]",234,a,0.34636397793656215,colour,0.5
170,21,0,1,4,4,154,248.53323663113406,249.47159939917037,"[46, 0, 208]",208,a,0.4149600680102594,colour,0.5
170,21,0,1,4,5,155,249.98653560009552,250.86359039111994,"[33, 0, 221]",221,a,0.3537540969555266,colour,0.5
170,21,0,1,4,6,156,251.37721902463818,252.19158462207997,"[26, 0, 228]",228,a,0.29103142651729286,colour,0.5
170,21,0,1,4,7,157,252.70549603673862,253.55959632399026,"[80, 0, 174]",174,l,0.34396309504518285,colour,0.5
170,21,0,1,4,8,158,254.06815852760337,255.00757010647794,"[84, 0, 170]",170,l,0.4160459003178403,colour,0.5
170,21,0,1,4,9,159,255.52143229049398,256.36758398561506,"[13, 0, 241]",241,a,0.3228454872732982,colour,0.5
170,21,0,1,4,10,160,256.8807561520953,257.79959323623916,"[76, 0, 178]",178,l,0.395346162666101,colour,0.5
170,21,0,1,4,11,161,258.31839621340623,259.21562338277,"[41, 0, 213]",213,a,0.37288278446067125,colour,0.5
170,21,0,1,4,12,162,259.72587754711276,260.58358467248036,"[10, 0, 244]",244,a,0.33436507754959166,colour,0.5
170,21,0,1,4,13,163,261.10096035315655,262.0395558839664,"[6, 0, 248]",248,a,0.4151625046506524,colour,0.5
170,21,0,1,4,14,164,262.5542313590995,263.4475602445891,"[65, 0, 189]",189,l,0.3699348500231281,colour,0.5
170,21,0,1,4,15,165,263.9612125088461,264.8555484575918,"[25, 0, 229]",229,a,0.37094388250261545,colour,0.5
170,21,0,1,4,16,166,265.3676611793344,266.27963589760475,"[93, 0, 161]",161,l,0.38470484816934913,colour,0.5
170,21,0,1,4,17,167,266.7934980816208,267.7115663791774,"[24, 0, 230]",230,a,0.39466205291682854,colour,0.5
170,21,0,1,4,18,168,268.23113577987533,269.13558253314113,"[82, 0, 172]",172,l,0.38109170855022967,colour,0.5
170,21,0,1,4,19,169,269.6531315058237,270.6955971211428,"[68, 0, 186]",186,l,0.5191767366486602,colour,0.5
170,21,0,1,4,20,170,271.2157722564298,272.10373657086166,"[18, 0, 236]",236,a,0.36296378273982555,colour,0.5
170,21,0,1,4,21,171,272.6237998539582,273.5355339325615,"[23, 0, 231]",231,a,0.38847473834175617,colour,0.5
170,21,0,1,4,22,172,274.04571326624136,274.9355763103813,"[8, 0, 246]",246,a,0.3667490329244174,colour,0.5
170,21,0,1,4,23,173,275.4536640638835,276.319602168689,"[67, 0, 187]",187,l,0.3426736445399001,colour,0.5
170,21,0,1,4,24,174,276.8286858238862,277.66353690688265,"[7, 0, 247]",247,a,0.31174337334232405,colour,0.5
170,21,0,1,4,25,175,278.17256739293225,279.1355797761935,"[74, 0, 180]",180,l,0.43966048932634294,colour,0.5
170,21,0,1,4,26,176,279.6570313650882,280.7835731721716,"[63, 0, 191]",191,l,0.6031879438669421,colour,0.5
170,21,0,1,4,27,177,281.29783707868773,282.21549183834577,"[85, 0, 169]",169,l,0.39429341338109225,colour,0.5
170,21,0,1,4,28,178,282.7354117616778,283.6635518730036,"[78, 0, 176]",176,l,0.4048122419626452,colour,0.5
170,21,0,1,4,29,179,284.17306166916387,285.11150872014696,"[83, 0, 171]",171,l,0.41513454157393426,colour,0.5
170,21,0,1,4,30,180,285.6263181028189,286.66352784843184,"[66, 0, 188]",188,a,0.5138972362037748,colour,0.5
170,21,0,1,4,31,181,287.16401109698927,288.06350524170557,"[16, 0, 238]",238,a,0.37615288456436247,colour,0.5
170,21,0,1,4,32,182,288.57035461073974,289.49555860308465,"[43, 0, 211]",211,a,0.4018276799470186,colour,0.5
170,21,0,1,4,33,183,290.0080045182258,290.8795316860778,"[96, 0, 158]",158,l,0.3481437662267126,colour,0.5
170,21,0,1,4,34,184,291.39866667508613,292.30353641853435,"[2, 0, 252]",252,a,0.3815190310124308,colour,0.5
170,21,0,1,4,35,185,292.82064270880073,293.67152685282053,"[15, 0, 239]",239,a,0.3275877822889015,colour,0.5
170,21,0,1,4,36,186,294.180106385611,295.0795024627587,"[57, 0, 197]",197,a,0.37604378937976435,colour,0.5
170,21,0,1,4,37,187,295.5865349699743,296.46351650566794,"[48, 0, 206]",206,a,0.35359380178852007,colour,0.5
170,21,0,1,4,38,188,296.9772329668049,297.8475002225605,"[92, 0, 162]",162,l,0.34692875255132094,colour,0.5
170,21,0,1,4,39,189,298.36794002202805,299.22350305190776,"[86, 0, 168]",168,l,0.33222058817045763,colour,0.5
170,21,0,1,4,40,190,299.74306181882275,300.5115128949401,"[29, 0, 225]",225,a,0.2450928806210868,colour,0.5
170,21,0,1,4,41,191,301.0244010986644,301.6155046776985,"[87, 0, 167]",167,l,0.06777886039344594,colour,0.5
170,21,0,1,4,42,192,302.13449906383175,303.3195474241511,"[34, 0, 220]",220,a,0.6622380040353164,colour,0.5
170,21,0,1,4,43,193,303.8371613813797,304.72753445559647,"[95, 0, 159]",159,l,0.36741738888667896,colour,0.5
170,21,0,1,4,44,194,305.23433262470644,306.11948330607265,"[35, 0, 219]",219,a,0.3617507382296026,colour,0.5
170,21,0,1,4,45,195,306.64072458143346,307.29555198643357,"[3, 0, 251]",251,a,0.13145700033055618,colour,0.5
170,21,0,1,4,46,196,307.81273507658625,308.6075115810381,"[56, 0, 198]",198,a,0.2714064935571514,colour,0.5
170,21,0,1,4,47,197,309.1128678813693,309.7354936815682,"[79, 0, 175]",175,l,0.09991351154167205,colour,0.5
170,21,0,1,4,48,198,310.25444001849974,310.89553560246713,"[39, 0, 215]",215,a,0.1177598376525566,colour,0.5
170,21,0,1,4,49,199,311.39896166545805,312.25545259559294,"[73, 0, 181]",181,a,0.3330137932789512,colour,0.5
170,21,0,1,4,50,200,312.7760010964703,313.7594587931526,"[55, 0, 199]",199,a,0.4601026519667357,colour,0.5
170,21,0,1,5,1,201,318.4368858470116,319.67153709277045,"[99, 0, 155]",155,l,0.7081863961066119,colour,0.5
170,21,0,1,5,2,202,320.1900651656906,321.11977475183085,"[94, 0, 160]",160,l,0.40632933529559523,colour,0.5
170,21,0,1,5,3,203,321.62771940551465,322.4794908836484,"[88, 0, 166]",166,l,0.3285660947440192,colour,0.5
170,21,0,1,5,4,204,322.987063747074,323.8234988771728,"[90, 0, 164]",164,l,0.31305133464047685,colour,0.5
170,21,0,1,5,5,205,324.3331402176991,325.2074439971475,"[57, 0, 197]",197,a,0.3509054117021151,colour,0.5
170,21,0,1,5,6,206,325.7239008360193,326.5674712670152,"[23, 0, 231]",231,a,0.31928906141547486,colour,0.5
170,21,0,1,5,7,207,327.0855834389804,327.97548901842674,"[87, 0, 167]",167,l,0.3666178823332302,colour,0.5
170,21,0,1,5,8,208,328.49198366643395,329.4474712355295,"[55, 0, 199]",199,a,0.43211913359118626,colour,0.5
170,21,0,1,5,9,209,329.9608044848428,331.20749677246204,"[69, 0, 185]",185,l,0.724088306480553,colour,0.5
170,21,0,1,5,10,210,331.7265892261057,332.6314762987895,"[64, 0, 190]",190,a,0.38156196021009237,colour,0.5
170,21,0,1,5,11,211,333.1486739612301,334.02345941384556,"[47, 0, 207]",207,a,0.3514835770474747,colour,0.5
170,21,0,1,5,12,212,334.54249633528525,335.4394419050077,"[93, 0, 161]",161,l,0.3736066726851277,colour,0.5
170,21,0,1,5,13,213,335.94888711045496,336.8234709140961,"[1, 0, 253]",253,a,0.351223245030269,colour,0.5
170,21,0,1,5,14,214,337.33961307036225,338.1514966527466,"[61, 0, 193]",193,a,0.28853287000674754,colour,0.5
170,21,0,1,5,15,215,338.66776838415535,339.46348657342605,"[83, 0, 171]",171,l,0.2722883138922043,colour,0.5
170,21,0,1,5,16,216,339.98038806399563,340.8154404021334,"[95, 0, 159]",159,l,0.31161340430844575,colour,0.5
170,21,0,1,5,17,217,341.3242530915304,342.27147659810726,"[25, 0, 229]",229,a,0.42380820348626,colour,0.5
170,21,0,1,5,18,218,342.7931144759641,343.55148231674684,"[48, 0, 206]",206,a,0.23490645771380514,colour,0.5
170,21,0,1,5,19,219,344.05889842961915,344.79946956876665,"[46, 0, 208]",208,a,0.21724602673202753,colour,0.5
170,21,0,1,5,20,220,345.30895415873965,346.03950429015094,"[41, 0, 213]",213,a,0.20717775746015832,colour,0.5
170,21,0,1,5,21,221,346.5590528170578,347.3354654822033,"[34, 0, 220]",220,a,0.2531596263870597,colour,0.5
170,21,0,1,5,22,222,347.8560391892097,348.6314617265016,"[50, 0, 204]",204,a,0.25213168939808384,colour,0.5
170,21,0,1,5,23,223,349.15298538911156,349.9114599620807,"[24, 0, 230]",230,a,0.23521956498734653,colour,0.5
170,21,0,1,5,24,224,350.41872208128916,351.2154323676368,"[49, 0, 205]",205,a,0.27308782044565305,colour,0.5
170,21,0,1,5,25,225,351.73448189219926,352.51944573322544,"[39, 0, 215]",215,a,0.2615174241364002,colour,0.5
170,21,0,1,5,26,226,353.03152419038815,353.767416837567,"[16, 0, 238]",238,a,0.2125190916704014,colour,0.5
170,21,0,1,5,27,227,354.2815326580894,355.01543362799566,"[97, 0, 157]",157,l,0.21042540844064206,colour,0.5
170,21,0,1,5,28,228,355.5317230824148,356.29543934663525,"[13, 0, 241]",241,a,0.24033916409825906,colour,0.5
170,21,0,1,5,29,229,356.81305645464454,357.6394107124652,"[31, 0, 223]",223,a,0.30301772383973,colour,0.5
170,21,0,1,5,30,230,358.15831727103796,358.9354128644336,"[62, 0, 192]",192,a,0.2535810412373394,colour,0.5
170,21,0,1,5,31,231,359.45538595691323,360.23139177949633,"[40, 0, 214]",214,a,0.25264999020146206,colour,0.5
170,21,0,1,5,32,232,360.75231167685706,361.4954632924055,"[58, 0, 196]",196,a,0.22058111132355407,colour,0.5
170,21,0,1,5,33,233,362.0024792581098,362.70341456268216,"[79, 0, 175]",175,l,0.17764839512528852,colour,0.5
170,21,0,1,5,34,234,363.2211966920295,364.0233928539092,"[96, 0, 158]",158,l,0.2787635295535438,colour,0.5
170,21,0,1,5,35,235,364.53385181794874,365.3434715757612,"[10, 0, 244]",244,a,0.28628282994031906,colour,0.5
170,21,0,1,5,36,236,365.86205951322336,366.6314018619596,"[53, 0, 201]",201,a,0.24615941452793777,colour,0.5
170,21,0,1,5,37,237,367.1434645653353,367.9593988498091,"[3, 0, 251]",251,a,0.2929789930349216,colour,0.5
170,21,0,1,5,38,238,368.4716856513405,369.24743114202283,"[8, 0, 246]",246,a,0.25235736288595945,colour,0.5
170,21,0,1,5,39,239,369.7686554819811,370.5194461270585,"[38, 0, 216]",216,a,0.22734974196646363,colour,0.5
170,21,0,1,5,40,240,371.0343031650409,371.7754469556967,"[35, 0, 219]",219,a,0.2176532630692236,colour,0.5
170,21,0,1,5,41,241,372.2844518417842,373.039413705701,"[65, 0, 189]",189,a,0.2315552254440263,colour,0.5
170,21,0,1,5,42,242,373.5503023553174,374.2714525735355,"[5, 0, 249]",249,a,0.19781998579856008,colour,0.5
170,21,0,1,5,43,243,374.7846137122833,375.43939031125046,"[45, 0, 209]",209,a,0.1320733687025495,colour,0.5
170,21,0,1,5,44,244,375.95666241052095,376.69543328136206,"[73, 0, 181]",181,l,0.21543748764088377,colour,0.5
170,21,0,1,5,45,245,377.20675713039236,377.87937966169557,"[80, 0, 174]",174,l,0.14930293266661465,colour,0.5
170,21,0,1,5,46,246,378.3942548165214,378.99939190241275,"[36, 0, 218]",218,a,0.08180094574345276,colour,0.5
170,21,0,1,5,47,247,379.51937562867533,380.25546480476623,"[19, 0, 235]",235,a,0.21309331856900826,colour,0.5
170,21,0,1,5,48,248,380.7695097331307,381.4393914928078,"[85, 0, 169]",169,l,0.1465148995630443,colour,0.5
170,21,0,1,5,49,249,381.9584496819298,382.5514240275952,"[68, 0, 186]",186,a,0.0695649502449669,colour,0.5
170,21,0,1,5,50,250,383.06965592858614,383.6634282055311,"[2, 0, 252]",252,a,0.07029868464451283,colour,0.5
170,21,0,1,6,1,251,388.0068663043785,389.20737468032166,"[94, 0, 160]",160,l,0.6766708703362383,colour,0.5
170,21,0,1,6,2,252,389.7282713407185,390.31137434003176,"[59, 0, 195]",195,a,0.05996535735903308,colour,0.5
170,21,0,1,6,3,253,390.8220195930335,392.8393897598726,"[71, 0, 183]",183,a,1.493958802195266,colour,0.5
170,21,0,1,6,4,254,393.35349612811115,394.2233466952457,"[92, 0, 162]",162,l,0.34646007628180087,colour,0.5
170,21,0,1,6,5,255,394.7442764386651,395.5673885594588,"[46, 0, 208]",208,a,0.29991185740800574,colour,0.5
170,21,0,1,6,6,256,396.08810011239257,397.0953409639769,"[37, 0, 217]",217,a,0.484505325963255,colour,0.5
170,21,0,1,6,7,257,397.60380313079804,398.5913875417318,"[64, 0, 190]",190,a,0.4641982524190098,colour,0.5
170,21,0,1,6,8,258,399.10394688439555,399.88740859826794,"[50, 0, 204]",204,a,0.2600617707357742,colour,0.5
170,21,0,1,6,9,259,400.40100375493057,400.9434406195069,"[55, 0, 199]",199,a,0.01898847840493545,colour,0.5
170,21,0,1,6,10,260,401.46351099183084,402.1913735208218,"[5, 0, 249]",249,a,0.2046874716761522,colour,0.5
170,21,0,1,6,11,261,402.69788221339695,403.41532398137497,"[25, 0, 229]",229,a,0.19388901273487136,colour,0.5
170,21,0,1,6,12,262,403.9324306654744,404.53535276360344,"[28, 0, 226]",226,a,0.07948946580290794,colour,0.5
170,21,0,1,6,13,263,405.0427141318796,405.61539400712354,"[27, 0, 227]",227,a,0.05032677372219041,colour,0.5
170,21,0,1,6,14,264,406.135792452842,407.18346273788484,"[47, 0, 207]",207,a,0.5243652586941607,colour,0.5
170,21,0,1,6,15,265,407.6984020895907,408.4473522941116,"[2, 0, 252]",252,a,0.22552820603596047,colour,0.5
170,21,0,1,6,16,266,408.96409309568116,409.7433875291026,"[1, 0, 253]",253,a,0.2559315118123777,colour,0.5
170,21,0,1,6,17,267,410.26103929558303,411.00736412522383,"[78, 0, 176]",176,l,0.2230087756179273,colour,0.5
170,21,0,1,6,18,268,411.5266286894912,412.22335732902866,"[12, 0, 242]",242,a,0.17323220428079367,colour,0.5
170,21,0,1,6,19,269,412.73007436597254,413.77539339271607,"[67, 0, 187]",187,l,0.5219564989674836,colour,0.5
170,21,0,1,6,20,270,414.292612322839,415.01533910504077,"[3, 0, 251]",251,a,0.1992397992289625,colour,0.5
170,21,0,1,6,21,271,415.5271182395518,416.3593927845941,"[88, 0, 166]",166,l,0.3089801525347866,colour,0.5
170,21,0,1,6,22,272,416.8710084732156,417.6153199641267,"[13, 0, 241]",241,a,0.22106790449470282,colour,0.5
170,21,0,1,6,23,273,418.13669120852137,418.91133708221605,"[18, 0, 236]",236,a,0.2511537707177922,colour,0.5
170,21,0,1,6,24,274,419.4179859838332,419.9753259663121,"[89, 0, 165]",165,l,0.03386639023665339,colour,0.5
170,21,0,1,6,25,275,420.4962624051841,421.4393651051214,"[8, 0, 246]",246,a,0.41970945219509304,colour,0.5
170,21,0,1,6,26,276,421.9495007219375,422.8713719926891,"[63, 0, 191]",191,a,0.3985646690125577,colour,0.5
170,21,0,1,6,27,277,423.388951291563,424.11135630187346,"[69, 0, 185]",185,l,0.1989936456666328,colour,0.5
170,21,0,1,6,28,278,424.62346232827986,425.16734657547204,"[76, 0, 178]",178,l,0.020784414431545883,colour,0.5
170,21,0,1,6,29,279,425.6860290358891,426.2153094878304,"[26, 0, 228]",228,a,0.005946674849838018,colour,0.5
170,21,0,1,6,30,280,426.7329967003898,427.6712984223268,"[16, 0, 238]",238,a,0.4149399818270467,colour,0.5
170,21,0,1,6,31,281,428.18621768790763,428.78333568328526,"[14, 0, 240]",240,a,0.07370584300952032,colour,0.5
170,21,0,1,6,32,282,429.29567762318766,430.24728108686395,"[84, 0, 170]",170,l,0.42832600651308894,colour,0.5
170,21,0,1,6,33,283,430.76462919829646,431.7433284522849,"[62, 0, 192]",192,l,0.456028712913394,colour,0.5
170,21,0,1,6,34,284,432.2647119059111,432.85531411948614,"[23, 0, 231]",231,a,0.06725819653365761,colour,0.5
170,21,0,1,6,35,285,433.37416435807245,433.967329325038,"[51, 0, 203]",203,a,0.06977290072245523,colour,0.5
170,21,0,1,6,36,286,434.48361523490166,435.15930621733423,"[65, 0, 189]",189,l,0.1523142762016505,colour,0.5
170,21,0,1,6,37,287,435.6710825949558,436.22345500276424,"[10, 0, 244]",244,a,0.029575442313216627,colour,0.5
170,21,0,1,6,38,288,436.73380959773203,437.4632924075122,"[68, 0, 186]",186,l,0.20616478653391823,colour,0.5
170,21,0,1,6,39,289,437.9840027790051,438.51133999670856,"[77, 0, 177]",177,l,0.004025496018584818,colour,0.5
170,21,0,1,6,40,290,439.0308656805428,439.93531755381264,"[40, 0, 214]",214,a,0.3810684716445394,colour,0.5
170,21,0,1,6,41,291,440.4528432896477,441.05532546219183,"[57, 0, 197]",197,a,0.07921771233668551,colour,0.5
170,21,0,1,6,42,292,441.5622914095293,442.4793337392621,"[43, 0, 211]",211,a,0.3939070508349687,colour,0.5
170,21,0,1,6,43,293,442.99989602476126,443.5593533212668,"[30, 0, 224]",224,a,0.03605302108917385,colour,0.5
170,21,0,1,6,44,294,444.07818583684275,444.6953033123282,"[4, 0, 250]",250,a,0.09399637504247949,colour,0.5
170,21,0,1,6,45,295,445.20318101224257,445.78330535721034,"[48, 0, 206]",206,a,0.05670077109243721,colour,0.5
170,21,0,1,6,46,296,446.2971064950689,446.8313364048372,"[74, 0, 180]",180,l,0.010973326454404742,colour,0.5
170,21,0,1,6,47,297,447.34459364193026,448.0073412822094,"[87, 0, 167]",167,l,0.13943198008928448,colour,0.5
170,21,0,1,6,48,298,448.51664312783396,449.1913191701169,"[81, 0, 173]",173,l,0.15135920059401542,colour,0.5
170,21,0,1,6,49,299,449.70416011242196,450.2553084481042,"[91, 0, 163]",163,l,0.027732638700399548,colour,0.5
170,21,0,1,6,50,300,450.75468499050476,451.35130870959256,"[44, 0, 210]",210,a,0.07330490817548707,colour,0.5
170,21,0,1,7,1,301,455.99513915745774,456.6552933244384,"[81, 0, 173]",173,l,0.13593423727434129,colour,0.5
170,21,0,1,7,2,302,457.15863195364363,457.9112642207765,"[30, 0, 224]",224,a,0.22923114243894815,colour,0.5
170,21,0,1,7,3,303,458.4258223299403,459.2312976504327,"[15, 0, 239]",239,a,0.28292647772468626,colour,0.5
170,21,0,1,7,4,304,459.7394002361689,460.49527385266265,"[48, 0, 206]",206,a,0.23339487827615812,colour,0.5
170,21,0,1,7,5,305,461.00511329760775,461.9432637828286,"[32, 0, 222]",222,a,0.4147729913238436,colour,0.5
170,21,0,1,7,6,306,462.4595012497157,463.4473266941495,"[45, 0, 209]",209,a,0.46459406724898145,colour,0.5
170,21,0,1,7,7,307,463.95953315118095,464.9193368742708,"[76, 0, 178]",178,l,0.4363982661161572,colour,0.5
170,21,0,1,7,8,308,465.42846779094543,466.31930560292676,"[13, 0, 241]",241,a,0.3677301023271866,colour,0.5
170,21,0,1,7,9,309,466.83474632009165,467.72730287438026,"[89, 0, 165]",165,l,0.36915739881806076,colour,0.5
170,21,0,1,7,10,310,468.24115915066795,469.2713722290355,"[63, 0, 191]",191,l,0.5068560644285753,colour,0.5
170,21,0,1,7,11,311,469.7881161813275,470.68731139722513,"[60, 0, 194]",194,a,0.37578857742482796,colour,0.5
170,21,0,1,7,12,312,471.19451286416734,472.0712931448361,"[24, 0, 230]",230,a,0.36302955501014367,colour,0.5
170,21,0,1,7,13,313,472.5914627662278,473.51127973833354,"[33, 0, 221]",221,a,0.3972043263493106,colour,0.5
170,21,0,1,7,14,314,474.02904611383565,474.93525453848997,"[94, 0, 160]",160,l,0.3829616874572821,colour,0.5
170,21,0,1,7,15,315,475.4510394767276,476.3592569078901,"[18, 0, 236]",236,a,0.3858796896529384,colour,0.5
170,21,0,1,7,16,316,476.87196236726595,477.85533105483046,"[44, 0, 210]",210,a,0.46000103978440166,colour,0.5
170,21,0,1,7,17,317,478.3720561025548,479.2952554207295,"[82, 0, 172]",172,l,0.39985411963425577,colour,0.5
170,21,0,1,7,18,318,479.8097001023125,480.74327764619375,"[74, 0, 180]",180,l,0.4102705483091995,colour,0.5
170,21,0,1,7,19,319,481.2628769791918,482.21527010324644,"[9, 0, 245]",245,a,0.4290128732100129,colour,0.5
170,21,0,1,7,20,320,482.73179468355374,483.68724798806943,"[1, 0, 253]",253,a,0.4321148013113998,colour,0.5
170,21,0,1,7,21,321,484.20064740342787,485.1353237765725,"[14, 0, 240]",240,a,0.4114256975008175,colour,0.5
170,21,0,1,7,22,322,485.6538601202192,486.6073063875083,"[67, 0, 187]",187,a,0.4300664102775045,colour,0.5
170,21,0,1,7,23,323,487.122711658536,488.03129379072925,"[75, 0, 179]",179,l,0.38521054590819404,colour,0.5
170,21,0,1,7,24,324,488.54475503985304,489.4633180074743,"[91, 0, 163]",163,l,0.3953662488493137,colour,0.5
170,21,0,1,7,25,325,489.98248450417304,490.89524415670894,"[16, 0, 238]",238,a,0.3893565586768091,colour,0.5
170,21,0,1,7,26,326,491.4045432454441,492.31123176793335,"[95, 0, 159]",159,l,0.38786821614485234,colour,0.5
170,21,0,1,7,27,327,492.82202392537147,493.7272500990657,"[49, 0, 205]",205,a,0.3914912018808536,colour,0.5
170,21,0,1,7,28,328,494.23454766441137,495.17524475534447,"[66, 0, 188]",188,a,0.41736055695218965,colour,0.5
170,21,0,1,7,29,329,495.68772217817605,496.6392527803546,"[64, 0, 190]",190,a,0.4281227821484208,colour,0.5
170,21,0,1,7,30,330,497.1565949841752,498.11923715256853,"[7, 0, 247]",247,a,0.4392741267802194,colour,0.5
170,21,0,1,7,31,331,498.6254547932185,499.6392287557828,"[88, 0, 166]",166,l,0.4903736255946569,colour,0.5
170,21,0,1,7,32,332,500.1568320792285,501.1352229520562,"[11, 0, 243]",243,a,0.4553595692268573,colour,0.5
170,21,0,1,7,33,333,501.6413346482441,502.8313151371549,"[21, 0, 233]",233,a,0.6665706995991059,colour,0.5
170,21,0,1,7,34,334,503.34459915576736,504.3592368217651,"[83, 0, 171]",171,l,0.49130625202087685,colour,0.5
170,21,0,1,7,35,335,504.8759839248378,505.79927461518673,"[97, 0, 157]",157,l,0.3998395472881384,colour,0.5
170,21,0,1,7,36,336,506.31357081700116,507.31922959076473,"[68, 0, 186]",186,a,0.4822328368318267,colour,0.5
170,21,0,1,7,37,337,507.81766090367455,508.7992218398722,"[78, 0, 176]",176,l,0.4635133549454622,colour,0.5
170,21,0,1,7,38,338,509.3126842705533,510.31922131998,"[20, 0, 234]",234,a,0.48315167863620445,colour,0.5
170,21,0,1,7,39,339,510.83130804792745,511.9032348903129,"[57, 0, 197]",197,a,0.5486757729086094,colour,0.5
170,21,0,1,7,40,340,512.4094726170879,513.583222334506,"[72, 0, 182]",182,a,0.6502761251176707,colour,0.5
170,21,0,1,7,41,341,514.0972140937229,515.1512241115561,"[26, 0, 228]",228,a,0.5306687577394769,colour,0.5
170,21,0,1,7,42,342,515.6597867090022,516.6873082464444,"[37, 0, 217]",217,a,0.5041168681927957,colour,0.5
170,21,0,1,7,43,343,517.2067622503964,518.2072553450707,"[71, 0, 183]",183,l,0.4770931515377015,colour,0.5
170,21,0,1,7,44,344,518.7232080615358,519.7592331196065,"[56, 0, 198]",198,a,0.5115239226142876,colour,0.5
170,21,0,1,7,45,345,520.2713887705468,521.3112022295245,"[90, 0, 164]",164,l,0.5165202480275184,colour,0.5
170,21,0,1,7,46,346,521.8182430074667,522.8471930229571,"[5, 0, 249]",249,a,0.5055130508844741,colour,0.5
170,21,0,1,7,47,347,523.3653508810094,524.4072005217895,"[43, 0, 211]",211,a,0.5185524913831614,colour,0.5
170,21,0,1,7,48,348,524.928015262296,526.0072121008416,"[39, 0, 215]",215,a,0.5565893127350137,colour,0.5
170,21,0,1,7,49,349,526.5218568560667,527.559219019895,"[79, 0, 175]",175,l,0.5140650144312531,colour,0.5
170,21,0,1,7,50,350,528.06883357896,529.1272235538927,"[47, 0, 207]",207,a,0.535043200943619,colour,0.5
170,21,0,1,8,1,351,533.6934699609992,534.7592910149251,"[18, 0, 236]",236,a,0.5418078931397758,colour,0.5
170,21,0,1,8,2,352,535.2725147751044,536.28720718564,"[42, 0, 212]",212,a,0.4913735995651223,colour,0.5
170,21,0,1,8,3,353,536.8038830026635,537.7912051124731,"[83, 0, 171]",171,l,0.4638855390367098,colour,0.5
170,21,0,1,8,4,354,538.3040499932249,539.3991704036016,"[62, 0, 192]",192,a,0.5718354702112265,colour,0.5
170,21,0,1,8,5,355,539.9134721193113,541.0711946834344,"[51, 0, 203]",203,a,0.6342934764688835,colour,0.5
170,21,0,1,8,6,356,541.5855306636658,542.6392835003207,"[43, 0, 211]",211,a,0.5304174842312932,colour,0.5
170,21,0,1,8,7,357,543.1481493588653,544.2232419322827,"[12, 0, 242]",242,a,0.5518131470307708,colour,0.5
170,21,0,1,8,8,358,544.7419933156925,545.8232062498573,"[98, 0, 156]",156,l,0.5578748247935437,colour,0.5
170,21,0,1,8,9,359,546.3281167169334,547.4231729305466,"[61, 0, 193]",193,a,0.5718622517306358,colour,0.5
170,21,0,1,8,10,360,547.9376979566878,549.2951435685391,"[11, 0, 243]",243,a,0.8349085844820365,colour,0.5
170,21,0,1,8,11,361,549.8128496856662,550.823234212934,"[35, 0, 219]",219,a,0.48698734102072194,colour,0.5
170,21,0,1,8,12,362,551.344197039376,552.3271352536976,"[0, 0, 254]",254,a,0.4599104552762583,colour,0.5
170,21,0,1,8,13,363,552.8443908114568,553.8312552726129,"[55, 0, 199]",199,a,0.46369649312691763,colour,0.5
170,21,0,1,8,14,364,554.3444865159108,555.2871555918828,"[23, 0, 231]",231,a,0.4197618336766027,colour,0.5
170,21,0,1,8,15,365,555.7976834789151,556.7031766799628,"[25, 0, 229]",229,a,0.3821704516885802,colour,0.5
170,21,0,1,8,16,366,557.2196815679781,558.1592065743753,"[36, 0, 218]",218,a,0.4162818138138391,colour,0.5
170,21,0,1,8,17,367,558.6728663217509,559.6231945132604,"[1, 0, 253]",253,a,0.42695896833902225,colour,0.5
170,21,0,1,8,18,368,560.141790327616,561.0551112102112,"[41, 0, 213]",213,a,0.3900044347392395,colour,0.5
170,21,0,1,8,19,369,561.563748244429,562.5111245631706,"[14, 0, 240]",240,a,0.4240464800968766,colour,0.5
170,21,0,1,8,20,370,563.0326513765613,563.9671497314703,"[53, 0, 201]",201,a,0.41132841765647754,colour,0.5
170,21,0,1,8,21,371,564.48583101033,565.5111111723818,"[71, 0, 183]",183,l,0.501909363490995,colour,0.5
170,21,0,1,8,22,372,566.0312587384833,567.0071175778867,"[64, 0, 190]",190,a,0.452528606983833,colour,0.5
170,21,0,1,8,23,373,567.515691203007,568.5031625802512,"[46, 0, 208]",208,a,0.4640119634568691,colour,0.5
170,21,0,1,8,24,374,569.0158192028175,569.9991532319691,"[78, 0, 176]",176,l,0.4599195137270726,colour,0.5
170,21,0,1,8,25,375,570.5166766047478,571.4071898879483,"[29, 0, 225]",225,a,0.36714209080673754,colour,0.5
170,21,0,1,8,26,376,571.9229409554973,572.7991438584286,"[84, 0, 170]",170,l,0.3527714521624148,colour,0.5
170,21,0,1,8,27,377,573.3137949151569,574.2551646944485,"[68, 0, 186]",186,a,0.41807026677997783,colour,0.5
170,21,0,1,8,28,378,574.767256936233,575.7511553461081,"[85, 0, 169]",169,l,0.46090452157659456,colour,0.5
170,21,0,1,8,29,379,576.2677342771203,577.1991212517023,"[52, 0, 202]",202,a,0.40795276692369953,colour,0.5
170,21,0,1,8,30,380,577.7054219938,578.6311202623765,"[48, 0, 206]",206,a,0.40238812228199095,colour,0.5
170,21,0,1,8,31,381,579.1430175505811,580.0070904025342,"[5, 0, 249]",249,a,0.34065794269554317,colour,0.5
170,21,0,1,8,32,382,580.5180491567007,581.4551996679511,"[21, 0, 233]",233,a,0.41376198967918754,colour,0.5
170,21,0,1,8,33,383,581.9713008641847,582.863159524044,"[80, 0, 174]",174,l,0.3684677751734853,colour,0.5
170,21,0,1,8,34,384,583.3777184208739,584.271124893974,"[96, 0, 158]",158,l,0.3702310219523497,colour,0.5
170,21,0,1,8,35,385,584.7843600757187,585.6231444948935,"[57, 0, 197]",197,a,0.315393534488976,colour,0.5
170,21,0,1,8,36,386,586.1438883431838,587.0150866499753,"[34, 0, 220]",220,a,0.35064429201884195,colour,0.5
170,21,0,1,8,37,387,587.5332437203615,588.3751367629156,"[44, 0, 210]",210,a,0.31853130244417116,colour,0.5
170,21,0,1,8,38,388,588.8938349771197,589.6791174392565,"[13, 0, 241]",241,a,0.2619861004059203,colour,0.5
170,21,0,1,8,39,389,590.1907721185707,590.9671473683557,"[75, 0, 179]",179,l,0.2529914543265477,colour,0.5
170,21,0,1,8,40,390,591.4877537646098,592.2313023765455,"[3, 0, 251]",251,a,0.21939445449970663,colour,0.5
170,21,0,1,8,41,391,592.7374014696688,593.4871299131191,"[65, 0, 189]",189,a,0.22632613719906658,colour,0.5
170,21,0,1,8,42,392,594.0031641556416,594.7431346802623,"[47, 0, 207]",207,a,0.21737284498522058,colour,0.5
170,21,0,1,8,43,393,595.2532569062896,595.9030879859347,"[93, 0, 161]",161,l,0.12648548721335828,colour,0.5
170,21,0,1,8,44,394,596.4095809246646,597.0791208263254,"[15, 0, 239]",239,a,0.14614074624842033,colour,0.5
170,21,0,1,8,45,395,597.5971510784002,598.2630983203999,"[88, 0, 166]",166,l,0.14281314465915784,colour,0.5
170,21,0,1,8,46,396,598.784676333773,599.3431017547264,"[31, 0, 223]",223,a,0.03490417340071872,colour,0.5
170,21,0,1,8,47,397,599.862954724289,600.5111111723818,"[56, 0, 198]",198,a,0.1247836803086102,colour,0.5
170,21,0,1,8,48,398,601.0193244287511,601.6551826538052,"[77, 0, 177]",177,l,0.11247797420946881,colour,0.5
170,21,0,1,8,49,399,602.1756642009714,603.3191047416767,"[66, 0, 188]",188,a,0.6200870713801123,colour,0.5
170,21,0,1,8,50,400,603.8320358745987,604.5190759121906,"[92, 0, 162]",162,l,0.16363024828024209,colour,0.5
170,21,0,1,9,1,401,609.0191814628197,609.7751291223103,"[38, 0, 216]",216,a,0.23182855430059135,colour,0.5
170,21,0,1,9,2,402,610.2857235692209,611.0231199188856,"[54, 0, 200]",200,a,0.2141397663508542,colour,0.5
170,21,0,1,9,3,403,611.5233369278722,612.2231017232407,"[30, 0, 224]",224,a,0.17480364826042205,colour,0.5
170,21,0,1,9,4,404,612.7437270240625,613.2950746455463,"[53, 0, 201]",201,a,0.028017782897222787,colour,0.5
170,21,0,1,9,5,405,613.8063382362016,614.3430513425265,"[62, 0, 192]",192,a,0.013385236961767077,colour,0.5
170,21,0,1,9,6,406,614.8539778012782,615.4710728275822,"[25, 0, 229]",229,a,0.0937439200351946,colour,0.5
170,21,0,1,9,7,407,615.9790292966063,616.7270964992931,"[45, 0, 209]",209,a,0.22489568998571485,colour,0.5
170,21,0,1,9,8,408,617.2447419642122,617.9510579874623,"[12, 0, 242]",242,a,0.1831193044781685,colour,0.5
170,21,0,1,9,9,409,618.4645755565143,619.1510543641052,"[32, 0, 222]",222,a,0.16309579979861155,colour,0.5
170,21,0,1,9,10,410,619.6677597195376,620.3511007591151,"[7, 0, 247]",247,a,0.15987611195305362,colour,0.5
170,21,0,1,9,11,411,620.870949790231,621.5030613619601,"[75, 0, 179]",179,l,0.10945481527596712,colour,0.5
170,21,0,1,9,12,412,622.0116964269546,622.6790882946807,"[4, 0, 250]",250,a,0.14417427510488778,colour,0.5
170,21,0,1,9,13,413,623.2000326104462,623.8710293470067,"[26, 0, 228]",228,a,0.14767831948120147,colour,0.5
170,21,0,1,9,14,414,624.390169062186,625.0790349679883,"[8, 0, 246]",246,a,0.16547423345036805,colour,0.5
170,21,0,1,9,15,415,625.5933642528835,626.2230729724979,"[49, 0, 205]",205,a,0.1066325175925158,colour,0.5
170,21,0,1,9,16,416,626.7340833204216,627.3191149816848,"[34, 0, 220]",220,a,0.06154034595238045,colour,0.5
170,21,0,1,9,17,417,627.817687685194,628.4230563522433,"[99, 0, 155]",155,l,0.08101994986645877,colour,0.5
170,21,0,1,9,18,418,628.9443925443338,629.5350644686259,"[3, 0, 251]",251,a,0.0674854454700835,colour,0.5
170,21,0,1,9,19,419,630.0538646888454,630.6550278724753,"[91, 0, 163]",163,l,0.07815590460086241,colour,0.5
170,21,0,1,9,20,420,631.1633395902463,631.94303495856,"[78, 0, 176]",176,l,0.2563994004158303,colour,0.5
170,21,0,1,9,21,421,632.4603031193255,633.3510420761304,"[37, 0, 217]",217,a,0.36749261344084516,colour,0.5
170,21,0,1,9,22,422,633.8667096483405,634.6230893565225,"[17, 0, 237]",237,a,0.23305656493175775,colour,0.5
170,21,0,1,9,23,423,635.1323715098551,635.8950397508452,"[65, 0, 189]",189,l,0.23926002712687477,colour,0.5
170,21,0,1,9,24,424,636.413726543542,637.0310669356259,"[94, 0, 160]",160,l,0.09402630728436634,colour,0.5
170,21,0,1,9,25,425,637.5388209680677,638.2550233038492,"[0, 0, 254]",254,a,0.19279097113758326,colour,0.5
170,21,0,1,9,26,426,638.7733375186217,639.3510617684224,"[31, 0, 223]",223,a,0.05442355578998104,colour,0.5
170,21,0,1,9,27,427,639.8671700538835,640.6150088260765,"[52, 0, 202]",202,a,0.22451523510972038,colour,0.5
170,21,0,1,9,28,428,641.1330938226893,641.7990087693906,"[81, 0, 173]",173,l,0.1425307574099861,colour,0.5
170,21,0,1,9,29,429,642.3050783241051,643.0070080888108,"[93, 0, 161]",161,l,0.17855502769816667,colour,0.5
170,21,0,1,9,30,430,643.5239265147247,644.183017692354,"[59, 0, 195]",195,a,0.13580072356853634,colour,0.5
170,21,0,1,9,31,431,644.6959322837647,645.2710327340756,"[88, 0, 166]",166,a,0.05193878378486261,colour,0.5
170,21,0,1,9,32,432,645.7897254345007,646.5111103847157,"[43, 0, 211]",211,a,0.1979909148067236,colour,0.5
170,21,0,1,9,33,433,647.0117310853675,647.6310182563611,"[51, 0, 203]",203,a,0.09609517833450809,colour,0.5
170,21,0,1,9,34,434,648.152511592838,649.7030329263071,"[73, 0, 181]",181,l,1.0272871993365698,colour,0.5
170,21,0,1,9,35,435,650.2151763680158,650.9270058360416,"[76, 0, 178]",178,l,0.18851617095060647,colour,0.5
170,21,0,1,9,36,436,651.4340403124806,652.1030327687622,"[84, 0, 170]",170,l,0.14570594066753983,colour,0.5
170,21,0,1,9,37,437,652.6215513893985,653.247096373234,"[36, 0, 218]",218,a,0.10217891144566238,colour,0.5
170,21,0,1,9,38,438,653.7623464691569,654.3670479617431,"[15, 0, 239]",239,a,0.08151343843201175,colour,0.5
170,21,0,1,9,39,439,654.8873920567567,655.5030180389294,"[2, 0, 252]",252,a,0.09216893138363957,colour,0.5
170,21,0,1,9,40,440,656.0127184563316,656.8070696074865,"[55, 0, 199]",199,a,0.27144784736447036,colour,0.5
170,21,0,1,9,41,441,657.3252160440315,657.8950176954968,"[61, 0, 193]",193,a,0.04656988044735044,colour,0.5
170,21,0,1,9,42,442,658.4033128717565,659.3670353586785,"[16, 0, 238]",238,a,0.4404619651613757,colour,0.5
170,21,0,1,9,43,443,659.8877925977577,660.4870113655925,"[70, 0, 184]",184,a,0.0758692369563505,colour,0.5
170,21,0,1,9,44,444,660.9972556838184,661.5990391742671,"[95, 0, 159]",159,l,0.0784083596081473,colour,0.5
170,21,0,1,9,45,445,662.106769182079,662.6949831158272,"[23, 0, 231]",231,a,0.06489709205925465,colour,0.5
170,21,0,1,9,46,446,663.216199578892,663.9670504823443,"[19, 0, 235]",235,a,0.2274919202318415,colour,0.5
170,21,0,1,9,47,447,664.4818496250082,665.0390304938774,"[77, 0, 177]",177,l,0.03376438422128558,colour,0.5
170,21,0,1,9,48,448,665.560105172568,666.1270486864378,"[56, 0, 198]",198,a,0.04359555838163942,colour,0.5
170,21,0,1,9,49,449,666.6383205478196,667.1671417757752,"[9, 0, 245]",245,a,0.0054531863424927,colour,0.5
170,21,0,1,9,50,450,667.7008864677045,669.2870126258931,"[96, 0, 158]",158,l,1.0628246764536016,colour,0.5
170,21,0,1,10,1,451,674.6537577203708,675.3189968279912,"[33, 0, 221]",221,a,0.14106171327875927,colour,0.5
170,21,0,1,10,2,452,675.8140902993619,676.78298831149,"[14, 0, 240]",240,a,0.44549570593517274,colour,0.5
170,21,0,1,10,3,453,677.2985853853752,678.0470696705161,"[17, 0, 237]",237,a,0.22510994202457368,colour,0.5
170,21,0,1,10,4,454,678.5643236528849,679.3350019259378,"[32, 0, 222]",222,a,0.24738191132200882,colour,0.5
170,21,0,1,10,5,455,679.8456310312613,680.4149813356926,"[15, 0, 239]",239,a,0.046242594718933105,colour,0.5
170,21,0,1,10,6,456,680.9239267510129,681.5111194431665,"[93, 0, 161]",161,l,0.06389751192182302,colour,0.5
170,21,0,1,10,7,457,682.0176809110562,682.9589920073049,"[7, 0, 247]",247,a,0.41808798984857276,colour,0.5
170,21,0,1,10,8,458,683.4584421988111,684.1510118287988,"[88, 0, 166]",166,l,0.16917638218728825,colour,0.5
170,21,0,1,10,9,459,684.6617382139666,685.3749768615817,"[8, 0, 246]",246,a,0.19013527018250898,colour,0.5
170,21,0,1,10,10,460,685.8962015954312,686.6230456396588,"[51, 0, 203]",203,a,0.20424045692197978,colour,0.5
170,21,0,1,10,11,461,687.1313309697434,687.7909731373657,"[0, 0, 254]",254,a,0.13632965821307153,colour,0.5
170,21,0,1,10,12,462,688.3032430035528,688.9029757399112,"[3, 0, 251]",251,a,0.07639620237750933,colour,0.5
170,21,0,1,10,13,463,689.4126836403739,690.0790290603181,"[36, 0, 218]",218,a,0.14299510134151205,colour,0.5
170,21,0,1,10,14,464,690.6003601324628,691.230978635489,"[91, 0, 163]",163,l,0.1079188174335286,colour,0.5
170,21,0,1,10,15,465,691.7438439961988,692.3109737990308,"[47, 0, 207]",207,a,0.0438346226583235,colour,0.5
170,21,0,1,10,16,466,692.8095878563472,693.4949674407835,"[60, 0, 194]",194,a,0.1620253273868002,colour,0.5
170,21,0,1,10,17,467,694.012840548472,694.6149635338224,"[25, 0, 229]",229,a,0.07873210066463798,colour,0.5
170,21,0,1,10,18,468,695.1097438979778,695.6469737297157,"[77, 0, 177]",177,l,0.014601038303226233,colour,0.5
170,21,0,1,10,19,469,696.1567162885913,696.9750171913765,"[76, 0, 178]",178,l,0.2949060796527192,colour,0.5
170,21,0,1,10,20,470,697.4849487961619,698.1269340773579,"[54, 0, 200]",200,a,0.11851011356338859,colour,0.5
170,21,0,1,10,21,471,698.6413149560103,699.3189731972525,"[16, 0, 238]",238,a,0.15228079934604466,colour,0.5
170,21,0,1,10,22,472,699.8308192855329,700.6630253014737,"[73, 0, 181]",181,l,0.3088194635347463,colour,0.5
170,21,0,1,10,23,473,701.1747240914847,701.8069699645857,"[45, 0, 209]",209,a,0.10882111772662029,colour,0.5
170,21,0,1,10,24,474,702.3154998727841,702.9030478136847,"[49, 0, 205]",205,a,0.06422834226395935,colour,0.5
170,21,0,1,10,25,475,703.4092981435242,703.9509681906784,"[94, 0, 160]",160,l,0.01833075628383085,colour,0.5
170,21,0,1,10,26,476,704.4580266917474,705.0870918676374,"[50, 0, 204]",204,a,0.10623394587310031,colour,0.5
170,21,0,1,10,27,477,705.5987977468758,706.1589954731753,"[22, 0, 232]",232,a,0.03743266226956621,colour,0.5
170,21,0,1,10,28,478,706.6769252945669,707.2149376975722,"[59, 0, 195]",195,a,0.014641604444477707,colour,0.5
170,21,0,1,10,29,479,707.7238831129507,708.7829768899246,"[85, 0, 169]",169,l,0.5357623629970476,colour,0.5
170,21,0,1,10,30,480,709.3021288143354,709.990971483232,"[13, 0, 241]",241,a,0.1654856549575925,colour,0.5
170,21,0,1,10,31,481,710.5053141588578,711.1189579160418,"[18, 0, 236]",236,a,0.09021782025229186,colour,0.5
170,21,0,1,10,32,482,711.6304845955456,712.2069123055553,"[21, 0, 233]",233,a,0.053110868320800364,colour,0.5
170,21,0,1,10,33,483,712.7243387923227,713.7029407664086,"[39, 0, 215]",215,a,0.45533318154048175,colour,0.5
170,21,0,1,10,34,484,714.224436072167,714.8949913078686,"[57, 0, 197]",197,a,0.14714072027709335,colour,0.5
170,21,0,1,10,35,485,715.4119475429179,716.0149602255551,"[30, 0, 224]",224,a,0.07982305303448811,colour,0.5
170,21,0,1,10,36,486,716.5214378043311,717.1269423480844,"[24, 0, 230]",230,a,0.08214398520067334,colour,0.5
170,21,0,1,10,37,487,717.646554284147,718.230949097022,"[75, 0, 179]",179,l,0.06100314052309841,colour,0.5
170,21,0,1,10,38,488,718.7404104501475,719.3429324011668,"[64, 0, 190]",190,a,0.07919644471257925,colour,0.5
170,21,0,1,10,39,489,719.8498676284798,720.4469450577744,"[99, 0, 155]",155,l,0.07362786156591028,colour,0.5
170,21,0,1,10,40,490,720.9592881792341,721.9349059851374,"[2, 0, 252]",252,a,0.45260501303710043,colour,0.5
170,21,0,1,10,41,491,722.4437600282836,722.9989791521803,"[79, 0, 175]",175,l,0.03184871916892007,colour,0.5
170,21,0,1,10,42,492,723.50636218203,724.0469802675652,"[90, 0, 164]",164,l,0.017250831588171422,colour,0.5
170,21,0,1,10,43,493,724.5533593849395,725.1748969897162,"[48, 0, 206]",206,a,0.09815223392797634,colour,0.5
170,21,0,1,10,44,494,725.694099326327,726.3269343924476,"[67, 0, 187]",187,a,0.10963795351563022,colour,0.5
170,21,0,1,10,45,495,726.8349542706273,727.4309328706004,"[87, 0, 167]",167,l,0.07276415813248605,colour,0.5
170,21,0,1,10,46,496,727.9443185013952,728.5669277600828,"[97, 0, 157]",157,l,0.09944129065843299,colour,0.5
170,21,0,1,10,47,497,729.0848725476535,729.7109318938456,"[96, 0, 158]",158,l,0.10261096007889137,colour,0.5
170,21,0,1,10,48,498,730.2256794427522,730.9589128443622,"[83, 0, 171]",171,l,0.20991419680649415,colour,0.5
170,21,0,1,10,49,499,731.4757481688284,732.1669688775437,"[31, 0, 223]",223,a,0.1678239163593389,colour,0.5
170,21,0,1,10,50,500,732.6789662025403,733.3829864997533,"[69, 0, 185]",185,a,0.1808921075426042,colour,0.5
170,21,0,1,11,1,501,737.8660566523322,738.4469458454405,"[63, 0, 191]",191,a,0.056660598784219474,colour,0.5
170,21,0,1,11,2,502,738.9607615556451,739.886922198988,"[12, 0, 242]",242,a,0.40293832460884005,colour,0.5
170,21,0,1,11,3,503,740.3983283616835,740.9669772270718,"[46, 0, 208]",208,a,0.04525798070244491,colour,0.5
170,21,0,1,11,4,504,741.4765642169514,742.1028878335492,"[29, 0, 225]",225,a,0.10298983956454322,colour,0.5
170,21,0,1,11,5,505,742.6172616229742,743.2069028532715,"[99, 0, 155]",155,l,0.06632281321799383,colour,0.5
170,21,0,1,11,6,506,743.7266884752316,744.3909283965477,"[83, 0, 171]",171,l,0.1407966551487334,colour,0.5
170,21,0,1,11,7,507,744.898700545833,745.6069129357347,"[55, 0, 199]",199,a,0.18492036050884053,colour,0.5
170,21,0,1,11,8,508,746.1176054502139,746.7268672811333,"[11, 0, 243]",243,a,0.08678703114856035,colour,0.5
170,21,0,1,11,9,509,747.2425836902112,748.158913553285,"[49, 0, 205]",205,a,0.39297166757751256,colour,0.5
170,21,0,1,11,10,510,748.6803096099175,749.2628805238055,"[25, 0, 229]",229,a,0.05928754905471578,colour,0.5
170,21,0,1,11,11,511,749.7739798807888,750.3349050399265,"[84, 0, 170]",170,l,0.03741808998165652,colour,0.5
170,21,0,1,11,12,512,750.8522161298897,751.7829442007351,"[4, 0, 250]",250,a,0.4074218629975803,colour,0.5
170,21,0,1,11,13,513,752.2899515018798,752.9909431263222,"[35, 0, 219]",219,a,0.178019791492261,colour,0.5
170,21,0,1,11,14,514,753.50873273873,754.1029484858154,"[95, 0, 159]",159,l,0.07087842538021505,colour,0.5
170,21,0,1,11,15,515,754.6181501387036,755.2628974591498,"[42, 0, 212]",212,a,0.12129578355234116,colour,0.5
170,21,0,1,11,16,516,755.7745411107899,756.4948729178286,"[36, 0, 218]",218,a,0.19703071913681924,colour,0.5
170,21,0,1,11,17,517,757.0090135506471,757.6068680373137,"[41, 0, 213]",213,a,0.07454000803409144,colour,0.5
170,21,0,1,11,18,518,758.12036236946,759.1029079196742,"[40, 0, 214]",214,a,0.4598722521914169,colour,0.5
170,21,0,1,11,19,519,759.6204450770747,760.3029365916736,"[70, 0, 184]",184,a,0.1590923591866158,colour,0.5
170,21,0,1,11,20,520,760.8236831969116,761.4149108373094,"[66, 0, 188]",188,a,0.06785723567008972,colour,0.5
170,21,0,1,11,21,521,761.9331120183924,762.5988847867702,"[37, 0, 217]",217,a,0.14237400679849088,colour,0.5
170,21,0,1,11,22,522,763.1051626857952,763.6468973236624,"[15, 0, 239]",239,a,0.017429243656806648,colour,0.5
170,21,0,1,11,23,523,764.1531960965367,764.894893634133,"[90, 0, 164]",164,l,0.21838030207436532,colour,0.5
170,21,0,1,11,24,524,765.4033703732421,766.0468420277466,"[89, 0, 165]",165,l,0.12046910164644942,colour,0.5
170,21,0,1,11,25,525,766.5596136532258,767.262887613033,"[50, 0, 204]",204,a,0.17996932729147375,colour,0.5
170,21,0,1,11,26,526,767.7784275792656,768.4549113729154,"[92, 0, 162]",162,l,0.15356552368029952,colour,0.5
170,21,0,1,11,27,527,768.9660729575553,769.526874055271,"[72, 0, 182]",182,a,0.037486619083210826,colour,0.5
170,21,0,1,11,28,528,770.0462418070529,770.6708592844661,"[97, 0, 157]",157,l,0.10128054959932342,colour,0.5
170,21,0,1,11,29,529,771.1869179454516,771.8228309149854,"[87, 0, 167]",167,l,0.11255044175777584,colour,0.5
170,21,0,1,11,30,530,772.3432313299854,772.9512891748454,"[30, 0, 224]",224,a,0.08456337882671505,colour,0.5
170,21,0,1,11,31,531,773.4682312314981,774.0789471404278,"[1, 0, 253]",253,a,0.08720332593657076,colour,0.5
170,21,0,1,11,32,532,774.5934347512084,775.1190540143871,"[21, 0, 233]",233,a,0.0031243772245943546,colour,0.5
170,21,0,1,11,33,533,775.6404158064397,776.1988317751675,"[54, 0, 200]",200,a,0.03504162555327639,colour,0.5
170,21,0,1,11,34,534,776.7185595018091,777.6628362555639,"[10, 0, 244]",244,a,0.4207881953334436,colour,0.5
170,21,0,1,11,35,535,778.1718746184488,778.83888051752,"[71, 0, 183]",183,a,0.14364140201359987,colour,0.5
170,21,0,1,11,36,536,779.3594266553409,780.3188676466234,"[48, 0, 206]",206,a,0.43607137427898124,colour,0.5
170,21,0,1,11,37,537,780.8282998551731,781.4388578319922,"[82, 0, 172]",172,l,0.08741836564149708,colour,0.5
170,21,0,1,11,38,538,781.9533261443721,782.4948705547722,"[56, 0, 198]",198,a,0.018147618044167757,colour,0.5
170,21,0,1,11,39,539,783.0160220332909,784.2548035380314,"[73, 0, 181]",181,l,0.7154918383457698,colour,0.5
170,21,0,1,11,40,540,784.7661281747278,785.3268375063781,"[98, 0, 156]",156,l,0.03732868697261438,colour,0.5
170,21,0,1,11,41,541,785.8442947131116,786.5189069524058,"[58, 0, 196]",196,a,0.1513513236423023,colour,0.5
170,21,0,1,11,42,542,787.0194059548085,787.6388581470819,"[26, 0, 228]",228,a,0.09619560895953327,colour,0.5
170,21,0,1,11,43,543,788.1600820932072,788.8868560328847,"[20, 0, 234]",234,a,0.20335627353051677,colour,0.5
170,21,0,1,11,44,544,789.3946037637652,790.1108643887565,"[33, 0, 221]",221,a,0.19294575252570212,colour,0.5
170,21,0,1,11,45,545,790.6293597724871,791.2788714432972,"[86, 0, 168]",168,l,0.1266217577503994,colour,0.5
170,21,0,1,11,46,546,791.7852958529256,792.6628153817146,"[43, 0, 211]",211,a,0.3541601517936215,colour,0.5
170,21,0,1,11,47,547,793.176163597207,793.8069030108163,"[78, 0, 176]",176,l,0.10817560472059995,colour,0.5
170,21,0,1,11,48,548,794.3168889662484,795.2708346297732,"[27, 0, 227]",227,a,0.43064063717611134,colour,0.5
170,21,0,1,11,49,549,795.7857219938305,796.542840556358,"[16, 0, 238]",238,a,0.2337509147473611,colour,0.5
170,21,0,1,11,50,550,797.0513767661178,797.7908163868124,"[77, 0, 177]",177,l,0.21591246541356668,colour,0.5
170,21,0,1,12,1,551,802.7541922896053,803.6868226347724,"[65, 0, 189]",189,l,0.40828044642694294,colour,0.5
170,21,0,1,12,2,552,804.2082950975164,804.9428470942075,"[95, 0, 159]",159,l,0.21125602879328653,colour,0.5
170,21,0,1,12,3,553,805.4583575220313,806.3268508971669,"[13, 0, 241]",241,a,0.34511312429094687,colour,0.5
170,21,0,1,12,4,554,806.8334332388476,807.5748633552575,"[40, 0, 214]",214,a,0.2179490411072038,colour,0.5
170,21,0,1,12,5,555,808.0835752201965,808.6788267812226,"[44, 0, 210]",210,a,0.07187839940888807,colour,0.5
170,21,0,1,12,6,556,809.1930914754048,809.8388064745232,"[79, 0, 175]",175,l,0.12236861902056262,colour,0.5
170,21,0,1,12,7,557,810.3493595676846,810.9748182993499,"[24, 0, 230]",230,a,0.10208281315863132,colour,0.5
170,21,0,1,12,8,558,811.4900175891817,812.2867841954576,"[68, 0, 186]",186,l,0.27340959233697504,colour,0.5
170,21,0,1,12,9,559,812.8027487273212,813.4868754888885,"[49, 0, 205]",205,a,0.16087214747676626,colour,0.5
170,21,0,1,12,10,560,814.005936828733,814.7268011150882,"[61, 0, 193]",193,a,0.19756556150969118,colour,0.5
170,21,0,1,12,11,561,815.24032301642,815.8708080057986,"[82, 0, 172]",172,l,0.10389568447135389,colour,0.5
170,21,0,1,12,12,562,816.3843295132974,817.0147955981083,"[34, 0, 220]",220,a,0.10544310387922451,colour,0.5
170,21,0,1,12,13,563,817.5266767386347,818.2548232302652,"[6, 0, 248]",248,a,0.20469889318337664,colour,0.5
170,21,0,1,12,14,564,818.7612866305863,819.4307946307817,"[15, 0, 239]",239,a,0.1462191215250641,colour,0.5
170,21,0,1,12,15,565,819.9488016459509,820.5267838646541,"[53, 0, 201]",201,a,0.054544466373045,colour,0.5
170,21,0,1,12,16,566,821.0426664765691,821.6708021768718,"[31, 0, 223]",223,a,0.10479522781679407,colour,0.5
170,21,0,1,12,17,567,822.1833953902824,822.8068002170767,"[52, 0, 202]",202,a,0.10063385509420186,colour,0.5
170,21,0,1,12,18,568,823.3241034301464,823.9427951065591,"[7, 0, 247]",247,a,0.09536813932936639,colour,0.5
170,21,0,1,12,19,569,824.4491970669478,825.0947781585855,"[8, 0, 246]",246,a,0.12215869926149026,colour,0.5
170,21,0,1,12,20,570,825.6062276443699,826.1587820088607,"[73, 0, 181]",181,l,0.02923752280184999,colour,0.5
170,21,0,1,12,21,571,826.6687880504178,827.9427974696155,"[23, 0, 231]",231,a,0.7506831251666881,colour,0.5
170,21,0,1,12,22,572,828.4502427270636,828.998787349381,"[83, 0, 171]",171,l,0.02519942371873185,colour,0.5
170,21,0,1,12,23,573,829.5127432686277,830.0868126311107,"[48, 0, 206]",206,a,0.0506946254754439,colour,0.5
170,21,0,1,12,24,574,830.606563988491,831.3189003358129,"[41, 0, 213]",213,a,0.1889364041853696,colour,0.5
170,21,0,1,12,25,575,831.8157231832738,832.4308060523472,"[63, 0, 191]",191,a,0.09178296272875741,colour,0.5
170,21,0,1,12,26,576,832.9407675893744,833.5748042784398,"[26, 0, 228]",228,a,0.11061862902715802,colour,0.5
170,21,0,1,12,27,577,834.0816630997579,834.6627310987678,"[64, 0, 190]",190,a,0.05798155697993934,colour,0.5
170,21,0,1,12,28,578,835.1753073768341,835.8227450566483,"[45, 0, 209]",209,a,0.12404600746231154,colour,0.5
170,21,0,1,12,29,579,836.3316562074469,836.870765076601,"[47, 0, 207]",207,a,0.015803842805325985,colour,0.5
170,21,0,1,12,30,580,837.3785474658944,837.9187437428045,"[42, 0, 212]",212,a,0.017092899535782635,colour,0.5
170,21,0,1,12,31,581,838.4254627489136,839.1268115913845,"[75, 0, 179]",179,l,0.1779973423690535,colour,0.5
170,21,0,1,12,32,582,839.6444259424461,840.1987549752812,"[72, 0, 182]",182,l,0.03397194086574018,colour,0.5
170,21,0,1,12,33,583,840.7197497032466,841.3347624677699,"[93, 0, 161]",161,l,0.09166008286410943,colour,0.5
170,21,0,1,12,34,584,841.8449291983852,842.5107366252341,"[9, 0, 245]",245,a,0.14274107094388455,colour,0.5
170,21,0,1,12,35,585,843.016928665922,843.6307717089658,"[86, 0, 168]",168,l,0.09057740127900615,colour,0.5
170,21,0,1,12,36,586,844.1419277797686,844.7907643992221,"[5, 0, 249]",249,a,0.1255032362532802,colour,0.5
170,21,0,1,12,37,587,845.298269914987,845.9267297502374,"[80, 0, 174]",174,l,0.10504689521621913,colour,0.5
170,21,0,1,12,38,588,846.428240935842,847.0227477347944,"[99, 0, 155]",155,l,0.07135025237221271,colour,0.5
170,21,0,1,12,39,589,847.5376536096446,848.1667940100888,"[19, 0, 235]",235,a,0.10578811261802912,colour,0.5
170,21,0,1,12,40,590,848.6783777971868,849.3347589231562,"[88, 0, 166]",166,l,0.13320213020779192,colour,0.5
170,21,0,1,12,41,591,849.8503823847277,850.5347257613903,"[70, 0, 184]",184,a,0.16097769810585305,colour,0.5
170,21,0,1,12,42,592,851.0535488246824,851.7587853171281,"[14, 0, 240]",240,a,0.18181606935104355,colour,0.5
170,21,0,1,12,43,593,852.2724202522077,852.8627428353648,"[91, 0, 163]",163,l,0.06693839386571199,colour,0.5
170,21,0,1,12,44,594,853.3818246552255,853.9587533368613,"[29, 0, 225]",225,a,0.0534818708547391,colour,0.5
170,21,0,1,12,45,595,854.4756729443325,855.0707535763504,"[43, 0, 211]",211,a,0.07174173498060554,colour,0.5
170,21,0,1,12,46,596,855.585096251918,856.1267387299449,"[51, 0, 203]",203,a,0.018199999525677413,colour,0.5
170,21,0,1,12,47,597,856.6477464548079,857.9667586427531,"[17, 0, 237]",237,a,0.7955842817900702,colour,0.5
170,21,0,1,12,48,598,858.4759844762157,859.1507286537671,"[67, 0, 187]",187,l,0.15135604981333017,colour,0.5
170,21,0,1,12,49,599,859.6635625068448,861.5907495118445,"[74, 0, 180]",180,l,1.4038106926018372,colour,0.5
170,21,0,1,12,50,600,862.1012128081638,862.8627199923503,"[77, 0, 177]",177,l,0.23807021952234209,colour,0.5
170,21,0,1,13,1,601,867.3228364288225,868.1746953407419,"[29, 0, 225]",225,a,0.3276862436905503,colour,0.5
170,21,0,1,13,2,602,868.6831508121686,869.3826946601621,"[95, 0, 159]",159,l,0.17614311719080433,colour,0.5
170,21,0,1,13,3,603,869.9019793104962,870.6307130259811,"[37, 0, 217]",217,a,0.20537788304500282,colour,0.5
170,21,0,1,13,4,604,871.1520114089362,871.846691263665,"[32, 0, 222]",222,a,0.1712460409034975,colour,0.5
170,21,0,1,13,5,605,872.3552960025845,873.0387201435515,"[60, 0, 194]",194,a,0.16012502234661952,colour,0.5
170,21,0,1,13,6,606,873.5584616548149,874.1187180640409,"[68, 0, 186]",186,a,0.03680290310876444,colour,0.5
170,21,0,1,13,7,607,874.6366880577407,875.3187660344411,"[77, 0, 177]",177,l,0.1569935558945872,colour,0.5
170,21,0,1,13,8,608,875.8261018028134,876.4787410016288,"[55, 0, 199]",199,a,0.12929675716441125,colour,0.5
170,21,0,1,13,9,609,876.9980012335582,877.7027158805868,"[41, 0, 213]",213,a,0.18129304243484512,colour,0.5
170,21,0,1,13,10,610,878.2168714795262,878.8787302102428,"[52, 0, 202]",202,a,0.1389581838157028,colour,0.5
170,21,0,1,13,11,611,879.3887736671604,880.0307317730621,"[63, 0, 191]",191,a,0.11857627966674045,colour,0.5
170,21,0,1,13,12,612,880.5451343131717,881.1267076161457,"[99, 0, 155]",155,l,0.0584183317841962,colour,0.5
170,21,0,1,13,13,613,881.6389849653351,882.2947213660809,"[4, 0, 250]",250,a,0.1323687529657036,colour,0.5
170,21,0,1,13,14,614,882.810969860584,883.5027309255092,"[91, 0, 163]",163,a,0.1687459089444019,colour,0.5
170,21,0,1,13,15,615,884.0142225527088,884.6226746370667,"[16, 0, 238]",238,a,0.08515532879391685,colour,0.5
170,21,0,1,13,16,616,885.1392409650143,886.5827351475018,"[27, 0, 227]",227,a,0.9201021163025871,colour,0.5
170,21,0,1,13,17,617,887.0925013371161,888.2707621621666,"[62, 0, 192]",192,a,0.6548994787735865,colour,0.5
170,21,0,1,13,18,618,888.7801711338107,889.862673912372,"[49, 0, 205]",205,a,0.5594478441635147,colour,0.5
170,21,0,1,13,19,619,890.3740465982701,891.1187424825039,"[0, 0, 254]",254,a,0.2212825503665954,colour,0.5
170,21,0,1,13,20,620,891.6404193510534,892.3346943325014,"[33, 0, 221]",221,a,0.17092229978879914,colour,0.5
170,21,0,1,13,21,621,892.843755932292,893.3746944742743,"[86, 0, 168]",168,l,0.007662266376428306,colour,0.5
170,21,0,1,13,22,622,893.8904668094474,894.4786681401893,"[17, 0, 237]",237,a,0.06473285844549537,colour,0.5
170,21,0,1,13,23,623,895.0002170089283,895.5351463885163,"[35, 0, 219]",219,a,0.011601510166656226,colour,0.5
170,21,0,1,13,24,624,896.0471299288911,897.0947336540557,"[88, 0, 166]",166,l,0.5244042494450696,colour,0.5
170,21,0,1,13,25,625,897.6096615842544,898.646679133235,"[87, 0, 167]",167,l,0.5136691996594891,colour,0.5
170,21,0,1,13,26,626,899.1566540609929,899.9026602695812,"[45, 0, 209]",209,a,0.22264092386467382,colour,0.5
170,21,0,1,13,27,627,900.4223879962228,901.2867255124729,"[61, 0, 193]",193,a,0.3409383607795462,colour,0.5
170,21,0,1,13,28,628,901.7975070360699,902.5747365370044,"[54, 0, 200]",200,a,0.25389572384301573,colour,0.5
170,21,0,1,13,29,629,903.0944355129031,903.8386969854473,"[12, 0, 242]",242,a,0.2210052830632776,colour,0.5
170,21,0,1,13,30,630,904.3601848081453,905.0068245567381,"[74, 0, 180]",180,l,0.12327958387322724,colour,0.5
170,21,0,1,13,31,631,905.5165336387581,906.1747146392008,"[96, 0, 158]",158,l,0.1348157157190144,colour,0.5
170,21,0,1,13,32,632,906.6884704848053,907.4066731625353,"[92, 0, 162]",162,l,0.19478973769582808,colour,0.5
170,21,0,1,13,33,633,907.913630445255,908.6066463022144,"[79, 0, 175]",175,l,0.16969743988011032,colour,0.5
170,21,0,1,13,34,634,909.1169288234669,909.7746821075561,"[76, 0, 178]",178,l,0.13445377163589,colour,0.5
170,21,0,1,13,35,635,910.290779365343,910.926667522639,"[20, 0, 234]",234,a,0.1124752172618173,colour,0.5
170,21,0,1,13,36,636,911.4470959006576,912.1907008325215,"[22, 0, 232]",232,a,0.22014394268626347,colour,0.5
170,21,0,1,13,37,637,912.697246940399,913.8227501766523,"[59, 0, 195]",195,a,0.6021233792416751,colour,0.5
170,21,0,1,13,38,638,914.3379400142003,915.0066331477719,"[23, 0, 231]",231,a,0.14531682117376477,colour,0.5
170,21,0,1,13,39,639,915.525581060152,916.0946355864871,"[48, 0, 206]",206,a,0.04573335236636922,colour,0.5
170,21,0,1,13,40,640,916.6038058876875,917.3426259892294,"[40, 0, 214]",214,a,0.21550680446671322,colour,0.5
170,21,0,1,13,41,641,917.8538946998888,918.4626476822887,"[3, 0, 251]",251,a,0.08535107003990561,colour,0.5
170,21,0,1,13,42,642,918.9790533211781,919.6066199145862,"[44, 0, 210]",210,a,0.10443249606760219,colour,0.5
170,21,0,1,13,43,643,920.119724733464,920.7106294204132,"[24, 0, 230]",230,a,0.06760753755224869,colour,0.5
170,21,0,1,13,44,644,921.2292153886519,921.9266478303471,"[18, 0, 236]",236,a,0.17469652224099264,colour,0.5
170,21,0,1,13,45,645,922.4325161299785,923.0786942915292,"[70, 0, 184]",184,l,0.12280972610460594,colour,0.5
170,21,0,1,13,46,646,923.5888161237235,924.2226657361607,"[78, 0, 176]",176,l,0.11138938489602879,colour,0.5
170,21,0,1,13,47,647,924.7295332220965,925.3826434602379,"[90, 0, 164]",164,l,0.1297193534555845,colour,0.5
170,21,0,1,13,48,648,925.9014326527831,926.5507194377715,"[85, 0, 169]",169,l,0.1258454880444333,colour,0.5
170,21,0,1,13,49,649,927.057815748034,927.7506654021563,"[2, 0, 252]",252,a,0.1694603448268026,colour,0.5
170,21,0,1,13,50,650,928.2610274801846,929.0066422062228,"[11, 0, 243]",243,a,0.2224069795338437,colour,0.5
170,21,0,1,14,1,651,933.7450251391856,934.2946244800696,"[47, 0, 207]",207,a,0.025535767897963524,colour,0.5
170,21,0,1,14,2,652,934.8084468856105,936.5746754909051,"[24, 0, 230]",230,a,1.2428916774806567,colour,0.5
170,21,0,1,14,3,653,937.0898991991417,937.6866363458103,"[94, 0, 160]",160,l,0.07342345570214093,colour,0.5
170,21,0,1,14,4,654,938.1993288083468,938.8466353375698,"[12, 0, 242]",242,a,0.12392549071228132,colour,0.5
170,21,0,1,14,5,655,939.3556827589637,939.9106230401667,"[31, 0, 223]",223,a,0.03164470719639212,colour,0.5
170,21,0,1,14,6,656,940.4182207158301,941.0306281916564,"[17, 0, 237]",237,a,0.08900674502365291,colour,0.5
170,21,0,1,14,7,657,941.5433793371194,942.6386147504672,"[40, 0, 214]",214,a,0.5719819807563908,colour,0.5
170,21,0,1,14,8,658,943.1529239492374,943.6786121353507,"[0, 0, 254]",254,a,0.002418999734800309,colour,0.5
170,21,0,1,14,9,659,944.1997943338356,944.8146401078557,"[56, 0, 198]",198,a,0.0914572523906827,colour,0.5
170,21,0,1,14,10,660,945.3125653291354,945.8706823690445,"[80, 0, 174]",174,l,0.034885662666056305,colour,0.5
170,21,0,1,14,11,661,946.390724384517,946.9906079637585,"[33, 0, 221]",221,a,0.07660927285905927,colour,0.5
170,21,0,1,14,12,662,947.5002319751075,948.0306451270008,"[6, 0, 248]",248,a,0.00703920261003077,colour,0.5
170,21,0,1,14,13,663,948.5471055104863,949.0946308603161,"[10, 0, 244]",244,a,0.024274674186017364,colour,0.5
170,21,0,1,14,14,664,949.6097683163825,950.1825872191112,"[74, 0, 180]",180,l,0.049501273315399885,colour,0.5
170,21,0,1,14,15,665,950.7042542415438,951.2466619615443,"[15, 0, 239]",239,a,0.019116478273645043,colour,0.5
170,21,0,1,14,16,666,951.7667898353538,952.3186124346685,"[30, 0, 224]",224,a,0.02840257005300373,colour,0.5
170,21,0,1,14,17,667,952.8293321245001,953.7586072988925,"[96, 0, 158]",158,l,0.40585278207436204,colour,0.5
170,21,0,1,14,18,668,954.2668658475159,954.8786541980808,"[19, 0, 235]",235,a,0.08826316450722516,colour,0.5
170,21,0,1,14,19,669,955.392078425677,956.0465950865764,"[1, 0, 253]",253,a,0.13120848377002403,colour,0.5
170,21,0,1,14,20,670,956.5640652901493,957.1585894183372,"[86, 0, 168]",168,l,0.07123564335051924,colour,0.5
170,21,0,1,14,21,671,957.6734429117059,959.6225982310134,"[61, 0, 193]",193,l,1.42569511779584,colour,0.5
170,21,0,1,14,22,672,960.1423968498711,960.8625746633043,"[48, 0, 206]",206,a,0.1967948056408204,colour,0.5
170,21,0,1,14,23,673,961.3768362067058,962.1585807537194,"[82, 0, 172]",172,l,0.25828946550609544,colour,0.5
170,21,0,1,14,24,674,962.6739021356916,963.5186092051445,"[64, 0, 190]",190,a,0.32167970429873094,colour,0.5
170,21,0,1,14,25,675,964.0362641223473,964.9746001088643,"[23, 0, 231]",231,a,0.41500063409330323,colour,0.5
170,21,0,1,14,26,676,965.4781986761955,966.6066120376927,"[66, 0, 188]",188,l,0.605586857534945,colour,0.5
170,21,0,1,14,27,677,967.1190177805838,968.046583271178,"[54, 0, 200]",200,a,0.40437586104962975,colour,0.5
170,21,0,1,14,28,678,968.5565991589101,969.4385927739204,"[36, 0, 218]",218,a,0.35861493955599144,colour,0.5
170,21,0,1,14,29,679,969.9473148788093,970.7825818628189,"[13, 0, 241]",241,a,0.31185325630940497,colour,0.5
170,21,0,1,14,30,680,971.2912322877673,972.2545723506482,"[35, 0, 219]",219,a,0.44000471039908007,colour,0.5
170,21,0,1,14,31,681,972.7756493923371,973.6466224194155,"[93, 0, 161]",161,l,0.34759789623785764,colour,0.5
170,21,0,1,14,32,682,974.1664013460395,975.0145821337355,"[76, 0, 178]",178,l,0.3247351584723219,colour,0.5
170,21,0,1,14,33,683,975.5265711880056,976.4465567260049,"[43, 0, 211]",211,a,0.39702827733708546,colour,0.5
170,21,0,1,14,34,684,976.9642065232038,977.9026433342369,"[41, 0, 213]",213,a,0.4153243752080016,colour,0.5
170,21,0,1,14,35,685,978.4174956460483,979.3748358648736,"[53, 0, 201]",201,a,0.4309911597520113,colour,0.5
170,21,0,1,14,36,686,979.8889335684944,980.8145648833015,"[9, 0, 245]",245,a,0.4030549028539099,colour,0.5
170,21,0,1,14,37,687,981.3266145897796,982.2065483921906,"[75, 0, 179]",179,l,0.3565889976453036,colour,0.5
170,21,0,1,14,38,688,982.7188525229576,983.6545847961679,"[55, 0, 199]",199,a,0.4222225810517557,colour,0.5
170,21,0,1,14,39,689,984.1628122309921,985.0786123716389,"[92, 0, 162]",162,l,0.39246793900383636,colour,0.5
170,21,0,1,14,40,690,985.5877740082797,986.5345548323821,"[62, 0, 192]",192,a,0.4242540367413312,colour,0.5
170,21,0,1,14,41,691,987.0438700687955,987.9585670478991,"[90, 0, 164]",164,l,0.3914329127292149,colour,0.5
170,21,0,1,14,42,692,988.4658338932786,989.4465508183348,"[68, 0, 186]",186,l,0.45727168972371146,colour,0.5
170,21,0,1,14,43,693,989.9659729207633,990.9265726058511,"[97, 0, 157]",157,l,0.43725409265607595,colour,0.5
170,21,0,1,14,44,694,991.434753566864,992.3025699214195,"[46, 0, 208]",208,a,0.3443951437366195,colour,0.5
170,21,0,1,14,45,695,992.8099202620215,993.7425553333596,"[63, 0, 191]",191,a,0.40928750968305394,colour,0.5
170,21,0,1,14,46,696,994.2631786648999,995.150527004851,"[5, 0, 249]",249,a,0.36457382363732904,colour,0.5
170,21,0,1,14,47,697,995.669500123302,996.574579392618,"[44, 0, 210]",210,a,0.3817194984294474,colour,0.5
170,21,0,1,14,48,698,997.09349304036,997.9505180251435,"[70, 0, 184]",184,l,0.33384283824125305,colour,0.5
170,21,0,1,14,49,699,998.4684234281303,999.4065372857731,"[79, 0, 175]",175,l,0.42418196296785027,colour,0.5
170,21,0,1,14,50,700,999.9278959271032,1000.8306010950473,"[88, 0, 166]",166,l,0.3794422830687836,colour,0.5
170,21,0,1,15,1,701,1005.307487477723,1006.3265819005901,"[45, 0, 209]",209,a,0.5032567093148828,colour,0.5
170,21,0,1,15,2,702,1006.8469311156077,1007.8065800574259,"[56, 0, 198]",198,a,0.4362820817041211,colour,0.5
170,21,0,1,15,3,703,1008.3158117985004,1009.198523394065,"[35, 0, 219]",219,a,0.3593360708327964,colour,0.5
170,21,0,1,15,4,704,1009.7064601707971,1010.7585482220748,"[14, 0, 240]",240,a,0.5285967359668575,colour,0.5
170,21,0,1,15,5,705,1011.2692111981451,1012.1985931047238,"[19, 0, 235]",235,a,0.4061249294318259,colour,0.5
170,21,0,1,15,6,706,1012.7067327119876,1013.5985401718644,"[47, 0, 207]",207,a,0.36829408921767026,colour,0.5
170,21,0,1,15,7,707,1014.1132152531645,1015.0145037584589,"[7, 0, 247]",247,a,0.37775504851015285,colour,0.5
170,21,0,1,15,8,708,1015.5356127016712,1016.3905577877886,"[4, 0, 250]",250,a,0.33161682286299765,colour,0.5
170,21,0,1,15,9,709,1016.9107246522908,1017.8065615466912,"[89, 0, 165]",165,l,0.3724991788621992,colour,0.5
170,21,0,1,15,10,710,1018.3171170029091,1019.2785079238238,"[64, 0, 190]",190,a,0.43807801767252386,colour,0.5
170,21,0,1,15,11,711,1019.7859291566419,1020.7105289897881,"[6, 0, 248]",248,a,0.40126684377901256,colour,0.5
170,21,0,1,15,12,712,1021.2235479503288,1022.118643233378,"[46, 0, 208]",208,a,0.37203641020460054,colour,0.5
170,21,0,1,15,13,713,1022.6298635010025,1023.5265963941347,"[78, 0, 176]",176,l,0.37337942380690947,colour,0.5
170,21,0,1,15,14,714,1024.0363113838248,1024.926487141347,"[63, 0, 191]",191,a,0.36588611715706065,colour,0.5
170,21,0,1,15,15,715,1025.4437025268562,1026.3184706502361,"[37, 0, 217]",217,a,0.351778173528146,colour,0.5
170,21,0,1,15,16,716,1026.8343902836787,1027.5825327108614,"[95, 0, 159]",159,l,0.22472830559127033,colour,0.5
170,21,0,1,15,17,717,1028.1002148034167,1028.9665420276579,"[83, 0, 171]",171,l,0.34307812398765236,colour,0.5
170,21,0,1,15,18,718,1029.4752716156654,1030.2304808145855,"[39, 0, 215]",215,a,0.2318742403294891,colour,0.5
170,21,0,1,15,19,719,1030.7409527755808,1031.38247410662,"[84, 0, 170]",170,l,0.11814501864137128,colour,0.5
170,21,0,1,15,20,720,1031.8972988493042,1032.6384989598882,"[38, 0, 216]",216,a,0.21778283827006817,colour,0.5
170,21,0,1,15,21,721,1033.1474018399022,1033.9425272915396,"[69, 0, 185]",185,l,0.27176331769442186,colour,0.5
170,21,0,1,15,22,722,1034.4600073412876,1035.1745342579088,"[5, 0, 249]",249,a,0.19122267793864012,colour,0.5
170,21,0,1,15,23,723,1035.6945420087432,1036.3984622692224,"[79, 0, 175]",175,l,0.1807684400700964,colour,0.5
170,21,0,1,15,24,724,1036.9132842549589,1037.6864748691441,"[91, 0, 163]",163,l,0.249771372647956,colour,0.5
170,21,0,1,15,25,725,1038.1946865501232,1039.1024742957088,"[72, 0, 182]",182,l,0.3845339192193933,colour,0.5
170,21,0,1,15,26,726,1039.6167385959998,1040.4464984368533,"[12, 0, 242]",242,a,0.30641464225482196,colour,0.5
170,21,0,1,15,27,727,1040.9605512421113,1041.694525861123,"[44, 0, 210]",210,a,0.2107511187205091,colour,0.5
170,21,0,1,15,28,728,1042.2107058264664,1042.8865708886879,"[16, 0, 238]",238,a,0.15271875564940274,colour,0.5
170,21,0,1,15,29,729,1043.3982740110368,1044.0865349699743,"[71, 0, 183]",183,l,0.16523989528650418,colour,0.5
170,21,0,1,15,30,730,1044.6013979156269,1045.3264885591925,"[76, 0, 178]",178,l,0.20228028733981773,colour,0.5
170,21,0,1,15,31,731,1045.835890047776,1046.5744687219849,"[97, 0, 157]",157,l,0.2152783740311861,colour,0.5
170,21,0,1,15,32,732,1047.0859761030297,1047.7985018900945,"[57, 0, 197]",197,a,0.1891522315563634,colour,0.5
170,21,0,1,15,33,733,1048.3047884537373,1049.2224692071904,"[73, 0, 181]",181,l,0.3942914441577159,colour,0.5
170,21,0,1,15,34,734,1049.7439263099222,1050.3904431787087,"[74, 0, 180]",180,l,0.12318584864260629,colour,0.5
170,21,0,1,15,35,735,1050.9003472143086,1051.486446984869,"[43, 0, 211]",211,a,0.06275811657542363,colour,0.5
170,21,0,1,15,36,736,1051.9940789251123,1052.6624845514307,"[81, 0, 173]",173,l,0.14506672928109765,colour,0.5
170,21,0,1,15,37,737,1053.1816927957116,1053.8784556998871,"[59, 0, 195]",195,a,0.17340667790267617,colour,0.5
170,21,0,1,15,38,738,1054.3848470264347,1055.134470313089,"[25, 0, 229]",229,a,0.22612566978204995,colour,0.5
170,21,0,1,15,39,739,1055.6525604297058,1056.358475912013,"[33, 0, 221]",221,a,0.18261045595863834,colour,0.5
170,21,0,1,15,40,740,1056.8714094080497,1057.510471173271,"[70, 0, 184]",184,l,0.11569490510737523,colour,0.5
170,21,0,1,15,41,741,1058.0280776474392,1058.7265143954428,"[85, 0, 169]",169,l,0.1752349091693759,colour,0.5
170,21,0,1,15,42,742,1059.2468923612032,1059.8864582488313,"[90, 0, 164]",164,l,0.1161895752302371,colour,0.5
170,21,0,1,15,43,743,1060.4034526869655,1061.0704534659744,"[41, 0, 213]",213,a,0.14381902635795996,colour,0.5
170,21,0,1,15,44,744,1061.5920362054603,1062.2624799828045,"[21, 0, 233]",233,a,0.14669134240830317,colour,0.5
170,21,0,1,15,45,745,1062.7809249543352,1063.4544454535935,"[20, 0, 234]",234,a,0.15016781765734777,colour,0.5
170,21,0,1,15,46,746,1063.9684679327183,1064.6064608009765,"[34, 0, 220]",220,a,0.1145972574595362,colour,0.5
170,21,0,1,15,47,747,1065.124884898658,1065.798444782442,"[9, 0, 245]",245,a,0.15035725734196603,colour,0.5
170,21,0,1,15,48,748,1066.3124097601394,1066.9984529744834,"[60, 0, 194]",194,a,0.1627968709799461,colour,0.5
170,21,0,1,15,49,749,1067.515625824628,1068.1504643833614,"[1, 0, 253]",253,a,0.11143388948403299,colour,0.5
170,21,0,1,15,50,750,1068.6719762306311,1069.3424239464803,"[51, 0, 203]",203,a,0.14705958805279806,colour,0.5
170,21,0,1,16,1,751,1073.9091646298184,1075.0944607190322,"[21, 0, 233]",233,a,0.66112578404136,colour,0.5
170,21,0,1,16,2,752,1075.6132829946,1076.366486337909,"[14, 0, 240]",240,a,0.22988453233847395,colour,0.5
170,21,0,1,16,3,753,1076.8812468837132,1077.5504433520255,"[48, 0, 206]",206,a,0.14583669742569327,colour,0.5
170,21,0,1,16,4,754,1078.068812311336,1078.7184259881615,"[52, 0, 202]",202,a,0.13861041818745434,colour,0.5
170,21,0,1,16,5,755,1079.2284072174807,1079.9264733567252,"[45, 0, 209]",209,a,0.17499663261696696,colour,0.5
170,21,0,1,16,6,756,1080.4316217065789,1081.0544456111384,"[86, 0, 168]",168,l,0.09636496257735416,colour,0.5
170,21,0,1,16,7,757,1081.575425766816,1082.2704864702537,"[76, 0, 178]",178,l,0.1717324402416125,colour,0.5
170,21,0,1,16,8,758,1082.7786567974254,1083.4384431125363,"[11, 0, 243]",243,a,0.13676131301326677,colour,0.5
170,21,0,1,16,9,759,1083.9506149111548,1084.7024701209157,"[57, 0, 197]",197,a,0.22853049112018198,colour,0.5
170,21,0,1,16,10,760,1085.216374446347,1085.918436149368,"[31, 0, 223]",223,a,0.17870862752897665,colour,0.5
170,21,0,1,16,11,761,1086.4352836830658,1087.0144269585726,"[89, 0, 165]",165,l,0.05616395949618891,colour,0.5
170,21,0,1,16,12,762,1087.5290299661574,1088.494458986097,"[43, 0, 211]",211,a,0.4425981836975552,colour,0.5
170,21,0,1,16,13,763,1089.013482122973,1090.0464422744699,"[1, 0, 253]",253,a,0.5095913221593946,colour,0.5
170,21,0,1,16,14,764,1090.5605376150343,1091.3264223931474,"[13, 0, 241]",241,a,0.24261165328789502,colour,0.5
170,21,0,1,16,15,765,1091.8419005256146,1092.494398333889,"[91, 0, 163]",163,l,0.12917505885707214,colour,0.5
170,21,0,1,16,16,766,1093.0138078333111,1093.742436785833,"[38, 0, 216]",216,a,0.2052821785910055,colour,0.5
170,21,0,1,16,17,767,1094.2639021592913,1094.8383866351214,"[85, 0, 169]",169,l,0.051097135758027434,colour,0.5
170,21,0,1,16,18,768,1095.3577823499218,1096.030406456557,"[3, 0, 251]",251,a,0.14925330807454884,colour,0.5
170,21,0,1,16,19,769,1096.5453647128888,1097.2143945844728,"[32, 0, 222]",222,a,0.14595760800875723,colour,0.5
170,21,0,1,16,20,770,1097.7329466819647,1098.4783699990367,"[69, 0, 185]",185,l,0.22205921384738758,colour,0.5
170,21,0,1,16,21,771,1098.9995856744354,1099.8543858253397,"[62, 0, 192]",192,a,0.3314088723855093,colour,0.5
170,21,0,1,16,22,772,1100.3746566650807,1101.0943598945742,"[55, 0, 199]",199,a,0.196289895568043,colour,0.5
170,21,0,1,16,23,773,1101.6091149265412,1102.24640990037,"[63, 0, 191]",191,a,0.11385013232938945,colour,0.5
170,21,0,1,16,24,774,1102.7655015663477,1103.3743868808378,"[10, 0, 244]",244,a,0.08555547590367496,colour,0.5
170,21,0,1,16,25,775,1103.890559757012,1104.542425443069,"[99, 0, 155]",155,l,0.12879302859073505,colour,0.5
170,21,0,1,16,26,776,1105.0625418953132,1105.654370150296,"[50, 0, 204]",204,a,0.06844130874378607,colour,0.5
170,21,0,1,16,27,777,1106.1720585443545,1106.7823652477236,"[27, 0, 227]",227,a,0.08694023708812892,colour,0.5
170,21,0,1,16,28,778,1107.2970482059172,1107.8303809353383,"[12, 0, 242]",242,a,0.00985913717886433,colour,0.5
170,21,0,1,16,29,779,1108.3440481657744,1109.0224141475628,"[46, 0, 208]",208,a,0.1551097923074849,colour,0.5
170,21,0,1,16,30,780,1109.531652977923,1110.1264134134399,"[98, 0, 156]",156,l,0.07136482471833006,colour,0.5
170,21,0,1,16,31,781,1110.6410156333004,1111.9504026283976,"[73, 0, 181]",181,l,0.7859149781870656,colour,0.5
170,21,0,1,16,32,782,1112.4693666883977,1113.182370997849,"[74, 0, 180]",180,l,0.18965950468555093,colour,0.5
170,21,0,1,16,33,783,1113.7038273129147,1117.0464194313972,"[72, 0, 182]",182,l,2.8191429446451366,colour,0.5
170,21,0,1,16,34,784,1117.5635406877846,1118.238474305137,"[78, 0, 176]",176,l,0.15150925575289875,colour,0.5
170,21,0,1,16,35,785,1118.7510230140178,1119.3343674406642,"[54, 0, 200]",200,a,0.059898403589613736,colour,0.5
170,21,0,1,16,36,786,1119.8449347122223,1120.510371136479,"[65, 0, 189]",189,a,0.14225270238239318,colour,0.5
170,21,0,1,16,37,787,1121.0169219705276,1121.5824346432928,"[4, 0, 250]",250,a,0.042111548071261495,colour,0.5
170,21,0,1,16,38,788,1122.0951074135373,1122.7183547021123,"[5, 0, 249]",249,a,0.10010925278766081,colour,0.5
170,21,0,1,16,39,789,1123.235818604182,1123.87842025375,"[16, 0, 238]",238,a,0.11925763252656907,colour,0.5
170,21,0,1,16,40,790,1124.392197367095,1124.9504187760758,"[0, 0, 254]",254,a,0.03340244013816118,colour,0.5
170,21,0,1,16,41,791,1125.4720239647431,1126.7023492103326,"[87, 0, 167]",167,l,0.7070115546812303,colour,0.5
170,21,0,1,16,42,792,1127.2221852444927,1127.798384524067,"[47, 0, 207]",207,a,0.052832025627139956,colour,0.5
170,21,0,1,16,43,793,1128.3159685490537,1128.9184014909551,"[95, 0, 159]",159,l,0.0790247279801406,colour,0.5
170,21,0,1,16,44,794,1129.425494650437,1130.3983795616077,"[39, 0, 215]",215,a,0.44956570642534643,colour,0.5
170,21,0,1,16,45,795,1130.9098873365438,1131.806385497679,"[96, 0, 158]",158,l,0.37309034110512584,colour,0.5
170,21,0,1,16,46,796,1132.3163147393498,1132.8943784840521,"[7, 0, 247]",247,a,0.0546988538117148,colour,0.5
170,21,0,1,16,47,797,1133.410139003885,1134.3743656132137,"[19, 0, 235]",235,a,0.4408168200752698,colour,0.5
170,21,0,1,16,48,798,1134.895730162214,1135.4943703708705,"[60, 0, 194]",194,a,0.07554273895220831,colour,0.5
170,21,0,1,16,49,799,1136.0051440175157,1136.6703843066934,"[20, 0, 234]",234,a,0.14190454286290333,colour,0.5
170,21,0,1,16,50,800,1137.1771261558752,1137.8223157649627,"[81, 0, 173]",173,l,0.12188733968650922,colour,0.5
