id,age,condition,counterbalance,block,trialinblock,trial,tstart,tend,trialstim,trialintensity,response,RT,trialtype,colourfreq
71,64,0,2,Practice,1,NA,5.907611921429634e-06,6.691403817618266,"[25, 0, 229]",229,a,6.167088409187272,colour,0.5
71,64,0,2,Practice,2,NA,7.203832585830241,9.299440070288256,"[69, 0, 185]",185,a,1.5723613654263318,colour,0.5
71,64,0,2,Practice,3,NA,9.813298496417701,11.5554453227669,"[7, 0, 247]",247,a,1.2189333965070546,colour,0.5
71,64,0,2,Practice,4,NA,12.052145885070786,13.779435690725222,"[78, 0, 176]",176,a,1.203897570259869,colour,0.5
71,64,0,2,Practice,5,NA,14.286546367919073,16.051409394480288,"[64, 0, 190]",190,a,1.2415613753255457,colour,0.5
71,64,0,2,Practice,6,NA,16.568158644018695,18.211445612600073,"[63, 0, 191]",191,a,1.1203968855552375,colour,0.5
71,64,0,2,Practice,7,NA,18.723992140498012,21.82769747497514,"[2, 0, 252]",252,a,2.580413529649377,colour,0.5
71,64,0,2,Practice,8,NA,22.3490196603816,23.803502386203036,"[76, 0, 178]",178,a,0.9313685449305922,colour,0.5
71,64,0,2,Practice,9,NA,24.318811343749985,25.875420478871092,"[11, 0, 243]",243,a,1.031981407199055,colour,0.5
71,64,0,2,Practice,10,NA,26.38253824529238,27.899393439060077,"[38, 0, 216]",216,a,0.9936334930825979,colour,0.5
71,64,0,2,1,1,1,5.628029013751075,6.559931218856946,"[64, 0, 190]",190,a,0.40774394082836807,colour,0.5
71,64,0,2,1,2,2,7.066413712920621,7.823886629194021,"[55, 0, 199]",199,a,0.23363287863321602,colour,0.5
71,64,0,2,1,3,3,8.332888550823554,9.239914708770812,"[22, 0, 232]",232,a,0.38255675602704287,colour,0.5
71,64,0,2,1,4,4,9.758752125315368,10.479906217660755,"[32, 0, 222]",222,a,0.1978670135140419,colour,0.5
71,64,0,2,1,5,5,10.993214441929013,11.807909119408578,"[38, 0, 216]",216,a,0.2893269145861268,colour,0.5
71,64,0,2,1,6,6,12.323418938089162,13.447868884308264,"[53, 0, 201]",201,a,0.601307014701888,colour,0.5
71,64,0,2,1,7,7,13.96471423190087,16.527932088356465,"[96, 0, 158]",158,l,2.039832710288465,colour,0.5
71,64,0,2,1,8,8,17.042805059580132,18.42388213938102,"[97, 0, 157]",157,l,0.857791576301679,colour,0.5
71,64,0,2,1,9,9,18.93455869052559,19.943881005281582,"[12, 0, 242]",242,a,0.485990337561816,colour,0.5
71,64,0,2,1,10,10,20.44340149872005,21.767927535576746,"[56, 0, 198]",198,a,0.8012901579495519,colour,0.5
71,64,0,2,1,11,11,22.28705836669542,23.407923927996308,"[37, 0, 217]",217,a,0.597545005613938,colour,0.5
71,64,0,2,1,12,12,23.913969254121184,25.119983742013574,"[27, 0, 227]",227,a,0.682741193799302,colour,0.5
71,64,0,2,1,13,13,25.62393420585431,26.783826670376584,"[34, 0, 220]",220,a,0.6365793920122087,colour,0.5
71,64,0,2,1,14,14,27.295781642664224,28.66407450917177,"[92, 0, 162]",162,l,0.8449384400155395,colour,0.5
71,64,0,2,1,15,15,29.17079291655682,30.31198009988293,"[85, 0, 169]",169,l,0.6177831324748695,colour,0.5
71,64,0,2,1,16,16,30.82709292252548,32.015838482417166,"[50, 0, 204]",204,a,0.6654517855495214,colour,0.5
71,64,0,2,1,17,17,32.53014667960815,33.69589877221733,"[18, 0, 236]",236,a,0.6425067612435669,colour,0.5
71,64,0,2,1,18,18,34.18958366243169,35.343872104305774,"[48, 0, 206]",206,a,0.6311813504435122,colour,0.5
71,64,0,2,1,19,19,35.86144330841489,36.943812476238236,"[66, 0, 188]",188,a,0.5590316767338663,colour,0.5
71,64,0,2,1,20,20,37.45525151141919,38.471810336690396,"[23, 0, 231]",231,a,0.49342731526121497,colour,0.5
71,64,0,2,1,21,21,38.98644345626235,40.0958359146025,"[99, 0, 155]",155,l,0.5860939580015838,colour,0.5
71,64,0,2,1,22,22,40.61147294542752,41.751836204435676,"[15, 0, 239]",239,a,0.617068697232753,colour,0.5
71,64,0,2,1,23,23,42.26767015783116,42.94379120855592,"[7, 0, 247]",247,a,0.15283830417320132,colour,0.5
71,64,0,2,1,24,24,43.45516525930725,44.55980676389299,"[87, 0, 167]",167,l,0.581454856088385,colour,0.5
71,64,0,2,1,25,25,45.08016717946157,45.92789364908822,"[54, 0, 200]",200,a,0.3243799202609807,colour,0.5
71,64,0,2,1,26,26,46.439561114646494,47.67181671713479,"[65, 0, 189]",189,a,0.7091945908032358,colour,0.5
71,64,0,2,1,27,27,48.18957342230715,49.0317577032838,"[81, 0, 173]",173,l,0.31918273982591927,colour,0.5
71,64,0,2,1,28,28,49.54897169000469,50.72783449362032,"[57, 0, 197]",197,a,0.6556139278691262,colour,0.5
71,64,0,2,1,29,29,51.236437843879685,52.26381244463846,"[35, 0, 219]",219,a,0.5041060326620936,colour,0.5
71,64,0,2,1,30,30,52.78322763182223,53.76779717276804,"[59, 0, 195]",195,a,0.4612734036054462,colour,0.5
71,64,0,2,1,31,31,54.28108216030523,55.41582840005867,"[78, 0, 176]",176,l,0.6112551491241902,colour,0.5
71,64,0,2,1,32,32,55.92185639683157,56.91201814520173,"[39, 0, 215]",215,a,0.4669231122825295,colour,0.5
71,64,0,2,1,33,33,57.421847929246724,58.311757183400914,"[25, 0, 229]",229,a,0.36669661197811365,colour,0.5
71,64,0,2,1,34,34,58.82812322140671,59.66407805378549,"[29, 0, 225]",225,a,0.3126594827044755,colour,0.5
71,64,0,2,1,35,35,60.17180470470339,61.13575527095236,"[58, 0, 196]",196,a,0.4407402870710939,colour,0.5
71,64,0,2,1,36,36,61.6562133601401,62.415737028000876,"[93, 0, 161]",161,l,0.2364854991901666,colour,0.5
71,64,0,2,1,37,37,62.92177132633515,63.9597478446085,"[17, 0, 237]",237,a,0.5146969223860651,colour,0.5
71,64,0,2,1,38,38,64.46866469550878,65.54378986940719,"[40, 0, 214]",214,a,0.5518518795724958,colour,0.5
71,64,0,2,1,39,39,66.062407520134,67.08776051388122,"[41, 0, 213]",213,a,0.5020044748671353,colour,0.5
71,64,0,2,1,40,40,67.60926071717404,68.35974366986193,"[91, 0, 163]",163,l,0.22714940016157925,colour,0.5
71,64,0,2,1,41,41,68.87492108321749,69.98403706238605,"[80, 0, 174]",174,l,0.5858056633733213,colour,0.5
71,64,0,2,1,42,42,70.50215689302422,71.17573094693944,"[45, 0, 209]",209,a,0.15030154748819768,colour,0.5
71,64,0,2,1,43,43,71.69024315592833,72.65591325005516,"[70, 0, 184]",184,a,0.4433593573048711,colour,0.5
71,64,0,2,1,44,44,73.17397164087743,74.10370139614679,"[49, 0, 205]",205,a,0.4068030449561775,colour,0.5
71,64,0,2,1,45,45,74.61138590564951,75.41568543436006,"[52, 0, 202]",202,a,0.28092383476905525,colour,0.5
71,64,0,2,1,46,46,75.92395441001281,76.94372228556313,"[71, 0, 183]",183,a,0.4965205751359463,colour,0.5
71,64,0,2,1,47,47,77.45511287800036,78.27182167954743,"[21, 0, 233]",233,a,0.29342841799370944,colour,0.5
71,64,0,2,1,48,48,78.78327174251899,79.47999443882145,"[24, 0, 230]",230,a,0.17302798782475293,colour,0.5
71,64,0,2,1,49,49,79.98676247079857,80.86369964736514,"[36, 0, 218]",218,a,0.3536504916846752,colour,0.5
71,64,0,2,1,50,50,81.37735563702881,82.17568407952785,"[8, 0, 246]",246,a,0.27494250843301415,colour,0.5
71,64,0,2,2,1,51,102.61405696347356,103.71998200914823,"[8, 0, 246]",246,a,0.5818242828827351,colour,0.5
71,64,0,2,2,2,52,104.23984066606499,105.83995432965457,"[75, 0, 179]",179,l,1.0769833351951092,colour,0.5
71,64,0,2,2,3,53,106.34326637047343,107.09636918106116,"[14, 0, 240]",240,a,0.22977634728886187,colour,0.5
71,64,0,2,2,4,54,107.60882827523164,108.26363009423949,"[44, 0, 210]",210,a,0.13143006339669228,colour,0.5
71,64,0,2,2,5,55,108.78069205675274,109.44766841712408,"[33, 0, 221]",221,a,0.14367825374938548,colour,0.5
71,64,0,2,2,6,56,109.94320004689507,110.97564934240654,"[16, 0, 238]",238,a,0.5073284737300128,colour,0.5
71,64,0,2,2,7,57,111.49187044543214,112.10365964844823,"[24, 0, 230]",230,a,0.08843674580566585,colour,0.5
71,64,0,2,2,8,58,112.61688713449985,113.27969425008632,"[43, 0, 211]",211,a,0.13940503378398716,colour,0.5
71,64,0,2,2,9,59,113.7769875493832,114.44762391247787,"[4, 0, 250]",250,a,0.14804639015346766,colour,0.5
71,64,0,2,2,10,60,114.96381114493124,115.61561304563656,"[7, 0, 247]",247,a,0.12861840310506523,colour,0.5
71,64,0,2,2,11,61,116.13567216950469,116.97563043772243,"[27, 0, 227]",227,a,0.31658808793872595,colour,0.5
71,64,0,2,2,12,62,117.4951047017239,118.19960623350926,"[34, 0, 220]",220,a,0.17984111490659416,colour,0.5
71,64,0,2,2,13,63,118.71515937522054,119.55960511509329,"[1, 0, 253]",253,a,0.32107398426160216,colour,0.5
71,64,0,2,2,14,64,120.07451077527367,121.05564519902691,"[19, 0, 235]",235,a,0.4578268649056554,colour,0.5
71,64,0,2,2,15,65,121.57458934746683,122.44760264479555,"[5, 0, 249]",249,a,0.34970731381326914,colour,0.5
71,64,0,2,2,16,66,122.96521047665738,123.92761874524876,"[18, 0, 236]",236,a,0.43912749108858407,colour,0.5
71,64,0,2,2,17,67,124.43386611388996,125.15162683650851,"[42, 0, 212]",212,a,0.1944330777041614,colour,0.5
71,64,0,2,2,18,68,125.66824020934291,126.67960303556174,"[56, 0, 198]",198,a,0.48796625854447484,colour,0.5
71,64,0,2,2,19,69,127.19947547698393,127.82360621145926,"[46, 0, 208]",208,a,0.10157620767131448,colour,0.5
71,64,0,2,2,20,70,128.34011639701203,129.03959088935517,"[89, 0, 165]",165,l,0.17613660753704607,colour,0.5
71,64,0,2,2,21,71,129.55884814471938,130.33556787949055,"[97, 0, 157]",157,l,0.25336491456255317,colour,0.5
71,64,0,2,2,22,72,130.85573609848507,131.7995808699634,"[98, 0, 156]",156,l,0.42074910132214427,colour,0.5
71,64,0,2,2,23,73,132.3088825077284,133.15159060270526,"[17, 0, 237]",237,a,0.31938872090540826,colour,0.5
71,64,0,2,2,24,74,133.6696379657369,134.3195793419145,"[28, 0, 226]",226,a,0.12664996506646276,colour,0.5
71,64,0,2,2,25,75,134.82585821812972,135.61558783939108,"[0, 0, 254]",254,a,0.26646302244625986,colour,0.5
71,64,0,2,2,26,76,136.1226713412907,137.2555850194767,"[67, 0, 187]",187,l,0.609812100417912,colour,0.5
71,64,0,2,2,27,77,137.76964076189324,138.4155365608167,"[51, 0, 203]",203,a,0.12251104647293687,colour,0.5
71,64,0,2,2,28,78,138.92588858352974,140.3035423613619,"[69, 0, 185]",185,l,0.8543091975152493,colour,0.5
71,64,0,2,2,29,79,140.818406668026,141.7915401274804,"[55, 0, 199]",199,a,0.4497790331952274,colour,0.5
71,64,0,2,2,30,80,142.30281611089595,142.879574757535,"[57, 0, 197]",197,a,0.05333135882392526,colour,0.5
71,64,0,2,2,31,81,143.3966772861313,144.05556485475972,"[91, 0, 163]",163,l,0.13564381282776594,colour,0.5
71,64,0,2,2,32,82,144.56852058763616,145.28758296836168,"[58, 0, 196]",196,a,0.1957107111811638,colour,0.5
71,64,0,2,2,33,83,145.80289271380752,146.38356539350934,"[59, 0, 195]",195,a,0.057270991848781705,colour,0.5
71,64,0,2,2,34,84,146.89664558158256,147.57585910428315,"[65, 0, 189]",189,a,0.1568086571060121,colour,0.5
71,64,0,2,2,35,85,148.08407569862902,148.71155017847195,"[50, 0, 204]",204,a,0.1041046935133636,colour,0.5
71,64,0,2,2,36,86,149.22474300628528,149.83154770499095,"[94, 0, 160]",160,l,0.09650230058468878,colour,0.5
71,64,0,2,2,37,87,150.35289824730717,151.0315458145924,"[54, 0, 200]",200,a,0.15532622393220663,colour,0.5
71,64,0,2,2,38,88,151.54033387824893,152.2875597316306,"[38, 0, 216]",216,a,0.22386512556113303,colour,0.5
71,64,0,2,2,39,89,152.79389098915271,153.48752475809306,"[99, 0, 155]",155,l,0.16885441076010466,colour,0.5
71,64,0,2,2,40,90,153.998443917837,154.60754552157596,"[37, 0, 217]",217,a,0.08574757119640708,colour,0.5
71,64,0,2,2,41,91,155.12344327778555,155.73549911403097,"[92, 0, 162]",162,l,0.08883334789425135,colour,0.5
71,64,0,2,2,42,92,156.24935832782649,157.04753080755472,"[78, 0, 176]",176,l,0.27538361493498087,colour,0.5
71,64,0,2,2,43,93,157.56188547844067,158.20751070557162,"[74, 0, 180]",180,l,0.12231648666784167,colour,0.5
71,64,0,2,2,44,94,158.71824003197253,159.39951927261427,"[39, 0, 215]",215,a,0.170648769242689,colour,0.5
71,64,0,2,2,45,95,159.90885793184862,160.59965365263633,"[83, 0, 171]",171,l,0.1674527160357684,colour,0.5
71,64,0,2,2,46,96,161.11199341178872,161.86357243545353,"[60, 0, 194]",194,a,0.22820805595256388,colour,0.5
71,64,0,2,2,47,97,162.377578553278,167.39946374041028,"[86, 0, 168]",168,l,4.498535092920065,colour,0.5
71,64,0,2,2,48,98,167.90876459050924,168.91170228132978,"[80, 0, 174]",174,l,0.47958641522563994,colour,0.5
71,64,0,2,2,49,99,169.42445321497507,170.03149067633785,"[9, 0, 245]",245,a,0.08371729962527752,colour,0.5
71,64,0,2,2,50,100,170.54934978135861,171.1115038623102,"[6, 0, 248]",248,a,0.03872639941982925,colour,0.5
71,64,0,2,3,1,101,194.40785736823454,196.09541253116913,"[10, 0, 244]",244,a,1.163397686323151,colour,0.5
71,64,0,2,3,2,102,196.61185891367495,197.87140443990938,"[29, 0, 225]",225,a,0.7363380042370409,colour,0.5
71,64,0,2,3,3,103,198.37738596298732,199.79143693996593,"[17, 0, 237]",237,a,0.890669375192374,colour,0.5
71,64,0,2,3,4,104,200.29931403999217,202.00744958082214,"[81, 0, 173]",173,l,1.18489572359249,colour,0.5
71,64,0,2,3,5,105,202.51800364628434,203.9113946883008,"[15, 0, 239]",239,a,0.8700830894522369,colour,0.5
71,64,0,2,3,6,106,204.4242350247223,206.11137861944735,"[24, 0, 230]",230,a,1.1638639990705997,colour,0.5
71,64,0,2,3,7,107,206.62732757558115,207.999692406971,"[39, 0, 215]",215,a,0.8489099745638669,colour,0.5
71,64,0,2,3,8,108,208.5177645822987,209.85539502860047,"[57, 0, 197]",197,a,0.8141614110209048,colour,0.5
71,64,0,2,3,9,109,210.36492233956233,211.58338272804394,"[82, 0, 172]",172,l,0.6956703420728445,colour,0.5
71,64,0,2,3,10,110,212.09607182792388,213.3433506533038,"[12, 0, 242]",242,a,0.7279376811347902,colour,0.5
71,64,0,2,3,11,111,213.85765648749657,215.1193977005314,"[54, 0, 200]",200,a,0.7479398946743459,colour,0.5
71,64,0,2,3,12,112,215.62966622808017,217.02335580484942,"[35, 0, 219]",219,a,0.8704048609361053,colour,0.5
71,64,0,2,3,13,113,217.5358783081174,218.90340553945862,"[42, 0, 212]",212,a,0.8449144153855741,colour,0.5
71,64,0,2,3,14,114,219.41099080024287,220.61539131077006,"[68, 0, 186]",186,l,0.6811012225225568,colour,0.5
71,64,0,2,3,15,115,221.1296609111596,222.33531700004824,"[13, 0, 241]",241,a,0.6823686163406819,colour,0.5
71,64,0,2,3,16,116,222.84839049261063,224.00733379041776,"[71, 0, 183]",183,l,0.6356038374360651,colour,0.5
71,64,0,2,3,17,117,224.5201733391732,225.8953431355767,"[87, 0, 167]",167,l,0.851716908859089,colour,0.5
71,64,0,2,3,18,118,226.41087343427353,227.75135177490301,"[85, 0, 169]",169,l,0.8295973837375641,colour,0.5
71,64,0,2,3,19,119,228.25779567239806,229.42336423299275,"[19, 0, 235]",235,a,0.6422992048319429,colour,0.5
71,64,0,2,3,20,120,229.929875084199,231.2312973770313,"[36, 0, 218]",218,a,0.7782364322338253,colour,0.5
71,64,0,2,3,21,121,231.7439313386567,232.975300001679,"[0, 0, 254]",254,a,0.7188977533951402,colour,0.5
71,64,0,2,3,22,122,233.48314323090017,234.66331044957042,"[56, 0, 198]",198,a,0.6569876596331596,colour,0.5
71,64,0,2,3,23,123,235.17062907712534,235.7353455144912,"[96, 0, 158]",158,l,0.04143526637926698,colour,0.5
71,64,0,2,3,24,124,236.24871517857537,237.50337623758242,"[62, 0, 192]",192,a,0.731315691024065,colour,0.5
71,64,0,2,3,25,125,238.0143560494762,239.30333677423187,"[99, 0, 155]",155,l,0.7657066429965198,colour,0.5
71,64,0,2,3,26,126,239.81122608319856,241.01531742536463,"[48, 0, 206]",206,a,0.6807908725459129,colour,0.5
71,64,0,2,3,27,127,241.52993715414777,242.7433374200482,"[4, 0, 250]",250,a,0.6900675010401756,colour,0.5
71,64,0,2,3,28,128,243.26432641246356,244.503264779225,"[98, 0, 156]",156,l,0.7128951596096158,colour,0.5
71,64,0,2,3,29,129,245.01704955636524,246.34328685048968,"[73, 0, 181]",181,l,0.8029506092425436,colour,0.5
71,64,0,2,3,30,130,246.86073281196877,247.9592842888087,"[75, 0, 179]",179,l,0.575452656019479,colour,0.5
71,64,0,2,3,31,131,248.47015579324216,249.61526331095956,"[83, 0, 171]",171,l,0.6218133496586233,colour,0.5
71,64,0,2,3,32,132,250.12640420557,251.35928523400798,"[50, 0, 204]",204,a,0.709511635825038,colour,0.5
71,64,0,2,3,33,133,251.87634955951944,253.22328026522882,"[21, 0, 233]",233,a,0.8235357131343335,colour,0.5
71,64,0,2,3,34,134,253.73582206713036,254.87125556659885,"[90, 0, 164]",164,l,0.6121519345324486,colour,0.5
71,64,0,2,3,35,135,255.39198068273254,256.4552393022459,"[9, 0, 245]",245,a,0.5399766606278718,colour,0.5
71,64,0,2,3,36,136,256.97006343654357,258.08724497049116,"[84, 0, 170]",170,l,0.5938078090548515,colour,0.5
71,64,0,2,3,37,137,258.5951023781672,259.80722894892097,"[6, 0, 248]",248,a,0.6888639105018228,colour,0.5
71,64,0,2,3,38,138,260.31388197792694,261.56724216626026,"[14, 0, 240]",240,a,0.7301152509171516,colour,0.5
71,64,0,2,3,39,139,262.07941926736385,263.3595168150496,"[52, 0, 202]",202,a,0.7567580873146653,colour,0.5
71,64,0,2,3,40,140,263.8762786674779,265.18324590614066,"[37, 0, 217]",217,a,0.7835127755533904,colour,0.5
71,64,0,2,3,41,141,265.7044314274099,266.9672490193043,"[18, 0, 236]",236,a,0.7395391776226461,colour,0.5
71,64,0,2,3,42,142,267.4857150395401,268.63118765177205,"[76, 0, 178]",178,l,0.6221741118934005,colour,0.5
71,64,0,2,3,43,143,269.14187995670363,270.46328516467474,"[34, 0, 220]",220,a,0.798615949228406,colour,0.5
71,64,0,2,3,44,144,270.97003626124933,272.31119674188085,"[41, 0, 213]",213,a,0.8177580051124096,colour,0.5
71,64,0,2,3,45,145,272.829392190557,274.0392092533875,"[64, 0, 190]",190,a,0.6863704766146839,colour,0.5
71,64,0,2,3,46,146,274.54201480932534,275.7513604394626,"[88, 0, 166]",166,l,0.6861318065784872,colour,0.5
71,64,0,2,3,47,147,276.2617223083507,277.55118903820403,"[53, 0, 201]",201,a,0.7661000941880047,colour,0.5
71,64,0,2,3,48,148,278.0586490558926,279.3271762209479,"[44, 0, 210]",210,a,0.7451695878989995,colour,0.5
71,64,0,2,3,49,149,279.8398787113838,281.17518507759087,"[23, 0, 231]",231,a,0.8100406092125922,colour,0.5
71,64,0,2,3,50,150,281.68551740818657,282.9752169002313,"[61, 0, 193]",193,a,0.7663746040780097,colour,0.5
71,64,0,2,4,1,151,292.16901313047856,293.6792292764876,"[15, 0, 239]",239,a,0.9844813197851181,colour,0.5
71,64,0,2,4,2,152,294.18710558861494,295.67915641516447,"[90, 0, 164]",164,l,0.9687346031423658,colour,0.5
71,64,0,2,4,3,153,296.1870862902142,298.3351748220157,"[68, 0, 186]",186,l,1.6248270529322326,colour,0.5
71,64,0,2,4,4,154,298.84330477030016,299.87919390923344,"[16, 0, 238]",238,a,0.5110924516338855,colour,0.5
71,64,0,2,4,5,155,300.39174358779564,301.71916202362627,"[21, 0, 233]",233,a,0.8041904335841537,colour,0.5
71,64,0,2,4,6,156,302.2340180594474,303.5752998441458,"[69, 0, 185]",185,l,0.817951776785776,colour,0.5
71,64,0,2,4,7,157,304.09335744706914,305.1113254504744,"[89, 0, 165]",165,a,0.4946135769132525,colour,0.5
71,64,0,2,4,8,158,305.624575385591,308.8312113613356,"[26, 0, 228]",228,l,2.683273672359064,colour,0.5
71,64,0,2,4,9,159,309.3440560300369,310.3351058990229,"[20, 0, 234]",234,a,0.46773837180808187,colour,0.5
71,64,0,2,4,10,160,310.8439884856343,311.9351230706088,"[6, 0, 248]",248,a,0.5678278140258044,colour,0.5
71,64,0,2,4,11,161,312.45332718407735,313.66310919472016,"[18, 0, 236]",236,a,0.6864208888728172,colour,0.5
71,64,0,2,4,12,162,314.1720666117035,315.24712325655855,"[59, 0, 195]",195,a,0.55183455045335,colour,0.5
71,64,0,2,4,13,163,315.7662706291303,316.8151086086873,"[97, 0, 157]",157,l,0.5262212252710015,colour,0.5
71,64,0,2,4,14,164,317.3287106414791,318.5751253706403,"[24, 0, 230]",230,a,0.7229838967323303,colour,0.5
71,64,0,2,4,15,165,319.09448226890527,320.2471035642084,"[38, 0, 216]",216,a,0.6293621794320643,colour,0.5
71,64,0,2,4,16,166,320.76626669056714,321.9190711241681,"[33, 0, 221]",221,a,0.6294771824032068,colour,0.5
71,64,0,2,4,17,167,322.4381834443193,324.3350736037828,"[64, 0, 190]",190,a,1.374497109092772,colour,0.5
71,64,0,2,4,18,168,324.84436697070487,326.00709275715053,"[0, 0, 254]",254,a,0.6393780554644763,colour,0.5
71,64,0,2,4,19,169,326.5162368568126,327.7430696054362,"[45, 0, 209]",209,a,0.7035141622181982,colour,0.5
71,64,0,2,4,20,170,328.2381152303424,329.4070933086332,"[56, 0, 198]",198,a,0.6457599222194403,colour,0.5
71,64,0,2,4,21,171,329.92567787645385,331.1190542674158,"[34, 0, 220]",220,a,0.670053078327328,colour,0.5
71,64,0,2,4,22,172,331.62869736901484,332.8231028774753,"[23, 0, 231]",231,a,0.6709927930496633,colour,0.5
71,64,0,2,4,23,173,333.3338420500513,334.43107138876803,"[74, 0, 180]",180,l,0.5739312323275954,colour,0.5
71,64,0,2,4,24,174,334.943261486711,336.16708171367645,"[7, 0, 247]",247,a,0.7004898251034319,colour,0.5
71,64,0,2,4,25,175,336.67761017917655,337.8710393453948,"[2, 0, 252]",252,a,0.6700971890240908,colour,0.5
71,64,0,2,4,26,176,338.380690717604,339.1270394779276,"[82, 0, 172]",172,l,0.22304829070344567,colour,0.5
71,64,0,2,4,27,177,339.6463211516384,340.88705427059904,"[63, 0, 191]",191,a,0.7174428894650191,colour,0.5
71,64,0,2,4,28,178,341.3888169245329,342.51106645772234,"[96, 0, 158]",158,l,0.5989746635314077,colour,0.5
71,64,0,2,4,29,179,343.02953484118916,344.231039802311,"[43, 0, 211]",211,a,0.6783383986912668,colour,0.5
71,64,0,2,4,30,180,344.74810727871954,345.9589987511281,"[57, 0, 197]",197,a,0.6875000246800482,colour,0.5
71,64,0,2,4,31,181,346.454529593233,347.85505277710035,"[58, 0, 196]",196,a,0.8772829724475741,colour,0.5
71,64,0,2,4,32,182,348.37642773776315,349.48710334370844,"[72, 0, 182]",182,l,0.587331025628373,colour,0.5
71,64,0,2,4,33,183,350.0013587656431,351.19902846287005,"[41, 0, 213]",213,a,0.6729186959564686,colour,0.5
71,64,0,2,4,34,184,351.7059174051974,352.79901294526644,"[67, 0, 187]",187,l,0.5700451622251421,colour,0.5
71,64,0,2,4,35,185,353.31528879282996,354.5270140354987,"[4, 0, 250]",250,a,0.6884566745720804,colour,0.5
71,64,0,2,4,36,186,355.0340475188568,356.20697153173387,"[10, 0, 244]",244,a,0.6500299912877381,colour,0.5
71,64,0,2,4,37,187,356.72153139603324,357.4470091201365,"[71, 0, 183]",183,l,0.20229974039830267,colour,0.5
71,64,0,2,4,38,188,357.95583696221,359.40696688438766,"[65, 0, 189]",189,a,0.9306521406397223,colour,0.5
71,64,0,2,4,39,189,359.9218016525265,361.08699290966615,"[88, 0, 166]",166,l,0.6511347270570695,colour,0.5
71,64,0,2,4,40,190,361.599995510187,362.7669752179645,"[53, 0, 201]",201,a,0.6436776628252119,colour,0.5
71,64,0,2,4,41,191,363.2874494548887,364.47897910606116,"[3, 0, 251]",251,a,0.6682441476732492,colour,0.5
71,64,0,2,4,42,192,364.99248385918327,366.19895048136823,"[87, 0, 167]",167,l,0.6832445277832448,colour,0.5
71,64,0,2,4,43,193,366.71126148989424,367.92698623007163,"[81, 0, 173]",173,l,0.6924861043225974,colour,0.5
71,64,0,2,4,44,194,368.44551684102044,369.6869521860499,"[28, 0, 226]",226,a,0.7180844633840024,colour,0.5
71,64,0,2,4,45,195,370.1955307240132,371.39901200006716,"[22, 0, 232]",232,a,0.6800878590438515,colour,0.5
71,64,0,2,4,46,196,371.9143733391538,373.0069856313057,"[79, 0, 175]",175,l,0.5692897671833634,colour,0.5
71,64,0,2,4,47,197,373.523706917651,374.8070107586682,"[85, 0, 169]",169,l,0.7600691434927285,colour,0.5
71,64,0,2,4,48,198,375.3204855795484,376.3429910726845,"[12, 0, 242]",242,a,0.49917863588780165,colour,0.5
71,64,0,2,4,49,199,376.85174881038256,379.3670487096533,"[62, 0, 192]",192,a,1.991936414502561,colour,0.5
71,64,0,2,4,50,200,379.88304295786656,381.19892803230323,"[48, 0, 206]",206,a,0.7925306481774896,colour,0.5
71,64,0,2,5,1,201,390.2259974030312,393.8149557968136,"[57, 0, 197]",197,a,3.0564423417672515,colour,0.5
71,64,0,2,5,2,202,394.32882328121923,395.238962785108,"[42, 0, 212]",212,a,0.3867358467541635,colour,0.5
71,64,0,2,5,3,203,395.7507369827945,396.7829409125261,"[12, 0, 242]",242,a,0.508834537351504,colour,0.5
71,64,0,2,5,4,204,397.2975748197641,398.27890419680625,"[49, 0, 205]",205,a,0.45790484617464244,colour,0.5
71,64,0,2,5,5,205,398.7976140072569,399.48689066735096,"[78, 0, 176]",176,l,0.16595610440708697,colour,0.5
71,64,0,2,5,6,206,400.00078296405263,400.6548538065981,"[15, 0, 239]",239,a,0.1308448095805943,colour,0.5
71,64,0,2,5,7,207,401.1725837304257,402.27084809425287,"[68, 0, 186]",186,l,0.5751769645139575,colour,0.5
71,64,0,2,5,8,208,402.7820311302785,403.95891368063167,"[0, 0, 254]",254,a,0.6535048871301115,colour,0.5
71,64,0,2,5,9,209,404.47021368844435,405.5189059453551,"[8, 0, 246]",246,a,0.5261491513811052,colour,0.5
71,64,0,2,5,10,210,406.0319380844012,407.0629502388183,"[40, 0, 214]",214,a,0.5062895100563765,colour,0.5
71,64,0,2,5,11,211,407.58057973207906,408.5748634636402,"[64, 0, 190]",190,a,0.47094151424244046,colour,0.5
71,64,0,2,5,12,212,409.0961769844871,409.68688602000475,"[95, 0, 159]",159,l,0.06739990133792162,colour,0.5
71,64,0,2,5,13,213,410.20553793525323,411.26293613924645,"[98, 0, 156]",156,l,0.5368834009859711,colour,0.5
71,64,0,2,5,14,214,411.7751522308681,412.6468819871079,"[61, 0, 193]",193,a,0.34837808669544756,colour,0.5
71,64,0,2,5,15,215,413.16578832641244,414.51886222860776,"[30, 0, 224]",224,a,0.8297301097773015,colour,0.5
71,64,0,2,5,16,216,415.02520333230495,416.0948670555372,"[51, 0, 203]",203,a,0.546314810635522,colour,0.5
71,64,0,2,5,17,217,416.60329514485784,417.6788614252582,"[52, 0, 202]",202,a,0.5521610481664538,colour,0.5
71,64,0,2,5,18,218,418.1970828678459,419.23084406135604,"[39, 0, 215]",215,a,0.508927091024816,colour,0.5
71,64,0,2,5,19,219,419.745276713511,420.6468394517433,"[94, 0, 160]",160,l,0.37810276122763753,colour,0.5
71,64,0,2,5,20,220,421.1673274731729,422.2388643238228,"[53, 0, 201]",201,a,0.5482426825910807,colour,0.5
71,64,0,2,5,21,221,422.7453535133973,423.78293146030046,"[11, 0, 243]",243,a,0.5139816997107118,colour,0.5
71,64,0,2,5,22,222,424.2923221071251,425.46285626734607,"[20, 0, 234]",234,a,0.6478429692797363,colour,0.5
71,64,0,2,5,23,223,425.98239000188187,426.9990429561585,"[14, 0, 240]",240,a,0.4934856041800231,colour,0.5
71,64,0,2,5,24,224,427.5144921229221,428.5109022243414,"[86, 0, 168]",168,l,0.47277801437303424,colour,0.5
71,64,0,2,5,25,225,429.0303532516118,430.1588649225887,"[55, 0, 199]",199,a,0.6051407032646239,colour,0.5
71,64,0,2,5,26,226,430.67089787637815,431.7268345209304,"[25, 0, 229]",229,a,0.5329571587499231,colour,0.5
71,64,0,2,5,27,227,432.23602194339037,433.2948438974563,"[7, 0, 247]",247,a,0.5358338037040085,colour,0.5
71,64,0,2,5,28,228,433.80629711132497,434.6948515381664,"[99, 0, 155]",155,l,0.3654256737791002,colour,0.5
71,64,0,2,5,29,229,435.212548378855,436.25475400616415,"[47, 0, 207]",207,a,0.5187936995644122,colour,0.5
71,64,0,2,5,30,230,436.7751207232941,437.8547822055407,"[17, 0, 237]",237,a,0.5562676712870598,colour,0.5
71,64,0,2,5,31,231,438.3689202617388,439.64682566723786,"[63, 0, 191]",191,a,0.754578942200169,colour,0.5
71,64,0,2,5,32,232,440.1659505905118,441.18278195662424,"[70, 0, 184]",184,l,0.4933910814579576,colour,0.5
71,64,0,2,5,33,233,441.69719806755893,442.74281636299565,"[88, 0, 166]",166,l,0.5207507160957903,colour,0.5
71,64,0,2,5,34,234,443.26123984809965,444.35881970915943,"[34, 0, 220]",220,a,0.5743431942537427,colour,0.5
71,64,0,2,5,35,235,444.87050883611664,445.918809217168,"[13, 0, 241]",241,a,0.5248971178662032,colour,0.5
71,64,0,2,5,36,236,446.43301974073984,447.39879696047865,"[96, 0, 158]",158,l,0.44243894098326564,colour,0.5
71,64,0,2,5,37,237,447.9174417867325,449.646795734996,"[74, 0, 180]",180,a,1.2060538725927472,colour,0.5
71,64,0,2,5,38,238,450.16739678988233,451.1508021247573,"[75, 0, 179]",179,l,0.46056015021167696,colour,0.5
71,64,0,2,5,39,239,451.66158658941276,452.8547542425804,"[87, 0, 167]",167,l,0.6698333129752427,colour,0.5
71,64,0,2,5,40,240,453.36466634017415,454.39076921506785,"[60, 0, 194]",194,a,0.5027177284937352,colour,0.5
71,64,0,2,5,41,241,454.91153765423223,455.9347804253921,"[82, 0, 172]",172,l,0.4999679015018046,colour,0.5
71,64,0,2,5,42,242,456.44275756180286,457.51078249537386,"[48, 0, 206]",206,a,0.5446547532919794,colour,0.5
71,64,0,2,5,43,243,458.0208635528106,459.05469800159335,"[23, 0, 231]",231,a,0.5104949886444956,colour,0.5
71,64,0,2,5,44,244,459.56772029423155,460.61475485702977,"[38, 0, 216]",216,a,0.5236616255715489,colour,0.5
71,64,0,2,5,45,245,461.1302430143114,462.31873415014707,"[5, 0, 249]",249,a,0.6650996881071478,colour,0.5
71,64,0,2,5,46,246,462.8333716019988,464.4227620437741,"[65, 0, 189]",189,a,1.0661065138410777,colour,0.5
71,64,0,2,5,47,247,464.9427609096747,466.09471936360933,"[4, 0, 250]",250,a,0.6286004830617458,colour,0.5
71,64,0,2,5,48,248,466.6146540325135,467.77476586890407,"[62, 0, 192]",192,a,0.6482832881156355,colour,0.5
71,64,0,2,5,49,249,468.2906025790144,469.7186933478806,"[46, 0, 208]",208,a,0.9046654503326863,colour,0.5
71,64,0,2,5,50,250,470.2282340496313,471.37471766234376,"[24, 0, 230]",230,a,0.6230752295814455,colour,0.5
71,64,0,2,6,1,251,541.0083479417954,542.2305226835888,"[15, 0, 239]",239,a,0.7100149700418115,colour,0.5
71,64,0,2,6,2,252,542.7471557487734,543.8225152604282,"[23, 0, 231]",231,a,0.5520649496465921,colour,0.5
71,64,0,2,6,3,253,544.3408280750737,545.4946368136443,"[35, 0, 219]",219,a,0.6305445027537644,colour,0.5
71,64,0,2,6,4,254,546.0126995367464,547.1425242873374,"[46, 0, 208]",208,a,0.6064967119600624,colour,0.5
71,64,0,2,6,5,255,547.6533382905181,548.7745094757993,"[61, 0, 193]",193,a,0.5978679587133229,colour,0.5
71,64,0,2,6,6,256,549.2939770442899,550.4945265371352,"[39, 0, 215]",215,a,0.6773561490699649,colour,0.5
71,64,0,2,6,7,257,551.0126270691399,552.2145061830524,"[14, 0, 240]",240,a,0.6786038503050804,colour,0.5
71,64,0,2,6,8,258,552.7332805842161,553.8144808195066,"[91, 0, 163]",163,l,0.5579084302298725,colour,0.5
71,64,0,2,6,9,259,554.3270627935417,555.502507021185,"[72, 0, 182]",182,l,0.6520890137180686,colour,0.5
71,64,0,2,6,10,260,556.0144710522145,557.1985022856388,"[13, 0, 241]",241,a,0.6607276131398976,colour,0.5
71,64,0,2,6,11,261,557.71756970766,558.8784960156772,"[40, 0, 214]",214,a,0.6375088663771749,colour,0.5
71,64,0,2,6,12,262,559.3894604675006,560.7344794489909,"[65, 0, 189]",189,a,0.8203369029797614,colour,0.5
71,64,0,2,6,13,263,561.2502421161626,562.3824500238989,"[96, 0, 158]",158,l,0.6088806565385312,colour,0.5
71,64,0,2,6,14,264,562.8909021376166,564.1024749623612,"[50, 0, 204]",204,a,0.6883349763229489,colour,0.5
71,64,0,2,6,15,265,564.6095679164864,565.7904944685288,"[62, 0, 192]",192,a,0.657591030234471,colour,0.5
71,64,0,2,6,16,266,566.2971175655257,567.5504411263391,"[52, 0, 202]",202,a,0.7300223035272211,colour,0.5
71,64,0,2,6,17,267,568.0626930580474,569.1424805705901,"[85, 0, 169]",169,l,0.5565496643539518,colour,0.5
71,64,0,2,6,18,268,569.657126293052,570.8384403889067,"[38, 0, 216]",216,a,0.6586347199045122,colour,0.5
71,64,0,2,6,19,269,571.359475067351,572.0304568328429,"[84, 0, 170]",170,l,0.1475485700648278,colour,0.5
71,64,0,2,6,20,270,572.5470323965419,573.542418894358,"[63, 0, 191]",191,a,0.4720635791309178,colour,0.5
71,64,0,2,6,21,271,574.0626036550384,575.0784563161433,"[1, 0, 253]",253,a,0.49249626556411386,colour,0.5
71,64,0,2,6,22,272,575.5939405348618,576.9344515646808,"[82, 0, 172]",172,l,0.8172093785833567,colour,0.5
71,64,0,2,6,23,273,577.4532385689672,578.5664599898737,"[11, 0, 243]",243,a,0.5898925946094096,colour,0.5
71,64,0,2,6,24,274,579.0782227658201,580.2304569114931,"[16, 0, 238]",238,a,0.6289033498615026,colour,0.5
71,64,0,2,6,25,275,580.7500867443159,581.9024150189944,"[53, 0, 201]",201,a,0.6289092577062547,colour,0.5
71,64,0,2,6,26,276,582.4219585997052,583.5744298403151,"[59, 0, 195]",195,a,0.629362573614344,colour,0.5
71,64,0,2,6,27,277,584.0940569161903,584.7424150346778,"[80, 0, 174]",174,l,0.12526599317789078,colour,0.5
71,64,0,2,6,28,278,585.2500983627979,585.9503814193886,"[58, 0, 196]",196,a,0.17692508571781218,colour,0.5
71,64,0,2,6,29,279,586.4688907626551,587.3824464792851,"[29, 0, 225]",225,a,0.3903556775767356,colour,0.5
71,64,0,2,6,30,280,587.890671344474,588.9584568201099,"[26, 0, 228]",228,a,0.544459012337029,colour,0.5
71,64,0,2,6,31,281,589.4688474396244,590.6463865297846,"[37, 0, 217]",217,a,0.6542787926737219,colour,0.5
71,64,0,2,6,32,282,591.1563352551311,592.3504205674399,"[64, 0, 190]",190,a,0.6708549470640719,colour,0.5
71,64,0,2,6,33,283,592.859542218037,593.998410834698,"[94, 0, 160]",160,l,0.6155996546149254,colour,0.5
71,64,0,2,6,34,284,594.5156393938232,595.7664005979896,"[47, 0, 207]",207,a,0.7274296209216118,colour,0.5
71,64,0,2,6,35,285,596.2812424553558,597.3903643421363,"[36, 0, 218]",218,a,0.585858438629657,colour,0.5
71,64,0,2,6,36,286,597.906240436947,598.9983875979669,"[60, 0, 194]",194,a,0.5693661731202155,colour,0.5
71,64,0,2,6,37,287,599.5156307292636,600.6624538362958,"[42, 0, 212]",212,a,0.6235037329606712,colour,0.5
71,64,0,2,6,38,288,601.1718515723478,601.910396290943,"[89, 0, 165]",165,l,0.21541242091916502,colour,0.5
71,64,0,2,6,39,289,602.4219003107864,603.6063880107831,"[12, 0, 242]",242,a,0.6614231436979026,colour,0.5
71,64,0,2,6,40,290,604.1252140055876,605.3984397430904,"[22, 0, 232]",232,a,0.7499457478988916,colour,0.5
71,64,0,2,6,41,291,605.9064251503441,607.1503618059214,"[20, 0, 234]",234,a,0.7212261660024524,colour,0.5
71,64,0,2,6,42,292,607.6564563624561,608.8943797904067,"[9, 0, 245]",245,a,0.714632804505527,colour,0.5
71,64,0,2,6,43,293,609.4064351932611,610.6063612292055,"[10, 0, 244]",244,a,0.6766255663242191,colour,0.5
71,64,0,2,6,44,294,611.1251994334161,612.3503981183749,"[48, 0, 206]",206,a,0.7019155446905643,colour,0.5
71,64,0,2,6,45,295,612.8595449749846,614.0223361398093,"[56, 0, 198]",198,a,0.6394280740059912,colour,0.5
71,64,0,2,6,46,296,614.5313479073811,616.3023939088453,"[73, 0, 181]",181,l,1.246315086260438,colour,0.5
71,64,0,2,6,47,297,616.8140089930966,617.9103458786849,"[4, 0, 250]",250,a,0.572924564126879,colour,0.5
71,64,0,2,6,48,298,618.4234107069205,619.598375624977,"[78, 0, 176]",176,l,0.651727857766673,colour,0.5
71,64,0,2,6,49,299,620.1109548420645,621.3263278785162,"[95, 0, 159]",159,l,0.6920977728441358,colour,0.5
71,64,0,2,6,50,300,621.8452369745355,622.9664703872986,"[57, 0, 197]",197,a,0.5979010416194797,colour,0.5
71,64,0,2,7,1,301,630.1725474966224,631.6224785540253,"[92, 0, 162]",162,l,0.9258440788835287,colour,0.5
71,64,0,2,7,2,302,632.1420721532777,633.8862516141962,"[66, 0, 188]",188,l,1.2208368498831987,colour,0.5
71,64,0,2,7,3,303,634.4077108576894,635.5982755883597,"[10, 0, 244]",244,a,0.667314279358834,colour,0.5
71,64,0,2,7,4,304,636.1108229039237,637.2623300114647,"[86, 0, 168]",168,l,0.6281794626265764,colour,0.5
71,64,0,2,7,5,305,637.7826734916307,638.8862831217702,"[28, 0, 226]",226,a,0.5802800159435719,colour,0.5
71,64,0,2,7,6,306,639.4077671775594,640.5422715963796,"[43, 0, 211]",211,a,0.6113118627108634,colour,0.5
71,64,0,2,7,7,307,641.0482416979503,642.1663141096942,"[70, 0, 184]",184,l,0.594704988412559,colour,0.5
71,64,0,2,7,8,308,642.6732692178339,643.6463353298604,"[25, 0, 229]",229,a,0.4497959683649242,colour,0.5
71,64,0,2,7,9,309,644.1576550302561,645.3182666560169,"[21, 0, 233]",233,a,0.6373430576641113,colour,0.5
71,64,0,2,7,10,310,645.8295095565263,646.9342766974587,"[5, 0, 249]",249,a,0.5815600126516074,colour,0.5
71,64,0,2,7,11,311,647.4544992672745,648.6463006716222,"[20, 0, 234]",234,a,0.6686750142835081,colour,0.5
71,64,0,2,7,12,312,649.1576168271713,650.3102270949166,"[33, 0, 221]",221,a,0.629149109357968,colour,0.5
71,64,0,2,7,13,313,650.8294347259216,651.9582374484744,"[1, 0, 253]",253,a,0.6055566037539393,colour,0.5
71,64,0,2,7,14,314,652.4700593012385,653.214293506695,"[99, 0, 155]",155,l,0.22100659715943038,colour,0.5
71,64,0,2,7,15,315,653.7357098211069,654.6702566964086,"[84, 0, 170]",170,l,0.4112534949090332,colour,0.5
71,64,0,2,7,16,316,655.1888479595073,656.3582667505834,"[45, 0, 209]",209,a,0.64642512681894,colour,0.5
71,64,0,2,7,17,317,656.8763495595194,657.9902342157438,"[80, 0, 174]",174,l,0.5907184877432883,colour,0.5
71,64,0,2,7,18,318,658.5013357258867,659.7261909779627,"[93, 0, 161]",161,l,0.7016433977987617,colour,0.5
71,64,0,2,7,19,319,660.2357462518848,661.4145109881647,"[83, 0, 171]",171,l,0.6555828140117228,colour,0.5
71,64,0,2,7,20,320,661.9231529352255,663.1902220852207,"[76, 0, 178]",178,l,0.7441999409347773,colour,0.5
71,64,0,2,7,21,321,663.7044849903323,664.8781876349822,"[7, 0, 247]",247,a,0.6505085132084787,colour,0.5
71,64,0,2,7,22,322,665.3918952182867,666.5021742221434,"[73, 0, 181]",181,l,0.5870198879856616,colour,0.5
71,64,0,2,7,23,323,667.0168656306341,668.1822077303659,"[2, 0, 252]",252,a,0.641893150517717,colour,0.5
71,64,0,2,7,24,324,668.6887591474224,669.9182082093321,"[50, 0, 204]",204,a,0.706676738569513,colour,0.5
71,64,0,2,7,25,325,670.4387738183141,671.5821464480832,"[58, 0, 196]",196,a,0.6203576980624348,colour,0.5
71,64,0,2,7,26,326,672.0950946980156,673.422191756079,"[74, 0, 180]",180,l,0.8036185703240335,colour,0.5
71,64,0,2,7,27,327,673.938916587038,675.0542053012177,"[18, 0, 236]",236,a,0.5917625713627785,colour,0.5
71,64,0,2,7,28,328,675.5643824567087,676.6542000237387,"[89, 0, 165]",165,l,0.5650051259435713,colour,0.5
71,64,0,2,7,29,329,677.17515750858,678.3901882932987,"[90, 0, 164]",164,l,0.6917165305931121,colour,0.5
71,64,0,2,7,30,330,678.9096302620601,680.150179061573,"[98, 0, 156]",156,l,0.7172751114703715,colour,0.5
71,64,0,2,7,31,331,680.6595736469608,681.7982020180207,"[52, 0, 202]",202,a,0.6153495630715042,colour,0.5
71,64,0,2,7,32,332,682.3156507364474,683.4622036658693,"[38, 0, 216]",216,a,0.6230370264966041,colour,0.5
71,64,0,2,7,33,333,683.9719972163439,685.1741953447927,"[42, 0, 212]",212,a,0.6790327478665859,colour,0.5
71,64,0,2,7,34,334,685.6907480654772,686.8621589252725,"[24, 0, 230]",230,a,0.6481560762040317,colour,0.5
71,64,0,2,7,35,335,687.3781535672024,688.0382116436958,"[29, 0, 225]",225,a,0.13656186568550766,colour,0.5
71,64,0,2,7,36,336,688.55011384096,689.6461667641997,"[36, 0, 218]",218,a,0.5728075921069831,colour,0.5
71,64,0,2,7,37,337,690.1594588409644,691.2301784630399,"[40, 0, 214]",214,a,0.5472671282477677,colour,0.5
71,64,0,2,7,38,338,691.7376877116039,692.9024303790648,"[22, 0, 232]",232,a,0.6376191431190819,colour,0.5
71,64,0,2,7,39,339,693.4132924312726,694.5901702553965,"[48, 0, 206]",206,a,0.6538412307854742,colour,0.5
71,64,0,2,7,40,340,695.1008105727378,696.2061413060874,"[77, 0, 177]",177,l,0.5819459808990359,colour,0.5
71,64,0,2,7,41,341,696.7258211572189,697.9261473398656,"[59, 0, 195]",195,a,0.677722031250596,colour,0.5
71,64,0,2,7,42,342,698.4446208432782,699.5902297259308,"[3, 0, 251]",251,a,0.6223730037454516,colour,0.5
71,64,0,2,7,43,343,700.0939608179033,701.3664362803102,"[63, 0, 191]",191,a,0.7491202482488006,colour,0.5
71,64,0,2,7,44,344,701.8752282825299,703.0861091210973,"[62, 0, 192]",192,a,0.6876524426043034,colour,0.5
71,64,0,2,7,45,345,703.5940047316253,704.7021104979794,"[6, 0, 248]",248,a,0.5848395612556487,colour,0.5
71,64,0,2,7,46,346,705.2189270949457,706.2220904591959,"[85, 0, 169]",169,l,0.4798581686336547,colour,0.5
71,64,0,2,7,47,347,706.7346121747978,707.8941655387171,"[17, 0, 237]",237,a,0.6370716984383762,colour,0.5
71,64,0,2,7,48,348,708.4064560672268,709.4780968930572,"[53, 0, 201]",201,a,0.548282461008057,colour,0.5
71,64,0,2,7,49,349,709.9845864763483,711.1501353448257,"[0, 0, 254]",254,a,0.6422235865611583,colour,0.5
71,64,0,2,7,50,350,711.6564469102304,712.8541071549989,"[55, 0, 199]",199,a,0.6743459906429052,colour,0.5
71,64,0,2,8,1,351,738.9679819650482,740.2860253108665,"[28, 0, 226]",226,a,0.7938953214325011,colour,0.5
71,64,0,2,8,2,352,740.7845706436783,742.1100580566563,"[91, 0, 163]",163,l,0.8021641003433615,colour,0.5
71,64,0,2,8,3,353,742.6281830072403,743.8140672820155,"[23, 0, 231]",231,a,0.6625440269708633,colour,0.5
71,64,0,2,8,4,354,744.3313281363808,745.814021989936,"[39, 0, 215]",215,a,0.9592382090631872,colour,0.5
71,64,0,2,8,5,355,746.3313139579259,747.7020443319343,"[74, 0, 180]",180,l,0.8473377446644008,colour,0.5
71,64,0,2,8,6,356,748.2252097127493,749.5100337958429,"[45, 0, 209]",209,a,0.7615161305293441,colour,0.5
71,64,0,2,8,7,357,750.0220033405349,751.3340582710225,"[49, 0, 205]",205,a,0.788922238862142,colour,0.5
71,64,0,2,8,8,358,751.850150980521,753.2300252572168,"[65, 0, 189]",189,a,0.8568904586136341,colour,0.5
71,64,0,2,8,9,359,753.7407679744065,755.037961945869,"[66, 0, 188]",188,a,0.774490965064615,colour,0.5
71,64,0,2,8,10,360,755.5533004419412,756.7979653172661,"[48, 0, 206]",206,a,0.7213636180385947,colour,0.5
71,64,0,2,8,11,361,757.3194848189596,758.6139714990277,"[37, 0, 217]",217,a,0.771151945926249,colour,0.5
71,64,0,2,8,12,362,759.133861269569,760.3261333189439,"[2, 0, 252]",252,a,0.6690235673449934,colour,0.5
71,64,0,2,8,13,363,760.8369989157654,761.9979421591852,"[92, 0, 162]",162,l,0.6376183554530144,colour,0.5
71,64,0,2,8,14,364,762.5088798296638,763.6299529473763,"[55, 0, 199]",199,a,0.5976919098757207,colour,0.5
71,64,0,2,8,15,365,764.1494185465854,765.4059613975696,"[30, 0, 224]",224,a,0.7331829105969518,colour,0.5
71,64,0,2,8,16,366,765.915064537432,767.0859854537994,"[95, 0, 159]",159,l,0.6474952041171491,colour,0.5
71,64,0,2,8,17,367,767.6027567584533,768.8459380189888,"[13, 0, 241]",241,a,0.7201907471753657,colour,0.5
71,64,0,2,8,18,368,769.3525776574388,770.1179400796536,"[7, 0, 247]",247,a,0.242101731011644,colour,0.5
71,64,0,2,8,19,369,770.6339296016376,771.5420226862188,"[18, 0, 236]",236,a,0.3848158516921103,colour,0.5
71,64,0,2,8,20,370,772.0555660361424,773.1739054748323,"[60, 0, 194]",194,l,0.5950177013874054,colour,0.5
71,64,0,2,8,21,371,773.680695561925,774.837932722643,"[19, 0, 235]",235,a,0.6339189680293202,colour,0.5
71,64,0,2,8,22,372,775.3525469375309,776.4139391249046,"[99, 0, 155]",155,l,0.5380956563167274,colour,0.5
71,64,0,2,8,23,373,776.9306730143726,778.0859248016495,"[52, 0, 202]",202,a,0.6319150838535279,colour,0.5
71,64,0,2,8,24,374,778.6025799219497,779.7899387530051,"[77, 0, 177]",177,l,0.6640953829046339,colour,0.5
71,64,0,2,8,25,375,780.3059097644873,781.5259435642511,"[29, 0, 225]",225,a,0.6971862521022558,colour,0.5
71,64,0,2,8,26,376,782.0400312081911,783.2699229519349,"[34, 0, 220]",220,a,0.7066216000821441,colour,0.5
71,64,0,2,8,27,377,783.790064783534,785.0778876035474,"[43, 0, 211]",211,a,0.7645857594907284,colour,0.5
71,64,0,2,8,28,378,785.5868847991806,786.8778898878954,"[38, 0, 216]",216,a,0.7677018623799086,colour,0.5
71,64,0,2,8,29,379,787.3993841838092,788.629860393703,"[68, 0, 186]",186,l,0.707276564789936,colour,0.5
71,64,0,2,8,30,380,789.1494102759752,790.421955449041,"[15, 0, 239]",239,a,0.74926518346183,colour,0.5
71,64,0,2,8,31,381,790.9305501347408,792.1578913372941,"[47, 0, 207]",207,a,0.7039769301190972,colour,0.5
71,64,0,2,8,32,382,792.6649874423165,793.9418806657195,"[36, 0, 218]",218,a,0.7535462800879031,colour,0.5
71,64,0,2,8,33,383,794.4618153346237,795.7578825152013,"[50, 0, 204]",204,a,0.772721812594682,colour,0.5
71,64,0,2,8,34,384,796.2742836053949,797.4778727951925,"[78, 0, 176]",176,l,0.6802186155691743,colour,0.5
71,64,0,2,8,35,385,797.9931474882178,799.3739020088688,"[67, 0, 187]",187,a,0.8574831956066191,colour,0.5
71,64,0,2,8,36,386,799.8837101315148,801.325872987276,"[70, 0, 184]",184,a,0.9189159490633756,colour,0.5
71,64,0,2,8,37,387,801.8368098700885,803.0378808137029,"[89, 0, 165]",165,l,0.6777712616603822,colour,0.5
71,64,0,2,8,38,388,803.5556091621984,804.8058938137256,"[46, 0, 208]",208,a,0.7272382120136172,colour,0.5
71,64,0,2,8,39,389,805.3212275838014,806.365841180319,"[82, 0, 172]",172,l,0.5214860250707716,colour,0.5
71,64,0,2,8,40,390,806.8836569625419,808.0299893384799,"[40, 0, 214]",214,a,0.6230397834442556,colour,0.5
71,64,0,2,8,41,391,808.5398781993426,809.741904217517,"[79, 0, 175]",175,l,0.6787117638159543,colour,0.5
71,64,0,2,8,42,392,810.2585022305138,811.5578934641089,"[96, 0, 158]",158,l,0.7758962044026703,colour,0.5
71,64,0,2,8,43,393,812.0711831776425,814.0298629142344,"[56, 0, 198]",198,a,1.436015720712021,colour,0.5
71,64,0,2,8,44,394,814.5398699287325,815.6938614114188,"[85, 0, 169]",169,l,0.6306386317592114,colour,0.5
71,64,0,2,8,45,395,816.2129776701331,817.4938447910827,"[81, 0, 173]",173,l,0.757496940670535,colour,0.5
71,64,0,2,8,46,396,818.0098197408952,819.1977988781873,"[9, 0, 245]",245,a,0.6653261489700526,colour,0.5
71,64,0,2,8,47,397,819.7130030731205,820.9578081571963,"[12, 0, 242]",242,a,0.7214782268274575,colour,0.5
71,64,0,2,8,48,398,821.4785726577975,822.6938889804296,"[21, 0, 233]",233,a,0.6919930099975318,colour,0.5
71,64,0,2,8,49,399,823.214920114493,825.1978485027794,"[72, 0, 182]",182,l,1.4596180727239698,colour,0.5
71,64,0,2,8,50,400,825.7148462685291,826.9338237755001,"[80, 0, 174]",174,l,0.6956758559681475,colour,0.5
71,64,0,2,9,1,401,833.8302641636692,835.5577760981396,"[38, 0, 216]",216,a,1.203425349900499,colour,0.5
71,64,0,2,9,2,402,836.0654413094744,837.1497541028075,"[96, 0, 158]",158,l,0.5610603729728609,colour,0.5
71,64,0,2,9,3,403,837.6597666309681,838.7817609524354,"[19, 0, 235]",235,a,0.5986422582063824,colour,0.5
71,64,0,2,9,4,404,839.3003474895377,840.4618661405984,"[75, 0, 179]",179,l,0.6381378371734172,colour,0.5
71,64,0,2,9,5,405,840.972253215732,842.1897817663848,"[55, 0, 199]",199,a,0.6945726957637817,colour,0.5
71,64,0,2,9,6,406,842.7085045739077,843.885733707808,"[94, 0, 160]",160,l,0.6569608780555427,colour,0.5
71,64,0,2,9,7,407,844.3936560999136,845.6618323486764,"[61, 0, 193]",193,a,0.7449171328917146,colour,0.5
71,64,0,2,9,8,408,846.1747939893976,847.4537300877273,"[15, 0, 239]",239,a,0.7556249948684126,colour,0.5
71,64,0,2,9,9,409,847.9715828911867,849.125742545817,"[54, 0, 200]",200,a,0.6309844278730452,colour,0.5
71,64,0,2,9,10,410,849.6439970713109,850.8377318615094,"[88, 0, 166]",166,l,0.6704985173419118,colour,0.5
71,64,0,2,9,11,411,851.3470275916625,852.5577091446612,"[80, 0, 174]",174,l,0.6874003820121288,colour,0.5
71,64,0,2,9,12,412,853.0658327913843,854.2617266406305,"[1, 0, 253]",253,a,0.672698536189273,colour,0.5
71,64,0,2,9,13,413,854.7688999392558,855.9337324034423,"[13, 0, 241]",241,a,0.6422472174745053,colour,0.5
71,64,0,2,9,14,414,856.4407717946451,857.6537167755887,"[60, 0, 194]",194,a,0.6896051268558949,colour,0.5
71,64,0,2,9,15,415,858.1595557269175,859.4137284178287,"[44, 0, 210]",210,a,0.7308576491195709,colour,0.5
71,64,0,2,9,16,416,859.9251040439121,861.1656985296868,"[45, 0, 209]",209,a,0.717283382313326,colour,0.5
71,64,0,2,9,17,417,861.6751620376017,862.9336823851336,"[66, 0, 188]",188,a,0.7352446899749339,colour,0.5
71,64,0,2,9,18,418,863.4407938499935,864.6537061419804,"[77, 0, 177]",177,l,0.6896693238522857,colour,0.5
71,64,0,2,9,19,419,865.1750877979212,866.3177656850312,"[26, 0, 228]",228,a,0.6318827886134386,colour,0.5
71,64,0,2,9,20,420,866.8345476235263,868.0457151813898,"[23, 0, 231]",231,a,0.6878816606476903,colour,0.5
71,64,0,2,9,21,421,868.5532752359286,869.7256907944102,"[31, 0, 223]",223,a,0.6491698333993554,colour,0.5
71,64,0,2,9,22,422,870.240747691365,871.4616786704864,"[20, 0, 234]",234,a,0.6976175126619637,colour,0.5
71,64,0,2,9,23,423,871.9751471898053,873.1496855737641,"[87, 0, 167]",167,l,0.6512737544253469,colour,0.5
71,64,0,2,9,24,424,873.6625975898933,874.9096936711576,"[79, 0, 175]",175,l,0.7237759195268154,colour,0.5
71,64,0,2,9,25,425,875.428164023906,876.6136623304337,"[29, 0, 225]",225,a,0.6620962249580771,colour,0.5
71,64,0,2,9,26,426,877.1313603529707,878.4057093367446,"[27, 0, 227]",227,a,0.7510095236357301,colour,0.5
71,64,0,2,9,27,427,878.9125368392561,880.0136514604092,"[71, 0, 183]",183,l,0.5777724040672183,colour,0.5
71,64,0,2,9,28,428,880.5219771498814,881.677639717469,"[8, 0, 246]",246,a,0.6326606327202171,colour,0.5
71,64,0,2,9,29,429,882.1938887836877,883.4056593184359,"[47, 0, 207]",207,a,0.6868600263260305,colour,0.5
71,64,0,2,9,30,430,883.915782517055,885.1097248636652,"[46, 0, 208]",208,a,0.6705638957209885,colour,0.5
71,64,0,2,9,31,431,885.6189965691883,886.8136915538926,"[32, 0, 222]",222,a,0.6714547735173255,colour,0.5
71,64,0,2,9,32,432,887.3220601724461,888.069627489429,"[98, 0, 156]",156,l,0.2245555359404534,colour,0.5
71,64,0,2,9,33,433,888.5880143470131,889.6136142814066,"[58, 0, 196]",196,a,0.5025582211092114,colour,0.5
71,64,0,2,9,34,434,890.1198541671038,891.3337309856433,"[33, 0, 221]",221,a,0.6905968289356679,colour,0.5
71,64,0,2,9,35,435,891.8541938008275,892.9419456501491,"[84, 0, 170]",170,l,0.5645892254542559,colour,0.5
71,64,0,2,9,36,436,893.4635246226098,894.4696804222185,"[41, 0, 213]",213,a,0.4828112192917615,colour,0.5
71,64,0,2,9,37,437,894.9810895253904,896.349632877158,"[39, 0, 215]",215,a,0.8452846298459917,colour,0.5
71,64,0,2,9,38,438,896.8560342392884,898.0615997437853,"[64, 0, 190]",190,l,0.6821354599669576,colour,0.5
71,64,0,2,9,39,439,898.5748555867467,899.7736150533892,"[57, 0, 197]",197,a,0.6754475755151361,colour,0.5
71,64,0,2,9,40,440,900.2936529098079,901.4136496486608,"[12, 0, 242]",242,a,0.5967714937869459,colour,0.5
71,64,0,2,9,41,441,901.9341971406247,902.9976353538223,"[86, 0, 168]",168,l,0.5401278974022716,colour,0.5
71,64,0,2,9,42,442,903.5122877715621,904.6776038776152,"[82, 0, 172]",172,l,0.6419553782325238,colour,0.5
71,64,0,2,9,43,443,905.1841478117276,906.381569386227,"[68, 0, 186]",186,l,0.6739734131842852,colour,0.5
71,64,0,2,9,44,444,906.9028309194837,907.9575647609308,"[35, 0, 219]",219,a,0.5322171237785369,colour,0.5
71,64,0,2,9,45,445,908.4654363468289,909.6616003739182,"[34, 0, 220]",220,a,0.6728824619203806,colour,0.5
71,64,0,2,9,46,446,910.168458202621,911.3655993593857,"[59, 0, 195]",195,a,0.6737946073990315,colour,0.5
71,64,0,2,9,47,447,911.8872708855197,913.0935906034429,"[14, 0, 240]",240,a,0.6830885650124401,colour,0.5
71,64,0,2,9,48,448,913.5940972852986,914.7096077341121,"[22, 0, 232]",232,a,0.592328920494765,colour,0.5
71,64,0,2,9,49,449,915.2189511195756,916.3575877614785,"[62, 0, 192]",192,a,0.6152030527591705,colour,0.5
71,64,0,2,9,50,450,916.8751885041129,917.9896458110306,"[99, 0, 155]",155,l,0.5911592002958059,colour,0.5
71,64,0,2,10,1,451,929.8899710879195,931.4775136082899,"[1, 0, 253]",253,a,1.0633972531650215,colour,0.5
71,64,0,2,10,2,452,931.9844927412923,933.1256759858225,"[12, 0, 242]",242,a,0.6178634765092283,colour,0.5
71,64,0,2,10,3,453,933.6281731610652,934.9655149190221,"[16, 0, 238]",238,a,0.8138349135406315,colour,0.5
71,64,0,2,10,4,454,935.472064366797,936.7496145239566,"[44, 0, 210]",210,a,0.7546002096496522,colour,0.5
71,64,0,2,10,5,455,937.2688855638262,938.5095249479637,"[46, 0, 208]",208,a,0.7173653021454811,colour,0.5
71,64,0,2,10,6,456,939.0188384009525,940.269548011478,"[58, 0, 196]",196,a,0.7273477010894567,colour,0.5
71,64,0,2,10,7,457,940.7845513452776,941.9575407363009,"[92, 0, 162]",162,l,0.6497034935746342,colour,0.5
71,64,0,2,10,8,458,942.4720072592609,943.6935510614421,"[90, 0, 164]",164,l,0.6968554223421961,colour,0.5
71,64,0,2,10,9,459,944.2062783641741,945.4534650298301,"[0, 0, 254]",254,a,0.7237747379112989,colour,0.5
71,64,0,2,10,10,460,945.9719495610334,948.0535566383041,"[60, 0, 194]",194,l,1.55850353022106,colour,0.5
71,64,0,2,10,11,461,948.5663713747635,949.7494695889764,"[33, 0, 221]",221,a,0.6597682063002139,colour,0.5
71,64,0,2,10,12,462,950.2694912976585,951.3575125371572,"[96, 0, 158]",158,l,0.5646975329145789,colour,0.5
71,64,0,2,10,13,463,951.8662068655249,953.0535007121507,"[26, 0, 228]",228,a,0.6639843184966594,colour,0.5
71,64,0,2,10,14,464,953.5694284006022,954.7734886291437,"[37, 0, 217]",217,a,0.6808286816813052,colour,0.5
71,64,0,2,10,15,465,955.277682489017,956.4534756636713,"[95, 0, 159]",159,l,0.6510189364198595,colour,0.5
71,64,0,2,10,16,466,956.9683978655376,958.2134557981044,"[30, 0, 224]",224,a,0.7217582506127656,colour,0.5
71,64,0,2,10,17,467,958.7339898995124,960.1254956049379,"[5, 0, 249]",249,a,0.8680650270543993,colour,0.5
71,64,0,2,10,18,468,960.6402669639792,961.8934932448901,"[42, 0, 212]",212,a,0.7299506235867739,colour,0.5
71,64,0,2,10,19,469,962.407768359175,963.6134504417423,"[50, 0, 204]",204,a,0.6823414408136159,colour,0.5
71,64,0,2,10,20,470,964.1264195656404,965.421449751826,"[35, 0, 219]",219,a,0.7698128724005073,colour,0.5
71,64,0,2,10,21,471,965.9408377637155,967.1094290860929,"[66, 0, 188]",188,l,0.6456401934847236,colour,0.5
71,64,0,2,10,22,472,967.6282964346465,968.829426061362,"[99, 0, 155]",155,l,0.6780221413355321,colour,0.5
71,64,0,2,10,23,473,969.3470854868647,970.5256150974892,"[2, 0, 252]",252,a,0.65523347328417,colour,0.5
71,64,0,2,10,24,474,971.0345406131819,972.3094323154073,"[17, 0, 237]",237,a,0.751592414220795,colour,0.5
71,64,0,2,10,25,475,972.8158399790991,973.9334062996786,"[74, 0, 180]",180,l,0.5943194138817489,colour,0.5
71,64,0,2,10,26,476,974.4408033022191,975.5894227372482,"[43, 0, 211]",211,a,0.6252748547121882,colour,0.5
71,64,0,2,10,27,477,976.097306138603,977.4213898873422,"[57, 0, 197]",197,a,0.8009601156227291,colour,0.5
71,64,0,2,10,28,478,977.940813345369,979.2054032403976,"[86, 0, 168]",168,l,0.7413079361431301,colour,0.5
71,64,0,2,10,29,479,979.7221095606219,981.021438566735,"[82, 0, 172]",172,l,0.7762372745200992,colour,0.5
71,64,0,2,10,30,480,981.534545536153,982.6694146555383,"[88, 0, 166]",166,l,0.6114823976531625,colour,0.5
71,64,0,2,10,31,481,983.1781294639222,984.3494249270298,"[3, 0, 251]",251,a,0.6487019455526024,colour,0.5
71,64,0,2,10,32,482,984.8656980176456,986.0534483308438,"[71, 0, 183]",183,l,0.6644399974029511,colour,0.5
71,64,0,2,10,33,483,986.5689010419883,987.8053829965647,"[34, 0, 220]",220,a,0.7132062972523272,colour,0.5
71,64,0,2,10,34,484,988.3188105560839,989.4613888002932,"[67, 0, 187]",187,l,0.6192135778255761,colour,0.5
71,64,0,2,10,35,485,989.9750132823829,991.2053654312622,"[77, 0, 177]",177,l,0.7070382884703577,colour,0.5
71,64,0,2,10,36,486,991.7269755173475,992.8933912389912,"[64, 0, 190]",190,l,0.6430542059242725,colour,0.5
71,64,0,2,10,37,487,993.4149182238616,994.6293621796649,"[63, 0, 191]",191,l,0.6910556587390602,colour,0.5
71,64,0,2,10,38,488,995.1493322947063,996.373347081244,"[93, 0, 161]",161,l,0.7007540953345597,colour,0.5
71,64,0,2,10,39,489,996.8836321502458,997.9893764210865,"[19, 0, 235]",235,a,0.5823906322475523,colour,0.5
71,64,0,2,10,40,490,998.5086793624796,1000.021317656152,"[47, 0, 207]",207,a,0.989390205591917,colour,0.5
71,64,0,2,10,41,491,1000.5398525993805,1001.8373510132078,"[22, 0, 232]",232,a,0.7741971565410495,colour,0.5
71,64,0,2,10,42,492,1002.3523531656247,1003.5093508684076,"[23, 0, 231]",231,a,0.633661393309012,colour,0.5
71,64,0,2,10,43,493,1004.024184454931,1005.1334055906627,"[72, 0, 182]",182,l,0.5858411092776805,colour,0.5
71,64,0,2,10,44,494,1005.6493313100655,1007.5733459782787,"[49, 0, 205]",205,a,1.400794149376452,colour,0.5
71,64,0,2,10,45,495,1008.0866534151137,1009.3653472985607,"[45, 0, 209]",209,a,0.755267383530736,colour,0.5
71,64,0,2,10,46,496,1009.8835766180418,1010.9813486754429,"[84, 0, 170]",170,l,0.5744755263440311,colour,0.5
71,64,0,2,10,47,497,1011.4929322518874,1012.7413236899301,"[52, 0, 202]",202,a,0.7250555222854018,colour,0.5
71,64,0,2,10,48,498,1013.2585951779038,1014.4693696782924,"[56, 0, 198]",198,a,0.6873818710446358,colour,0.5
71,64,0,2,10,49,499,1014.9773027042393,1016.2532987485174,"[11, 0, 243]",243,a,0.7525994763709605,colour,0.5
71,64,0,2,10,50,500,1016.774179039523,1017.8453389804345,"[70, 0, 184]",184,l,0.5478248128201813,colour,0.5
71,64,0,2,11,1,501,1025.1806370760314,1027.2375847210642,"[99, 0, 155]",155,l,1.5328015899285674,colour,0.5
71,64,0,2,11,2,502,1027.7439860829618,1028.8292799447663,"[30, 0, 224]",224,a,0.5620725550688803,colour,0.5
71,64,0,2,11,3,503,1029.3376639231574,1030.461292702239,"[42, 0, 212]",212,a,0.6004866352304816,colour,0.5
71,64,0,2,11,4,504,1030.980165564688,1032.0772523314226,"[66, 0, 188]",188,l,0.5737532142084092,colour,0.5
71,64,0,2,11,5,505,1032.5775920229498,1033.8373132040724,"[0, 0, 254]",254,a,0.736407320946455,colour,0.5
71,64,0,2,11,6,506,1034.3587799307425,1035.5412389345001,"[26, 0, 228]",228,a,0.6591467189136893,colour,0.5
71,64,0,2,11,7,507,1036.0619380567223,1037.5252377938014,"[51, 0, 203]",203,a,0.9399043507874012,colour,0.5
71,64,0,2,11,8,508,1038.0462515985128,1039.2052583051845,"[25, 0, 229]",229,a,0.6356306187808514,colour,0.5
71,64,0,2,11,9,509,1039.7181002169382,1040.9012701110914,"[16, 0, 238]",238,a,0.6597855354193598,colour,0.5
71,64,0,2,11,10,510,1041.421213444788,1042.63742852211,"[12, 0, 242]",242,a,0.6930221274960786,colour,0.5
71,64,0,2,11,11,511,1043.155605854001,1043.8132342996541,"[67, 0, 187]",187,l,0.13451032643206418,colour,0.5
71,64,0,2,11,12,512,1044.3275035060942,1045.6212233696133,"[47, 0, 207]",207,a,0.7703772524837404,colour,0.5
71,64,0,2,11,13,513,1046.1399733524304,1047.2452796674334,"[71, 0, 183]",183,l,0.5819404672365636,colour,0.5
71,64,0,2,11,14,514,1047.7650335615035,1048.9175339464564,"[50, 0, 204]",204,l,0.6293145243544132,colour,0.5
71,64,0,2,11,15,515,1049.4367872632574,1050.5812134291045,"[54, 0, 200]",200,l,0.621110336156562,colour,0.5
71,64,0,2,11,16,516,1051.0930604878813,1052.2455636297818,"[22, 0, 232]",232,a,0.6278179127257317,colour,0.5
71,64,0,2,11,17,517,1052.7662852013018,1053.9171676705591,"[13, 0, 241]",241,a,0.6275311936624348,colour,0.5
71,64,0,2,11,18,518,1054.4381735981442,1055.4932055803947,"[65, 0, 189]",189,l,0.5318610875401646,colour,0.5
71,64,0,2,11,19,519,1056.000614398392,1057.1892189616337,"[69, 0, 185]",185,l,0.6652678598184139,colour,0.5
71,64,0,2,11,20,520,1057.703761496814,1058.8132339057047,"[72, 0, 182]",182,l,0.5862081730738282,colour,0.5
71,64,0,2,11,21,521,1059.328724819934,1060.469187721843,"[80, 0, 174]",174,l,0.617160856956616,colour,0.5
71,64,0,2,11,22,522,1060.9849952876102,1061.6772131831385,"[11, 0, 243]",243,a,0.16892254585400224,colour,0.5
71,64,0,2,11,23,523,1062.1900405227207,1063.237256648019,"[92, 0, 162]",162,l,0.5239266834687442,colour,0.5
71,64,0,2,11,24,524,1063.7438943171874,1064.9651821199805,"[33, 0, 221]",221,l,0.6978408228605986,colour,0.5
71,64,0,2,11,25,525,1065.4782898770645,1066.6211918620393,"[73, 0, 181]",181,l,0.6195270786993206,colour,0.5
71,64,0,2,11,26,526,1067.134587520035,1068.3332075653598,"[39, 0, 215]",215,l,0.6756622209213674,colour,0.5
71,64,0,2,11,27,527,1068.853302135598,1070.005179851316,"[21, 0, 233]",233,a,0.6285453448072076,colour,0.5
71,64,0,2,11,28,528,1070.5251401201822,1071.7091831690632,"[14, 0, 240]",240,a,0.6609076003078371,colour,0.5
71,64,0,2,11,29,529,1072.2283049416728,1073.4211898141075,"[32, 0, 222]",222,a,0.6706513294484466,colour,0.5
71,64,0,2,11,30,530,1073.931422107853,1075.1811790068168,"[34, 0, 220]",220,a,0.7275123281870037,colour,0.5
71,64,0,2,11,31,531,1075.697086215485,1076.8291369788349,"[82, 0, 172]",172,l,0.6087266630493104,colour,0.5
71,64,0,2,11,32,532,1077.337799405912,1078.4771764769685,"[10, 0, 244]",244,a,0.6163302375935018,colour,0.5
71,64,0,2,11,33,533,1078.9939765322488,1080.3091641070787,"[36, 0, 218]",218,a,0.7919304282404482,colour,0.5
71,64,0,2,11,34,534,1080.82207769854,1082.0611287050415,"[87, 0, 167]",167,l,0.7158174905925989,colour,0.5
71,64,0,2,11,35,535,1082.572088036919,1083.8131106323563,"[93, 0, 161]",161,l,0.7178839961998165,colour,0.5
71,64,0,2,11,36,536,1084.3220920739695,1085.5091051089112,"[20, 0, 234]",234,a,0.6638669527601451,colour,0.5
71,64,0,2,11,37,537,1086.0252501999494,1087.1891220759135,"[74, 0, 180]",180,l,0.6405824341345578,colour,0.5
71,64,0,2,11,38,538,1087.6970917293802,1088.8851488479413,"[63, 0, 191]",191,l,0.6648208459373564,colour,0.5
71,64,0,2,11,39,539,1089.400162027916,1090.5492056340445,"[45, 0, 209]",209,l,0.6257395918946713,colour,0.5
71,64,0,2,11,40,540,1091.0439810813405,1092.2051456656773,"[97, 0, 157]",157,l,0.6378601763863117,colour,0.5
71,64,0,2,11,41,541,1092.7158293058164,1093.9650923232548,"[79, 0, 175]",175,l,0.7258727510925382,colour,0.5
71,64,0,2,11,42,542,1094.4814197644591,1095.6211048222613,"[3, 0, 251]",251,a,0.6163629267830402,colour,0.5
71,64,0,2,11,43,543,1096.1377103182022,1097.4290564770345,"[2, 0, 252]",252,a,0.7681646305136383,colour,0.5
71,64,0,2,11,44,544,1097.950173862977,1099.021088044392,"[64, 0, 190]",190,l,0.548369106836617,colour,0.5
71,64,0,2,11,45,545,1099.5282833983656,1100.7331061109435,"[41, 0, 213]",213,l,0.6833295982796699,colour,0.5
71,64,0,2,11,46,546,1101.242051712703,1102.5171395498328,"[88, 0, 166]",166,l,0.7518354167696089,colour,0.5
71,64,0,2,11,47,547,1103.0388677897863,1104.1891197126824,"[24, 0, 230]",230,l,0.6271861852146685,colour,0.5
71,64,0,2,11,48,548,1104.6950949344318,1105.8690523968544,"[98, 0, 156]",156,l,0.6495928233489394,colour,0.5
71,64,0,2,11,49,549,1106.383662673179,1107.589187611593,"[60, 0, 194]",194,l,0.6822106842882931,colour,0.5
71,64,0,2,11,50,550,1108.1024150978774,1109.3570627658628,"[78, 0, 176]",176,l,0.7321482794359326,colour,0.5
71,64,0,2,12,1,551,1115.429672057042,1117.2130387162324,"[86, 0, 168]",168,l,1.2592446287162602,colour,0.5
71,64,0,2,12,2,552,1117.727434346918,1118.9650682986248,"[16, 0, 238]",238,a,0.714511499973014,colour,0.5
71,64,0,2,12,3,553,1119.477389153326,1120.5730895851739,"[52, 0, 202]",202,l,0.5713570604566485,colour,0.5
71,64,0,2,12,4,554,1121.0897888161708,1122.1730023878627,"[73, 0, 181]",181,l,0.5600852123461664,colour,0.5
71,64,0,2,12,5,555,1122.675358172506,1123.7890340907034,"[45, 0, 209]",209,l,0.590382537804544,colour,0.5
71,64,0,2,12,6,556,1124.294043210335,1125.4050527969375,"[26, 0, 228]",228,a,0.5877492893487215,colour,0.5
71,64,0,2,12,7,557,1125.9188911367673,1127.061003068462,"[14, 0, 240]",240,a,0.6187267852947116,colour,0.5
71,64,0,2,12,8,558,1127.5752447058912,1128.693019764265,"[25, 0, 229]",229,a,0.5944426874630153,colour,0.5
71,64,0,2,12,9,559,1129.2002147242893,1129.8610423742794,"[82, 0, 172]",172,l,0.13757641101256013,colour,0.5
71,64,0,2,12,10,560,1130.3720682659186,1131.517048177775,"[18, 0, 236]",236,a,0.6218401310034096,colour,0.5
71,64,0,2,12,11,561,1132.0282485431526,1133.261022445513,"[2, 0, 252]",252,a,0.7092824180144817,colour,0.5
71,64,0,2,12,12,562,1133.7782565183006,1134.9570086514577,"[48, 0, 206]",206,a,0.6553472944069654,colour,0.5
71,64,0,2,12,13,563,1135.4658372811973,1136.6290049620438,"[24, 0, 230]",230,a,0.639835309702903,colour,0.5
71,64,0,2,12,14,564,1137.1376819612924,1138.3410198776983,"[19, 0, 235]",235,a,0.6800319328904152,colour,0.5
71,64,0,2,12,15,565,1138.8564985827543,1139.5970782991499,"[68, 0, 186]",186,l,0.2172630992718041,colour,0.5
71,64,0,2,12,16,566,1140.1064390137326,1141.3650081979576,"[69, 0, 185]",185,l,0.7352907699532807,colour,0.5
71,64,0,2,12,17,567,1141.8720436505973,1142.99701386597,"[31, 0, 223]",223,a,0.6019182619638741,colour,0.5
71,64,0,2,12,18,568,1143.5127119428944,1144.7089882157743,"[78, 0, 176]",176,l,0.6730392123572528,colour,0.5
71,64,0,2,12,19,569,1145.2158791273832,1146.6530157313682,"[22, 0, 232]",232,a,0.9138814266771078,colour,0.5
71,64,0,2,12,20,570,1147.1689052167349,1148.2689383390825,"[61, 0, 193]",193,l,0.5767255635000765,colour,0.5
71,64,0,2,12,21,571,1148.778239583131,1150.0049927749205,"[96, 0, 158]",158,l,0.7033298425376415,colour,0.5
71,64,0,2,12,22,572,1150.5126528660767,1151.6769906608388,"[54, 0, 200]",200,l,0.641127121867612,colour,0.5
71,64,0,2,12,23,573,1152.1753268619068,1153.1650585313328,"[47, 0, 207]",207,l,0.4664575874339789,colour,0.5
71,64,0,2,12,24,574,1153.6752947636414,1154.8769348135684,"[20, 0, 234]",234,a,0.6782588420901448,colour,0.5
71,64,0,2,12,25,575,1155.3940219820943,1156.7091752921697,"[1, 0, 253]",253,a,0.7917910069227219,colour,0.5
71,64,0,2,12,26,576,1157.222157412907,1158.2849898920394,"[57, 0, 197]",197,l,0.5396753693930805,colour,0.5
71,64,0,2,12,27,577,1158.800216929987,1160.0929592696484,"[21, 0, 233]",233,a,0.7693445903714746,colour,0.5
71,64,0,2,12,28,578,1160.6143917317968,1162.0049289718736,"[32, 0, 222]",222,a,0.867304905783385,colour,0.5
71,64,0,2,12,29,579,1162.5206116887275,1164.0449842049275,"[40, 0, 214]",214,l,1.0011193079408258,colour,0.5
71,64,0,2,12,30,580,1164.5518392764498,1166.028972036671,"[34, 0, 220]",220,l,0.953786998288706,colour,0.5
71,64,0,2,12,31,581,1166.5362268611789,1167.6049063652754,"[56, 0, 198]",198,l,0.5453687945846468,colour,0.5
71,64,0,2,12,32,582,1168.1143167042173,1169.2209108928218,"[53, 0, 201]",201,l,0.5833342850673944,colour,0.5
71,64,0,2,12,33,583,1169.7392867228482,1170.9249110599048,"[90, 0, 164]",164,l,0.6622951168101281,colour,0.5
71,64,0,2,12,34,584,1171.4424759626854,1172.6449466319755,"[79, 0, 175]",175,l,0.6791670490056276,colour,0.5
71,64,0,2,12,35,585,1173.1610810891725,1174.3331473071594,"[30, 0, 224]",224,a,0.6485830042511225,colour,0.5
71,64,0,2,12,36,586,1174.8501891836058,1175.9888813577127,"[75, 0, 179]",179,l,0.6153271140065044,colour,0.5
71,64,0,2,12,37,587,1176.5064320820384,1177.612924264744,"[7, 0, 247]",247,a,0.5831255472730845,colour,0.5
71,64,0,2,12,38,588,1178.131450543413,1179.3009162019007,"[85, 0, 169]",169,l,0.6461466781329364,colour,0.5
71,64,0,2,12,39,589,1179.8188887343276,1180.956871593371,"[65, 0, 189]",189,l,0.6146327648311853,colour,0.5
71,64,0,2,12,40,590,1181.475154082058,1182.669039321132,"[60, 0, 194]",194,l,0.6706143079791218,colour,0.5
71,64,0,2,12,41,591,1183.1782424976118,1184.292857736349,"[49, 0, 205]",205,l,0.5911828312091529,colour,0.5
71,64,0,2,12,42,592,1184.7908508984838,1185.9328824856784,"[76, 0, 178]",178,l,0.6186720407567918,colour,0.5
71,64,0,2,12,43,593,1186.4470583507791,1187.6608764866833,"[80, 0, 174]",174,l,0.6905062447767705,colour,0.5
71,64,0,2,12,44,594,1188.1814850245137,1189.3888626105618,"[70, 0, 184]",184,l,0.6840684518683702,colour,0.5
71,64,0,2,12,45,595,1189.9022149457596,1191.0611610002816,"[84, 0, 170]",170,l,0.6366431948263198,colour,0.5
71,64,0,2,12,46,596,1191.5741305178963,1192.6848793788813,"[63, 0, 191]",191,l,0.5875744218938053,colour,0.5
71,64,0,2,12,47,597,1193.1990056198556,1194.4128989798483,"[13, 0, 241]",241,a,0.6905798935331404,colour,0.5
71,64,0,2,12,48,598,1194.9333708535414,1196.1409162175842,"[39, 0, 215]",215,l,0.6842417435254902,colour,0.5
71,64,0,2,12,49,599,1196.6522107119672,1197.8768469861243,"[10, 0, 244]",244,a,0.7014236322138458,colour,0.5
71,64,0,2,12,50,600,1198.3752800731454,1199.4928286706563,"[95, 0, 159]",159,l,0.5942363126669079,colour,0.5
71,64,0,2,13,1,601,1258.5865815384313,1260.2046931374352,"[88, 0, 166]",166,l,1.0941313528455794,colour,0.5
71,64,0,2,13,2,602,1260.7124607483856,1261.9727447342593,"[82, 0, 172]",172,l,0.737100882222876,colour,0.5
71,64,0,2,13,3,603,1262.493636447005,1263.7886607255787,"[57, 0, 197]",197,a,0.771719082724303,colour,0.5
71,64,0,2,13,4,604,1264.3064946245868,1265.5486944229342,"[44, 0, 210]",210,a,0.7190068485215306,colour,0.5
71,64,0,2,13,5,605,1266.0563875972293,1267.252689863788,"[36, 0, 218]",218,a,0.6729714709799737,colour,0.5
71,64,0,2,13,6,606,1267.759583138628,1268.9646831180435,"[13, 0, 241]",241,a,0.6817680022213608,colour,0.5
71,64,0,2,13,7,607,1269.4782796371728,1270.748642514227,"[33, 0, 221]",221,a,0.7469568569213152,colour,0.5
71,64,0,2,13,8,608,1271.2595049601514,1272.516964288894,"[14, 0, 240]",240,a,0.7340926930774003,colour,0.5
71,64,0,2,13,9,609,1273.0251324402634,1274.3646289249882,"[8, 0, 246]",246,a,0.8161046430468559,colour,0.5
71,64,0,2,13,10,610,1274.8845210587606,1276.0286459329072,"[69, 0, 185]",185,l,0.6208740291185677,colour,0.5
71,64,0,2,13,11,611,1276.540744264843,1277.7886485164054,"[52, 0, 202]",202,a,0.7245514004025608,colour,0.5
71,64,0,2,13,12,612,1278.306413098704,1279.5486432232428,"[53, 0, 201]",201,a,0.7190056671388447,colour,0.5
71,64,0,2,13,13,613,1280.0564057140145,1281.3006263319403,"[56, 0, 198]",198,a,0.7210288494825363,colour,0.5
71,64,0,2,13,14,614,1281.8220135017764,1283.0366374447476,"[37, 0, 217]",217,a,0.6915341806598008,colour,0.5
71,64,0,2,13,15,615,1283.5563877939712,1284.268677613698,"[73, 0, 181]",181,l,0.1890129807870835,colour,0.5
71,64,0,2,13,16,616,1284.7751002435107,1285.9729105432052,"[41, 0, 213]",213,a,0.6744613873306662,colour,0.5
71,64,0,2,13,17,617,1286.493943252368,1287.7165976976976,"[87, 0, 167]",167,l,0.6994760676752776,colour,0.5
71,64,0,2,13,18,618,1288.2281682773028,1289.4766625089105,"[80, 0, 174]",174,l,0.7250917560886592,colour,0.5
71,64,0,2,13,19,619,1289.9939284832217,1291.1726309917867,"[0, 0, 254]",254,a,0.6555501248221844,colour,0.5
71,64,0,2,13,20,620,1291.681304052705,1293.316625109408,"[61, 0, 193]",193,l,1.1119587533175945,colour,0.5
71,64,0,2,13,21,621,1293.837528243661,1295.1405944461003,"[68, 0, 186]",186,l,0.7799268155358732,colour,0.5
71,64,0,2,13,22,622,1295.6500276282895,1296.8526420509443,"[64, 0, 190]",190,l,0.6793545191176236,colour,0.5
71,64,0,2,13,23,623,1297.3688154988922,1298.7246029942762,"[48, 0, 206]",206,l,0.8325106564443558,colour,0.5
71,64,0,2,13,24,624,1299.2438543417957,1300.5165932867676,"[49, 0, 205]",205,a,0.7474479819647968,colour,0.5
71,64,0,2,13,25,625,1301.0270878814626,1302.2525724980514,"[10, 0, 244]",244,a,0.7021258580498397,colour,0.5
71,64,0,2,13,26,626,1302.7613361433614,1303.988608422922,"[3, 0, 251]",251,a,0.7038465673103929,colour,0.5
71,64,0,2,13,27,627,1304.4958908166736,1305.7326118352357,"[18, 0, 236]",236,a,0.7134213366080076,colour,0.5
71,64,0,2,13,28,628,1306.245923210401,1307.4285657459404,"[92, 0, 162]",162,l,0.6593739674426615,colour,0.5
71,64,0,2,13,29,629,1307.949083699612,1309.1885860525072,"[70, 0, 184]",184,l,0.7162266955710948,colour,0.5
71,64,0,2,13,30,630,1309.699031022843,1310.8445402625948,"[34, 0, 220]",220,a,0.622185533400625,colour,0.5
71,64,0,2,13,31,631,1311.3552498966455,1312.6126769299153,"[47, 0, 207]",207,a,0.7341694927308708,colour,0.5
71,64,0,2,13,32,632,1313.12093093968,1314.340525208274,"[50, 0, 204]",204,a,0.6963788697030395,colour,0.5
71,64,0,2,13,33,633,1314.855246155057,1316.0125557831489,"[24, 0, 230]",230,a,0.6341867826413363,colour,0.5
71,64,0,2,13,34,634,1316.5272334071342,1317.7645396797452,"[95, 0, 159]",159,l,0.7141558579169214,colour,0.5
71,64,0,2,13,35,635,1318.2771779734176,1319.3565413148608,"[15, 0, 239]",239,a,0.5561471546534449,colour,0.5
71,64,0,2,13,36,636,1319.8708479367197,1321.0845687927213,"[39, 0, 215]",215,a,0.6904826138634235,colour,0.5
71,64,0,2,13,37,637,1321.5927743595093,1322.7007174675819,"[62, 0, 192]",192,l,0.5845894694793969,colour,0.5
71,64,0,2,13,38,638,1323.2177735224832,1324.4125220701098,"[72, 0, 182]",182,l,0.6713870321400464,colour,0.5
71,64,0,2,13,39,639,1324.9208646949846,1326.0445206491277,"[17, 0, 237]",237,a,0.6004657612647861,colour,0.5
71,64,0,2,13,40,640,1326.5614711532835,1327.7325224324595,"[27, 0, 227]",227,a,0.6475306500215083,colour,0.5
71,64,0,2,13,41,641,1328.2490306484979,1329.4844787598122,"[28, 0, 226]",226,a,0.7105828949715942,colour,0.5
71,64,0,2,13,42,642,1330.0005801338702,1331.1804976547137,"[12, 0, 242]",242,a,0.6565784544218332,colour,0.5
71,64,0,2,13,43,643,1331.6881033952814,1332.9405250507407,"[38, 0, 216]",216,a,0.7293590682093054,colour,0.5
71,64,0,2,13,44,644,1333.4438603282906,1334.5324577630963,"[98, 0, 156]",156,l,0.5653410758823156,colour,0.5
71,64,0,2,13,45,645,1335.0531616115477,1336.2125058437232,"[75, 0, 179]",179,l,0.6360567593947053,colour,0.5
71,64,0,2,13,46,646,1336.7250960883684,1337.9724847965408,"[54, 0, 200]",200,l,0.7240110449492931,colour,0.5
71,64,0,2,13,47,647,1338.4906806391664,1339.6684619442094,"[30, 0, 224]",224,l,0.6543957649264485,colour,0.5
71,64,0,2,13,48,648,1340.1781542762183,1341.4204671082553,"[71, 0, 183]",183,l,0.7178863591980189,colour,0.5
71,64,0,2,13,49,649,1341.929248476401,1343.0284627948422,"[67, 0, 187]",187,l,0.5759201503824443,colour,0.5
71,64,0,2,13,50,650,1343.5408915630542,1344.6684938455,"[66, 0, 188]",188,l,0.6042395853437483,colour,0.5
71,64,0,2,14,1,651,1351.221452036174,1352.5404280072544,"[46, 0, 208]",208,a,0.7948322789743543,colour,0.5
71,64,0,2,14,2,652,1353.0503983939998,1354.1404353326652,"[23, 0, 231]",231,a,0.566734106047079,colour,0.5
71,64,0,2,14,3,653,1354.6598020771053,1355.8204712041188,"[9, 0, 245]",245,a,0.637663253583014,colour,0.5
71,64,0,2,14,4,654,1356.3316459695343,1358.9884772724472,"[95, 0, 159]",159,l,2.1334426121320575,colour,0.5
71,64,0,2,14,5,655,1359.5035235355608,1365.252422836842,"[45, 0, 209]",209,l,5.225671692984179,colour,0.5
71,64,0,2,14,6,656,1365.7690948925447,1366.868406884605,"[91, 0, 163]",163,l,0.5760071901604533,colour,0.5
71,64,0,2,14,7,657,1367.3784461943433,1368.5244245035574,"[1, 0, 253]",253,a,0.6227731502149254,colour,0.5
71,64,0,2,14,8,658,1369.0347060279455,1370.2284002522938,"[88, 0, 166]",166,l,0.6703567332588136,colour,0.5
71,64,0,2,14,9,659,1370.7271854367573,1371.876488193171,"[71, 0, 183]",183,l,0.6260491542052478,colour,0.5
71,64,0,2,14,10,660,1372.383336175466,1373.8843800621107,"[51, 0, 203]",203,a,0.9777253000065684,colour,0.5
71,64,0,2,14,11,661,1374.3989198403433,1375.5643966351636,"[76, 0, 178]",178,l,0.6420684116892517,colour,0.5
71,64,0,2,14,12,662,1376.0708149324637,1377.2764623567928,"[99, 0, 155]",155,l,0.6824454159941524,colour,0.5
71,64,0,2,14,13,663,1377.7895571172703,1379.1404266681056,"[93, 0, 161]",161,l,0.8265521731227636,colour,0.5
71,64,0,2,14,14,664,1379.6499268037733,1380.7004071176052,"[22, 0, 232]",232,a,0.5364332359749824,colour,0.5
71,64,0,2,14,15,665,1381.2188120922074,1382.5003660789225,"[50, 0, 204]",204,a,0.7582361879758537,colour,0.5
71,64,0,2,14,16,666,1383.0156112338882,1384.2843605272938,"[27, 0, 227]",227,a,0.7453767501283437,colour,0.5
71,64,0,2,14,17,667,1384.7968716092873,1385.9563903147355,"[81, 0, 173]",173,l,0.6361823959741741,colour,0.5
71,64,0,2,14,18,668,1386.4687950583175,1387.6683796304278,"[92, 0, 162]",162,l,0.6762080905027688,colour,0.5
71,64,0,2,14,19,669,1388.1875447260682,1389.492508080788,"[43, 0, 211]",211,a,0.7818082140292972,colour,0.5
71,64,0,2,14,20,670,1390.0000133907888,1391.2843983364291,"[18, 0, 236]",236,l,0.761117952875793,colour,0.5
71,64,0,2,14,21,671,1391.7968456153758,1392.9483330307994,"[70, 0, 184]",184,l,0.6282361764460802,colour,0.5
71,64,0,2,14,22,672,1393.4687859998085,1394.660390875535,"[98, 0, 156]",156,l,0.6684690334368497,colour,0.5
71,64,0,2,14,23,673,1395.1717854063027,1396.436363879824,"[74, 0, 180]",180,l,0.7413248715456575,colour,0.5
71,64,0,2,14,24,674,1396.9530800462235,1398.4843294923194,"[44, 0, 210]",210,a,1.0083408523350954,colour,0.5
71,64,0,2,14,25,675,1399.00111261243,1400.2283132125158,"[12, 0, 242]",242,a,0.7039115519728512,colour,0.5
71,64,0,2,14,26,676,1400.7230295827612,1401.9643400788773,"[55, 0, 199]",199,a,0.7179529189597815,colour,0.5
71,64,0,2,14,27,677,1402.473012746079,1403.7083557003643,"[36, 0, 218]",218,a,0.7120751738548279,colour,0.5
71,64,0,2,14,28,678,1404.2229494354688,1405.564338346012,"[35, 0, 219]",219,a,0.8183759481180459,colour,0.5
71,64,0,2,14,29,679,1406.082370349206,1406.8282791841775,"[89, 0, 165]",165,l,0.2225473194848746,colour,0.5
71,64,0,2,14,30,680,1407.34800629667,1408.4682984196115,"[30, 0, 224]",224,a,0.5938731874339283,colour,0.5
71,64,0,2,14,31,681,1408.9761278640945,1410.180313335266,"[53, 0, 201]",201,a,0.6808574323076755,colour,0.5
71,64,0,2,14,32,682,1410.6855449771974,1411.9562950041145,"[39, 0, 215]",215,a,0.7474385295063257,colour,0.5
71,64,0,2,14,33,683,1412.4667848728132,1413.7082918975502,"[2, 0, 252]",252,a,0.7181297554634511,colour,0.5
71,64,0,2,14,34,684,1414.2168267187662,1415.3565539179835,"[78, 0, 176]",176,l,0.6164212159346789,colour,0.5
71,64,0,2,14,35,685,1415.872948312899,1417.0203046863899,"[20, 0, 234]",234,a,0.6239586242008954,colour,0.5
71,64,0,2,14,36,686,1417.529285340337,1418.7403103262186,"[64, 0, 190]",190,l,0.6877253039274365,colour,0.5
71,64,0,2,14,37,687,1419.2497025483754,1420.4442616566084,"[69, 0, 185]",185,l,0.6711326080840081,colour,0.5
71,64,0,2,14,38,688,1420.9437813623808,1422.0842698642518,"[58, 0, 196]",196,l,0.6171604632399976,colour,0.5
71,64,0,2,14,39,689,1422.6000589192845,1423.796266663121,"[11, 0, 243]",243,a,0.6729588680900633,colour,0.5
71,64,0,2,14,40,690,1424.303183174692,1425.908299853094,"[31, 0, 223]",223,l,1.0818922210019082,colour,0.5
71,64,0,2,14,41,691,1426.4281439378392,1427.5562574313954,"[8, 0, 246]",246,a,0.6047866363078356,colour,0.5
71,64,0,2,14,42,692,1428.0686921072192,1429.3642496520188,"[42, 0, 212]",212,a,0.7845879727974534,colour,0.5
71,64,0,2,14,43,693,1429.8844824619591,1431.1002922724,"[48, 0, 206]",206,a,0.6912691225297749,colour,0.5
71,64,0,2,14,44,694,1431.6200402588584,1432.8122469298542,"[5, 0, 249]",249,a,0.6690389271825552,colour,0.5
71,64,0,2,14,45,695,1433.3232094126288,1434.5802520529833,"[49, 0, 205]",205,a,0.7336893954779953,colour,0.5
71,64,0,2,14,46,696,1435.0888077479322,1436.1962617007084,"[86, 0, 168]",168,l,0.5841389107517898,colour,0.5
71,64,0,2,14,47,697,1436.7138073048554,1437.828247282654,"[60, 0, 194]",194,l,0.591143446508795,colour,0.5
71,64,0,2,14,48,698,1438.3387887449935,1439.4445338035002,"[94, 0, 160]",160,l,0.5823725152295083,colour,0.5
71,64,0,2,14,49,699,1439.9615508676507,1441.0122202271596,"[0, 0, 254]",254,a,0.5273232038598508,colour,0.5
71,64,0,2,14,50,700,1441.5240511384327,1442.756281928625,"[97, 0, 157]",157,l,0.7088901484385133,colour,0.5
71,64,0,2,15,1,701,1456.4014530521818,1458.4601989942603,"[19, 0, 235]",235,l,1.5347007112577558,colour,0.5
71,64,0,2,15,2,702,1458.9803530348,1460.188189056702,"[85, 0, 169]",169,l,0.6845839952584356,colour,0.5
71,64,0,2,15,3,703,1460.6990668626968,1461.6601573254447,"[14, 0, 240]",240,a,0.43625163403339684,colour,0.5
71,64,0,2,15,4,704,1462.1693325387314,1463.3481925856322,"[96, 0, 158]",158,l,0.6554233068600297,colour,0.5
71,64,0,2,15,5,705,1463.8614090438932,1464.9881720426492,"[77, 0, 177]",177,l,0.6033920308109373,colour,0.5
71,64,0,2,15,6,706,1465.5030410753097,1466.6201469907537,"[16, 0, 238]",238,a,0.5938093843869865,colour,0.5
71,64,0,2,15,7,707,1467.1194524448365,1468.3801511498168,"[26, 0, 228]",228,a,0.7373253740370274,colour,0.5
71,64,0,2,15,8,708,1468.9006939157844,1470.1161484781187,"[48, 0, 206]",206,a,0.6930276413913816,colour,0.5
71,64,0,2,15,9,709,1470.6351540663745,1471.83621595148,"[47, 0, 207]",207,a,0.6777484186459333,colour,0.5
71,64,0,2,15,10,710,1472.3538962509483,1473.580246539088,"[50, 0, 204]",204,a,0.7033227533102036,colour,0.5
71,64,0,2,15,11,711,1474.0881649926305,1475.2921610244084,"[59, 0, 195]",195,a,0.6809172970242798,colour,0.5
71,64,0,2,15,12,712,1475.8068520389497,1477.0282107340172,"[32, 0, 222]",222,a,0.6979703980032355,colour,0.5
71,64,0,2,15,13,713,1477.5413803248666,1478.7561519595329,"[42, 0, 212]",212,a,0.6915393003728241,colour,0.5
71,64,0,2,15,14,714,1479.2765289167874,1480.4921851276886,"[11, 0, 243]",243,a,0.6922887878026813,colour,0.5
71,64,0,2,15,15,715,1481.0108342859894,1482.380108614685,"[24, 0, 230]",230,a,0.8458490101620555,colour,0.5
71,64,0,2,15,16,716,1482.8922030082904,1484.0841367444955,"[72, 0, 182]",182,l,0.6686242083087564,colour,0.5
71,64,0,2,15,17,717,1484.5953063897323,1485.8201214696746,"[61, 0, 193]",193,l,0.7018793108873069,colour,0.5
71,64,0,2,15,18,718,1486.3296688667033,1487.4521235933062,"[79, 0, 175]",175,l,0.5991664661560208,colour,0.5
71,64,0,2,15,19,719,1487.9703135283198,1489.2281462221872,"[10, 0, 244]",244,a,0.73467440251261,colour,0.5
71,64,0,2,15,20,720,1489.7269940280821,1491.004106229404,"[12, 0, 242]",242,a,0.7537097258027643,colour,0.5
71,64,0,2,15,21,721,1491.5250960094854,1492.676130109001,"[84, 0, 170]",170,l,0.6277080299332738,colour,0.5
71,64,0,2,15,22,722,1493.1832360601984,1494.324120376492,"[57, 0, 197]",197,l,0.6175558837130666,colour,0.5
71,64,0,2,15,23,723,1494.8396077458747,1495.93210267229,"[27, 0, 227]",227,a,0.5692456567194313,colour,0.5
71,64,0,2,15,24,724,1496.4488885493483,1497.5641548142303,"[54, 0, 200]",200,a,0.5919378323014826,colour,0.5
71,64,0,2,15,25,725,1498.0739030723926,1499.2600256234873,"[80, 0, 174]",174,l,0.6628622538410127,colour,0.5
71,64,0,2,15,26,726,1499.7769698263146,1501.0120619013906,"[67, 0, 187]",187,l,0.7118089345749468,colour,0.5
71,64,0,2,15,27,727,1501.526945112506,1502.7560464090202,"[75, 0, 179]",179,l,0.7058256391901523,colour,0.5
71,64,0,2,15,28,728,1503.2769857770763,1504.5721069416031,"[97, 0, 157]",157,l,0.7718789840582758,colour,0.5
71,64,0,2,15,29,729,1505.0895253338385,1506.2680517937988,"[23, 0, 231]",231,a,0.6553216946776956,colour,0.5
71,64,0,2,15,30,730,1506.7769832171034,1508.788051053416,"[55, 0, 199]",199,l,1.4878945788368583,colour,0.5
71,64,0,2,15,31,731,1509.309617422754,1510.5320383179933,"[66, 0, 188]",188,l,0.6991570533718914,colour,0.5
71,64,0,2,15,32,732,1511.043871198548,1512.2840730203316,"[70, 0, 184]",184,l,0.7168371556326747,colour,0.5
71,64,0,2,15,33,733,1512.7938346692827,1513.9640324858483,"[94, 0, 160]",160,l,0.6467417781241238,colour,0.5
71,64,0,2,15,34,734,1514.48145875521,1515.6603759094141,"[29, 0, 225]",225,a,0.6555682418402284,colour,0.5
71,64,0,2,15,35,735,1516.168900096789,1517.588027737802,"[49, 0, 205]",205,a,0.8958125992212445,colour,0.5
71,64,0,2,15,36,736,1518.106357487617,1519.3480031460058,"[17, 0, 237]",237,a,0.7182695704977959,colour,0.5
71,64,0,2,15,37,737,1519.8563934259582,1523.0120331507642,"[62, 0, 192]",192,l,2.6323668241966516,colour,0.5
71,64,0,2,15,38,738,1523.5282952135894,1524.5563365942799,"[1, 0, 253]",253,a,0.504834252409637,colour,0.5
71,64,0,2,15,39,739,1525.0750861831475,1526.2683097622357,"[33, 0, 221]",221,a,0.6699097186792642,colour,0.5
71,64,0,2,15,40,740,1526.7782206784468,1527.8679673534352,"[58, 0, 196]",196,a,0.5664903160650283,colour,0.5
71,64,0,2,15,41,741,1528.3875747369602,1529.6840030734893,"[38, 0, 216]",216,a,0.7732869803439826,colour,0.5
71,64,0,2,15,42,742,1530.2001351676881,1531.4120348836295,"[30, 0, 224]",224,a,0.6886492648627609,colour,0.5
71,64,0,2,15,43,743,1531.9188450570218,1533.1319814466406,"[45, 0, 209]",209,a,0.6898942091502249,colour,0.5
71,64,0,2,15,44,744,1533.6531917802058,1534.8199938638136,"[56, 0, 198]",198,a,0.6435587217565626,colour,0.5
71,64,0,2,15,45,745,1535.340685109375,1536.4359731853474,"[71, 0, 183]",183,l,0.5720415632240474,colour,0.5
71,64,0,2,15,46,746,1536.951885907678,1538.1799407578073,"[0, 0, 254]",254,a,0.7047468973323703,colour,0.5
71,64,0,2,15,47,747,1538.686322033871,1539.9880408921745,"[4, 0, 250]",250,a,0.7784605303313583,colour,0.5
71,64,0,2,15,48,748,1540.499456296675,1541.603958379943,"[3, 0, 251]",251,a,0.5801063303370029,colour,0.5
71,64,0,2,15,49,749,1542.125589339994,1543.259996872861,"[98, 0, 156]",156,l,0.6110338079743087,colour,0.5
71,64,0,2,15,50,750,1543.7662580260076,1544.9879380986094,"[95, 0, 159]",159,l,0.6983796029817313,colour,0.5
71,64,0,2,16,1,751,1632.7243572347797,1634.4197093502153,"[92, 0, 162]",162,l,1.1711942448746413,colour,0.5
71,64,0,2,16,2,752,1634.9284355801065,1636.0517591289245,"[26, 0, 228]",228,a,0.602638604817912,colour,0.5
71,64,0,2,16,3,753,1636.566304027103,1637.6996985902078,"[77, 0, 177]",177,l,0.6100952751003206,colour,0.5
71,64,0,2,16,4,754,1638.206910879584,1639.3877330627292,"[19, 0, 235]",235,a,0.6574835106730461,colour,0.5
71,64,0,2,16,5,755,1639.8943943625782,1640.9877506282646,"[84, 0, 170]",170,l,0.5708340341225266,colour,0.5
71,64,0,2,16,6,756,1641.5038244333118,1642.755735665327,"[91, 0, 163]",163,l,0.7287883865647018,colour,0.5
71,64,0,2,16,7,757,1643.269438522635,1644.395721029956,"[31, 0, 223]",223,a,0.603054111590609,colour,0.5
71,64,0,2,16,8,758,1644.9100044150837,1646.1237162125763,"[88, 0, 166]",166,l,0.6903806081973016,colour,0.5
71,64,0,2,16,9,759,1646.6443298705854,1647.7637283587828,"[81, 0, 173]",173,l,0.5960164926946163,colour,0.5
71,64,0,2,16,10,760,1648.2847870616242,1649.4756802590564,"[99, 0, 155]",155,l,0.6673418483696878,colour,0.5
71,64,0,2,16,11,761,1649.9880759443622,1651.0837054841686,"[43, 0, 211]",211,a,0.5725452911574394,colour,0.5
71,64,0,2,16,12,762,1651.587553548161,1652.7877867831849,"[89, 0, 165]",165,l,0.6771131465211511,colour,0.5
71,64,0,2,16,13,763,1653.3062760406174,1654.5237049486022,"[17, 0, 237]",237,a,0.6941237123683095,colour,0.5
71,64,0,2,16,14,764,1655.041308841901,1656.2596491074655,"[5, 0, 249]",249,a,0.6950827250257134,colour,0.5
71,64,0,2,16,15,765,1656.775832007639,1658.2436912900303,"[59, 0, 195]",195,a,0.944763612234965,colour,0.5
71,64,0,2,16,16,766,1658.7600396049675,1659.947692638496,"[55, 0, 199]",199,a,0.6644069144967943,colour,0.5
71,64,0,2,16,17,767,1660.4631264451891,1661.6597516648471,"[36, 0, 218]",218,a,0.6733377471100539,colour,0.5
71,64,0,2,16,18,768,1662.1663133217953,1663.291655721143,"[2, 0, 252]",252,a,0.6021116401534528,colour,0.5
71,64,0,2,16,19,769,1663.8068701559678,1665.0758364582434,"[41, 0, 213]",213,a,0.7456937958486378,colour,0.5
71,64,0,2,16,20,770,1665.5881797620095,1666.8197378644254,"[24, 0, 230]",230,a,0.708523478358984,colour,0.5
71,64,0,2,16,21,771,1667.3381515035871,1668.49166328297,"[1, 0, 253]",253,a,0.6306315425317734,colour,0.5
71,64,0,2,16,22,772,1669.009960737545,1670.155623970786,"[4, 0, 250]",250,a,0.6223619759548455,colour,0.5
71,64,0,2,16,23,773,1670.6662371128332,1671.8037245147862,"[61, 0, 193]",193,a,0.6142022924032062,colour,0.5
71,64,0,2,16,24,774,1672.322422510013,1673.5162337061483,"[54, 0, 200]",200,a,0.6706166709773242,colour,0.5
71,64,0,2,16,25,775,1674.0256046606228,1675.163601698121,"[95, 0, 159]",159,l,0.6147560386452824,colour,0.5
71,64,0,2,16,26,776,1675.6820283338893,1676.84359503421,"[42, 0, 212]",212,a,0.6384537010453641,colour,0.5
71,64,0,2,16,27,777,1677.3536745160818,1678.4756030654535,"[76, 0, 178]",178,l,0.5987391441594809,colour,0.5
71,64,0,2,16,28,778,1678.9942518300377,1680.1635969718918,"[78, 0, 176]",176,l,0.6459269125480205,colour,0.5
71,64,0,2,16,29,779,1680.6818692204542,1681.7556001825724,"[0, 0, 254]",254,a,0.5505108367651701,colour,0.5
71,64,0,2,16,30,780,1682.275550211547,1683.3555689111818,"[39, 0, 215]",215,a,0.5566516702529043,colour,0.5
71,64,0,2,16,31,781,1683.8693733804394,1684.9796240276191,"[20, 0, 234]",234,a,0.5871195308864117,colour,0.5
71,64,0,2,16,32,782,1685.4942189441063,1686.5797542326618,"[29, 0, 225]",225,a,0.562198979081586,colour,0.5
71,64,0,2,16,33,783,1687.087969645625,1688.195596496109,"[53, 0, 201]",201,a,0.5843342579901218,colour,0.5
71,64,0,2,16,34,784,1688.7129380886909,1689.8355881622992,"[47, 0, 207]",207,a,0.5992318443022668,colour,0.5
71,64,0,2,16,35,785,1690.3535862946883,1691.4755955825094,"[33, 0, 221]",221,a,0.5987942824140191,colour,0.5
71,64,0,2,16,36,786,1691.9941955101676,1693.5156043416355,"[60, 0, 194]",194,l,0.9980075375642627,colour,0.5
71,64,0,2,16,37,787,1694.0255010793917,1695.4276421789546,"[49, 0, 205]",205,a,0.8788221194408834,colour,0.5
71,64,0,2,16,38,788,1695.94730863953,1697.0275667971,"[25, 0, 229]",229,a,0.5569057005923241,colour,0.5
71,64,0,2,16,39,789,1697.5410672179423,1698.7795337582938,"[30, 0, 224]",224,a,0.7151688276790082,colour,0.5
71,64,0,2,16,40,790,1699.2923000517767,1700.4116115001962,"[66, 0, 188]",188,l,0.5960097974166274,colour,0.5
71,64,0,2,16,41,791,1700.932969919173,1702.019547716016,"[79, 0, 175]",175,l,0.5632690563797951,colour,0.5
71,64,0,2,16,42,792,1702.5268316850998,1703.611518237507,"[58, 0, 196]",196,l,0.5616353866644204,colour,0.5
71,64,0,2,16,43,793,1704.1222014841624,1705.3315845294856,"[74, 0, 180]",180,l,0.6860089267138392,colour,0.5
71,64,0,2,16,44,794,1705.8423244897276,1707.81157463626,"[46, 0, 208]",208,l,1.445757874287665,colour,0.5
71,64,0,2,16,45,795,1708.3267540188972,1709.4598161766771,"[15, 0, 239]",239,a,0.6098538478836417,colour,0.5
71,64,0,2,16,46,796,1709.9671852162573,1711.115543138003,"[57, 0, 197]",197,l,0.6249975876417011,colour,0.5
71,64,0,2,16,47,797,1711.6235344528686,1712.835519633256,"[96, 0, 158]",158,l,0.6886788031551987,colour,0.5
71,64,0,2,16,48,798,1713.3422045640182,1714.5797325712629,"[98, 0, 156]",156,l,0.7140412488952279,colour,0.5
71,64,0,2,16,49,799,1715.092573301401,1716.2675189212896,"[80, 0, 174]",174,l,0.6502596030477434,colour,0.5
71,64,0,2,16,50,800,1716.7814376056194,1717.9075381567236,"[6, 0, 248]",248,a,0.6032888432964683,colour,0.5
