id,age,condition,counterbalance,block,trialinblock,trial,tstart,tend,trialstim,trialintensity,response,RT,trialtype,colourfreq
75,78,1,2,Practice,1,NA,5.9076983234263025e-06,2.2087693870953444,"[12, 0, 242]",242,a,1.6845297078443764,colour,0.5
75,78,1,2,Practice,2,NA,2.7092573629606704,3.944773262545823,"[63, 0, 191]",191,a,0.7123014028811667,colour,0.5
75,78,1,2,Practice,3,NA,4.4596701141363155,5.800797933093236,"[68, 0, 186]",186,a,0.8178152544642217,colour,0.5
75,78,1,2,Practice,4,NA,6.319076351090189,7.528776397563888,"[73, 0, 181]",181,a,0.6863437650154083,colour,0.5
75,78,1,2,Practice,5,NA,8.03797940970253,9.408750088615307,"[15, 0, 239]",239,a,0.8475695729912331,colour,0.5
75,78,1,2,Practice,6,NA,9.92889612691306,11.160770521373706,"[24, 0, 230]",230,a,0.7091376336120447,colour,0.5
75,78,1,2,Practice,7,NA,11.678497948058975,12.800762093057529,"[60, 0, 194]",194,a,0.5991386576133664,colour,0.5
75,78,1,2,Practice,8,NA,13.319112191125896,14.50487266941309,"[0, 0, 254]",254,a,0.662573156995677,colour,0.5
75,78,1,2,Practice,9,NA,15.022215701873392,16.12878072987587,"[1, 0, 253]",253,a,0.5832245004057768,colour,0.5
75,78,1,2,Practice,10,NA,16.64721550495051,19.440841886366798,"[91, 0, 163]",163,l,2.2703390231026788,colour,0.5
75,78,1,2,1,1,1,5.189902168518529,6.431946468377646,"[8, 0, 246]",246,a,0.7179601899915724,colour,0.5
75,78,1,2,1,2,2,6.940711129314877,7.639913983914994,"[27, 0, 227]",227,a,0.17592849322227266,colour,0.5
75,78,1,2,1,3,3,8.159498003197768,8.903890416137983,"[34, 0, 220]",220,a,0.2211507408255784,colour,0.5
75,78,1,2,1,4,4,9.425078572384336,11.135932589225376,"[85, 0, 169]",169,l,1.18764621552873,colour,0.5
75,78,1,2,1,5,5,11.643757926161015,12.847942939512905,"[2, 0, 252]",252,a,0.6809082888948979,colour,0.5
75,78,1,2,1,6,6,13.352743535008813,14.471910076957101,"[38, 0, 216]",216,a,0.596281694800382,colour,0.5
75,78,1,2,1,7,7,14.993444424314475,16.575928099375233,"[69, 0, 185]",185,l,1.0601057084122658,colour,0.5
75,78,1,2,1,8,8,17.08718974738622,18.199883027577016,"[29, 0, 225]",225,a,0.5894401865261898,colour,0.5
75,78,1,2,1,9,9,18.712126928862745,19.959920994383538,"[9, 0, 245]",245,a,0.724600836530044,colour,0.5
75,78,1,2,1,10,10,20.477753184249195,21.663956346048508,"[44, 0, 210]",210,a,0.6629827573979128,colour,0.5
75,78,1,2,1,11,11,22.180814553416894,23.567917654564553,"[62, 0, 192]",192,a,0.8637578473917529,colour,0.5
75,78,1,2,1,12,12,24.087112947310743,26.15193102959347,"[72, 0, 182]",182,a,1.5419119674215835,colour,0.5
75,78,1,2,1,13,13,26.66525367655686,27.991961985931084,"[63, 0, 191]",191,a,0.8035150803834767,colour,0.5
75,78,1,2,1,14,14,28.50892298724648,29.83192244373822,"[17, 0, 237]",237,a,0.7996506581175709,colour,0.5
75,78,1,2,1,15,15,30.352779768890287,32.51201547029177,"[92, 0, 162]",162,l,1.6363626696493156,colour,0.5
75,78,1,2,1,16,16,33.024629193480905,34.191953321307665,"[89, 0, 165]",165,l,0.6441462588518334,colour,0.5
75,78,1,2,1,17,17,34.71210093499121,35.743969815600394,"[99, 0, 155]",155,l,0.5086760454651085,colour,0.5
75,78,1,2,1,18,18,36.246521547343946,37.53595385693916,"[0, 0, 254]",254,a,0.7662445944570209,colour,0.5
75,78,1,2,1,19,19,38.04345702740375,39.15193614959844,"[18, 0, 236]",236,a,0.5854194071825987,colour,0.5
75,78,1,2,1,20,20,39.66844147046504,40.93594322308218,"[7, 0, 247]",247,a,0.7444191945050989,colour,0.5
75,78,1,2,1,21,21,41.449656171968854,42.59998267075207,"[14, 0, 240]",240,a,0.6270564697169903,colour,0.5
75,78,1,2,1,22,22,43.12154183044095,44.27997408489682,"[40, 0, 214]",214,a,0.6352823485849513,colour,0.5
75,78,1,2,1,23,23,44.78422408292772,46.3119351255973,"[75, 0, 179]",179,l,1.0046103676168059,colour,0.5
75,78,1,2,1,24,24,46.8309602766376,48.02391121123492,"[90, 0, 164]",164,l,0.6697411640525388,colour,0.5
75,78,1,2,1,25,25,48.52491670145628,49.85593684276864,"[22, 0, 232]",232,a,0.8078166723125833,colour,0.5
75,78,1,2,1,26,26,50.368636424503165,51.51196151331533,"[30, 0, 224]",224,a,0.6202303214577114,colour,0.5
75,78,1,2,1,27,27,52.02488283065304,53.11992902885322,"[60, 0, 194]",194,a,0.5719183477358456,colour,0.5
75,78,1,2,1,28,28,53.62329956755639,54.99198010287273,"[87, 0, 167]",167,l,0.8453589123537313,colour,0.5
75,78,1,2,1,29,29,55.49833324143583,56.85596638125844,"[28, 0, 226]",226,a,0.8344359723669186,colour,0.5
75,78,1,2,1,30,30,57.37324521673327,58.75194284498957,"[98, 0, 156]",156,l,0.8553728545211925,colour,0.5
75,78,1,2,1,31,31,59.26390238907243,60.583969658062415,"[13, 0, 241]",241,a,0.7967625814280836,colour,0.5
75,78,1,2,1,32,32,61.09199309980795,62.736009389301216,"[61, 0, 193]",193,l,1.1207226296346562,colour,0.5
75,78,1,2,1,33,33,63.24818712436809,64.38399171346828,"[37, 0, 217]",217,a,0.6124199506903096,colour,0.5
75,78,1,2,1,34,34,64.90457531527409,66.01594527108409,"[45, 0, 209]",209,a,0.5885626964309267,colour,0.5
75,78,1,2,1,35,35,66.52947035517082,67.85596165510015,"[78, 0, 176]",176,l,0.8031708585067463,colour,0.5
75,78,1,2,1,36,36,68.37324797365909,69.56799209156088,"[71, 0, 183]",183,l,0.6714130426216798,colour,0.5
75,78,1,2,1,37,37,70.07708206974166,71.38401101194904,"[66, 0, 188]",188,l,0.7836443408195919,colour,0.5
75,78,1,2,1,38,38,71.9052038943546,72.91222066433966,"[84, 0, 170]",170,l,0.4837093254982392,colour,0.5
75,78,1,2,1,39,39,73.42081636511102,74.39201791214055,"[95, 0, 159]",159,l,0.44789646562094276,colour,0.5
75,78,1,2,1,40,40,74.9054004237787,76.03998330090599,"[70, 0, 184]",184,l,0.611304971131176,colour,0.5
75,78,1,2,1,41,41,76.54603081455298,77.55199246965367,"[56, 0, 198]",198,l,0.48273770608011546,colour,0.5
75,78,1,2,1,42,42,78.06164604223613,79.24796145029995,"[3, 0, 251]",251,a,0.6753869542271786,colour,0.5
75,78,1,2,1,43,43,79.7576355029023,81.32001646278513,"[91, 0, 163]",163,l,1.0390116814887733,colour,0.5
75,78,1,2,1,44,44,81.83578804754507,83.06397406914311,"[82, 0, 172]",172,l,0.7161996959503085,colour,0.5
75,78,1,2,1,45,45,83.57718565138202,84.82399116208308,"[15, 0, 239]",239,a,0.7337506793846842,colour,0.5
75,78,1,2,1,46,46,85.33260852441435,87.47200105550837,"[47, 0, 207]",207,a,1.6160929635379944,colour,0.5
75,78,1,2,1,47,47,87.9888647767284,89.647951997983,"[94, 0, 160]",160,l,1.1357411798062458,colour,0.5
75,78,1,2,1,48,48,90.16075279827965,91.39203681677463,"[12, 0, 242]",242,a,0.7084484021652315,colour,0.5
75,78,1,2,1,49,49,91.91075988751709,92.783988956543,"[20, 0, 234]",234,a,0.347850385575839,colour,0.5
75,78,1,2,1,50,50,93.30352295731427,94.59197616440724,"[83, 0, 171]",171,l,0.7654777752395603,colour,0.5
75,78,1,2,2,1,51,100.87141776877979,102.5839869873098,"[87, 0, 167]",167,l,1.1883803454820736,colour,0.5
75,78,1,2,2,2,52,103.09098564035503,104.29601230376556,"[42, 0, 212]",212,a,0.6826034044097469,colour,0.5
75,78,1,2,2,3,53,104.80974652036548,106.48003670649723,"[52, 0, 202]",202,a,1.147022126298907,colour,0.5
75,78,1,2,2,4,54,106.99721038494499,108.12005781667176,"[51, 0, 203]",203,a,0.5994998148917148,colour,0.5
75,78,1,2,2,5,55,108.63911605082194,109.82403881751452,"[37, 0, 217]",217,a,0.6616062637349387,colour,0.5
75,78,1,2,2,6,56,110.3422014446287,111.67205934479625,"[90, 0, 164]",164,l,0.806451994044437,colour,0.5
75,78,1,2,2,7,57,112.18595464463215,113.8720715540394,"[48, 0, 206]",206,a,1.1625908800897378,colour,0.5
75,78,1,2,2,8,58,114.38949808196685,115.80000393846512,"[55, 0, 199]",199,a,0.8871960489314006,colour,0.5
75,78,1,2,2,9,59,116.31201428875193,117.65602309516089,"[7, 0, 247]",247,a,0.8206863957530004,colour,0.5
75,78,1,2,2,10,60,118.17139335029424,119.59200845982377,"[35, 0, 219]",219,a,0.897289548101071,colour,0.5
75,78,1,2,2,11,61,120.09647822422448,121.27999102029844,"[23, 0, 231]",231,a,0.6602333146911405,colour,0.5
75,78,1,2,2,12,62,121.79956519341795,123.00814041416834,"[77, 0, 177]",177,l,0.694738210203468,colour,0.5
75,78,1,2,2,13,63,123.52637905366555,124.97606712720426,"[60, 0, 194]",194,l,0.9262935889664732,colour,0.5
75,78,1,2,2,14,64,125.49520609989486,126.70408221940397,"[29, 0, 225]",225,a,0.6856045150570935,colour,0.5
75,78,1,2,2,15,65,127.20188376800797,128.44006364560119,"[47, 0, 207]",207,a,0.715358833584105,colour,0.5
75,78,1,2,2,16,66,128.9518691956864,130.4480670011735,"[94, 0, 160]",160,l,0.9730219057446448,colour,0.5
75,78,1,2,2,17,67,130.96752577725601,132.54403873874526,"[98, 0, 156]",156,l,1.0532697139888114,colour,0.5
75,78,1,2,2,18,68,133.0612439249171,134.48004458342803,"[43, 0, 211]",211,a,0.8958315282034164,colour,0.5
75,78,1,2,2,19,69,134.9994462517625,136.1840082550234,"[11, 0, 243]",243,a,0.6613841342859814,colour,0.5
75,78,1,2,2,20,70,136.7043500350519,138.0240080974845,"[80, 0, 174]",174,l,0.7964289934070621,colour,0.5
75,78,1,2,2,21,71,138.53249706584302,140.21605515426927,"[57, 0, 197]",197,a,1.160329413247382,colour,0.5
75,78,1,2,2,22,72,140.73562617661628,141.84004474096673,"[22, 0, 232]",232,a,0.5812627507821162,colour,0.5
75,78,1,2,2,23,73,142.36058856427098,143.5680338392949,"[18, 0, 236]",236,a,0.6841677628735852,colour,0.5
75,78,1,2,2,24,74,144.07939867509958,145.25601088591793,"[20, 0, 234]",234,a,0.6533299725097095,colour,0.5
75,78,1,2,2,25,75,145.76685033043668,147.07201680937033,"[81, 0, 173]",173,l,0.7824308996241598,colour,0.5
75,78,1,2,2,26,76,147.57937425661385,148.7920163367544,"[27, 0, 227]",227,a,0.6893984387925229,colour,0.5
75,78,1,2,2,27,77,149.29812371507523,151.04805991193552,"[53, 0, 201]",201,a,1.2266957062847723,colour,0.5
75,78,1,2,2,28,78,151.56376769355575,152.67203492631052,"[33, 0, 221]",221,a,0.5850665206808117,colour,0.5
75,78,1,2,2,29,79,153.18877104125113,154.56804407930485,"[74, 0, 180]",180,l,0.8560711444397384,colour,0.5
75,78,1,2,2,30,80,155.07938528431714,156.37601277638169,"[89, 0, 165]",165,l,0.77337203532079,colour,0.5
75,78,1,2,2,31,81,156.89187218891948,158.024051814451,"[1, 0, 253]",253,a,0.6089072333861623,colour,0.5
75,78,1,2,2,32,82,158.53251518278375,159.65603687979,"[10, 0, 244]",244,a,0.6002638771833517,colour,0.5
75,78,1,2,2,33,83,160.1731443920189,161.2720502863258,"[25, 0, 229]",229,a,0.5756303513899184,colour,0.5
75,78,1,2,2,34,84,161.78248564429305,163.2160252219319,"[83, 0, 171]",171,l,0.9103101147666166,colour,0.5
75,78,1,2,2,35,85,163.7356194812246,164.96804998700281,"[12, 0, 242]",242,a,0.70957756019925,colour,0.5
75,78,1,2,2,36,86,165.4856179058388,167.03206737926575,"[49, 0, 205]",205,l,1.0233165029576412,colour,0.5
75,78,1,2,2,37,87,167.54810165966865,168.68808141595673,"[91, 0, 163]",163,l,0.616724693390097,colour,0.5
75,78,1,2,2,38,88,169.20436854583932,170.6480599119359,"[92, 0, 162]",162,l,0.9204288201144664,colour,0.5
75,78,1,2,2,39,89,171.1575067150834,172.44010657487343,"[38, 0, 216]",216,a,0.7593873323194202,colour,0.5
75,78,1,2,2,40,90,172.95430671193208,174.30407197939348,"[59, 0, 195]",195,a,0.8265306845842133,colour,0.5
75,78,1,2,2,41,91,174.80277110426687,175.9360960355407,"[6, 0, 248]",248,a,0.6102439485484865,colour,0.5
75,78,1,2,2,42,92,176.44339046733785,178.28005954959644,"[68, 0, 186]",186,l,1.3135112994568772,colour,0.5
75,78,1,2,2,43,93,178.78712279347474,180.03208273928067,"[31, 0, 223]",223,a,0.7218482430498625,colour,0.5
75,78,1,2,2,44,94,180.5527455042411,182.0800725465324,"[84, 0, 170]",170,l,1.0041905272028089,colour,0.5
75,78,1,2,2,45,95,182.59957385804137,183.9361050940106,"[72, 0, 182]",182,l,0.8136975888710367,colour,0.5
75,78,1,2,2,46,96,184.43096500279626,185.7280867722693,"[64, 0, 190]",190,l,0.7739482328106533,colour,0.5
75,78,1,2,2,47,97,186.24344048584862,187.60013075705137,"[45, 0, 209]",209,a,0.8334564760189096,colour,0.5
75,78,1,2,2,48,98,188.11848085511883,189.60012996935802,"[67, 0, 187]",187,l,0.9585476514930633,colour,0.5
75,78,1,2,2,49,99,190.11846352587145,202.5600954684014,"[99, 0, 155]",155,l,11.918446590470921,colour,0.5
75,78,1,2,2,50,100,203.07153277196994,204.53613187557585,"[30, 0, 224]",224,a,0.9413798807436251,colour,0.5
75,78,1,2,3,1,101,210.12086362669652,211.39209549990937,"[14, 0, 240]",240,a,0.7471213756271027,colour,0.5
75,78,1,2,3,2,102,211.8925039187725,214.00010830779866,"[46, 0, 208]",208,l,1.5843985569463257,colour,0.5
75,78,1,2,3,3,103,214.5173619370944,215.9601135853418,"[61, 0, 193]",193,l,0.9194351452897536,colour,0.5
75,78,1,2,3,4,104,216.4704812017044,217.74409348341487,"[16, 0, 238]",238,a,0.7504674958454416,colour,0.5
75,78,1,2,3,5,105,218.2403499720367,219.24011642103687,"[1, 0, 253]",253,a,0.47646018605246354,colour,0.5
75,78,1,2,3,6,106,219.75796278937833,220.7681106393702,"[20, 0, 234]",234,a,0.4851838869508356,colour,0.5
75,78,1,2,3,7,107,221.27522272021906,222.28812631446272,"[13, 0, 241]",241,a,0.48975841453193425,colour,0.5
75,78,1,2,3,8,108,222.80802777405734,224.07210424330242,"[63, 0, 191]",191,l,0.7407863540047401,colour,0.5
75,78,1,2,3,9,109,224.5892574417303,225.85607508290468,"[58, 0, 196]",196,l,0.7435133474600661,colour,0.5
75,78,1,2,3,10,110,226.3705253125172,227.47212511716862,"[95, 0, 159]",159,l,0.5907371231869547,colour,0.5
75,78,1,2,3,11,111,227.98306184178364,229.25615779067812,"[10, 0, 244]",244,a,0.7596086740759347,colour,0.5
75,78,1,2,3,12,112,229.77008971824216,230.71217694737425,"[19, 0, 235]",235,a,0.41899876332263375,colour,0.5
75,78,1,2,3,13,113,231.2232440351936,232.16813899632143,"[9, 0, 245]",245,a,0.42154143659536203,colour,0.5
75,78,1,2,3,14,114,232.67629240742644,233.88816215449788,"[87, 0, 167]",167,l,0.6884260316810469,colour,0.5
75,78,1,2,3,15,115,234.39582758973756,235.13610942632295,"[86, 0, 168]",168,l,0.21695233669197478,colour,0.5
75,78,1,2,3,16,116,235.645834678975,236.92813757847398,"[31, 0, 223]",223,a,0.7590403535168662,colour,0.5
75,78,1,2,3,17,117,237.44266539585442,238.79218214614775,"[76, 0, 178]",178,l,0.8261482595917187,colour,0.5
75,78,1,2,3,18,118,239.3021043220715,241.28011862657786,"[38, 0, 216]",216,l,1.4548261955214912,colour,0.5
75,78,1,2,3,19,119,241.7865725898555,246.65612785834128,"[67, 0, 187]",187,l,4.346538088899251,colour,0.5
75,78,1,2,3,20,120,247.17738296849984,248.44020109804387,"[82, 0, 172]",172,l,0.7396091466926009,colour,0.5
75,78,1,2,3,21,121,248.95863508542516,251.4081636511146,"[85, 0, 169]",169,l,1.9263400628578893,colour,0.5
75,78,1,2,3,22,122,251.9273290115234,253.26418477704283,"[23, 0, 231]",231,a,0.8136207887955607,colour,0.5
75,78,1,2,3,23,123,253.77156309815382,255.82418966074056,"[77, 0, 177]",177,l,1.5293959181744867,colour,0.5
75,78,1,2,3,24,124,256.33405000275616,258.04011366411123,"[54, 0, 200]",200,l,1.1828389246411461,colour,0.5
75,78,1,2,3,25,125,258.55475569698956,259.7121182642395,"[94, 0, 160]",160,l,0.6342406244830272,colour,0.5
75,78,1,2,3,26,126,260.22645112758255,261.4962245870511,"[69, 0, 185]",185,l,0.7463907902920255,colour,0.5
75,78,1,2,3,27,127,262.00775956456255,263.05621332304054,"[98, 0, 156]",156,l,0.525205784818354,colour,0.5
75,78,1,2,3,28,128,263.5702070845109,264.88024623285764,"[34, 0, 220]",220,a,0.7869577717738139,colour,0.5
75,78,1,2,3,29,129,265.3982891306232,266.56016833001195,"[74, 0, 180]",180,l,0.6396312020988262,colour,0.5
75,78,1,2,3,30,130,267.07015982292614,268.57617267807746,"[32, 0, 222]",222,a,0.9828223830863863,colour,0.5
75,78,1,2,3,31,131,269.0858687860855,271.2081573495698,"[41, 0, 213]",213,l,1.5991618945590744,colour,0.5
75,78,1,2,3,32,132,271.7265515584504,272.96817759328223,"[36, 0, 218]",218,a,0.7183690027022749,colour,0.5
75,78,1,2,3,33,133,273.4764022906111,274.96818192559385,"[83, 0, 171]",171,l,0.9683946027271304,colour,0.5
75,78,1,2,3,34,134,275.4764208013985,276.6081837372885,"[90, 0, 164]",164,l,0.608399171347628,colour,0.5
75,78,1,2,3,35,135,277.1183906642609,278.352218143722,"[44, 0, 210]",210,a,0.7105905335047282,colour,0.5
75,78,1,2,3,36,136,278.86836979039435,280.3201960568076,"[81, 0, 173]",173,l,0.9285727789019802,colour,0.5
75,78,1,2,3,37,137,280.8371476058064,282.23223003788735,"[92, 0, 162]",162,l,0.8720565878711568,colour,0.5
75,78,1,2,3,38,138,282.7433172118808,284.46421589092006,"[47, 0, 207]",207,a,1.2068741975381272,colour,0.5
75,78,1,2,3,39,139,284.9840799350941,286.37614313958693,"[96, 0, 158]",158,l,0.868798295432498,colour,0.5
75,78,1,2,3,40,140,286.89027474734667,288.35221538679616,"[64, 0, 190]",190,l,0.9385997180061167,colour,0.5
75,78,1,2,3,41,141,288.85908643356197,290.2721967972393,"[40, 0, 214]",214,a,0.8899159531474652,colour,0.5
75,78,1,2,3,42,142,290.78095948894406,292.0002556064055,"[24, 0, 230]",230,a,0.6960611407375836,colour,0.5
75,78,1,2,3,43,143,292.51841390120717,293.46421274014756,"[2, 0, 252]",252,a,0.4225922191681093,colour,0.5
75,78,1,2,3,44,144,293.97158160894196,295.1042551180353,"[45, 0, 209]",209,a,0.6094716154793787,colour,0.5
75,78,1,2,3,45,145,295.6132423022691,297.20017565555736,"[84, 0, 170]",170,l,1.0637405181450958,colour,0.5
75,78,1,2,3,46,146,297.706963206856,299.4402408765445,"[21, 0, 233]",233,a,1.2100899545503125,colour,0.5
75,78,1,2,3,47,147,299.958264869676,301.20818098036216,"[93, 0, 161]",161,l,0.7265885800252363,colour,0.5
75,78,1,2,3,48,148,301.7238560727192,303.13618543870507,"[37, 0, 217]",217,a,0.8889667829826067,colour,0.5
75,78,1,2,3,49,149,303.6457756019945,305.20021464636466,"[60, 0, 194]",194,l,1.0312099753446091,colour,0.5
75,78,1,2,3,50,150,305.7081916142188,307.1601825084872,"[18, 0, 236]",236,a,0.9286176774085106,colour,0.5
75,78,1,2,4,1,151,315.1137294904411,319.51222499665164,"[9, 0, 245]",245,a,3.874397217868136,colour,0.5
75,78,1,2,4,2,152,320.02073405118426,321.232277299473,"[5, 0, 249]",249,a,0.6883598654621892,colour,0.5
75,78,1,2,4,3,153,321.7394697250156,323.792210896946,"[76, 0, 178]",178,l,1.5293805581595734,colour,0.5
75,78,1,2,4,4,154,324.3020543035609,328.6882188683994,"[50, 0, 204]",204,l,3.8630709790231776,colour,0.5
75,78,1,2,4,5,155,329.20821682039787,330.52025355840306,"[67, 0, 187]",187,l,0.7886501303628393,colour,0.5
75,78,1,2,4,6,156,331.0363343126983,332.76025143163224,"[2, 0, 252]",252,a,1.200747126889837,colour,0.5
75,78,1,2,4,7,157,333.2708033681756,334.5602797885831,"[77, 0, 177]",177,l,0.766259560625258,colour,0.5
75,78,1,2,4,8,158,335.0677723251911,336.432199711704,"[43, 0, 211]",211,a,0.8416398194603971,colour,0.5
75,78,1,2,4,9,159,336.9426720912461,338.2961974116397,"[33, 0, 221]",221,a,0.8301871558760467,colour,0.5
75,78,1,2,4,10,160,338.8176403865991,340.08019818357934,"[4, 0, 250]",250,a,0.7392877679139929,colour,0.5
75,78,1,2,4,11,161,340.5989460666542,342.27223027419586,"[92, 0, 162]",162,l,1.1500216615604586,colour,0.5
75,78,1,2,4,12,162,342.78811331752695,344.0402838058171,"[25, 0, 229]",229,a,0.7289185761655972,colour,0.5
75,78,1,2,4,13,163,344.55474191236044,345.99224634313487,"[68, 0, 186]",186,l,0.9142651217380262,colour,0.5
75,78,1,2,4,14,164,346.5078662969754,347.7042129764559,"[0, 0, 254]",254,a,0.6730845273450541,colour,0.5
75,78,1,2,4,15,165,348.2110434570268,349.48826612998437,"[26, 0, 228]",228,a,0.7540251116552099,colour,0.5
75,78,1,2,4,16,166,350.00791395240685,351.5602356777699,"[64, 0, 190]",190,l,1.0294364843675794,colour,0.5
75,78,1,2,4,17,167,352.0704134600992,353.50426653958493,"[21, 0, 233]",233,a,0.9108725276282712,colour,0.5
75,78,1,2,4,18,168,354.02347561696024,355.20020992020636,"[15, 0, 239]",239,a,0.6533685694703308,colour,0.5
75,78,1,2,4,19,169,355.7109745338821,356.9043051365461,"[8, 0, 246]",246,a,0.6700649059102943,colour,0.5
75,78,1,2,4,20,170,357.40274865501397,358.6322658779227,"[86, 0, 168]",168,l,0.7063803139744778,colour,0.5
75,78,1,2,4,21,171,359.15276165194973,360.4163060345163,"[6, 0, 248]",248,a,0.7403802982207708,colour,0.5
75,78,1,2,4,22,172,360.92154458736695,362.55227170685157,"[72, 0, 182]",182,l,1.1074173119186526,colour,0.5
75,78,1,2,4,23,173,363.05067623451123,364.35224846990604,"[10, 0, 244]",244,a,0.7782805447686769,colour,0.5
75,78,1,2,4,24,174,364.8632360007241,366.14430340362105,"[81, 0, 173]",173,l,0.7578241553956104,colour,0.5
75,78,1,2,4,25,175,366.6600096098555,368.4402160642121,"[28, 0, 226]",226,a,1.2566949973606825,colour,0.5
75,78,1,2,4,26,176,368.95692185296866,370.2243188424063,"[20, 0, 234]",234,a,0.7441604373279915,colour,0.5
75,78,1,2,4,27,177,370.73819760068636,372.04827022598874,"[31, 0, 223]",223,a,0.7868270147218936,colour,0.5
75,78,1,2,4,28,178,372.56627334525365,374.03228123793815,"[85, 0, 169]",169,l,0.9430013469554979,colour,0.5
75,78,1,2,4,29,179,374.55070537915526,376.0162745267926,"[57, 0, 197]",197,l,0.9427177774450684,colour,0.5
75,78,1,2,4,30,180,376.5350452529674,377.7923014816506,"[94, 0, 160]",160,l,0.7340775720149395,colour,0.5
75,78,1,2,4,31,181,378.30064000062976,379.84827731522637,"[7, 0, 247]",247,a,1.0243901286303299,colour,0.5
75,78,1,2,4,32,182,380.36319937299595,382.18425677219057,"[60, 0, 194]",194,l,1.297751530093592,colour,0.5
75,78,1,2,4,33,183,382.69130780682553,383.96024513008706,"[80, 0, 174]",174,l,0.7456444510962683,colour,0.5
75,78,1,2,4,34,184,384.47254259450347,385.8722432711311,"[58, 0, 196]",196,l,0.8763518782534447,colour,0.5
75,78,1,2,4,35,185,386.3787752160242,387.6402589934851,"[95, 0, 159]",159,l,0.7506281852338361,colour,0.5
75,78,1,2,4,36,186,388.1475825699272,389.39234204784407,"[69, 0, 185]",185,l,0.7215245011930165,colour,0.5
75,78,1,2,4,37,187,389.91375272738696,391.1362634203206,"[73, 0, 181]",181,l,0.6991512607028199,colour,0.5
75,78,1,2,4,38,188,391.6357124290089,393.4162954006597,"[37, 0, 217]",217,l,1.2576421982939792,colour,0.5
75,78,1,2,4,39,189,393.9326301859737,395.7523024268821,"[46, 0, 208]",208,a,1.2964939780868008,colour,0.5
75,78,1,2,4,40,190,396.2608638630045,397.8002792371981,"[63, 0, 191]",191,l,1.0163001268192602,colour,0.5
75,78,1,2,4,41,191,398.3076851275664,399.6002784495049,"[84, 0, 170]",170,l,0.7693886713987013,colour,0.5
75,78,1,2,4,42,192,400.12013304136144,401.99231841705205,"[61, 0, 193]",193,l,1.3490752483203323,colour,0.5
75,78,1,2,4,43,193,402.5118855009332,403.71235969216923,"[17, 0, 237]",237,a,0.6772652083845969,colour,0.5
75,78,1,2,4,44,194,404.23054043622415,405.8084094113565,"[75, 0, 179]",179,l,1.0544740967125108,colour,0.5
75,78,1,2,4,45,195,406.32639244444727,407.63229620410675,"[93, 0, 161]",161,l,0.7825210904820779,colour,0.5
75,78,1,2,4,46,196,408.1390680015438,409.3682898395464,"[11, 0, 243]",243,a,0.7060124613044536,colour,0.5
75,78,1,2,4,47,197,409.8890806046329,411.4083460020638,"[47, 0, 207]",207,l,0.9961166731000048,colour,0.5
75,78,1,2,4,48,198,411.9202468630119,413.15233078383335,"[87, 0, 167]",167,l,0.7090541381458024,colour,0.5
75,78,1,2,4,49,199,413.6702173245212,415.08029310059555,"[22, 0, 232]",232,a,0.8869546210007684,colour,0.5
75,78,1,2,4,50,200,415.5921533953506,416.96041409025383,"[13, 0, 241]",241,a,0.8450056320061776,colour,0.5
75,78,1,2,5,1,201,423.9506789914376,426.0402948335204,"[70, 0, 184]",184,l,1.5629847266309298,colour,0.4
75,78,1,2,5,2,202,426.5480571550097,427.7683193780367,"[27, 0, 227]",227,a,0.6969543846935267,colour,0.4
75,78,1,2,5,3,203,428.28249942892216,429.95228194686206,"[82, 0, 172]",172,l,1.153698612873086,colour,0.4
75,78,1,2,5,4,204,430.4627594464091,431.7283238678874,"[11, 0, 243]",243,a,0.7422628846888983,colour,0.4
75,78,1,2,5,5,205,432.2440225910368,433.64832890912385,"[75, 0, 179]",179,l,0.8810213228525754,colour,0.4
75,78,1,2,5,6,206,434.16593069876217,435.3923664663298,"[80, 0, 174]",174,l,0.7032850740042704,colour,0.4
75,78,1,2,5,7,207,435.9003938465412,437.0723570927821,"[3, 0, 251]",251,a,0.6487979803550843,colour,0.4
75,78,1,2,5,8,208,437.5840401565929,439.06433050026317,"[59, 0, 195]",195,l,0.956983293029225,colour,0.4
75,78,1,2,5,9,209,439.5840366119737,440.8883724685511,"[22, 0, 232]",232,a,0.7841197135949187,colour,0.4
75,78,1,2,5,10,210,441.395277779965,442.6884063393536,"[90, 0, 164]",164,l,0.769908942679649,colour,0.4
75,78,1,2,5,11,211,443.20966972028964,444.78433435995976,"[54, 0, 200]",200,l,1.0514221798621293,colour,0.4
75,78,1,2,5,12,212,445.303398895654,446.4163651114977,"[77, 0, 177]",177,l,0.5898052822703903,colour,0.4
75,78,1,2,5,13,213,446.9283841264087,448.06435925106143,"[79, 0, 175]",175,l,0.6130564067025261,colour,0.4
75,78,1,2,5,14,214,448.5846734618317,449.80042141579906,"[25, 0, 229]",229,a,0.6924637464253465,colour,0.4
75,78,1,2,5,15,215,450.3196564870459,452.32837743101754,"[85, 0, 169]",169,l,1.485607271983099,colour,0.4
75,78,1,2,5,16,216,452.83522839160923,454.3683457657553,"[52, 0, 202]",202,l,1.0098890928138644,colour,0.4
75,78,1,2,5,17,217,454.88409647664866,456.15239301158635,"[76, 0, 178]",178,l,0.7451714413991795,colour,0.4
75,78,1,2,5,18,218,456.66519302418965,457.9924223925382,"[63, 0, 191]",191,l,0.8039069576925613,colour,0.4
75,78,1,2,5,19,219,458.5090490181401,459.6563267508445,"[99, 0, 155]",155,l,0.6240667806196143,colour,0.4
75,78,1,2,5,20,220,460.1652406796211,461.52834513560083,"[36, 0, 218]",218,a,0.8402475719358335,colour,0.4
75,78,1,2,5,21,221,462.0402042488158,463.07234252045964,"[24, 0, 230]",230,a,0.5095440832428721,colour,0.4
75,78,1,2,5,22,222,463.587060565721,465.4563724370437,"[58, 0, 196]",196,l,1.3461473931301953,colour,0.4
75,78,1,2,5,23,223,465.97776027348664,467.23237694264753,"[78, 0, 176]",176,l,0.7314285601760275,colour,0.4
75,78,1,2,5,24,224,467.7432908241626,469.2003899080755,"[38, 0, 216]",216,a,0.9337589501619732,colour,0.4
75,78,1,2,5,25,225,469.7120698211147,470.6323544933948,"[16, 0, 238]",238,a,0.39700282781814167,colour,0.4
75,78,1,2,5,26,226,471.1496116673097,473.18439698156,"[66, 0, 188]",188,l,1.5114987436299998,colour,0.4
75,78,1,2,5,27,227,473.6840693012373,474.97642749679017,"[87, 0, 167]",167,l,0.7691070711216526,colour,0.4
75,78,1,2,5,28,228,475.4965940151078,476.8323485856963,"[10, 0, 244]",244,a,0.8131391144752342,colour,0.4
75,78,1,2,5,29,229,477.3403318550954,479.2964191472429,"[48, 0, 206]",206,l,1.4329243893407693,colour,0.4
75,78,1,2,5,30,230,479.7965920458746,481.44841909998195,"[43, 0, 211]",211,a,1.1286113758642387,colour,0.4
75,78,1,2,5,31,231,481.96843477507355,483.3524193993053,"[19, 0, 235]",235,a,0.8606901766797819,colour,0.4
75,78,1,2,5,32,232,483.8590234181147,485.6403869936112,"[68, 0, 186]",186,l,1.25855552842404,colour,0.4
75,78,1,2,5,33,233,486.1559462950854,487.4884484809336,"[91, 0, 163]",163,l,0.809290839917594,colour,0.4
75,78,1,2,5,34,234,487.9997191874154,489.61641828078064,"[86, 0, 168]",168,l,1.0934314273781638,colour,0.4
75,78,1,2,5,35,235,490.1245677534198,491.3684016919642,"[67, 0, 187]",187,l,0.7204788386252403,colour,0.4
75,78,1,2,5,36,236,491.87469614739257,493.22445078099736,"[29, 0, 225]",225,a,0.8265314722775656,colour,0.4
75,78,1,2,5,37,237,493.73411971359474,494.9524056146756,"[39, 0, 215]",215,a,0.6951344198241713,colour,0.4
75,78,1,2,5,38,238,495.4684651012576,496.78442652005015,"[62, 0, 192]",192,l,0.7926862697213437,colour,0.4
75,78,1,2,5,39,239,497.287344529077,498.56835797499843,"[51, 0, 203]",203,l,0.7580332879097114,colour,0.4
75,78,1,2,5,40,240,499.0841303474508,500.2804069222466,"[14, 0, 240]",240,a,0.672941954896487,colour,0.4
75,78,1,2,5,41,241,500.78731932289884,501.72837624947806,"[41, 0, 213]",213,a,0.41810709475157637,colour,0.4
75,78,1,2,5,42,242,502.24041968287474,503.32839633565163,"[9, 0, 245]",245,a,0.5647676699254589,colour,0.4
75,78,1,2,5,43,243,503.84980662134785,505.6644356572897,"[89, 0, 165]",165,l,1.291397209990464,colour,0.4
75,78,1,2,5,44,244,506.17786976282514,507.7925759926902,"[32, 0, 222]",222,a,1.0914086315415261,colour,0.4
75,78,1,2,5,45,245,508.30295069828935,509.80039542192753,"[61, 0, 193]",193,l,0.9743015131589345,colour,0.4
75,78,1,2,5,46,246,510.3185627752,511.29641323954456,"[83, 0, 171]",171,l,0.45466156766633503,colour,0.4
75,78,1,2,5,47,247,511.80296015060685,512.6004190527201,"[97, 0, 157]",157,l,0.27435507628797495,colour,0.4
75,78,1,2,5,48,248,513.1154309075009,514.8724740652051,"[57, 0, 197]",197,l,1.2337833686488011,colour,0.4
75,78,1,2,5,49,249,515.3809862705093,516.3123951383577,"[73, 0, 181]",181,l,0.4081093002923808,colour,0.4
75,78,1,2,5,50,250,516.818494245902,518.0803785652952,"[21, 0, 233]",233,a,0.7385662410497389,colour,0.4
75,78,1,2,6,1,251,524.1145589312573,531.792502737233,"[42, 0, 212]",212,a,7.153809283750888,colour,0.28
75,78,1,2,6,2,252,532.3029026490112,534.2564523878909,"[55, 0, 199]",199,l,1.430381716068041,colour,0.28
75,78,1,2,6,3,253,534.7716572274776,535.7204693863077,"[72, 0, 182]",182,l,0.42548620355501043,colour,0.28
75,78,1,2,6,4,254,536.2404228336463,537.0564173355488,"[64, 0, 190]",190,l,0.29277764211929025,colour,0.28
75,78,1,2,6,5,255,537.568538750561,538.3364055989223,"[67, 0, 187]",187,l,0.24460587776593457,colour,0.28
75,78,1,2,6,6,256,538.8497806274763,539.8324269611585,"[62, 0, 192]",192,l,0.4592742983622884,colour,0.28
75,78,1,2,6,7,257,540.3516356446871,541.1044158074246,"[96, 0, 158]",158,l,0.22955266909866623,colour,0.28
75,78,1,2,6,8,258,541.6172390569736,542.5684714028021,"[58, 0, 196]",196,l,0.4280020952637642,colour,0.28
75,78,1,2,6,9,259,543.0859767000384,544.3924468110245,"[24, 0, 230]",230,a,0.7832331650297419,colour,0.28
75,78,1,2,6,10,260,544.9140276322732,546.5364237158628,"[82, 0, 172]",172,l,1.09907446062698,colour,0.28
75,78,1,2,6,11,261,547.0547371862021,548.2244913471914,"[66, 0, 188]",188,l,0.6469803785657859,colour,0.28
75,78,1,2,6,12,262,548.7422672170014,550.1444503083812,"[46, 0, 208]",208,l,0.8788906130612304,colour,0.28
75,78,1,2,6,13,263,550.6651359164407,551.6724374374762,"[70, 0, 184]",184,l,0.48405630430170277,colour,0.28
75,78,1,2,6,14,264,552.1807369656481,553.4884508440127,"[23, 0, 231]",231,a,0.7844954431957376,colour,0.28
75,78,1,2,6,15,265,554.0088406733194,555.5284329633796,"[74, 0, 180]",180,l,0.9950052381591377,colour,0.28
75,78,1,2,6,16,266,556.0414086315404,556.8964916150071,"[65, 0, 189]",189,l,0.3317716005140028,colour,0.28
75,78,1,2,6,17,267,557.4163859853643,558.296431750332,"[50, 0, 204]",204,l,0.35670326813851716,colour,0.28
75,78,1,2,6,18,268,558.8070742715809,559.7444723637882,"[57, 0, 197]",197,l,0.41414381700360536,colour,0.28
75,78,1,2,6,19,269,560.2600891668562,562.176502327633,"[45, 0, 209]",209,a,1.3930214331294337,colour,0.28
75,78,1,2,6,20,270,562.697592022244,564.0564716863719,"[79, 0, 175]",175,l,0.8355623734769324,colour,0.28
75,78,1,2,6,21,271,564.5726753207873,565.272455948264,"[97, 0, 157]",157,l,0.17650665994551673,colour,0.28
75,78,1,2,6,22,272,565.791378699203,567.1844804770262,"[2, 0, 252]",252,a,0.8698026041129197,colour,0.28
75,78,1,2,6,23,273,567.6977342008458,569.4964333257185,"[83, 0, 171]",171,l,1.275655951414592,colour,0.28
75,78,1,2,6,24,274,570.0009649240264,570.9925425157335,"[98, 0, 156]",156,l,0.4682945657050368,colour,0.28
75,78,1,2,6,25,275,571.5009570470957,572.1844761447146,"[85, 0, 169]",169,l,0.1602967239841746,colour,0.28
75,78,1,2,6,26,276,572.7041042748097,573.6164667239054,"[69, 0, 185]",185,l,0.38935196490092494,colour,0.28
75,78,1,2,6,27,277,574.1259911148218,575.6564716863713,"[37, 0, 217]",217,l,1.00714516395783,colour,0.28
75,78,1,2,6,28,278,576.1728198624687,577.0004517419829,"[93, 0, 161]",161,l,0.30437327199797437,colour,0.28
75,78,1,2,6,29,279,577.5165651855405,579.032451379644,"[51, 0, 203]",203,l,0.9910974927724965,colour,0.28
75,78,1,2,6,30,280,579.5496892550782,580.3844280954363,"[94, 0, 160]",160,l,0.3115924791063662,colour,0.28
75,78,1,2,6,31,281,580.8933660488519,582.6964916150064,"[43, 0, 211]",211,a,1.279801973958456,colour,0.28
75,78,1,2,6,32,282,583.2058698888559,584.4805514639274,"[88, 0, 166]",166,l,0.7514158783169478,colour,0.28
75,78,1,2,6,33,283,584.9871491811928,586.2724917882988,"[10, 0, 244]",244,a,0.7622143627950209,colour,0.28
75,78,1,2,6,34,284,586.7858207368081,588.0005029420336,"[95, 0, 159]",159,l,0.6914066623085091,colour,0.28
75,78,1,2,6,35,285,588.5201996014266,589.3764720014487,"[73, 0, 181]",181,l,0.3331831465184223,colour,0.28
75,78,1,2,6,36,286,589.8955196017423,591.8644750419444,"[19, 0, 235]",235,a,1.4457515773556224,colour,0.28
75,78,1,2,6,37,287,592.3799177648416,594.3045095429015,"[54, 0, 200]",200,l,1.4013631028810778,colour,0.28
75,78,1,2,6,38,288,594.8173942325111,596.056444904807,"[53, 0, 201]",201,l,0.7157562247448368,colour,0.28
75,78,1,2,6,39,289,596.5683886950283,598.1204808078573,"[15, 0, 239]",239,a,1.028869739194306,colour,0.28
75,78,1,2,6,40,290,598.6308767811706,599.912473907666,"[47, 0, 207]",207,a,0.7583436389841154,colour,0.28
75,78,1,2,6,41,291,600.4291509456252,601.7204875032485,"[80, 0, 174]",174,l,0.7680428977646443,colour,0.28
75,78,1,2,6,42,292,602.2416331240693,603.0325801674635,"[86, 0, 168]",168,l,0.26762345119914244,colour,0.28
75,78,1,2,6,43,293,603.5541964349004,604.2324824935213,"[87, 0, 167]",167,l,0.15526887903433817,colour,0.28
75,78,1,2,6,44,294,604.7416492717775,605.4245031625869,"[75, 0, 179]",179,l,0.1684123258210093,colour,0.28
75,78,1,2,6,45,295,605.9359818200437,606.5605011303396,"[71, 0, 183]",183,l,0.10126542893885926,colour,0.28
75,78,1,2,6,46,296,607.0766354477637,607.7524686301222,"[90, 0, 164]",164,l,0.15263089489781123,colour,0.28
75,78,1,2,6,47,297,608.2641264877548,609.1605432719189,"[63, 0, 191]",191,l,0.3731057950581089,colour,0.28
75,78,1,2,6,48,298,609.6704351216586,610.5045591675653,"[49, 0, 205]",205,l,0.3110233708530359,colour,0.28
75,78,1,2,6,49,299,611.0027210857561,612.008490937591,"[33, 0, 221]",221,l,0.4825297551069525,colour,0.28
75,78,1,2,6,50,300,612.51835324884,613.7684855812777,"[99, 0, 155]",155,l,0.7268181925592216,colour,0.28
75,78,1,2,7,1,301,619.7394913865755,626.2885516687275,"[72, 0, 182]",182,l,6.025047064661521,colour,0.14
75,78,1,2,7,2,302,626.8028325443274,628.2085378053289,"[95, 0, 159]",159,l,0.8829176939498211,colour,0.14
75,78,1,2,7,3,303,628.7151170118068,629.4565028002489,"[74, 0, 180]",180,l,0.21808031318687426,colour,0.14
75,78,1,2,7,4,304,629.9651756949415,630.8565402156701,"[51, 0, 203]",203,l,0.36632100068527507,colour,0.14
75,78,1,2,7,5,305,631.373155419722,632.7524902916821,"[6, 0, 248]",248,a,0.8560805967563283,colour,0.14
75,78,1,2,7,6,306,633.2638224382245,634.7526194733482,"[94, 0, 160]",160,l,0.9655226737459088,colour,0.14
75,78,1,2,7,7,307,635.2637428812232,635.9125239261766,"[93, 0, 161]",161,l,0.12546020968329685,colour,0.14
75,78,1,2,7,8,308,636.4200582105186,637.1925941096306,"[70, 0, 184]",184,l,0.2494356179058741,colour,0.14
75,78,1,2,7,9,309,637.7012607027791,638.3765358045885,"[50, 0, 204]",204,l,0.15049506510240462,colour,0.14
75,78,1,2,7,10,310,638.8905138121982,639.8645786235847,"[52, 0, 202]",202,l,0.45106417335591686,colour,0.14
75,78,1,2,7,11,311,640.374670153521,641.1685182705405,"[97, 0, 157]",157,l,0.2706080202906378,colour,0.14
75,78,1,2,7,12,312,641.6871361842568,642.3525501563563,"[64, 0, 190]",190,l,0.14266657739426591,colour,0.14
75,78,1,2,7,13,313,642.8590301135064,643.408555134577,"[66, 0, 188]",188,l,0.026191188865595905,colour,0.14
75,78,1,2,7,14,314,643.9214914180839,644.8405232645146,"[89, 0, 165]",165,l,0.3959118728971589,colour,0.14
75,78,1,2,7,15,315,645.3590454735213,645.9765078414839,"[68, 0, 186]",186,l,0.09418288657980156,colour,0.14
75,78,1,2,7,16,316,646.4840047104044,647.1525355840349,"[87, 0, 167]",167,l,0.14527069072846643,colour,0.14
75,78,1,2,7,17,317,647.6715323781236,648.2565902341812,"[85, 0, 169]",169,l,0.06208006112501607,colour,0.14
75,78,1,2,7,18,318,648.7652142919032,650.3205733617951,"[37, 0, 217]",217,l,1.0323808811135677,colour,0.14
75,78,1,2,7,19,319,650.8277157688271,651.5125637046776,"[81, 0, 173]",173,l,0.16150346978793095,colour,0.14
75,78,1,2,7,20,320,652.0308712673186,652.8165525824515,"[99, 0, 155]",155,l,0.26238450450182427,colour,0.14
75,78,1,2,7,21,321,653.3277559411745,654.2165289516588,"[61, 0, 193]",193,l,0.36554000299292966,colour,0.14
75,78,1,2,7,22,322,654.7339893503895,655.5045733460411,"[69, 0, 185]",185,l,0.24724464959490433,colour,0.14
75,78,1,2,7,23,323,656.0152387103881,656.7926358573641,"[92, 0, 162]",162,l,0.2541436594647166,colour,0.14
75,78,1,2,7,24,324,657.312113144234,658.1125475569697,"[77, 0, 177]",177,l,0.27707694973742036,colour,0.14
75,78,1,2,7,25,325,658.6253786834495,660.3525379471139,"[2, 0, 252]",252,a,1.2046915000037188,colour,0.14
75,78,1,2,7,26,326,660.858995061164,663.3446247823995,"[55, 0, 199]",199,a,1.962298252108667,colour,0.14
75,78,1,2,7,27,327,663.8590151473372,665.2245992611433,"[76, 0, 178]",178,l,0.8422743062392328,colour,0.14
75,78,1,2,7,28,328,665.7339605995912,666.5365469898306,"[75, 0, 179]",179,l,0.27930297039074503,colour,0.14
75,78,1,2,7,29,329,667.0464581380511,667.8325187274031,"[62, 0, 192]",192,l,0.2627243940678454,colour,0.14
75,78,1,2,7,30,330,668.3433290272778,669.0646113128478,"[73, 0, 181]",181,l,0.19799138263806526,colour,0.14
75,78,1,2,7,31,331,669.5776019471768,670.1845450678593,"[84, 0, 170]",170,l,0.08478688963623426,colour,0.14
75,78,1,2,7,32,332,670.7027683473407,672.1685635628928,"[12, 0, 242]",242,a,0.943246319503487,colour,0.14
75,78,1,2,7,33,333,672.6870912857512,673.944585397745,"[90, 0, 164]",164,l,0.7342689814340702,colour,0.14
75,78,1,2,7,34,334,674.4527297503801,675.1365784975542,"[79, 0, 175]",175,l,0.16053736422145448,colour,0.14
75,78,1,2,7,35,335,675.6558647688507,677.2005730467181,"[23, 0, 231]",231,a,1.0214398241869276,colour,0.14
75,78,1,2,7,36,336,677.7183548242256,679.4085417437946,"[59, 0, 195]",195,l,1.1672441769787838,colour,0.14
75,78,1,2,7,37,337,679.9214666057514,680.5606236166141,"[71, 0, 183]",183,l,0.11610792970714101,colour,0.14
75,78,1,2,7,38,338,681.0775995840977,681.8566323757605,"[86, 0, 168]",168,l,0.25561664552969887,colour,0.14
75,78,1,2,7,39,339,682.3745815380489,683.0725559852854,"[80, 0, 174]",174,l,0.17476191976584232,colour,0.14
75,78,1,2,7,40,340,683.5932506518157,684.3845659417257,"[58, 0, 196]",196,l,0.2679625530699923,colour,0.14
75,78,1,2,7,41,341,684.9057418887305,685.6245799626631,"[83, 0, 171]",171,l,0.19551526943087083,colour,0.14
75,78,1,2,7,42,342,686.1401833749496,686.8645865005155,"[88, 0, 166]",166,l,0.2011712996145434,colour,0.14
75,78,1,2,7,43,343,687.3745740549648,688.0165911794129,"[96, 0, 158]",158,l,0.11877308925431862,colour,0.14
75,78,1,2,7,44,344,688.5308448796004,689.2726442069106,"[60, 0, 194]",194,l,0.21856513827970048,colour,0.14
75,78,1,2,7,45,345,689.7808066764865,691.3766728631854,"[11, 0, 243]",243,a,1.0725926130144217,colour,0.14
75,78,1,2,7,46,346,691.8901317810523,693.4245649964942,"[65, 0, 189]",189,l,1.01108441706765,colour,0.14
75,78,1,2,7,47,347,693.9369676179367,694.5206127464489,"[82, 0, 172]",172,l,0.060447567209848785,colour,0.14
75,78,1,2,7,48,348,695.0307684733716,695.8005947082775,"[54, 0, 200]",200,l,0.24651800272567925,colour,0.14
75,78,1,2,7,49,349,696.3120639134168,700.1366233960598,"[67, 0, 187]",187,l,3.301255976621178,colour,0.14
75,78,1,2,7,50,350,700.6557863933895,702.8886343765016,"[49, 0, 205]",205,a,1.7097315541977878,colour,0.14
75,78,1,2,8,1,351,709.5768544264411,712.2246114703867,"[66, 0, 188]",188,l,2.1235299677837247,colour,0.06
75,78,1,2,8,2,352,712.7339720211412,713.9686832922416,"[94, 0, 160]",160,l,0.7114613282083155,colour,0.06
75,78,1,2,8,3,353,714.4838908887541,715.4486483186683,"[77, 0, 177]",177,l,0.44142162847674626,colour,0.06
75,78,1,2,8,4,354,715.9682646333677,716.6645770481982,"[68, 0, 186]",186,l,0.172833647097832,colour,0.06
75,78,1,2,8,5,355,717.1714276149442,717.8885867210693,"[72, 0, 182]",182,l,0.19400014178427227,colour,0.06
75,78,1,2,8,6,356,718.4058647688507,719.096688144431,"[87, 0, 167]",167,l,0.16746866950779804,colour,0.06
75,78,1,2,8,7,357,719.6089001441478,721.280637322473,"[17, 0, 237]",237,a,1.1483887737977057,colour,0.06
75,78,1,2,8,8,358,721.7894913865757,722.8086169684839,"[63, 0, 191]",191,l,0.4958023835588392,colour,0.06
75,78,1,2,8,9,359,723.3207974604775,723.8886343765016,"[79, 0, 175]",175,l,0.044728757887241954,colour,0.06
75,78,1,2,8,10,360,724.3988180665283,725.0005931328915,"[78, 0, 176]",176,l,0.0787811237232745,colour,0.06
75,78,1,2,8,11,361,725.5081931896057,726.2325955274782,"[58, 0, 196]",196,l,0.20106653643506434,colour,0.06
75,78,1,2,8,12,362,726.7425330634169,727.424614621159,"[65, 0, 189]",189,l,0.15874654399704013,colour,0.06
75,78,1,2,8,13,363,727.9456696572743,728.6086063346274,"[52, 0, 202]",202,l,0.13964419903459202,colour,0.06
75,78,1,2,8,14,364,729.117635660441,729.8886127149417,"[81, 0, 173]",173,l,0.24768418233543343,colour,0.06
75,78,1,2,8,15,365,730.3988617834939,731.1286208281799,"[74, 0, 180]",180,l,0.20653509566545836,colour,0.06
75,78,1,2,8,16,366,731.6491536237818,733.1126019077919,"[0, 0, 254]",254,a,0.9412034374927316,colour,0.06
75,78,1,2,8,17,367,733.6331236756905,734.6325935582454,"[97, 0, 157]",157,l,0.47607933644758305,colour,0.06
75,78,1,2,8,18,368,735.1488724173505,735.7286298866502,"[90, 0, 164]",164,l,0.05647956330267334,colour,0.06
75,78,1,2,8,19,369,736.2425736296109,736.9366470268524,"[61, 0, 193]",193,l,0.1707667404471067,colour,0.06
75,78,1,2,8,20,370,737.4457669373705,738.168671082999,"[50, 0, 204]",204,l,0.19973454743103503,colour,0.06
75,78,1,2,8,21,371,738.6800343434179,739.3206513434097,"[86, 0, 168]",168,l,0.11722881696368859,colour,0.06
75,78,1,2,8,22,372,739.8363760604316,741.3766303277589,"[12, 0, 242]",242,a,1.0170740352732537,colour,0.06
75,78,1,2,8,23,373,741.8832248942517,743.6486873094764,"[69, 0, 185]",185,l,1.2422337400457764,colour,0.06
75,78,1,2,8,24,374,744.1644490480721,744.8965999228058,"[88, 0, 166]",166,l,0.2088355533151116,colour,0.06
75,78,1,2,8,25,375,745.4144285680522,745.9926811497162,"[95, 0, 159]",159,l,0.05491323560636374,colour,0.06
75,78,1,2,8,26,376,746.5081920080656,747.1046655061318,"[84, 0, 170]",170,l,0.0731699920443134,colour,0.06
75,78,1,2,8,27,377,747.6175872173162,748.4566414342307,"[56, 0, 198]",198,l,0.31615834206331783,colour,0.06
75,78,1,2,8,28,378,748.9770103896717,749.9366824730405,"[51, 0, 203]",203,l,0.43641741431838454,colour,0.06
75,78,1,2,8,29,379,750.4456507526402,751.9367084669129,"[53, 0, 201]",201,l,0.9677762636565603,colour,0.06
75,78,1,2,8,30,380,752.4455294479058,753.3526112025711,"[75, 0, 179]",179,l,0.3836825439339009,colour,0.06
75,78,1,2,8,31,381,753.8675387741914,754.6886296503426,"[60, 0, 194]",194,l,0.2977700408810051,colour,0.06
75,78,1,2,8,32,382,755.1956806849776,756.0166640410225,"[62, 0, 192]",192,l,0.2977042685088236,colour,0.06
75,78,1,2,8,33,383,756.5238454388627,757.3366801099619,"[71, 0, 183]",183,l,0.28961623593022523,colour,0.06
75,78,1,2,8,34,384,757.8519971958121,758.688653281135,"[55, 0, 199]",199,l,0.31342898552975385,colour,0.06
75,78,1,2,8,35,385,759.1956267280011,760.06467708522,"[93, 0, 161]",161,l,0.34571101116125647,colour,0.06
75,78,1,2,8,36,386,760.5707478358127,761.33671555615,"[92, 0, 162]",162,l,0.24284183910549473,colour,0.06
75,78,1,2,8,37,387,761.8517857002198,762.6486900664022,"[89, 0, 165]",165,l,0.2734834938910353,colour,0.06
75,78,1,2,8,38,388,763.1643891833983,764.1286247666458,"[80, 0, 174]",174,l,0.44089229872497526,colour,0.06
75,78,1,2,8,39,389,764.6487873464976,765.4326833552568,"[59, 0, 195]",195,l,0.26121556796624645,colour,0.06
75,78,1,2,8,40,390,765.9456479957144,766.6166364717647,"[91, 0, 163]",163,l,0.14772199160324817,colour,0.06
75,78,1,2,8,41,391,767.1331874788302,768.2087370916788,"[82, 0, 172]",172,l,0.5522173560293595,colour,0.06
75,78,1,2,8,42,392,768.726985971186,769.5526675226265,"[96, 0, 158]",158,l,0.302491079376523,colour,0.06
75,78,1,2,8,43,393,770.070650949564,771.1046698384434,"[57, 0, 197]",197,l,0.510761856749923,colour,0.06
75,78,1,2,8,44,394,771.6175675249888,772.3446405362611,"[98, 0, 156]",156,l,0.203862059187486,colour,0.06
75,78,1,2,8,45,395,772.8519389065241,773.640659929265,"[67, 0, 187]",187,l,0.26539349207996565,colour,0.06
75,78,1,2,8,46,396,774.1487353587545,774.8887206288937,"[54, 0, 200]",200,l,0.21667428103319253,colour,0.06
75,78,1,2,8,47,397,775.3987337833687,776.0887127519627,"[73, 0, 181]",181,l,0.1666404102306842,colour,0.06
75,78,1,2,8,48,398,776.601886918781,777.4886615519126,"[64, 0, 190]",190,l,0.3635325671702958,colour,0.06
75,78,1,2,8,49,399,778.0081187526084,778.8486624971447,"[85, 0, 169]",169,l,0.31725205391012423,colour,0.06
75,78,1,2,8,50,400,779.3675096295474,780.0166868841225,"[76, 0, 178]",178,l,0.12589737934558798,colour,0.06
75,78,1,2,9,1,401,787.366740053405,790.6806830086725,"[56, 0, 198]",198,l,2.789878537727418,colour,0.06
75,78,1,2,9,2,402,791.1956669003484,792.5446669239791,"[76, 0, 178]",178,l,0.8257910407783129,colour,0.06
75,78,1,2,9,3,403,793.0549845218302,794.4567237481588,"[55, 0, 199]",199,l,0.8790682378521524,colour,0.06
75,78,1,2,9,4,404,794.9768406418116,795.6407028585381,"[83, 0, 171]",171,l,0.14059218766033155,colour,0.06
75,78,1,2,9,5,405,796.1487660787843,796.7287003851816,"[87, 0, 167]",167,l,0.05671075122336333,colour,0.06
75,78,1,2,9,6,406,797.2425433034268,797.8567245358518,"[81, 0, 173]",173,l,0.09098485266258649,colour,0.06
75,78,1,2,9,7,407,798.3675064787749,800.00871424858,"[52, 0, 202]",202,a,1.1179109591739689,colour,0.06
75,78,1,2,9,8,408,800.5237745464856,801.8567643143524,"[65, 0, 189]",189,l,0.8097985081094521,colour,0.06
75,78,1,2,9,9,409,802.3674836356759,803.1286669082256,"[97, 0, 157]",157,l,0.23791324348349008,colour,0.06
75,78,1,2,9,10,410,803.6487022756446,804.2327357368467,"[93, 0, 161]",161,l,0.06149322977762495,colour,0.06
75,78,1,2,9,11,411,804.7424208171524,806.4807113656234,"[64, 0, 190]",190,a,1.2149055162153672,colour,0.06
75,78,1,2,9,12,412,806.9925251864861,808.6086764393121,"[7, 0, 247]",247,a,1.0929083991713924,colour,0.06
75,78,1,2,9,13,413,809.1174863926017,810.4327026537376,"[73, 0, 181]",181,l,0.791960410545471,colour,0.06
75,78,1,2,9,14,414,810.9456125495262,811.5606992351495,"[60, 0, 194]",194,l,0.09191708742582705,colour,0.06
75,78,1,2,9,15,415,812.0708825313304,812.6727005269659,"[85, 0, 169]",169,l,0.07900601009805541,colour,0.06
75,78,1,2,9,16,416,813.1799831433673,813.816668767181,"[68, 0, 186]",186,l,0.11333958236537,colour,0.06
75,78,1,2,9,17,417,814.3362071002648,815.0246945720064,"[66, 0, 188]",188,l,0.16524816270612064,colour,0.06
75,78,1,2,9,18,418,815.5393149433248,816.1047167061824,"[59, 0, 195]",195,l,0.042153395351306244,colour,0.06
75,78,1,2,9,19,419,816.6183197718838,817.4087374855253,"[51, 0, 203]",203,l,0.26710869376802293,colour,0.06
75,78,1,2,9,20,420,817.9153678920538,818.6487475679969,"[62, 0, 192]",192,l,0.21008601608446043,colour,0.06
75,78,1,2,9,21,421,819.1653135412316,819.9526659472403,"[70, 0, 184]",184,l,0.2640792261709066,colour,0.06
75,78,1,2,9,22,422,820.4622151504882,821.2087319716738,"[75, 0, 179]",179,l,0.22335037375978573,colour,0.06
75,78,1,2,9,23,423,821.7277590919466,822.6167711672824,"[71, 0, 183]",183,l,0.36564949233252264,colour,0.06
75,78,1,2,9,24,424,823.1340700889305,825.13675887927,"[50, 0, 204]",204,a,1.4793336904212993,colour,0.06
75,78,1,2,9,25,425,825.6497010704743,826.6486936110214,"[82, 0, 172]",172,l,0.47628768126833165,colour,0.06
75,78,1,2,9,26,426,827.1653107843058,827.8487223618185,"[88, 0, 166]",166,l,0.16006199144521815,colour,0.06
75,78,1,2,9,27,427,828.3684127196675,829.1207088450055,"[78, 0, 176]",176,l,0.22898395469201205,colour,0.06
75,78,1,2,9,28,428,829.634089781257,830.5767413924832,"[90, 0, 164]",164,l,0.419290209762039,colour,0.06
75,78,1,2,9,29,429,831.0871231873207,831.9287055051864,"[84, 0, 170]",170,l,0.31829732263122423,colour,0.06
75,78,1,2,9,30,430,832.4465215473438,833.2727418808536,"[91, 0, 163]",163,l,0.3028455412641051,colour,0.06
75,78,1,2,9,31,431,833.7902641134906,834.6488101895975,"[98, 0, 156]",156,l,0.33523469315423426,colour,0.06
75,78,1,2,9,32,432,835.1652706119585,837.2007179822449,"[61, 0, 193]",193,a,1.5120985719122473,colour,0.06
75,78,1,2,9,33,433,837.7121714335226,838.793436547383,"[80, 0, 174]",174,l,0.5580080817308044,colour,0.06
75,78,1,2,9,34,434,839.3059967074423,840.1287003851812,"[99, 0, 155]",155,l,0.29947342717332504,colour,0.06
75,78,1,2,9,35,435,840.6496880735385,841.6327723645754,"[53, 0, 201]",201,l,0.4605373642216364,colour,0.06
75,78,1,2,9,36,436,842.149697525856,843.176777626365,"[89, 0, 165]",165,l,0.5036994005649831,colour,0.06
75,78,1,2,9,37,437,843.6966452151582,845.7847636526903,"[58, 0, 196]",196,a,1.5648259592144314,colour,0.06
75,78,1,2,9,38,438,846.3079084385563,847.3287236221267,"[96, 0, 158]",158,l,0.4976455853739026,colour,0.06
75,78,1,2,9,39,439,847.8391991524413,848.6167609272716,"[63, 0, 191]",191,l,0.2543244350272289,colour,0.06
75,78,1,2,9,40,440,849.1360641339697,851.3527466857804,"[42, 0, 212]",212,a,1.6934014950402343,colour,0.06
75,78,1,2,9,41,441,851.8704296078076,853.0087477255356,"[12, 0, 242]",242,l,0.6152032642003178,colour,0.06
75,78,1,2,9,42,442,853.5267016139833,854.2967775475963,"[86, 0, 168]",168,l,0.2468291414934356,colour,0.06
75,78,1,2,9,43,443,854.8079765740067,855.4887564689298,"[72, 0, 182]",182,l,0.1575921797830233,colour,0.06
75,78,1,2,9,44,444,855.9955097555785,856.8647109560234,"[54, 0, 200]",200,l,0.3459870975875674,colour,0.06
75,78,1,2,9,45,445,857.3861243924921,858.0807409041145,"[94, 0, 160]",160,l,0.17150677810059278,colour,0.06
75,78,1,2,9,46,446,858.5892156939963,859.1447456932883,"[92, 0, 162]",162,l,0.03231392720226722,colour,0.06
75,78,1,2,9,47,447,859.6516092569682,861.6887371704479,"[67, 0, 187]",187,a,1.5144632265473774,colour,0.06
75,78,1,2,9,48,448,862.1984872354324,863.1128153726177,"[77, 0, 177]",177,l,0.3909828834293876,colour,0.06
75,78,1,2,9,49,449,863.6203854969945,864.3687656061693,"[79, 0, 175]",175,l,0.2252376863889367,colour,0.06
75,78,1,2,9,50,450,864.8860641339697,866.4247508920625,"[57, 0, 197]",197,l,1.0154033382441412,colour,0.06
75,78,1,2,10,1,451,875.6664643608265,877.4807806826147,"[98, 0, 156]",156,l,1.2902755350405641,colour,0.06
75,78,1,2,10,2,452,877.9954124754831,878.7367604546553,"[88, 0, 166]",166,l,0.21817168558300182,colour,0.06
75,78,1,2,10,3,453,879.2454211401064,879.8967988153099,"[91, 0, 163]",163,l,0.12818917237200367,colour,0.06
75,78,1,2,10,4,454,880.4172760785486,881.1928087559963,"[74, 0, 180]",180,l,0.2523693807943346,colour,0.06
75,78,1,2,10,5,455,881.7141257000612,883.2407390924191,"[52, 0, 202]",202,a,1.0034138618229917,colour,0.06
75,78,1,2,10,6,456,883.7609371184599,884.6087599347784,"[97, 0, 157]",157,l,0.3245086764381995,colour,0.06
75,78,1,2,10,7,457,885.1203532015779,885.8807712302978,"[76, 0, 178]",178,l,0.23722401203667687,colour,0.06
75,78,1,2,10,8,458,886.4016202846715,887.1207805250751,"[89, 0, 165]",165,l,0.1959851283536409,colour,0.06
75,78,1,2,10,9,459,887.6360062385293,888.4728553086579,"[67, 0, 187]",187,l,0.3136432380488259,colour,0.06
75,78,1,2,10,10,460,888.9797070569412,889.7607791859982,"[72, 0, 182]",182,l,0.25775562609851477,colour,0.06
75,78,1,2,10,11,461,890.2766173308237,891.0407906863175,"[93, 0, 161]",161,l,0.24131135144671134,colour,0.06
75,78,1,2,10,12,462,891.5578560569656,892.3527565319446,"[68, 0, 186]",186,l,0.27165368285932345,colour,0.06
75,78,1,2,10,13,463,892.8703181492356,893.8327546414812,"[64, 0, 190]",190,l,0.43916213086777134,colour,0.06
75,78,1,2,10,14,464,894.339125896985,895.1527332949981,"[78, 0, 176]",176,l,0.2903637566651014,colour,0.06
75,78,1,2,10,15,465,895.6672335431222,896.6567599820401,"[84, 0, 170]",170,l,0.4663162745273439,colour,0.06
75,78,1,2,10,16,466,897.1672607185328,897.7128421541829,"[62, 0, 192]",192,l,0.02232519121207588,colour,0.06
75,78,1,2,10,17,467,898.2297145400271,900.3687707261734,"[94, 0, 160]",160,l,1.6158023047901224,colour,0.06
75,78,1,2,10,18,468,900.8859916662068,901.6887422904538,"[95, 0, 159]",159,l,0.27957196757961356,colour,0.06
75,78,1,2,10,19,469,902.1984730569575,902.9208017927895,"[83, 0, 171]",171,l,0.1990464975224313,colour,0.06
75,78,1,2,10,20,470,903.4328235646253,904.0807747749159,"[87, 0, 167]",167,l,0.12473986435907136,colour,0.06
75,78,1,2,10,21,471,904.5890183768797,905.3528077319943,"[81, 0, 173]",173,l,0.24062290768961248,colour,0.06
75,78,1,2,10,22,472,905.8703532015779,907.4168704166104,"[66, 0, 188]",188,l,1.0235736847498629,colour,0.06
75,78,1,2,10,23,473,907.9328015092187,909.9687904185002,"[54, 0, 200]",200,a,1.5127255756051454,colour,0.06
75,78,1,2,10,24,474,910.4797102077146,911.3928032421436,"[80, 0, 174]",174,l,0.3902357565384591,colour,0.06
75,78,1,2,10,25,475,911.9015942908,914.120826211275,"[70, 0, 184]",184,a,1.696002457601935,colour,0.06
75,78,1,2,10,26,476,914.6359251061413,916.080766897986,"[96, 0, 158]",158,l,0.9216312336066039,colour,0.06
75,78,1,2,10,27,477,916.589061306152,918.6648090238114,"[61, 0, 193]",193,a,1.552885319762936,colour,0.06
75,78,1,2,10,28,478,919.182797176908,919.9768973557138,"[73, 0, 181]",181,l,0.2708525989928603,colour,0.06
75,78,1,2,10,29,479,920.4953770292932,921.5848306066027,"[51, 0, 203]",203,l,0.5662824037244718,colour,0.06
75,78,1,2,10,30,480,922.1047147369491,923.6408674863915,"[82, 0, 172]",172,l,1.0131796806690545,colour,0.06
75,78,1,2,10,31,481,924.151577749245,924.6808295195851,"[92, 0, 162]",162,l,0.006348018558128388,colour,0.06
75,78,1,2,10,32,482,925.1984320969177,926.6087914425016,"[25, 0, 229]",229,a,0.8870511134045955,colour,0.06
75,78,1,2,10,33,483,927.1202842784342,928.680849999605,"[99, 0, 155]",155,l,1.0373685537160782,colour,0.06
75,78,1,2,10,34,484,929.1984888108191,931.2248131198148,"[55, 0, 199]",199,a,1.5032590801311017,colour,0.06
75,78,1,2,10,35,485,931.7453463092634,932.2887891581913,"[77, 0, 177]",177,l,0.020306727685238002,colour,0.06
75,78,1,2,10,36,486,932.8077638968743,933.8248103628894,"[75, 0, 179]",179,l,0.4937437476855848,colour,0.06
75,78,1,2,10,37,487,934.3390317676613,936.4088658794981,"[50, 0, 204]",204,a,1.5466109505086933,colour,0.06
75,78,1,2,10,38,488,936.9171764353732,938.8088430363996,"[56, 0, 198]",198,l,1.3684339873816498,colour,0.06
75,78,1,2,10,39,489,939.3233956661124,940.8648488023127,"[40, 0, 214]",214,a,1.0182063440806814,colour,0.06
75,78,1,2,10,40,490,941.3858550014565,942.4968177199435,"[69, 0, 185]",185,l,0.5876911140348966,colour,0.06
75,78,1,2,10,41,491,943.0108398383645,943.9929127314836,"[57, 0, 197]",197,l,0.4588477625584346,colour,0.06
75,78,1,2,10,42,492,944.5108252660439,947.0008018715589,"[90, 0, 164]",164,l,1.9666372594583663,colour,0.06
75,78,1,2,10,43,493,947.5107811552307,949.0408296771247,"[59, 0, 195]",195,l,1.0066926342824445,colour,0.06
75,78,1,2,10,44,494,949.557778075351,950.6008684316248,"[58, 0, 196]",196,l,0.5198482903124386,colour,0.06
75,78,1,2,10,45,495,951.1202062968177,952.1289347238735,"[60, 0, 194]",194,l,0.4855099918859196,colour,0.06
75,78,1,2,10,46,496,952.63585815223,953.7448504564682,"[63, 0, 191]",191,l,0.5857313336437073,colour,0.06
75,78,1,2,10,47,497,954.2607681582949,955.3208360574381,"[71, 0, 183]",183,l,0.5366777468825603,colour,0.06
75,78,1,2,10,48,498,955.8390258599638,957.4168877458587,"[2, 0, 252]",252,a,1.0529955967958813,colour,0.06
75,78,1,2,10,49,499,957.9328338046353,959.2169365828295,"[53, 0, 201]",201,l,0.7615609713830054,colour,0.06
75,78,1,2,10,50,500,959.7295833891285,960.7048525832388,"[85, 0, 169]",169,l,0.45191448803780077,colour,0.06
75,78,1,2,11,1,501,969.5412833883411,971.2648405315349,"[59, 0, 195]",195,l,1.1994104117275128,colour,0.06
75,78,1,2,11,2,502,971.7766027585012,972.6168778996953,"[64, 0, 190]",190,l,0.31709530298576283,colour,0.06
75,78,1,2,11,3,503,973.1358687860857,973.8648432884611,"[74, 0, 180]",180,l,0.20575094720152265,colour,0.06
75,78,1,2,11,4,504,974.3858857214864,975.1128539695792,"[92, 0, 162]",162,l,0.20377698833544855,colour,0.06
75,78,1,2,11,5,505,975.6202165368277,976.3208750482454,"[65, 0, 189]",189,l,0.1773943900498125,colour,0.06
75,78,1,2,11,6,506,976.83896481375,977.5128586957371,"[88, 0, 166]",166,l,0.15066796373503166,colour,0.06
75,78,1,2,11,7,507,978.0264956322417,978.7608957645743,"[72, 0, 182]",182,l,0.21111946940982307,colour,0.06
75,78,1,2,11,8,508,979.276472395296,979.912888628075,"[71, 0, 183]",183,l,0.11306782825158734,colour,0.06
75,78,1,2,11,9,509,980.432670358322,981.1129047757831,"[66, 0, 188]",188,l,0.15774105377568048,colour,0.06
75,78,1,2,11,10,510,981.6201117736482,982.2008495269902,"[96, 0, 158]",158,l,0.05746260427076777,colour,0.06
75,78,1,2,11,11,511,982.7139811583811,983.4889356691046,"[52, 0, 202]",202,l,0.2516789678065834,colour,0.06
75,78,1,2,11,12,512,983.9953652138984,984.6408808771748,"[70, 0, 184]",184,l,0.12240671744621068,colour,0.06
75,78,1,2,11,13,513,985.1513670413451,985.6968614369098,"[91, 0, 163]",163,l,0.022137326412121183,colour,0.06
75,78,1,2,11,14,514,986.2137956566594,987.0168562381341,"[54, 0, 200]",200,l,0.2796637338215078,colour,0.06
75,78,1,2,11,15,515,987.5264109552345,988.2408915110309,"[86, 0, 168]",168,l,0.1911601143729058,colour,0.06
75,78,1,2,11,16,516,988.7608587429995,989.4408871787191,"[99, 0, 155]",155,l,0.15760005671290855,colour,0.06
75,78,1,2,11,17,517,989.9483678999304,990.504894330973,"[83, 0, 171]",171,l,0.03361480232888425,colour,0.06
75,78,1,2,11,18,518,991.0265039030191,991.7928800422205,"[50, 0, 204]",204,l,0.24323765488043136,colour,0.06
75,78,1,2,11,19,519,992.3076567706148,993.1449048072909,"[55, 0, 199]",199,l,0.3139969122439652,colour,0.06
75,78,1,2,11,20,520,993.6516773924204,994.4648940946654,"[87, 0, 167]",167,l,0.2908410986747185,colour,0.06
75,78,1,2,11,21,521,994.9794396351399,996.2409525572448,"[78, 0, 176]",176,l,0.7380967759709165,colour,0.06
75,78,1,2,11,22,522,996.7630623143987,997.9449146534544,"[80, 0, 174]",174,l,0.6588379163949867,colour,0.06
75,78,1,2,11,23,523,998.4505545359307,999.1368817593911,"[89, 0, 165]",165,l,0.16344867785664974,colour,0.06
75,78,1,2,11,24,524,999.6536186620242,1000.1929166699492,"[98, 0, 156]",156,l,0.016403708459620248,colour,0.06
75,78,1,2,11,25,525,1000.7005505974639,1002.2009357793822,"[13, 0, 241]",241,a,0.9775361748052092,colour,0.06
75,78,1,2,11,26,526,1002.7162568036993,1005.2809094704344,"[16, 0, 238]",238,a,2.0415267855041748,colour,0.06
75,78,1,2,11,27,527,1005.7942340866293,1007.7129276188816,"[97, 0, 157]",157,l,1.395516450969808,colour,0.06
75,78,1,2,11,28,528,1008.2318417051983,1009.1369408363726,"[77, 0, 177]",177,l,0.3825939520920656,colour,0.06
75,78,1,2,11,29,529,1009.6537340590612,1011.9288996715322,"[82, 0, 172]",172,l,1.7525978117901104,colour,0.06
75,78,1,2,11,30,530,1012.4348822004986,1013.2728635794347,"[95, 0, 159]",159,l,0.31463809441265767,colour,0.06
75,78,1,2,11,31,531,1013.7785983789281,1014.7368864855498,"[73, 0, 181]",181,l,0.4352023977389763,colour,0.06
75,78,1,2,11,32,532,1015.2474506313365,1016.0409746126506,"[63, 0, 191]",191,l,0.27030081998782407,colour,0.06
75,78,1,2,11,33,533,1016.5598851543482,1017.3449784565937,"[53, 0, 201]",201,l,0.26177995006037236,colour,0.06
75,78,1,2,11,34,534,1017.8567863697581,1019.9928638945121,"[3, 0, 251]",251,a,1.6135455641069711,colour,0.06
75,78,1,2,11,35,535,1020.5129855143232,1021.4169381582151,"[51, 0, 203]",203,l,0.3805892731943459,colour,0.06
75,78,1,2,11,36,536,1021.9347589265317,1022.6569246098943,"[62, 0, 192]",192,l,0.19868770332323038,colour,0.06
75,78,1,2,11,37,537,1023.1693146282478,1023.9128866588426,"[93, 0, 161]",161,l,0.22036186620243825,colour,0.06
75,78,1,2,11,38,538,1024.4192417666372,1025.144959158114,"[56, 0, 198]",198,l,0.2026919411127892,colour,0.06
75,78,1,2,11,39,539,1025.6536403235832,1026.3769584019274,"[94, 0, 160]",160,l,0.20073806841901387,colour,0.06
75,78,1,2,11,40,540,1026.8879278158047,1027.576964703473,"[58, 0, 196]",196,l,0.16579718478533323,colour,0.06
75,78,1,2,11,41,541,1028.0911034004703,1028.8409289264519,"[75, 0, 179]",179,l,0.22657873386197025,colour,0.06
75,78,1,2,11,42,542,1029.35673832048,1030.000905847045,"[61, 0, 193]",193,l,0.12082187896339747,colour,0.06
75,78,1,2,11,43,543,1030.5128571203504,1031.5129410096642,"[84, 0, 170]",170,l,0.47673154631957004,colour,0.06
75,78,1,2,11,44,544,1032.0285968035414,1032.6569332745194,"[81, 0, 173]",173,l,0.10547761770249053,colour,0.06
75,78,1,2,11,45,545,1033.1692453112564,1034.281035501327,"[79, 0, 175]",175,l,0.5894590911593696,colour,0.06
75,78,1,2,11,46,546,1034.7943632682955,1036.2488704481175,"[85, 0, 169]",169,l,0.9313190708362526,colour,0.06
75,78,1,2,11,47,547,1036.7629622773775,1037.9690842280206,"[67, 0, 187]",187,l,0.6827428260839952,colour,0.06
75,78,1,2,11,48,548,1038.4817589974236,1039.6809610643313,"[76, 0, 178]",178,l,0.6758678408550622,colour,0.06
75,78,1,2,11,49,549,1040.2006053421346,1041.888939607571,"[68, 0, 186]",186,l,1.1651465502982319,colour,0.06
75,78,1,2,11,50,550,1042.403574551211,1043.3849838129072,"[90, 0, 164]",164,l,0.45813883878327033,colour,0.06
75,78,1,2,12,1,551,1050.1215682181582,1051.7929249407252,"[77, 0, 177]",177,l,1.1476128961112408,colour,0.06
75,78,1,2,12,2,552,1052.3099556528787,1053.1049136294523,"[96, 0, 158]",158,l,0.2716922798190353,colour,0.06
75,78,1,2,12,3,553,1053.6223878128121,1054.360979260041,"[71, 0, 183]",183,l,0.2154186982588726,colour,0.06
75,78,1,2,12,4,554,1054.8724264097737,1055.5689160555476,"[57, 0, 197]",197,l,0.173418903057609,colour,0.06
75,78,1,2,12,5,555,1056.0757524438168,1056.8249245783873,"[51, 0, 203]",203,l,0.22615574267729244,colour,0.06
75,78,1,2,12,6,556,1057.3411219112577,1058.176979275794,"[59, 0, 195]",195,l,0.31261372318840586,colour,0.06
75,78,1,2,12,7,557,1058.684936157476,1059.312928800421,"[60, 0, 194]",194,l,0.10480886627192376,colour,0.06
75,78,1,2,12,8,558,1059.8255511882353,1060.4969075169547,"[89, 0, 165]",165,l,0.1481221396898036,colour,0.06
75,78,1,2,12,9,559,1061.013011114349,1061.6649925563006,"[93, 0, 161]",161,l,0.128895733067111,colour,0.06
75,78,1,2,12,10,560,1062.1848310004489,1063.2569624191628,"[58, 0, 196]",196,l,0.5496049719185976,colour,0.06
75,78,1,2,12,11,561,1063.764193441667,1064.5609871369716,"[53, 0, 201]",201,l,0.273374398399028,colour,0.06
75,78,1,2,12,12,562,1065.076778414058,1065.8809744551136,"[88, 0, 166]",166,l,0.28079761801745917,colour,0.06
75,78,1,2,12,13,563,1066.3892865863736,1067.0730388411457,"[78, 0, 176]",176,l,0.16058817042539886,colour,0.06
75,78,1,2,12,14,564,1067.5924570510351,1068.3449745181288,"[61, 0, 193]",193,l,0.22929154884150194,colour,0.06
75,78,1,2,12,15,565,1068.8581112695238,1069.5209790237323,"[49, 0, 205]",205,l,0.13962411286047427,colour,0.06
75,78,1,2,12,16,566,1070.0299055555997,1070.728925665403,"[81, 0, 173]",173,l,0.17566973604334635,colour,0.06
75,78,1,2,12,17,567,1071.2487329956757,1072.104967192582,"[74, 0, 180]",180,l,0.3330023709550005,colour,0.06
75,78,1,2,12,18,568,1072.6237115310387,1073.360939875386,"[92, 0, 162]",162,l,0.21393113986960088,colour,0.06
75,78,1,2,12,19,569,1073.873695777177,1074.5449319827012,"[83, 0, 171]",171,l,0.14823517364675354,colour,0.06
75,78,1,2,12,20,570,1075.0611647617616,1075.640916323363,"[62, 0, 192]",192,l,0.05685804982931586,colour,0.06
75,78,1,2,12,21,571,1076.1549234756158,1076.8009794963482,"[63, 0, 191]",191,l,0.12295061951954267,colour,0.06
75,78,1,2,12,22,572,1077.3112092664205,1078.0649909809135,"[73, 0, 181]",181,l,0.23059439320059028,colour,0.06
75,78,1,2,12,23,573,1078.5767532078798,1079.3289989208597,"[55, 0, 199]",199,l,0.22893945003306726,colour,0.06
75,78,1,2,12,24,574,1079.8424097894485,1080.8170141705987,"[75, 0, 179]",179,l,0.45134695517299406,colour,0.06
75,78,1,2,12,25,575,1081.3268083463963,1082.2969524154605,"[70, 0, 184]",184,l,0.446846864588224,colour,0.06
75,78,1,2,12,26,576,1082.8111852417815,1083.4489492174262,"[65, 0, 189]",189,l,0.11445534961785597,colour,0.06
75,78,1,2,12,27,577,1083.9673918694325,1084.6809776058844,"[85, 0, 169]",169,l,0.1902625381044345,colour,0.06
75,78,1,2,12,28,578,1085.201812481785,1086.0090163288778,"[84, 0, 170]",170,l,0.2839629626723763,colour,0.06
75,78,1,2,12,29,579,1086.5298551432415,1087.3050093341635,"[68, 0, 186]",186,l,0.2518664387607714,colour,0.06
75,78,1,2,12,30,580,1087.8111580663708,1088.6089714303716,"[94, 0, 160]",160,l,0.27453782108386804,colour,0.06
75,78,1,2,12,31,581,1089.1236051924725,1089.8969894370357,"[79, 0, 175]",175,l,0.2500059076992329,colour,0.06
75,78,1,2,12,32,582,1090.4048120170455,1091.8729781887787,"[8, 0, 246]",246,a,0.9449339519360365,colour,0.06
75,78,1,2,12,33,583,1092.389272014053,1093.6090017565557,"[82, 0, 172]",172,l,0.6965278488896729,colour,0.06
75,78,1,2,12,34,584,1094.123585500146,1094.9369841594917,"[80, 0, 174]",174,l,0.290097516402966,colour,0.06
75,78,1,2,12,35,585,1095.4518113002441,1096.0889943522407,"[67, 0, 187]",187,l,0.11390475215193874,colour,0.06
75,78,1,2,12,36,586,1096.608005718651,1097.1770458358596,"[86, 0, 168]",168,l,0.04579608201493102,colour,0.06
75,78,1,2,12,37,587,1097.686137783273,1098.7049656171957,"[50, 0, 204]",204,l,0.4955660756331781,colour,0.06
75,78,1,2,12,38,588,1099.2173560293968,1100.8889774168392,"[36, 0, 218]",218,a,1.1483013398665207,colour,0.06
75,78,1,2,12,39,589,1101.4048766078786,1102.5769773065613,"[54, 0, 200]",200,l,0.6489996297841572,colour,0.06
75,78,1,2,12,40,590,1103.0923109339665,1104.0889427583434,"[52, 0, 202]",202,l,0.47327160445274785,colour,0.06
75,78,1,2,12,41,591,1104.6080718848707,1105.2409856403547,"[98, 0, 156]",156,l,0.11035737635211262,colour,0.06
75,78,1,2,12,42,592,1105.7484159492096,1106.3770088142855,"[72, 0, 182]",182,l,0.10507983269417309,colour,0.06
75,78,1,2,12,43,593,1106.889247989414,1107.5530180460473,"[64, 0, 190]",190,l,0.1405772214911849,colour,0.06
75,78,1,2,12,44,594,1108.0611761833125,1108.632988586326,"[91, 0, 163]",163,l,0.04896457744143845,colour,0.06
75,78,1,2,12,45,595,1109.139229084779,1109.7289874993103,"[99, 0, 155]",155,l,0.06730994935060153,colour,0.06
75,78,1,2,12,46,596,1110.2486266571095,1110.9370530826372,"[56, 0, 198]",198,l,0.1652899104392418,colour,0.06
75,78,1,2,12,47,597,1111.4517285924712,1112.2490299559677,"[97, 0, 157]",157,l,0.2742841839099128,colour,0.06
75,78,1,2,12,48,598,1112.7641623277896,1113.5610375493297,"[76, 0, 178]",178,l,0.27346262002538424,colour,0.06
75,78,1,2,12,49,599,1114.076674438572,1114.7450265058715,"[87, 0, 167]",167,l,0.14534473387720936,colour,0.06
75,78,1,2,12,50,600,1115.2642588201934,1116.2090151473376,"[69, 0, 185]",185,l,0.4214870857722417,colour,0.06
75,78,1,2,13,1,601,1123.357193607083,1124.9210991469272,"[97, 0, 157]",157,l,1.039861208477305,colour,0.06
75,78,1,2,13,2,602,1125.436113364788,1126.1850027175415,"[95, 0, 159]",159,l,0.2255515820816072,colour,0.06
75,78,1,2,13,3,603,1126.7017431647937,1127.4250120123188,"[88, 0, 166]",166,l,0.19994092301931232,colour,0.06
75,78,1,2,13,4,604,1127.9361732294628,1128.6890802107855,"[68, 0, 186]",186,l,0.22954439832028584,colour,0.06
75,78,1,2,13,5,605,1129.201832961805,1130.6970678124972,"[50, 0, 204]",204,a,0.9720116893658997,colour,0.06
75,78,1,2,13,6,606,1131.2174682756604,1132.265068568683,"[61, 0, 193]",193,l,0.5243420793522091,colour,0.06
75,78,1,2,13,7,607,1132.7800099249316,1134.2250135877048,"[15, 0, 239]",239,a,0.9217245752352028,colour,0.06
75,78,1,2,13,8,608,1134.7331161926058,1135.6170425275495,"[99, 0, 155]",155,l,0.3606968720705481,colour,0.06
75,78,1,2,13,9,609,1136.1236524540573,1136.832981890936,"[87, 0, 167]",167,l,0.18599245390032593,colour,0.06
75,78,1,2,13,10,610,1137.3425307003372,1140.089020739958,"[90, 0, 164]",164,l,2.2232117397779803,colour,0.06
75,78,1,2,13,11,611,1140.6081541987978,1141.3370337841561,"[73, 0, 181]",181,l,0.2056379132427537,colour,0.06
75,78,1,2,13,12,612,1141.8580565248549,1142.6810366828659,"[72, 0, 182]",182,l,0.29962269501265837,colour,0.06
75,78,1,2,13,13,613,1143.2017671894328,1143.8090301135062,"[77, 0, 177]",177,l,0.0838991595319385,colour,0.06
75,78,1,2,13,14,614,1144.326841823352,1145.0091065197348,"[89, 0, 165]",165,l,0.15888596567128843,colour,0.06
75,78,1,2,13,15,615,1145.5298323001416,1146.2090277504276,"[85, 0, 169]",169,l,0.15578836262284312,colour,0.06
75,78,1,2,13,16,616,1146.7174407064022,1148.993030097753,"[54, 0, 200]",200,a,1.7526722487855295,colour,0.06
75,78,1,2,13,17,617,1149.5143273494914,1150.2330913802734,"[63, 0, 191]",191,l,0.19550818019160943,colour,0.06
75,78,1,2,13,18,618,1150.748622324797,1151.3770202358346,"[60, 0, 194]",194,l,0.10543350688749342,colour,0.06
75,78,1,2,13,19,619,1151.8893267587218,1152.5290847794067,"[57, 0, 197]",197,l,0.11666758564206248,colour,0.06
75,78,1,2,13,20,620,1153.0454884878645,1153.7210191960794,"[81, 0, 173]",173,l,0.15215118980995612,colour,0.06
75,78,1,2,13,21,621,1154.233023244823,1154.9130674344042,"[78, 0, 176]",176,l,0.1567792805217323,colour,0.06
75,78,1,2,13,22,622,1155.420529644828,1156.0810114766873,"[75, 0, 179]",179,l,0.13716926736560708,colour,0.06
75,78,1,2,13,23,623,1156.5924196356127,1158.7050731373029,"[51, 0, 203]",203,a,1.5893826849314792,colour,0.06
75,78,1,2,13,24,624,1159.2174241648472,1160.4410372342509,"[9, 0, 245]",245,l,0.7003753357530513,colour,0.06
75,78,1,2,13,25,625,1160.9518294171858,1161.5370278764576,"[86, 0, 168]",168,l,0.06193591329065384,colour,0.06
75,78,1,2,13,26,626,1162.0454837617062,1162.8250116184727,"[64, 0, 190]",190,l,0.2562188368920033,colour,0.06
75,78,1,2,13,27,627,1163.342379857112,1163.953036950682,"[93, 0, 161]",161,l,0.08729293518081249,colour,0.06
75,78,1,2,13,28,628,1164.467478909518,1165.0810697659754,"[79, 0, 175]",175,l,0.09040314131925697,colour,0.06
75,78,1,2,13,29,629,1165.5923188108982,1166.2971005017598,"[55, 0, 199]",199,l,0.18223909635889868,colour,0.06
75,78,1,2,13,30,630,1166.811023370853,1167.5690160925687,"[66, 0, 188]",188,l,0.23465731412397872,colour,0.06
75,78,1,2,13,31,631,1168.07674296787,1168.9050250880236,"[71, 0, 183]",183,l,0.3050219372526044,colour,0.06
75,78,1,2,13,32,632,1169.4203945554646,1170.0650339101876,"[82, 0, 172]",172,l,0.12126968248230696,colour,0.06
75,78,1,2,13,33,633,1170.5767165801508,1171.2570821485106,"[92, 0, 162]",162,l,0.15732397028659761,colour,0.06
75,78,1,2,13,34,634,1171.7642025001378,1172.3930545162375,"[91, 0, 163]",163,l,0.10555402393038094,colour,0.06
75,78,1,2,13,35,635,1172.9049219002309,1173.6010755949055,"[70, 0, 184]",184,l,0.17354493395214377,colour,0.06
75,78,1,2,13,36,636,1174.1078981985456,1175.0410577142711,"[62, 0, 192]",192,l,0.4101958992687287,colour,0.06
75,78,1,2,13,37,637,1175.561066300127,1176.3451324505922,"[74, 0, 180]",180,l,0.2607980906323064,colour,0.06
75,78,1,2,13,38,638,1176.857962395531,1179.1051034634866,"[58, 0, 196]",196,a,1.7242593715782277,colour,0.06
75,78,1,2,13,39,639,1179.6239246020168,1180.4972005387817,"[67, 0, 187]",187,l,0.3602297700726922,colour,0.06
75,78,1,2,13,40,640,1181.0045237213772,1181.8811130890963,"[65, 0, 189]",189,l,0.3533315478962322,colour,0.06
75,78,1,2,13,41,641,1182.3952691153418,1183.897056390947,"[32, 0, 222]",222,a,0.9784010618095635,colour,0.06
75,78,1,2,13,42,642,1184.410891826109,1187.4331264326165,"[56, 0, 198]",198,a,2.49935133474537,colour,0.06
75,78,1,2,13,43,643,1187.9421124353112,1188.9850633699089,"[94, 0, 160]",160,l,0.5201302844361635,colour,0.06
75,78,1,2,13,44,644,1189.5046631430532,1190.1131186344546,"[84, 0, 170]",170,l,0.08541349948427523,colour,0.06
75,78,1,2,13,45,645,1190.6295573952566,1191.2730727119479,"[80, 0, 174]",174,l,0.12039455546437239,colour,0.06
75,78,1,2,13,46,646,1191.7858483060654,1192.3771328759458,"[83, 0, 171]",171,l,0.06843083660896809,colour,0.06
75,78,1,2,13,47,647,1192.8951923152663,1194.7530944522778,"[59, 0, 195]",195,l,1.3349499421055953,colour,0.06
75,78,1,2,13,48,648,1195.271125140799,1196.4171634384375,"[53, 0, 201]",201,l,0.6229399856638338,colour,0.06
75,78,1,2,13,49,649,1196.9272971099535,1197.7930903562728,"[69, 0, 185]",185,l,0.3424984049215709,colour,0.06
75,78,1,2,13,50,650,1198.30226855608,1200.0810484982621,"[52, 0, 202]",202,l,1.2561782706980011,colour,0.06
75,78,1,2,14,1,651,1210.3549549833397,1212.5451371767494,"[60, 0, 194]",194,l,1.666226083667425,colour,0.06
75,78,1,2,14,2,652,1213.0485317400917,1215.6891566170152,"[61, 0, 193]",193,l,2.117100029145149,colour,0.06
75,78,1,2,14,3,653,1216.2051991681956,1216.9931258024617,"[77, 0, 177]",177,l,0.2646121005400346,colour,0.06
75,78,1,2,14,4,654,1217.5033851110247,1218.5531791292842,"[57, 0, 197]",197,l,0.5248670767923613,colour,0.06
75,78,1,2,14,5,655,1219.0677739005778,1220.1211109623246,"[59, 0, 195]",195,l,0.5304218884157308,colour,0.06
75,78,1,2,14,6,656,1220.6303356360231,1221.5371279134788,"[89, 0, 165]",165,l,0.3837782486425567,colour,0.06
75,78,1,2,14,7,657,1222.052005860437,1222.9051345773632,"[81, 0, 173]",173,l,0.3306696178897255,colour,0.06
75,78,1,2,14,8,658,1223.4004990035673,1224.1451100013392,"[87, 0, 167]",167,l,0.22028939843949047,colour,0.06
75,78,1,2,14,9,659,1224.6534418249275,1225.36118327255,"[79, 0, 175]",175,l,0.18533157940328238,colour,0.06
75,78,1,2,14,10,660,1225.8721097571533,1228.1851169330375,"[55, 0, 199]",199,a,1.790077824076434,colour,0.06
75,78,1,2,14,11,661,1228.7028971351601,1229.561134829425,"[76, 0, 178]",178,l,0.3448890534291422,colour,0.06
75,78,1,2,14,12,662,1230.0683378888252,1232.1131316313904,"[62, 0, 192]",192,a,1.5217549014196265,colour,0.06
75,78,1,2,14,13,663,1232.6308110087984,1233.8651831780253,"[94, 0, 160]",160,l,0.7113904358302534,colour,0.06
75,78,1,2,14,14,664,1234.3808980488839,1235.049198522288,"[82, 0, 172]",172,l,0.14495285656994383,colour,0.06
75,78,1,2,14,15,665,1235.5683603380776,1236.2171409891844,"[96, 0, 158]",158,l,0.1255630036303046,colour,0.06
75,78,1,2,14,16,666,1236.7245200979878,1238.4491374760737,"[44, 0, 210]",210,a,1.2014741676048288,colour,0.06
75,78,1,2,14,17,667,1238.9590738304714,1239.5851318992072,"[99, 0, 155]",155,l,0.10277583042625338,colour,0.06
75,78,1,2,14,18,668,1240.0996254519387,1241.5131056375185,"[21, 0, 233]",233,a,0.8901388702906843,colour,0.06
75,78,1,2,14,19,669,1242.0214540026618,1242.9211700393053,"[70, 0, 184]",184,l,0.37648499838542193,colour,0.06
75,78,1,2,14,20,670,1243.4276917441885,1244.9691086465073,"[51, 0, 203]",203,a,1.0179381345860747,colour,0.06
75,78,1,2,14,21,671,1245.4902897135153,1246.2331713311223,"[91, 0, 163]",163,l,0.21970571786368964,colour,0.06
75,78,1,2,14,22,672,1246.7402664765696,1248.2171728907551,"[16, 0, 238]",238,a,0.9536808897792071,colour,0.06
75,78,1,2,14,23,673,1248.7245929595983,1249.8331059525963,"[73, 0, 181]",181,l,0.5851232345830795,colour,0.06
75,78,1,2,14,24,674,1250.3495864611314,1251.2411427851248,"[84, 0, 170]",170,l,0.3683036241764057,colour,0.06
75,78,1,2,14,25,675,1251.7558568919203,1252.353116507683,"[88, 0, 166]",166,l,0.07433183934153931,colour,0.06
75,78,1,2,14,26,676,1252.8652099595902,1253.5531358061644,"[98, 0, 156]",156,l,0.16463730671966914,colour,0.06
75,78,1,2,14,27,677,1254.0683516734543,1256.3211869747074,"[64, 0, 190]",190,a,1.7301647066251462,colour,0.06
75,78,1,2,14,28,678,1256.8339598118991,1258.705127488126,"[97, 0, 157]",157,l,1.3478633825125144,colour,0.06
75,78,1,2,14,29,679,1259.2245614518752,1260.0011248257224,"[95, 0, 159]",159,l,0.253174796971507,colour,0.06
75,78,1,2,14,30,680,1260.5214595165135,1261.2331193433793,"[93, 0, 161]",161,l,0.18842130552366143,colour,0.06
75,78,1,2,14,31,681,1261.7402676581087,1262.4811272675715,"[92, 0, 162]",162,l,0.21766677431878634,colour,0.06
75,78,1,2,14,32,682,1262.9902578119463,1263.7931707009675,"[83, 0, 171]",171,l,0.27967200460079766,colour,0.06
75,78,1,2,14,33,683,1264.3026690980123,1265.9611127740181,"[52, 0, 202]",202,a,1.135091726859173,colour,0.06
75,78,1,2,14,34,684,1266.47462367963,1267.7131690468113,"[67, 0, 187]",187,l,0.7152591904086876,colour,0.06
75,78,1,2,14,35,685,1268.224587051901,1270.1771427221092,"[53, 0, 201]",201,a,1.4291288902186352,colour,0.06
75,78,1,2,14,36,686,1270.693316818034,1272.5611675186874,"[72, 0, 182]",182,l,1.3453151953872293,colour,0.06
75,78,1,2,14,37,687,1273.0683721534742,1273.8971847849198,"[78, 0, 176]",176,l,0.30595023355090234,colour,0.06
75,78,1,2,14,38,688,1274.4119686025542,1275.1531472277138,"[65, 0, 189]",189,l,0.2181933471438242,colour,0.06
75,78,1,2,14,39,689,1275.6620331933855,1277.785172859246,"[58, 0, 196]",196,a,1.5998341906051792,colour,0.06
75,78,1,2,14,40,690,1278.3026954857314,1279.081146172205,"[71, 0, 183]",183,l,0.2551818389474647,colour,0.06
75,78,1,2,14,41,691,1279.5995758272738,1280.1772459099038,"[85, 0, 169]",169,l,0.054431167440270656,colour,0.06
75,78,1,2,14,42,692,1280.6933963750353,1281.3291997825954,"[68, 0, 186]",186,l,0.11338487471584813,colour,0.06
75,78,1,2,14,43,693,1281.849542744164,1283.6331764511278,"[56, 0, 198]",198,a,1.260390853309218,colour,0.06
75,78,1,2,14,44,694,1284.1464545934314,1284.681161926067,"[74, 0, 180]",180,l,0.011520011343236547,colour,0.06
75,78,1,2,14,45,695,1285.1933144549557,1287.40919828598,"[63, 0, 191]",191,a,1.692574811151644,colour,0.06
75,78,1,2,14,46,696,1287.9276724457077,1290.297152095657,"[69, 0, 185]",185,l,1.8461150977127545,colour,0.06
75,78,1,2,14,47,697,1290.8182311564115,1291.609204587524,"[90, 0, 164]",164,l,0.2681685348125029,colour,0.06
75,78,1,2,14,48,698,1292.1307531133561,1293.0171457153438,"[75, 0, 179]",179,l,0.36302647436605184,colour,0.06
75,78,1,2,14,49,699,1293.5370231502993,1294.2811749230032,"[66, 0, 188]",188,l,0.2209443652373011,colour,0.06
75,78,1,2,14,50,700,1294.802660433389,1296.9611683063804,"[54, 0, 200]",200,a,1.635184674643824,colour,0.06
75,78,1,2,15,1,701,1304.9111911494792,1306.585207123896,"[68, 0, 186]",186,l,1.1498905106618622,colour,0.06
75,78,1,2,15,2,702,1307.099556528793,1307.8891585862484,"[85, 0, 169]",169,l,0.2663619607264991,colour,0.06
75,78,1,2,15,3,703,1308.3963521933301,1308.969148425008,"[95, 0, 159]",159,l,0.049601821147007286,colour,0.06
75,78,1,2,15,4,704,1309.490137688751,1311.513241908423,"[56, 0, 198]",198,a,1.4997770828576904,colour,0.06
75,78,1,2,15,5,705,1312.0214221010929,1312.6972548896038,"[99, 0, 155]",155,l,0.15264310414022475,colour,0.06
75,78,1,2,15,6,706,1313.20886233488,1313.8891956078232,"[84, 0, 170]",170,l,0.15701795152563136,colour,0.06
75,78,1,2,15,7,707,1314.396359676416,1315.3292958811517,"[66, 0, 188]",188,l,0.40972682803840144,colour,0.06
75,78,1,2,15,8,708,1315.8495258087632,1316.4972135357175,"[98, 0, 156]",156,l,0.12444723637963762,colour,0.06
75,78,1,2,15,9,709,1317.00573046718,1317.6891963955159,"[97, 0, 157]",157,l,0.16035068096061877,colour,0.06
75,78,1,2,15,10,710,1318.2089292887913,1319.529179696422,"[36, 0, 218]",218,l,0.7970567847933125,colour,0.06
75,78,1,2,15,11,711,1320.0369546210013,1321.945200586043,"[48, 0, 206]",206,a,1.3849148897625128,colour,0.06
75,78,1,2,15,12,712,1322.4588698179641,1323.2732381274955,"[74, 0, 180]",180,l,0.2910600773520855,colour,0.06
75,78,1,2,15,13,713,1323.786925870204,1324.4892153001501,"[76, 0, 178]",178,l,0.17894772080944676,colour,0.06
75,78,1,2,15,14,714,1325.0056607563429,1325.6571967578557,"[96, 0, 158]",158,l,0.1283384402104275,colour,0.06
75,78,1,2,15,15,715,1326.1776921380342,1326.8412365206013,"[94, 0, 160]",160,l,0.14028577505087014,colour,0.06
75,78,1,2,15,16,716,1327.3495195072182,1327.9452667522628,"[83, 0, 171]",171,l,0.07250714831570804,colour,0.06
75,78,1,2,15,17,717,1328.4588780887416,1329.1212519593855,"[88, 0, 166]",166,l,0.13908572463697055,colour,0.06
75,78,1,2,15,18,718,1329.6307984057084,1330.3372366151243,"[54, 0, 200]",200,l,0.1832398604201444,colour,0.06
75,78,1,2,15,19,719,1330.8494407379103,1331.6732487613526,"[71, 0, 183]",183,l,0.30044425889900594,colour,0.06
75,78,1,2,15,20,720,1332.1932018148445,1332.9052267374545,"[92, 0, 162]",162,l,0.1887178719698568,colour,0.06
75,78,1,2,15,21,721,1333.4118977101762,1334.1771994360106,"[78, 0, 176]",176,l,0.2418855797022843,colour,0.06
75,78,1,2,15,22,722,1334.6931510086406,1335.7292348349392,"[82, 0, 172]",172,l,0.5134258347588911,colour,0.06
75,78,1,2,15,23,723,1336.2401002733286,1337.001253613541,"[73, 0, 181]",181,l,0.23839334241711185,colour,0.06
75,78,1,2,15,24,724,1337.5084610052536,1338.3452135829784,"[89, 0, 165]",165,l,0.31350027175358264,colour,0.06
75,78,1,2,15,25,725,1338.852267768386,1339.6012236812048,"[77, 0, 177]",177,l,0.225648468331201,colour,0.06
75,78,1,2,15,26,726,1340.1178203744685,1340.8731873212919,"[70, 0, 184]",184,l,0.23195119453703228,colour,0.06
75,78,1,2,15,27,727,1341.3835324884012,1342.0412006805664,"[80, 0, 174]",174,l,0.13441352311565424,colour,0.06
75,78,1,2,15,28,728,1342.5553795499118,1344.4492304238565,"[57, 0, 197]",197,a,1.3706670972715074,colour,0.06
75,78,1,2,15,29,729,1344.9616350145325,1345.577209676022,"[81, 0, 173]",173,l,0.09232944475479599,colour,0.06
75,78,1,2,15,30,730,1346.0865611683066,1348.8892058478332,"[62, 0, 192]",192,a,2.279272250360009,colour,0.06
75,78,1,2,15,31,731,1349.3991650453308,1352.129237198017,"[75, 0, 179]",179,l,2.2068596252156567,colour,0.06
75,78,1,2,15,32,732,1352.6490413775182,1354.7613569588748,"[64, 0, 190]",190,a,1.5889789922257478,colour,0.06
75,78,1,2,15,33,733,1355.2740655990792,1357.3932723133757,"[90, 0, 164]",164,l,1.5959425929286226,colour,0.06
75,78,1,2,15,34,734,1357.8991020298845,1359.2812568430827,"[4, 0, 250]",250,a,0.8588832087461924,colour,0.06
75,78,1,2,15,35,735,1359.789673737524,1360.617252447756,"[86, 0, 168]",168,l,0.3044772474859201,colour,0.06
75,78,1,2,15,36,736,1361.1334269375284,1362.9612596787783,"[58, 0, 196]",196,a,1.3045493214031012,colour,0.06
75,78,1,2,15,37,737,1363.4771238174753,1364.2893263648757,"[63, 0, 191]",191,l,0.28881948437629035,colour,0.06
75,78,1,2,15,38,738,1364.8053732483668,1365.4332485250443,"[91, 0, 163]",163,l,0.1046454199586151,colour,0.06
75,78,1,2,15,39,739,1365.9459142359765,1367.67326727214,"[55, 0, 199]",199,a,1.2043208904087805,colour,0.06
75,78,1,2,15,40,740,1368.1804226761078,1369.8732534875116,"[87, 0, 167]",167,l,1.1697009917061223,colour,0.06
75,78,1,2,15,41,741,1370.3834155159775,1372.369282332832,"[61, 0, 193]",193,a,1.462488086142912,colour,0.06
75,78,1,2,15,42,742,1372.883458051404,1375.0332335588764,"[50, 0, 204]",204,a,1.626487361465479,colour,0.06
75,78,1,2,15,43,743,1375.5396505005783,1377.121251171694,"[69, 0, 185]",185,l,1.058466125259656,colour,0.06
75,78,1,2,15,44,744,1377.6335273683953,1378.3932805841532,"[72, 0, 182]",182,l,0.2365509282972198,colour,0.06
75,78,1,2,15,45,745,1378.8990118390275,1380.5132474222746,"[51, 0, 203]",203,l,1.0909222310619953,colour,0.06
75,78,1,2,15,46,746,1381.0240557529169,1383.3772360637404,"[59, 0, 195]",195,a,1.8299579371905565,colour,0.06
75,78,1,2,15,47,747,1383.8833875528735,1385.6012796074128,"[52, 0, 202]",202,l,1.1945810654324305,colour,0.06
75,78,1,2,15,48,748,1386.1177609036413,1387.081284412342,"[93, 0, 161]",161,l,0.44011523949848197,colour,0.06
75,78,1,2,15,49,749,1387.6020716328085,1389.3372330705051,"[53, 0, 201]",201,a,1.2117732546685147,colour,0.06
75,78,1,2,15,50,750,1389.852041700472,1390.6333020881748,"[65, 0, 189]",189,l,0.2578639338971698,colour,0.06
75,78,1,2,16,1,751,1397.320084992084,1401.7132458468886,"[72, 0, 182]",182,l,3.86893929249527,colour,0.06
75,78,1,2,16,2,752,1402.2271884083084,1403.0092872952982,"[69, 0, 185]",185,l,0.2588595779543539,colour,0.06
75,78,1,2,16,3,753,1403.5240041590196,1405.0172729277756,"[1, 0, 253]",253,a,0.9700007089231804,colour,0.06
75,78,1,2,16,4,754,1405.523995888242,1407.257275527164,"[64, 0, 190]",190,l,1.209976920594272,colour,0.06
75,78,1,2,16,5,755,1407.7740463005985,1408.3933168180347,"[86, 0, 168]",168,l,0.09602608839486493,colour,0.06
75,78,1,2,16,6,756,1408.914671177522,1412.0493221901006,"[52, 0, 202]",202,a,2.6113754696616525,colour,0.06
75,78,1,2,16,7,757,1412.5552113774384,1413.809308169165,"[66, 0, 188]",188,l,0.7309409781573777,colour,0.06
75,78,1,2,16,8,758,1414.3209167959785,1415.0173493340053,"[98, 0, 156]",156,l,0.17320228746029898,colour,0.06
75,78,1,2,16,9,759,1415.52406441754,1416.8492627192745,"[58, 0, 196]",196,a,0.8020310666161095,colour,0.06
75,78,1,2,16,10,760,1417.3676703189367,1418.9933140611092,"[62, 0, 192]",192,a,1.102255559144396,colour,0.06
75,78,1,2,16,11,761,1419.5084141375146,1420.337323261364,"[70, 0, 184]",184,l,0.30644136018781865,colour,0.06
75,78,1,2,16,12,762,1420.8521208636257,1421.5692606712719,"[63, 0, 191]",191,l,0.19384969240672945,colour,0.06
75,78,1,2,16,13,763,1422.0865032728643,1422.8013189920684,"[55, 0, 199]",199,l,0.19159019479775452,colour,0.06
75,78,1,2,16,14,764,1423.3208986790387,1423.9452828999702,"[73, 0, 181]",181,l,0.10115278882767598,colour,0.06
75,78,1,2,16,15,765,1424.461512528259,1425.1452872322816,"[79, 0, 175]",175,l,0.1605539057745773,colour,0.06
75,78,1,2,16,16,766,1425.6645931959074,1426.3213236394558,"[68, 0, 186]",186,l,0.13347971296389005,colour,0.06
75,78,1,2,16,17,767,1426.8364776728386,1427.5693051759308,"[60, 0, 194]",194,l,0.2095858309767209,colour,0.06
75,78,1,2,16,18,768,1428.0864863374636,1428.8733235921945,"[87, 0, 167]",167,l,0.26357943490802427,colour,0.06
75,78,1,2,16,19,769,1429.3834005498093,1430.081294652352,"[77, 0, 177]",177,l,0.17469654124033696,colour,0.06
75,78,1,2,16,20,770,1430.6021169251608,1431.2733098075669,"[80, 0, 174]",174,l,0.14794884721231938,colour,0.06
75,78,1,2,16,21,771,1431.7895866974386,1432.5453289800162,"[75, 0, 179]",179,l,0.23281490000226768,colour,0.06
75,78,1,2,16,22,772,1433.0552338266907,1433.7853642686669,"[71, 0, 183]",183,l,0.20725504714391718,colour,0.06
75,78,1,2,16,23,773,1434.3051944420376,1435.0572763148566,"[83, 0, 171]",171,l,0.22887446535423805,colour,0.06
75,78,1,2,16,24,774,1435.5708195158832,1436.2654116090207,"[96, 0, 158]",158,l,0.1713086732888769,colour,0.06
75,78,1,2,16,25,775,1436.7739734389897,1437.5373401967654,"[95, 0, 159]",159,l,0.24006088867463404,colour,0.06
75,78,1,2,16,26,776,1438.0551416666012,1440.145334887714,"[24, 0, 230]",230,a,1.5672170015677693,colour,0.06
75,78,1,2,16,27,777,1440.664568383575,1441.801428875252,"[28, 0, 226]",226,a,0.6135735272109741,colour,0.06
75,78,1,2,16,28,778,1442.3208250297348,1443.2573464195402,"[65, 0, 189]",189,l,0.4132623884415807,colour,0.06
75,78,1,2,16,29,779,1443.7740167621077,1445.2653663166684,"[88, 0, 166]",166,l,0.9681173347617005,colour,0.06
75,78,1,2,16,30,780,1445.7739218450924,1446.6893685064542,"[89, 0, 165]",165,l,0.3921321276375238,colour,0.06
75,78,1,2,16,31,781,1447.1832560081284,1448.2333355651308,"[74, 0, 180]",180,l,0.5267457247973653,colour,0.06
75,78,1,2,16,32,782,1448.7464396272635,1451.1373331075274,"[51, 0, 203]",203,a,1.867576583459595,colour,0.06
75,78,1,2,16,33,783,1451.6528494797285,1453.089324001795,"[56, 0, 198]",198,a,0.9132623884415807,colour,0.06
75,78,1,2,16,34,784,1453.6059179381346,1455.6093105322443,"[67, 0, 187]",187,l,1.4803100359986274,colour,0.06
75,78,1,2,16,35,785,1456.1215745197032,1456.9613707435028,"[90, 0, 164]",164,l,0.316539585515784,colour,0.06
75,78,1,2,16,36,786,1457.4809468858557,1458.0813253723818,"[76, 0, 178]",178,l,0.07708955282760144,colour,0.06
75,78,1,2,16,37,787,1458.5902696273415,1461.393347931912,"[50, 0, 204]",204,l,2.2798760171099275,colour,0.06
75,78,1,2,16,38,788,1461.9028746859067,1462.7453565492733,"[85, 0, 169]",169,l,0.3193571636747947,colour,0.06
75,78,1,2,16,39,789,1463.2621269288638,1464.049363543988,"[91, 0, 163]",163,l,0.26397052452375647,colour,0.06
75,78,1,2,16,40,790,1464.5590387781294,1466.601356801336,"[54, 0, 200]",200,l,1.5190440556743852,colour,0.06
75,78,1,2,16,41,791,1467.1215465565992,1468.4813383693172,"[57, 0, 197]",197,a,0.8365619559990591,colour,0.06
75,78,1,2,16,42,792,1468.9965243042689,1471.2733736107066,"[59, 0, 195]",195,a,1.7543228596423432,colour,0.06
75,78,1,2,16,43,793,1471.793409765819,1472.3693843390856,"[99, 0, 155]",155,l,0.05262341181332886,colour,0.06
75,78,1,2,16,44,794,1472.8871936858513,1473.7053933345405,"[94, 0, 160]",160,l,0.2950296566450561,colour,0.06
75,78,1,2,16,45,795,1474.2153194489301,1476.0173367309153,"[53, 0, 201]",201,a,1.2787586744689179,colour,0.06
75,78,1,2,16,46,796,1476.5278827597604,1477.3373185352057,"[82, 0, 172]",172,l,0.2862350633695314,colour,0.06
75,78,1,2,16,47,797,1477.855912424283,1478.5293565335205,"[84, 0, 170]",170,l,0.15034422187818564,colour,0.06
75,78,1,2,16,48,798,1479.0434105535123,1479.857427158081,"[97, 0, 157]",157,l,0.2907146739344171,colour,0.06
75,78,1,2,16,49,799,1480.37157845817,1481.417397383283,"[93, 0, 161]",161,l,0.5225973391734442,colour,0.06
75,78,1,2,16,50,800,1481.9340381873599,1482.8333588020769,"[78, 0, 176]",176,l,0.37605058564986393,colour,0.06
