id,age,condition,counterbalance,block,trialinblock,trial,tstart,tend,trialstim,trialintensity,response,RT,trialtype,colourfreq
80,74,1,1,Practice,1,NA,5.5138953030109406e-06,2.576820556074381,"[89, 0, 165]",165,a,1.9431360429152846,colour,0.5
80,74,1,1,Practice,2,NA,3.0947267888113856,4.360878041479737,"[55, 0, 199]",199,a,0.7497597532346845,colour,0.5
80,74,1,1,Practice,3,NA,4.868917237501591,5.880848424509168,"[23, 0, 231]",231,a,0.4886075952090323,colour,0.5
80,74,1,1,Practice,4,NA,6.4001004309393466,7.464991768822074,"[84, 0, 170]",170,a,0.5418198071420193,colour,0.5
80,74,1,1,Practice,5,NA,7.970556032843888,8.792866257950664,"[35, 0, 219]",219,a,0.29668538784608245,colour,0.5
80,74,1,1,Practice,6,NA,9.301414696965367,9.992869014851749,"[48, 0, 206]",206,a,0.16848085541278124,colour,0.5
80,74,1,1,Practice,7,NA,10.50411530258134,11.200913724023849,"[60, 0, 194]",194,a,0.1735626570880413,colour,0.5
80,74,1,1,Practice,8,NA,11.707299551926553,12.48089647386223,"[71, 0, 183]",183,a,0.25032964954152703,colour,0.5
80,74,1,1,Practice,9,NA,12.9885244932957,13.696865375619382,"[6, 0, 248]",248,a,0.18497751140967011,colour,0.5
80,74,1,1,Practice,10,NA,14.207340118009597,14.79287374066189,"[21, 0, 233]",233,a,0.0626251446083188,colour,0.5
80,74,1,1,1,1,1,4.838171212933958,5.439978574868292,"[82, 0, 172]",172,a,0.0779969752766192,colour,0.5
80,74,1,1,1,2,2,5.94845769694075,6.527998550795019,"[22, 0, 232]",232,a,0.05636101542040706,colour,0.5
80,74,1,1,1,3,3,7.042049420066178,45.40002166153863,"[35, 0, 219]",219,l,37.83466400951147,colour,0.5
80,74,1,1,1,4,4,45.91700117383152,46.92003851849586,"[11, 0, 243]",243,a,0.4796022940427065,colour,0.5
80,74,1,1,1,5,5,47.43263136781752,48.280011106748134,"[17, 0, 237]",237,a,0.3240230637602508,colour,0.5
80,74,1,1,1,6,6,48.791963561438024,49.49604302411899,"[67, 0, 187]",187,a,0.18083621514961123,colour,0.5
80,74,1,1,1,7,7,50.010729561559856,51.44815798010677,"[97, 0, 157]",157,l,0.9140355093404651,colour,0.5
80,74,1,1,1,8,8,51.965903129894286,52.55200901115313,"[16, 0, 238]",238,a,0.06278662150725722,colour,0.5
80,74,1,1,1,9,9,53.05968035431579,156.60014296649024,"[42, 0, 212]",212,l,103.01713389996439,colour,0.5
80,74,1,1,1,10,10,157.1065161912702,158.2481757029891,"[98, 0, 156]",156,l,0.6184170520864427,colour,0.5
80,74,1,1,1,11,11,158.76262790197507,160.1601927485317,"[81, 0, 173]",173,a,0.8741766638122499,colour,0.5
80,74,1,1,1,12,12,160.65654139732942,161.39211243530735,"[84, 0, 170]",170,a,0.2123522087931633,colour,0.5
80,74,1,1,1,13,13,161.90647523105145,162.87213299423456,"[89, 0, 165]",165,l,0.4423613464459777,colour,0.5
80,74,1,1,1,14,14,163.3908450375311,164.04812568426132,"[90, 0, 164]",164,l,0.1340240086428821,colour,0.5
80,74,1,1,1,15,15,164.56310091167688,165.1041921027936,"[33, 0, 221]",221,a,0.0175722511485219,colour,0.5
80,74,1,1,1,16,16,165.62565870862454,166.19213961111382,"[94, 0, 160]",160,l,0.04342985199764371,colour,0.5
80,74,1,1,1,17,17,166.70377974538133,167.27212866209447,"[79, 0, 175]",175,a,0.04528880771249533,colour,0.5
80,74,1,1,1,18,18,167.78193544084206,168.34413759456947,"[73, 0, 181]",181,a,0.038845872040838,colour,0.5
80,74,1,1,1,19,19,168.85991587443277,169.5361184850335,"[15, 0, 239]",239,a,0.15273171989247203,colour,0.5
80,74,1,1,1,20,20,170.04756248369813,170.76011082855985,"[45, 0, 209]",209,a,0.18925350345671177,colour,0.5
80,74,1,1,1,21,21,171.26221948303282,171.90415941365063,"[47, 0, 207]",207,a,0.11864823987707496,colour,0.5
80,74,1,1,1,22,22,172.41891960054636,173.2241301899776,"[39, 0, 215]",215,a,0.2818035017699003,colour,0.5
80,74,1,1,1,23,23,173.73146873246878,174.40024024667218,"[87, 0, 167]",167,l,0.14562830328941345,colour,0.5
80,74,1,1,1,24,24,174.91921616671607,175.52020511543378,"[63, 0, 191]",191,a,0.07819665549322963,colour,0.5
80,74,1,1,1,25,25,176.0287468591705,176.7521472517401,"[69, 0, 185]",185,a,0.20008585881441832,colour,0.5
80,74,1,1,1,26,26,177.26311981631443,177.9441360188648,"[41, 0, 213]",213,a,0.1577130905352533,colour,0.5
80,74,1,1,1,27,27,178.45053366245702,179.02415106398985,"[57, 0, 197]",197,a,0.050117759965360165,colour,0.5
80,74,1,1,1,28,28,179.5445759454742,180.15212165145203,"[31, 0, 223]",223,a,0.08428040286526084,colour,0.5
80,74,1,1,1,29,29,180.66949697956443,181.4241538210772,"[66, 0, 188]",188,a,0.2312714154832065,colour,0.5
80,74,1,1,1,30,30,181.93516104388982,195.36819846741855,"[99, 0, 155]",155,l,12.90973470499739,colour,0.5
80,74,1,1,1,31,31,195.88974581146613,196.4401215412654,"[30, 0, 224]",224,a,0.02703008195385337,colour,0.5
80,74,1,1,1,32,32,196.9522457132116,197.5761525919661,"[65, 0, 189]",189,l,0.10091254254803061,colour,0.5
80,74,1,1,1,33,33,198.09287964832038,204.87221924681216,"[37, 0, 217]",217,l,6.255957323126495,colour,0.5
80,74,1,1,1,34,34,205.39053074782714,211.52023504767567,"[12, 0, 242]",242,l,5.606550849508494,colour,0.5
80,74,1,1,1,35,35,212.03092246735469,217.14421912049875,"[27, 0, 227]",227,l,4.589937220793217,colour,0.5
80,74,1,1,1,36,36,217.65601285547018,221.2881574286148,"[23, 0, 231]",231,l,3.1088544582016766,colour,0.5
80,74,1,1,1,37,37,221.7967216214165,225.14423251152039,"[24, 0, 230]",230,l,2.8242156547494233,colour,0.5
80,74,1,1,1,38,38,225.65594078134745,226.5922010508366,"[74, 0, 180]",180,l,0.4128449112176895,colour,0.5
80,74,1,1,1,39,39,227.09658495662734,231.3601821148768,"[28, 0, 226]",226,l,3.7403180706314743,colour,0.5
80,74,1,1,1,40,40,231.87780911056325,232.58426110446453,"[77, 0, 177]",177,l,0.18306577997282147,colour,0.5
80,74,1,1,1,41,41,233.09660149831325,236.51229864591733,"[32, 0, 222]",222,l,2.89233889663592,colour,0.5
80,74,1,1,1,42,42,237.0060782339424,239.8962230118923,"[20, 0, 234]",234,l,2.366897985804826,colour,0.5
80,74,1,1,1,43,43,240.41232779063284,242.5522476825863,"[25, 0, 229]",229,l,1.616645924281329,colour,0.5
80,74,1,1,1,44,44,243.0686419387348,243.60025915130973,"[62, 0, 192]",192,a,0.006144400220364332,colour,0.5
80,74,1,1,1,45,45,244.11780580226332,244.78423038451,"[51, 0, 203]",203,a,0.14303915621712804,colour,0.5
80,74,1,1,1,46,46,245.30542405461892,245.88022063300014,"[50, 0, 204]",204,a,0.05086528090760112,colour,0.5
80,74,1,1,1,47,47,246.39977787062526,246.96025733929127,"[6, 0, 248]",248,a,0.03712436882779002,colour,0.5
80,74,1,1,1,48,48,247.47788472939283,251.99224279867485,"[85, 0, 169]",169,l,3.991062440443784,colour,0.5
80,74,1,1,1,49,49,252.50913487700745,253.19223767891526,"[92, 0, 162]",162,l,0.15990287763997912,colour,0.5
80,74,1,1,1,50,50,253.7122919508256,257.74419864080846,"[10, 0, 244]",244,l,3.508596488740295,colour,0.5
80,74,1,1,2,1,51,265.0551605713554,265.7122446889989,"[57, 0, 197]",197,a,0.1327006844803691,colour,0.5
80,74,1,1,2,2,52,266.22805368946865,266.7523323595524,"[23, 0, 231]",231,a,0.0009621670469641685,colour,0.5
80,74,1,1,2,3,53,267.27495844941586,273.11219624616206,"[26, 0, 228]",228,l,5.3140914356336,colour,0.5
80,74,1,1,2,4,54,273.6123529970646,278.192301875446,"[1, 0, 253]",253,l,4.056570147629827,colour,0.5
80,74,1,1,2,5,55,278.7060234891251,279.2324478351511,"[37, 0, 217]",217,a,0.002872716635465622,colour,0.5
80,74,1,1,2,6,56,279.7532271789387,283.520258678589,"[34, 0, 220]",220,l,3.243788252584636,colour,0.5
80,74,1,1,2,7,57,284.0344332153909,287.7842299910262,"[97, 0, 157]",157,l,3.2264101677574217,colour,0.5
80,74,1,1,2,8,58,288.30005907732993,288.9522634362802,"[75, 0, 179]",179,l,0.1289776531048119,colour,0.5
80,74,1,1,2,9,59,289.4718702984974,294.2562511325814,"[91, 0, 163]",163,l,4.261052121873945,colour,0.5
80,74,1,1,2,10,60,294.7687246464193,295.41625759145245,"[61, 0, 193]",193,a,0.12452049180865288,colour,0.5
80,74,1,1,2,11,61,295.9249253664166,298.10427796142176,"[12, 0, 242]",242,l,1.656814333051443,colour,0.5
80,74,1,1,2,12,62,298.6123092798516,299.19229084812105,"[42, 0, 212]",212,a,0.057546887546777725,colour,0.5
80,74,1,1,2,13,63,299.70608965540305,300.2723173145205,"[96, 0, 158]",158,l,0.043726418633013964,colour,0.5
80,74,1,1,2,14,64,300.78418627381325,301.35234614415094,"[40, 0, 214]",214,a,0.044706308748573065,colour,0.5
80,74,1,1,2,15,65,301.862442006357,306.69639906147495,"[82, 0, 172]",172,l,4.311786251608282,colour,0.5
80,74,1,1,2,16,66,307.20611840626225,308.1363512482494,"[76, 0, 178]",178,a,0.4067343818023801,colour,0.5
80,74,1,1,2,17,67,308.64361889846623,314.0163143053651,"[10, 0, 244]",244,l,4.849917686078697,colour,0.5
80,74,1,1,2,18,68,314.5343654737808,318.6243145102635,"[78, 0, 176]",176,l,3.56674989964813,colour,0.5
80,74,1,1,2,19,69,319.14368664007634,319.68030412867665,"[85, 0, 169]",169,l,0.013321071863174438,colour,0.5
80,74,1,1,2,20,70,320.1906347232871,321.00834875926375,"[62, 0, 192]",192,a,0.2945420746691525,colour,0.5
80,74,1,1,2,21,71,321.5186789599247,322.0802867989987,"[63, 0, 191]",191,a,0.03832441894337535,colour,0.5
80,74,1,1,2,22,72,322.5968137816526,325.57631367538124,"[18, 0, 236]",236,l,2.4565224926918745,colour,0.5
80,74,1,1,2,23,73,326.09681220632046,326.63242932455614,"[48, 0, 206]",206,a,0.012213575188070536,colour,0.5
80,74,1,1,2,24,74,327.14366222172976,327.70430001663044,"[56, 0, 198]",198,a,0.037255913484841585,colour,0.5
80,74,1,1,2,25,75,328.22253274871036,330.9762522354722,"[31, 0, 223]",223,l,2.231107181403786,colour,0.5
80,74,1,1,2,26,76,331.4765421063639,332.0163068221882,"[81, 0, 173]",173,l,0.019199231173843145,colour,0.5
80,74,1,1,2,27,77,332.5363169834018,335.35229533771053,"[88, 0, 166]",166,l,2.2927331374958158,colour,0.5
80,74,1,1,2,28,78,335.8519097622484,336.400295779109,"[33, 0, 221]",221,a,0.02483635675162077,colour,0.5
80,74,1,1,2,29,79,336.9022019961849,339.08035808522254,"[39, 0, 215]",215,l,1.6548112290911376,colour,0.5
80,74,1,1,2,30,80,339.5897985869087,342.12029215553775,"[43, 0, 211]",211,l,2.007288130465895,colour,0.5
80,74,1,1,2,31,81,342.6366159133613,345.41625956073403,"[93, 0, 161]",161,l,2.2563862213864923,colour,0.5
80,74,1,1,2,32,82,345.9334336332977,349.32030160771683,"[32, 0, 222]",222,l,2.8635215391404927,colour,0.5
80,74,1,1,2,33,83,349.8396540451795,350.3763310047798,"[89, 0, 165]",165,l,0.013349822722375393,colour,0.5
80,74,1,1,2,34,84,350.88651469442993,351.4483017339371,"[21, 0, 233]",233,a,0.03877970576286316,colour,0.5
80,74,1,1,2,35,85,351.9647274976596,354.77632824750617,"[29, 0, 225]",225,l,2.2883102404884994,colour,0.5
80,74,1,1,2,36,86,355.2928315992467,355.8323115641251,"[4, 0, 250]",250,a,0.01624577585607767,colour,0.5
80,74,1,1,2,37,87,356.3396398667246,358.536300836131,"[9, 0, 245]",245,l,1.673359826207161,colour,0.5
80,74,1,1,2,38,88,359.04283396247774,361.5763199767098,"[98, 0, 156]",156,l,2.0102281947620213,colour,0.5
80,74,1,1,2,39,89,362.0897292699665,364.38435680931434,"[67, 0, 187]",187,l,1.771687159780413,colour,0.5
80,74,1,1,2,40,90,364.90214488841593,366.6723366128281,"[65, 0, 189]",189,l,1.2467791228555143,colour,0.5
80,74,1,1,2,41,91,367.1834485991858,367.74433373007923,"[28, 0, 226]",226,a,0.03752727387472987,colour,0.5
80,74,1,1,2,42,92,368.26160902064294,368.8323403149843,"[17, 0, 237]",237,a,0.04774759151041508,colour,0.5
80,74,1,1,2,43,93,369.33964498667046,370.0323131396435,"[59, 0, 195]",195,a,0.1693075387738645,colour,0.5
80,74,1,1,2,44,94,370.5427713408135,374.16034359205514,"[50, 0, 204]",204,l,3.0944188009016216,colour,0.5
80,74,1,1,2,45,95,374.66781407315284,375.3283057510853,"[35, 0, 219]",219,a,0.13718383945524693,colour,0.5
80,74,1,1,2,46,96,375.83961229771376,378.2724220775999,"[16, 0, 238]",238,l,1.918819562997669,colour,0.5
80,74,1,1,2,47,97,378.78446590481326,381.04835096467286,"[53, 0, 201]",201,l,1.7405650122091174,colour,0.5
80,74,1,1,2,48,98,381.5657514985651,382.16034831805155,"[49, 0, 205]",205,a,0.0712870117276907,colour,0.5
80,74,1,1,2,49,99,382.67510023433715,383.64836356788874,"[86, 0, 168]",168,l,0.45009924937039614,colour,0.5
80,74,1,1,2,50,100,384.15225437795743,389.096375036519,"[94, 0, 160]",160,l,4.421529620885849,colour,0.5
80,74,1,1,3,1,101,395.18671791953966,395.8003603699617,"[25, 0, 229]",229,a,0.08951107924804091,colour,0.5
80,74,1,1,3,2,102,396.3125077788718,396.95243279030547,"[61, 0, 193]",193,a,0.11650138255208731,colour,0.5
80,74,1,1,3,3,103,397.4687782092951,400.064426205121,"[32, 0, 222]",222,l,2.072272809688002,colour,0.5
80,74,1,1,3,4,104,400.57819586806,401.2164088287391,"[10, 0, 244]",244,a,0.11494923336431384,colour,0.5
80,74,1,1,3,5,105,401.7344269142486,403.84835569094867,"[50, 0, 204]",204,l,1.591136483475566,colour,0.5
80,74,1,1,3,6,106,404.34694532630965,406.4003324066289,"[34, 0, 220]",220,l,1.5299362754449248,colour,0.5
80,74,1,1,3,7,107,406.9095366001129,407.440350365825,"[26, 0, 228]",228,a,0.007672524079680443,colour,0.5
80,74,1,1,3,8,108,407.9564681421034,408.73638590658084,"[63, 0, 191]",191,a,0.25663040624931455,colour,0.5
80,74,1,1,3,9,109,409.2533638435416,409.8403617874719,"[18, 0, 236]",236,a,0.06373461009934545,colour,0.5
80,74,1,1,3,10,110,410.3470591478981,410.9203961309977,"[91, 0, 163]",163,l,0.04995510168373585,colour,0.5
80,74,1,1,3,11,111,411.4408312528394,412.0723740281537,"[64, 0, 190]",190,a,0.10835269745439291,colour,0.5
80,74,1,1,3,12,112,412.58142462186515,413.1283774310723,"[59, 0, 195]",195,a,0.023619371000677347,colour,0.5
80,74,1,1,3,13,113,413.64375320030376,414.25639961240813,"[85, 0, 169]",169,l,0.0891192015260458,colour,0.5
80,74,1,1,3,14,114,414.76894244365394,419.92034453712404,"[17, 0, 237]",237,l,4.6280922861769795,colour,0.5
80,74,1,1,3,15,115,420.44084503734484,420.9844139171764,"[8, 0, 246]",246,a,0.02035792777314782,colour,0.5
80,74,1,1,3,16,116,421.5032256031409,423.5763652692549,"[55, 0, 199]",199,l,1.5497668427415192,colour,0.5
80,74,1,1,3,17,117,424.0969764403999,426.2644620453939,"[49, 0, 205]",205,l,1.6440241667442024,colour,0.5
80,74,1,1,3,18,118,426.7845816956833,427.3123782030307,"[15, 0, 239]",239,a,0.0045071798376739025,colour,0.5
80,74,1,1,3,19,119,427.8313730279915,430.2004186590202,"[75, 0, 179]",179,l,1.8460292392410338,colour,0.5
80,74,1,1,3,20,120,430.7064508125186,432.8083794792183,"[6, 0, 248]",248,l,1.578744889702648,colour,0.5
80,74,1,1,3,21,121,433.31579167116433,435.040373602882,"[44, 0, 210]",210,l,1.2011744501069188,colour,0.5
80,74,1,1,3,22,122,435.5509637426585,436.3124557910487,"[71, 0, 183]",183,a,0.23898135544732213,colour,0.5
80,74,1,1,3,23,123,436.8319838838652,439.6324667399749,"[52, 0, 202]",202,l,2.2770489868707955,colour,0.5
80,74,1,1,3,24,124,440.1445987885818,442.1363985100761,"[66, 0, 188]",188,l,1.4805144425481558,colour,0.5
80,74,1,1,3,25,125,442.6501063387841,445.0803872300312,"[43, 0, 211]",211,l,1.90708569297567,colour,0.5
80,74,1,1,3,26,126,445.5876147081144,448.8804057408124,"[74, 0, 180]",180,l,2.7694938285276294,colour,0.5
80,74,1,1,3,27,127,449.4000598648563,451.632425385993,"[82, 0, 172]",172,l,1.7093652770854533,colour,0.5
80,74,1,1,3,28,128,452.15010594483465,455.0724417697638,"[94, 0, 160]",160,l,2.399148897267878,colour,0.5
80,74,1,1,3,29,129,455.5752987326123,456.16040778905153,"[48, 0, 206]",206,a,0.06231794459745288,colour,0.5
80,74,1,1,3,30,130,456.67005348438397,458.7204595403746,"[7, 0, 247]",247,l,1.5269623403437436,colour,0.5
80,74,1,1,3,31,131,459.23265578597784,459.78443360934034,"[14, 0, 240]",240,a,0.028532606549561024,colour,0.5
80,74,1,1,3,32,132,460.29512378619984,462.71245894161984,"[20, 0, 234]",234,l,1.8938855323940516,colour,0.5
80,74,1,1,3,33,133,463.23264633398503,465.87246540095657,"[22, 0, 232]",232,l,2.116538404021412,colour,0.5
80,74,1,1,3,34,134,466.388952604495,468.70443195523694,"[16, 0, 238]",238,l,1.7921396107412875,colour,0.5
80,74,1,1,3,35,135,469.2173331864178,470.8484616354108,"[36, 0, 218]",218,l,1.1078978045843542,colour,0.5
80,74,1,1,3,36,136,471.3578048571944,474.7204252756201,"[3, 0, 251]",251,l,2.8396028452552855,colour,0.5
80,74,1,1,3,37,137,475.2328369556926,477.152458390221,"[37, 0, 217]",217,l,1.3963478608056903,colour,0.5
80,74,1,1,3,38,138,477.6735146078281,478.2484439127147,"[81, 0, 173]",173,l,0.05158326355740428,colour,0.5
80,74,1,1,3,39,139,478.76730049727485,480.85647208057344,"[54, 0, 200]",200,l,1.5665825149044394,colour,0.5
80,74,1,1,3,40,140,481.37668113410473,483.6324651646428,"[51, 0, 203]",203,l,1.732506518252194,colour,0.5
80,74,1,1,3,41,141,484.14229439245537,486.1125140800141,"[57, 0, 197]",197,l,1.4471048340201378,colour,0.5
80,74,1,1,3,42,142,486.62668664800003,487.16045150579885,"[40, 0, 214]",214,a,0.010512157808989286,colour,0.5
80,74,1,1,3,43,143,487.6735268170014,488.4324568938464,"[96, 0, 158]",158,l,0.23590817069634795,colour,0.5
80,74,1,1,3,44,144,488.9391550417058,489.5204536328092,"[69, 0, 185]",185,a,0.057928130961954594,colour,0.5
80,74,1,1,3,45,145,490.03295747283846,491.8084487961605,"[76, 0, 178]",178,l,1.2523299963213503,colour,0.5
80,74,1,1,3,46,146,492.32978818938136,495.3845104095526,"[80, 0, 174]",174,l,2.5314443139359355,colour,0.5
80,74,1,1,3,47,147,495.8929473902099,500.18444266775623,"[98, 0, 156]",156,l,3.7690940741449594,colour,0.5
80,74,1,1,3,48,148,500.70463360473514,502.5604652906768,"[24, 0, 230]",230,l,1.3324009673669934,colour,0.5
80,74,1,1,3,49,149,503.081709372811,506.59247083589435,"[84, 0, 170]",170,l,2.9874307815916836,colour,0.5
80,74,1,1,3,50,150,507.1129504623823,509.5364422267303,"[21, 0, 233]",233,l,1.9001961355097592,colour,0.5
80,74,1,1,4,1,151,516.8152233506553,517.5764586110599,"[59, 0, 195]",195,a,0.23745756316930056,colour,0.5
80,74,1,1,4,2,152,518.0972686745226,521.6405279906467,"[31, 0, 223]",223,l,3.019871920812875,colour,0.5
80,74,1,1,4,3,153,522.1598103237338,522.7205174355768,"[55, 0, 199]",199,a,0.03764857864007354,colour,0.5
80,74,1,1,4,4,154,523.2379349051043,526.888495742809,"[46, 0, 208]",208,l,3.1275117564946413,colour,0.5
80,74,1,1,4,5,155,527.409839074593,531.4884831397794,"[19, 0, 235]",235,l,3.5554524115286767,colour,0.5
80,74,1,1,4,6,156,532.0035072034225,532.5445243516006,"[68, 0, 186]",186,a,0.017616755794733763,colour,0.5
80,74,1,1,4,7,157,533.0659673265181,536.160455444362,"[27, 0, 227]",227,l,2.571180673316121,colour,0.5
80,74,1,1,4,8,158,536.6753755328245,540.3045678324997,"[77, 0, 177]",177,l,3.1059076981619,colour,0.5
80,74,1,1,4,9,159,540.8159078559838,544.2804797841236,"[33, 0, 221]",221,l,2.9414165085181594,colour,0.5
80,74,1,1,4,10,160,544.8003347697668,545.3445381363854,"[3, 0, 251]",251,a,0.0207864330150187,colour,0.5
80,74,1,1,4,11,161,545.8628894160502,546.6564972866327,"[66, 0, 188]",188,a,0.2702996386215091,colour,0.5
80,74,1,1,4,12,162,547.17534126807,547.8085149624385,"[91, 0, 163]",163,l,0.10986073594540358,colour,0.5
80,74,1,1,4,13,163,548.3160074991174,548.904498515185,"[4, 0, 250]",250,a,0.06509653152897954,colour,0.5
80,74,1,1,4,14,164,549.4257280253805,550.1765373800881,"[71, 0, 183]",183,a,0.22770867962390184,colour,0.5
80,74,1,1,4,15,165,550.6913353763521,551.256507132668,"[25, 0, 229]",229,a,0.04190566577017307,colour,0.5
80,74,1,1,4,16,166,551.7714520334266,559.5205773003399,"[86, 0, 168]",168,l,7.226341638248414,colour,0.5
80,74,1,1,4,17,167,560.0246756677516,562.7205611527897,"[48, 0, 206]",206,l,2.1729002073407173,colour,0.5
80,74,1,1,4,18,168,563.2277961135842,566.9925685096532,"[10, 0, 244]",244,l,3.241470465436578,colour,0.5
80,74,1,1,4,19,169,567.4984553339891,570.704552472569,"[37, 0, 217]",217,l,2.683014580514282,colour,0.5
80,74,1,1,4,20,170,571.2171874633059,571.8004804928787,"[81, 0, 173]",173,l,0.059946594294160604,colour,0.5
80,74,1,1,4,21,171,572.3109449953772,572.8885520626791,"[16, 0, 238]",238,a,0.05418777000159025,colour,0.5
80,74,1,1,4,22,172,573.4047190696001,574.056531551294,"[78, 0, 176]",176,l,0.12844556663185358,colour,0.5
80,74,1,1,4,23,173,574.5767658110708,575.120552488137,"[7, 0, 247]",247,a,0.02075138036161661,colour,0.5
80,74,1,1,4,24,174,575.6391416508704,581.1685300860554,"[88, 0, 166]",166,l,5.006067205686122,colour,0.5
80,74,1,1,4,25,175,581.6877186833881,584.536539113149,"[17, 0, 237]",237,l,2.3255216497927904,colour,0.5
80,74,1,1,4,26,176,585.0470347297378,587.3365426575765,"[52, 0, 202]",202,l,1.766517530195415,colour,0.5
80,74,1,1,4,27,177,587.8439706033096,589.7925184913911,"[5, 0, 249]",249,l,1.4252766771242023,colour,0.5
80,74,1,1,4,28,178,590.3126798896119,590.8492312119342,"[96, 0, 158]",158,l,0.013204099144786596,colour,0.5
80,74,1,1,4,29,179,591.3596374248154,591.8965349383652,"[43, 0, 211]",211,a,0.013827952090650797,colour,0.5
80,74,1,1,4,30,180,592.4065173729323,592.9365371437743,"[39, 0, 215]",215,a,0.006744228303432465,colour,0.5
80,74,1,1,4,31,181,593.455201137811,599.3926161653362,"[9, 0, 245]",245,l,5.414117035456002,colour,0.5
80,74,1,1,4,32,182,599.908340094611,600.4645947716199,"[12, 0, 242]",242,a,0.03350925166159868,colour,0.5
80,74,1,1,4,33,183,600.9863906330429,604.0085421376862,"[87, 0, 167]",167,l,2.498694004956633,colour,0.5
80,74,1,1,4,34,184,604.5177049776539,607.3526403475553,"[14, 0, 240]",240,l,2.31155191315338,colour,0.5
80,74,1,1,4,35,185,607.8616184731945,608.4086043657735,"[93, 0, 161]",161,l,0.02226375136524439,colour,0.5
80,74,1,1,4,36,186,608.9255429175682,609.6565725114197,"[70, 0, 184]",184,l,0.20779579877853394,colour,0.5
80,74,1,1,4,37,187,610.1754905362613,610.8245661780238,"[83, 0, 171]",171,l,0.12569848680868745,colour,0.5
80,74,1,1,4,38,188,611.3318637609482,612.0085957008414,"[79, 0, 175]",175,l,0.1535040526650846,colour,0.5
80,74,1,1,4,39,189,612.5210042302497,613.0885634841397,"[95, 0, 159]",159,l,0.044268351048231125,colour,0.5
80,74,1,1,4,40,190,613.599100060761,619.488605231978,"[28, 0, 226]",226,l,5.366109111346304,colour,0.5
80,74,1,1,4,41,191,620.0057899383828,622.7206151098944,"[8, 0, 246]",246,l,2.1918166568502784,colour,0.5
80,74,1,1,4,42,192,623.2400616765954,625.7045942200348,"[42, 0, 212]",212,l,1.9383082715794444,colour,0.5
80,74,1,1,4,43,193,626.2121879751794,628.0886032627895,"[54, 0, 200]",200,l,1.3531310800462961,colour,0.5
80,74,1,1,4,44,194,628.602754956577,629.4086205130443,"[75, 0, 179]",179,a,0.28256953321397305,colour,0.5
80,74,1,1,4,45,195,629.9172095186077,630.4965837751515,"[50, 0, 204]",204,a,0.05613297829404473,colour,0.5
80,74,1,1,4,46,196,631.0122517785057,631.5765984263271,"[40, 0, 214]",214,a,0.041115215979516506,colour,0.5
80,74,1,1,4,47,197,632.091180594638,632.6167424167506,"[74, 0, 180]",180,l,0.002266586758196354,colour,0.5
80,74,1,1,4,48,198,633.1381365545094,633.7605940783396,"[0, 0, 254]",254,a,0.09912999300286174,colour,0.5
80,74,1,1,4,49,199,634.2787102316506,634.8726367237978,"[82, 0, 172]",172,l,0.07056509098038077,colour,0.5
80,74,1,1,4,50,200,635.3881211946718,635.9366052793339,"[67, 0, 187]",187,a,0.025145526509732008,colour,0.5
80,74,1,1,5,1,201,673.8716276893392,674.520673005376,"[30, 0, 224]",224,a,0.12497853580862284,colour,0.4
80,74,1,1,5,2,202,675.0289402380586,675.8326731151901,"[81, 0, 173]",173,a,0.2804203126579523,colour,0.4
80,74,1,1,5,3,203,676.341437776573,676.9766126046889,"[96, 0, 158]",158,l,0.11194969760254025,colour,0.4
80,74,1,1,5,4,204,677.4976471611299,678.1606413400732,"[84, 0, 170]",170,l,0.13958512246608734,colour,0.4
80,74,1,1,5,5,205,678.669521397911,683.096632218454,"[62, 0, 192]",192,l,3.903612360358238,colour,0.4
80,74,1,1,5,6,206,683.6070439456962,686.3286909330636,"[3, 0, 251]",251,l,2.198427764698863,colour,0.4
80,74,1,1,5,7,207,686.8433203627355,687.6406213324517,"[86, 0, 168]",168,l,0.2741758762858808,colour,0.4
80,74,1,1,5,8,208,688.1558572859503,692.9927807929926,"[85, 0, 169]",169,l,4.313593219500035,colour,0.4
80,74,1,1,5,9,209,693.4995328979567,694.0406386619434,"[88, 0, 166]",166,l,0.017740029841661453,colour,0.4
80,74,1,1,5,10,210,694.5619752979837,696.6246614889242,"[26, 0, 228]",228,l,1.5393488141708076,colour,0.4
80,74,1,1,5,11,211,697.1401046058163,697.712724394165,"[95, 0, 159]",159,l,0.04927807906642556,colour,0.4
80,74,1,1,5,12,212,698.2340897815302,698.8086374485865,"[53, 0, 201]",201,a,0.05122643802314997,colour,0.4
80,74,1,1,5,13,213,699.3278504647315,699.944645262789,"[22, 0, 232]",232,a,0.09353067679330707,colour,0.4
80,74,1,1,5,14,214,700.4528368767351,700.9926764238626,"[50, 0, 204]",204,a,0.016550613567233086,colour,0.4
80,74,1,1,5,15,215,701.4987522941083,702.1126940678805,"[52, 0, 202]",202,a,0.0908607910387218,colour,0.4
80,74,1,1,5,16,216,702.6262124567293,703.4087922303006,"[79, 0, 175]",175,l,0.2594810677692294,colour,0.4
80,74,1,1,5,17,217,703.9244401473552,704.7446909486316,"[72, 0, 182]",182,a,0.29586303560063243,colour,0.4
80,74,1,1,5,18,218,705.2534634866752,705.8247237168252,"[35, 0, 219]",219,a,0.04520767508074641,colour,0.4
80,74,1,1,5,19,219,706.3963159597479,707.0648165070452,"[71, 0, 183]",183,a,0.14432270219549537,colour,0.4
80,74,1,1,5,20,220,707.5844383356161,712.7447976809926,"[94, 0, 160]",160,l,4.6370278764516115,colour,0.4
80,74,1,1,5,21,221,713.2561640925705,716.528692508582,"[67, 0, 187]",187,l,2.749332430306822,colour,0.4
80,74,1,1,5,22,222,717.0375300310552,720.1686533601023,"[28, 0, 226]",226,l,2.6078052506782115,colour,0.4
80,74,1,1,5,23,223,720.678141517099,724.4646853562444,"[34, 0, 220]",220,l,3.2633478534407914,colour,0.4
80,74,1,1,5,24,224,724.9749616002664,725.5527183287777,"[90, 0, 164]",164,l,0.054419745691120625,colour,0.4
80,74,1,1,5,25,225,726.0687530031428,729.408674470149,"[16, 0, 238]",238,l,2.8166037825867534,colour,0.4
80,74,1,1,5,26,226,729.9281486063264,732.7366899563931,"[29, 0, 225]",225,l,2.2852744716219604,colour,0.4
80,74,1,1,5,27,227,733.2562278956175,735.8407355481759,"[51, 0, 203]",203,l,2.06118445424363,colour,0.4
80,74,1,1,5,28,228,736.3500267816707,736.92869172059,"[68, 0, 186]",186,a,0.0554823437705636,colour,0.4
80,74,1,1,5,29,229,737.4438410280272,737.9766980693676,"[42, 0, 212]",212,a,0.009000181220471859,colour,0.4
80,74,1,1,5,30,230,738.4942900128663,741.4647219837643,"[93, 0, 161]",161,l,2.4470591475255787,colour,0.4
80,74,1,1,5,31,231,741.9786736038513,746.9766677431762,"[75, 0, 179]",179,l,4.474571691825986,colour,0.4
80,74,1,1,5,32,232,747.4943762654439,749.048723149579,"[19, 0, 235]",235,l,1.0310095073655248,colour,0.4
80,74,1,1,5,33,233,749.5569399702363,750.9367844793014,"[17, 0, 237]",237,l,0.8566414341330528,colour,0.4
80,74,1,1,5,34,234,751.4475132529624,752.0887407152914,"[64, 0, 190]",190,a,0.11789875011891127,colour,0.4
80,74,1,1,5,35,235,752.6037446931005,753.2167081520893,"[37, 0, 217]",217,a,0.08960323920473456,colour,0.4
80,74,1,1,5,36,236,753.728738588281,754.2727158870548,"[91, 0, 163]",163,l,0.020648586563766003,colour,0.4
80,74,1,1,5,37,237,754.7868730947375,755.3607145952992,"[69, 0, 185]",185,a,0.05042535439133644,colour,0.4
80,74,1,1,5,38,238,755.8806042396463,758.7687407941557,"[54, 0, 200]",200,l,2.3647066238336265,colour,0.4
80,74,1,1,5,39,239,759.2879817727953,761.0967058679089,"[9, 0, 245]",245,l,1.285426890477538,colour,0.4
80,74,1,1,5,40,240,761.6160724838264,762.2406855295412,"[97, 0, 157]",157,l,0.10123352752998471,colour,0.4
80,74,1,1,5,41,241,762.7566871205345,768.3928292361088,"[32, 0, 222]",222,l,5.112688947934657,colour,0.4
80,74,1,1,5,42,242,768.9129961482249,772.5447472687811,"[87, 0, 167]",167,l,3.108702039346099,colour,0.4
80,74,1,1,5,43,243,773.0536214192398,776.4327688203193,"[89, 0, 165]",165,l,2.8559037600643933,colour,0.4
80,74,1,1,5,44,244,776.9442758345976,779.0327487341128,"[47, 0, 207]",207,l,1.5652355598285794,colour,0.4
80,74,1,1,5,45,245,779.55364111159,780.1367959012277,"[59, 0, 195]",195,a,0.05989933293312788,colour,0.4
80,74,1,1,5,46,246,780.6473537450656,782.7847274187952,"[78, 0, 176]",176,l,1.6140626845881343,colour,0.4
80,74,1,1,5,47,247,783.3036619853228,783.8332292265259,"[23, 0, 231]",231,a,0.006331870798021555,colour,0.4
80,74,1,1,5,48,248,784.3660110435449,786.4567899145186,"[48, 0, 206]",206,l,1.5677341222763062,colour,0.4
80,74,1,1,5,49,249,786.975438548252,787.5287484345026,"[2, 0, 252]",252,a,0.030281678773462772,colour,0.4
80,74,1,1,5,50,250,788.038019976113,789.6328507401049,"[27, 0, 227]",227,l,1.071475270204246,colour,0.4
80,74,1,1,6,1,251,801.6278437692672,802.3127688989043,"[85, 0, 169]",169,l,0.16082526603713632,colour,0.28
80,74,1,1,6,2,252,802.8318787268363,807.4727536966093,"[90, 0, 164]",164,l,4.117636448238045,colour,0.28
80,74,1,1,6,3,253,807.9880034346133,811.4007656378672,"[73, 0, 181]",181,l,2.8894137986935675,colour,0.28
80,74,1,1,6,4,254,811.9126716186292,812.5768075590022,"[93, 0, 161]",161,l,0.14090096345171332,colour,0.28
80,74,1,1,6,5,255,813.0845698802732,818.1047698757611,"[33, 0, 221]",221,l,4.509250667877495,colour,0.28
80,74,1,1,6,6,256,818.6130879144184,820.4807897410356,"[29, 0, 225]",225,l,1.3444046219810843,colour,0.28
80,74,1,1,6,7,257,820.988130253274,822.8008467704058,"[28, 0, 226]",226,l,1.2894957191310823,colour,0.28
80,74,1,1,6,8,258,823.3161358931102,825.9047761773691,"[12, 0, 242]",242,l,2.065323781222105,colour,0.28
80,74,1,1,6,9,259,826.4255039268173,826.9687620615587,"[52, 0, 202]",202,a,0.019962111953645945,colour,0.28
80,74,1,1,6,10,260,827.48803612357,828.0327731524594,"[55, 0, 199]",199,a,0.021419344004243612,colour,0.28
80,74,1,1,6,11,261,828.5505167269148,829.0968441078439,"[70, 0, 184]",184,a,0.023047505877912045,colour,0.28
80,74,1,1,6,12,262,829.6129969358444,830.1928083621897,"[97, 0, 157]",157,l,0.056510677095502615,colour,0.28
80,74,1,1,6,13,263,830.7067009052262,831.2647976023145,"[2, 0, 252]",252,a,0.034668341744691133,colour,0.28
80,74,1,1,6,14,264,831.7864107191563,832.3047706633806,"[16, 0, 238]",238,a,0.007587847299873829,colour,0.28
80,74,1,1,6,15,265,832.8210341623053,833.3767744759098,"[50, 0, 204]",204,a,0.03113553859293461,colour,0.28
80,74,1,1,6,16,266,833.8851484409533,834.7447488442995,"[84, 0, 170]",170,l,0.3361582634970546,colour,0.28
80,74,1,1,6,17,267,835.2510937121697,835.8568001547828,"[71, 0, 183]",183,a,0.08239309070631862,colour,0.28
80,74,1,1,6,18,268,836.3760549179278,836.9527907967567,"[23, 0, 231]",231,a,0.053438674192875624,colour,0.28
80,74,1,1,6,19,269,837.4587760828435,838.0487778945826,"[26, 0, 228]",228,a,0.06667900737375021,colour,0.28
80,74,1,1,6,20,270,838.5682453350164,839.1287846686319,"[53, 0, 201]",201,a,0.037296480033546686,colour,0.28
80,74,1,1,6,21,271,839.646290359553,840.2248087874614,"[64, 0, 190]",190,a,0.05509755574166775,colour,0.28
80,74,1,1,6,22,272,840.7400545873679,841.3928130883723,"[77, 0, 177]",177,l,0.1294002505019307,colour,0.28
80,74,1,1,6,23,273,841.9120312244631,852.1768197682686,"[63, 0, 191]",191,l,9.74188242899254,colour,0.28
80,74,1,1,6,24,274,852.6910451115109,856.3208325128071,"[60, 0, 194]",194,l,3.106500043068081,colour,0.28
80,74,1,1,6,25,275,856.8317511207424,857.3608335368335,"[75, 0, 179]",179,a,0.005730072967708111,colour,0.28
80,74,1,1,6,26,276,857.878549542278,858.4170748232864,"[15, 0, 239]",239,a,0.015207990538328886,colour,0.28
80,74,1,1,6,27,277,858.925382622052,859.4728446751833,"[45, 0, 209]",209,a,0.02412191918119788,colour,0.28
80,74,1,1,6,28,278,859.9879030035809,860.5688207447529,"[67, 0, 187]",187,a,0.057905287481844425,colour,0.28
80,74,1,1,6,29,279,861.0816825912334,861.68887029076,"[49, 0, 205]",205,a,0.08379833493381739,colour,0.28
80,74,1,1,6,30,280,862.2066304069012,868.6728135612793,"[82, 0, 172]",172,l,5.941014391370118,colour,0.28
80,74,1,1,6,31,281,869.190789504908,869.8088406734169,"[98, 0, 156]",156,l,0.09469409938901663,colour,0.28
80,74,1,1,6,32,282,870.3178026513197,870.9610659065656,"[69, 0, 185]",185,a,0.12000464741140604,colour,0.28
80,74,1,1,6,33,283,871.4743479872122,872.0248324186541,"[57, 0, 197]",197,a,0.03005009749904275,colour,0.28
80,74,1,1,6,34,284,872.534933400806,873.1048202877864,"[36, 0, 218]",218,a,0.047537277452647686,colour,0.28
80,74,1,1,6,35,285,873.6090746182017,874.1608232967556,"[61, 0, 193]",193,a,0.028482981491833925,colour,0.28
80,74,1,1,6,36,286,874.671563886106,875.2248489600606,"[94, 0, 160]",160,l,0.029950060416013002,colour,0.28
80,74,1,1,6,37,287,875.7340614246204,876.3448138288222,"[78, 0, 176]",176,a,0.08740360615774989,colour,0.28
80,74,1,1,6,38,288,876.8590706801042,877.4888639892451,"[66, 0, 188]",188,a,0.10658708354458213,colour,0.28
80,74,1,1,6,39,289,877.9996601105668,878.7928867377341,"[80, 0, 174]",174,a,0.26984001928940415,colour,0.28
80,74,1,1,6,40,290,879.3122309045866,879.9448705427349,"[81, 0, 173]",173,a,0.10936015704646707,colour,0.28
80,74,1,1,6,41,291,880.4528396339156,881.0248544737697,"[56, 0, 198]",198,a,0.048717635683715343,colour,0.28
80,74,1,1,6,42,292,881.5309130153619,887.9608209338039,"[96, 0, 158]",158,l,5.906374012120068,colour,0.28
80,74,1,1,6,43,293,888.4684828245081,892.6328661004081,"[87, 0, 167]",167,l,3.641011240426451,colour,0.28
80,74,1,1,6,44,294,893.1403850247152,898.3368569472805,"[89, 0, 165]",165,l,4.673237340059131,colour,0.28
80,74,1,1,6,45,295,898.8434979878366,902.4329283279367,"[65, 0, 189]",189,l,3.0664261574856937,colour,0.28
80,74,1,1,6,46,296,902.9528061565943,905.9288937640376,"[5, 0, 249]",249,l,2.452777011785656,colour,0.28
80,74,1,1,6,47,297,906.4372551259585,911.1849200101569,"[21, 0, 233]",233,l,4.2247394705191255,colour,0.28
80,74,1,1,6,48,298,911.7027655905113,915.0490638269112,"[99, 0, 155]",155,l,2.82292108098045,colour,0.28
80,74,1,1,6,49,299,915.5621615876444,918.7688794280402,"[51, 0, 203]",203,l,2.6833477742038667,colour,0.28
80,74,1,1,6,50,300,919.2809260119684,923.1368581289425,"[76, 0, 178]",178,l,3.332610100042075,colour,0.28
80,74,1,1,7,1,301,979.9536229944788,982.857024253346,"[98, 0, 156]",156,l,2.379361653700471,colour,0.14
80,74,1,1,7,2,302,983.3763365182094,984.9289587484673,"[79, 0, 175]",175,a,1.0293116346001625,colour,0.14
80,74,1,1,7,3,303,985.4388797432184,986.2889679647051,"[68, 0, 186]",186,a,0.33916252478957176,colour,0.14
80,74,1,1,7,4,304,986.7984218569472,987.4729632227682,"[92, 0, 162]",162,l,0.1511712996289134,colour,0.14
80,74,1,1,7,5,305,987.9859062018804,988.536951076705,"[3, 0, 251]",251,a,0.027491276618093252,colour,0.14
80,74,1,1,7,6,306,989.0485967248678,989.8169869952835,"[67, 0, 187]",187,a,0.24496309645473957,colour,0.14
80,74,1,1,7,7,307,990.3299276111647,991.1689306278713,"[90, 0, 164]",164,l,0.3157341689802706,colour,0.14
80,74,1,1,7,8,308,991.6892704386264,992.2409391668625,"[50, 0, 204]",204,a,0.02841681567952037,colour,0.14
80,74,1,1,7,9,309,992.7516541555524,1047.8250348553993,"[61, 0, 193]",193,l,54.549948799889535,colour,0.14
80,74,1,1,7,10,310,1048.3315526219085,1048.8890179833397,"[29, 0, 225]",225,a,0.03409883985295892,colour,0.14
80,74,1,1,7,11,311,1049.4096433329396,1050.0249560861848,"[73, 0, 181]",181,l,0.09205493377521634,colour,0.14
80,74,1,1,7,12,312,1050.5346451052465,1051.2730187550187,"[91, 0, 163]",163,a,0.21513631008565426,colour,0.14
80,74,1,1,7,13,313,1051.7846840959974,1052.3210117132403,"[63, 0, 191]",191,a,0.013145416043698788,colour,0.14
80,74,1,1,7,14,314,1052.8315219017677,1111.161128134001,"[48, 0, 206]",206,l,57.80632871994749,colour,0.14
80,74,1,1,7,15,315,1111.6752286278643,1114.5290253087878,"[51, 0, 203]",203,a,2.330477420706302,colour,0.14
80,74,1,1,7,16,316,1115.0500720739365,1118.2971142865717,"[85, 0, 169]",169,l,2.723472072277218,colour,0.14
80,74,1,1,7,17,317,1118.8158180587925,1120.2491150270216,"[28, 0, 226]",226,a,0.9102919977158308,colour,0.14
80,74,1,1,7,18,318,1120.7703327215277,1121.7690472067334,"[78, 0, 176]",176,a,0.4753007018007338,colour,0.14
80,74,1,1,7,19,319,1122.2860156912357,1123.0170700969175,"[96, 0, 158]",158,l,0.2077894969843328,colour,0.14
80,74,1,1,7,20,320,1123.5359971802682,1125.6570640318096,"[81, 0, 173]",173,a,1.5977909145876765,colour,0.14
80,74,1,1,7,21,321,1126.1766346604563,1126.905069986824,"[99, 0, 155]",155,l,0.2055359072983265,colour,0.14
80,74,1,1,7,22,322,1127.4266263893805,1130.153109418694,"[66, 0, 188]",188,a,2.20334336347878,colour,0.14
80,74,1,1,7,23,323,1130.661017069593,1132.4171063308604,"[72, 0, 182]",182,a,1.2330082785338163,colour,0.14
80,74,1,1,7,24,324,1132.9266480510123,1133.5690755634569,"[56, 0, 198]",198,a,0.11925633903592825,colour,0.14
80,74,1,1,7,25,325,1134.0828149002045,1135.3611273462884,"[77, 0, 177]",177,a,0.7549341092817485,colour,0.14
80,74,1,1,7,26,326,1135.8796968171373,1136.9610741771758,"[53, 0, 201]",201,a,0.5579970539547503,colour,0.14
80,74,1,1,7,27,327,1137.4750506095588,1138.529099745676,"[60, 0, 194]",194,a,0.5308976550586522,colour,0.14
80,74,1,1,7,28,328,1139.0377226220444,1140.2331150113605,"[39, 0, 215]",215,a,0.6721211788244545,colour,0.14
80,74,1,1,7,29,329,1140.7408347972669,1141.8570770286024,"[82, 0, 172]",172,a,0.5929414820857346,colour,0.14
80,74,1,1,7,30,330,1142.3659228221513,1143.4011697242968,"[54, 0, 200]",200,a,0.5119997165165842,colour,0.14
80,74,1,1,7,31,331,1143.9126905235462,1144.9610895370133,"[4, 0, 250]",250,a,0.525074633769691,colour,0.14
80,74,1,1,7,32,332,1145.4755421299487,1146.457115625497,"[57, 0, 197]",197,a,0.4583231587894261,colour,0.14
80,74,1,1,7,33,333,1146.9754672991112,1148.8250935385004,"[95, 0, 159]",159,l,1.326278228778392,colour,0.14
80,74,1,1,7,34,334,1149.3348660529591,1150.5611155312508,"[97, 0, 157]",157,l,0.7030771230347455,colour,0.14
80,74,1,1,7,35,335,1151.0691578774713,1152.9771486301906,"[80, 0, 174]",174,l,1.3845781511627138,colour,0.14
80,74,1,1,7,36,336,1153.491075437516,1154.6971008959226,"[88, 0, 166]",166,l,0.6826979275792837,colour,0.14
80,74,1,1,7,37,337,1155.2117244177498,1156.2491551991552,"[86, 0, 168]",168,l,0.5141016752459109,colour,0.14
80,74,1,1,7,38,338,1156.7587756887078,1157.6971127111465,"[71, 0, 183]",183,a,0.415012642275542,colour,0.14
80,74,1,1,7,39,339,1158.2124038031325,1159.3610808728263,"[75, 0, 179]",179,a,0.6253542653284967,colour,0.14
80,74,1,1,7,40,340,1159.8686679322273,1161.129164336715,"[27, 0, 227]",227,a,0.7370715937577188,colour,0.14
80,74,1,1,7,41,341,1161.6499480125494,1162.705118429847,"[52, 0, 202]",202,a,0.5317223696038127,colour,0.14
80,74,1,1,7,42,342,1163.2125093541108,1164.4811272677034,"[70, 0, 184]",184,a,0.7453439459204674,colour,0.14
80,74,1,1,7,43,343,1164.9936259877868,1166.0811512921937,"[62, 0, 192]",192,a,0.5643257740885019,colour,0.14
80,74,1,1,7,44,344,1166.5873839138076,1167.7131225732155,"[58, 0, 196]",196,a,0.6023193625733256,colour,0.14
80,74,1,1,7,45,345,1168.228065110743,1169.3691389728338,"[93, 0, 161]",161,l,0.617944436147809,colour,0.14
80,74,1,1,7,46,346,1169.8843457815237,1171.0891617373563,"[59, 0, 195]",195,a,0.681616818998009,colour,0.14
80,74,1,1,7,47,347,1171.6049384418875,1172.6571758841164,"[55, 0, 199]",199,a,0.5288858870044351,colour,0.14
80,74,1,1,7,48,348,1173.1673832051456,1174.161151370965,"[84, 0, 170]",170,l,0.47117830999195576,colour,0.14
80,74,1,1,7,49,349,1174.667435192503,1175.9211306548677,"[89, 0, 165]",165,l,0.7302300850860775,colour,0.14
80,74,1,1,7,50,350,1176.4330059159547,1177.7771525685675,"[87, 0, 167]",167,l,0.820864808280021,colour,0.14
80,74,1,1,8,1,351,1183.6822138903663,1184.7610978079028,"[88, 0, 166]",166,l,0.5547289154492319,colour,0.06
80,74,1,1,8,2,352,1185.276772506535,1186.4492201842368,"[58, 0, 196]",196,a,0.6493572425097227,colour,0.06
80,74,1,1,8,3,353,1186.9643092327751,1188.1210987530649,"[91, 0, 163]",163,l,0.6334816818125546,colour,0.06
80,74,1,1,8,4,354,1188.6361421155743,1189.7691133730114,"[54, 0, 200]",200,a,0.6096586929634213,colour,0.06
80,74,1,1,8,5,355,1190.2768166172318,1191.401161847636,"[5, 0, 249]",249,a,0.6015163091942668,colour,0.06
80,74,1,1,8,6,356,1191.9173371251673,1192.9531547110528,"[62, 0, 192]",192,a,0.5124038029462099,colour,0.06
80,74,1,1,8,7,357,1193.4642281001434,1194.5531369880773,"[94, 0, 160]",160,l,0.5656085326336324,colour,0.06
80,74,1,1,8,8,358,1195.0736390636303,1196.3531413204037,"[79, 0, 175]",175,l,0.7561014709062874,colour,0.06
80,74,1,1,8,9,359,1196.8705623340793,1197.9691791450605,"[55, 0, 199]",199,a,0.5749210338108242,colour,0.06
80,74,1,1,8,10,360,1198.4798791678622,1199.5452108262107,"[75, 0, 179]",179,a,0.5419584414921701,colour,0.06
80,74,1,1,8,11,361,1200.0580163528211,1201.2411644468084,"[82, 0, 172]",172,l,0.659898545127362,colour,0.06
80,74,1,1,8,12,362,1201.7611785465851,1202.8572794659995,"[53, 0, 201]",201,a,0.572905327193439,colour,0.06
80,74,1,1,8,13,363,1203.3704808079638,1204.5771281500347,"[78, 0, 176]",176,a,0.6833103592507541,colour,0.06
80,74,1,1,8,14,364,1205.0892464141361,1206.2812229725532,"[59, 0, 195]",195,a,0.6687443386763334,colour,0.06
80,74,1,1,8,15,365,1206.7923924601637,1207.889168432448,"[64, 0, 190]",190,a,0.5734397768974304,colour,0.06
80,74,1,1,8,16,366,1208.401751829777,1209.56119233137,"[87, 0, 167]",167,l,0.6362295495346189,colour,0.06
80,74,1,1,8,17,367,1210.0737138944678,1211.2251707324758,"[73, 0, 181]",181,a,0.628250218462199,colour,0.06
80,74,1,1,8,18,368,1211.7454798235558,1212.9211401073262,"[51, 0, 203]",203,a,0.6522472887299955,colour,0.06
80,74,1,1,8,19,369,1213.4329866170883,1214.3851578934118,"[89, 0, 165]",165,l,0.428845320828259,colour,0.06
80,74,1,1,8,20,370,1214.9017380448058,1216.345155687537,"[80, 0, 174]",174,l,0.9201964503154159,colour,0.06
80,74,1,1,8,21,371,1216.854870306328,1218.2411719299853,"[69, 0, 185]",185,a,0.8630095389671624,colour,0.06
80,74,1,1,8,22,372,1218.7610796908848,1220.0252274465747,"[84, 0, 170]",170,l,0.741123880725354,colour,0.06
80,74,1,1,8,23,373,1220.5423719803803,1222.0251864865422,"[93, 0, 161]",161,l,0.959488551132381,colour,0.06
80,74,1,1,8,24,374,1222.5423593772575,1223.7851645885967,"[74, 0, 180]",180,a,0.7195536931976676,colour,0.06
80,74,1,1,8,25,375,1224.2830925621092,1225.3931797593832,"[63, 0, 191]",191,a,0.586603703442961,colour,0.06
80,74,1,1,8,26,376,1225.908201066777,1227.1772053437307,"[77, 0, 177]",177,a,0.7456637495197356,colour,0.06
80,74,1,1,8,27,377,1227.6914519546553,1229.0012083211914,"[96, 0, 158]",158,l,0.7864512847736478,colour,0.06
80,74,1,1,8,28,378,1229.5195426656865,1230.6972485883161,"[60, 0, 194]",194,a,0.6543212844990194,colour,0.06
80,74,1,1,8,29,379,1231.1946673179045,1232.4892042726278,"[81, 0, 173]",173,a,0.7720932154916227,colour,0.06
80,74,1,1,8,30,380,1233.0068013360724,1234.1372090461664,"[97, 0, 157]",157,l,0.6053519807755947,colour,0.06
80,74,1,1,8,31,381,1234.6492241225205,1235.8971914802678,"[98, 0, 156]",156,l,0.7246504607610404,colour,0.06
80,74,1,1,8,32,382,1236.414752310142,1237.6252128742635,"[56, 0, 198]",198,a,0.6870853779837489,colour,0.06
80,74,1,1,8,33,383,1238.1335340640508,1239.2572105424479,"[29, 0, 225]",225,a,0.6004009353928268,colour,0.06
80,74,1,1,8,34,384,1239.7741313716397,1240.9372287383303,"[83, 0, 171]",171,a,0.6397127280943096,colour,0.06
80,74,1,1,8,35,385,1241.4459831593558,1242.6011890228838,"[92, 0, 162]",162,l,0.6318633668124676,colour,0.06
80,74,1,1,8,36,386,1243.1180039071478,1244.4011783888564,"[85, 0, 169]",169,l,0.7598796403035522,colour,0.06
80,74,1,1,8,37,387,1244.9148940946907,1246.0412164344452,"[72, 0, 182]",182,a,0.6029889010824263,colour,0.06
80,74,1,1,8,38,388,1246.5554984919727,1247.6332099284045,"[90, 0, 164]",164,l,0.5542752044275403,colour,0.06
80,74,1,1,8,39,389,1248.1493576364592,1249.2411896530539,"[65, 0, 189]",189,a,0.5685994029045105,colour,0.06
80,74,1,1,8,40,390,1249.758670531679,1250.9532196954824,"[68, 0, 186]",186,a,0.671254716347903,colour,0.06
80,74,1,1,8,41,391,1251.461763015017,1252.6251959386282,"[50, 0, 204]",204,a,0.6400541928596795,colour,0.06
80,74,1,1,8,42,392,1253.1335998363793,1254.3371806889772,"[76, 0, 178]",178,a,0.6801840048283339,colour,0.06
80,74,1,1,8,43,393,1254.8523697745986,1255.9211944579147,"[57, 0, 197]",197,a,0.5455294479615986,colour,0.06
80,74,1,1,8,44,394,1256.4304317347705,1257.1932652243413,"[99, 0, 155]",155,l,0.23946224199607968,colour,0.06
80,74,1,1,8,45,395,1257.7117795562372,1260.185197277926,"[86, 0, 168]",168,a,1.9500834955833852,colour,0.06
80,74,1,1,8,46,396,1260.6973383850418,1261.729234835133,"[71, 0, 183]",183,a,0.5085445009171963,colour,0.06
80,74,1,1,8,47,397,1262.2442809543572,1263.2891916693188,"[67, 0, 187]",187,a,0.5217730179429054,colour,0.06
80,74,1,1,8,48,398,1263.806868290063,1265.0172339370474,"[66, 0, 188]",188,a,0.687073562759906,colour,0.06
80,74,1,1,8,49,399,1265.525558277499,1266.665285971947,"[18, 0, 236]",236,a,0.6164202499203384,colour,0.06
80,74,1,1,8,50,400,1267.1818231944926,1268.4732393091545,"[61, 0, 193]",193,a,0.7684028735384345,colour,0.06
80,74,1,1,9,1,401,1282.3684517107904,1284.3452443033457,"[96, 0, 158]",158,l,1.4526675227098167,colour,0.06
80,74,1,1,9,2,402,1284.8437465047464,1285.9532366311178,"[55, 0, 199]",199,a,0.5861515677534044,colour,0.06
80,74,1,1,9,3,403,1286.4687092863023,1287.8172366940416,"[54, 0, 200]",200,a,0.8253270895220339,colour,0.06
80,74,1,1,9,4,404,1288.3281104033813,1290.3532200893387,"[81, 0, 173]",173,a,1.5021208636462688,colour,0.06
80,74,1,1,9,5,405,1290.874922215473,1292.065308027435,"[51, 0, 203]",203,a,0.6670933337882161,colour,0.06
80,74,1,1,9,6,406,1292.578063535504,1293.713238758035,"[53, 0, 201]",201,a,0.6119355196133256,colour,0.06
80,74,1,1,9,7,407,1294.2349121328443,1295.8092341260053,"[80, 0, 174]",174,l,1.0510440869256854,colour,0.06
80,74,1,1,9,8,408,1296.3313946896233,1297.5052739991806,"[83, 0, 171]",171,l,0.6505391760729253,colour,0.06
80,74,1,1,9,9,409,1298.0189341725782,1299.2412447915412,"[97, 0, 157]",157,l,0.6989909652620554,colour,0.06
80,74,1,1,9,10,410,1299.7535532838665,1300.769271699246,"[69, 0, 185]",185,a,0.4926141956821084,colour,0.06
80,74,1,1,9,11,411,1301.2845750004053,1302.841270785313,"[89, 0, 165]",165,l,1.0333615588024259,colour,0.06
80,74,1,1,9,12,412,1303.34932100866,1304.6892582294531,"[73, 0, 181]",181,a,0.8154147597961128,colour,0.06
80,74,1,1,9,13,413,1305.2099280836992,1306.5532831051387,"[60, 0, 194]",194,a,0.8204095219261944,colour,0.06
80,74,1,1,9,14,414,1307.0692669730633,1308.2972312588245,"[98, 0, 156]",156,l,0.7047001644968987,colour,0.06
80,74,1,1,9,15,415,1308.8036801023409,1310.1932447440922,"[85, 0, 169]",169,l,0.8663521143607795,colour,0.06
80,74,1,1,9,16,416,1310.7099328101613,1311.8252758895978,"[62, 0, 192]",192,a,0.5921915983781219,colour,0.06
80,74,1,1,9,17,417,1312.3348428159952,1313.4492820180021,"[88, 0, 166]",166,l,0.5911486931145191,colour,0.06
80,74,1,1,9,18,418,1313.9599036653526,1315.177252999507,"[61, 0, 193]",193,a,0.6940915142185986,colour,0.06
80,74,1,1,9,19,419,1315.6941899759695,1316.9452647832222,"[94, 0, 160]",160,l,0.7278764583170414,colour,0.06
80,74,1,1,9,20,420,1317.459810717497,1318.825261711143,"[95, 0, 159]",159,l,0.8420368167571723,colour,0.06
80,74,1,1,9,21,421,1319.334832182154,1320.561282522045,"[70, 0, 184]",184,a,0.7031003599986434,colour,0.06
80,74,1,1,9,22,422,1321.0692488560453,1322.425244382117,"[68, 0, 186]",186,a,0.8327321922406554,colour,0.06
80,74,1,1,9,23,423,1322.94418958202,1324.2173450016417,"[99, 0, 155]",155,l,0.749996061436832,colour,0.06
80,74,1,1,9,24,424,1324.725412948057,1326.049280836247,"[58, 0, 196]",196,a,0.8005108186043799,colour,0.06
80,74,1,1,9,25,425,1326.5692768190056,1327.8012634599581,"[11, 0, 243]",243,a,0.7087583593092859,colour,0.06
80,74,1,1,9,26,426,1328.3192535820417,1330.0572798596695,"[84, 0, 170]",170,l,1.2148460452444851,colour,0.06
80,74,1,1,9,27,427,1330.569150000345,1332.177295140922,"[64, 0, 190]",190,a,1.0848829881288111,colour,0.06
80,74,1,1,9,28,428,1332.694194308482,1333.9532925570384,"[65, 0, 189]",189,a,0.7359794569201767,colour,0.06
80,74,1,1,9,29,429,1334.4598957882263,1335.761283703614,"[92, 0, 162]",162,l,0.7781489999033511,colour,0.06
80,74,1,1,9,30,430,1336.2723031360656,1337.4892861926928,"[86, 0, 168]",168,l,0.6944188005290926,colour,0.06
80,74,1,1,9,31,431,1338.0066894837655,1339.1052806945518,"[76, 0, 178]",178,a,0.575269193854183,colour,0.06
80,74,1,1,9,32,432,1339.6067544682883,1340.8092833571136,"[15, 0, 239]",239,a,0.6791761517524719,colour,0.06
80,74,1,1,9,33,433,1341.32557993941,1342.5772466976196,"[66, 0, 188]",188,a,0.7287082620896399,colour,0.06
80,74,1,1,9,34,434,1343.0911703547463,1344.2572743459605,"[71, 0, 183]",183,a,0.6427091131918132,colour,0.06
80,74,1,1,9,35,435,1344.7787551302463,1345.809264846146,"[63, 0, 191]",191,a,0.5071951826103032,colour,0.06
80,74,1,1,9,36,436,1346.3254381543957,1347.6172811985016,"[75, 0, 179]",179,a,0.7683642762713134,colour,0.06
80,74,1,1,9,37,437,1348.138064086903,1349.5453309495933,"[93, 0, 161]",161,l,0.8838956151157618,colour,0.06
80,74,1,1,9,38,438,1350.0606889952905,1351.1372488243505,"[57, 0, 197]",197,a,0.5539869084022939,colour,0.06
80,74,1,1,9,39,439,1351.6537171239033,1353.169313840568,"[43, 0, 211]",211,a,0.9977074190974236,colour,0.06
80,74,1,1,9,40,440,1353.679571967572,1354.9853166132234,"[87, 0, 167]",167,l,0.7824852503836155,colour,0.06
80,74,1,1,9,41,441,1355.4919588351622,1356.7373208985664,"[72, 0, 182]",182,a,0.7223263727501035,colour,0.06
80,74,1,1,9,42,442,1357.2576658292674,1358.3533220957033,"[50, 0, 204]",204,a,0.5754330344498158,colour,0.06
80,74,1,1,9,43,443,1358.8639327152632,1360.0813332493417,"[78, 0, 176]",176,a,0.6939513045363128,colour,0.06
80,74,1,1,9,44,444,1360.5992678394541,1361.7373862769455,"[59, 0, 195]",195,a,0.6146518788300455,colour,0.06
80,74,1,1,9,45,445,1362.2554949470796,1363.4013138720766,"[74, 0, 180]",180,a,0.6223964774981141,colour,0.06
80,74,1,1,9,46,446,1363.9118248489685,1365.0173182203434,"[52, 0, 202]",202,a,0.5823261365294456,colour,0.06
80,74,1,1,9,47,447,1365.5369341410697,1366.7773242853582,"[90, 0, 164]",164,l,0.7171701337210834,colour,0.06
80,74,1,1,9,48,448,1367.2867596670985,1369.2012926046737,"[82, 0, 172]",172,a,1.3919068477116525,colour,0.06
80,74,1,1,9,49,449,1369.7086528087966,1371.2493379442021,"[79, 0, 175]",175,a,1.0174387372098863,colour,0.06
80,74,1,1,9,50,450,1371.7711251410656,1372.937320898287,"[67, 0, 187]",187,a,0.6428816174156964,colour,0.06
80,74,1,1,10,1,451,1378.447582963854,1379.9453183463775,"[64, 0, 190]",190,a,0.9736256725154817,colour,0.06
80,74,1,1,10,2,452,1380.4640095154755,1381.5053350455128,"[90, 0, 164]",164,l,0.5180031191557646,colour,0.06
80,74,1,1,10,3,453,1382.0265058726072,1385.1533795972355,"[78, 0, 176]",176,l,2.60350680956617,colour,0.06
80,74,1,1,10,4,454,1385.6670783679,1386.649326522369,"[65, 0, 189]",189,a,0.4588304329663515,colour,0.06
80,74,1,1,10,5,455,1387.1670704907738,1388.2253522956744,"[72, 0, 182]",182,a,0.5349085880443454,colour,0.06
80,74,1,1,10,6,456,1388.7452517864294,1389.8013804322109,"[69, 0, 185]",185,a,0.5327983582392335,colour,0.06
80,74,1,1,10,7,457,1390.3078182479367,1391.3533492712304,"[37, 0, 217]",217,a,0.5222377572208643,colour,0.06
80,74,1,1,10,8,458,1391.8702689185739,1393.0173989590257,"[58, 0, 196]",196,a,0.6238119620829821,colour,0.06
80,74,1,1,10,9,459,1393.5286917206831,1394.7133167395368,"[50, 0, 204]",204,a,0.6614436050876975,colour,0.06
80,74,1,1,10,10,460,1395.2318058651872,1396.3533795974217,"[77, 0, 177]",177,a,0.5982005153782666,colour,0.06
80,74,1,1,10,11,461,1396.8723712712526,1397.8813257664442,"[76, 0, 178]",178,a,0.48554189363494515,colour,0.06
80,74,1,1,10,12,462,1398.3880467577837,1399.489360629581,"[56, 0, 198]",198,a,0.5779099352657795,colour,0.06
80,74,1,1,10,13,463,1399.9973931298591,1401.0894208881073,"[62, 0, 192]",192,a,0.5689743445254862,colour,0.06
80,74,1,1,10,14,464,1401.6097756652161,1402.6573527213186,"[70, 0, 184]",184,a,0.5243105716072023,colour,0.06
80,74,1,1,10,15,465,1403.1721940403804,1404.2173544541001,"[57, 0, 197]",197,a,0.5217801076360047,colour,0.06
80,74,1,1,10,16,466,1404.7347868899815,1405.68942955276,"[99, 0, 155]",155,l,0.43137381551787257,colour,0.06
80,74,1,1,10,17,467,1406.2035095668398,1407.3453711215407,"[71, 0, 183]",183,a,0.6184154762886465,colour,0.06
80,74,1,1,10,18,468,1407.8598036281765,1409.2573952567764,"[54, 0, 200]",200,a,0.8743857964873314,colour,0.06
80,74,1,1,10,19,469,1409.7660405822098,1411.049317070283,"[87, 0, 167]",167,l,0.7599245388992131,colour,0.06
80,74,1,1,10,20,470,1411.5629126527347,1412.985377265606,"[97, 0, 157]",157,l,0.899179223459214,colour,0.06
80,74,1,1,10,21,471,1413.5004418957978,1414.873399998527,"[52, 0, 202]",202,a,0.8496876796707511,colour,0.06
80,74,1,1,10,22,472,1415.3909970619716,1416.5373823386617,"[85, 0, 169]",169,l,0.6229356536641717,colour,0.06
80,74,1,1,10,23,473,1417.0472304713912,1418.297391160857,"[55, 0, 199]",199,a,0.7267567524686456,colour,0.06
80,74,1,1,10,24,474,1418.8129110774025,1420.0893834726885,"[80, 0, 174]",174,a,0.7532011847943068,colour,0.06
80,74,1,1,10,25,475,1420.6097410065122,1421.825373169966,"[67, 0, 187]",187,a,0.6923247189261019,colour,0.06
80,74,1,1,10,26,476,1422.3440753668547,1423.5133821181953,"[83, 0, 171]",171,a,0.6459618918597698,colour,0.06
80,74,1,1,10,27,477,1424.031633360777,1425.0894232513383,"[74, 0, 180]",180,a,0.5343934372067451,colour,0.06
80,74,1,1,10,28,478,1425.6098284404725,1426.6333670732565,"[63, 0, 191]",191,a,0.5004765545018017,colour,0.06
80,74,1,1,10,29,479,1427.1409679176286,1428.329460115172,"[61, 0, 193]",193,a,0.6651370977051556,colour,0.06
80,74,1,1,10,30,480,1428.8440863941796,1430.2573665059172,"[68, 0, 186]",186,a,0.9023607163690031,colour,0.06
80,74,1,1,10,31,481,1430.76929493621,1431.6733952723444,"[89, 0, 165]",165,l,0.38083188235759735,colour,0.06
80,74,1,1,10,32,482,1432.1910718930885,1433.6174407065846,"[51, 0, 203]",203,a,0.9029916585423052,colour,0.06
80,74,1,1,10,33,483,1434.1286464282311,1435.2893724450842,"[66, 0, 188]",188,a,0.6375363324768841,colour,0.06
80,74,1,1,10,34,484,1435.803574945312,1437.1853863243014,"[91, 0, 163]",163,l,0.8584649437107146,colour,0.06
80,74,1,1,10,35,485,1437.6942486590706,1439.4893685067073,"[96, 0, 158]",158,l,1.2719037756323814,colour,0.06
80,74,1,1,10,36,486,1439.998280072119,1441.449400565587,"[86, 0, 168]",168,l,0.9283561632037163,colour,0.06
80,74,1,1,10,37,487,1441.9672756846994,1446.049414744135,"[79, 0, 175]",175,a,3.558807196095586,colour,0.06
80,74,1,1,10,38,488,1446.5609737462364,1447.6494399504736,"[75, 0, 179]",179,a,0.565303694922477,colour,0.06
80,74,1,1,10,39,489,1448.1703866785392,1449.625395225361,"[81, 0, 173]",173,a,0.9317428497597575,colour,0.06
80,74,1,1,10,40,490,1450.1391018726863,1451.2573854103684,"[53, 0, 201]",201,a,0.5948937796056271,colour,0.06
80,74,1,1,10,41,491,1451.7641414538957,1453.057400376536,"[73, 0, 181]",181,a,0.769877040758729,colour,0.06
80,74,1,1,10,42,492,1453.5766866481863,1454.5453919954598,"[92, 0, 162]",162,l,0.4454408320598304,colour,0.06
80,74,1,1,10,43,493,1455.060962324962,1456.3138484321535,"[94, 0, 160]",160,l,0.729646404273808,colour,0.06
80,74,1,1,10,44,494,1456.8266267832369,1457.8654021569528,"[95, 0, 159]",159,l,0.5158499605022371,colour,0.06
80,74,1,1,10,45,495,1458.3630233239383,1459.4334092144854,"[60, 0, 194]",194,a,0.5469937692396343,colour,0.06
80,74,1,1,10,46,496,1459.9411400281824,1461.6814403757453,"[35, 0, 219]",219,a,1.2169397338293493,colour,0.06
80,74,1,1,10,47,497,1462.1911396346986,1463.5134033858776,"[88, 0, 166]",166,l,0.798898805398494,colour,0.06
80,74,1,1,10,48,498,1464.0349137084559,1465.5294309705496,"[98, 0, 156]",156,l,0.9711231715045869,colour,0.06
80,74,1,1,10,49,499,1466.0505667454563,1467.489410254173,"[59, 0, 195]",195,a,0.9155990798026323,colour,0.06
80,74,1,1,10,50,500,1468.0033051604405,1469.4653714369051,"[14, 0, 240]",240,a,0.9389151893556118,colour,0.06
80,74,1,1,11,1,501,1481.3323804875836,1483.2014379338361,"[50, 0, 204]",204,a,1.3449883027933538,colour,0.06
80,74,1,1,11,2,502,1483.7082357252948,1484.7854233458638,"[80, 0, 174]",174,a,0.5540046314708889,colour,0.06
80,74,1,1,11,3,503,1485.2952541494742,1486.7694020625204,"[87, 0, 167]",167,l,0.9489397653378546,colour,0.06
80,74,1,1,11,4,504,1487.281612880528,1488.4014336015098,"[71, 0, 183]",183,a,0.5972489817067981,colour,0.06
80,74,1,1,11,5,505,1488.9223047113046,1490.2574338535778,"[99, 0, 155]",155,l,0.8119300054386258,colour,0.06
80,74,1,1,11,6,506,1490.765982686542,1491.8974336963147,"[53, 0, 201]",201,a,0.6080817310139537,colour,0.06
80,74,1,1,11,7,507,1492.4065918098204,1493.5374221168458,"[74, 0, 180]",180,a,0.6074484256096184,colour,0.06
80,74,1,1,11,8,508,1494.0471847848967,1495.345403810963,"[83, 0, 171]",171,a,0.7748934645205736,colour,0.06
80,74,1,1,11,9,509,1495.8597150128335,1497.185462730471,"[67, 0, 187]",187,a,0.8024402731098235,colour,0.06
80,74,1,1,11,10,510,1497.7033996833488,1498.9214252522215,"[65, 0, 189]",189,a,0.69468425353989,colour,0.06
80,74,1,1,11,11,511,1499.4405500460416,1500.6014489615336,"[59, 0, 195]",195,a,0.6378766158595681,colour,0.06
80,74,1,1,11,12,512,1501.112471938599,1502.0894488515332,"[69, 0, 185]",185,a,0.45369309931993484,colour,0.06
80,74,1,1,11,13,513,1502.5967976339161,1503.6974947424605,"[51, 0, 203]",203,a,0.5773333441466093,colour,0.06
80,74,1,1,11,14,514,1504.2061991449445,1505.2974986806512,"[78, 0, 176]",176,a,0.5680007562041283,colour,0.06
80,74,1,1,11,15,515,1505.815635707695,1506.8094538925216,"[75, 0, 179]",179,a,0.4709215220063925,colour,0.06
80,74,1,1,11,16,516,1507.3155675726011,1508.4415232408792,"[82, 0, 172]",172,a,0.6025288882665336,colour,0.06
80,74,1,1,11,17,517,1508.9561652741395,1509.9535355605185,"[73, 0, 181]",181,a,0.4740451187826693,colour,0.06
80,74,1,1,11,18,518,1510.4718387909234,1511.6494509782642,"[68, 0, 186]",186,a,0.6543330997228622,colour,0.06
80,74,1,1,11,19,519,1512.159263270907,1513.4814328928478,"[62, 0, 192]",192,a,0.7988027068786323,colour,0.06
80,74,1,1,11,20,520,1514.0031444709748,1515.1855119611137,"[77, 0, 177]",177,a,0.6596917756833136,colour,0.06
80,74,1,1,11,21,521,1515.706144399941,1516.8974754437804,"[13, 0, 241]",241,a,0.6679235622286797,colour,0.06
80,74,1,1,11,22,522,1517.4093432216905,1518.5615050452761,"[61, 0, 193]",193,a,0.628900459036231,colour,0.06
80,74,1,1,11,23,523,1519.08115089871,1520.0894693313166,"[58, 0, 196]",196,a,0.4849873576313257,colour,0.06
80,74,1,1,11,24,524,1520.5976006868295,1521.8094885512255,"[76, 0, 178]",178,a,0.6893590544350445,colour,0.06
80,74,1,1,11,25,525,1522.3167164227925,1523.5854855733924,"[64, 0, 190]",190,a,0.7455207831226289,colour,0.06
80,74,1,1,11,26,526,1524.097958299797,1525.1934999567457,"[92, 0, 162]",162,l,0.5720601323992014,colour,0.06
80,74,1,1,11,27,527,1525.695065496955,1527.7855261396617,"[84, 0, 170]",170,l,1.5672512659803033,colour,0.06
80,74,1,1,11,28,528,1528.304477641359,1529.4574791458435,"[52, 0, 202]",202,a,0.6297444719821215,colour,0.06
80,74,1,1,11,29,529,1529.9786038929597,1531.0894823283888,"[63, 0, 191]",191,a,0.5878837052732706,colour,0.06
80,74,1,1,11,30,530,1531.6036040899344,1533.0095700770617,"[54, 0, 200]",200,a,0.8825852870941162,colour,0.06
80,74,1,1,11,31,531,1533.5254657235928,1534.8334911344573,"[89, 0, 165]",165,l,0.7847242676652968,colour,0.06
80,74,1,1,11,32,532,1535.3535954253748,1536.817467094399,"[85, 0, 169]",169,l,0.94124242849648,colour,0.06
80,74,1,1,11,33,533,1537.338052665349,1539.7375217601657,"[79, 0, 175]",175,l,1.87622624123469,colour,0.06
80,74,1,1,11,34,534,1540.2460698056966,1541.4335506055504,"[94, 0, 160]",160,l,0.6641792631708086,colour,0.06
80,74,1,1,11,35,535,1541.9491855255328,1543.5214744829573,"[98, 0, 156]",156,l,1.0490118390880525,colour,0.06
80,74,1,1,11,36,536,1544.0429615685716,1545.465508101508,"[95, 0, 159]",159,l,0.899270202498883,colour,0.06
80,74,1,1,11,37,537,1545.980421888642,1547.1215158365667,"[56, 0, 198]",198,a,0.6177262449637055,colour,0.06
80,74,1,1,11,38,538,1547.6366706578992,1549.0175025402568,"[86, 0, 168]",168,l,0.8575023827143013,colour,0.06
80,74,1,1,11,39,539,1549.5272719040513,1550.6654962860048,"[25, 0, 229]",229,a,0.6149382051080465,colour,0.06
80,74,1,1,11,40,540,1551.1835521808825,1552.3455605618656,"[96, 0, 158]",158,l,0.6387225980870426,colour,0.06
80,74,1,1,11,41,541,1552.8554063318297,1554.4015021310188,"[90, 0, 164]",164,l,1.0227800840511918,colour,0.06
80,74,1,1,11,42,542,1554.9178538518026,1556.1135298102163,"[70, 0, 184]",184,a,0.6723330677486956,colour,0.06
80,74,1,1,11,43,543,1556.6130536501296,1557.7935003507882,"[36, 0, 218]",218,a,0.6578280939720571,colour,0.06
80,74,1,1,11,44,544,1558.2893417249434,1559.4736725403927,"[66, 0, 188]",188,a,0.6639142045751214,colour,0.06
80,74,1,1,11,45,545,1559.989428371191,1561.1215252890252,"[60, 0, 194]",194,a,0.6087370915338397,colour,0.06
80,74,1,1,11,46,546,1561.630082393065,1562.9774960028008,"[97, 0, 157]",157,l,0.8240782022476196,colour,0.06
80,74,1,1,11,47,547,1563.4893925311044,1564.761490473058,"[57, 0, 197]",197,a,0.7487519001588225,colour,0.06
80,74,1,1,11,48,548,1565.273074681405,1566.5534693943337,"[93, 0, 161]",161,l,0.7570675760507584,colour,0.06
80,74,1,1,11,49,549,1567.0699806227349,1568.377585012,"[88, 0, 166]",166,l,0.7842705566436052,colour,0.06
80,74,1,1,11,50,550,1568.8980677891523,1569.977506636642,"[72, 0, 182]",182,a,0.5560270338319242,colour,0.06
80,74,1,1,12,1,551,1577.9754074346274,1579.2895335284993,"[73, 0, 181]",181,a,0.7900577378459275,colour,0.06
80,74,1,1,12,2,552,1579.8044020230882,1581.0335632087663,"[85, 0, 169]",169,l,0.7059191199950874,colour,0.06
80,74,1,1,12,3,553,1581.5543492473662,1582.5535233514383,"[87, 0, 167]",167,l,0.47583909006789327,colour,0.06
80,74,1,1,12,4,554,1583.070051515475,1584.313522721175,"[82, 0, 172]",172,l,0.7202425305731595,colour,0.06
80,74,1,1,12,5,555,1584.8199266660959,1585.857533102855,"[69, 0, 185]",185,a,0.5146428202278912,colour,0.06
80,74,1,1,12,6,556,1586.3543457030319,1587.5135680134408,"[75, 0, 179]",179,a,0.6359065952710807,colour,0.06
80,74,1,1,12,7,557,1588.0262486906722,1589.0975120714866,"[52, 0, 202]",202,a,0.5480098933912814,colour,0.06
80,74,1,1,12,8,558,1589.6043760292232,1590.8975892653689,"[58, 0, 196]",196,a,0.769909730181098,colour,0.06
80,74,1,1,12,9,559,1591.4169019246474,1592.6895886668935,"[66, 0, 188]",188,a,0.7501350892707705,colour,0.06
80,74,1,1,12,10,560,1593.198140650522,1594.3855265337043,"[95, 0, 159]",159,l,0.6641233372502029,colour,0.06
80,74,1,1,12,11,561,1594.8988054636866,1596.3296003248543,"[99, 0, 155]",155,l,0.9074299153871834,colour,0.06
80,74,1,1,12,12,562,1596.8363339188509,1598.3375749294646,"[97, 0, 157]",157,l,0.9772451221942902,colour,0.06
80,74,1,1,12,13,563,1598.852558820974,1601.0175761897117,"[86, 0, 168]",168,l,1.641686293296516,colour,0.06
80,74,1,1,12,14,564,1601.524433058221,1602.7295247060247,"[65, 0, 189]",189,a,0.6808960796333849,colour,0.06
80,74,1,1,12,15,565,1603.2441135696135,1604.353564705234,"[78, 0, 176]",176,a,0.5861704726703465,colour,0.06
80,74,1,1,12,16,566,1604.8691027387977,1605.9135404443368,"[70, 0, 184]",184,a,0.5211822488345206,colour,0.06
80,74,1,1,12,17,567,1606.4316353299655,1607.5696706655435,"[80, 0, 174]",174,a,0.6148976390250027,colour,0.06
80,74,1,1,12,18,568,1608.0878628310747,1609.2655281876214,"[37, 0, 217]",217,a,0.6544138379395008,colour,0.06
80,74,1,1,12,19,569,1609.7753188190982,1610.9055776549503,"[92, 0, 162]",162,l,0.6068576560355723,colour,0.06
80,74,1,1,12,20,570,1611.4165939367376,1612.5855434690602,"[51, 0, 203]",203,a,0.6456066416576505,colour,0.06
80,74,1,1,12,21,571,1613.0916220964864,1614.3935361905023,"[64, 0, 190]",190,a,0.7786294925026596,colour,0.06
80,74,1,1,12,22,572,1614.9040266871452,1615.9855584353209,"[79, 0, 175]",175,a,0.558114814106375,colour,0.06
80,74,1,1,12,23,573,1616.4977542869747,1617.593559033703,"[89, 0, 165]",165,l,0.5723996278829873,colour,0.06
80,74,1,1,12,24,574,1618.1071983333677,1619.257588241715,"[76, 0, 178]",178,a,0.6270753745920956,colour,0.06
80,74,1,1,12,25,575,1619.7790095550008,1620.9538124348037,"[38, 0, 216]",216,a,0.6512213181704283,colour,0.06
80,74,1,1,12,26,576,1621.469272880815,1622.6015332448296,"[53, 0, 201]",201,a,0.6089596152305603,colour,0.06
80,74,1,1,12,27,577,1623.109921388328,1630.9135349304415,"[83, 0, 171]",171,a,7.280336029827595,colour,0.06
80,74,1,1,12,28,578,1631.424948209431,1632.4335880209692,"[67, 0, 187]",187,a,0.4860566509887576,colour,0.06
80,74,1,1,12,29,579,1632.9398131594062,1633.9376017111354,"[77, 0, 177]",177,a,0.47440824564546347,colour,0.06
80,74,1,1,12,30,580,1634.455464227125,1635.4415346626192,"[71, 0, 183]",183,a,0.46269761258736253,colour,0.06
80,74,1,1,12,31,581,1635.9554839194752,1637.0655699353665,"[50, 0, 204]",204,a,0.5867600608617067,colour,0.06
80,74,1,1,12,32,582,1637.5804144055583,1638.5455971895717,"[84, 0, 170]",170,l,0.4418064164929092,colour,0.06
80,74,1,1,12,33,583,1639.0667944042943,1640.201627374161,"[96, 0, 158]",158,l,0.6115306452848017,colour,0.06
80,74,1,1,12,34,584,1640.722934471909,1641.7615975993685,"[98, 0, 156]",156,l,0.5153923104517162,colour,0.06
80,74,1,1,12,35,585,1642.2697840933688,1643.5855824598111,"[63, 0, 191]",191,a,0.7924330262467265,colour,0.06
80,74,1,1,12,36,586,1644.0979189150967,1645.201586808078,"[72, 0, 182]",182,a,0.5802619867026806,colour,0.06
80,74,1,1,12,37,587,1645.7231211550534,1646.8896107221954,"[7, 0, 247]",247,a,0.6431911811232567,colour,0.06
80,74,1,1,12,38,588,1647.399924381636,1648.2095834682696,"[74, 0, 180]",180,a,0.2861862266436219,colour,0.06
80,74,1,1,12,39,589,1648.7282120157033,1650.3055780488066,"[90, 0, 164]",164,l,1.0542830810882151,colour,0.06
80,74,1,1,12,40,590,1650.8223598496988,1653.0656345263124,"[62, 0, 192]",192,a,1.7204166110605001,colour,0.06
80,74,1,1,12,41,591,1653.5723279481754,1655.3376418831758,"[61, 0, 193]",193,a,1.242025788873434,colour,0.06
80,74,1,1,12,42,592,1655.853571400512,1656.8736335495487,"[57, 0, 197]",197,a,0.49667672300711274,colour,0.06
80,74,1,1,12,43,593,1657.3867978700437,1658.5136196073145,"[68, 0, 186]",186,a,0.6034552156925201,colour,0.06
80,74,1,1,12,44,594,1659.0274073872715,1660.177609430626,"[56, 0, 198]",198,a,0.6269674603827298,colour,0.06
80,74,1,1,12,45,595,1660.6837101131678,1662.6656199540012,"[88, 0, 166]",166,l,1.4585429253056645,colour,0.06
80,74,1,1,12,46,596,1663.1837085378356,1664.3295904784463,"[54, 0, 200]",200,a,0.6225508651696146,colour,0.06
80,74,1,1,12,47,597,1664.83993643336,1666.2096252157353,"[60, 0, 194]",194,a,0.8463683407753706,colour,0.06
80,74,1,1,12,48,598,1666.7305235010572,1667.9376288866624,"[93, 0, 161]",161,l,0.6837353194132447,colour,0.06
80,74,1,1,12,49,599,1668.4494364056736,1669.6496439627372,"[55, 0, 199]",199,a,0.6769934543408453,colour,0.06
80,74,1,1,12,50,600,1670.1680196612142,1671.2656085323542,"[94, 0, 160]",160,l,0.5742144729010761,colour,0.06
80,74,1,1,13,1,601,1677.1684418646619,1678.1775932828896,"[66, 0, 188]",188,a,0.4849798744544387,colour,0.06
80,74,1,1,13,2,602,1678.6849042559043,1679.7215934246778,"[97, 0, 157]",157,l,0.5257910410873592,colour,0.06
80,74,1,1,13,3,603,1680.2348101269454,1681.3456424819306,"[72, 0, 182]",182,a,0.5873547689989209,colour,0.06
80,74,1,1,13,4,604,1681.8599426560104,1683.4336762423627,"[80, 0, 174]",174,a,1.050484430976212,colour,0.06
80,74,1,1,13,5,605,1683.9537521763705,1685.0658322372474,"[87, 0, 167]",167,l,0.5888190902769566,colour,0.06
80,74,1,1,13,6,606,1685.57869881019,1686.785656502936,"[73, 0, 181]",181,a,0.6839133379980922,colour,0.06
80,74,1,1,13,7,607,1687.2974506313913,1688.6096488465555,"[99, 0, 155]",155,l,0.7889344873838127,colour,0.06
80,74,1,1,13,8,608,1689.1255058962852,1690.2896319897845,"[68, 0, 186]",186,a,0.6407339721918106,colour,0.06
80,74,1,1,13,9,609,1690.7974368468858,1692.153643080499,"[56, 0, 198]",198,a,0.8328999704681337,colour,0.06
80,74,1,1,13,10,610,1692.6704122787341,1693.9136223644018,"[93, 0, 161]",161,l,0.7199002779088914,colour,0.06
80,74,1,1,13,11,611,1694.4131560502574,1695.5936437109485,"[52, 0, 202]",202,a,0.6572727705352008,colour,0.06
80,74,1,1,13,12,612,1696.1005852562375,1702.1377080497332,"[84, 0, 170]",170,a,5.514184777159244,colour,0.06
80,74,1,1,13,13,613,1702.6474340897985,1703.729659795761,"[59, 0, 195]",195,a,0.5588887226767838,colour,0.06
80,74,1,1,13,14,614,1704.2411278192885,1705.2096433327533,"[91, 0, 163]",163,l,0.4452068875543773,colour,0.06
80,74,1,1,13,15,615,1705.7255259822123,1706.9456361806951,"[69, 0, 185]",185,a,0.6967212278395891,colour,0.06
80,74,1,1,13,16,616,1707.4599418682046,1711.0577197861858,"[82, 0, 172]",172,a,3.0743641345761716,colour,0.06
80,74,1,1,13,17,617,1711.5692228623666,1712.9616566761397,"[50, 0, 204]",204,a,0.8691047080792487,colour,0.06
80,74,1,1,13,18,618,1713.4630126897246,1714.6817066161893,"[86, 0, 168]",168,l,0.6952777802944183,colour,0.06
80,74,1,1,13,19,619,1715.197410065215,1716.2896540453658,"[62, 0, 192]",192,a,0.5689361416734755,colour,0.06
80,74,1,1,13,20,620,1716.79429316381,1721.0576878846623,"[83, 0, 171]",171,l,3.7385473363101482,colour,0.06
80,74,1,1,13,21,621,1721.5771257868037,1722.7136164568365,"[85, 0, 169]",169,l,0.6131418715231121,colour,0.06
80,74,1,1,13,22,622,1723.2333887345158,1724.2496959506534,"[55, 0, 199]",199,a,0.4929399071261287,colour,0.06
80,74,1,1,13,23,623,1724.7646629069932,1726.329648767598,"[92, 0, 162]",162,l,1.041624065488577,colour,0.06
80,74,1,1,13,24,624,1726.8428209652193,1728.0176781960763,"[67, 0, 187]",187,a,0.6515738107264042,colour,0.06
80,74,1,1,13,25,625,1728.5302848299034,1729.8576693739742,"[94, 0, 160]",160,l,0.804001874756068,colour,0.06
80,74,1,1,13,26,626,1730.3740829285234,1731.8577288445085,"[90, 0, 164]",164,l,0.9604901024140418,colour,0.06
80,74,1,1,13,27,627,1732.3740896238014,1733.8257335391827,"[96, 0, 158]",158,l,0.9284136649221182,colour,0.06
80,74,1,1,13,28,628,1734.3428445961326,1735.8177093099803,"[98, 0, 156]",156,l,0.9603955796919763,colour,0.06
80,74,1,1,13,29,629,1736.334127197042,1737.441679598298,"[34, 0, 220]",220,a,0.584283160045743,colour,0.06
80,74,1,1,13,30,630,1737.9492154577747,1739.113670413848,"[74, 0, 180]",180,a,0.6411270312964916,colour,0.06
80,74,1,1,13,31,631,1739.621075516101,1740.7217001570389,"[60, 0, 194]",194,a,0.5772470915690064,colour,0.06
80,74,1,1,13,32,632,1741.2304179500788,1742.4337447718717,"[58, 0, 196]",196,a,0.6800217404961586,colour,0.06
80,74,1,1,13,33,633,1742.9492138824426,1744.0576807954349,"[63, 0, 191]",191,a,0.5975770559161901,colour,0.06
80,74,1,1,13,34,634,1744.577419990208,1745.6816869238392,"[64, 0, 190]",190,a,0.5810020244680345,colour,0.06
80,74,1,1,13,35,635,1746.2024056147784,1747.321691098623,"[21, 0, 233]",233,a,0.5963466796092689,colour,0.06
80,74,1,1,13,36,636,1747.8430135562085,1751.465715658851,"[77, 0, 177]",177,a,3.0992898950353265,colour,0.06
80,74,1,1,13,37,637,1751.9837223226205,1753.2976885149255,"[70, 0, 184]",184,a,0.7912577884271741,colour,0.06
80,74,1,1,13,38,638,1753.814023300074,1754.9616401349194,"[61, 0, 193]",193,a,0.6248064246028662,colour,0.06
80,74,1,1,13,39,639,1755.4702011770569,1756.6017163833603,"[78, 0, 176]",176,a,0.6080498294904828,colour,0.06
80,74,1,1,13,40,640,1757.1055512670428,1758.2818460376002,"[76, 0, 178]",178,a,0.6529412460513413,colour,0.06
80,74,1,1,13,41,641,1758.7930793287233,1760.4416756597348,"[53, 0, 201]",201,a,1.1252636802382767,colour,0.06
80,74,1,1,13,42,642,1760.9512488874607,1762.1857128231786,"[54, 0, 200]",200,a,0.7111190757714212,colour,0.06
80,74,1,1,13,43,643,1762.701304025948,1764.1617023623548,"[4, 0, 250]",250,a,0.937100344337523,colour,0.06
80,74,1,1,13,44,644,1764.6700956262648,1765.9217194556259,"[81, 0, 173]",173,l,0.7283691605553031,colour,0.06
80,74,1,1,13,45,645,1766.4356639860198,1767.6496943752281,"[89, 0, 165]",165,l,0.6907851723954082,colour,0.06
80,74,1,1,13,46,646,1768.1700337920338,1769.2417252841406,"[57, 0, 197]",197,a,0.5606677271425724,colour,0.06
80,74,1,1,13,47,647,1769.7513568014838,1770.8417686074972,"[88, 0, 166]",166,l,0.567064976785332,colour,0.06
80,74,1,1,13,48,648,1771.3608532291837,1772.5136940442026,"[75, 0, 179]",179,a,0.6297039058990777,colour,0.06
80,74,1,1,13,49,649,1773.0326715400442,1774.1617200854234,"[79, 0, 175]",175,a,0.6056769038550556,colour,0.06
80,74,1,1,13,50,650,1774.6732952352613,1775.8097287975252,"[51, 0, 203]",203,a,0.613128480501473,colour,0.06
80,74,1,1,14,1,651,1783.438103471417,1784.2737071989104,"[53, 0, 201]",201,a,0.3115243436768651,colour,0.06
80,74,1,1,14,2,652,1784.7844607848674,1785.449742030818,"[68, 0, 186]",186,a,0.14195647230371833,colour,0.06
80,74,1,1,14,3,653,1785.9562909109518,1787.2497065844946,"[81, 0, 173]",173,a,0.7700164630077779,colour,0.06
80,74,1,1,14,4,654,1787.7631387207657,1792.721731664613,"[82, 0, 172]",172,l,4.435305979568511,colour,0.06
80,74,1,1,14,5,655,1793.231854702346,1794.4097114680335,"[67, 0, 187]",187,a,0.6545831919647753,colour,0.06
80,74,1,1,14,6,656,1794.9192401915789,1796.2498125294223,"[66, 0, 188]",188,a,0.807153828907758,colour,0.06
80,74,1,1,14,7,657,1796.7631292683072,1797.8977538933977,"[96, 0, 158]",158,l,0.6114298207685351,colour,0.06
80,74,1,1,14,8,658,1798.419237040449,1799.6098174131475,"[83, 0, 171]",171,l,0.6665923614054918,colour,0.06
80,74,1,1,14,9,659,1800.1130599514581,1801.3136944384314,"[75, 0, 179]",179,a,0.6777433380484581,colour,0.06
80,74,1,1,14,10,660,1801.8317968067713,1803.1697935457341,"[77, 0, 177]",177,a,0.814661331474781,colour,0.06
80,74,1,1,14,11,661,1803.6911975299008,1804.7777307350188,"[89, 0, 165]",165,l,0.5633214651606977,colour,0.06
80,74,1,1,14,12,662,1805.2867636056617,1806.4097378561273,"[93, 0, 161]",161,l,0.5996601106598973,colour,0.06
80,74,1,1,14,13,663,1806.9273943901062,1808.2338487473316,"[92, 0, 162]",162,l,0.7831429741345346,colour,0.06
80,74,1,1,14,14,664,1808.7399419471622,1810.0657755234279,"[91, 0, 163]",163,l,0.8025375534780324,colour,0.06
80,74,1,1,14,15,665,1810.5836120457388,1811.8577733491547,"[65, 0, 189]",189,a,0.7507833605632186,colour,0.06
80,74,1,1,14,16,666,1812.3671224787831,1814.1377584617585,"[61, 0, 193]",193,a,1.2472611907869577,colour,0.06
80,74,1,1,14,17,667,1814.648250927683,1816.0817794776522,"[87, 0, 167]",167,l,0.9101655730046332,colour,0.06
80,74,1,1,14,18,668,1816.601438721642,1817.8177514513955,"[73, 0, 181]",181,a,0.6931777899153531,colour,0.06
80,74,1,1,14,19,669,1818.337631643284,1819.7697391947731,"[34, 0, 220]",220,a,0.9089529193006456,colour,0.06
80,74,1,1,14,20,670,1820.2839735965244,1821.5057552796789,"[57, 0, 197]",197,a,0.6984592722728848,colour,0.06
80,74,1,1,14,21,671,1822.0059313289821,1824.4257611087523,"[51, 0, 203]",203,a,1.8965782611630857,colour,0.06
80,74,1,1,14,22,672,1824.943275464233,1826.2977621639147,"[41, 0, 213]",213,a,0.8310611010529101,colour,0.06
80,74,1,1,14,23,673,1826.8182918089442,1827.8898363960907,"[88, 0, 166]",166,l,0.548452970571816,colour,0.06
80,74,1,1,14,24,674,1828.3964920090511,1830.1377820926718,"[84, 0, 170]",170,l,1.217998786829412,colour,0.06
80,74,1,1,14,25,675,1830.6464443537407,1832.0417532473803,"[80, 0, 174]",174,l,0.8719754554331303,colour,0.06
80,74,1,1,14,26,676,1832.553467425052,1833.801753405016,"[58, 0, 196]",196,a,0.7257118774577975,colour,0.06
80,74,1,1,14,27,677,1834.318138208706,1835.8178463685326,"[52, 0, 202]",202,a,0.9764499459415674,colour,0.06
80,74,1,1,14,28,678,1836.3338144826703,1837.7617511996068,"[69, 0, 185]",185,a,0.903405197430402,colour,0.06
80,74,1,1,14,29,679,1838.2724382253364,1839.7618004302494,"[74, 0, 180]",180,a,0.9661079295910895,colour,0.06
80,74,1,1,14,30,680,1840.2724429513328,1841.5377935143188,"[95, 0, 159]",159,l,0.7401038180105388,colour,0.06
80,74,1,1,14,31,681,1842.0555571750738,1843.3377974526957,"[63, 0, 191]",191,a,0.7589060519821942,colour,0.06
80,74,1,1,14,32,682,1843.8524099471979,1845.0658212094568,"[90, 0, 164]",164,l,0.6905953381210566,colour,0.06
80,74,1,1,14,33,683,1845.5867387931794,1846.7778630675748,"[55, 0, 199]",199,a,0.6678211619146168,colour,0.06
80,74,1,1,14,34,684,1847.289969122503,1848.5857766261324,"[72, 0, 182]",182,a,0.7725705574266613,colour,0.06
80,74,1,1,14,35,685,1849.1024040393531,1850.441769788973,"[85, 0, 169]",169,l,0.8159929267130792,colour,0.06
80,74,1,1,14,36,686,1850.9528538123704,1852.5617456855252,"[94, 0, 160]",160,l,1.0856419303454459,colour,0.06
80,74,1,1,14,37,687,1853.0807731999084,1854.2657719790004,"[62, 0, 192]",192,a,0.6586551717482507,colour,0.06
80,74,1,1,14,38,688,1854.7868360732682,1855.993765803054,"[79, 0, 175]",175,a,0.6837136577814817,colour,0.06
80,74,1,1,14,39,689,1856.505552448798,1857.7457933253609,"[17, 0, 237]",237,a,0.7169326446019113,colour,0.06
80,74,1,1,14,40,690,1858.2431927565485,1859.6259111640975,"[64, 0, 190]",190,a,0.85933967679739,colour,0.06
80,74,1,1,14,41,691,1860.1337810056284,1861.5618768366985,"[54, 0, 200]",200,a,0.9046568418852985,colour,0.06
80,74,1,1,14,42,692,1862.0713527840562,1863.3137810844928,"[97, 0, 157]",157,l,0.7316278466023505,colour,0.06
80,74,1,1,14,43,693,1863.8245094642043,1865.5458173500374,"[99, 0, 155]",155,l,1.1983462385833263,colour,0.06
80,74,1,1,14,44,694,1866.0589600089006,1867.2338940398768,"[60, 0, 194]",194,a,0.6517809741199017,colour,0.06
80,74,1,1,14,45,695,1867.7464014245197,1869.1458350731991,"[59, 0, 195]",195,a,0.8761573182418942,colour,0.06
80,74,1,1,14,46,696,1869.640192433726,1870.8098804284818,"[98, 0, 156]",156,l,0.6463588890619576,colour,0.06
80,74,1,1,14,47,697,1871.3276637811214,1872.761858719401,"[71, 0, 183]",183,a,0.91091427532956,colour,0.06
80,74,1,1,14,48,698,1873.280796436593,1874.5938693848439,"[56, 0, 198]",198,a,0.7898407285101712,colour,0.06
80,74,1,1,14,49,699,1875.1089702490717,1876.465849566739,"[50, 0, 204]",204,a,0.8334982241503894,colour,0.06
80,74,1,1,14,50,700,1876.9839247595519,1878.593848511111,"[78, 0, 176]",176,a,1.0864883069880307,colour,0.06
80,74,1,1,15,1,701,1883.9924798943102,1884.6898230053484,"[88, 0, 166]",166,l,0.1731841703876853,colour,0.06
80,74,1,1,15,2,702,1885.1964648338035,1886.385875875596,"[65, 0, 189]",189,a,0.6661354992538691,colour,0.06
80,74,1,1,15,3,703,1886.8994978456758,1889.4098973637447,"[82, 0, 172]",172,a,1.986945956479758,colour,0.06
80,74,1,1,15,4,704,1889.9308129781857,1891.0577922537923,"[54, 0, 200]",200,a,0.6036143293604255,colour,0.06
80,74,1,1,15,5,705,1891.5714256460778,1892.8339086119086,"[62, 0, 192]",192,a,0.7391235339455307,colour,0.06
80,74,1,1,15,6,706,1893.3527265996672,1894.625979299657,"[90, 0, 164]",164,l,0.749992516823113,colour,0.06
80,74,1,1,15,7,707,1895.1359022632241,1896.473821414169,"[67, 0, 187]",187,a,0.8144009984098375,colour,0.06
80,74,1,1,15,8,708,1896.9965554182418,1898.2178046209738,"[52, 0, 202]",202,a,0.6980528230778873,colour,0.06
80,74,1,1,15,9,709,1898.73110363679,1899.8898797193542,"[77, 0, 177]",177,a,0.6356285396032035,colour,0.06
80,74,1,1,15,10,710,1900.4028620831668,1901.5218502124771,"[55, 0, 199]",199,a,0.5956692635081708,colour,0.06
80,74,1,1,15,11,711,1902.0278299846686,1903.3138338597491,"[50, 0, 204]",204,a,0.7626716182567179,colour,0.06
80,74,1,1,15,12,712,1903.8247059937567,1905.01783415908,"[81, 0, 173]",173,l,0.6705091646872461,colour,0.06
80,74,1,1,15,13,713,1905.528690145351,1906.7298642019741,"[51, 0, 203]",203,a,0.6779178120195866,colour,0.06
80,74,1,1,15,14,714,1907.2474025823176,1908.529895315878,"[70, 0, 184]",184,a,0.7591025815345347,colour,0.06
80,74,1,1,15,15,715,1909.0442655943334,1910.30583326146,"[89, 0, 165]",165,l,0.7382208378985524,colour,0.06
80,74,1,1,15,16,716,1910.8255161358975,1912.1219132277183,"[27, 0, 227]",227,a,0.7736741155385971,colour,0.06
80,74,1,1,15,17,717,1912.6380097358488,1913.945854765363,"[84, 0, 170]",170,l,0.7845301018096507,colour,0.06
80,74,1,1,15,18,718,1914.4661642499268,1915.8658944652416,"[98, 0, 156]",156,l,0.8764873617328703,colour,0.06
80,74,1,1,15,19,719,1916.3724067173898,1917.561849267222,"[58, 0, 196]",196,a,0.6660890248604119,colour,0.06
80,74,1,1,15,20,720,1918.0755149545148,1919.3538876594976,"[73, 0, 181]",181,a,0.7550924359820783,colour,0.06
80,74,1,1,15,21,721,1919.8732653032057,1921.1219931789674,"[87, 0, 167]",167,l,0.7254255511797965,colour,0.06
80,74,1,1,15,22,722,1921.638831693679,1922.8498566402122,"[60, 0, 194]",194,a,0.6876930836588144,colour,0.06
80,74,1,1,15,23,723,1923.357617386151,1924.6338889198378,"[80, 0, 174]",174,a,0.7529424275271595,colour,0.06
80,74,1,1,15,24,724,1925.1544796107337,1926.5298496293835,"[79, 0, 175]",175,a,0.852103928104043,colour,0.06
80,74,1,1,15,25,725,1927.0469012157992,1932.6578985927626,"[85, 0, 169]",169,l,5.0875950157642365,colour,0.06
80,74,1,1,15,26,726,1933.1720617078245,1934.3458201070316,"[71, 0, 183]",183,a,0.6505037299357355,colour,0.06
80,74,1,1,15,27,727,1934.8496171813458,1936.1779627106152,"[56, 0, 198]",198,a,0.8049498633481562,colour,0.06
80,74,1,1,15,28,728,1936.6933609289117,1938.0579269495793,"[9, 0, 245]",245,a,0.8535977881401777,colour,0.06
80,74,1,1,15,29,729,1938.5716343843378,1939.8178629102185,"[76, 0, 178]",178,a,0.72081951610744,colour,0.06
80,74,1,1,15,30,730,1940.3392657125369,1941.6739368112758,"[63, 0, 191]",191,a,0.8112876415252686,colour,0.06
80,74,1,1,15,31,731,1942.1830937433988,1943.5378840989433,"[59, 0, 195]",195,a,0.8315108739770949,colour,0.06
80,74,1,1,15,32,732,1944.0580502236262,1945.3219092893414,"[95, 0, 159]",159,l,0.7405606796965003,colour,0.06
80,74,1,1,15,33,733,1945.83932597097,1947.0339243658818,"[57, 0, 197]",197,a,0.671236599329859,colour,0.06
80,74,1,1,15,34,734,1947.5424452358857,1948.9539061700925,"[83, 0, 171]",171,l,0.8881826344877481,colour,0.06
80,74,1,1,15,35,735,1949.4643564941362,1950.8578903218731,"[92, 0, 162]",162,l,0.8702531647868454,colour,0.06
80,74,1,1,15,36,736,1951.3705564267002,1952.6499074464664,"[53, 0, 201]",201,a,0.7560419999063015,colour,0.06
80,74,1,1,15,37,737,1953.1673899004236,1954.473909636028,"[74, 0, 180]",180,a,0.7830362417735159,colour,0.06
80,74,1,1,15,38,738,1954.9955629250035,1956.1858951738104,"[97, 0, 157]",157,l,0.6672067614272237,colour,0.06
80,74,1,1,15,39,739,1956.6986652542837,1958.2819078713655,"[96, 0, 158]",158,l,1.0575543702580035,colour,0.06
80,74,1,1,15,40,740,1958.7946708626114,1960.5058887936175,"[93, 0, 161]",161,l,1.1879475079476833,colour,0.06
80,74,1,1,15,41,741,1961.015300150495,1962.385932983365,"[69, 0, 185]",185,a,0.8471627295948565,colour,0.06
80,74,1,1,15,42,742,1962.9060211260803,1964.2339558736421,"[99, 0, 155]",155,l,0.8046639305539429,colour,0.06
80,74,1,1,15,43,743,1964.7497621169314,1965.9618583256379,"[64, 0, 190]",190,a,0.6888557183556259,colour,0.06
80,74,1,1,15,44,744,1966.4703075154684,1967.7379274219275,"[29, 0, 225]",225,a,0.7447579023428261,colour,0.06
80,74,1,1,15,45,745,1968.251499767881,1969.6978933149949,"[72, 0, 182]",182,a,0.9230073331855237,colour,0.06
80,74,1,1,15,46,746,1970.2047100109048,1971.5299795987085,"[94, 0, 160]",160,l,0.8019400876946747,colour,0.06
80,74,1,1,15,47,747,1972.0492032486945,1973.3859065957367,"[78, 0, 176]",176,a,0.8135176012292504,colour,0.06
80,74,1,1,15,48,748,1973.8928662575781,1975.2180499872193,"[66, 0, 188]",188,a,0.8080498296767473,colour,0.06
80,74,1,1,15,49,749,1975.730956338346,1976.9539242871106,"[75, 0, 179]",179,a,0.7117441100999713,colour,0.06
80,74,1,1,15,50,750,1977.4687711200677,1978.8179070209153,"[68, 0, 186]",186,a,0.8257169974967837,colour,0.06
80,74,1,1,16,1,751,1984.2240758393891,1984.9859195924364,"[79, 0, 175]",175,a,0.23809835128486156,colour,0.06
80,74,1,1,16,2,752,1985.5060731139965,1986.6099241455086,"[72, 0, 182]",182,a,0.5805526454932988,colour,0.06
80,74,1,1,16,3,753,1987.131105999928,1988.2579206479713,"[29, 0, 225]",225,a,0.6035670679993927,colour,0.06
80,74,1,1,16,4,754,1988.7716954308562,1990.4819125975482,"[78, 0, 176]",176,a,1.1868817592039704,colour,0.06
80,74,1,1,16,5,755,1990.990407079924,1992.153979819268,"[65, 0, 189]",189,a,0.6402144888415933,colour,0.06
80,74,1,1,16,6,756,1992.6623305478133,1993.905940387398,"[73, 0, 181]",181,a,0.7204024321399629,colour,0.06
80,74,1,1,16,7,757,1994.4122671382502,1995.7299118572846,"[77, 0, 177]",177,a,0.7944652745500207,colour,0.06
80,74,1,1,16,8,758,1996.2404039292596,1997.521928193979,"[81, 0, 173]",173,a,0.7581510478630662,colour,0.06
80,74,1,1,16,9,759,1998.0372574892826,1999.0819527702406,"[6, 0, 248]",248,a,0.521287799347192,colour,0.06
80,74,1,1,16,10,760,1999.5873319259845,2000.9299417897128,"[87, 0, 167]",167,l,0.8191862343810499,colour,0.06
80,74,1,1,16,11,761,2001.4467850308865,2002.6499133538455,"[24, 0, 230]",230,a,0.6797535307705402,colour,0.06
80,74,1,1,16,12,762,2003.1656833630987,2005.889921861235,"[82, 0, 172]",172,a,2.201656518969685,colour,0.06
80,74,1,1,16,13,763,2006.4000110276975,2007.865980323404,"[60, 0, 194]",194,a,0.9426716971211135,colour,0.06
80,74,1,1,16,14,764,2008.3844343973324,2009.6339531168342,"[71, 0, 183]",183,a,0.7262215153314173,colour,0.06
80,74,1,1,16,15,765,2010.1500098463148,2011.4499665233307,"[76, 0, 178]",178,a,0.7766000018455088,colour,0.06
80,74,1,1,16,16,766,2011.9624821785837,2014.6339554795995,"[85, 0, 169]",169,l,2.1483549028635025,colour,0.06
80,74,1,1,16,17,767,2015.1500586834736,2016.8419233891182,"[95, 0, 159]",159,l,1.1685501718893647,colour,0.06
80,74,1,1,16,18,768,2017.3531358065084,2019.4099611667916,"[96, 0, 158]",158,l,1.5335809313692153,colour,0.06
80,74,1,1,16,19,769,2019.9312556618825,2021.081940954551,"[75, 0, 179]",179,a,0.6274058115668595,colour,0.06
80,74,1,1,16,20,770,2021.603333123494,2023.3459973377176,"[55, 0, 199]",199,a,1.2195690530352294,colour,0.06
80,74,1,1,16,21,771,2023.853173615411,2025.0819405610673,"[69, 0, 185]",185,a,0.705634762533009,colour,0.06
80,74,1,1,16,22,772,2025.6031283233315,2026.8739821040072,"[62, 0, 192]",192,a,0.7477239612489939,colour,0.06
80,74,1,1,16,23,773,2027.3844292769209,2028.8419635617174,"[59, 0, 195]",195,a,0.9342504707165062,colour,0.06
80,74,1,1,16,24,774,2029.3531417138875,2030.6019349680282,"[91, 0, 163]",163,l,0.7256394098512828,colour,0.06
80,74,1,1,16,25,775,2031.1093715787865,2032.4740683562122,"[98, 0, 156]",156,l,0.8395260451361537,colour,0.06
80,74,1,1,16,26,776,2032.9862882327288,2034.4419537154026,"[86, 0, 168]",168,l,0.9324021488428116,colour,0.06
80,74,1,1,16,27,777,2034.9550699866377,2038.1059856801294,"[89, 0, 165]",165,a,2.627646452281624,colour,0.06
80,74,1,1,16,28,778,2038.6267996821553,2039.8579702726565,"[56, 0, 198]",198,a,0.7077749245800078,colour,0.06
80,74,1,1,16,29,779,2040.3769020820037,2041.9060589354485,"[51, 0, 203]",203,a,1.0087296087294817,colour,0.06
80,74,1,1,16,30,780,2042.409234520048,2043.8580195032991,"[80, 0, 174]",174,a,0.9254873851314187,colour,0.06
80,74,1,1,16,31,781,2044.3779197814874,2045.6259324317798,"[97, 0, 157]",157,l,0.7247044178657234,colour,0.06
80,74,1,1,16,32,782,2046.1435972368345,2047.458020684775,"[93, 0, 161]",161,l,0.7911687786690891,colour,0.06
80,74,1,1,16,33,783,2047.9717545076273,2049.2739891931415,"[53, 0, 201]",201,a,0.7789863180369139,colour,0.06
80,74,1,1,16,34,784,2049.784183910582,2052.0980421891436,"[54, 0, 200]",200,a,1.7904677321203053,colour,0.06
80,74,1,1,16,35,785,2052.599884209223,2054.201979866717,"[64, 0, 190]",190,a,1.0787945142947137,colour,0.06
80,74,1,1,16,36,786,2054.6999543141574,2056.289927768521,"[50, 0, 204]",204,a,1.0666459240019321,colour,0.06
80,74,1,1,16,37,787,2056.809305412229,2058.2819890039973,"[67, 0, 187]",187,a,0.9493068302981555,colour,0.06
80,74,1,1,16,38,788,2058.7937071202323,2060.4580289558508,"[58, 0, 196]",196,a,1.140987609513104,colour,0.06
80,74,1,1,16,39,789,2060.9655770249665,2062.16997392755,"[99, 0, 155]",155,l,0.6813970524817705,colour,0.06
80,74,1,1,16,40,790,2062.6843477510847,2064.1540306257084,"[57, 0, 197]",197,a,0.9589084149338305,colour,0.06
80,74,1,1,16,41,791,2064.6718131909147,2066.0099926744588,"[90, 0, 164]",164,l,0.8147408883087337,colour,0.06
80,74,1,1,16,42,792,2066.5334671102464,2067.8020101930015,"[52, 0, 202]",202,a,0.7450792812742293,colour,0.06
80,74,1,1,16,43,793,2068.3146424270235,2069.8500342648476,"[84, 0, 170]",170,l,1.0121269286610186,colour,0.06
80,74,1,1,16,44,794,2070.361537340563,2071.54601072846,"[66, 0, 188]",188,a,0.6611430998891592,colour,0.06
80,74,1,1,16,45,795,2072.064703079406,2073.586045229342,"[83, 0, 171]",171,l,0.9980595177039504,colour,0.06
80,74,1,1,16,46,796,2074.0959268393926,2075.2820532009937,"[63, 0, 191]",191,a,0.6630091452971101,colour,0.06
80,74,1,1,16,47,797,2075.7990992730483,2077.33001780184,"[68, 0, 186]",186,a,1.0076670106500387,colour,0.06
80,74,1,1,16,48,798,2077.84594219923,2079.1060112798586,"[92, 0, 162]",162,l,0.7370239379815757,colour,0.06
80,74,1,1,16,49,799,2079.613467976451,2080.986086189747,"[74, 0, 180]",180,a,0.8494623997248709,colour,0.06
80,74,1,1,16,50,800,2081.5041216043755,2082.890027018264,"[61, 0, 193]",193,a,0.8627133667469025,colour,0.06
