id,age,condition,counterbalance,block,trialinblock,trial,tstart,tend,trialstim,trialintensity,response,RT,trialtype,colourfreq
105,21,0,2,Practice,1,NA,5.9076701290905476e-06,0.7402353780926205,"[66, 0, 188]",188,a,0.21566293720388785,colour,0.5
105,21,0,2,Practice,2,NA,1.250880639476236,2.220239820657298,"[1, 0, 253]",253,a,0.44602065958315507,colour,0.5
105,21,0,2,Practice,3,NA,2.735272919468116,3.8602020271937363,"[97, 0, 157]",157,l,0.6016327276593074,colour,0.5
105,21,0,2,Practice,4,NA,4.3758656733552925,6.148232183186337,"[54, 0, 200]",200,a,1.2490370466839522,colour,0.5
105,21,0,2,Practice,5,NA,6.65751079923939,7.708233427722007,"[28, 0, 226]",226,a,0.5278516020043753,colour,0.5
105,21,0,2,Practice,6,NA,8.220289839082398,9.084200319484808,"[87, 0, 167]",167,l,0.34062434028601274,colour,0.5
105,21,0,2,Practice,7,NA,9.59531228832202,10.50017604912864,"[17, 0, 237]",237,a,0.3814996392466128,colour,0.5
105,21,0,2,Practice,8,NA,11.017149232968222,12.02026022184873,"[47, 0, 207]",207,a,0.4797779811779037,colour,0.5
105,21,0,2,Practice,9,NA,12.532815636019222,13.548252426902764,"[77, 0, 177]",177,l,0.4925094444770366,colour,0.5
105,21,0,2,Practice,10,NA,14.064009414520115,15.308191916381475,"[11, 0, 243]",243,a,0.7207801772747189,colour,0.5
105,21,0,2,1,1,1,4.757336955692153,5.903989029058721,"[49, 0, 205]",205,a,0.6227294782875106,colour,0.5
105,21,0,2,1,2,2,6.414414918283001,7.319935614068527,"[1, 0, 253]",253,a,0.38223455572733656,colour,0.5
105,21,0,2,1,3,3,7.836260921380017,8.776161609159317,"[82, 0, 172]",172,l,0.4166716553736478,colour,0.5
105,21,0,2,1,4,4,9.289310942927841,10.311995680327527,"[92, 0, 162]",162,l,0.4992560250684619,colour,0.5
105,21,0,2,1,5,5,10.820596487552393,11.735997989831958,"[21, 0, 233]",233,a,0.3922634482732974,colour,0.5
105,21,0,2,1,6,6,12.242540164443199,13.199964632629417,"[52, 0, 202]",202,a,0.4340867343125865,colour,0.5
105,21,0,2,1,7,7,13.711229807522614,14.903979970607907,"[23, 0, 231]",231,a,0.6693738322937861,colour,0.5
105,21,0,2,1,8,8,15.414319607545622,16.456005441374145,"[13, 0, 241]",241,a,0.5183039891999215,colour,0.5
105,21,0,2,1,9,9,16.976755607582163,18.02394268126227,"[38, 0, 216]",216,a,0.5237804167554714,colour,0.5
105,21,0,2,1,10,10,18.53928179835202,19.455967632180545,"[22, 0, 232]",232,a,0.39332446915796027,colour,0.5
105,21,0,2,1,11,11,19.97673591529019,20.95200239145197,"[99, 0, 155]",155,l,0.4518027115846053,colour,0.5
105,21,0,2,1,12,12,21.461206964449957,22.623956702183932,"[68, 0, 186]",186,a,0.6394781699054874,colour,0.5
105,21,0,2,1,13,13,23.133072659838945,24.28000830230303,"[43, 0, 211]",211,a,0.6234730593860149,colour,0.5
105,21,0,2,1,14,14,24.789249502995517,26.184051682066638,"[11, 0, 243]",243,a,0.8713376267696731,colour,0.5
105,21,0,2,1,15,15,26.696216007170733,27.60795907472493,"[74, 0, 180]",180,l,0.3890874747885391,colour,0.5
105,21,0,2,1,16,16,28.117482269066386,28.767971977067646,"[8, 0, 246]",246,a,0.12719687254866585,colour,0.5
105,21,0,2,1,17,17,29.28931330604246,30.19197861891007,"[87, 0, 167]",167,l,0.37934727128595114,colour,0.5
105,21,0,2,1,18,18,30.711182152153924,31.895982535323128,"[77, 0, 177]",177,l,0.6618911536061205,colour,0.5
105,21,0,2,1,19,19,32.41410771844676,33.64798602950759,"[36, 0, 218]",218,a,0.7103519249358214,colour,0.5
105,21,0,2,1,20,20,34.16426407528343,35.45597275218461,"[56, 0, 198]",198,a,0.7683244691579603,colour,0.5
105,21,0,2,1,21,21,35.976730401453096,36.99197223858209,"[34, 0, 220]",220,a,0.49175838025985286,colour,0.5
105,21,0,2,1,22,22,37.508010432182346,38.43191940023098,"[90, 0, 164]",164,l,0.40050152339972556,colour,0.5
105,21,0,2,1,23,23,38.94549133069813,40.91998153651366,"[59, 0, 195]",195,l,1.4511075735208578,colour,0.5
105,21,0,2,1,24,24,41.42993559833849,42.776066298480146,"[76, 0, 178]",178,l,0.8227858770405874,colour,0.5
105,21,0,2,1,25,25,43.28922429686645,44.343972424510866,"[42, 0, 212]",212,l,0.5313808553037234,colour,0.5
105,21,0,2,1,26,26,44.85170165071031,46.12798456440214,"[17, 0, 237]",237,a,0.7528766506002285,colour,0.5
105,21,0,2,1,27,27,46.64864926604787,47.919983111904,"[98, 0, 156]",156,l,0.7480008380953223,colour,0.5
105,21,0,2,1,28,28,48.42985485988902,49.43995267548598,"[5, 0, 249]",249,a,0.4867809555144049,colour,0.5
105,21,0,2,1,29,29,49.96110220142873,52.03196689806646,"[14, 0, 240]",240,a,1.5474899411783554,colour,0.5
105,21,0,2,1,30,30,52.539222327584866,53.72800646221731,"[79, 0, 175]",175,l,0.6654404930304736,colour,0.5
105,21,0,2,1,31,31,54.24224832461914,55.16000305628404,"[54, 0, 200]",200,a,0.3942807270796038,colour,0.5
105,21,0,2,1,32,32,55.67983201687457,56.7519282696303,"[94, 0, 160]",160,l,0.54870889429003,colour,0.5
105,21,0,2,1,33,33,57.25797577376943,58.22390140622156,"[73, 0, 181]",181,a,0.44251267396612093,colour,0.5
105,21,0,2,1,34,34,58.74228101380868,59.687958239752334,"[88, 0, 166]",166,l,0.4222595413448289,colour,0.5
105,21,0,2,1,35,35,60.195399958407506,61.72797140997136,"[69, 0, 185]",185,a,1.0091864561545663,colour,0.5
105,21,0,2,1,36,36,62.24235584452981,63.639980323496275,"[58, 0, 196]",196,a,0.8743450342444703,colour,0.5
105,21,0,2,1,37,37,64.14854135224596,64.95192322839284,"[4, 0, 250]",250,a,0.28002878226106986,colour,0.5
105,21,0,2,1,38,38,65.46105218300363,66.03194996266393,"[16, 0, 238]",238,a,0.0475631965091452,colour,0.5
105,21,0,2,1,39,39,66.5391793983872,67.3599381504464,"[37, 0, 217]",217,a,0.2975954918656498,colour,0.5
105,21,0,2,1,40,40,67.86729558609659,68.60794922854984,"[50, 0, 204]",204,a,0.21731709007872269,colour,0.5
105,21,0,2,1,41,41,69.11730937071843,72.43994873703923,"[7, 0, 247]",247,a,2.799320930847898,colour,0.5
105,21,0,2,1,42,42,72.96108723530779,73.99995628313627,"[20, 0, 234]",234,a,0.5154710555216298,colour,0.5
105,21,0,2,1,43,43,74.50801633991068,75.3839312439668,"[71, 0, 183]",183,l,0.3526271886075847,colour,0.5
105,21,0,2,1,44,44,75.89849212154513,76.9999176862184,"[63, 0, 191]",191,l,0.5780334800365381,colour,0.5
105,21,0,2,1,45,45,77.5078710107482,78.67198345530778,"[91, 0, 163]",163,l,0.6407794367987663,colour,0.5
105,21,0,2,1,46,46,79.17976309382357,80.27191988861887,"[81, 0, 173]",173,l,0.5687611655448563,colour,0.5
105,21,0,2,1,47,47,80.7891648260993,81.75987529265694,"[32, 0, 222]",222,a,0.44738415419124067,colour,0.5
105,21,0,2,1,48,48,82.27344682923285,82.98394408333115,"[25, 0, 229]",229,a,0.18701379717094824,colour,0.5
105,21,0,2,1,49,49,83.49226959230145,84.25595179956872,"[29, 0, 225]",225,a,0.2402944549685344,colour,0.5
105,21,0,2,1,50,50,84.77341414004331,85.34393303992692,"[0, 0, 254]",254,a,0.04712760297115892,colour,0.5
105,21,0,2,2,1,51,95.6789344419958,100.23189214611193,"[45, 0, 209]",209,a,4.028758629166987,colour,0.5
105,21,0,2,2,2,52,100.74216049694223,102.09592944488395,"[23, 0, 231]",231,a,0.8304064017138444,colour,0.5
105,21,0,2,2,3,53,102.61712583852932,103.72791115153814,"[91, 0, 163]",163,l,0.5873959853197448,colour,0.5
105,21,0,2,2,4,54,104.24216601077933,105.1599526439677,"[24, 0, 230]",230,a,0.40688497805967927,colour,0.5
105,21,0,2,2,5,55,105.66727305809036,106.9438749870169,"[7, 0, 247]",247,a,0.7532228411873803,colour,0.5
105,21,0,2,2,6,56,107.46407534432365,108.45593139837729,"[51, 0, 203]",203,a,0.46849941555410624,colour,0.5
105,21,0,2,2,7,57,108.96409897506237,109.98395117255859,"[76, 0, 178]",178,l,0.49647232209099457,colour,0.5
105,21,0,2,2,8,58,110.49537231045542,111.43190128332935,"[77, 0, 177]",177,l,0.4132778850616887,colour,0.5
105,21,0,2,2,9,59,111.94850858428981,112.93593544710893,"[92, 0, 162]",162,l,0.4641395412036218,colour,0.5
105,21,0,2,2,10,60,113.44849125505425,114.55193882470485,"[67, 0, 187]",187,a,0.5800594234606251,colour,0.5
105,21,0,2,2,11,61,115.0578465135186,116.3279184770654,"[56, 0, 198]",198,a,0.7466133189154789,colour,0.5
105,21,0,2,2,12,62,116.83915017504478,117.64788284187671,"[42, 0, 212]",212,a,0.2854540098342113,colour,0.5
105,21,0,2,2,13,63,118.16721398121445,118.77597453235649,"[99, 0, 155]",155,l,0.08538776496425271,colour,0.5
105,21,0,2,2,14,64,119.29228172270814,119.94388247007737,"[46, 0, 208]",208,a,0.12825237959623337,colour,0.5
105,21,0,2,2,15,65,120.46429629187332,121.07192729291273,"[13, 0, 241]",241,a,0.08445592550560832,colour,0.5
105,21,0,2,2,16,66,121.58906786126317,122.23988524905872,"[62, 0, 192]",192,a,0.1273000601795502,colour,0.5
105,21,0,2,2,17,67,122.76090913818916,123.31190273264656,"[22, 0, 232]",232,a,0.02778701123315841,colour,0.5
105,21,0,2,2,18,68,123.82343414740171,125.47190303198295,"[85, 0, 169]",169,l,1.1251126399147324,colour,0.5
105,21,0,2,2,19,69,125.97970275662374,126.50391443463741,"[29, 0, 225]",225,a,0.0016175252385437489,colour,0.5
105,21,0,2,2,20,70,127.02655072894413,127.81591877952451,"[54, 0, 200]",200,a,0.26600077823968604,colour,0.5
105,21,0,2,2,21,71,128.32357790117385,129.1679114823346,"[9, 0, 245]",245,a,0.32116953330114484,colour,0.5
105,21,0,2,2,22,72,129.68285478430334,130.45594990911195,"[34, 0, 220]",220,a,0.2502319752238691,colour,0.5
105,21,0,2,2,23,73,130.96406904276228,131.63987871119753,"[10, 0, 244]",244,a,0.15241915918886662,colour,0.5
105,21,0,2,2,24,74,132.1515905073611,132.68787947058445,"[16, 0, 238]",238,a,0.013000066217500716,colour,0.5
105,21,0,2,2,25,75,133.19844478124287,133.72802772989962,"[38, 0, 216]",216,a,0.006608340714592487,colour,0.5
105,21,0,2,2,26,76,134.26085360592697,136.5279240696691,"[32, 0, 222]",222,a,1.743507843813859,colour,0.5
105,21,0,2,2,27,77,137.04212379053934,137.88787206623238,"[28, 0, 226]",226,a,0.3223380741546862,colour,0.5
105,21,0,2,2,28,78,138.40145738748834,139.27998191461666,"[81, 0, 173]",173,l,0.35578071291092783,colour,0.5
105,21,0,2,2,29,79,139.792206891987,140.69594070885796,"[71, 0, 183]",183,l,0.3804008091101423,colour,0.5
105,21,0,2,2,30,80,141.21406195353484,142.0799381189281,"[35, 0, 219]",219,a,0.3426160191302188,colour,0.5
105,21,0,2,2,31,81,142.5897204639041,143.49590872856788,"[90, 0, 164]",164,l,0.3835846595466137,colour,0.5
105,21,0,2,2,32,82,144.0108173720655,144.8319231023779,"[80, 0, 174]",174,l,0.29750530113233253,colour,0.5
105,21,0,2,2,33,83,145.3390115412767,146.03190348885255,"[52, 0, 202]",202,a,0.16952506906818599,colour,0.5
105,21,0,2,2,34,84,146.54206589516252,147.3038923004642,"[39, 0, 215]",215,a,0.23840202530846,colour,0.5
105,21,0,2,2,35,85,147.82344123662915,148.47187546279747,"[11, 0, 243]",243,a,0.12512327381409705,colour,0.5
105,21,0,2,2,36,86,148.97960153821623,149.85592879896285,"[79, 0, 175]",175,l,0.35295880684861913,colour,0.5
105,21,0,2,2,37,87,150.37026518437779,151.19986144499853,"[69, 0, 185]",185,l,0.30647592968307436,colour,0.5
105,21,0,2,2,38,88,151.71395285823382,152.32789248321205,"[75, 0, 179]",179,l,0.09057668491732329,colour,0.5
105,21,0,2,2,39,89,152.83906431664946,153.48788529948797,"[84, 0, 170]",170,l,0.1254537104978226,colour,0.5
105,21,0,2,2,40,90,153.99522461823653,154.84789355448447,"[41, 0, 213]",213,a,0.32934262388153,colour,0.5
105,21,0,2,2,41,91,155.35455388284754,156.1838744513807,"[31, 0, 223]",223,a,0.3057540101581253,colour,0.5
105,21,0,2,2,42,92,156.6983116613119,157.67184600309702,"[97, 0, 157]",157,l,0.4501339863636531,colour,0.5
105,21,0,2,2,43,93,158.18275395972887,158.96791731129633,"[94, 0, 160]",160,l,0.26188548223581165,colour,0.5
105,21,0,2,2,44,94,159.4796200489509,160.34387041837908,"[47, 0, 207]",207,a,0.3409374477923848,colour,0.5
105,21,0,2,2,45,95,160.85456530441297,161.64788205421064,"[93, 0, 161]",161,l,0.2700762958265841,colour,0.5
105,21,0,2,2,46,96,162.1670556551544,162.9999298954499,"[63, 0, 191]",191,a,0.30948570027248934,colour,0.5
105,21,0,2,2,47,97,163.51075671979925,164.41588278202107,"[8, 0, 246]",246,a,0.3817406729212962,colour,0.5
105,21,0,2,2,48,98,164.93271693820134,165.76789045101032,"[70, 0, 184]",184,l,0.3118546835030429,colour,0.5
105,21,0,2,2,49,99,166.27649243973428,167.1278817706043,"[2, 0, 252]",252,a,0.3281000399729237,colour,0.5
105,21,0,2,2,50,100,167.63577444286784,168.5598949061823,"[3, 0, 251]",251,a,0.40073625557124615,colour,0.5
105,21,0,2,3,1,101,175.85373153258115,177.13590559357544,"[94, 0, 160]",160,l,0.7581750598037615,colour,0.5
105,21,0,2,3,2,102,177.65139673516387,179.47988274419913,"[41, 0, 213]",213,a,1.3051191305276006,colour,0.5
105,21,0,2,3,3,103,179.99515569518553,180.78389162308304,"[54, 0, 200]",200,a,0.26543127704644576,colour,0.5
105,21,0,2,3,4,104,181.2919855506043,181.8318750531762,"[6, 0, 248]",248,a,0.016532470239326358,colour,0.5
105,21,0,2,3,5,105,182.33890323364176,182.97588048194302,"[5, 0, 249]",249,a,0.11372064665192738,colour,0.5
105,21,0,2,3,6,106,183.49511000904022,184.07187097292626,"[7, 0, 247]",247,a,0.05333815922494978,colour,0.5
105,21,0,2,3,7,107,184.58881658752216,185.19184589281213,"[13, 0, 241]",241,a,0.07960768218617886,colour,0.5
105,21,0,2,3,8,108,185.69823092292063,186.28789073455846,"[97, 0, 157]",157,l,0.06632601621095091,colour,0.5
105,21,0,2,3,9,109,186.80757003370672,188.10386150173144,"[61, 0, 193]",193,l,0.7729025341686793,colour,0.5
105,21,0,2,3,10,110,188.62006944289897,189.34390192606952,"[32, 0, 222]",222,a,0.20044473081361502,colour,0.5
105,21,0,2,3,11,111,189.85445069521666,190.4159241358284,"[36, 0, 218]",218,a,0.038252285099588335,colour,0.5
105,21,0,2,3,12,112,190.93259681522613,191.67982217069948,"[14, 0, 240]",240,a,0.22389746771659702,colour,0.5
105,21,0,2,3,13,113,192.19829748285701,193.25589626730653,"[70, 0, 184]",184,l,0.5342638074653223,colour,0.5
105,21,0,2,3,14,114,193.7764215474599,194.63187891285634,"[62, 0, 192]",192,l,0.3322035206365399,colour,0.5
105,21,0,2,3,15,115,195.15136837825412,196.11188965698238,"[16, 0, 238]",238,a,0.43713667715201154,colour,0.5
105,21,0,2,3,16,116,196.62009267986286,197.1838413682999,"[15, 0, 239]",239,a,0.04051532375160605,colour,0.5
105,21,0,2,3,17,117,197.69827818439808,198.62387005606433,"[50, 0, 204]",204,a,0.4022994300466962,colour,0.5
105,21,0,2,3,18,118,199.1357185167726,199.97592538036406,"[98, 0, 156]",156,l,0.3168431358644739,colour,0.5
105,21,0,2,3,19,119,200.49509149830556,201.3278452217346,"[71, 0, 183]",183,l,0.3094636448659003,colour,0.5
105,21,0,2,3,20,120,201.838765781431,202.63184464827646,"[2, 0, 252]",252,a,0.26967260375386104,colour,0.5
105,21,0,2,3,21,121,203.1513124521589,203.92787027033046,"[24, 0, 230]",230,a,0.25376910547493026,colour,0.5
105,21,0,2,3,22,122,204.44818011677125,205.32786924630636,"[35, 0, 219]",219,a,0.356463641684968,colour,0.5
105,21,0,2,3,23,123,205.83875672298018,206.39190701773623,"[23, 0, 231]",231,a,0.029703071690164506,colour,0.5
105,21,0,2,3,24,124,206.90131048293551,208.65589445561636,"[10, 0, 244]",244,a,1.231038288155105,colour,0.5
105,21,0,2,3,25,125,209.16697137214942,210.00786234613042,"[68, 0, 186]",186,l,0.3175402431515977,colour,0.5
105,21,0,2,3,26,126,210.52633293217514,211.22394236619584,"[84, 0, 170]",170,l,0.17445877694990486,colour,0.5
105,21,0,2,3,27,127,211.74499146145536,212.51988134213025,"[11, 0, 243]",243,a,0.25157380831660703,colour,0.5
105,21,0,2,3,28,128,213.0267082673381,213.93587203789502,"[48, 0, 206]",206,a,0.3861285103484988,colour,0.5
105,21,0,2,3,29,129,214.44802887993865,215.2718379686703,"[4, 0, 250]",250,a,0.30051034555071965,colour,0.5
105,21,0,2,3,30,130,215.79190205526538,216.77587607089663,"[74, 0, 180]",180,l,0.4605787802138366,colour,0.5
105,21,0,2,3,31,131,217.29188945220085,218.14386679499876,"[96, 0, 158]",158,l,0.3285805319901556,colour,0.5
105,21,0,2,3,32,132,218.6514325751923,219.5438807371538,"[39, 0, 215]",215,a,0.36925851413980126,colour,0.5
105,21,0,2,3,33,133,220.0574121014797,220.8398906053626,"[31, 0, 223]",223,a,0.25895329931518063,colour,0.5
105,21,0,2,3,34,134,221.35436404915527,222.78385066310875,"[56, 0, 198]",198,l,0.9062965722987428,colour,0.5
105,21,0,2,3,35,135,223.2918165907031,224.14386561349966,"[89, 0, 165]",165,l,0.3286096766241826,colour,0.5
105,21,0,2,3,36,136,224.651253769116,225.23197879217332,"[86, 0, 168]",168,l,0.05728449538582936,colour,0.5
105,21,0,2,3,37,137,225.74497846449958,226.46386306133354,"[73, 0, 181]",181,l,0.19554568134481087,colour,0.5
105,21,0,2,3,38,138,226.97939398139715,227.54386813408928,"[47, 0, 207]",207,a,0.041163200279697776,colour,0.5
105,21,0,2,3,39,139,228.05747393530328,228.91986771504162,"[76, 0, 178]",178,l,0.3389863350894302,colour,0.5
105,21,0,2,3,40,140,229.4325298613985,230.06384124228498,"[20, 0, 234]",234,a,0.10796025622403249,colour,0.5
105,21,0,2,3,41,141,230.57316003064625,231.43989320477704,"[80, 0, 174]",174,l,0.34410121210385114,colour,0.5
105,21,0,2,3,42,142,231.94812025222927,232.73585462989286,"[52, 0, 202]",202,a,0.2643678930471651,colour,0.5
105,21,0,2,3,43,143,233.24508913524915,233.99182730331086,"[53, 0, 201]",201,a,0.22340752341551706,colour,0.5
105,21,0,2,3,44,144,234.51061651064083,235.44786779698916,"[3, 0, 251]",251,a,0.41382375557441264,colour,0.5
105,21,0,2,3,45,145,235.96379177522613,236.91182262438815,"[25, 0, 229]",229,a,0.4245599952992052,colour,0.5
105,21,0,2,3,46,146,237.43255546141881,238.3839379393612,"[92, 0, 162]",162,l,0.42801323637831956,colour,0.5
105,21,0,2,3,47,147,238.90137625520583,240.5918232073309,"[77, 0, 177]",177,l,1.1671155197545886,colour,0.5
105,21,0,2,3,48,148,241.10447668907,241.68783142138273,"[99, 0, 155]",155,l,0.060268665954936296,colour,0.5
105,21,0,2,3,49,149,242.1981950829504,242.73585029761307,"[0, 0, 254]",254,a,0.014287942321971059,colour,0.5
105,21,0,2,3,50,150,243.24503045220627,244.3678170380881,"[63, 0, 191]",191,l,0.5995051719946787,colour,0.5
105,21,0,2,4,1,151,249.02545859420206,251.21586379862856,"[38, 0, 216]",216,a,1.6662502402323298,colour,0.5
105,21,0,2,4,2,152,251.72939634451177,252.49586264858954,"[70, 0, 184]",184,l,0.24317819479620084,colour,0.5
105,21,0,2,4,3,153,253.0105905168457,253.6958233427722,"[43, 0, 211]",211,a,0.16184664895990863,colour,0.5
105,21,0,2,4,4,154,254.2136980399373,254.93585116404574,"[1, 0, 253]",253,a,0.1987645840854384,colour,0.5
105,21,0,2,4,5,155,255.44805763068143,256.15184099337785,"[65, 0, 189]",189,l,0.18054921022849157,colour,0.5
105,21,0,2,4,6,156,256.66687960602576,257.2478436935926,"[26, 0, 228]",228,a,0.05755152291385457,colour,0.5
105,21,0,2,4,7,157,257.7605137169012,258.31981903570704,"[85, 0, 169]",169,l,0.03622870479011908,colour,0.5
105,21,0,2,4,8,158,258.83869095070986,259.5038518131478,"[64, 0, 190]",190,a,0.1418333685141988,colour,0.5
105,21,0,2,4,9,159,260.01053340919316,261.0238217705628,"[6, 0, 248]",248,a,0.4898245967924595,colour,0.5
105,21,0,2,4,10,160,261.5418646399048,262.2799799453933,"[9, 0, 245]",245,a,0.21484728233190253,colour,0.5
105,21,0,2,4,11,161,262.79184376605554,263.41583591437666,"[14, 0, 240]",240,a,0.1006189682520926,colour,0.5
105,21,0,2,4,12,162,263.93252040911466,264.7598205480608,"[84, 0, 170]",170,l,0.3040494449669495,colour,0.5
105,21,0,2,4,13,163,265.2763601075276,265.9918458140455,"[32, 0, 222]",222,a,0.19222004641778767,colour,0.5
105,21,0,2,4,14,164,266.5104751199833,267.2321119121043,"[25, 0, 229]",229,a,0.1982297413633205,colour,0.5
105,21,0,2,4,15,165,267.74492490146076,269.06379437464057,"[39, 0, 215]",215,a,0.7956491053337231,colour,0.5
105,21,0,2,4,16,166,269.57315687986556,270.3277959909756,"[29, 0, 225]",225,a,0.2320642567356117,colour,0.5
105,21,0,2,4,17,167,270.83870315994136,272.4797909781337,"[34, 0, 220]",220,a,1.1177914381260052,colour,0.5
105,21,0,2,4,18,168,272.99494026147295,273.63183480210137,"[95, 0, 159]",159,l,0.11357137904269621,colour,0.5
105,21,0,2,4,19,169,274.1512112337514,275.0797931836569,"[68, 0, 186]",186,l,0.4052260990720242,colour,0.5
105,21,0,2,4,20,170,275.58867440914037,276.23976867069723,"[91, 0, 163]",163,l,0.12768445385154337,colour,0.5
105,21,0,2,4,21,171,276.760522775352,277.8558240359416,"[59, 0, 195]",195,a,0.5723207449773327,colour,0.5
105,21,0,2,4,22,172,278.3699288399075,279.1998252111953,"[2, 0, 252]",252,a,0.30671972036361694,colour,0.5
105,21,0,2,4,23,173,279.7135944584152,280.34379204304423,"[88, 0, 166]",166,l,0.10681219532852992,colour,0.5
105,21,0,2,4,24,174,280.85425928613404,281.62380152684636,"[18, 0, 236]",236,a,0.24647389742312953,colour,0.5
105,21,0,2,4,25,175,282.13553774147294,283.0078209923231,"[42, 0, 212]",212,a,0.34893133846344426,colour,0.5
105,21,0,2,4,26,176,283.5262325014337,284.1838078914443,"[21, 0, 233]",233,a,0.13437628984684125,colour,0.5
105,21,0,2,4,27,177,284.69801470148377,285.5438059064327,"[79, 0, 175]",175,l,0.32243180950172246,colour,0.5
105,21,0,2,4,28,178,286.0573561753845,287.0718244991149,"[35, 0, 219]",219,a,0.49110341450432315,colour,0.5
105,21,0,2,4,29,179,287.5886405383935,291.09587706334423,"[82, 0, 172]",172,a,2.983872009499464,colour,0.5
105,21,0,2,4,30,180,291.60424707690254,292.20781831414206,"[50, 0, 204]",204,a,0.08039379864931107,colour,0.5
105,21,0,2,4,31,181,292.72927819070173,293.2958101883414,"[73, 0, 181]",181,l,0.0431694514118135,colour,0.5
105,21,0,2,4,32,182,293.80735144921346,294.48777935490943,"[7, 0, 247]",247,a,0.1570673287496902,colour,0.5
105,21,0,2,4,33,183,294.9949099353398,295.80778389202897,"[77, 0, 177]",177,l,0.2895878166309558,colour,0.5
105,21,0,2,4,34,184,296.32308677531546,296.94382890703855,"[94, 0, 160]",160,l,0.09747017011977732,colour,0.5
105,21,0,2,4,35,185,297.4636224214919,298.05581426859135,"[31, 0, 223]",223,a,0.06880803318927065,colour,0.5
105,21,0,2,4,36,186,298.57305093534524,300.1518035780173,"[0, 0, 254]",254,a,1.0561246191500686,colour,0.5
105,21,0,2,4,37,187,300.6667008000077,301.3838568070787,"[10, 0, 244]",244,a,0.19378400855930522,colour,0.5
105,21,0,2,4,38,188,301.9010836276575,303.13581028283807,"[56, 0, 198]",198,a,0.7113361458759755,colour,0.5
105,21,0,2,4,39,189,303.65117657533847,304.2557781134965,"[15, 0, 239]",239,a,0.08131027809577063,colour,0.5
105,21,0,2,4,40,190,304.77615648915526,305.3197851649602,"[96, 0, 158]",158,l,0.02027676341822371,colour,0.5
105,21,0,2,4,41,191,305.8385869753547,306.85578740830533,"[51, 0, 203]",203,a,0.4938280406058766,colour,0.5
105,21,0,2,4,42,192,307.3698284092243,308.26378972723614,"[16, 0, 238]",238,a,0.3706976271350868,colour,0.5
105,21,0,2,4,43,193,308.77615767071256,309.64780879882164,"[40, 0, 214]",214,a,0.34829330805223435,colour,0.5
105,21,0,2,4,44,194,310.1666657477035,310.9277662949753,"[71, 0, 183]",183,l,0.23775414878036827,colour,0.5
105,21,0,2,4,45,195,311.44793002464576,311.999802289356,"[67, 0, 187]",187,l,0.028594789269845933,colour,0.5
105,21,0,2,4,46,196,312.5103703569621,313.0398205795791,"[83, 0, 171]",171,l,0.005968341080006212,colour,0.5
105,21,0,2,4,47,197,313.5572986738407,314.4158044066862,"[62, 0, 192]",192,a,0.33517430047504604,colour,0.5
105,21,0,2,4,48,198,314.9323620830546,315.85584963596193,"[99, 0, 155]",155,l,0.40022858820157126,colour,0.5
105,21,0,2,4,49,199,316.36978823691607,317.15977186872624,"[49, 0, 205]",205,a,0.2667522362899035,colour,0.5
105,21,0,2,4,50,200,317.6666113969404,318.56782971991925,"[90, 0, 164]",164,l,0.37780221371212974,colour,0.5
105,21,0,2,5,1,201,339.1814593881718,340.56779624306364,"[15, 0, 239]",239,a,0.8621732260799035,colour,0.5
105,21,0,2,5,2,202,341.08845188620035,341.7838077339111,"[73, 0, 181]",181,l,0.1720653753145598,colour,0.5
105,21,0,2,5,3,203,342.29160942771705,343.55181121861096,"[40, 0, 214]",214,a,0.7367963154683821,colour,0.5
105,21,0,2,5,4,204,344.0729126954102,344.7917811445659,"[78, 0, 176]",176,l,0.19560436444589868,colour,0.5
105,21,0,2,5,5,205,345.30723447696073,346.0798179959529,"[94, 0, 160]",160,l,0.24930761888390407,colour,0.5
105,21,0,2,5,6,206,346.5884270739043,347.92778992577223,"[53, 0, 201]",201,a,0.8161145209451206,colour,0.5
105,21,0,2,5,7,207,348.4478670092649,349.2397371630068,"[75, 0, 179]",179,l,0.268556444440037,colour,0.5
105,21,0,2,5,8,208,349.7603037970257,350.7038298365078,"[66, 0, 188]",188,a,0.42010796105023474,colour,0.5
105,21,0,2,5,9,209,351.21352750464575,352.0077839707956,"[6, 0, 248]",248,a,0.27091755071887746,colour,0.5
105,21,0,2,5,10,210,352.52607063075993,353.3117633112124,"[58, 0, 196]",196,a,0.2625703802332282,colour,0.5
105,21,0,2,5,11,211,353.82282132311957,354.56774858769495,"[17, 0, 237]",237,a,0.22157180757494643,colour,0.5
105,21,0,2,5,12,212,355.08841525856405,355.81578053958947,"[52, 0, 202]",202,a,0.204056691727601,colour,0.5
105,21,0,2,5,13,213,356.3227697293041,357.4557648015325,"[70, 0, 184]",184,l,0.6096955413231626,colour,0.5
105,21,0,2,5,14,214,357.9634483415866,358.7357486853725,"[63, 0, 191]",191,l,0.24889486836036667,colour,0.5
105,21,0,2,5,15,215,359.2447106493055,360.4077565591433,"[27, 0, 227]",227,a,0.6397648897836916,colour,0.5
105,21,0,2,5,16,216,360.91645385860465,361.5357671173406,"[96, 0, 158]",158,l,0.09601490944623947,colour,0.5
105,21,0,2,5,17,217,362.05712026165565,362.7117473210674,"[42, 0, 212]",212,a,0.13125584862427786,colour,0.5
105,21,0,2,5,18,218,363.22897177858977,363.95180113619426,"[29, 0, 225]",225,a,0.19939749455079436,colour,0.5
105,21,0,2,5,19,219,364.4634002923849,365.2159043647698,"[21, 0, 233]",233,a,0.22908048005774617,colour,0.5
105,21,0,2,5,20,220,365.72900919395033,366.49576851940947,"[77, 0, 177]",177,l,0.24332116084406152,colour,0.5
105,21,0,2,5,21,221,367.01030773547245,367.7277571577579,"[39, 0, 215]",215,a,0.1940782114979811,colour,0.5
105,21,0,2,5,22,222,368.2446440893109,369.04775342409266,"[51, 0, 203]",203,a,0.27975978545146063,colour,0.5
105,21,0,2,5,23,223,369.5571115970379,370.39171600242844,"[92, 0, 162]",162,l,0.3112426468869671,colour,0.5
105,21,0,2,5,24,224,370.9008670124458,371.7517427682178,"[4, 0, 250]",250,a,0.3275234496104531,colour,0.5
105,21,0,2,5,25,225,372.26022660318995,373.41576462821104,"[65, 0, 189]",189,l,0.632084894226864,colour,0.5
105,21,0,2,5,26,226,373.932077332458,374.6798001153511,"[0, 0, 254]",254,a,0.224362205946818,colour,0.5
105,21,0,2,5,27,227,375.1977102585952,376.00776034005685,"[34, 0, 220]",220,a,0.2866761137265712,colour,0.5
105,21,0,2,5,28,228,376.52586425549816,377.3357993339305,"[31, 0, 223]",223,a,0.28653669223422185,colour,0.5
105,21,0,2,5,29,229,377.85406590776984,378.4557514107437,"[49, 0, 205]",205,a,0.07848285819636658,colour,0.5
105,21,0,2,5,30,230,378.96335421240656,379.78374944470124,"[36, 0, 218]",218,a,0.2970441075740382,colour,0.5
105,21,0,2,5,31,231,380.2914491324336,380.9437686486053,"[18, 0, 236]",236,a,0.12895460688741878,colour,0.5
105,21,0,2,5,32,232,381.4633380647283,382.2398037229432,"[30, 0, 224]",224,a,0.25320275500416756,colour,0.5
105,21,0,2,5,33,233,382.76017540320754,383.3037532728631,"[19, 0, 235]",235,a,0.020203508029226214,colour,0.5
105,21,0,2,5,34,234,383.8227846954833,385.2797889300855,"[22, 0, 232]",232,a,0.9337417252827436,colour,0.5
105,21,0,2,5,35,235,385.7914022647892,386.76769864803646,"[71, 0, 183]",183,l,0.4509720905334689,colour,0.5
105,21,0,2,5,36,236,387.27587646472966,389.55179349554237,"[35, 0, 219]",219,a,1.7526249830261804,colour,0.5
105,21,0,2,5,37,237,390.0726870216895,390.79176854150137,"[87, 0, 167]",167,l,0.1957678105100058,colour,0.5
105,21,0,2,5,38,238,391.30703361553606,392.60774718556786,"[68, 0, 186]",186,l,0.7773136084433645,colour,0.5
105,21,0,2,5,39,239,393.11972679698374,393.7277929977281,"[88, 0, 166]",166,l,0.08487064525252208,colour,0.5
105,21,0,2,5,40,240,394.2444916709792,394.93581335485214,"[76, 0, 178]",178,l,0.16805129765998572,colour,0.5
105,21,0,2,5,41,241,395.44762636942323,395.99174735258566,"[7, 0, 247]",247,a,0.020688332384452224,colour,0.5
105,21,0,2,5,42,242,396.5102136062924,398.6637457740726,"[14, 0, 240]",240,a,1.6302373631042428,colour,0.5
105,21,0,2,5,43,243,399.18210687086685,399.9517893207958,"[16, 0, 238]",238,a,0.24646720208693296,colour,0.5
105,21,0,2,5,44,244,400.46327426168136,401.2237639539526,"[26, 0, 228]",228,a,0.23709288146346807,colour,0.5
105,21,0,2,5,45,245,401.7444877324742,402.3277475479408,"[98, 0, 156]",156,l,0.05986812466289848,colour,0.5
105,21,0,2,5,46,246,402.8382699294016,403.4397592971218,"[55, 0, 199]",199,a,0.07823276607086882,colour,0.5
105,21,0,2,5,47,247,403.94770120014437,404.695743392047,"[33, 0, 221]",221,a,0.22474147949833423,colour,0.5
105,21,0,2,5,48,248,405.2132813509088,405.8557291190955,"[82, 0, 172]",172,l,0.11907734506530687,colour,0.5
105,21,0,2,5,49,249,406.36952672322514,407.0717055576388,"[79, 0, 175]",175,l,0.1788056543446146,colour,0.5
105,21,0,2,5,50,250,407.58830852631945,408.23170585697517,"[91, 0, 163]",163,l,0.12020019977353513,colour,0.5
105,21,0,2,6,1,251,414.63434517604765,415.3917612947407,"[42, 0, 212]",212,a,0.23328005912480876,colour,0.5
105,21,0,2,6,2,252,415.9008169940207,416.5277283282485,"[85, 0, 169]",169,l,0.10368308948818594,colour,0.5
105,21,0,2,6,3,253,417.0412967141019,417.6398149082088,"[9, 0, 245]",245,a,0.0751481648767367,colour,0.5
105,21,0,2,6,4,254,418.1506815109751,418.75976974191144,"[30, 0, 224]",224,a,0.08568590629147366,colour,0.5
105,21,0,2,6,5,255,419.2758079355117,419.8477395607624,"[81, 0, 173]",173,l,0.04861594666726887,colour,0.5
105,21,0,2,6,6,256,420.36948221863713,421.02376781369094,"[44, 0, 210]",210,a,0.13101560261566192,colour,0.5
105,21,0,2,6,7,257,421.5413743017125,422.1517480457551,"[2, 0, 252]",252,a,0.08707027474883944,colour,0.5
105,21,0,2,6,8,258,422.66636721248506,423.2477113613859,"[33, 0, 221]",221,a,0.05793906730832532,colour,0.5
105,21,0,2,6,9,259,423.76003519410733,425.3277298248722,"[91, 0, 163]",163,l,1.0444652045262046,colour,0.5
105,21,0,2,6,10,260,425.83822384942323,426.88774603558704,"[52, 0, 202]",202,a,0.5262896090862341,colour,0.5
105,21,0,2,6,11,261,427.40070986788487,428.1757312931004,"[22, 0, 232]",232,a,0.2517053527990356,colour,0.5
105,21,0,2,6,12,262,428.68188552948413,429.3197587772738,"[74, 0, 180]",180,l,0.11451227695215493,colour,0.5
105,21,0,2,6,13,263,429.83818840328604,431.5357438804349,"[63, 0, 191]",191,l,1.1743807954480872,colour,0.5
105,21,0,2,6,14,264,432.0570143170771,432.855717303697,"[34, 0, 220]",220,a,0.2753526496235281,colour,0.5
105,21,0,2,6,15,265,433.36935658182483,434.1117439339869,"[29, 0, 225]",225,a,0.21899054141249508,colour,0.5
105,21,0,2,6,16,266,434.6193798187305,435.40777152526425,"[75, 0, 179]",179,l,0.2650484588230029,colour,0.5
105,21,0,2,6,17,267,435.91625693562673,436.70372822426725,"[90, 0, 164]",164,l,0.2640933824586682,colour,0.5
105,21,0,2,6,18,268,437.213207701745,437.86372182820924,"[98, 0, 156]",156,l,0.12716575869126245,colour,0.5
105,21,0,2,6,19,269,438.3851541355252,439.03172547050053,"[73, 0, 181]",181,a,0.12333442561794072,colour,0.5
105,21,0,2,6,20,270,439.54125693562673,440.8397082547308,"[15, 0, 239]",239,a,0.7750875913770869,colour,0.5
105,21,0,2,6,21,271,441.35382251098054,442.07974631595425,"[49, 0, 205]",205,a,0.2027711786213331,colour,0.5
105,21,0,2,6,22,272,442.5881793448352,443.36768746277085,"[43, 0, 211]",211,a,0.25638739310670644,colour,0.5
105,21,0,2,6,23,273,443.8850840309751,446.4397463002242,"[23, 0, 231]",231,a,2.031372978410218,colour,0.5
105,21,0,2,6,24,274,446.9476240063668,447.53568362200167,"[95, 0, 159]",159,l,0.06474630022421479,colour,0.5
105,21,0,2,6,25,275,448.056988717115,449.0237410321133,"[59, 0, 195]",195,a,0.44338740571402013,colour,0.5
105,21,0,2,6,26,276,449.54130498482846,450.191706865211,"[47, 0, 207]",207,a,0.12694756808923557,colour,0.5
105,21,0,2,6,27,277,450.6975724125514,451.38370045024203,"[50, 0, 204]",204,a,0.16269853769335896,colour,0.5
105,21,0,2,6,28,278,451.9007110494422,453.11973467387725,"[12, 0, 242]",242,a,0.6956973120686598,colour,0.5
105,21,0,2,6,29,279,453.63507103407755,454.2637078072876,"[97, 0, 157]",157,l,0.10531794390408322,colour,0.5
105,21,0,2,6,30,280,454.7756070741452,455.51171573461033,"[40, 0, 214]",214,a,0.2126567112863995,colour,0.5
105,21,0,2,6,31,281,456.02576855092775,456.59173144120723,"[32, 0, 222]",222,a,0.0425814394839108,colour,0.5
105,21,0,2,6,32,282,457.10387922480004,459.0877346927882,"[38, 0, 216]",216,a,1.4606768478406593,colour,0.5
105,21,0,2,6,33,283,459.60390285553876,460.18372636532877,"[56, 0, 198]",198,a,0.05665709887398407,colour,0.5
105,21,0,2,6,34,284,460.69754641869804,461.3278105632635,"[89, 0, 165]",165,l,0.10688505682628602,colour,0.5
105,21,0,2,6,35,285,461.8381655602134,462.5437172910897,"[7, 0, 247]",247,a,0.1823553876602091,colour,0.5
105,21,0,2,6,36,286,463.05690679716645,463.6717191847274,"[94, 0, 160]",160,l,0.0914210905903019,colour,0.5
105,21,0,2,6,37,287,464.18194775714073,464.83971337473486,"[92, 0, 162]",162,l,0.13441488676471636,colour,0.5
105,21,0,2,6,38,288,465.35382841865066,466.02369337680284,"[72, 0, 182]",182,l,0.14667255338281393,colour,0.5
105,21,0,2,6,39,289,466.5413333417382,467.1757171146455,"[10, 0, 244]",244,a,0.11092788522364572,colour,0.5
105,21,0,2,6,40,290,467.681855203351,468.27975742245326,"[67, 0, 187]",187,a,0.07453573442762718,colour,0.5
105,21,0,2,6,41,291,468.7912852925365,470.20770134194754,"[46, 0, 208]",208,a,0.8930318416678347,colour,0.5
105,21,0,2,6,42,292,470.72877840022556,471.38370950869285,"[65, 0, 189]",189,a,0.1315992822055705,colour,0.5
105,21,0,2,6,43,293,471.90065512334695,472.6557026526425,"[96, 0, 158]",158,l,0.23152271861908957,colour,0.5
105,21,0,2,6,44,294,473.1662943509873,473.87179212499177,"[35, 0, 219]",219,a,0.1821281385491602,colour,0.5
105,21,0,2,6,45,295,474.38501550181536,475.03969454887556,"[13, 0, 241]",241,a,0.1313255593413487,colour,0.5
105,21,0,2,6,46,296,475.5569008894963,476.51970923144836,"[54, 0, 200]",200,a,0.4394591865129769,colour,0.5
105,21,0,2,6,47,297,477.0256334617734,477.55979880777886,"[78, 0, 176]",176,l,0.010662590619176626,colour,0.5
105,21,0,2,6,48,298,478.07249876332935,478.71970340254484,"[4, 0, 250]",250,a,0.12397639447590336,colour,0.5
105,21,0,2,6,49,299,479.22874374181265,479.89569739083527,"[48, 0, 206]",206,a,0.1437242227839306,colour,0.5
105,21,0,2,6,50,300,480.41622818488395,481.02369258907856,"[55, 0, 199]",199,a,0.08404475031420588,colour,0.5
105,21,0,2,7,1,301,485.71232706226874,486.5437168972567,"[91, 0, 163]",163,l,0.30761059978976846,colour,0.5
105,21,0,2,7,2,302,487.05685796029866,487.6477040358586,"[55, 0, 199]",199,a,0.06748116633389145,colour,0.5
105,21,0,2,7,3,303,488.1662120372057,488.76766832190333,"[3, 0, 251]",251,a,0.07805435388581827,colour,0.5
105,21,0,2,7,4,304,489.27561534487177,490.7436594745377,"[58, 0, 196]",196,a,0.9450250170775689,colour,0.5
105,21,0,2,7,5,305,491.2600281048799,492.23172791232355,"[67, 0, 187]",187,l,0.4484254827257246,colour,0.5
105,21,0,2,7,6,306,492.74433019413846,493.48774390877225,"[78, 0, 176]",176,l,0.220068103808444,colour,0.5
105,21,0,2,7,7,307,493.99431128951255,494.64766307588434,"[20, 0, 234]",234,a,0.13001759705366567,colour,0.5
105,21,0,2,7,8,308,495.16623172949767,496.8718894049525,"[15, 0, 239]",239,a,1.1823372707585804,colour,0.5
105,21,0,2,7,9,309,497.38500447408296,498.22371708630817,"[42, 0, 212]",212,a,0.3154189890483394,colour,0.5
105,21,0,2,7,10,310,498.744273874152,499.3756734765484,"[95, 0, 159]",159,l,0.1079874315764755,colour,0.5
105,21,0,2,7,11,311,499.8849725725595,500.6076888964162,"[90, 0, 164]",164,l,0.19936322991270572,colour,0.5
105,21,0,2,7,12,312,501.1192927787779,501.65569438185776,"[37, 0, 217]",217,a,0.01302448456408456,colour,0.5
105,21,0,2,7,13,313,502.16621715720976,502.7676970726461,"[32, 0, 222]",222,a,0.0781339107779786,colour,0.5
105,21,0,2,7,14,314,503.27556729567004,504.60766605334356,"[26, 0, 228]",228,a,0.8088728759903461,colour,0.5
105,21,0,2,7,15,315,505.11930223106174,505.9916740972549,"[76, 0, 178]",178,l,0.34908060607267544,colour,0.5
105,21,0,2,7,16,316,506.5100458279485,507.2800748622394,"[63, 0, 191]",191,a,0.2467243834398687,colour,0.5
105,21,0,2,7,17,317,507.7911222403636,508.5116842269781,"[66, 0, 188]",188,a,0.19727112038526684,colour,0.5
105,21,0,2,7,18,318,509.0254668649868,509.74365238531027,"[4, 0, 250]",250,a,0.19474381109466776,colour,0.5
105,21,0,2,7,19,319,510.2599079818465,510.815753364237,"[86, 0, 168]",168,l,0.03250095312250778,colour,0.5
105,21,0,2,7,20,320,511.32236997573636,512.4557466846309,"[12, 0, 242]",242,a,0.6100350365741178,colour,0.5
105,21,0,2,7,21,321,512.9629836034146,514.1837062792038,"[19, 0, 235]",235,a,0.6973305911524221,colour,0.5
105,21,0,2,7,22,322,514.697427871055,516.2556871350971,"[68, 0, 186]",186,a,1.0349652470322326,colour,0.5
105,21,0,2,7,23,323,516.7755850187386,517.5676591846859,"[84, 0, 170]",170,l,0.26873840123880655,colour,0.5
105,21,0,2,7,24,324,518.0879686372937,518.7116665826761,"[44, 0, 210]",210,a,0.10055752831976861,colour,0.5
105,21,0,2,7,25,325,519.2286496126326,520.495656667219,"[52, 0, 202]",202,a,0.743728791421745,colour,0.5
105,21,0,2,7,26,326,521.009875292657,521.8956780924345,"[72, 0, 182]",182,l,0.3624371028272435,colour,0.5
105,21,0,2,7,27,327,522.4160690711578,523.199699968216,"[49, 0, 205]",205,a,0.26017894787946716,colour,0.5
105,21,0,2,7,28,328,523.7130505572422,524.4876895580674,"[10, 0, 244]",244,a,0.25134774076286703,colour,0.5
105,21,0,2,7,29,329,524.9948417999549,525.7756795417517,"[57, 0, 197]",197,a,0.258145127503667,colour,0.5
105,21,0,2,7,30,330,526.2911462649354,526.9036751338281,"[89, 0, 165]",165,l,0.08921791653847322,colour,0.5
105,21,0,2,7,31,331,527.416100184957,528.1756883639027,"[13, 0, 241]",241,a,0.23612205125391483,colour,0.5
105,21,0,2,7,32,332,528.697339255712,529.4637000091607,"[62, 0, 192]",192,a,0.2429974195547402,colour,0.5
105,21,0,2,7,33,333,529.978583052638,530.5756660722545,"[35, 0, 219]",219,a,0.07369487342657521,colour,0.5
105,21,0,2,7,34,334,531.0879442188307,533.8316678902484,"[9, 0, 245]",245,a,2.220598614308983,colour,0.5
105,21,0,2,7,35,335,534.3379572157282,536.5597637554747,"[5, 0, 249]",249,a,1.6986925103119574,colour,0.5
105,21,0,2,7,36,336,537.0722758465563,537.6316666299244,"[30, 0, 224]",224,a,0.035930563404690474,colour,0.5
105,21,0,2,7,37,337,538.150433388073,538.7676691095694,"[75, 0, 179]",179,l,0.09391531680012122,colour,0.5
105,21,0,2,7,38,338,539.2754786803271,539.8476954500074,"[51, 0, 203]",203,a,0.04877112194662914,colour,0.5
105,21,0,2,7,39,339,540.3691809265292,541.767622635758,"[7, 0, 247]",247,a,0.8750504122581333,colour,0.5
105,21,0,2,7,40,340,542.2754349634633,542.9516676224303,"[36, 0, 218]",218,a,0.15283860510680825,colour,0.5
105,21,0,2,7,41,341,543.4629150742549,544.1757557115634,"[61, 0, 193]",193,a,0.18943240499356762,colour,0.5
105,21,0,2,7,42,342,544.6817591049476,545.3277124956367,"[33, 0, 221]",221,a,0.12272357055917382,colour,0.5
105,21,0,2,7,43,343,545.8378914434579,547.2076714096474,"[16, 0, 238]",238,a,0.8465686567942612,colour,0.5
105,21,0,2,7,44,344,547.7285330342129,548.5357104035211,"[80, 0, 174]",174,l,0.28380064462544397,colour,0.5
105,21,0,2,7,45,345,549.0566342558013,550.1756426778156,"[18, 0, 236]",236,a,0.5955840420210734,colour,0.5
105,21,0,2,7,46,346,550.681652372703,552.0156419846462,"[21, 0, 233]",233,a,0.8106617241865024,colour,0.5
105,21,0,2,7,47,347,552.525339652726,553.3676862812717,"[74, 0, 180]",180,l,0.31890610087430105,colour,0.5
105,21,0,2,7,48,348,553.8847788003623,554.5997194242082,"[83, 0, 171]",171,l,0.19158359145512804,colour,0.5
105,21,0,2,7,49,349,555.1191797449719,555.7276425486198,"[8, 0, 246]",246,a,0.08513924817088991,colour,0.5
105,21,0,2,7,50,350,556.2440730127273,556.8476694561541,"[82, 0, 172]",172,l,0.08014528185594827,colour,0.5
105,21,0,2,8,1,351,561.3370942993206,563.2636715734843,"[64, 0, 190]",190,l,1.4025700021884404,colour,0.5
105,21,0,2,8,2,352,563.7753097204259,564.8796651049634,"[35, 0, 219]",219,a,0.5808888630126603,colour,0.5
105,21,0,2,8,3,353,565.4003743111971,566.055678785604,"[19, 0, 235]",235,a,0.13196752819931135,colour,0.5
105,21,0,2,8,4,354,566.5721915634931,567.3116660312517,"[72, 0, 182]",182,l,0.2166136812302284,colour,0.5
105,21,0,2,8,5,355,567.8221651758649,568.5276881559403,"[21, 0, 233]",233,a,0.18208993546431884,colour,0.5
105,21,0,2,8,6,356,569.0409840004286,569.8956304370658,"[58, 0, 196]",196,l,0.33191758854081854,colour,0.5
105,21,0,2,8,7,357,570.4159820312052,571.0717366714962,"[43, 0, 211]",211,a,0.13236649410100654,colour,0.5
105,21,0,2,8,8,358,571.5878012527828,572.1196893816232,"[27, 0, 227]",227,a,0.008815059438347816,colour,0.5
105,21,0,2,8,9,359,572.6347342957743,573.4236053128261,"[70, 0, 184]",184,l,0.2655947231105529,colour,0.5
105,21,0,2,8,10,360,573.9315708465874,574.503635985544,"[54, 0, 200]",200,a,0.04868014354724437,colour,0.5
105,21,0,2,8,11,361,575.0255294864764,576.4556612200686,"[44, 0, 210]",210,a,0.9069483872735873,colour,0.5
105,21,0,2,8,12,362,576.962852058874,577.8476745761582,"[78, 0, 176]",176,l,0.36146351567003876,colour,0.5
105,21,0,2,8,13,363,578.3691592650139,579.9116493322072,"[30, 0, 224]",224,a,1.0191696624970064,colour,0.5
105,21,0,2,8,14,364,580.4314873512485,580.9916169896023,"[3, 0, 251]",251,a,0.03672376909526065,colour,0.5
105,21,0,2,8,15,365,581.5097661972977,582.3597065690556,"[95, 0, 159]",159,l,0.3269334684009664,colour,0.5
105,21,0,2,8,16,366,582.8689595851465,583.487613939622,"[36, 0, 218]",218,a,0.09517522988608107,colour,0.5
105,21,0,2,8,17,367,583.9940493819886,584.7995915030478,"[79, 0, 175]",175,l,0.2822378640412353,colour,0.5
105,21,0,2,8,18,368,585.3065247666091,586.127613561519,"[6, 0, 248]",248,a,0.2977644517668523,colour,0.5
105,21,0,2,8,19,369,586.6345743943821,587.1756462224294,"[15, 0, 239]",239,a,0.01770061725983396,colour,0.5
105,21,0,2,8,20,370,587.6971714773681,588.2636495180777,"[5, 0, 249]",249,a,0.043194657540880144,colour,0.5
105,21,0,2,8,21,371,588.7752730927896,589.3836212872411,"[41, 0, 213]",213,a,0.0849474451970309,colour,0.5
105,21,0,2,8,22,372,589.9002470989362,591.4236403651303,"[12, 0, 242]",242,a,1.0000504122581333,colour,0.5
105,21,0,2,8,23,373,591.9315669081407,592.6236534407944,"[76, 0, 178]",178,l,0.16876809718087316,colour,0.5
105,21,0,2,8,24,374,593.1346764004556,593.8556905221776,"[2, 0, 252]",252,a,0.19775830779690295,colour,0.5
105,21,0,2,8,25,375,594.3690308712539,595.0076406108565,"[69, 0, 185]",185,l,0.11528500262647867,colour,0.5
105,21,0,2,8,26,376,595.5252612773911,596.3116707574227,"[65, 0, 189]",189,l,0.26306347537320107,colour,0.5
105,21,0,2,8,27,377,596.8222195265698,597.4876269365777,"[68, 0, 186]",186,l,0.14206101145828143,colour,0.5
105,21,0,2,8,28,378,597.9939343789592,599.7116606749478,"[67, 0, 187]",187,l,1.1942920698202215,colour,0.5
105,21,0,2,8,29,379,600.228301452822,600.8156655366183,"[91, 0, 163]",163,a,0.06397318065864965,colour,0.5
105,21,0,2,8,30,380,601.3220856189728,602.3596876644297,"[62, 0, 192]",192,l,0.5141682131798007,colour,0.5
105,21,0,2,8,31,381,602.8690143296844,603.639668791322,"[13, 0, 241]",241,a,0.24732499849051237,colour,0.5
105,21,0,2,8,32,382,604.150319960434,605.5676068031462,"[25, 0, 229]",229,a,0.8939510780037381,colour,0.5
105,21,0,2,8,33,383,606.087767382036,606.895616652444,"[83, 0, 171]",171,l,0.28472893947036937,colour,0.5
105,21,0,2,8,34,384,607.4160667080432,608.3436502585537,"[77, 0, 177]",177,l,0.40453844412695616,colour,0.5
105,21,0,2,8,35,385,608.85331602511,609.6236408377299,"[55, 0, 199]",199,a,0.24696226639207453,colour,0.5
105,21,0,2,8,36,386,610.1346185050788,610.9676361053134,"[40, 0, 214]",214,a,0.3096534786163829,colour,0.5
105,21,0,2,8,37,387,611.4783550158609,612.2956101145828,"[87, 0, 167]",167,l,0.29392642324091867,colour,0.5
105,21,0,2,8,38,388,612.8064085820806,613.7036348828115,"[73, 0, 181]",181,l,0.37385036377236247,colour,0.5
105,21,0,2,8,39,389,614.2127118497156,615.0396335027763,"[1, 0, 253]",253,a,0.3035894329659641,colour,0.5
105,21,0,2,8,40,390,615.5564475728315,616.9756650482304,"[18, 0, 236]",236,a,0.895889981475193,colour,0.5
105,21,0,2,8,41,391,617.493943043577,618.463627541496,"[98, 0, 156]",156,l,0.44633061630884185,colour,0.5
105,21,0,2,8,42,392,618.9782943635946,619.8476162869483,"[93, 0, 161]",161,l,0.3459841894218698,colour,0.5
105,21,0,2,8,43,393,620.3689170497819,621.3756242457894,"[49, 0, 205]",205,a,0.48348288977285847,colour,0.5
105,21,0,2,8,44,394,621.8864258640097,622.7436200899538,"[74, 0, 180]",180,l,0.3338411320000887,colour,0.5
105,21,0,2,8,45,395,623.2614105040557,623.887578651018,"[4, 0, 250]",250,a,0.102643336285837,colour,0.5
105,21,0,2,8,46,396,624.4020131040597,625.0236342998687,"[92, 0, 162]",162,l,0.09820666193263605,colour,0.5
105,21,0,2,8,47,397,625.5427511870512,626.9036117246724,"[75, 0, 179]",179,l,0.8375873944605701,colour,0.5
105,21,0,2,8,48,398,627.4177464609384,628.0395976627478,"[0, 0, 254]",254,a,0.09859302482800558,colour,0.5
105,21,0,2,8,49,399,628.558342365548,629.8236074395827,"[8, 0, 246]",246,a,0.7420238323975354,colour,0.5
105,21,0,2,8,50,400,630.33951684559,630.9516101208865,"[9, 0, 245]",245,a,0.08879374444950372,colour,0.5
105,21,0,2,9,1,401,651.6355798830045,652.8636048559565,"[3, 0, 251]",251,a,0.7038440149626695,colour,0.5
105,21,0,2,9,2,402,653.3712880021776,653.9835711112828,"[69, 0, 185]",185,l,0.08966414397582412,colour,0.5
105,21,0,2,9,3,403,654.4957090487005,655.9436213502195,"[19, 0, 235]",235,a,0.9246726352721453,colour,0.5
105,21,0,2,9,4,404,656.4644258671906,657.1835960023454,"[33, 0, 221]",221,a,0.19580168125685304,colour,0.5
105,21,0,2,9,5,405,657.6988673779415,658.7915806769743,"[24, 0, 230]",230,a,0.5697761064511724,colour,0.5
105,21,0,2,9,6,406,659.3082478425349,660.1515964150894,"[91, 0, 163]",163,l,0.3200852755107917,colour,0.5
105,21,0,2,9,7,407,660.6675802579266,661.9676128683495,"[60, 0, 194]",194,l,0.7766842426499352,colour,0.5
105,21,0,2,9,8,408,662.4800847871811,664.2236761263339,"[18, 0, 236]",236,a,1.2203028359799646,colour,0.5
105,21,0,2,9,9,409,664.7300914825173,665.6795740477974,"[43, 0, 211]",211,a,0.42614601290551946,colour,0.5
105,21,0,2,9,10,410,666.1987244118354,666.9675561545882,"[86, 0, 168]",168,l,0.24547392269596457,colour,0.5
105,21,0,2,9,11,411,667.4799465472461,668.0395917550777,"[63, 0, 191]",191,a,0.03624839702388272,colour,0.5
105,21,0,2,9,12,412,668.5581265380024,669.2235780587071,"[0, 0, 254]",254,a,0.14236033434281126,colour,0.5
105,21,0,2,9,13,413,669.7299733287655,671.1355775198899,"[54, 0, 200]",200,a,0.8823007218306884,colour,0.5
105,21,0,2,9,14,414,671.6518847102998,672.551574123383,"[47, 0, 207]",207,a,0.37636625149752945,colour,0.5
105,21,0,2,9,15,415,673.058144654904,673.8955611201818,"[13, 0, 241]",241,a,0.31403422681614757,colour,0.5
105,21,0,2,9,16,416,674.4018921933603,675.0795694791595,"[82, 0, 172]",172,l,0.1543025303981267,colour,0.5
105,21,0,2,9,17,417,675.5893648210913,676.1756095947349,"[58, 0, 196]",196,a,0.06279755057767034,colour,0.5
105,21,0,2,9,18,418,676.6831832518219,677.391535227187,"[71, 0, 183]",183,l,0.18505480763269588,colour,0.5
105,21,0,2,9,19,419,677.9018390241545,678.4635901261354,"[10, 0, 244]",244,a,0.03832002659328282,colour,0.5
105,21,0,2,9,20,420,678.9800071995123,679.631590617646,"[81, 0, 173]",173,l,0.12820748117519543,colour,0.5
105,21,0,2,9,21,421,680.1518697441206,680.99958488642,"[66, 0, 188]",188,a,0.32433999300701544,colour,0.5
105,21,0,2,9,22,422,681.5112620241125,682.2715729103656,"[78, 0, 176]",176,l,0.23699875234160572,colour,0.5
105,21,0,2,9,23,423,682.7924388672691,683.4395804911037,"[57, 0, 197]",197,a,0.12369755154941231,colour,0.5
105,21,0,2,9,24,424,683.9487059011008,684.6315319346031,"[36, 0, 218]",218,a,0.15950641653034836,colour,0.5
105,21,0,2,9,25,425,685.1517901872867,685.703583288996,"[42, 0, 212]",212,a,0.028442370938137174,colour,0.5
105,21,0,2,9,26,426,686.2143951472244,686.8875987372012,"[80, 0, 174]",174,l,0.1498634930467233,colour,0.5
105,21,0,2,9,27,427,687.4018461133819,689.1915446007042,"[94, 0, 160]",160,l,1.2663619349477813,colour,0.5
105,21,0,2,9,28,428,689.6987271687831,690.4716123737162,"[45, 0, 209]",209,a,0.24951005569892004,colour,0.5
105,21,0,2,9,29,429,690.9799154333887,691.7675422911998,"[29, 0, 225]",225,a,0.26441160996910185,colour,0.5
105,21,0,2,9,30,430,692.276965054858,693.5275885129231,"[17, 0, 237]",237,a,0.7273132933769375,colour,0.5
105,21,0,2,9,31,431,694.0424207503092,694.7195624056621,"[11, 0, 243]",243,a,0.15371215529739857,colour,0.5
105,21,0,2,9,32,432,695.2299146457226,696.055570084136,"[4, 0, 250]",250,a,0.30159184645162895,colour,0.5
105,21,0,2,9,33,433,696.5737425287371,697.3755604427424,"[85, 0, 169]",169,l,0.2791678350768052,colour,0.5
105,21,0,2,9,34,434,697.8862151564681,700.2155920449295,"[77, 0, 177]",177,l,1.8059399054036476,colour,0.5
105,21,0,2,9,35,435,700.7298634457402,701.2635715366341,"[61, 0, 193]",193,a,0.01022857241332531,colour,0.5
105,21,0,2,9,36,436,701.7768457195489,702.3435502216453,"[48, 0, 206]",206,a,0.043434509716462344,colour,0.5
105,21,0,2,9,37,437,702.854941821075,704.4955806549406,"[44, 0, 210]",210,a,1.1174932967405766,colour,0.5
105,21,0,2,9,38,438,705.0111088180565,705.9035238969955,"[55, 0, 199]",199,a,0.3689824281609617,colour,0.5
105,21,0,2,9,39,439,706.4174164180295,707.735573817743,"[39, 0, 215]",215,a,0.794819665781688,colour,0.5
105,21,0,2,9,40,440,708.245543633413,709.0475631965091,"[53, 0, 201]",201,a,0.27876768761780113,colour,0.5
105,21,0,2,9,41,441,709.558030439599,710.2556083659292,"[93, 0, 161]",161,l,0.17417796480003744,colour,0.5
105,21,0,2,9,42,442,710.7610938519356,711.5355548344087,"[2, 0, 252]",252,a,0.2514513222267851,colour,0.5
105,21,0,2,9,43,443,712.0423683688277,712.7355545193423,"[35, 0, 219]",219,a,0.16972632438410074,colour,0.5
105,21,0,2,9,44,444,713.2455668703187,714.2315739186015,"[40, 0, 214]",214,a,0.462760686641559,colour,0.5
105,21,0,2,9,45,445,714.7455302426824,715.3915277440683,"[56, 0, 198]",198,a,0.12277555820764974,colour,0.5
105,21,0,2,9,46,446,715.9017468641978,716.5275707898545,"[1, 0, 253]",253,a,0.10240663483273238,colour,0.5
105,21,0,2,9,47,447,717.0423238642397,717.6555529912002,"[99, 0, 155]",155,l,0.08998867298942059,colour,0.5
105,21,0,2,9,48,448,718.16735970421,718.8955493047833,"[88, 0, 166]",166,l,0.2047281990526244,colour,0.5
105,21,0,2,9,49,449,719.401763011876,720.167567261029,"[26, 0, 228]",228,a,0.24245115520898253,colour,0.5
105,21,0,2,9,50,450,720.6829981441842,722.519524911535,"[50, 0, 204]",204,a,1.3131587072857656,colour,0.5
105,21,0,2,10,1,451,727.3540836308384,729.2155506911222,"[60, 0, 194]",194,a,1.3375720343901776,colour,0.5
105,21,0,2,10,2,452,729.7298197288765,730.3435407693614,"[13, 0, 241]",241,l,0.09033604507567361,colour,0.5
105,21,0,2,10,3,453,730.8548835319234,731.9275622828281,"[63, 0, 191]",191,a,0.5494241185369901,colour,0.5
105,21,0,2,10,4,454,732.4486747872434,733.2395764738903,"[59, 0, 195]",195,a,0.2675828573410399,colour,0.5
105,21,0,2,10,5,455,733.7454711657483,734.599566218094,"[99, 0, 155]",155,l,0.3308703522197902,colour,0.5
105,21,0,2,10,6,456,735.1205180334509,735.9835600835504,"[74, 0, 180]",180,a,0.33983822382288054,colour,0.5
105,21,0,2,10,7,457,736.4954723473056,737.4555371585884,"[5, 0, 249]",249,a,0.43681175424717367,colour,0.5
105,21,0,2,10,8,458,737.9642982610967,738.7675363834715,"[69, 0, 185]",185,a,0.2800181484199129,colour,0.5
105,21,0,2,10,9,459,739.2766897565452,740.1355416799197,"[10, 0, 244]",244,a,0.3355256110080518,colour,0.5
105,21,0,2,10,10,460,740.6516795165371,741.4875434412388,"[53, 0, 201]",201,a,0.3125832984223962,colour,0.5
105,21,0,2,10,11,461,741.9955073996098,742.7355324639357,"[68, 0, 186]",186,a,0.21680863498477265,colour,0.5
105,21,0,2,10,12,462,743.2455270919017,744.0075527832378,"[44, 0, 210]",210,a,0.239116461831145,colour,0.5
105,21,0,2,10,13,463,744.5267208704026,745.231581795495,"[73, 0, 181]",181,a,0.18159999116323888,colour,0.5
105,21,0,2,10,14,464,745.7454266611603,746.7835596109508,"[91, 0, 163]",163,l,0.5149027358274907,colour,0.5
105,21,0,2,10,15,465,747.2923242580728,748.055585837923,"[51, 0, 203]",203,a,0.23993644898291677,colour,0.5
105,21,0,2,10,16,466,748.5735424550367,749.1195353878429,"[9, 0, 245]",245,a,0.023283383168745786,colour,0.5
105,21,0,2,10,17,467,749.6360627380782,750.2315731308772,"[35, 0, 219]",219,a,0.07216123735997826,colour,0.5
105,21,0,2,10,18,468,750.7454144519288,751.3595431229915,"[21, 0, 233]",233,a,0.09082835249137133,colour,0.5
105,21,0,2,10,19,469,751.870380581182,752.6795799554675,"[85, 0, 169]",169,l,0.28595734492409974,colour,0.5
105,21,0,2,10,20,470,753.1985357596423,753.943504378025,"[90, 0, 164]",164,l,0.22155053989263251,colour,0.5
105,21,0,2,10,21,471,754.4641769565642,755.511585371627,"[98, 0, 156]",156,l,0.5244050563196652,colour,0.5
105,21,0,2,10,22,472,756.0269957748242,757.1115344079444,"[15, 0, 239]",239,a,0.5616262527764775,colour,0.5
105,21,0,2,10,23,473,757.6203419843223,758.159524139599,"[40, 0, 214]",214,a,0.01582984911510721,colour,0.5
105,21,0,2,10,24,474,758.6672352488968,759.3675732474658,"[19, 0, 235]",235,a,0.1769494585460052,colour,0.5
105,21,0,2,10,25,475,759.8859587627812,760.8395578055643,"[41, 0, 213]",213,a,0.4305826871423051,colour,0.5
105,21,0,2,10,26,476,761.3547066950705,762.1356165106408,"[0, 0, 254]",254,a,0.2577627030550502,colour,0.5
105,21,0,2,10,27,477,762.6515830243006,763.3675358321052,"[96, 0, 158]",158,l,0.19256860006134957,colour,0.5
105,21,0,2,10,28,478,763.8860249288846,764.7755330310902,"[81, 0, 173]",173,a,0.3662030575214885,colour,0.5
105,21,0,2,10,29,479,765.2922612427501,766.2799330776907,"[66, 0, 188]",188,a,0.46432307333452627,colour,0.5
105,21,0,2,10,30,480,766.792162781232,767.4234871590743,"[24, 0, 230]",230,a,0.10781374556245282,colour,0.5
105,21,0,2,10,31,481,767.9328602981404,769.1995089529082,"[75, 0, 179]",179,l,0.74328059470281,colour,0.5
105,21,0,2,10,32,482,769.7140962181729,770.3595017691841,"[45, 0, 209]",209,a,0.12197565718088299,colour,0.5
105,21,0,2,10,33,483,770.8702974797343,771.6954988137586,"[62, 0, 192]",192,a,0.3018336678505875,colour,0.5
105,21,0,2,10,34,484,772.2140993688954,772.8795311973081,"[1, 0, 253]",253,a,0.14209488220512867,colour,0.5
105,21,0,2,10,35,485,773.3859701842885,773.9355022165691,"[28, 0, 226]",226,a,0.026269129069987684,colour,0.5
105,21,0,2,10,36,486,774.4484684119816,774.9835301513085,"[7, 0, 247]",247,a,0.011691710038576275,colour,0.5
105,21,0,2,10,37,487,775.4953537996626,776.7515249714488,"[32, 0, 222]",222,a,0.7329173270263709,colour,0.5
105,21,0,2,10,38,488,777.2609091381892,779.1195271171164,"[39, 0, 215]",215,a,1.3351770574226975,colour,0.5
105,21,0,2,10,39,489,779.6359363135416,780.1995219498058,"[80, 0, 174]",174,l,0.04061457287753001,colour,0.5
105,21,0,2,10,40,490,780.7140406858525,781.7515450575738,"[70, 0, 184]",184,l,0.5141130747506395,colour,0.5
105,21,0,2,10,41,491,782.2609115012456,783.191524120688,"[55, 0, 199]",199,a,0.40725164860486984,colour,0.5
105,21,0,2,10,42,492,783.6984857412172,784.4795070152031,"[46, 0, 208]",208,a,0.25773277081316337,colour,0.5
105,21,0,2,10,43,493,784.9953140212456,785.6715179294697,"[16, 0, 238]",238,a,0.15305364498635754,colour,0.5
105,21,0,2,10,44,494,786.1828992888913,787.0075019771466,"[97, 0, 157]",157,l,0.30135120660997927,colour,0.5
105,21,0,2,10,45,495,787.5265294612618,788.1755142839975,"[71, 0, 183]",183,a,0.12554390117293224,colour,0.5
105,21,0,2,10,46,496,788.6828043720452,789.4714898876264,"[14, 0, 240]",240,a,0.26542261242866516,colour,0.5
105,21,0,2,10,47,497,789.9796322581824,790.6715399848181,"[2, 0, 252]",252,a,0.16858771577244624,colour,0.5
105,21,0,2,10,48,498,791.1828205197235,791.9595413900679,"[43, 0, 211]",211,a,0.25336344417883083,colour,0.5
105,21,0,2,10,49,499,792.4797047258471,793.055506281089,"[47, 0, 207]",207,a,0.05270209809532389,colour,0.5
105,21,0,2,10,50,500,793.5734491135227,794.3915241994546,"[93, 0, 161]",161,l,0.29530567169422284,colour,0.5
105,21,0,2,11,1,501,803.6818591417978,806.2076111512142,"[92, 0, 162]",162,l,2.001729377429001,colour,0.5
105,21,0,2,11,2,502,806.7139158367063,808.6076948040863,"[39, 0, 215]",215,a,1.370311264297925,colour,0.5
105,21,0,2,11,3,503,809.120059202949,809.9835478743771,"[74, 0, 180]",180,l,0.33993865456432104,colour,0.5
105,21,0,2,11,4,504,810.4951702674734,811.0395460689324,"[80, 0, 174]",174,l,0.020890769199468195,colour,0.5
105,21,0,2,11,5,505,811.5576783413417,813.4394989649882,"[60, 0, 194]",194,a,1.3584726497647353,colour,0.5
105,21,0,2,11,6,506,813.9483136305353,814.7435196592123,"[9, 0, 245]",245,a,0.271908073220402,colour,0.5
105,21,0,2,11,7,507,815.2607996489969,816.023477549199,"[88, 0, 166]",166,l,0.23932204936863855,colour,0.5
105,21,0,2,11,8,508,816.5419552244712,817.2714756304049,"[1, 0, 253]",253,a,0.20594715216429904,colour,0.5
105,21,0,2,11,9,509,817.7920056367293,818.3914808764239,"[4, 0, 250]",250,a,0.07604652736335993,colour,0.5
105,21,0,2,11,10,510,818.9014392705285,819.7194903318887,"[75, 0, 179]",179,l,0.29456917982315645,colour,0.5
105,21,0,2,11,11,511,820.2295759382541,820.7755086126272,"[48, 0, 206]",206,a,0.022573278984054923,colour,0.5
105,21,0,2,11,12,512,821.2920249351882,821.9834517759155,"[57, 0, 197]",197,a,0.16803751297993585,colour,0.5
105,21,0,2,11,13,513,822.4951927167131,823.8714916205499,"[34, 0, 220]",220,a,0.8530107945553027,colour,0.5
105,21,0,2,11,14,514,824.3858248551842,825.0154619970126,"[14, 0, 240]",240,a,0.10637699562357739,colour,0.5
105,21,0,2,11,15,515,825.5264140643994,826.0715153300553,"[17, 0, 237]",237,a,0.021703273290768266,colour,0.5
105,21,0,2,11,16,516,826.5889209567104,828.1274666570243,"[78, 0, 176]",176,l,1.0151575541240163,colour,0.5
105,21,0,2,11,17,517,828.635854393593,830.1034507204313,"[69, 0, 185]",185,l,0.9443188513396308,colour,0.5
105,21,0,2,11,18,518,830.6201935043791,831.5354815790779,"[98, 0, 156]",156,l,0.39206888840999454,colour,0.5
105,21,0,2,11,19,519,832.0420914951246,833.0235007861047,"[85, 0, 169]",169,l,0.458092037064489,colour,0.5
105,21,0,2,11,20,520,833.5419634951977,834.6314795531216,"[21, 0, 233]",233,a,0.5661503609153442,colour,0.5
105,21,0,2,11,21,521,835.1513412029017,835.9834616220905,"[72, 0, 182]",182,a,0.3086944638052955,colour,0.5
105,21,0,2,11,22,522,836.495143092121,837.2955175607931,"[51, 0, 203]",203,a,0.2770619409275241,colour,0.5
105,21,0,2,11,23,523,837.807655104436,839.8395109379198,"[65, 0, 189]",189,a,1.5085503949667327,colour,0.5
105,21,0,2,11,24,524,840.3545330090565,841.5194725300535,"[38, 0, 216]",216,a,0.6417356947204098,colour,0.5
105,21,0,2,11,25,525,842.0263360828976,842.9354951273417,"[93, 0, 161]",161,l,0.385789408988785,colour,0.5
105,21,0,2,11,26,526,843.4482384059811,844.375468676677,"[35, 0, 219]",219,a,0.4039023829391226,colour,0.5
105,21,0,2,11,27,527,844.8857732613687,845.6395301576122,"[29, 0, 225]",225,a,0.2303699316107668,colour,0.5
105,21,0,2,11,28,528,846.1514495105366,846.8474685947294,"[36, 0, 218]",218,a,0.17270734411431476,colour,0.5
105,21,0,2,11,29,529,847.354497169028,848.1354790584301,"[87, 0, 167]",167,l,0.2577737307874486,colour,0.5
105,21,0,2,11,30,530,848.651313239825,849.3834802904166,"[61, 0, 193]",193,a,0.20879465818870813,colour,0.5
105,21,0,2,11,31,531,849.9013994921115,850.6154921656125,"[89, 0, 165]",165,l,0.1908348902943544,colour,0.5
105,21,0,2,11,32,532,851.1358201290132,851.9034892385826,"[11, 0, 243]",243,a,0.24446607095887884,colour,0.5
105,21,0,2,11,33,533,852.4170430520899,853.3594568707631,"[77, 0, 177]",177,l,0.4191552478005178,colour,0.5
105,21,0,2,11,34,534,853.8701178859919,854.7035029443796,"[82, 0, 172]",172,l,0.3101473613642156,colour,0.5
105,21,0,2,11,35,535,855.2138417937094,855.8715235220734,"[2, 0, 252]",252,a,0.13433808682020754,colour,0.5
105,21,0,2,11,36,536,856.3857496305718,857.1835042362218,"[6, 0, 248]",248,a,0.27461025008233264,colour,0.5
105,21,0,2,11,37,537,857.6981458521914,858.4234934605774,"[83, 0, 171]",171,l,0.20182988687884063,colour,0.5
105,21,0,2,11,38,538,858.9326129629044,859.7354588147718,"[5, 0, 249]",249,a,0.2795569548616186,colour,0.5
105,21,0,2,11,39,539,860.2450863783015,860.8234396612388,"[0, 0, 254]",254,a,0.05512818897841498,colour,0.5
105,21,0,2,11,40,540,861.3388244644739,862.0395177120809,"[96, 0, 158]",158,l,0.17752211051993072,colour,0.5
105,21,0,2,11,41,541,862.5575148952776,863.2075032374123,"[18, 0, 236]",236,a,0.12653324217535555,colour,0.5
105,21,0,2,11,42,542,863.7139300151612,864.343493901717,"[22, 0, 232]",232,a,0.10640338330995291,colour,0.5
105,21,0,2,11,43,543,864.8544136736891,865.4954652580782,"[41, 0, 213]",213,a,0.11779104423476383,colour,0.5
105,21,0,2,11,44,544,866.0106633783435,866.6394671422313,"[15, 0, 239]",239,a,0.10540655924705788,colour,0.5
105,21,0,2,11,45,545,867.1514585689874,867.8874664049363,"[42, 0, 212]",212,a,0.21280440350528806,colour,0.5
105,21,0,2,11,46,546,868.4012364398804,869.0394755705493,"[84, 0, 170]",170,l,0.11483523063361645,colour,0.5
105,21,0,2,11,47,547,869.5582821071148,870.1434516814188,"[95, 0, 159]",159,a,0.06260377838043496,colour,0.5
105,21,0,2,11,48,548,870.6513565629139,871.3754576490028,"[59, 0, 195]",195,a,0.20085945061873645,colour,0.5
105,21,0,2,11,49,549,871.8856677106232,872.551504412666,"[37, 0, 217]",217,a,0.14258758345386013,colour,0.5
105,21,0,2,11,50,550,873.0731553044752,874.3994838255458,"[10, 0, 244]",244,a,0.8032077962416224,colour,0.5
105,21,0,2,12,1,551,880.0730072184233,881.1914776468766,"[62, 0, 192]",192,a,0.5943182212067768,colour,0.5
105,21,0,2,12,2,552,881.6988591071567,882.4794688121183,"[70, 0, 184]",184,a,0.2573767340509221,colour,0.5
105,21,0,2,12,3,553,882.9956999902497,884.2635061581968,"[63, 0, 191]",191,a,0.7445818616542965,colour,0.5
105,21,0,2,12,4,554,884.7769634794677,885.3434627878596,"[16, 0, 238]",238,a,0.04332186980172992,colour,0.5
105,21,0,2,12,5,555,885.8549815995502,886.4794747198466,"[58, 0, 196]",196,a,0.10132395249092951,colour,0.5
105,21,0,2,12,6,556,886.9956799041247,888.191504034563,"[40, 0, 214]",214,a,0.672612821101211,colour,0.5
105,21,0,2,12,7,557,888.6988413840882,889.5034760840936,"[6, 0, 248]",248,a,0.2814194521633908,colour,0.5
105,21,0,2,12,8,558,890.0112222456955,890.7434743669583,"[27, 0, 227]",227,a,0.20883443666389212,colour,0.5
105,21,0,2,12,9,559,891.2611718334374,892.20748196973,"[71, 0, 183]",183,l,0.42279871634673327,colour,0.5
105,21,0,2,12,10,560,892.7143604887533,893.4794810213498,"[23, 0, 231]",231,a,0.24207739543635398,colour,0.5
105,21,0,2,12,11,561,893.9956830548472,894.7834497279255,"[46, 0, 208]",208,a,0.26458056981209666,colour,0.5
105,21,0,2,12,12,562,895.2924896733603,896.0554822564591,"[1, 0, 253]",253,a,0.23968793224776164,colour,0.5
105,21,0,2,12,13,563,896.5737263810588,897.3354818941443,"[13, 0, 241]",241,a,0.2391054341569543,colour,0.5
105,21,0,2,12,14,564,897.8549713595421,898.5275160453166,"[78, 0, 176]",176,l,0.1494479855755344,colour,0.5
105,21,0,2,12,15,565,899.0424435933819,899.75947081286,"[9, 0, 245]",245,a,0.19360599020728841,colour,0.5
105,21,0,2,12,16,566,900.276980020979,901.0154399416642,"[79, 0, 175]",175,l,0.21523443283513188,colour,0.5
105,21,0,2,12,17,567,901.5268803779618,902.1834727285313,"[24, 0, 230]",230,a,0.1332412259071134,colour,0.5
105,21,0,2,12,18,568,902.6987480425742,903.4554469678551,"[0, 0, 254]",254,a,0.23330802214331925,colour,0.5
105,21,0,2,12,19,569,903.9643325256766,904.6554360189475,"[55, 0, 199]",199,a,0.16767990094376728,colour,0.5
105,21,0,2,12,20,570,905.1675022764248,906.0714444377809,"[98, 0, 156]",156,l,0.3806969812139869,colour,0.5
105,21,0,2,12,21,571,906.5892927472596,907.439428860438,"[91, 0, 163]",163,l,0.32679522852413356,colour,0.5
105,21,0,2,12,22,572,907.9487043257104,908.8074365199427,"[19, 0, 235]",235,a,0.3353617711109109,colour,0.5
105,21,0,2,12,23,573,909.3236617903458,909.9834592590341,"[80, 0, 174]",174,l,0.13637348252814263,colour,0.5
105,21,0,2,12,24,574,910.49558341183,911.1834597316338,"[53, 0, 201]",201,a,0.16461420431733131,colour,0.5
105,21,0,2,12,25,575,911.6987275626161,912.4794010706246,"[86, 0, 168]",168,l,0.2574748017359525,colour,0.5
105,21,0,2,12,26,576,912.9956058610696,913.6394541453337,"[83, 0, 171]",171,l,0.12064051954075694,colour,0.5
105,21,0,2,12,27,577,914.1518051534076,914.9034183463082,"[28, 0, 226]",226,a,0.22827152052195743,colour,0.5
105,21,0,2,12,28,578,915.4174152364722,916.2074146220693,"[35, 0, 219]",219,a,0.26672151626553386,colour,0.5
105,21,0,2,12,29,579,916.7142832949758,917.4474704064196,"[60, 0, 194]",194,a,0.20983677450567484,colour,0.5
105,21,0,2,12,30,580,917.9642383964965,918.5194240870187,"[12, 0, 242]",242,a,0.031821175070945174,colour,0.5
105,21,0,2,12,31,581,919.0268630487844,919.5914774105768,"[32, 0, 222]",222,a,0.04133531096158549,colour,0.5
105,21,0,2,12,32,582,920.1048981042113,921.3354476295062,"[88, 0, 166]",166,l,0.7075560127268545,colour,0.5
105,21,0,2,12,33,583,921.8548988918774,922.7514280853211,"[74, 0, 180]",180,l,0.373422647069674,colour,0.5
105,21,0,2,12,34,584,923.2611269349582,924.5834472861025,"[3, 0, 251]",251,a,0.7989010910969228,colour,0.5
105,21,0,2,12,35,585,925.1048791995854,925.8314623026527,"[31, 0, 223]",223,a,0.2033682490582578,colour,0.5
105,21,0,2,12,36,586,926.3393766364316,927.2074591266573,"[51, 0, 203]",203,a,0.3448282516328618,colour,0.5
105,21,0,2,12,37,587,927.7143006241531,928.4474140864913,"[41, 0, 213]",213,a,0.2097832114668563,colour,0.5
105,21,0,2,12,38,588,928.9642273688223,929.9674608438509,"[52, 0, 202]",202,a,0.47986147651681677,colour,0.5
105,21,0,2,12,39,589,930.4799792364356,931.3674665152212,"[82, 0, 172]",172,l,0.36423894786275923,colour,0.5
105,21,0,2,12,40,590,931.8861352057429,933.0794592023012,"[30, 0, 224]",224,a,0.6700012288056314,colour,0.5
105,21,0,2,12,41,591,933.5892324888264,934.3034531622543,"[90, 0, 164]",164,l,0.19088254566304386,colour,0.5
105,21,0,2,12,42,592,934.8236019257456,935.4795680613024,"[57, 0, 197]",197,a,0.13257208169670776,colour,0.5
105,21,0,2,12,43,593,935.9954853442032,936.807759473566,"[17, 0, 237]",237,a,0.2889241861994378,colour,0.5
105,21,0,2,12,44,594,937.3304918663343,937.903427798592,"[38, 0, 216]",216,a,0.049658062984235585,colour,0.5
105,21,0,2,12,45,595,938.4242740632035,939.1914591361419,"[34, 0, 220]",220,a,0.24383079749532044,colour,0.5
105,21,0,2,12,46,596,939.7054749309318,940.2954206747236,"[59, 0, 195]",195,a,0.0666915051988326,colour,0.5
105,21,0,2,12,47,597,940.8148211309453,941.3834200319834,"[5, 0, 249]",249,a,0.04518161027226597,colour,0.5
105,21,0,2,12,48,598,941.8930078170961,942.4875135089387,"[93, 0, 161]",161,l,0.07110927492612973,colour,0.5
105,21,0,2,12,49,599,943.0023744970676,943.6074415611802,"[39, 0, 215]",215,a,0.08179155783727765,colour,0.5
105,21,0,2,12,50,600,944.1274339678348,944.8554341284907,"[56, 0, 198]",198,a,0.204767583636567,colour,0.5
105,21,0,2,13,1,601,961.6733847591095,962.6794275370776,"[98, 0, 156]",156,l,0.48195870604831725,colour,0.5
105,21,0,2,13,2,602,963.1898305832292,963.9594070886378,"[81, 0, 173]",173,l,0.2463037560810335,colour,0.5
105,21,0,2,13,3,603,964.4710227863397,965.9834072713275,"[44, 0, 210]",210,a,0.9890782587463036,colour,0.5
105,21,0,2,13,4,604,966.5023095125216,967.2237718309043,"[65, 0, 189]",189,l,0.19807259686058387,colour,0.5
105,21,0,2,13,5,605,967.7366683155997,968.9194482691237,"[9, 0, 245]",245,a,0.6594292226945981,colour,0.5
105,21,0,2,13,6,606,969.4398104971042,970.1353928062017,"[30, 0, 224]",224,a,0.1723741504829377,colour,0.5
105,21,0,2,13,7,607,970.6429648878402,971.6553907266934,"[22, 0, 232]",232,a,0.4889888557372615,colour,0.5
105,21,0,2,13,8,608,972.1741310971556,972.9994163203519,"[97, 0, 157]",157,l,0.3019939631340094,colour,0.5
105,21,0,2,13,9,609,973.517889663286,974.3434639694169,"[21, 0, 233]",233,a,0.3022188491304405,colour,0.5
105,21,0,2,13,10,610,974.8615993925487,975.5273911961121,"[78, 0, 176]",176,l,0.1424162604380399,colour,0.5
105,21,0,2,13,11,611,976.0335229833145,976.7194178642239,"[73, 0, 181]",181,l,0.16260952851735055,colour,0.5
105,21,0,2,13,12,612,977.2365919094882,977.839368365705,"[54, 0, 200]",200,a,0.079385946970433,colour,0.5
105,21,0,2,13,13,613,978.3459920663736,979.1194184155902,"[53, 0, 201]",201,a,0.2501788060180843,colour,0.5
105,21,0,2,13,14,614,979.6273906447459,980.3033779377001,"[2, 0, 252]",252,a,0.1527547158766538,colour,0.5
105,21,0,2,13,15,615,980.8147407863871,981.5994074982009,"[85, 0, 169]",169,l,0.26126241794554517,colour,0.5
105,21,0,2,13,16,616,982.1116151463939,982.7194178642239,"[72, 0, 182]",182,l,0.08445356239099056,colour,0.5
105,21,0,2,13,17,617,983.236665558652,984.0314115753281,"[51, 0, 203]",203,a,0.2714791750186123,colour,0.5
105,21,0,2,13,18,618,984.5491011648555,985.4314062190242,"[27, 0, 227]",227,a,0.358927147986833,colour,0.5
105,21,0,2,13,19,619,985.9397451186669,986.6794153278461,"[18, 0, 236]",236,a,0.21637264755554497,colour,0.5
105,21,0,2,13,20,620,987.1897671740735,987.9273972613737,"[91, 0, 163]",163,l,0.214372304151766,colour,0.5
105,21,0,2,13,21,621,988.4397329094354,989.1273780416814,"[46, 0, 208]",208,a,0.16424753371393308,colour,0.5
105,21,0,2,13,22,622,989.6428660325473,990.7434712161776,"[68, 0, 186]",186,l,0.5772516959114,colour,0.5
105,21,0,2,13,23,623,991.2521578817978,992.1273981278064,"[31, 0, 223]",223,a,0.3517867213813588,colour,0.5
105,21,0,2,13,24,624,992.6428168017883,993.3834393303841,"[3, 0, 251]",251,a,0.2172205977840349,colour,0.5
105,21,0,2,13,25,625,993.8928861186723,995.543407728197,"[4, 0, 250]",250,a,1.1271102264290676,colour,0.5
105,21,0,2,13,26,626,996.0646797402878,996.9273429106106,"[14, 0, 240]",240,a,0.3393258302821778,colour,0.5
105,21,0,2,13,27,627,997.4394804542535,999.3993896963657,"[13, 0, 241]",241,a,1.436276911466848,colour,0.5
105,21,0,2,13,28,628,999.9082579250098,1000.6473830514005,"[56, 0, 198]",198,l,0.2155487218988128,colour,0.5
105,21,0,2,13,29,629,1001.1584316110238,1001.7914432247635,"[20, 0, 234]",234,a,0.10959826142061502,colour,0.5
105,21,0,2,13,30,630,1002.2990598110482,1002.9593704609433,"[17, 0, 237]",237,a,0.13707098364830017,colour,0.5
105,21,0,2,13,31,631,1003.4709357463871,1004.0873743238044,"[39, 0, 215]",215,a,0.09341434482485056,colour,0.5
105,21,0,2,13,32,632,1004.5959018756403,1005.1674018457416,"[29, 0, 225]",225,a,0.04855923284776509,colour,0.5
105,21,0,2,13,33,633,1005.6740409064223,1006.2314183494309,"[83, 0, 171]",171,l,0.03415786288678646,colour,0.5
105,21,0,2,13,34,634,1006.7521417341195,1007.511363636353,"[35, 0, 219]",219,a,0.2362851034849882,colour,0.5
105,21,0,2,13,35,635,1008.0177782048704,1008.7114027058706,"[75, 0, 179]",179,l,0.17032418242888525,colour,0.5
105,21,0,2,13,36,636,1009.2209581956267,1009.8153614875628,"[95, 0, 159]",159,l,0.07120655488688499,colour,0.5
105,21,0,2,13,37,637,1010.3303012448596,1011.0074062725762,"[45, 0, 209]",209,a,0.15378698607673869,colour,0.5
105,21,0,2,13,38,638,1011.517844764865,1012.1274040355347,"[96, 0, 158]",158,l,0.08621444756863639,colour,0.5
105,21,0,2,13,39,639,1012.6427699341439,1014.4633522431832,"[92, 0, 162]",162,l,1.2971449321485125,colour,0.5
105,21,0,2,13,40,640,1014.9710027002147,1015.7273987579974,"[50, 0, 204]",204,a,0.23336828063474968,colour,0.5
105,21,0,2,13,41,641,1016.2364875403,1016.9994304988068,"[23, 0, 231]",231,a,0.23961625230731443,colour,0.5
105,21,0,2,13,42,642,1017.5177750541479,1018.1033561974182,"[93, 0, 161]",161,l,0.06223159399814904,colour,0.5
105,21,0,2,13,43,643,1018.6114083772991,1019.2553799353191,"[86, 0, 168]",168,l,0.12040815042564645,colour,0.5
105,21,0,2,13,44,644,1019.7677750541479,1020.3753906951752,"[40, 0, 214]",214,a,0.08431571634719148,colour,0.5
105,21,0,2,13,45,645,1020.8927632387495,1021.567398064828,"[89, 0, 165]",165,l,0.15135656291386113,colour,0.5
105,21,0,2,13,46,646,1022.0802472879877,1022.6633716204087,"[32, 0, 222]",222,a,0.05973776162136346,colour,0.5
105,21,0,2,13,47,647,1023.1740310603054,1023.8954358771443,"[64, 0, 190]",190,a,0.19818444905104116,colour,0.5
105,21,0,2,13,48,648,1024.4084335802472,1025.2473584754043,"[12, 0, 242]",242,a,0.3160133025376126,colour,0.5
105,21,0,2,13,49,649,1025.7677372448961,1026.3353850080166,"[99, 0, 155]",155,l,0.04436910606455058,colour,0.5
105,21,0,2,13,50,650,1026.845816411078,1027.5114542209194,"[15, 0, 239]",239,a,0.14237333124037832,colour,0.5
105,21,0,2,14,1,651,1032.9701137899538,1033.9113700954476,"[23, 0, 231]",231,a,0.41733843652764335,colour,0.5
105,21,0,2,14,2,652,1034.4240216079634,1035.9993883572752,"[9, 0, 245]",245,a,1.0524472797405906,colour,0.5
105,21,0,2,14,3,653,1036.517711644934,1037.0633505102596,"[24, 0, 230]",230,a,0.022320036019664258,colour,0.5
105,21,0,2,14,4,654,1037.5801618234254,1038.2233775911154,"[51, 0, 203]",203,a,0.11977642151759937,colour,0.5
105,21,0,2,14,5,655,1038.736299675773,1039.9593137471238,"[12, 0, 242]",242,a,0.7001891247928143,colour,0.5
105,21,0,2,14,6,656,1040.4710393279092,1041.4233654606505,"[14, 0, 240]",240,a,0.4293420725152828,colour,0.5
105,21,0,2,14,7,657,1041.9396320849191,1042.991393285105,"[55, 0, 199]",199,a,0.5284435524372384,colour,0.5
105,21,0,2,14,8,658,1043.5020290942048,1044.4873236751882,"[22, 0, 232]",232,a,0.46193912404123694,colour,0.5
105,21,0,2,14,9,659,1045.0020361834322,1046.4153711761464,"[65, 0, 189]",189,a,0.8899295172886923,colour,0.5
105,21,0,2,14,10,660,1046.92392550956,1047.775345560396,"[2, 0, 252]",252,a,0.32809570769313723,colour,0.5
105,21,0,2,14,11,661,1048.283318577276,1049.07938437158,"[64, 0, 190]",190,a,0.27284700190648437,colour,0.5
105,21,0,2,14,12,662,1049.595732128073,1050.239396880148,"[74, 0, 180]",180,l,0.12037703662645072,colour,0.5
105,21,0,2,14,13,663,1050.751986165007,1051.4713591307518,"[71, 0, 183]",183,l,0.19635503471363336,colour,0.5
105,21,0,2,14,14,664,1051.9864170418587,1052.7193477596738,"[66, 0, 188]",188,l,0.20964142691809684,colour,0.5
105,21,0,2,14,15,665,1053.2363953803433,1054.0474080212298,"[77, 0, 177]",177,l,0.287622919306159,colour,0.5
105,21,0,2,14,16,666,1054.564558041864,1055.263373432099,"[62, 0, 192]",192,l,0.17618933587800711,colour,0.5
105,21,0,2,14,17,667,1055.7832059373031,1056.6473369714222,"[40, 0, 214]",214,a,0.34089136781403795,colour,0.5
105,21,0,2,14,18,668,1057.1581771865604,1057.9353718535858,"[80, 0, 174]",174,l,0.2534359118435532,colour,0.5
105,21,0,2,14,19,669,1058.4550964449882,1059.2074051697855,"[96, 0, 158]",158,l,0.22904660931089893,colour,0.5
105,21,0,2,14,20,670,1059.7207648172625,1060.4873796013417,"[54, 0, 200]",200,a,0.2433991424040869,colour,0.5
105,21,0,2,14,21,671,1061.0019700173289,1061.5673370186705,"[45, 0, 209]",209,a,0.04237151955021545,colour,0.5
105,21,0,2,14,22,672,1062.0801255896222,1062.6073753950186,"[20, 0, 234]",234,a,0.00390734535176307,colour,0.5
105,21,0,2,14,23,673,1063.1270507557201,1064.783348509518,"[29, 0, 225]",225,a,1.133032487530727,colour,0.5
105,21,0,2,14,24,674,1065.2989133003284,1066.0553325950168,"[81, 0, 173]",173,l,0.23315914842532948,colour,0.5
105,21,0,2,14,25,675,1066.5644847865333,1067.1993569284095,"[94, 0, 160]",160,l,0.11209918302483857,colour,0.5
105,21,0,2,14,26,676,1067.720751032699,1068.2873488025507,"[87, 0, 167]",167,l,0.04338291590102017,colour,0.5
105,21,0,2,14,27,677,1068.7988002665807,1069.4153778715408,"[5, 0, 249]",249,a,0.09322332951705903,colour,0.5
105,21,0,2,14,28,678,1069.9239337803447,1070.6233576625236,"[42, 0, 212]",212,a,0.17616373591590673,colour,0.5
105,21,0,2,14,29,679,1071.142632481933,1071.7273199887713,"[10, 0, 244]",244,a,0.061343077570199966,colour,0.5
105,21,0,2,14,30,680,1072.2363567834836,1072.9833962436533,"[95, 0, 159]",159,l,0.22367967094760388,colour,0.5
105,21,0,2,14,31,681,1073.5019089711714,1074.1673904241761,"[70, 0, 184]",184,a,0.14211142371641472,colour,0.5
105,21,0,2,14,32,682,1074.6738506788388,1075.4553150294814,"[11, 0, 243]",243,a,0.25814788439311087,colour,0.5
105,21,0,2,14,33,683,1075.97069746966,1076.631348796247,"[63, 0, 191]",191,a,0.13749554951209575,colour,0.5
105,21,0,2,14,34,684,1077.1426651711226,1077.8473319301847,"[4, 0, 250]",250,a,0.18134871748043224,colour,0.5
105,21,0,2,14,35,685,1078.361265411193,1078.9113610369968,"[6, 0, 248]",248,a,0.02671890112105757,colour,0.5
105,21,0,2,14,36,686,1079.42376285122,1080.6474082575296,"[0, 0, 254]",254,a,0.7005754876299761,colour,0.5
105,21,0,2,14,37,687,1081.158185063512,1082.351364518574,"[31, 0, 223]",223,a,0.6697999734897166,colour,0.5
105,21,0,2,14,38,688,1082.8613363034674,1083.9593507686513,"[16, 0, 238]",238,a,0.5750394633505493,colour,0.5
105,21,0,2,14,39,689,1084.4706955003785,1085.1753642287222,"[84, 0, 170]",170,l,0.18146726512350142,colour,0.5
105,21,0,2,14,40,690,1085.6894071988645,1086.4713232907816,"[69, 0, 185]",185,a,0.2585795395425521,colour,0.5
105,21,0,2,14,41,691,1086.9863567834836,1088.1513896459364,"[73, 0, 181]",181,l,0.6417140332050622,colour,0.5
105,21,0,2,14,42,692,1088.6581641896628,1089.455371743301,"[53, 0, 201]",201,a,0.274120305723045,colour,0.5
105,21,0,2,14,43,693,1089.9706762019778,1090.87932836666,"[52, 0, 202]",202,a,0.3854495199630037,colour,0.5
105,21,0,2,14,44,694,1091.392583251174,1092.207377994433,"[30, 0, 224]",224,a,0.2915109662571922,colour,0.5
105,21,0,2,14,45,695,1092.7206651742454,1093.4393193712458,"[86, 0, 168]",168,l,0.19542831531725824,colour,0.5
105,21,0,2,14,46,696,1093.9550247650477,1094.7353851655498,"[89, 0, 165]",165,l,0.2572038357029669,colour,0.5
105,21,0,2,14,47,697,1095.2518207497196,1096.0633595687104,"[3, 0, 251]",251,a,0.2880474851699546,colour,0.5
105,21,0,2,14,48,698,1096.5800243712147,1097.7273806410958,"[47, 0, 207]",207,a,0.6240401975228451,colour,0.5
105,21,0,2,14,49,699,1098.2363051896682,1098.903313189454,"[33, 0, 221]",221,a,0.14375100430333987,colour,0.5
105,21,0,2,14,50,700,1099.4238242911524,1101.527321091562,"[38, 0, 216]",216,a,1.5800054665887728,colour,0.5
105,21,0,2,15,1,701,1122.7666411717073,1123.8473197209532,"[56, 0, 198]",198,a,0.5565570619655773,colour,0.5
105,21,0,2,15,2,702,1124.361131109763,1125.5753076724359,"[66, 0, 188]",188,l,0.6908041703281924,colour,0.5
105,21,0,2,15,3,703,1126.0955923127476,1127.6793420725153,"[10, 0, 244]",244,a,1.0605006411788054,colour,0.5
105,21,0,2,15,4,704,1128.1892539928085,1128.9593389532529,"[60, 0, 194]",194,l,0.24672280804952607,colour,0.5
105,21,0,2,15,5,705,1129.4706336666131,1130.151317965996,"[73, 0, 181]",181,l,0.15747062698937953,colour,0.5
105,21,0,2,15,6,706,1130.6579956235946,1131.359348169237,"[39, 0, 215]",215,a,0.17797345790313557,colour,0.5
105,21,0,2,15,7,707,1131.8768585589132,1132.4473108988605,"[93, 0, 161]",161,l,0.047152021375950426,colour,0.5
105,21,0,2,15,8,708,1132.9549294543103,1133.5193098716554,"[12, 0, 242]",242,a,0.04140974779147655,colour,0.5
105,21,0,2,15,9,709,1134.0330373712932,1134.9512682626373,"[67, 0, 187]",187,l,0.39490103436401114,colour,0.5
105,21,0,2,15,10,710,1135.4705186635838,1136.199305334594,"[62, 0, 192]",192,l,0.20557260472560301,colour,0.5
105,21,0,2,15,11,711,1136.7205111805233,1137.2873346240958,"[5, 0, 249]",249,a,0.04350422043353319,colour,0.5
105,21,0,2,15,12,712,1137.7986072820495,1138.479314030672,"[78, 0, 176]",176,l,0.1573709839140065,colour,0.5
105,21,0,2,15,13,713,1138.9861937312526,1139.5593226480414,"[48, 0, 206]",206,a,0.049827810551505536,colour,0.5
105,21,0,2,15,14,714,1140.0798565928126,1140.8233041782514,"[49, 0, 205]",205,l,0.22010709455935284,colour,0.5
105,21,0,2,15,15,715,1141.3299495404935,1142.0873258807114,"[99, 0, 155]",155,l,0.23409059399273247,colour,0.5
105,21,0,2,15,16,716,1142.5955407189322,1143.975286956178,"[15, 0, 239]",239,a,0.8565506816958077,colour,0.5
105,21,0,2,15,17,717,1144.4860732143861,1145.5753691124264,"[18, 0, 236]",236,a,0.5659439856535755,colour,0.5
105,21,0,2,15,18,718,1146.0954859743943,1146.8313039765926,"[57, 0, 197]",197,a,0.21254367748042569,colour,0.5
105,21,0,2,15,19,719,1147.3454430451384,1147.9033427278628,"[4, 0, 250]",250,a,0.034504053415730596,colour,0.5
105,21,0,2,15,20,720,1148.4236183097237,1149.087313277647,"[41, 0, 213]",213,a,0.14106300589628518,colour,0.5
105,21,0,2,15,21,721,1149.5955080297426,1151.231320281804,"[61, 0, 193]",193,a,1.1125702227000147,colour,0.5
105,21,0,2,15,22,722,1151.7517396174371,1152.447338074213,"[75, 0, 179]",179,l,0.1726250303327106,colour,0.5
105,21,0,2,15,23,723,1152.9548463528627,1153.5672881818027,"[19, 0, 235]",235,a,0.08929353492567316,colour,0.5
105,21,0,2,15,24,724,1154.0799038543482,1155.4633081324864,"[8, 0, 246]",246,a,0.8601397995953448,colour,0.5
105,21,0,2,15,25,725,1155.9705316604814,1156.6232800748548,"[3, 0, 251]",251,a,0.12948826811043546,colour,0.5
105,21,0,2,15,26,726,1157.1423319774913,1157.7833059742115,"[44, 0, 210]",210,a,0.11754725367063656,colour,0.5
105,21,0,2,15,27,727,1158.2985245744349,1158.8233746766928,"[45, 0, 209]",209,a,0.0014135130331851542,colour,0.5
105,21,0,2,15,28,728,1159.3454391066916,1159.871338414494,"[9, 0, 245]",245,a,0.002550940029323101,colour,0.5
105,21,0,2,15,29,729,1160.392272506724,1161.2793241919135,"[88, 0, 166]",166,l,0.3636615697760135,colour,0.5
105,21,0,2,15,30,730,1161.798575380526,1162.383285336662,"[30, 0, 224]",224,a,0.06139388371957466,colour,0.5
105,21,0,2,15,31,731,1162.892360728234,1163.503275222669,"[1, 0, 253]",253,a,0.08759408973855898,colour,0.5
105,21,0,2,15,32,732,1164.0173004698008,1165.3912559904275,"[0, 0, 254]",254,a,0.8506453559384681,colour,0.5
105,21,0,2,15,33,733,1165.907914097479,1166.6232820440782,"[79, 0, 175]",175,l,0.19197428657207638,colour,0.5
105,21,0,2,15,34,734,1167.1422536021564,1167.7512740915408,"[69, 0, 185]",185,l,0.08559886633884162,colour,0.5
105,21,0,2,15,35,735,1168.267311497475,1168.8793051297544,"[46, 0, 208]",208,a,0.08872167061781511,colour,0.5
105,21,0,2,15,36,736,1169.3922595098265,1170.2717509287177,"[65, 0, 189]",189,a,0.3560780665720813,colour,0.5
105,21,0,2,15,37,737,1170.782868805225,1171.3752819937072,"[72, 0, 182]",182,a,0.0689446977339685,colour,0.5
105,21,0,2,15,38,738,1171.8923044082476,1172.607337585825,"[33, 0, 221]",221,a,0.1917249821126461,colour,0.5
105,21,0,2,15,39,739,1173.1266730575007,1173.7993319585803,"[55, 0, 199]",199,a,0.14927548106061295,colour,0.5
105,21,0,2,15,40,740,1174.314375297341,1174.9432901258115,"[95, 0, 159]",159,l,0.10579292208421975,colour,0.5
105,21,0,2,15,41,741,1175.4547388328938,1176.1992836730788,"[91, 0, 163]",163,l,0.22138512460514903,colour,0.5
105,21,0,2,15,42,742,1176.7204095682828,1178.50328585651,"[89, 0, 165]",165,l,1.259564942040015,colour,0.5
105,21,0,2,15,43,743,1179.017222882132,1179.7832925834227,"[63, 0, 191]",191,a,0.24275559809757397,colour,0.5
105,21,0,2,15,44,744,1180.2985281190486,1181.159326822788,"[20, 0, 234]",234,a,0.3375365882529877,colour,0.5
105,21,0,2,15,45,745,1181.6735580513487,1182.2472879770212,"[21, 0, 233]",233,a,0.05050443788059056,colour,0.5
105,21,0,2,15,46,746,1182.7672181560192,1183.5272671346902,"[76, 0, 178]",178,l,0.23672542325221002,colour,0.5
105,21,0,2,15,47,747,1184.0485131528694,1184.7593207575846,"[43, 0, 211]",211,a,0.18741945852525532,colour,0.5
105,21,0,2,15,48,748,1185.2672650236636,1185.8634228991577,"[96, 0, 158]",158,l,0.07283195696072653,colour,0.5
105,21,0,2,15,49,749,1186.3766490328708,1187.135271501611,"[52, 0, 202]",202,a,0.23589401447679847,colour,0.5
105,21,0,2,15,50,750,1187.6422240636894,1188.4392677774304,"[31, 0, 223]",223,a,0.2736323306453414,colour,0.5
105,21,0,2,16,1,751,1192.6570566949085,1193.343315883365,"[2, 0, 252]",252,a,0.16220504883676767,colour,0.5
105,21,0,2,16,2,752,1193.861057460541,1195.6232997671468,"[26, 0, 228]",228,a,1.239028240321204,colour,0.5
105,21,0,2,16,3,753,1196.1422051590635,1197.1112744696438,"[63, 0, 191]",191,l,0.445714641304221,colour,0.5
105,21,0,2,16,4,754,1197.6265667190892,1198.3113241730025,"[90, 0, 164]",164,l,0.1613890000153333,colour,0.5
105,21,0,2,16,5,755,1198.8296817252412,1199.463252600166,"[58, 0, 196]",196,a,0.11024495639139786,colour,0.5
105,21,0,2,16,6,756,1199.970376091369,1200.6472928606672,"[98, 0, 156]",156,l,0.15375784144271165,colour,0.5
105,21,0,2,16,7,757,1201.1578140606289,1201.7753042065888,"[31, 0, 223]",223,a,0.09421818429837003,colour,0.5
105,21,0,2,16,8,758,1202.2828778636758,1202.943238531996,"[23, 0, 231]",231,a,0.13708949438296258,colour,0.5
105,21,0,2,16,9,759,1203.454660851392,1204.1512226553168,"[54, 0, 200]",200,a,0.17324533767532557,colour,0.5
105,21,0,2,16,10,760,1204.657863291388,1205.8393234672258,"[14, 0, 240]",240,a,0.658213026530575,colour,0.5
105,21,0,2,16,11,761,1206.3610192575143,1207.0312725476688,"[25, 0, 229]",229,a,0.14707033772720024,colour,0.5
105,21,0,2,16,12,762,1207.548411934462,1208.2072417237214,"[3, 0, 251]",251,a,0.13559287990210578,colour,0.5
105,21,0,2,16,13,763,1208.7202610883396,1209.3352865465567,"[4, 0, 250]",250,a,0.0916944196796976,colour,0.5
105,21,0,2,16,14,764,1209.8453776667593,1210.5112758087344,"[35, 0, 219]",219,a,0.14256828499492258,colour,0.5
105,21,0,2,16,15,765,1211.0327794021578,1211.7672780205612,"[69, 0, 185]",185,l,0.211143555236049,colour,0.5
105,21,0,2,16,16,766,1212.2828034267877,1212.9992623266298,"[92, 0, 162]",162,l,0.1931861505145207,colour,0.5
105,21,0,2,16,17,767,1213.5171401745174,1214.2713618089329,"[77, 0, 177]",177,l,0.23096857737982646,colour,0.5
105,21,0,2,16,18,768,1214.7827478945255,1215.4632845016895,"[5, 0, 249]",249,a,0.1571338886860758,colour,0.5
105,21,0,2,16,19,769,1215.9703280421672,1216.7432388470625,"[51, 0, 203]",203,a,0.2497652678284794,colour,0.5
105,21,0,2,16,20,770,1217.251521426835,1218.015226083342,"[93, 0, 161]",161,l,0.24035510723479092,colour,0.5
105,21,0,2,16,21,771,1218.5327348975698,1219.2073323082877,"[34, 0, 220]",220,a,0.1512569198384881,colour,0.5
105,21,0,2,16,22,772,1219.7202784175752,1220.4952553382027,"[70, 0, 184]",184,a,0.25166321132564917,colour,0.5
105,21,0,2,16,23,773,1221.0015592360287,1221.847263794858,"[29, 0, 225]",225,a,0.322384154133033,colour,0.5
105,21,0,2,16,24,774,1222.3610149251763,1223.2552066430799,"[86, 0, 168]",168,l,0.3710205808165483,colour,0.5
105,21,0,2,16,25,775,1223.7671043345472,1224.5512393543613,"[56, 0, 198]",198,a,0.2607968921074644,colour,0.5
105,21,0,2,16,26,776,1225.0639566391474,1225.679276694078,"[36, 0, 218]",218,a,0.09194923797622323,colour,0.5
105,21,0,2,16,27,777,1226.189048799104,1226.7192752920091,"[20, 0, 234]",234,a,0.007070715830195695,colour,0.5
105,21,0,2,16,28,778,1227.2358384822146,1227.8392427288345,"[80, 0, 174]",174,l,0.08040088787674904,colour,0.5
105,21,0,2,16,29,779,1228.3609712083125,1229.0152568033081,"[72, 0, 182]",182,a,0.13105813798028976,colour,0.5
105,21,0,2,16,30,780,1229.532667156076,1231.5832948677125,"[13, 0, 241]",241,a,1.5272155408165418,colour,0.5
105,21,0,2,16,31,781,1232.0952591191162,1232.9912534697796,"[59, 0, 195]",195,a,0.37271884438814595,colour,0.5
105,21,0,2,16,32,782,1233.5015103991027,1234.2472462293226,"[75, 0, 179]",179,a,0.2225020716432482,colour,0.5
105,21,0,2,16,33,783,1234.76713899296,1235.5672728217905,"[41, 0, 213]",213,a,0.2769071594811976,colour,0.5
105,21,0,2,16,34,784,1236.0795474238112,1236.7112593459897,"[97, 0, 157]",157,l,0.10832810832653195,colour,0.5
105,21,0,2,16,35,785,1237.2202276114258,1237.9272775322315,"[22, 0, 232]",232,a,0.1837854422046803,colour,0.5
105,21,0,2,16,36,786,1238.444448426657,1239.0872805884574,"[16, 0, 238]",238,a,0.12517250451492146,colour,0.5
105,21,0,2,16,37,787,1239.5951000053901,1240.34324184031,"[43, 0, 211]",211,a,0.22468319034669548,colour,0.5
105,21,0,2,16,38,788,1240.8610976328491,1241.6232584133395,"[88, 0, 166]",166,l,0.23907392646651715,colour,0.5
105,21,0,2,16,39,789,1242.1421417499078,1243.4712732723565,"[85, 0, 169]",169,l,0.8058725577429868,colour,0.5
105,21,0,2,16,40,790,1243.9858581745066,1245.36726329074,"[40, 0, 214]",214,a,0.858142213022802,colour,0.5
105,21,0,2,16,41,791,1245.8764824360842,1246.815224823018,"[50, 0, 204]",204,a,0.41536329925293103,colour,0.5
105,21,0,2,16,42,792,1247.3294855899876,1248.3672392661101,"[48, 0, 206]",206,a,0.5144328775932081,colour,0.5
105,21,0,2,16,43,793,1248.8764777099132,1249.4072867009672,"[44, 0, 210]",210,a,0.007542937120888382,colour,0.5
105,21,0,2,16,44,794,1249.923352463753,1250.4792699199752,"[38, 0, 216]",216,a,0.03262186382198706,colour,0.5
105,21,0,2,16,45,795,1250.9858050053008,1252.0792532208725,"[99, 0, 155]",155,l,0.5701089062495157,colour,0.5
105,21,0,2,16,46,796,1252.5951031561126,1254.2552401199937,"[62, 0, 192]",192,a,1.1367023438797332,colour,0.5
105,21,0,2,16,47,797,1254.767063768406,1255.5352488161298,"[42, 0, 212]",212,a,0.244911904563196,colour,0.5
105,21,0,2,16,48,798,1256.048313079169,1256.8392864456982,"[73, 0, 181]",181,l,0.26769431569846347,colour,0.5
105,21,0,2,16,49,799,1257.3607620761031,1257.9593074456207,"[18, 0, 236]",236,a,0.07518558023730293,colour,0.5
105,21,0,2,16,50,800,1258.4702051622444,1259.039227447589,"[53, 0, 201]",201,a,0.04576450219610706,colour,0.5
