id,age,condition,counterbalance,block,trialinblock,trial,tstart,tend,trialstim,trialintensity,response,RT,trialtype,colourfreq
030,71,1,1,Practice,1,NA,5.300156772136688e-06,5.598595499992371,"[34, 0, 220]",220,l,5.046329799806699,colour,0.5
030,71,1,1,Practice,2,NA,6.111012400127947,30.470560900168493,"[76, 0, 178]",178,a,23.840747399954125,colour,0.5
030,71,1,1,Practice,3,NA,30.98490300006233,33.17455970006995,"[30, 0, 224]",224,a,1.6702739999163896,colour,0.5
030,71,1,1,Practice,4,NA,33.680493800202385,35.246548200026155,"[85, 0, 169]",169,l,1.0495789998676628,colour,0.5
030,71,1,1,Practice,5,NA,35.75628970004618,36.92658379999921,"[37, 0, 217]",217,a,0.6471246997825801,colour,0.5
030,71,1,1,Practice,6,NA,37.44007540005259,38.03861590009183,"[39, 0, 215]",215,a,0.07476709992624819,colour,0.5
030,71,1,1,Practice,7,NA,38.54937650007196,39.126554700080305,"[77, 0, 177]",177,l,0.047464200062677264,colour,0.5
030,71,1,1,Practice,8,NA,39.637583600124344,40.198595200199634,"[70, 0, 184]",184,l,0.045231200056150556,colour,0.5
030,71,1,1,Practice,9,NA,40.707229000050575,41.478534599998966,"[63, 0, 191]",191,l,0.26364059979096055,colour,0.5
030,71,1,1,Practice,10,NA,41.991994000039995,45.86255710013211,"[21, 0, 233]",233,a,3.3494003999512643,colour,0.5
030,71,1,1,1,1,1,4.647730099968612,5.367982299998403,"[75, 0, 179]",179,l,0.19641140010207891,colour,0.5
030,71,1,1,1,2,2,5.877075599972159,10.224067299859598,"[44, 0, 210]",210,a,3.827822200022638,colour,0.5
030,71,1,1,1,3,3,10.732702099950984,11.744013899937272,"[39, 0, 215]",215,a,0.5036470999475569,colour,0.5
030,71,1,1,1,4,4,12.249070799909532,12.863986699841917,"[96, 0, 158]",158,l,0.10140599985606968,colour,0.5
030,71,1,1,1,5,5,13.386906399857253,13.936001399997622,"[46, 0, 208]",208,a,0.028563300147652626,colour,0.5
030,71,1,1,1,6,6,14.431826599873602,14.99202449992299,"[63, 0, 191]",191,l,0.03394230012781918,colour,0.5
030,71,1,1,1,7,7,15.502665099920705,18.983983699930832,"[88, 0, 166]",166,l,2.955920699983835,colour,0.5
030,71,1,1,1,8,8,19.498163799988106,34.78399989986792,"[26, 0, 228]",228,l,14.766545499907807,colour,0.5
030,71,1,1,1,9,9,35.29838529997505,37.75193839985877,"[2, 0, 252]",252,a,1.9236629998777062,colour,0.5
030,71,1,1,1,10,10,38.26451519993134,39.53598629985936,"[51, 0, 203]",203,a,0.7514871000312269,colour,0.5
030,71,1,1,1,11,11,40.04823419987224,40.759979399852455,"[77, 0, 177]",177,l,0.19200959987938404,colour,0.5
030,71,1,1,1,12,12,41.26136119989678,42.45601309998892,"[86, 0, 168]",168,l,0.6790993001777679,colour,0.5
030,71,1,1,1,13,13,42.96512609999627,43.91197969997302,"[42, 0, 212]",212,a,0.42354560014791787,colour,0.5
030,71,1,1,1,14,14,44.43178659980185,45.3759349999018,"[66, 0, 188]",188,l,0.4252780000679195,colour,0.5
030,71,1,1,1,15,15,45.88582139997743,46.95201519993134,"[53, 0, 201]",201,a,0.558477200102061,colour,0.5
030,71,1,1,1,16,16,47.46344939991832,48.42398009984754,"[67, 0, 187]",187,l,0.4354550999123603,colour,0.5
030,71,1,1,1,17,17,48.943942999932915,49.99993209983222,"[19, 0, 235]",235,a,0.5267483999487013,colour,0.5
030,71,1,1,1,18,18,50.51025199983269,51.49593929992989,"[48, 0, 206]",206,a,0.47015150007791817,colour,0.5
030,71,1,1,1,19,19,52.01035529980436,52.895966299809515,"[62, 0, 192]",192,l,0.3701175998430699,colour,0.5
030,71,1,1,1,20,20,53.40985399996862,54.98398749995977,"[31, 0, 223]",223,a,1.0459433000069112,colour,0.5
030,71,1,1,1,21,21,55.49712749989703,56.463970799930394,"[99, 0, 155]",155,l,0.44756160001270473,colour,0.5
030,71,1,1,1,22,22,56.98154419986531,58.039947299985215,"[60, 0, 194]",194,a,0.5282772001810372,colour,0.5
030,71,1,1,1,23,23,58.54862209991552,59.75196939986199,"[4, 0, 250]",250,a,0.6775640998966992,colour,0.5
030,71,1,1,1,24,24,60.26269309991039,61.1759224999696,"[40, 0, 214]",214,a,0.3870713000651449,colour,0.5
030,71,1,1,1,25,25,61.68328239978291,62.66395669989288,"[64, 0, 190]",190,l,0.46008630003780127,colour,0.5
030,71,1,1,1,26,26,63.18539209989831,64.2079703998752,"[82, 0, 172]",172,l,0.5020663000177592,colour,0.5
030,71,1,1,1,27,27,64.7145575999748,65.75208569993265,"[20, 0, 234]",234,a,0.5286793000996113,colour,0.5
030,71,1,1,1,28,28,66.25553779979236,67.26414199988358,"[93, 0, 161]",161,l,0.4907871999312192,colour,0.5
030,71,1,1,1,29,29,67.77542550000362,68.76806089980528,"[90, 0, 164]",164,l,0.47327949991449714,colour,0.5
030,71,1,1,1,30,30,69.27121439995244,70.30397079978138,"[11, 0, 243]",243,a,0.5241296999156475,colour,0.5
030,71,1,1,1,31,31,70.81840019999072,71.75199919985607,"[16, 0, 238]",238,a,0.4131372000556439,colour,0.5
030,71,1,1,1,32,32,72.26833130000159,73.21595579991117,"[10, 0, 244]",244,a,0.41344200004823506,colour,0.5
030,71,1,1,1,33,33,73.72676209989004,74.5119605998043,"[55, 0, 199]",199,l,0.25427769985981286,colour,0.5
030,71,1,1,1,34,34,75.02085939981043,75.99201069981791,"[12, 0, 242]",242,a,0.439904399914667,colour,0.5
030,71,1,1,1,35,35,76.49457199987955,77.38396569993347,"[71, 0, 183]",183,l,0.36684829997830093,colour,0.5
030,71,1,1,1,36,36,77.89293609978631,78.86394399986602,"[21, 0, 233]",233,a,0.45580430002883077,colour,0.5
030,71,1,1,1,37,37,79.3784484998323,80.39237129990943,"[87, 0, 167]",167,l,0.4870631000958383,colour,0.5
030,71,1,1,1,38,38,80.90266439993866,81.97594699985348,"[8, 0, 246]",246,a,0.5583035000599921,colour,0.5
030,71,1,1,1,39,39,82.49863319983706,83.44000659999438,"[15, 0, 239]",239,a,0.4230928001925349,colour,0.5
030,71,1,1,1,40,40,83.95647179987282,84.7919133999385,"[95, 0, 159]",159,l,0.316134599968791,colour,0.5
030,71,1,1,1,41,41,85.3098720998969,86.23992599989288,"[85, 0, 169]",169,l,0.399340899894014,colour,0.5
030,71,1,1,1,42,42,86.7491673999466,87.68796669994481,"[58, 0, 196]",196,l,0.4176781999412924,colour,0.5
030,71,1,1,1,43,43,88.20980869978666,89.04794199997559,"[70, 0, 184]",184,l,0.3099921999964863,colour,0.5
030,71,1,1,1,44,44,89.56511689978652,90.59994799993001,"[49, 0, 205]",205,l,0.5129476001020521,colour,0.5
030,71,1,1,1,45,45,91.10361889982596,91.95194289996289,"[43, 0, 211]",211,a,0.3271175001282245,colour,0.5
030,71,1,1,1,46,46,92.46492229984142,93.39196809986606,"[57, 0, 197]",197,l,0.403318400029093,colour,0.5
030,71,1,1,1,47,47,93.89410519995727,94.79991329996847,"[23, 0, 231]",231,a,0.3909593999851495,colour,0.5
030,71,1,1,1,48,48,95.30969129991718,96.28003169992007,"[13, 0, 241]",241,a,0.4418422000017017,colour,0.5
030,71,1,1,1,49,49,96.79834359977394,97.68794869980775,"[25, 0, 229]",229,a,0.36936349980533123,colour,0.5
030,71,1,1,1,50,50,98.19539209990762,99.10395009978674,"[29, 0, 225]",225,a,0.3940518999006599,colour,0.5
030,71,1,1,2,1,51,104.53084949986078,105.45592749980278,"[56, 0, 198]",198,l,0.40383929992094636,colour,0.5
030,71,1,1,2,2,52,105.97480579977855,106.98406289983541,"[19, 0, 235]",235,a,0.47942229988984764,colour,0.5
030,71,1,1,2,3,53,107.49886669986881,108.43997059995309,"[43, 0, 211]",211,l,0.4112003000918776,colour,0.5
030,71,1,1,2,4,54,108.95104059996083,109.70398189988919,"[62, 0, 192]",192,l,0.23699659993872046,colour,0.5
030,71,1,1,2,5,55,110.22636479977518,110.9679566998966,"[59, 0, 195]",195,l,0.2257085999008268,colour,0.5
030,71,1,1,2,6,56,111.47946770000271,112.07997359987348,"[3, 0, 251]",251,a,0.08488420001231134,colour,0.5
030,71,1,1,2,7,57,112.58765139989555,113.53594519989565,"[22, 0, 232]",232,a,0.434091700008139,colour,0.5
030,71,1,1,2,8,58,114.04428219981492,114.9199872999452,"[14, 0, 240]",240,a,0.34773569996468723,colour,0.5
030,71,1,1,2,9,59,115.43183349980973,116.36792549979873,"[69, 0, 185]",185,l,0.4123308998532593,colour,0.5
030,71,1,1,2,10,60,116.881689599948,117.79995549982414,"[8, 0, 246]",246,a,0.3943602000363171,colour,0.5
030,71,1,1,2,11,61,118.31143589993007,119.20798079995438,"[78, 0, 176]",176,l,0.36854870012030005,colour,0.5
030,71,1,1,2,12,62,119.71511869993992,120.61600309982896,"[79, 0, 175]",175,l,0.3702428999822587,colour,0.5
030,71,1,1,2,13,63,121.11830609990284,122.03199950000271,"[24, 0, 230]",230,a,0.39820500020869076,colour,0.5
030,71,1,1,2,14,64,122.54074969980866,123.43195159989409,"[27, 0, 227]",227,a,0.37502819998189807,colour,0.5
030,71,1,1,2,15,65,123.94794739992358,124.83995709987357,"[42, 0, 212]",212,a,0.37150050001218915,colour,0.5
030,71,1,1,2,16,66,125.35511959996074,126.28793069999665,"[46, 0, 208]",208,a,0.4141749001573771,colour,0.5
030,71,1,1,2,17,67,126.79797969991341,127.66390029992908,"[84, 0, 170]",170,l,0.34681429993361235,colour,0.5
030,71,1,1,2,18,68,128.17274650000036,129.11192649998702,"[20, 0, 234]",234,a,0.4223575000651181,colour,0.5
030,71,1,1,2,19,69,129.6161661997903,130.56789710000157,"[51, 0, 203]",203,l,0.43470730003900826,colour,0.5
030,71,1,1,2,20,70,131.0817168999929,132.2880435998086,"[1, 0, 253]",253,a,0.6827777000144124,colour,0.5
030,71,1,1,2,21,71,132.79857389978133,133.65596589981578,"[73, 0, 181]",181,l,0.33866459992714226,colour,0.5
030,71,1,1,2,22,72,134.1649855999276,135.13592939986847,"[81, 0, 173]",173,l,0.4501984999515116,colour,0.5
030,71,1,1,2,23,73,135.64846369996667,136.65593989985064,"[33, 0, 221]",221,a,0.48112699994817376,colour,0.5
030,71,1,1,2,24,74,137.1650727998931,138.0480078998953,"[47, 0, 207]",207,l,0.36404479993507266,colour,0.5
030,71,1,1,2,25,75,138.55437239981256,139.40791759989224,"[63, 0, 191]",191,l,0.32925490010529757,colour,0.5
030,71,1,1,2,26,76,139.91618389985524,140.87995779979974,"[23, 0, 231]",231,a,0.4558031999040395,colour,0.5
030,71,1,1,2,27,77,141.3862765999511,142.24791579996236,"[67, 0, 187]",187,l,0.34606760018505156,colour,0.5
030,71,1,1,2,28,78,142.76460979995318,143.5919408998452,"[92, 0, 162]",162,l,0.3039184999652207,colour,0.5
030,71,1,1,2,29,79,144.09802199993283,145.02395399985835,"[35, 0, 219]",219,a,0.4064780999906361,colour,0.5
030,71,1,1,2,30,80,145.53226379980333,146.42401759978384,"[32, 0, 222]",222,a,0.3650689998175949,colour,0.5
030,71,1,1,2,31,81,146.93597669992596,147.7919304999523,"[28, 0, 226]",226,a,0.3371472000144422,colour,0.5
030,71,1,1,2,32,82,148.30377589981072,149.11990779987536,"[40, 0, 214]",214,a,0.3009752999059856,colour,0.5
030,71,1,1,2,33,83,149.63433339982294,150.25594770000316,"[85, 0, 169]",169,l,0.0910098000895232,colour,0.5
030,71,1,1,2,34,84,150.75435139983892,152.3599606999196,"[44, 0, 210]",210,l,1.0867387000471354,colour,0.5
030,71,1,1,2,35,85,152.8787840998266,153.46394940000027,"[37, 0, 217]",217,a,0.07046220009215176,colour,0.5
030,71,1,1,2,36,86,153.98165489989333,154.78397959982976,"[38, 0, 216]",216,a,0.2790932999923825,colour,0.5
030,71,1,1,2,37,87,155.29575019981712,156.25598599994555,"[80, 0, 174]",174,l,0.43859550007618964,colour,0.5
030,71,1,1,2,38,88,156.76403649989516,157.53590059978887,"[76, 0, 178]",178,l,0.24649029993452132,colour,0.5
030,71,1,1,2,39,89,158.04406379978172,159.1599779999815,"[30, 0, 224]",224,a,0.5979324001818895,colour,0.5
030,71,1,1,2,40,90,159.66937759984285,160.62389639997855,"[61, 0, 193]",193,l,0.4357229000888765,colour,0.5
030,71,1,1,2,41,91,161.15655159996822,162.15197409992106,"[66, 0, 188]",188,l,0.47718239994719625,colour,0.5
030,71,1,1,2,42,92,162.665154799819,163.5839361997787,"[57, 0, 197]",197,l,0.4004873998928815,colour,0.5
030,71,1,1,2,43,93,164.0985627998598,165.32792789977975,"[52, 0, 202]",202,l,0.6991854999214411,colour,0.5
030,71,1,1,2,44,94,165.84181579994038,166.3839546998497,"[0, 0, 254]",254,a,0.02271330007351935,colour,0.5
030,71,1,1,2,45,95,166.89847879996523,167.75192589988,"[93, 0, 161]",161,l,0.3344906000420451,colour,0.5
030,71,1,1,2,46,96,168.26390719995834,169.19998229993507,"[54, 0, 200]",200,l,0.41198129998520017,colour,0.5
030,71,1,1,2,47,97,169.69752259994857,170.46393939992413,"[99, 0, 155]",155,l,0.2532576001249254,colour,0.5
030,71,1,1,2,48,98,170.9768995998893,171.8719746998977,"[95, 0, 159]",159,l,0.3670187001116574,colour,0.5
030,71,1,1,2,49,99,172.38594209984876,173.29594189999625,"[90, 0, 164]",164,l,0.39043860021047294,colour,0.5
030,71,1,1,2,50,100,173.81016139988787,174.43192869983613,"[4, 0, 250]",250,a,0.10266059986315668,colour,0.5
030,71,1,1,3,1,101,180.36212229984812,180.88860669988208,"[79, 0, 175]",175,l,0.005060399882495403,colour,0.5
030,71,1,1,3,2,102,181.39847999997437,182.02389409998432,"[13, 0, 241]",241,a,0.10706760012544692,colour,0.5
030,71,1,1,3,3,103,182.53184630000032,183.20790899987333,"[91, 0, 163]",163,l,0.1444846000522375,colour,0.5
030,71,1,1,3,4,104,183.71712199994363,184.31994229997508,"[83, 0, 171]",171,l,0.08112220000475645,colour,0.5
030,71,1,1,3,5,105,184.83324919990264,185.52794819977134,"[0, 0, 254]",254,a,0.18135679978877306,colour,0.5
030,71,1,1,3,6,106,186.03241329989396,186.99998019984923,"[44, 0, 210]",210,l,0.4593952000141144,colour,0.5
030,71,1,1,3,7,107,187.511984199984,188.28790399990976,"[81, 0, 173]",173,l,0.24930629995651543,colour,0.5
030,71,1,1,3,8,108,188.79822249989957,189.56794039998204,"[52, 0, 202]",202,l,0.23901540017686784,colour,0.5
030,71,1,1,3,9,109,190.0826743999496,190.65599389979616,"[99, 0, 155]",155,l,0.0425397998187691,colour,0.5
030,71,1,1,3,10,110,191.16560559999198,191.73591089993715,"[23, 0, 231]",231,a,0.05230690003372729,colour,0.5
030,71,1,1,3,11,111,192.2490806998685,192.80790259991772,"[90, 0, 164]",164,l,0.05035199993290007,colour,0.5
030,71,1,1,3,12,112,193.31941769993864,194.10390159999952,"[42, 0, 212]",212,a,0.27662920020520687,colour,0.5
030,71,1,1,3,13,113,194.61568079981953,195.23993099993095,"[46, 0, 208]",208,a,0.10133030009455979,colour,0.5
030,71,1,1,3,14,114,195.74329319992103,196.41592859989032,"[56, 0, 198]",198,l,0.1545933000743389,colour,0.5
030,71,1,1,3,15,115,196.92747699981555,197.5119424997829,"[31, 0, 223]",223,a,0.06640719994902611,colour,0.5
030,71,1,1,3,16,116,198.0297596999444,200.92796809994616,"[82, 0, 172]",172,l,2.3665644000284374,colour,0.5
030,71,1,1,3,17,117,201.43389429990202,202.32790589984506,"[69, 0, 185]",185,l,0.37471739994361997,colour,0.5
030,71,1,1,3,18,118,202.84820439992473,203.42395869991742,"[41, 0, 213]",213,a,0.06171489995904267,colour,0.5
030,71,1,1,3,19,119,203.93231549998745,204.5119271997828,"[30, 0, 224]",224,a,0.06219029985368252,colour,0.5
030,71,1,1,3,20,120,205.01721149985678,205.72001479985192,"[22, 0, 232]",232,a,0.19451999990269542,colour,0.5
030,71,1,1,3,21,121,206.22025569994003,207.56005199998617,"[98, 0, 156]",156,l,0.8319235001690686,colour,0.5
030,71,1,1,3,22,122,208.078709699912,209.16798949986696,"[5, 0, 249]",249,a,0.5668504999484867,colour,0.5
030,71,1,1,3,23,123,209.6814009998925,210.98390759993345,"[4, 0, 250]",250,a,0.7676006001420319,colour,0.5
030,71,1,1,3,24,124,211.49609129992314,212.5919486999046,"[1, 0, 253]",253,a,0.5808429999742657,colour,0.5
030,71,1,1,3,25,125,213.09878599992953,213.73592459992506,"[95, 0, 159]",159,l,0.10258259996771812,colour,0.5
030,71,1,1,3,26,126,214.24365229997784,215.30387189984322,"[60, 0, 194]",194,l,0.551820500055328,colour,0.5
030,71,1,1,3,27,127,215.81520199985243,216.70391079992987,"[84, 0, 170]",170,l,0.3649134000297636,colour,0.5
030,71,1,1,3,28,128,217.20996579993516,218.159931599861,"[62, 0, 192]",192,l,0.4217968999873847,colour,0.5
030,71,1,1,3,29,129,218.6662015998736,219.53589789988473,"[65, 0, 189]",189,l,0.35311720008030534,colour,0.5
030,71,1,1,3,30,130,220.04887329996563,220.75992250000127,"[74, 0, 180]",180,l,0.19212660007178783,colour,0.5
030,71,1,1,3,31,131,221.27792909997515,222.82391739985906,"[38, 0, 216]",216,a,1.0267497999593616,colour,0.5
030,71,1,1,3,32,132,223.3313799998723,224.22394419997,"[25, 0, 229]",229,a,0.37343580019660294,colour,0.5
030,71,1,1,3,33,133,224.7427550998982,225.5278991998639,"[97, 0, 157]",157,l,0.2709740998689085,colour,0.5
030,71,1,1,3,34,134,226.0339284997899,227.25594879989512,"[61, 0, 193]",193,l,0.7099911000113934,colour,0.5
030,71,1,1,3,35,135,227.76512139989063,228.83992579998448,"[2, 0, 252]",252,a,0.5524940001778305,colour,0.5
030,71,1,1,3,36,136,229.34947819984518,230.3039093997795,"[67, 0, 187]",187,l,0.4322581999003887,colour,0.5
030,71,1,1,3,37,137,230.81848469981924,232.1599243998062,"[28, 0, 226]",226,a,0.8209457998163998,colour,0.5
030,71,1,1,3,38,138,232.68178709992208,233.70393909979612,"[24, 0, 230]",230,a,0.5081171998754144,colour,0.5
030,71,1,1,3,39,139,234.2156589999795,235.0959234999027,"[59, 0, 195]",195,l,0.3603111000265926,colour,0.5
030,71,1,1,3,40,140,235.60471109999344,236.4079096999485,"[89, 0, 165]",165,l,0.2845443000551313,colour,0.5
030,71,1,1,3,41,141,236.91510319989175,237.95997069985606,"[33, 0, 221]",221,a,0.521027100039646,colour,0.5
030,71,1,1,3,42,142,238.46530949999578,239.48793719988316,"[10, 0, 244]",244,a,0.5024298001080751,colour,0.5
030,71,1,1,3,43,143,240.00178499985486,240.9758711999748,"[21, 0, 233]",233,a,0.45397070003673434,colour,0.5
030,71,1,1,3,44,144,241.4987629998941,242.4399045999162,"[26, 0, 228]",228,a,0.42616729997098446,colour,0.5
030,71,1,1,3,45,145,242.95394159993157,243.50391579978168,"[51, 0, 203]",203,l,0.025960699887946248,colour,0.5
030,71,1,1,3,46,146,244.0144735998474,244.73590209987015,"[53, 0, 201]",201,l,0.19931229995563626,colour,0.5
030,71,1,1,3,47,147,245.23821329977363,246.50393019989133,"[9, 0, 245]",245,a,0.7374686000403017,colour,0.5
030,71,1,1,3,48,148,247.01530309999362,247.95196529990062,"[7, 0, 247]",247,a,0.413820399902761,colour,0.5
030,71,1,1,3,49,149,248.46522909984924,249.4159557998646,"[47, 0, 207]",207,l,0.4339856000151485,colour,0.5
030,71,1,1,3,50,150,249.92219279985875,250.6719279999379,"[73, 0, 181]",181,l,0.23087180010043085,colour,0.5
030,71,1,1,4,1,151,256.03634599992074,256.95995549997315,"[59, 0, 195]",195,l,0.4036462001968175,colour,0.5
030,71,1,1,4,2,152,257.46617209981196,258.4639068997931,"[92, 0, 162]",162,l,0.4827514998614788,colour,0.5
030,71,1,1,4,3,153,258.977494899882,259.58393299998716,"[0, 0, 254]",254,a,0.07522300002165139,colour,0.5
030,71,1,1,4,4,154,260.0883472999558,261.0558887999505,"[24, 0, 230]",230,a,0.4528075000271201,colour,0.5
030,71,1,1,4,5,155,261.5693476998713,262.54397449991666,"[34, 0, 220]",220,a,0.45577379991300404,colour,0.5
030,71,1,1,4,6,156,263.0546995999757,263.92789489985444,"[49, 0, 205]",205,l,0.35546019999310374,colour,0.5
030,71,1,1,4,7,157,264.44115179986693,265.343955299817,"[50, 0, 204]",204,l,0.38816710002720356,colour,0.5
030,71,1,1,4,8,158,265.8650733998511,266.79996269987896,"[89, 0, 165]",165,l,0.4111037999391556,colour,0.5
030,71,1,1,4,9,159,267.3151701998431,268.1998998997733,"[63, 0, 191]",191,l,0.3573098999913782,colour,0.5
030,71,1,1,4,10,160,268.7126537999138,269.7519452997949,"[8, 0, 246]",246,a,0.5229795000050217,colour,0.5
030,71,1,1,4,11,161,270.2653112998232,271.2478874998633,"[19, 0, 235]",235,a,0.4565276000648737,colour,0.5
030,71,1,1,4,12,162,271.7653808000032,272.69598139985465,"[79, 0, 175]",175,l,0.40466800006106496,colour,0.5
030,71,1,1,4,13,163,273.21533829998225,274.14396449993365,"[77, 0, 177]",177,l,0.41346210008487105,colour,0.5
030,71,1,1,4,14,164,274.65793929994106,275.56790869985707,"[44, 0, 210]",210,l,0.39487809990532696,colour,0.5
030,71,1,1,4,15,165,276.0787095997948,276.95986879989505,"[95, 0, 159]",159,l,0.3488761999178678,colour,0.5
030,71,1,1,4,16,166,277.47451759991236,278.39992029988207,"[48, 0, 206]",206,l,0.4065398999955505,colour,0.5
030,71,1,1,4,17,167,278.9149656998925,279.77594949980266,"[53, 0, 201]",201,l,0.3417644000146538,colour,0.5
030,71,1,1,4,18,168,280.2928286998067,281.1598896998912,"[76, 0, 178]",178,l,0.33809330011717975,colour,0.5
030,71,1,1,4,19,169,281.6703357999213,282.2638811999932,"[31, 0, 223]",223,a,0.0731685000937432,colour,0.5
030,71,1,1,4,20,170,282.769831399899,283.50391769991256,"[58, 0, 196]",196,l,0.2197922000195831,colour,0.5
030,71,1,1,4,21,171,284.0150444000028,284.8478763999883,"[74, 0, 180]",180,l,0.3132450000848621,colour,0.5
030,71,1,1,4,22,172,285.3548554999288,285.96785489981994,"[80, 0, 174]",174,l,0.0935007999651134,colour,0.5
030,71,1,1,4,23,173,286.4793114999775,287.1279113998171,"[70, 0, 184]",184,l,0.1169238998554647,colour,0.5
030,71,1,1,4,24,174,287.63214739994146,288.4799098998774,"[90, 0, 164]",164,l,0.3400355998892337,colour,0.5
030,71,1,1,4,25,175,288.9911204997916,289.6559122998733,"[62, 0, 192]",192,l,0.1495282999239862,colour,0.5
030,71,1,1,4,26,176,290.16335269995034,291.0399371997919,"[45, 0, 209]",209,a,0.36634159996174276,colour,0.5
030,71,1,1,4,27,177,291.54869339987636,292.3918818999082,"[20, 0, 234]",234,a,0.3349365000613034,colour,0.5
030,71,1,1,4,28,178,292.89849890000187,293.58385399985127,"[60, 0, 194]",194,l,0.16150210006162524,colour,0.5
030,71,1,1,4,29,179,294.0912889998872,295.1599140998442,"[27, 0, 227]",227,a,0.5486921998672187,colour,0.5
030,71,1,1,4,30,180,295.66706379991956,296.6478879998904,"[47, 0, 207]",207,a,0.46738309995271266,colour,0.5
030,71,1,1,4,31,181,297.161880799802,297.71992759988643,"[22, 0, 232]",232,a,0.04125040001235902,colour,0.5
030,71,1,1,4,32,182,298.2323084999807,298.9038782999851,"[73, 0, 181]",181,l,0.14760400005616248,colour,0.5
030,71,1,1,4,33,183,299.41155419987626,300.4080004999414,"[40, 0, 214]",214,a,0.4693583999760449,colour,0.5
030,71,1,1,4,34,184,300.9162626999896,301.89590489980765,"[17, 0, 237]",237,a,0.47196919983252883,colour,0.5
030,71,1,1,4,35,185,302.41575079993345,303.23189209983684,"[6, 0, 248]",248,a,0.29763130005449057,colour,0.5
030,71,1,1,4,36,186,303.74035089998506,304.3278765999712,"[83, 0, 171]",171,l,0.07221970008686185,colour,0.5
030,71,1,1,4,37,187,304.8278925998602,306.0399109998252,"[94, 0, 160]",160,l,0.6881387999746948,colour,0.5
030,71,1,1,4,38,188,306.5497731999494,307.4959133998491,"[96, 0, 158]",158,l,0.42376899998635054,colour,0.5
030,71,1,1,4,39,189,307.9992876998149,309.06393129983917,"[9, 0, 245]",245,a,0.5565716999117285,colour,0.5
030,71,1,1,4,40,190,309.5667648999952,310.56794109987095,"[1, 0, 253]",253,a,0.4873788000550121,colour,0.5
030,71,1,1,4,41,191,311.0823910997715,312.81588659994304,"[37, 0, 217]",217,l,1.2105201000813395,colour,0.5
030,71,1,1,4,42,192,313.33241169992834,314.31989739998244,"[36, 0, 218]",218,l,0.46375580015592277,colour,0.5
030,71,1,1,4,43,193,314.83204739983194,315.79190079984255,"[38, 0, 216]",216,l,0.43695449992083013,colour,0.5
030,71,1,1,4,44,194,316.30288729979657,316.8878461997956,"[85, 0, 169]",169,l,0.06628549983724952,colour,0.5
030,71,1,1,4,45,195,317.39976439997554,317.9998666997999,"[13, 0, 241]",241,a,0.09238859987817705,colour,0.5
030,71,1,1,4,46,196,318.5152358999476,319.27989489980973,"[69, 0, 185]",185,l,0.25626369984820485,colour,0.5
030,71,1,1,4,47,197,319.7949124998413,320.7358974998351,"[64, 0, 190]",190,l,0.4133967999368906,colour,0.5
030,71,1,1,4,48,198,321.24863689998165,322.23187869996764,"[2, 0, 252]",252,a,0.45511390012688935,colour,0.5
030,71,1,1,4,49,199,322.75075459992513,323.67993619991466,"[23, 0, 231]",231,a,0.41256570001132786,colour,0.5
030,71,1,1,4,50,200,324.18850289983675,325.11986049986444,"[81, 0, 173]",173,l,0.41285960003733635,colour,0.5
030,71,1,1,5,1,201,330.0582345998846,330.8799066999927,"[23, 0, 231]",231,a,0.3062094000633806,colour,0.4
030,71,1,1,5,2,202,331.38294889987446,332.2558665999677,"[87, 0, 167]",167,l,0.35045980010181665,colour,0.4
030,71,1,1,5,3,203,332.76624349993654,333.65588629990816,"[39, 0, 215]",215,a,0.3804029000457376,colour,0.4
030,71,1,1,5,4,204,334.1665759999305,335.0718647998292,"[64, 0, 190]",190,l,0.39151059999130666,colour,0.4
030,71,1,1,5,5,205,335.58127039996907,336.39991849986836,"[51, 0, 203]",203,l,0.299424699973315,colour,0.4
030,71,1,1,5,6,206,336.91688039992005,338.2158798999153,"[44, 0, 210]",210,a,0.7866444999817759,colour,0.4
030,71,1,1,5,7,207,338.73188719991595,339.5998431998305,"[24, 0, 230]",230,a,0.344000400044024,colour,0.4
030,71,1,1,5,8,208,340.11518219998106,340.9838444998022,"[80, 0, 174]",174,l,0.3446714000310749,colour,0.4
030,71,1,1,5,9,209,341.4982274998911,342.9838724997826,"[14, 0, 240]",240,a,0.9714081999845803,colour,0.4
030,71,1,1,5,10,210,343.4987570999656,344.5678780998569,"[75, 0, 179]",179,l,0.5431253998540342,colour,0.4
030,71,1,1,5,11,211,345.08350939978845,345.89585889992304,"[79, 0, 175]",175,l,0.2904022999573499,colour,0.4
030,71,1,1,5,12,212,346.41018579993397,347.26387379993685,"[81, 0, 173]",173,l,0.32527170004323125,colour,0.4
030,71,1,1,5,13,213,347.78103939979337,348.71186699997634,"[71, 0, 183]",183,l,0.4000419001094997,colour,0.4
030,71,1,1,5,14,214,349.2266022998374,350.18388519994915,"[33, 0, 221]",221,a,0.4331507000606507,colour,0.4
030,71,1,1,5,15,215,350.68542979983613,351.671847499907,"[19, 0, 235]",235,a,0.47880959999747574,colour,0.4
030,71,1,1,5,16,216,352.17963369982317,353.0318353998009,"[70, 0, 184]",184,l,0.3417048999108374,colour,0.4
030,71,1,1,5,17,217,353.5486645998899,354.47988649993204,"[37, 0, 217]",217,a,0.41096020000986755,colour,0.4
030,71,1,1,5,18,218,354.998896199977,355.87196579994634,"[57, 0, 197]",197,l,0.3544067000038922,colour,0.4
030,71,1,1,5,19,219,356.3674331998918,357.3198777998332,"[40, 0, 214]",214,a,0.4437767998315394,colour,0.4
030,71,1,1,5,20,220,357.83152169990353,358.8079134998843,"[28, 0, 226]",226,a,0.452304600039497,colour,0.4
030,71,1,1,5,21,221,359.3127278999891,360.1998440998141,"[9, 0, 245]",245,a,0.3722510999068618,colour,0.4
030,71,1,1,5,22,222,360.7151153997984,361.5998850998003,"[99, 0, 155]",155,l,0.371642499929294,colour,0.4
030,71,1,1,5,23,223,362.107318099821,363.0879203998484,"[36, 0, 218]",218,a,0.46467179991304874,colour,0.4
030,71,1,1,5,24,224,363.59875849983655,364.52791609987617,"[26, 0, 228]",228,a,0.3977790998760611,colour,0.4
030,71,1,1,5,25,225,365.0326242998708,365.7679244999308,"[69, 0, 185]",185,l,0.2205868000164628,colour,0.4
030,71,1,1,5,26,226,366.2833351998124,367.2398723999504,"[32, 0, 222]",222,a,0.4430770999751985,colour,0.4
030,71,1,1,5,27,227,367.74922989984043,368.5759149999358,"[58, 0, 196]",196,l,0.3136022000107914,colour,0.4
030,71,1,1,5,28,228,369.0814245999791,369.6158914999105,"[77, 0, 177]",177,l,0.015168700134381652,colour,0.4
030,71,1,1,5,29,229,370.1248773999978,370.66386059997603,"[30, 0, 224]",224,a,0.024023800157010555,colour,0.4
030,71,1,1,5,30,230,371.1710772998631,371.80789349996485,"[61, 0, 193]",193,l,0.11713030003011227,colour,0.4
030,71,1,1,5,31,231,372.32420799997635,372.85644709994085,"[86, 0, 168]",168,l,0.011953999986872077,colour,0.4
030,71,1,1,5,32,232,373.35600159992464,373.91990589979105,"[43, 0, 211]",211,a,0.05158429988659918,colour,0.4
030,71,1,1,5,33,233,374.42460549995303,375.31186359981075,"[60, 0, 194]",194,l,0.3753638998605311,colour,0.4
030,71,1,1,5,34,234,375.8183083999902,376.3758723998908,"[96, 0, 158]",158,l,0.0265862001106143,colour,0.4
030,71,1,1,5,35,235,376.88057119981386,377.47182639990933,"[68, 0, 186]",186,l,0.07715020002797246,colour,0.4
030,71,1,1,5,36,236,377.96563609992154,378.51983429980464,"[0, 0, 254]",254,a,0.03393089980818331,colour,0.4
030,71,1,1,5,37,237,379.03202079981565,379.8238743999973,"[53, 0, 201]",201,l,0.2673780000768602,colour,0.4
030,71,1,1,5,38,238,380.3190523998346,380.8639183999039,"[67, 0, 187]",187,l,0.024650299921631813,colour,0.4
030,71,1,1,5,39,239,381.374880499905,381.95186359994113,"[20, 0, 234]",234,a,0.06928170006722212,colour,0.4
030,71,1,1,5,40,240,382.4591728998348,383.06388069991954,"[62, 0, 192]",192,l,0.08168320008553565,colour,0.4
030,71,1,1,5,41,241,383.577080699848,384.2798758998979,"[93, 0, 161]",161,l,0.1749223000369966,colour,0.4
030,71,1,1,5,42,242,384.79510299977846,385.3998906998895,"[90, 0, 164]",164,l,0.09304150007665157,colour,0.4
030,71,1,1,5,43,243,385.91564549994655,386.4799359999597,"[72, 0, 182]",182,l,0.03849159996025264,colour,0.4
030,71,1,1,5,44,244,386.9831025998574,387.5358770999592,"[5, 0, 249]",249,a,0.03006230015307665,colour,0.4
030,71,1,1,5,45,245,388.051856999984,388.70390099985525,"[55, 0, 199]",199,l,0.13847279991023242,colour,0.4
030,71,1,1,5,46,246,389.216191599844,389.8478981999215,"[46, 0, 208]",208,a,0.10897250007838011,colour,0.4
030,71,1,1,5,47,247,390.3547516998369,394.03184489998966,"[94, 0, 160]",160,l,3.1681911000050604,colour,0.4
030,71,1,1,5,48,248,394.54871099977754,395.49586849985644,"[88, 0, 166]",166,l,0.4239850998856127,colour,0.4
030,71,1,1,5,49,249,396.01591999991797,397.0478469999507,"[63, 0, 191]",191,l,0.5135774000082165,colour,0.4
030,71,1,1,5,50,250,397.5497719999403,398.3439706999343,"[92, 0, 162]",162,l,0.28631570003926754,colour,0.4
030,71,1,1,6,1,251,403.2736945999786,404.0158440999221,"[77, 0, 177]",177,l,0.22219830006361008,colour,0.28
030,71,1,1,6,2,252,404.5214729998261,407.1598955998197,"[23, 0, 231]",231,a,2.126483399886638,colour,0.28
030,71,1,1,6,3,253,407.67090819985606,408.3039032998495,"[8, 0, 246]",246,a,0.10188740002922714,colour,0.28
030,71,1,1,6,4,254,408.8115464998409,410.8718405999243,"[96, 0, 158]",158,l,1.5513901999220252,colour,0.28
030,71,1,1,6,5,255,411.383213999914,412.6558305998333,"[35, 0, 219]",219,a,0.7646236999426037,colour,0.28
030,71,1,1,6,6,256,413.1652243998833,413.8798465,"[91, 0, 163]",163,l,0.20225570001639426,colour,0.28
030,71,1,1,6,7,257,414.3992021998856,415.1598912999034,"[58, 0, 196]",196,l,0.24243599991314113,colour,0.28
030,71,1,1,6,8,258,415.6695624999702,416.31983549986035,"[97, 0, 157]",157,l,0.13135599996894598,colour,0.28
030,71,1,1,6,9,259,416.8324952998664,417.42386369989254,"[87, 0, 167]",167,l,0.08268589992076159,colour,0.28
030,71,1,1,6,10,260,417.92960269981995,419.9278408999089,"[66, 0, 188]",188,l,1.4876786000095308,colour,0.28
030,71,1,1,6,11,261,420.4483480998315,420.999890799867,"[65, 0, 189]",189,l,0.028957200003787875,colour,0.28
030,71,1,1,6,12,262,421.50393579993397,422.2238558998797,"[54, 0, 200]",200,l,0.21176279988139868,colour,0.28
030,71,1,1,6,13,263,422.73287879978307,423.58380649983883,"[51, 0, 203]",203,l,0.3344230998773128,colour,0.28
030,71,1,1,6,14,264,424.0983373997733,424.7118432999123,"[74, 0, 180]",180,l,0.08966480009257793,colour,0.28
030,71,1,1,6,15,265,425.216474799905,425.84782059979625,"[72, 0, 182]",182,l,0.11724079982377589,colour,0.28
030,71,1,1,6,16,266,426.3559483999852,427.02382229990326,"[71, 0, 183]",183,l,0.1506477000657469,colour,0.28
030,71,1,1,6,17,267,427.5393977998756,428.14389409986325,"[92, 0, 162]",162,l,0.08801040006801486,colour,0.28
030,71,1,1,6,18,268,428.65012059989385,429.32785549992695,"[29, 0, 225]",225,a,0.16910760011523962,colour,0.28
030,71,1,1,6,19,269,429.8478424998466,430.4318604997825,"[79, 0, 175]",175,l,0.06513129989616573,colour,0.28
030,71,1,1,6,20,270,430.9421533998102,431.4879227997735,"[34, 0, 220]",220,a,0.030664899852126837,colour,0.28
030,71,1,1,6,21,271,431.9943757997826,433.7598361999262,"[68, 0, 186]",186,l,1.2491892001125962,colour,0.28
030,71,1,1,6,22,272,434.28214659984224,435.17580279987305,"[81, 0, 173]",173,l,0.37493749987334013,colour,0.28
030,71,1,1,6,23,273,435.69824599986896,436.81583969993517,"[32, 0, 222]",222,a,0.5938681999687105,colour,0.28
030,71,1,1,6,24,274,437.3323758998886,438.4238541999366,"[93, 0, 161]",161,l,0.5679612001404166,colour,0.28
030,71,1,1,6,25,275,438.9324552998878,439.63187909987755,"[61, 0, 193]",193,l,0.1801298998761922,colour,0.28
030,71,1,1,6,26,276,440.1488060997799,441.2318246997893,"[20, 0, 234]",234,a,0.563494399888441,colour,0.28
030,71,1,1,6,27,277,441.74522399995476,442.5838327999227,"[46, 0, 208]",208,a,0.3214136001188308,colour,0.28
030,71,1,1,6,28,278,443.0992362999823,443.647855799878,"[75, 0, 179]",179,l,0.030491000041365623,colour,0.28
030,71,1,1,6,29,279,444.162459399784,444.93585049989633,"[78, 0, 176]",176,l,0.2573575999122113,colour,0.28
030,71,1,1,6,30,280,445.44882319984026,446.1758238999173,"[60, 0, 194]",194,l,0.20813319995068014,colour,0.28
030,71,1,1,6,31,281,446.6829844999593,447.2958486999851,"[94, 0, 160]",160,l,0.09037109999917448,colour,0.28
030,71,1,1,6,32,282,447.79982039984316,448.7518503998872,"[55, 0, 199]",199,l,0.4316376999486238,colour,0.28
030,71,1,1,6,33,283,449.2634451999329,450.9198433998972,"[69, 0, 185]",185,l,1.1257800001185387,colour,0.28
030,71,1,1,6,34,284,451.4321796998847,452.03180419979617,"[11, 0, 243]",243,a,0.081220299936831,colour,0.28
030,71,1,1,6,35,285,452.5476086998824,453.0958593999967,"[59, 0, 195]",195,l,0.028700300026685,colour,0.28
030,71,1,1,6,36,286,453.60004359995946,454.16786249983124,"[85, 0, 169]",169,l,0.06018909998238087,colour,0.28
030,71,1,1,6,37,287,454.6735129998997,455.3117922998499,"[90, 0, 164]",164,l,0.11941440007649362,colour,0.28
030,71,1,1,6,38,288,455.83749639987946,456.5198871998582,"[43, 0, 211]",211,a,0.16419330006465316,colour,0.28
030,71,1,1,6,39,289,457.03127939999104,457.63980519981124,"[1, 0, 253]",253,a,0.10014360002242029,colour,0.28
030,71,1,1,6,40,290,458.13376229978167,459.80785359977745,"[86, 0, 168]",168,l,1.1521712997928262,colour,0.28
030,71,1,1,6,41,291,460.3159068999812,461.00785059994087,"[56, 0, 198]",198,l,0.18364800000563264,colour,0.28
030,71,1,1,6,42,292,461.51554979989305,463.0958386999555,"[64, 0, 190]",190,l,1.049804300069809,colour,0.28
030,71,1,1,6,43,293,463.5999060999602,464.23181319981813,"[33, 0, 221]",221,a,0.12454189988784492,colour,0.28
030,71,1,1,6,44,294,464.74852639995515,465.3118634999264,"[62, 0, 192]",192,l,0.03273730003274977,colour,0.28
030,71,1,1,6,45,295,465.8216515998356,466.4238264998421,"[67, 0, 187]",187,l,0.08026339998468757,colour,0.28
030,71,1,1,6,46,296,466.9372054999694,467.5758659997955,"[76, 0, 178]",178,l,0.12017599982209504,colour,0.28
030,71,1,1,6,47,297,468.08612159988843,468.7518119998276,"[28, 0, 226]",226,a,0.14470730000175536,colour,0.28
030,71,1,1,6,48,298,469.2627742998302,469.84785949997604,"[17, 0, 237]",237,a,0.061952400021255016,colour,0.28
030,71,1,1,6,49,299,470.3497423999943,471.7997881998308,"[99, 0, 155]",155,l,0.9295284999534488,colour,0.28
030,71,1,1,6,50,300,472.31545139988884,473.26384019991383,"[82, 0, 172]",172,l,0.4172305001411587,colour,0.28
030,71,1,1,7,1,301,478.1383274998516,479.65583229996264,"[77, 0, 177]",177,a,0.9959647001232952,colour,0.14
030,71,1,1,7,2,302,480.166529199807,480.7039680997841,"[35, 0, 219]",219,a,0.028829099843278527,colour,0.14
030,71,1,1,7,3,303,481.21915059979074,482.95980650000274,"[96, 0, 158]",158,l,1.2317514000460505,colour,0.14
030,71,1,1,7,4,304,483.46596329985186,484.4238130999729,"[72, 0, 182]",182,l,0.4344665000680834,colour,0.14
030,71,1,1,7,5,305,484.935702299932,485.91983509995043,"[95, 0, 159]",159,l,0.4641609999816865,colour,0.14
030,71,1,1,7,6,306,486.4278085997794,487.3998448997736,"[78, 0, 176]",176,l,0.45165989990346134,colour,0.14
030,71,1,1,7,7,307,487.90878659999,488.8958045998588,"[68, 0, 186]",186,l,0.47185109998099506,colour,0.14
030,71,1,1,7,8,308,489.40388039988466,490.3278441999573,"[51, 0, 203]",203,l,0.41582050011493266,colour,0.14
030,71,1,1,7,9,309,490.83323909994215,491.7198458998464,"[75, 0, 179]",179,l,0.37242070003412664,colour,0.14
030,71,1,1,7,10,310,492.23291669995524,493.2878642999567,"[84, 0, 170]",170,l,0.5466810001526028,colour,0.14
030,71,1,1,7,11,311,493.7928690998815,494.3358168997802,"[52, 0, 202]",202,a,0.02363740000873804,colour,0.14
030,71,1,1,7,12,312,494.8510474998038,495.48787959991023,"[93, 0, 161]",161,l,0.10880929999984801,colour,0.14
030,71,1,1,7,13,313,496.0016402998008,496.5598394998815,"[63, 0, 191]",191,l,0.037550600012764335,colour,0.14
030,71,1,1,7,14,314,497.07008159998804,498.3038980998099,"[53, 0, 201]",201,l,0.7259634998627007,colour,0.14
030,71,1,1,7,15,315,498.81542989984155,499.6160265998915,"[58, 0, 196]",196,l,0.27751960000023246,colour,0.14
030,71,1,1,7,16,316,500.12736659985967,501.65582469990477,"[74, 0, 180]",180,l,0.9999526999890804,colour,0.14
030,71,1,1,7,17,317,502.1666228999384,502.69584379997104,"[89, 0, 165]",165,l,0.021149600157514215,colour,0.14
030,71,1,1,7,18,318,503.20490739983507,503.76785109983757,"[99, 0, 155]",155,l,0.044236900052055717,colour,0.14
030,71,1,1,7,19,319,504.2855893999804,504.959869899787,"[66, 0, 188]",188,l,0.15491149993613362,colour,0.14
030,71,1,1,7,20,320,505.4793893999886,506.1518445999827,"[91, 0, 163]",163,l,0.14057909999974072,colour,0.14
030,71,1,1,7,21,321,506.65218939981423,507.3518509999849,"[79, 0, 175]",175,l,0.18476460012607276,colour,0.14
030,71,1,1,7,22,322,507.84595799981616,508.7278371998109,"[81, 0, 173]",173,l,0.3619220999535173,colour,0.14
030,71,1,1,7,23,323,509.2332262999844,509.84782789996825,"[88, 0, 166]",166,l,0.0975093999877572,colour,0.14
030,71,1,1,7,24,324,510.34446939988993,511.19980249996297,"[60, 0, 194]",194,l,0.33343460015021265,colour,0.14
030,71,1,1,7,25,325,511.7123471999075,512.2637927997857,"[62, 0, 192]",192,l,0.02394849993288517,colour,0.14
030,71,1,1,7,26,326,512.7823937998619,513.3358081998304,"[64, 0, 190]",190,l,0.022742699831724167,colour,0.14
030,71,1,1,7,27,327,513.8489149999805,514.3998262998648,"[71, 0, 183]",183,l,0.03667799988761544,colour,0.14
030,71,1,1,7,28,328,514.9153412999585,515.5198142000008,"[69, 0, 185]",185,l,0.08535200008191168,colour,0.14
030,71,1,1,7,29,329,516.0326077998616,516.6798308999278,"[83, 0, 171]",171,l,0.12409980013035238,colour,0.14
030,71,1,1,7,30,330,517.1986534998287,517.8158651997801,"[86, 0, 168]",168,l,0.09850839991122484,colour,0.14
030,71,1,1,7,31,331,518.3222496998496,519.0238354997709,"[43, 0, 211]",211,a,0.18408829998224974,colour,0.14
030,71,1,1,7,32,332,519.5327188998926,520.9438012999017,"[76, 0, 178]",178,l,0.9032201000954956,colour,0.14
030,71,1,1,7,33,333,521.4586177999154,522.3837954998016,"[6, 0, 248]",248,a,0.3938119998201728,colour,0.14
030,71,1,1,7,34,334,522.8931463998742,523.719775899779,"[80, 0, 174]",174,l,0.29151739994995296,colour,0.14
030,71,1,1,7,35,335,524.2321631999221,525.0078142997809,"[94, 0, 160]",160,l,0.25189569988287985,colour,0.14
030,71,1,1,7,36,336,525.5215013998095,526.5758457998745,"[67, 0, 187]",187,l,0.5350768000353128,colour,0.14
030,71,1,1,7,37,337,527.0822918999474,527.7837992999703,"[10, 0, 244]",244,a,0.17777840001508594,colour,0.14
030,71,1,1,7,38,338,528.2987253998872,528.9918571999297,"[55, 0, 199]",199,l,0.17376359994523227,colour,0.14
030,71,1,1,7,39,339,529.5130456998013,530.5598009999376,"[50, 0, 204]",204,l,0.5179799001198262,colour,0.14
030,71,1,1,7,40,340,531.0805155998096,531.8637978998013,"[54, 0, 200]",200,l,0.25779900001361966,colour,0.14
030,71,1,1,7,41,341,532.3711553998291,532.9038502997719,"[61, 0, 193]",193,l,0.014772399794310331,colour,0.14
030,71,1,1,7,42,342,533.4053600998595,534.9438357998151,"[92, 0, 162]",162,l,1.021641899831593,colour,0.14
030,71,1,1,7,43,343,535.4520334999543,535.9918413998093,"[65, 0, 189]",189,l,0.024431400001049042,colour,0.14
030,71,1,1,7,44,344,536.499264099868,537.135823499877,"[27, 0, 227]",227,a,0.12567660002969205,colour,0.14
030,71,1,1,7,45,345,537.6531753998715,538.2958251999225,"[59, 0, 195]",195,l,0.1125076999887824,colour,0.14
030,71,1,1,7,46,346,538.8077119998634,540.2718195999041,"[85, 0, 169]",169,l,0.9476062001194805,colour,0.14
030,71,1,1,7,47,347,540.7819317998365,541.735789099941,"[12, 0, 242]",242,a,0.4302209001034498,colour,0.14
030,71,1,1,7,48,348,542.2420598999597,543.0077744999435,"[48, 0, 206]",206,l,0.24150740006007254,colour,0.14
030,71,1,1,7,49,349,543.5160431999248,544.0957972998731,"[70, 0, 184]",184,l,0.07102179992944002,colour,0.14
030,71,1,1,7,50,350,544.6009880998172,545.6558745999355,"[73, 0, 181]",181,l,0.5468613000120968,colour,0.14
030,71,1,1,8,1,351,550.346817899961,551.2638160998467,"[74, 0, 180]",180,l,0.3970289998687804,colour,0.06
030,71,1,1,8,2,352,551.782048399793,552.375842299778,"[88, 0, 166]",166,l,0.07489709998480976,colour,0.06
030,71,1,1,8,3,353,552.8841860999819,553.5597753999755,"[79, 0, 175]",175,l,0.15107570006512105,colour,0.06
030,71,1,1,8,4,354,554.0669556998182,554.599860599963,"[10, 0, 244]",244,a,0.025208299979567528,colour,0.06
030,71,1,1,8,5,355,555.1059732998256,555.6398113998584,"[95, 0, 159]",159,l,0.017536999890580773,colour,0.06
030,71,1,1,8,6,356,556.1422355999239,556.6958979999181,"[75, 0, 179]",179,l,0.02965139993466437,colour,0.06
030,71,1,1,8,7,357,557.201168099884,558.5917827999219,"[87, 0, 167]",167,l,0.8693888001143932,colour,0.06
030,71,1,1,8,8,358,559.099520499818,560.3678144000005,"[93, 0, 161]",161,l,0.7472028001211584,colour,0.06
030,71,1,1,8,9,359,560.8786269999109,562.7838410998229,"[92, 0, 162]",162,l,1.3731931999791414,colour,0.06
030,71,1,1,8,10,360,563.2998877998907,563.8878170999233,"[60, 0, 194]",194,l,0.07981669995933771,colour,0.06
030,71,1,1,8,11,361,564.3967066998594,566.5197982999962,"[52, 0, 202]",202,l,1.607861400116235,colour,0.06
030,71,1,1,8,12,362,567.0280861998908,568.1358103998937,"[65, 0, 189]",189,l,0.5792614999227226,colour,0.06
030,71,1,1,8,13,363,568.6440015998669,569.1998477999587,"[81, 0, 173]",173,l,0.03730279998853803,colour,0.06
030,71,1,1,8,14,364,569.7081538999919,570.2798550999723,"[86, 0, 168]",168,l,0.05709870019927621,colour,0.06
030,71,1,1,8,15,365,570.7856485999655,571.6958073999267,"[54, 0, 200]",200,l,0.3909354000352323,colour,0.06
030,71,1,1,8,16,366,572.2015977997798,572.7597949998453,"[58, 0, 196]",196,l,0.03808299987576902,colour,0.06
030,71,1,1,8,17,367,573.2699415998068,574.7038517999463,"[91, 0, 163]",163,l,0.9260976000223309,colour,0.06
030,71,1,1,8,18,368,575.2087416998111,575.8717701998539,"[84, 0, 170]",170,l,0.1441617999225855,colour,0.06
030,71,1,1,8,19,369,576.3833605998661,577.1357719998341,"[53, 0, 201]",201,l,0.24481359985657036,colour,0.06
030,71,1,1,8,20,370,577.6420869999565,579.0397871998139,"[68, 0, 186]",186,l,0.8735509999096394,colour,0.06
030,71,1,1,8,21,371,579.5487719997764,581.3597987999674,"[97, 0, 157]",157,l,1.2936005000956357,colour,0.06
030,71,1,1,8,22,372,581.866672599921,582.8877709999215,"[78, 0, 176]",176,l,0.5085494001396,colour,0.06
030,71,1,1,8,23,373,583.4016285999678,584.4078062998597,"[94, 0, 160]",160,l,0.48101089987903833,colour,0.06
030,71,1,1,8,24,374,584.9135061998386,585.807776699774,"[96, 0, 158]",158,l,0.36782389995642006,colour,0.06
030,71,1,1,8,25,375,586.3180673997849,587.2317724998575,"[83, 0, 171]",171,l,0.3968416000716388,colour,0.06
030,71,1,1,8,26,376,587.7484940998256,588.8157951999456,"[72, 0, 182]",182,l,0.5497383000329137,colour,0.06
030,71,1,1,8,27,377,589.3322923998348,591.5437901997939,"[76, 0, 178]",178,l,1.6799825998023152,colour,0.06
030,71,1,1,8,28,378,592.0589134998154,593.2798057999462,"[70, 0, 184]",184,l,0.6910892999731004,colour,0.06
030,71,1,1,8,29,379,593.7830493999645,594.8478955999017,"[67, 0, 187]",187,l,0.550222699996084,colour,0.06
030,71,1,1,8,30,380,595.3712086000014,596.1998258999083,"[55, 0, 199]",199,l,0.31193990004248917,colour,0.06
030,71,1,1,8,31,381,596.7150341998786,597.399760699831,"[16, 0, 238]",238,a,0.17045439989306033,colour,0.06
030,71,1,1,8,32,382,597.9155950997956,598.9197695998009,"[61, 0, 193]",193,l,0.48496869998052716,colour,0.06
030,71,1,1,8,33,383,599.4322948998306,600.4478220997844,"[63, 0, 191]",191,l,0.4917341999243945,colour,0.06
030,71,1,1,8,34,384,600.9535371998791,601.8718020999804,"[50, 0, 204]",204,a,0.4022373000625521,colour,0.06
030,71,1,1,8,35,385,602.3773462998215,603.2318239999004,"[62, 0, 192]",192,l,0.32358599989674985,colour,0.06
030,71,1,1,8,36,386,603.748501499882,604.6878372998908,"[99, 0, 155]",155,l,0.4251117000821978,colour,0.06
030,71,1,1,8,37,387,605.1989401997998,605.8717777999118,"[77, 0, 177]",177,l,0.15984770003706217,colour,0.06
030,71,1,1,8,38,388,606.3822778000031,607.4638336999342,"[73, 0, 181]",181,l,0.5506532001309097,colour,0.06
030,71,1,1,8,39,389,607.9667190997861,608.7197929997928,"[59, 0, 195]",195,l,0.23088329983875155,colour,0.06
030,71,1,1,8,40,390,609.2346933998633,610.0797689999454,"[69, 0, 185]",185,l,0.32396970014087856,colour,0.06
030,71,1,1,8,41,391,610.5923066998366,611.487802399788,"[66, 0, 188]",188,l,0.380470999982208,colour,0.06
030,71,1,1,8,42,392,611.9993331998121,612.8317757998593,"[64, 0, 190]",190,l,0.3132165998686105,colour,0.06
030,71,1,1,8,43,393,613.348818999948,614.0957990998868,"[89, 0, 165]",165,l,0.22804669989272952,colour,0.06
030,71,1,1,8,44,394,614.5998150999658,615.4797574998811,"[82, 0, 172]",172,l,0.3617102999705821,colour,0.06
030,71,1,1,8,45,395,615.9946465999819,616.8637634997722,"[85, 0, 169]",169,l,0.3357193998526782,colour,0.06
030,71,1,1,8,46,396,617.3813440999947,617.9757951998618,"[40, 0, 214]",214,a,0.07002320000901818,colour,0.06
030,71,1,1,8,47,397,618.4844243999105,619.4397955997847,"[57, 0, 197]",197,l,0.43519989983178675,colour,0.06
030,71,1,1,8,48,398,619.9588363999501,620.8318405998871,"[71, 0, 183]",183,l,0.3537381000351161,colour,0.06
030,71,1,1,8,49,399,621.3488778998144,622.6077934999485,"[90, 0, 164]",164,l,0.7400402000639588,colour,0.06
030,71,1,1,8,50,400,623.1161596998572,624.1598276998848,"[56, 0, 198]",198,l,0.5128234000876546,colour,0.06
030,71,1,1,9,1,401,629.3984071000014,630.2317777997814,"[93, 0, 161]",161,l,0.30946789984591305,colour,0.06
030,71,1,1,9,2,402,630.7381465998478,631.8477741999086,"[71, 0, 183]",183,l,0.5954478001222014,colour,0.06
030,71,1,1,9,3,403,632.3601933999453,633.5117575998884,"[69, 0, 185]",185,l,0.6223663000855595,colour,0.06
030,71,1,1,9,4,404,634.0321446999442,635.0237404999789,"[66, 0, 188]",188,l,0.4763268001843244,colour,0.06
030,71,1,1,9,5,405,635.5273286998272,636.7917598998174,"[85, 0, 169]",169,l,0.7508861999958754,colour,0.06
030,71,1,1,9,6,406,637.3029966999311,638.5517761998344,"[52, 0, 202]",202,a,0.7290959998499602,colour,0.06
030,71,1,1,9,7,407,639.0595949999988,640.0237901997752,"[73, 0, 181]",181,l,0.4333115997724235,colour,0.06
030,71,1,1,9,8,408,640.5347221998964,641.5679071999621,"[86, 0, 168]",168,l,0.517449300037697,colour,0.06
030,71,1,1,9,9,409,642.0833520998713,643.1038767998107,"[89, 0, 165]",165,l,0.5129439998418093,colour,0.06
030,71,1,1,9,10,410,643.615538999904,644.479795999825,"[60, 0, 194]",194,l,0.3432564998511225,colour,0.06
030,71,1,1,9,11,411,644.9860916999169,646.8717791999225,"[53, 0, 201]",201,l,1.3660915999207646,colour,0.06
030,71,1,1,9,12,412,647.3767345999368,648.239734099945,"[96, 0, 158]",158,l,0.33423839998431504,colour,0.06
030,71,1,1,9,13,413,648.749536999967,649.8797547998838,"[98, 0, 156]",156,l,0.6143151000142097,colour,0.06
030,71,1,1,9,14,414,650.3927293999586,651.4877492999658,"[54, 0, 200]",200,a,0.5753217001911253,colour,0.06
030,71,1,1,9,15,415,651.998915999895,652.9437518999912,"[51, 0, 203]",203,a,0.4255036001559347,colour,0.06
030,71,1,1,9,16,416,653.4553865999915,654.4798144998495,"[82, 0, 172]",172,l,0.5057371999137104,colour,0.06
030,71,1,1,9,17,417,654.9844267999288,655.8717647998128,"[15, 0, 239]",239,a,0.3801353999879211,colour,0.06
030,71,1,1,9,18,418,656.3857956998982,657.4717959999107,"[99, 0, 155]",155,l,0.5551146001089364,colour,0.06
030,71,1,1,9,19,419,657.982152499957,659.3038006999996,"[77, 0, 177]",177,l,0.7953995000571012,colour,0.06
030,71,1,1,9,20,420,659.8161662998609,660.7917323999573,"[68, 0, 186]",186,l,0.46727280016057193,colour,0.06
030,71,1,1,9,21,421,661.30010389979,662.2638263998087,"[50, 0, 204]",204,a,0.4489342998713255,colour,0.06
030,71,1,1,9,22,422,662.7692670999095,663.6797502997797,"[72, 0, 182]",182,l,0.3877667000051588,colour,0.06
030,71,1,1,9,23,423,664.1834078999236,665.1198058999144,"[67, 0, 187]",187,l,0.4225242000538856,colour,0.06
030,71,1,1,9,24,424,665.6329016999807,666.823808999965,"[62, 0, 192]",192,l,0.6678510000929236,colour,0.06
030,71,1,1,9,25,425,667.3335213998798,668.3838749998249,"[25, 0, 229]",229,a,0.5293258999008685,colour,0.06
030,71,1,1,9,26,426,668.9011508999392,670.2877530998085,"[74, 0, 180]",180,l,0.865207799943164,colour,0.06
030,71,1,1,9,27,427,670.8019190998748,672.1118244999088,"[95, 0, 159]",159,l,0.7908554999157786,colour,0.06
030,71,1,1,9,28,428,672.6167691999581,673.6637671999633,"[88, 0, 166]",166,l,0.5394390001893044,colour,0.06
030,71,1,1,9,29,429,674.1823468999937,675.159761399962,"[64, 0, 190]",190,l,0.44627450010739267,colour,0.06
030,71,1,1,9,30,430,675.6661064999644,676.3037675998639,"[97, 0, 157]",157,l,0.1166709999088198,colour,0.06
030,71,1,1,9,31,431,676.8124757998157,677.9597176997922,"[65, 0, 189]",189,l,0.6202255999669433,colour,0.06
030,71,1,1,9,32,432,678.466803799849,679.4877865999006,"[83, 0, 171]",171,l,0.50677639991045,colour,0.06
030,71,1,1,9,33,433,679.9985012998804,681.1758085999172,"[57, 0, 197]",197,l,0.6462968999985605,colour,0.06
030,71,1,1,9,34,434,681.6834534998052,682.543844099855,"[94, 0, 160]",160,l,0.33412720006890595,colour,0.06
030,71,1,1,9,35,435,683.0551856998354,683.9358080998063,"[55, 0, 199]",199,a,0.3682281000073999,colour,0.06
030,71,1,1,9,36,436,684.4492407999933,685.3918454998638,"[56, 0, 198]",198,a,0.4242988999467343,colour,0.06
030,71,1,1,9,37,437,685.9043375998735,686.7837736997753,"[59, 0, 195]",195,a,0.36041429988108575,colour,0.06
030,71,1,1,9,38,438,687.300708899973,687.8798126999754,"[92, 0, 162]",162,l,0.05720879998989403,colour,0.06
030,71,1,1,9,39,439,688.3752733999863,689.0317498999648,"[70, 0, 184]",184,l,0.13887430005706847,colour,0.06
030,71,1,1,9,40,440,689.5491188999731,690.3437757999636,"[80, 0, 174]",174,l,0.2626768001355231,colour,0.06
030,71,1,1,9,41,441,690.854781899834,691.5037538998295,"[78, 0, 176]",176,l,0.13014589995145798,colour,0.06
030,71,1,1,9,42,442,692.0233398999553,692.6397776999511,"[84, 0, 170]",170,l,0.09458090015687048,colour,0.06
030,71,1,1,9,43,443,693.1490684999153,693.7277429997921,"[81, 0, 173]",173,l,0.05984349991194904,colour,0.06
030,71,1,1,9,44,444,694.2309000999667,695.0878486998845,"[61, 0, 193]",193,a,0.33182840002700686,colour,0.06
030,71,1,1,9,45,445,695.5927337999456,697.11976339994,"[90, 0, 164]",164,l,1.0123163999523968,colour,0.06
030,71,1,1,9,46,446,697.6323049999774,698.9437503998633,"[75, 0, 179]",179,l,0.7880231998860836,colour,0.06
030,71,1,1,9,47,447,699.4607325999532,700.5517529998906,"[79, 0, 175]",175,l,0.575232099974528,colour,0.06
030,71,1,1,9,48,448,701.0652809999883,701.9118474998977,"[48, 0, 206]",206,a,0.3217774999793619,colour,0.06
030,71,1,1,9,49,449,702.421094099991,703.3357625999488,"[76, 0, 178]",178,l,0.39804810006171465,colour,0.06
030,71,1,1,9,50,450,703.8488221999723,705.6317697998602,"[63, 0, 191]",191,l,1.2618603000883013,colour,0.06
030,71,1,1,10,1,451,710.9316237999592,713.6317481999286,"[54, 0, 200]",200,l,2.1731126999948174,colour,0.06
030,71,1,1,10,2,452,714.149133999832,714.9997452998068,"[65, 0, 189]",189,l,0.3322029998525977,colour,0.06
030,71,1,1,10,3,453,715.5125489998609,716.4477192999329,"[56, 0, 198]",198,a,0.4029492000117898,colour,0.06
030,71,1,1,10,4,454,716.9587619998492,717.8557517998852,"[72, 0, 182]",182,l,0.37786079989746213,colour,0.06
030,71,1,1,10,5,455,718.3647952999454,719.2477334998548,"[73, 0, 181]",181,l,0.3637274999637157,colour,0.06
030,71,1,1,10,6,456,719.7600386999547,720.3757324998733,"[76, 0, 178]",178,l,0.0917219000402838,colour,0.06
030,71,1,1,10,7,457,720.8825083998963,722.9517315998673,"[55, 0, 199]",199,a,1.5459169999230653,colour,0.06
030,71,1,1,10,8,458,723.4581720998976,724.1517209999729,"[84, 0, 170]",170,l,0.17804979998618364,colour,0.06
030,71,1,1,10,9,459,724.6639126997907,725.5437543999869,"[59, 0, 195]",195,l,0.3493272000923753,colour,0.06
030,71,1,1,10,10,460,726.0589356999844,728.2477353999857,"[83, 0, 171]",171,l,1.6699644001200795,colour,0.06
030,71,1,1,10,11,461,728.7587114998605,729.615753499791,"[78, 0, 176]",176,l,0.341780100017786,colour,0.06
030,71,1,1,10,12,462,730.1254824998323,730.9837704999372,"[97, 0, 157]",157,l,0.32779580005444586,colour,0.06
030,71,1,1,10,13,463,731.4919320999179,732.2237381997984,"[29, 0, 225]",225,a,0.21632769983261824,colour,0.06
030,71,1,1,10,14,464,732.733560099965,733.8397935999092,"[61, 0, 193]",193,l,0.5986449001356959,colour,0.06
030,71,1,1,10,15,465,734.3429942999501,735.223767799791,"[91, 0, 163]",163,l,0.3582049999386072,colour,0.06
030,71,1,1,10,16,466,735.7321212999523,736.5917428999674,"[90, 0, 164]",164,l,0.32930390001274645,colour,0.06
030,71,1,1,10,17,467,737.1017648999114,738.1278004997876,"[46, 0, 208]",208,a,0.5059111998416483,colour,0.06
030,71,1,1,10,18,468,738.648849299876,739.6638978999108,"[85, 0, 169]",169,l,0.49606160004623234,colour,0.06
030,71,1,1,10,19,469,740.1714787997771,741.1997270998545,"[89, 0, 165]",165,l,0.5213953999336809,colour,0.06
030,71,1,1,10,20,470,741.7156431998592,742.8237328999676,"[77, 0, 177]",177,l,0.590814100112766,colour,0.06
030,71,1,1,10,21,471,743.3323200999293,744.2237541999202,"[71, 0, 183]",183,l,0.3721237999852747,colour,0.06
030,71,1,1,10,22,472,744.7378740999848,745.6957172998227,"[62, 0, 192]",192,l,0.43983879988081753,colour,0.06
030,71,1,1,10,23,473,746.2040616997983,747.3597267000005,"[92, 0, 162]",162,l,0.6318151000887156,colour,0.06
030,71,1,1,10,24,474,747.8669281997718,748.6237583998591,"[52, 0, 202]",202,a,0.242603600025177,colour,0.06
030,71,1,1,10,25,475,749.1329550999217,750.0237257999834,"[53, 0, 201]",201,a,0.38285830011591315,colour,0.06
030,71,1,1,10,26,476,750.5324375999626,751.3837741999887,"[57, 0, 197]",197,a,0.31986130005680025,colour,0.06
030,71,1,1,10,27,477,751.9001798999961,752.6637459998019,"[63, 0, 191]",191,l,0.24085429986007512,colour,0.06
030,71,1,1,10,28,478,753.1671907999553,753.8877409999259,"[75, 0, 179]",179,l,0.21310529997572303,colour,0.06
030,71,1,1,10,29,479,754.4010752998292,755.3837753999978,"[60, 0, 194]",194,l,0.461060400120914,colour,0.06
030,71,1,1,10,30,480,755.8955219998024,756.5437046999577,"[51, 0, 203]",203,a,0.1290854001417756,colour,0.06
030,71,1,1,10,31,481,757.0491225998849,758.0637292999309,"[79, 0, 175]",175,l,0.4978267999831587,colour,0.06
030,71,1,1,10,32,482,758.5822374999989,760.1917203997727,"[93, 0, 161]",161,l,1.0859020999632776,colour,0.06
030,71,1,1,10,33,483,760.7003477998078,761.335721099982,"[50, 0, 204]",204,a,0.12142110010609031,colour,0.06
030,71,1,1,10,34,484,761.8541641999036,762.8397185998037,"[64, 0, 190]",190,l,0.4686912999022752,colour,0.06
030,71,1,1,10,35,485,763.3491626998875,764.3517968999222,"[86, 0, 168]",168,l,0.48630709992721677,colour,0.06
030,71,1,1,10,36,486,764.8624048999045,765.8317259999458,"[88, 0, 166]",166,l,0.4503293000161648,colour,0.06
030,71,1,1,10,37,487,766.3426067999098,767.199689499801,"[99, 0, 155]",155,l,0.33777039987035096,colour,0.06
030,71,1,1,10,38,488,767.7160097998567,768.5517557999119,"[96, 0, 158]",158,l,0.3175111999735236,colour,0.06
030,71,1,1,10,39,489,769.0609066998586,769.7117320999969,"[14, 0, 240]",240,a,0.12236680020578206,colour,0.06
030,71,1,1,10,40,490,770.2328640997875,771.1597207000013,"[82, 0, 172]",172,l,0.40379530005156994,colour,0.06
030,71,1,1,10,41,491,771.6724132997915,772.7037433998194,"[67, 0, 187]",187,l,0.5048201000317931,colour,0.06
030,71,1,1,10,42,492,773.2156768999994,774.9757614999544,"[98, 0, 156]",156,l,1.2288768000435084,colour,0.06
030,71,1,1,10,43,493,775.4837333997712,776.3757738999557,"[87, 0, 167]",167,l,0.3787384000606835,colour,0.06
030,71,1,1,10,44,494,776.9051081999205,779.5517085997853,"[66, 0, 188]",188,l,2.127648799913004,colour,0.06
030,71,1,1,10,45,495,780.064473599894,781.031693500001,"[80, 0, 174]",174,l,0.44269010005518794,colour,0.06
030,71,1,1,10,46,496,781.5356828998774,782.3677403999027,"[68, 0, 186]",186,l,0.31148630008101463,colour,0.06
030,71,1,1,10,47,497,782.8729844999034,783.6797297999728,"[69, 0, 185]",185,l,0.2882463000714779,colour,0.06
030,71,1,1,10,48,498,784.1991642999928,785.735721899895,"[81, 0, 173]",173,l,1.013452700106427,colour,0.06
030,71,1,1,10,49,499,786.2532156999223,787.1517424997874,"[95, 0, 159]",159,l,0.37772809993475676,colour,0.06
030,71,1,1,10,50,500,787.6600907999091,789.1037831997965,"[74, 0, 180]",180,l,0.9088406998198479,colour,0.06
030,71,1,1,11,1,501,793.6430349999573,794.9917647999246,"[98, 0, 156]",156,l,0.836709100054577,colour,0.06
030,71,1,1,11,2,502,795.4995585998986,796.343742699828,"[91, 0, 163]",163,l,0.33548510004766285,colour,0.06
030,71,1,1,11,3,503,796.8495355998166,797.6798020999413,"[68, 0, 186]",186,l,0.3109101001173258,colour,0.06
030,71,1,1,11,4,504,798.1854883998167,799.183752699988,"[63, 0, 191]",191,l,0.48216710006818175,colour,0.06
030,71,1,1,11,5,505,799.6894859999884,800.3758042999543,"[29, 0, 225]",225,a,0.17150970012880862,colour,0.06
030,71,1,1,11,6,506,800.8836049998645,801.9037463997956,"[65, 0, 189]",189,l,0.5118585999589413,colour,0.06
030,71,1,1,11,7,507,802.4162340997718,803.3117469998542,"[94, 0, 160]",160,l,0.37244879989884794,colour,0.06
030,71,1,1,11,8,508,803.8197538999375,804.8157607999165,"[51, 0, 203]",203,l,0.4777804999612272,colour,0.06
030,71,1,1,11,9,509,805.3356482998934,806.5197482998483,"[80, 0, 174]",174,l,0.6762850000523031,colour,0.06
030,71,1,1,11,10,510,807.0309541998431,807.9117772998288,"[99, 0, 155]",155,l,0.3558018000330776,colour,0.06
030,71,1,1,11,11,511,808.420245599933,809.327736399835,"[90, 0, 164]",164,l,0.3847814998589456,colour,0.06
030,71,1,1,11,12,512,809.83402069984,810.5916926998179,"[97, 0, 157]",157,l,0.2357999999076128,colour,0.06
030,71,1,1,11,13,513,811.0994603999425,811.8797272997908,"[64, 0, 190]",190,l,0.2586457999423146,colour,0.06
030,71,1,1,11,14,514,812.3928614999168,812.9677177998237,"[82, 0, 172]",172,l,0.055538699962198734,colour,0.06
030,71,1,1,11,15,515,813.4793987998273,814.311770199798,"[72, 0, 182]",182,l,0.32024539983831346,colour,0.06
030,71,1,1,11,16,516,814.8306465998758,818.1437313999049,"[70, 0, 184]",184,l,2.7992378000635654,colour,0.06
030,71,1,1,11,17,517,818.6584610999562,820.4717104998417,"[66, 0, 188]",188,l,1.2821372000034899,colour,0.06
030,71,1,1,11,18,518,820.9864513999783,822.5357274999842,"[52, 0, 202]",202,l,1.0387244001030922,colour,0.06
030,71,1,1,11,19,519,823.042892199941,823.9197097998112,"[74, 0, 180]",180,l,0.3543426999822259,colour,0.06
030,71,1,1,11,20,520,824.4324509999715,825.4637107998133,"[85, 0, 169]",169,l,0.5226852998603135,colour,0.06
030,71,1,1,11,21,521,825.9737863999326,827.319703299785,"[89, 0, 165]",165,l,0.8276025999803096,colour,0.06
030,71,1,1,11,22,522,827.8325258998666,828.7837646999396,"[59, 0, 195]",195,l,0.4366246999707073,colour,0.06
030,71,1,1,11,23,523,829.3006953999866,830.1197326998226,"[95, 0, 159]",159,l,0.2982645998708904,colour,0.06
030,71,1,1,11,24,524,830.6358802998438,831.5517483998556,"[56, 0, 198]",198,a,0.3956698998808861,colour,0.06
030,71,1,1,11,25,525,832.0627295000013,832.9437253999058,"[24, 0, 230]",230,a,0.3567631000187248,colour,0.06
030,71,1,1,11,26,526,833.4531502998434,834.3356991999317,"[54, 0, 200]",200,l,0.3629624000750482,colour,0.06
030,71,1,1,11,27,527,834.8490931999404,835.7197424999904,"[57, 0, 197]",197,l,0.3566716001369059,colour,0.06
030,71,1,1,11,28,528,836.233622699976,837.1597641999833,"[53, 0, 201]",201,a,0.4034102000296116,colour,0.06
030,71,1,1,11,29,529,837.6828001998365,838.4077601998579,"[81, 0, 173]",173,l,0.21136529999785125,colour,0.06
030,71,1,1,11,30,530,838.9162887998391,839.9037079999689,"[60, 0, 194]",194,l,0.4646724001504481,colour,0.06
030,71,1,1,11,31,531,840.4161324999295,841.3037992999889,"[92, 0, 162]",162,l,0.37220560014247894,colour,0.06
030,71,1,1,11,32,532,841.8159072999842,842.7837681998499,"[12, 0, 242]",242,a,0.44423720007762313,colour,0.06
030,71,1,1,11,33,533,843.2990096998401,844.2396949999966,"[87, 0, 167]",167,l,0.4145562001504004,colour,0.06
030,71,1,1,11,34,534,844.7423929998185,845.6717183999717,"[75, 0, 179]",179,l,0.4147890000604093,colour,0.06
030,71,1,1,11,35,535,846.182904599933,847.1117410999723,"[69, 0, 185]",185,l,0.4125702001620084,colour,0.06
030,71,1,1,11,36,536,847.6168869999237,848.6637744999025,"[55, 0, 199]",199,a,0.5320570000912994,colour,0.06
030,71,1,1,11,37,537,849.1744020998012,850.247704599984,"[73, 0, 181]",181,l,0.5580792999826372,colour,0.06
030,71,1,1,11,38,538,850.7569417997729,851.6957219999749,"[76, 0, 178]",178,l,0.42010130011476576,colour,0.06
030,71,1,1,11,39,539,852.1996418999042,853.1996889999136,"[93, 0, 161]",161,l,0.48180910013616085,colour,0.06
030,71,1,1,11,40,540,853.7157095998991,854.6476512998343,"[50, 0, 204]",204,a,0.4081755999941379,colour,0.06
030,71,1,1,11,41,541,855.1580091998912,856.0156719998922,"[77, 0, 177]",177,l,0.33884140010923147,colour,0.06
030,71,1,1,11,42,542,856.5233164997771,857.5357549998444,"[71, 0, 183]",183,l,0.49565039994195104,colour,0.06
030,71,1,1,11,43,543,858.0493006999604,858.9436904999893,"[67, 0, 187]",187,l,0.37567420001141727,colour,0.06
030,71,1,1,11,44,544,859.4546144998167,860.3597461997997,"[84, 0, 170]",170,l,0.3876230998430401,colour,0.06
030,71,1,1,11,45,545,860.8826191998087,861.8397196999285,"[79, 0, 175]",175,l,0.4336550999432802,colour,0.06
030,71,1,1,11,46,546,862.3579934998415,863.2957294997759,"[96, 0, 158]",158,l,0.4216729998588562,colour,0.06
030,71,1,1,11,47,547,863.8065621999558,864.7996699998621,"[62, 0, 192]",192,l,0.47533520008437335,colour,0.06
030,71,1,1,11,48,548,865.3162747998722,866.231741799973,"[83, 0, 171]",171,l,0.3846100000664592,colour,0.06
030,71,1,1,11,49,549,866.7487453999929,867.7757659999188,"[58, 0, 196]",196,l,0.500456599984318,colour,0.06
030,71,1,1,11,50,550,868.2846661999356,869.1597262998112,"[86, 0, 168]",168,l,0.3532574998680502,colour,0.06
030,71,1,1,12,1,551,873.5997324998025,874.6076940998901,"[54, 0, 200]",200,l,0.5007036998867989,colour,0.06
030,71,1,1,12,2,552,875.1281855998095,875.8477130997926,"[81, 0, 173]",173,l,0.2002063998952508,colour,0.06
030,71,1,1,12,3,553,876.3574213997927,877.151736699976,"[80, 0, 174]",174,l,0.2750003000255674,colour,0.06
030,71,1,1,12,4,554,877.6674029999413,878.5516913998872,"[76, 0, 178]",178,l,0.3638875999022275,colour,0.06
030,71,1,1,12,5,555,879.0515840998851,879.9197206997778,"[51, 0, 203]",203,a,0.34819309995509684,colour,0.06
030,71,1,1,12,6,556,880.4323276998475,881.2637122999877,"[53, 0, 201]",201,a,0.3139319000765681,colour,0.06
030,71,1,1,12,7,557,881.7763216998428,882.887757799821,"[59, 0, 195]",195,l,0.5762328000273556,colour,0.06
030,71,1,1,12,8,558,883.3960247999057,884.3437065999024,"[52, 0, 202]",202,a,0.42413950012996793,colour,0.06
030,71,1,1,12,9,559,884.858137199888,886.0878217997961,"[2, 0, 252]",252,a,0.6988898999989033,colour,0.06
030,71,1,1,12,10,560,886.5991383998189,887.4156836997718,"[56, 0, 198]",198,l,0.2919528998900205,colour,0.06
030,71,1,1,12,11,561,887.9265447999351,888.7997032999992,"[83, 0, 171]",171,l,0.3436566002201289,colour,0.06
030,71,1,1,12,12,562,889.3157916998025,890.271685199812,"[58, 0, 196]",196,a,0.43699309998191893,colour,0.06
030,71,1,1,12,13,563,890.7820788999088,891.8797466999386,"[60, 0, 194]",194,l,0.5743235000409186,colour,0.06
030,71,1,1,12,14,564,892.3841762999073,893.055680599995,"[74, 0, 180]",180,l,0.14968080003745854,colour,0.06
030,71,1,1,12,15,565,893.5713247999083,894.2877193999011,"[75, 0, 179]",179,l,0.19750080001540482,colour,0.06
030,71,1,1,12,16,566,894.7992080999538,896.2156900998671,"[65, 0, 189]",189,l,0.9024694000836462,colour,0.06
030,71,1,1,12,17,567,896.7326220998075,897.4237086998764,"[68, 0, 186]",186,l,0.1702924999408424,colour,0.06
030,71,1,1,12,18,568,897.9326384000015,898.8636872998904,"[86, 0, 168]",168,l,0.4008343000896275,colour,0.06
030,71,1,1,12,19,569,899.3667589998804,900.2077121997718,"[87, 0, 167]",167,l,0.31902669998817146,colour,0.06
030,71,1,1,12,20,570,900.7167058999185,901.2402734998614,"[73, 0, 181]",181,l,0.014948399970307946,colour,0.06
030,71,1,1,12,21,571,901.7510739997961,902.4076897997875,"[95, 0, 159]",159,l,0.1256516999565065,colour,0.06
030,71,1,1,12,22,572,902.9116513999179,903.5276647999417,"[70, 0, 184]",184,l,0.10751040000468493,colour,0.06
030,71,1,1,12,23,573,904.0301414998248,904.5757183998358,"[99, 0, 155]",155,l,0.013076500035822392,colour,0.06
030,71,1,1,12,24,574,905.0717016998678,905.7197623997927,"[96, 0, 158]",158,l,0.14072699984535575,colour,0.06
030,71,1,1,12,25,575,906.2326274998486,906.7677617999725,"[78, 0, 176]",176,l,0.016877599991858006,colour,0.06
030,71,1,1,12,26,576,907.2785356999375,908.0157032997813,"[93, 0, 161]",161,l,0.20924399979412556,colour,0.06
030,71,1,1,12,27,577,908.5248696999624,909.1517276999075,"[97, 0, 157]",157,l,0.095769900130108,colour,0.06
030,71,1,1,12,28,578,909.6578666998539,910.2957519998308,"[72, 0, 182]",182,l,0.11846420005895197,colour,0.06
030,71,1,1,12,29,579,910.8003076999448,911.3517012998927,"[79, 0, 175]",175,l,0.028566099936142564,colour,0.06
030,71,1,1,12,30,580,911.8550163998734,912.4797124997713,"[50, 0, 204]",204,a,0.11748039978556335,colour,0.06
030,71,1,1,12,31,581,912.9863103998359,913.5757052998524,"[82, 0, 172]",172,l,0.08047849987633526,colour,0.06
030,71,1,1,12,32,582,914.088609599974,914.6957011998165,"[71, 0, 183]",183,l,0.08350039995275438,colour,0.06
030,71,1,1,12,33,583,915.2119853999466,916.8636803999543,"[88, 0, 166]",166,l,1.139416899997741,colour,0.06
030,71,1,1,12,34,584,917.3825687998906,918.3037162998226,"[40, 0, 214]",214,a,0.40026240004226565,colour,0.06
030,71,1,1,12,35,585,918.8100718997885,920.2396696999203,"[92, 0, 162]",162,l,0.8998682999517769,colour,0.06
030,71,1,1,12,36,586,920.7491726998705,921.7037391997874,"[90, 0, 164]",164,l,0.43933249986730516,colour,0.06
030,71,1,1,12,37,587,922.2149687998462,923.1437128998805,"[57, 0, 197]",197,l,0.397728499956429,colour,0.06
030,71,1,1,12,38,588,923.6498139998876,924.2316720997915,"[91, 0, 163]",163,l,0.05134799983352423,colour,0.06
030,71,1,1,12,39,589,924.7515730999876,925.5277319999877,"[98, 0, 156]",156,l,0.2529830001294613,colour,0.06
030,71,1,1,12,40,590,926.0337686999701,926.6476812998299,"[36, 0, 218]",218,a,0.09131060005165637,colour,0.06
030,71,1,1,12,41,591,927.1580102997832,927.7436725997832,"[64, 0, 190]",190,l,0.05463899997994304,colour,0.06
030,71,1,1,12,42,592,928.2462288998067,929.0477040999103,"[69, 0, 185]",185,l,0.2825198001228273,colour,0.06
030,71,1,1,12,43,593,929.5610964999069,931.5357306997757,"[55, 0, 199]",199,l,1.4466172999236733,colour,0.06
030,71,1,1,12,44,594,932.0509156999178,932.903681299882,"[66, 0, 188]",188,l,0.3325245000887662,colour,0.06
030,71,1,1,12,45,595,933.416857099859,934.2717240999918,"[63, 0, 191]",191,l,0.33228180021978915,colour,0.06
030,71,1,1,12,46,596,934.7841142998077,935.3516934998333,"[84, 0, 170]",170,l,0.04567549983039498,colour,0.06
030,71,1,1,12,47,597,935.8673535999842,936.783675899962,"[94, 0, 160]",160,l,0.4079555000644177,colour,0.06
030,71,1,1,12,48,598,937.2930788998492,938.0556762998458,"[85, 0, 169]",169,l,0.2325050998479128,colour,0.06
030,71,1,1,12,49,599,938.5777637998108,939.6476299997885,"[62, 0, 192]",192,l,0.5511553999967873,colour,0.06
030,71,1,1,12,50,600,940.1715025999583,941.0076347999275,"[77, 0, 177]",177,l,0.32019759994000196,colour,0.06
030,71,1,1,13,1,601,945.9088311998639,946.7036874999758,"[73, 0, 181]",181,l,0.25807360000908375,colour,0.06
030,71,1,1,13,2,602,947.2171631997917,948.0316587998532,"[58, 0, 196]",196,l,0.2924842999782413,colour,0.06
030,71,1,1,13,3,603,948.5491056998726,949.455721499864,"[98, 0, 156]",156,l,0.38037210004404187,colour,0.06
030,71,1,1,13,4,604,949.9513250999153,950.5276834999677,"[50, 0, 204]",204,a,0.05609820014797151,colour,0.06
030,71,1,1,13,5,605,951.0349628999829,951.9436936997809,"[91, 0, 163]",163,l,0.4008664998691529,colour,0.06
030,71,1,1,13,6,606,952.4560349998064,953.3037211999763,"[76, 0, 178]",178,l,0.3293237001635134,colour,0.06
030,71,1,1,13,7,607,953.8158064999152,954.7197032999247,"[51, 0, 203]",203,a,0.38451090012677014,colour,0.06
030,71,1,1,13,8,608,955.2325374998618,956.1197160999291,"[16, 0, 238]",238,a,0.3614418001379818,colour,0.06
030,71,1,1,13,9,609,956.6368612998631,957.2157052999828,"[70, 0, 184]",184,l,0.06620550015941262,colour,0.06
030,71,1,1,13,10,610,957.7180627998896,958.6636888999492,"[99, 0, 155]",155,l,0.42905190004967153,colour,0.06
030,71,1,1,13,11,611,959.1684882999398,960.0556467999704,"[59, 0, 195]",195,l,0.3655344999860972,colour,0.06
030,71,1,1,13,12,612,960.5659190998413,961.3437150998507,"[64, 0, 190]",190,l,0.2547623000573367,colour,0.06
030,71,1,1,13,13,613,961.8491746999789,962.6477039998863,"[60, 0, 194]",194,l,0.2821891999337822,colour,0.06
030,71,1,1,13,14,614,963.1535964999348,963.7836263999343,"[74, 0, 180]",180,l,0.12210520007647574,colour,0.06
030,71,1,1,13,15,615,964.2989995998796,965.2716667999048,"[89, 0, 165]",165,l,0.44858839991502464,colour,0.06
030,71,1,1,13,16,616,965.7824962998275,966.8877663000021,"[85, 0, 169]",169,l,0.5741837001405656,colour,0.06
030,71,1,1,13,17,617,967.3993444999214,968.1277194998693,"[82, 0, 172]",172,l,0.19726360007189214,colour,0.06
030,71,1,1,13,18,618,968.6337102998514,969.6636772998609,"[55, 0, 199]",199,a,0.514936399878934,colour,0.06
030,71,1,1,13,19,619,970.1785088998731,971.0157245998271,"[78, 0, 176]",176,l,0.30929140001535416,colour,0.06
030,71,1,1,13,20,620,971.5264764998574,972.3996622997802,"[80, 0, 174]",174,l,0.3538788999430835,colour,0.06
030,71,1,1,13,21,621,972.8986067997757,973.6476698999759,"[67, 0, 187]",187,l,0.23793170019052923,colour,0.06
030,71,1,1,13,22,622,974.1631916998886,975.023655799916,"[61, 0, 193]",193,l,0.34714909992180765,colour,0.06
030,71,1,1,13,23,623,975.5267746997997,976.471679299837,"[96, 0, 158]",158,l,0.432576899882406,colour,0.06
030,71,1,1,13,24,624,976.9823677998502,977.703680699924,"[72, 0, 182]",182,l,0.19792550010606647,colour,0.06
030,71,1,1,13,25,625,978.2182058999315,980.0556925998535,"[77, 0, 177]",177,l,1.3177662999369204,colour,0.06
030,71,1,1,13,26,626,980.5707169999368,981.1996531998739,"[7, 0, 247]",247,a,0.11196919996291399,colour,0.06
030,71,1,1,13,27,627,981.7161420998164,982.3356606999878,"[81, 0, 173]",173,l,0.09585580020211637,colour,0.06
030,71,1,1,13,28,628,982.8518339998554,983.8076798999682,"[66, 0, 188]",188,l,0.43650449998676777,colour,0.06
030,71,1,1,13,29,629,984.3169610998593,985.1356164999306,"[65, 0, 189]",189,l,0.29601010004989803,colour,0.06
030,71,1,1,13,30,630,985.6491032999475,986.5436851999257,"[83, 0, 171]",171,l,0.3752862000837922,colour,0.06
030,71,1,1,13,31,631,987.0540713998489,987.8556517998222,"[87, 0, 167]",167,l,0.27027420001104474,colour,0.06
030,71,1,1,13,32,632,988.3581971998792,989.1756830997765,"[75, 0, 179]",179,l,0.3024882997851819,colour,0.06
030,71,1,1,13,33,633,989.6824651998468,990.8476531999186,"[54, 0, 200]",200,l,0.6414765999652445,colour,0.06
030,71,1,1,13,34,634,991.3581507999916,992.2316616999451,"[92, 0, 162]",162,l,0.35767220007255673,colour,0.06
030,71,1,1,13,35,635,992.7342851997819,994.1676297998056,"[52, 0, 202]",202,a,0.9128051998559386,colour,0.06
030,71,1,1,13,36,636,994.6841505998746,995.5996779999696,"[94, 0, 160]",160,l,0.3957895999774337,colour,0.06
030,71,1,1,13,37,637,996.120061900001,997.0716675999574,"[95, 0, 159]",159,l,0.4310020001139492,colour,0.06
030,71,1,1,13,38,638,997.5827591998968,998.1997021997813,"[33, 0, 221]",221,a,0.09813259984366596,colour,0.06
030,71,1,1,13,39,639,998.7160703998525,999.5676540997811,"[57, 0, 197]",197,l,0.3205765997990966,colour,0.06
030,71,1,1,13,40,640,1000.0829529999755,1000.9196438998915,"[84, 0, 170]",170,l,0.3182868999429047,colour,0.06
030,71,1,1,13,41,641,1001.4327708999626,1002.2477130999323,"[62, 0, 192]",192,l,0.29119330015964806,colour,0.06
030,71,1,1,13,42,642,1002.7580591998994,1003.5517232997809,"[69, 0, 185]",185,l,0.27819189988076687,colour,0.06
030,71,1,1,13,43,643,1004.0630573998205,1004.8796626999974,"[71, 0, 183]",183,l,0.28561860020272434,colour,0.06
030,71,1,1,13,44,644,1005.3885948997922,1006.319707099814,"[93, 0, 161]",161,l,0.4222490999381989,colour,0.06
030,71,1,1,13,45,645,1006.8421827999409,1007.8236763998866,"[86, 0, 168]",168,l,0.46678159991279244,colour,0.06
030,71,1,1,13,46,646,1008.3327839998528,1008.9676441999618,"[63, 0, 191]",191,l,0.11929580010473728,colour,0.06
030,71,1,1,13,47,647,1009.477384199854,1010.3836613998283,"[90, 0, 164]",164,l,0.3780036000534892,colour,0.06
030,71,1,1,13,48,648,1010.8992379999254,1012.1437161997892,"[56, 0, 198]",198,a,0.7172751999460161,colour,0.06
030,71,1,1,13,49,649,1012.6495084997732,1013.5837047998793,"[97, 0, 157]",157,l,0.4036785000935197,colour,0.06
030,71,1,1,13,50,650,1014.0945612997748,1015.1357508997899,"[53, 0, 201]",201,a,0.5225244998000562,colour,0.06
030,71,1,1,14,1,651,1019.6485608997755,1020.6636177999899,"[52, 0, 202]",202,l,0.4956942000426352,colour,0.06
030,71,1,1,14,2,652,1021.176168799866,1022.0636585999746,"[62, 0, 192]",192,l,0.3725312000606209,colour,0.06
030,71,1,1,14,3,653,1022.5694763998035,1023.3916487998795,"[55, 0, 199]",199,l,0.31021769996732473,colour,0.06
030,71,1,1,14,4,654,1023.899312999798,1024.7596751998644,"[94, 0, 160]",160,l,0.3371128998696804,colour,0.06
030,71,1,1,14,5,655,1025.2689945998136,1026.127667499939,"[74, 0, 180]",180,l,0.3385567001532763,colour,0.06
030,71,1,1,14,6,656,1026.6391750997864,1027.487742899917,"[75, 0, 179]",179,l,0.3304584000725299,colour,0.06
030,71,1,1,14,7,657,1028.0028582999948,1028.8316411999986,"[82, 0, 172]",172,l,0.30972520005889237,colour,0.06
030,71,1,1,14,8,658,1029.3385170998517,1029.8796438998543,"[97, 0, 157]",157,l,0.014223000034689903,colour,0.06
030,71,1,1,14,9,659,1030.3827670998871,1031.0477121998556,"[91, 0, 163]",163,l,0.144306399859488,colour,0.06
030,71,1,1,14,10,660,1031.5584820997901,1032.5116798998788,"[57, 0, 197]",197,a,0.43742959992960095,colour,0.06
030,71,1,1,14,11,661,1033.0148851999547,1033.9356440999545,"[61, 0, 193]",193,l,0.4085639000404626,colour,0.06
030,71,1,1,14,12,662,1034.4420743999071,1035.2957038998138,"[72, 0, 182]",182,l,0.3395175999030471,colour,0.06
030,71,1,1,14,13,663,1035.8107931998093,1036.6316589999478,"[90, 0, 164]",164,l,0.2919815999921411,colour,0.06
030,71,1,1,14,14,664,1037.1448486999143,1038.1356267998926,"[50, 0, 204]",204,a,0.4571928000077605,colour,0.06
030,71,1,1,14,15,665,1038.6493584997952,1039.4716084999964,"[58, 0, 196]",196,l,0.30391690018586814,colour,0.06
030,71,1,1,14,16,666,1039.9693394999485,1040.8636048999615,"[86, 0, 168]",168,l,0.36983179999515414,colour,0.06
030,71,1,1,14,17,667,1041.367353099864,1042.23964169994,"[64, 0, 190]",190,l,0.3459826000034809,colour,0.06
030,71,1,1,14,18,668,1042.7492903999519,1043.4076329998206,"[76, 0, 178]",178,l,0.1390603999607265,colour,0.06
030,71,1,1,14,19,669,1043.9160461998545,1044.815780799836,"[95, 0, 159]",159,l,0.384709500009194,colour,0.06
030,71,1,1,14,20,670,1045.3325993998442,1045.9676643998828,"[92, 0, 162]",162,l,0.1105706999078393,colour,0.06
030,71,1,1,14,21,671,1046.4859017999843,1047.0796277998015,"[54, 0, 200]",200,a,0.07838719990104437,colour,0.06
030,71,1,1,14,22,672,1047.5805165998172,1048.1836665999144,"[39, 0, 215]",215,a,0.08891459996812046,colour,0.06
030,71,1,1,14,23,673,1048.6994425999,1049.2156586998608,"[63, 0, 191]",191,l,0.0011597999837249517,colour,0.06
030,71,1,1,14,24,674,1049.7314830999821,1050.5116582999472,"[56, 0, 198]",198,l,0.2550904001109302,colour,0.06
030,71,1,1,14,25,675,1051.0323318999726,1051.5996524998918,"[66, 0, 188]",188,l,0.03638239996507764,colour,0.06
030,71,1,1,14,26,676,1052.11826379993,1052.7836599999573,"[67, 0, 187]",187,l,0.14939090004190803,colour,0.06
030,71,1,1,14,27,677,1053.2819897998124,1054.0077346998733,"[51, 0, 203]",203,a,0.20140979997813702,colour,0.06
030,71,1,1,14,28,678,1054.5158784999512,1055.1996297999285,"[53, 0, 201]",201,a,0.165870200144127,colour,0.06
030,71,1,1,14,29,679,1055.7158511998132,1056.3196888999082,"[98, 0, 156]",156,l,0.07984600006602705,colour,0.06
030,71,1,1,14,30,680,1056.8336337998044,1057.7676747997757,"[96, 0, 158]",158,l,0.4114767999853939,colour,0.06
030,71,1,1,14,31,681,1058.2842772000004,1059.1356374998577,"[85, 0, 169]",169,l,0.32934270007535815,colour,0.06
030,71,1,1,14,32,682,1059.6421194998547,1060.895603899844,"[70, 0, 184]",184,l,0.7342079998925328,colour,0.06
030,71,1,1,14,33,683,1061.4095003998373,1062.367608099943,"[24, 0, 230]",230,a,0.43815580010414124,colour,0.06
030,71,1,1,14,34,684,1062.8800866999663,1063.8316232999787,"[80, 0, 174]",174,l,0.42467990005388856,colour,0.06
030,71,1,1,14,35,685,1064.338761099847,1065.223677399801,"[78, 0, 176]",176,l,0.3626851998269558,colour,0.06
030,71,1,1,14,36,686,1065.7285567999352,1066.5196563999634,"[68, 0, 186]",186,l,0.27729020011611283,colour,0.06
030,71,1,1,14,37,687,1067.0326321998145,1068.0236235999037,"[87, 0, 167]",167,l,0.4674510001204908,colour,0.06
030,71,1,1,14,38,688,1068.5332690998912,1069.4877904998139,"[79, 0, 175]",175,l,0.42392880003899336,colour,0.06
030,71,1,1,14,39,689,1069.9989872998558,1071.0876287999563,"[89, 0, 165]",165,l,0.5694892001338303,colour,0.06
030,71,1,1,14,40,690,1071.599370899843,1072.5197193999775,"[84, 0, 170]",170,l,0.39593670004978776,colour,0.06
030,71,1,1,14,41,691,1073.0338523997925,1073.815612499835,"[65, 0, 189]",189,l,0.2740954998880625,colour,0.06
030,71,1,1,14,42,692,1074.3348544999026,1075.167647099821,"[83, 0, 171]",171,l,0.3224049999844283,colour,0.06
030,71,1,1,14,43,693,1075.6754945998546,1076.503628599923,"[99, 0, 155]",155,l,0.31410189997404814,colour,0.06
030,71,1,1,14,44,694,1077.015716199996,1077.9916855997872,"[28, 0, 226]",226,a,0.4568487999495119,colour,0.06
030,71,1,1,14,45,695,1078.5010767998174,1079.4396188999526,"[81, 0, 173]",173,l,0.41887470008805394,colour,0.06
030,71,1,1,14,46,696,1079.9463821998797,1080.83166229981,"[88, 0, 166]",166,l,0.36855100002139807,colour,0.06
030,71,1,1,14,47,697,1081.341760299867,1082.4795901998878,"[59, 0, 195]",195,l,0.6185433999635279,colour,0.06
030,71,1,1,14,48,698,1082.9882129000034,1083.8156496998854,"[77, 0, 177]",177,l,0.30847160005941987,colour,0.06
030,71,1,1,14,49,699,1084.332419199869,1085.2796195999254,"[69, 0, 185]",185,l,0.4235934999305755,colour,0.06
030,71,1,1,14,50,700,1085.7994829998352,1086.7596904998645,"[93, 0, 161]",161,l,0.43084449996240437,colour,0.06
030,71,1,1,15,1,701,1092.014902099967,1094.4396259998903,"[51, 0, 203]",203,l,1.8994354999158531,colour,0.06
030,71,1,1,15,2,702,1094.9481723997742,1095.4877033999655,"[63, 0, 191]",191,l,0.020168500021100044,colour,0.06
030,71,1,1,15,3,703,1095.9951917999424,1096.7036212999374,"[69, 0, 185]",185,l,0.18909250013530254,colour,0.06
030,71,1,1,15,4,704,1097.2143768998794,1097.8396649998613,"[95, 0, 159]",159,l,0.09917409997433424,colour,0.06
030,71,1,1,15,5,705,1098.3548973998986,1098.9757426998112,"[94, 0, 160]",160,l,0.10189089993946254,colour,0.06
030,71,1,1,15,6,706,1099.4894471999723,1101.5916428999044,"[91, 0, 163]",163,l,1.5829016000498086,colour,0.06
030,71,1,1,15,7,707,1102.0878444998525,1102.7916377999354,"[86, 0, 168]",168,l,0.1885643000714481,colour,0.06
030,71,1,1,15,8,708,1103.3003954999149,1104.2155956998467,"[74, 0, 180]",180,l,0.3919446000363678,colour,0.06
030,71,1,1,15,9,709,1104.7328094998375,1105.2956870999187,"[55, 0, 199]",199,a,0.03530550003051758,colour,0.06
030,71,1,1,15,10,710,1105.8160649999045,1106.4315954998601,"[64, 0, 190]",190,l,0.09797889995388687,colour,0.06
030,71,1,1,15,11,711,1106.9576506000012,1107.7036165997852,"[62, 0, 192]",192,l,0.22538749990053475,colour,0.06
030,71,1,1,15,12,712,1108.216359199956,1108.8076373999938,"[80, 0, 174]",174,l,0.06103820004500449,colour,0.06
030,71,1,1,15,13,713,1109.3197156998795,1109.9436350998003,"[57, 0, 197]",197,a,0.10773069993592799,colour,0.06
030,71,1,1,15,14,714,1110.4576039998792,1111.055643599946,"[50, 0, 204]",204,a,0.06723679997958243,colour,0.06
030,71,1,1,15,15,715,1111.5612923000008,1112.6556891999207,"[59, 0, 195]",195,a,0.5713438000530005,colour,0.06
030,71,1,1,15,16,716,1113.1603982998058,1113.791591099929,"[60, 0, 194]",194,a,0.1174983000382781,colour,0.06
030,71,1,1,15,17,717,1114.3023852999322,1114.9516050999518,"[98, 0, 156]",156,l,0.1336320999544114,colour,0.06
030,71,1,1,15,18,718,1115.4593322998844,1116.839617199963,"[93, 0, 161]",161,l,0.8652065000496805,colour,0.06
030,71,1,1,15,19,719,1117.3485924999695,1117.9516365998425,"[72, 0, 182]",182,l,0.08377399994060397,colour,0.06
030,71,1,1,15,20,720,1118.46920949989,1119.127625899855,"[70, 0, 184]",184,l,0.13417089986614883,colour,0.06
030,71,1,1,15,21,721,1119.6339014999103,1121.1275789998472,"[85, 0, 169]",169,l,0.9799601999111474,colour,0.06
030,71,1,1,15,22,722,1121.6327281999402,1122.559690499911,"[83, 0, 171]",171,l,0.40347909997217357,colour,0.06
030,71,1,1,15,23,723,1123.07981499983,1125.1596217998303,"[56, 0, 198]",198,l,1.5709665999747813,colour,0.06
030,71,1,1,15,24,724,1125.6704418999143,1126.4476091999095,"[77, 0, 177]",177,l,0.26876390003599226,colour,0.06
030,71,1,1,15,25,725,1126.9614713999908,1127.5916613999289,"[66, 0, 188]",188,l,0.10229500010609627,colour,0.06
030,71,1,1,15,26,726,1128.1059179999866,1128.85562269995,"[58, 0, 196]",196,l,0.22706550010479987,colour,0.06
030,71,1,1,15,27,727,1129.357698699925,1129.9436048998032,"[17, 0, 237]",237,a,0.06670739990659058,colour,0.06
030,71,1,1,15,28,728,1130.4521266999654,1131.0715839997865,"[61, 0, 193]",193,l,0.10019159992225468,colour,0.06
030,71,1,1,15,29,729,1131.5828928998671,1132.135675399797,"[71, 0, 183]",183,l,0.03776149987243116,colour,0.06
030,71,1,1,15,30,730,1132.652362599969,1133.3756059999578,"[79, 0, 175]",175,l,0.21455410006456077,colour,0.06
030,71,1,1,15,31,731,1133.8830515998416,1134.6556551998947,"[84, 0, 170]",170,l,0.24904470006003976,colour,0.06
030,71,1,1,15,32,732,1135.1619741998147,1135.8156322999857,"[76, 0, 178]",178,l,0.12277350015938282,colour,0.06
030,71,1,1,15,33,733,1136.3188251999673,1137.2716002999805,"[52, 0, 202]",202,a,0.4310413000639528,colour,0.06
030,71,1,1,15,34,734,1137.7859234998468,1139.271579099819,"[97, 0, 157]",157,l,0.9684345000423491,colour,0.06
030,71,1,1,15,35,735,1139.782760699978,1140.671632999787,"[92, 0, 162]",162,l,0.35841139988042414,colour,0.06
030,71,1,1,15,36,736,1141.186960299965,1142.6556361999828,"[78, 0, 176]",176,l,0.9492418000008911,colour,0.06
030,71,1,1,15,37,737,1143.1703593998682,1143.743649999844,"[87, 0, 167]",167,l,0.04827589984051883,colour,0.06
030,71,1,1,15,38,738,1144.2516484998632,1145.7435813997872,"[89, 0, 165]",165,l,0.978785399813205,colour,0.06
030,71,1,1,15,39,739,1146.2575499999803,1146.9116785998922,"[68, 0, 186]",186,l,0.1352744000032544,colour,0.06
030,71,1,1,15,40,740,1147.4171767998487,1148.1356068998575,"[53, 0, 201]",201,a,0.2099697000812739,colour,0.06
030,71,1,1,15,41,741,1148.6417719998863,1149.2396211999003,"[21, 0, 233]",233,a,0.08870350010693073,colour,0.06
030,71,1,1,15,42,742,1149.7357629998587,1150.2637033998035,"[75, 0, 179]",179,l,0.014236300019547343,colour,0.06
030,71,1,1,15,43,743,1150.779439299833,1151.4076700999867,"[88, 0, 166]",166,l,0.11975900013931096,colour,0.06
030,71,1,1,15,44,744,1151.9137316998094,1153.2076086997986,"[90, 0, 164]",164,l,0.7855043997988105,colour,0.06
030,71,1,1,15,45,745,1153.7164665998425,1154.35959249991,"[96, 0, 158]",158,l,0.12000950006768107,colour,0.06
030,71,1,1,15,46,746,1154.867261099862,1155.8556102998555,"[82, 0, 172]",172,l,0.4739951000083238,colour,0.06
030,71,1,1,15,47,747,1156.3629722998012,1157.0876088999212,"[65, 0, 189]",189,l,0.2052581999450922,colour,0.06
030,71,1,1,15,48,748,1157.5995749998838,1158.183622899931,"[39, 0, 215]",215,a,0.06532380008138716,colour,0.06
030,71,1,1,15,49,749,1158.6994938999414,1159.2396167998668,"[99, 0, 155]",155,l,0.016905599972233176,colour,0.06
030,71,1,1,15,50,750,1159.7400754999835,1160.4555820999667,"[81, 0, 173]",173,l,0.20677120005711913,colour,0.06
030,71,1,1,16,1,751,1164.8978615999222,1166.0156532998662,"[86, 0, 168]",168,l,0.6034377000760287,colour,0.06
030,71,1,1,16,2,752,1166.51730279997,1167.6635972999502,"[52, 0, 202]",202,l,0.6386023999657482,colour,0.06
030,71,1,1,16,3,753,1168.1700350998435,1169.4716158998199,"[78, 0, 176]",176,l,0.7812238000333309,colour,0.06
030,71,1,1,16,4,754,1169.9826488997787,1170.9115890997928,"[70, 0, 184]",184,l,0.40331179997883737,colour,0.06
030,71,1,1,16,5,755,1171.4187970999628,1172.375685099978,"[75, 0, 179]",179,l,0.4383763000369072,colour,0.06
030,71,1,1,16,6,756,1172.8886216999963,1173.5756099999417,"[77, 0, 177]",177,l,0.16845760005526245,colour,0.06
030,71,1,1,16,7,757,1174.082788999891,1175.0476552997716,"[88, 0, 166]",166,l,0.43299839994870126,colour,0.06
030,71,1,1,16,8,758,1175.558356499998,1176.4556843999308,"[71, 0, 183]",183,l,0.38101890007965267,colour,0.06
030,71,1,1,16,9,759,1176.965336599853,1177.6395996999927,"[58, 0, 196]",196,l,0.14383660000748932,colour,0.06
030,71,1,1,16,10,760,1178.1496185997967,1179.087674899958,"[68, 0, 186]",186,l,0.4071273000445217,colour,0.06
030,71,1,1,16,11,761,1179.5994233998936,1180.5196911999956,"[56, 0, 198]",198,l,0.3966474002227187,colour,0.06
030,71,1,1,16,12,762,1181.0333372999448,1181.7835908997804,"[85, 0, 169]",169,l,0.226101899985224,colour,0.06
030,71,1,1,16,13,763,1182.3000760998111,1183.3116025999188,"[89, 0, 165]",165,l,0.4927687000017613,colour,0.06
030,71,1,1,16,14,764,1183.8206088999286,1184.4876087999437,"[87, 0, 167]",167,l,0.15117570012807846,colour,0.06
030,71,1,1,16,15,765,1184.9959523999132,1185.9995792999398,"[91, 0, 163]",163,l,0.4921254999935627,colour,0.06
030,71,1,1,16,16,766,1186.510011299979,1187.1835876998957,"[66, 0, 188]",188,l,0.15367559995502234,colour,0.06
030,71,1,1,16,17,767,1187.6942401998676,1188.3676111998502,"[10, 0, 244]",244,a,0.14365989994257689,colour,0.06
030,71,1,1,16,18,768,1188.8722761999816,1190.0475704998244,"[96, 0, 158]",158,l,0.6594871999695897,colour,0.06
030,71,1,1,16,19,769,1190.5578344999813,1191.375630499795,"[61, 0, 193]",193,l,0.3010564998257905,colour,0.06
030,71,1,1,16,20,770,1191.8854183999356,1192.7436112998985,"[79, 0, 175]",175,l,0.3370880000293255,colour,0.06
030,71,1,1,16,21,771,1193.257814699784,1194.2556335998233,"[50, 0, 204]",204,a,0.48102589999325573,colour,0.06
030,71,1,1,16,22,772,1194.7661227998324,1195.639584499877,"[90, 0, 164]",164,l,0.3494412999134511,colour,0.06
030,71,1,1,16,23,773,1196.145824499894,1197.0476126999129,"[72, 0, 182]",182,l,0.3824716000817716,colour,0.06
030,71,1,1,16,24,774,1197.561519099865,1199.0475881998427,"[84, 0, 170]",170,l,0.9671827000565827,colour,0.06
030,71,1,1,16,25,775,1199.5673527999315,1200.4316040999256,"[74, 0, 180]",180,l,0.34163250005804,colour,0.06
030,71,1,1,16,26,776,1200.9488195998129,1201.8316243998706,"[65, 0, 189]",189,l,0.35899029998108745,colour,0.06
030,71,1,1,16,27,777,1202.3339739998337,1203.3036719998345,"[53, 0, 201]",201,a,0.4532776998821646,colour,0.06
030,71,1,1,16,28,778,1203.82007659995,1204.5276317999233,"[60, 0, 194]",194,l,0.18773779994808137,colour,0.06
030,71,1,1,16,29,779,1205.034146099817,1205.8396191999782,"[80, 0, 174]",174,l,0.2968532000668347,colour,0.06
030,71,1,1,16,30,780,1206.355092999991,1207.04762759991,"[82, 0, 172]",172,l,0.1776104001328349,colour,0.06
030,71,1,1,16,31,781,1207.5574136998039,1208.2316517999861,"[55, 0, 199]",199,l,0.1574170000385493,colour,0.06
030,71,1,1,16,32,782,1208.7337697998155,1209.3756475998089,"[59, 0, 195]",195,l,0.12708609993569553,colour,0.06
030,71,1,1,16,33,783,1209.8839427998755,1210.415596799925,"[19, 0, 235]",235,a,0.017535400111228228,colour,0.06
030,71,1,1,16,34,784,1210.9249005999882,1212.287658299785,"[63, 0, 191]",191,l,0.8464426998980343,colour,0.06
030,71,1,1,16,35,785,1212.7956751999445,1213.5755697998684,"[64, 0, 190]",190,l,0.24859030009247363,colour,0.06
030,71,1,1,16,36,786,1214.0810793999117,1215.4076020999346,"[83, 0, 171]",171,l,0.8163050999864936,colour,0.06
030,71,1,1,16,37,787,1215.9164143998642,1216.8635875999462,"[67, 0, 187]",187,l,0.42958780005574226,colour,0.06
030,71,1,1,16,38,788,1217.3679261999205,1218.223617499927,"[93, 0, 161]",161,l,0.3485767999663949,colour,0.06
030,71,1,1,16,39,789,1218.7395503998268,1219.3276148999576,"[98, 0, 156]",156,l,0.07079130015335977,colour,0.06
030,71,1,1,16,40,790,1219.8379912998062,1220.5995506998152,"[76, 0, 178]",178,l,0.2526273999828845,colour,0.06
030,71,1,1,16,41,791,1221.1166872999165,1221.9755817998666,"[62, 0, 192]",192,l,0.3411743000615388,colour,0.06
030,71,1,1,16,42,792,1222.4840159998275,1223.0875535998493,"[99, 0, 155]",155,l,0.08855649991892278,colour,0.06
030,71,1,1,16,43,793,1223.5991698999424,1224.231579199899,"[92, 0, 162]",162,l,0.10849389992654324,colour,0.06
030,71,1,1,16,44,794,1224.7542956999969,1225.767589499941,"[51, 0, 203]",203,a,0.49618829996325076,colour,0.06
030,71,1,1,16,45,795,1226.282533599995,1227.1916124999989,"[69, 0, 185]",185,l,0.3754797000437975,colour,0.06
030,71,1,1,16,46,796,1227.6990697998554,1229.4395773999859,"[94, 0, 160]",160,l,1.2212899001315236,colour,0.06
030,71,1,1,16,47,797,1229.9522707997821,1231.5835781998467,"[57, 0, 197]",197,l,1.1018973998725414,colour,0.06
030,71,1,1,16,48,798,1232.08639089996,1232.9915964999236,"[95, 0, 159]",159,l,0.38524889992550015,colour,0.06
030,71,1,1,16,49,799,1233.4996418999508,1234.2956452998333,"[43, 0, 211]",211,a,0.2657715999521315,colour,0.06
030,71,1,1,16,50,800,1234.8027240999509,1235.775565699907,"[81, 0, 173]",173,l,0.4524576000403613,colour,0.06
