id,age,condition,counterbalance,block,trialinblock,trial,tstart,tend,trialstim,trialintensity,response,RT,trialtype,colourfreq
144,21,0,1,Practice,1,NA,5.907688318984583e-06,2.2125952713286097,"[88, 0, 166]",166,l,1.6383742197904212,colour,0.5
144,21,0,1,Practice,2,NA,2.7248730240753503,3.9645944332241925,"[69, 0, 185]",185,a,0.721730133624078,colour,0.5
144,21,0,1,Practice,3,NA,4.474461455087294,7.400987923108914,"[43, 0, 211]",211,a,2.4091893705717666,colour,0.5
144,21,0,1,Practice,4,NA,7.9228912701692025,8.820575219844613,"[73, 0, 181]",181,l,0.3795816096007911,colour,0.5
144,21,0,1,Practice,5,NA,9.33000979888675,10.004619024963176,"[33, 0, 221]",221,a,0.157246528640826,colour,0.5
144,21,0,1,Practice,6,NA,10.520856504601397,11.164530708954771,"[37, 0, 217]",217,a,0.1110401313235343,colour,0.5
144,21,0,1,Practice,7,NA,11.679913149097047,13.692855319914088,"[1, 0, 253]",253,a,1.4941179111683596,colour,0.5
144,21,0,1,Practice,8,NA,14.202527781892059,15.796601818623458,"[11, 0, 243]",243,a,1.076078035055616,colour,0.5
144,21,0,1,Practice,9,NA,16.31020053059001,17.396612688769892,"[78, 0, 176]",176,l,0.5743943437410053,colour,0.5
144,21,0,1,Practice,10,NA,17.906510430615526,19.036622944518967,"[76, 0, 178]",178,l,0.6067519369353249,colour,0.5
144,21,0,1,1,1,1,4.670273376330442,5.527951638872764,"[2, 0, 252]",252,a,0.33350596912896435,colour,0.5
144,21,0,1,1,2,2,6.046037043572142,6.991921038619694,"[59, 0, 195]",195,l,0.42288142402139783,colour,0.5
144,21,0,1,1,3,3,7.503354385711646,8.991939155532236,"[7, 0, 247]",247,a,0.9652312820799125,colour,0.5
144,21,0,1,1,4,4,9.503389437997612,10.080022795802506,"[67, 0, 187]",187,l,0.05323221470644057,colour,0.5
144,21,0,1,1,5,5,10.597058601122626,11.199981568011935,"[74, 0, 180]",180,l,0.07954821146813629,colour,0.5
144,21,0,1,1,6,6,11.706522954915272,12.335921426163623,"[48, 0, 206]",206,a,0.10613871883469983,colour,0.5
144,21,0,1,1,7,7,12.847665911533113,13.703948777974801,"[34, 0, 220]",220,a,0.32772982484857494,colour,0.5
144,21,0,1,1,8,8,14.212965486494795,15.071941865191548,"[55, 0, 199]",199,a,0.335661881701526,colour,0.5
144,21,0,1,1,9,9,15.587951308041738,16.399960379101685,"[77, 0, 177]",177,l,0.28864770640029747,colour,0.5
144,21,0,1,1,10,10,16.919410459917344,17.78398969068985,"[89, 0, 165]",165,l,0.3415396382297331,colour,0.5
144,21,0,1,1,11,11,18.296046889719946,19.055932422341357,"[84, 0, 170]",170,l,0.23742213666082534,colour,0.5
144,21,0,1,1,12,12,19.576483696355353,20.479926461090145,"[3, 0, 251]",251,a,0.3801199969748268,colour,0.5
144,21,0,1,1,13,13,20.998310007153123,21.6559594401715,"[66, 0, 188]",188,l,0.13430421604061848,colour,0.5
144,21,0,1,1,14,14,22.170107173353244,22.743981246632757,"[8, 0, 246]",246,a,0.06277785829661298,colour,0.5
144,21,0,1,1,15,15,23.262780693989043,29.75192787578453,"[27, 0, 227]",227,a,5.963940255149282,colour,0.5
144,21,0,1,1,16,16,30.268353613773797,31.583895088899226,"[45, 0, 209]",209,a,0.7977392456432426,colour,0.5
144,21,0,1,1,17,17,32.103140369838,33.00788873380225,"[12, 0, 242]",242,a,0.38166269144858234,colour,0.5
144,21,0,1,1,18,18,33.54916851249254,34.38399780391592,"[23, 0, 231]",231,a,0.31381642999258474,colour,0.5
144,21,0,1,1,19,19,34.89997140678679,35.77592963391362,"[35, 0, 219]",219,a,0.3528430161677534,colour,0.5
144,21,0,1,1,20,20,36.29399731554622,37.055953296176085,"[50, 0, 204]",204,a,0.23862218518297595,colour,0.5
144,21,0,1,1,21,21,37.57527262014628,38.14387191500464,"[1, 0, 253]",253,a,0.054718983057682635,colour,0.5
144,21,0,1,1,22,22,38.65959188110355,39.45593336757156,"[95, 0, 159]",159,l,0.27306401098940114,colour,0.5
144,21,0,1,1,23,23,39.97203812113548,40.90395515827913,"[10, 0, 244]",244,a,0.4094233150481159,colour,0.5
144,21,0,1,1,24,24,41.42007802875378,42.26390079178782,"[86, 0, 168]",168,l,0.3205941244486894,colour,0.5
144,21,0,1,1,25,25,42.77888150909166,43.63781298935464,"[38, 0, 216]",216,a,0.3305623647138418,colour,0.5
144,21,0,1,1,26,26,44.14951336398008,44.959924995982874,"[4, 0, 250]",250,a,0.28726215644746844,colour,0.5
144,21,0,1,1,27,27,45.47758583478026,46.11992765838113,"[91, 0, 163]",163,l,0.1293504220448085,colour,0.5
144,21,0,1,1,28,28,46.62716890948832,47.20810660936513,"[19, 0, 235]",235,a,0.057695276684171404,colour,0.5
144,21,0,1,1,29,29,47.72094677408677,50.21589648783993,"[52, 0, 202]",202,a,1.9754409498927998,colour,0.5
144,21,0,1,1,30,30,50.732927960854795,51.41593516350986,"[83, 0, 171]",171,l,0.15974233024462592,colour,0.5
144,21,0,1,1,31,31,51.93604572393633,53.991921038619694,"[99, 0, 155]",155,l,1.5327144175971625,colour,0.5
144,21,0,1,1,32,32,54.50501838472883,55.15989081015687,"[28, 0, 226]",226,a,0.1315709253485693,colour,0.5
144,21,0,1,1,33,33,55.6714151356573,56.520040062006956,"[65, 0, 189]",189,l,0.32531003550866444,colour,0.5
144,21,0,1,1,34,34,57.030767637208555,57.887901604686704,"[76, 0, 178]",178,l,0.3337812674271845,colour,0.5
144,21,0,1,1,35,35,58.3997291915457,59.10388473862804,"[96, 0, 158]",158,l,0.18089618851627165,colour,0.5
144,21,0,1,1,36,36,59.61840505005057,60.41590956352411,"[14, 0, 240]",240,a,0.27436764098820277,colour,0.5
144,21,0,1,1,37,37,60.93090209620641,61.663900161634956,"[9, 0, 245]",245,a,0.21810753884165024,colour,0.5
144,21,0,1,1,38,38,62.18134989901773,62.93594332399698,"[33, 0, 221]",221,a,0.2309280112676788,colour,0.5
144,21,0,1,1,39,39,63.446816622188635,64.09586997413317,"[68, 0, 186]",186,l,0.13111682100134203,colour,0.5
144,21,0,1,1,40,40,64.61064589155649,65.36797024415318,"[11, 0, 243]",243,a,0.22508648856455693,colour,0.5
144,21,0,1,1,41,41,65.87753124773553,66.70397319642325,"[29, 0, 225]",225,a,0.29546596698673966,colour,0.5
144,21,0,1,1,42,42,67.22032882983694,67.92790256567059,"[94, 0, 160]",160,l,0.18663728051069484,colour,0.5
144,21,0,1,1,43,43,68.44492025407817,69.25588839036755,"[22, 0, 232]",232,a,0.2922380058153067,colour,0.5
144,21,0,1,1,44,44,69.77566142484102,70.42391960186978,"[82, 0, 172]",172,l,0.12922872365561489,colour,0.5
144,21,0,1,1,45,45,70.93700276952586,71.55189707703357,"[90, 0, 164]",164,l,0.09302798196586082,colour,0.5
144,21,0,1,1,46,46,72.06903134383356,72.76788139251403,"[15, 0, 239]",239,a,0.17188971999166824,colour,0.5
144,21,0,1,1,47,47,73.2749501391063,74.79192647369382,"[54, 0, 200]",200,a,0.9847546182372753,colour,0.5
144,21,0,1,1,48,48,75.31113237003956,75.84006862371461,"[37, 0, 217]",217,a,0.0057060397066379664,colour,0.5
144,21,0,1,1,49,49,76.36221103524804,77.33587692157562,"[56, 0, 198]",198,l,0.4451494724053191,colour,0.5
144,21,0,1,1,50,50,77.85195765053686,78.4078865282645,"[85, 0, 169]",169,a,0.03868630329998268,colour,0.5
144,21,0,1,2,1,51,83.8889807425112,84.90389371831589,"[31, 0, 223]",223,a,0.49391665590155753,colour,0.5
144,21,0,1,2,2,52,85.42227332591938,85.9678661112921,"[68, 0, 186]",186,l,0.02461143161417567,colour,0.5
144,21,0,1,2,3,53,86.48376527728396,87.07187372984663,"[7, 0, 247]",247,a,0.06987574948834663,colour,0.5
144,21,0,1,2,4,54,87.58211963148642,88.23989312597041,"[80, 0, 174]",174,l,0.14026113559884834,colour,0.5
144,21,0,1,2,5,55,88.75779893693107,89.43990108165963,"[84, 0, 170]",170,l,0.1643857736562495,colour,0.5
144,21,0,1,2,6,56,89.94940930988741,90.85595676201956,"[53, 0, 201]",201,l,0.37386178528686287,colour,0.5
144,21,0,1,2,7,57,91.37631426383996,92.11986149226686,"[90, 0, 164]",164,a,0.21331010167523345,colour,0.5
144,21,0,1,2,8,58,92.64123866117552,93.36786626883077,"[0, 0, 254]",254,a,0.1977027755110612,colour,0.5
144,21,0,1,2,9,59,93.88554049838967,94.84790340062318,"[61, 0, 193]",193,l,0.4409609210324561,colour,0.5
144,21,0,1,2,10,60,95.3574376226843,96.15196229791763,"[29, 0, 225]",225,a,0.2625274510610325,colour,0.5
144,21,0,1,2,11,61,96.67130525264474,97.97585370041998,"[41, 0, 213]",213,a,0.7871191903795989,colour,0.5
144,21,0,1,2,12,62,98.49934857884728,99.3599306673641,"[19, 0, 235]",235,a,0.32698112375146593,colour,0.5
144,21,0,1,2,13,63,99.87792312442798,100.72790051767151,"[66, 0, 188]",188,l,0.33103970597039734,colour,0.5
144,21,0,1,2,14,64,101.23876160663895,102.39993084065645,"[28, 0, 226]",226,a,0.6430172693562781,colour,0.5
144,21,0,1,2,15,65,102.9161159387877,103.7518837650423,"[4, 0, 250]",250,a,0.3241202269819041,colour,0.5
144,21,0,1,2,16,66,104.26357665659452,105.20791126178847,"[45, 0, 209]",209,a,0.4245308507397567,colour,0.5
144,21,0,1,2,17,67,105.718843243023,106.47995363645896,"[24, 0, 230]",230,a,0.23115092805892345,colour,0.5
144,21,0,1,2,18,68,106.99386663746918,107.62390392680209,"[86, 0, 168]",168,l,0.11186366314541374,colour,0.5
144,21,0,1,2,19,69,108.13886770873069,108.72789106536948,"[52, 0, 202]",202,l,0.07140702243123087,colour,0.5
144,21,0,1,2,20,70,109.23748593970049,109.81594122873685,"[51, 0, 203]",203,l,0.0569430309751624,colour,0.5
144,21,0,1,2,21,71,110.325070183344,110.99988381545336,"[22, 0, 232]",232,a,0.15728709477116354,colour,0.5
144,21,0,1,2,22,72,111.51663802094117,112.45588728759867,"[82, 0, 172]",172,l,0.42123199730303895,colour,0.5
144,21,0,1,2,23,73,112.9783116928138,113.63990588657907,"[81, 0, 173]",173,l,0.13704420211615798,colour,0.5
144,21,0,1,2,24,74,114.16030395452799,114.84785141296197,"[63, 0, 191]",191,l,0.1667453045683942,colour,0.5
144,21,0,1,2,25,75,115.37013324595318,116.24794254890912,"[23, 0, 231]",231,a,0.3594430861139699,colour,0.5
144,21,0,1,2,26,76,116.76204459596192,117.695878481205,"[99, 0, 155]",155,l,0.4021541008823988,colour,0.5
144,21,0,1,2,27,77,118.21373230450263,118.93589527479526,"[15, 0, 239]",239,a,0.20147936405010114,colour,0.5
144,21,0,1,2,28,78,119.45513622342696,120.2558505811594,"[57, 0, 197]",197,l,0.28243281776303775,colour,0.5
144,21,0,1,2,29,79,120.77123853514604,121.44794853536587,"[25, 0, 229]",229,a,0.15545768046831654,colour,0.5
144,21,0,1,2,30,80,121.97185104432174,122.73587865449736,"[60, 0, 194]",194,l,0.24712571246709558,colour,0.5
144,21,0,1,2,31,81,123.2513969714837,123.95187084689496,"[9, 0, 245]",245,a,0.18947494037092838,colour,0.5
144,21,0,1,2,32,82,124.47223543794098,125.30386788202304,"[2, 0, 252]",252,a,0.30904301742702955,colour,0.5
144,21,0,1,2,33,83,125.82119198255714,126.6798517091338,"[33, 0, 221]",221,a,0.34140336753989686,colour,0.5
144,21,0,1,2,34,84,127.1966468745959,127.7358755037294,"[46, 0, 208]",208,a,0.012898060072984663,colour,0.5
144,21,0,1,2,35,85,128.25403101300435,130.74385009594153,"[8, 0, 246]",246,a,1.9716828721138882,colour,0.5
144,21,0,1,2,36,86,131.2666301440222,132.03188222116478,"[92, 0, 162]",162,l,0.2464246667277621,colour,0.5
144,21,0,1,2,37,87,132.5546906261534,133.415881206618,"[56, 0, 198]",198,a,0.33161747793565155,colour,0.5
144,21,0,1,2,38,88,133.92069715454272,134.75205666340116,"[11, 0, 243]",243,a,0.3032365470116929,colour,0.5
144,21,0,1,2,39,89,135.2761371907127,136.10387056017498,"[54, 0, 200]",200,a,0.31060225342844205,colour,0.5
144,21,0,1,2,40,90,136.62205678943246,137.35186942905057,"[38, 0, 216]",216,a,0.21155276117497124,colour,0.5
144,21,0,1,2,41,91,137.87431785886474,139.59184998881574,"[50, 0, 204]",204,a,1.2009996597171266,colour,0.5
144,21,0,1,2,42,92,140.10244562563275,140.81585694571004,"[79, 0, 175]",175,l,0.19439250054347212,colour,0.5
144,21,0,1,2,43,93,141.32471099586292,142.55195969853594,"[73, 0, 181]",181,l,0.6992572853632737,colour,0.5
144,21,0,1,2,44,94,143.07004352785225,150.8238323256137,"[5, 0, 249]",249,l,7.229653132020758,colour,0.5
144,21,0,1,2,45,95,151.3317982532153,154.983998040223,"[96, 0, 158]",158,l,3.1290751237465884,colour,0.5
144,21,0,1,2,46,96,155.49487409533685,156.0318609534861,"[75, 0, 179]",179,l,0.01374876726185903,colour,0.5
144,21,0,1,2,47,97,156.55116767438813,157.11189832158743,"[94, 0, 160]",160,l,0.0372294672379212,colour,0.5
144,21,0,1,2,48,98,157.62935632973495,159.64787338956376,"[27, 0, 227]",227,a,1.4955369380204502,colour,0.5
144,21,0,1,2,49,99,160.15413514586544,160.94385490086097,"[1, 0, 253]",253,a,0.26631743035977706,colour,0.5
144,21,0,1,2,50,100,161.45833464615316,162.21581299250465,"[43, 0, 211]",211,a,0.23407877863610338,colour,0.5
144,21,0,1,3,1,101,167.3321235699459,168.1438364688729,"[9, 0, 245]",245,a,0.29189851063347305,colour,0.5
144,21,0,1,3,2,102,168.66622936641215,171.32000650633563,"[96, 0, 158]",158,l,2.1354920553403645,colour,0.5
144,21,0,1,3,3,103,171.84368137234924,172.8000928688689,"[3, 0, 251]",251,a,0.4366778466392134,colour,0.5
144,21,0,1,3,4,104,173.3176603661832,174.1359374950771,"[65, 0, 189]",189,l,0.29754035345285956,colour,0.5
144,21,0,1,3,5,105,174.65188392257915,175.46389614440704,"[52, 0, 202]",202,l,0.28156320597008744,colour,0.5
144,21,0,1,3,6,106,175.9803415746901,176.71194581940472,"[44, 0, 210]",210,a,0.21344479698018404,colour,0.5
144,21,0,1,3,7,107,177.22537478377853,177.9279407687245,"[71, 0, 183]",183,l,0.1793432540489448,colour,0.5
144,21,0,1,3,8,108,178.44389034699452,179.0322607070957,"[30, 0, 224]",224,a,0.07756125879495812,colour,0.5
144,21,0,1,3,9,109,179.54475349971472,180.16782838085237,"[41, 0, 213]",213,a,0.10008845779339026,colour,0.5
144,21,0,1,3,10,110,180.68541714584717,181.23184015842162,"[13, 0, 241]",241,a,0.029911022329542902,colour,0.5
144,21,0,1,3,11,111,181.74175877410016,184.23183740149943,"[20, 0, 234]",234,a,1.9667546781020064,colour,0.5
144,21,0,1,3,12,112,184.74071232548704,187.84785180680774,"[12, 0, 242]",242,a,2.582618634267419,colour,0.5
144,21,0,1,3,13,113,188.35872943730465,189.71982470705734,"[77, 0, 177]",177,l,0.8437459630786179,colour,0.5
144,21,0,1,3,14,114,190.23030849163297,190.95181058846902,"[8, 0, 246]",246,a,0.20265460027803783,colour,0.5
144,21,0,1,3,15,115,191.4682658649017,192.56782735685374,"[87, 0, 167]",167,l,0.5820609484453598,colour,0.5
144,21,0,1,3,16,116,193.07845174442264,193.8078067350816,"[73, 0, 181]",181,l,0.20113199194747722,colour,0.5
144,21,0,1,3,17,117,194.32033773075455,194.83985791614577,"[99, 0, 155]",155,l,0.0023650447565159993,colour,0.5
144,21,0,1,3,18,118,195.37622840542826,195.92780095342277,"[17, 0, 237]",237,a,0.033309912629192695,colour,0.5
144,21,0,1,3,19,119,196.43849899017914,197.11187350929322,"[81, 0, 173]",173,l,0.14353202597521886,colour,0.5
144,21,0,1,3,20,120,197.62470540325194,201.41581779742592,"[83, 0, 171]",171,l,3.2732944108538504,colour,0.5
144,21,0,1,3,21,121,201.9359929485836,202.49583862399777,"[21, 0, 233]",233,a,0.04208913205911813,colour,0.5
144,21,0,1,3,22,122,203.00986150802055,204.16779647933254,"[59, 0, 195]",195,l,0.640142587977607,colour,0.5
144,21,0,1,3,23,123,204.68587440096053,205.40785895904992,"[39, 0, 215]",215,a,0.18985460783915187,colour,0.5
144,21,0,1,3,24,124,205.9254949855549,206.47185380124392,"[22, 0, 232]",232,a,0.025453080348597723,colour,0.5
144,21,0,1,3,25,125,206.9949505014447,207.59183659805421,"[46, 0, 208]",208,a,0.06516968457617622,colour,0.5
144,21,0,1,3,26,126,208.107349401198,210.0878969573041,"[24, 0, 230]",230,a,1.4637338798856945,colour,0.5
144,21,0,1,3,27,127,210.600994697259,211.93579366254744,"[68, 0, 186]",186,l,0.816743886723998,colour,0.5
144,21,0,1,3,28,128,212.45502594657046,213.00779933077683,"[95, 0, 159]",159,l,0.035005419318622444,colour,0.5
144,21,0,1,3,29,129,213.5220285900632,215.19191836046775,"[43, 0, 211]",211,a,1.1518079103170749,colour,0.5
144,21,0,1,3,30,130,215.7050527280917,216.3598337812673,"[35, 0, 219]",219,a,0.13140747929173813,colour,0.5
144,21,0,1,3,31,131,216.87728391249766,217.91988622579083,"[88, 0, 166]",166,l,0.51933704703697,colour,0.5
144,21,0,1,3,32,132,218.435816505611,219.055785517814,"[79, 0, 175]",175,l,0.09675927822354424,colour,0.5
144,21,0,1,3,33,133,219.5679620521587,220.4798563565164,"[50, 0, 204]",204,l,0.38893190561611846,colour,0.5
144,21,0,1,3,34,134,220.9898324736987,221.56779584917967,"[38, 0, 216]",216,a,0.05469417076528771,colour,0.5
144,21,0,1,3,35,135,222.08358079985373,223.55177931710386,"[26, 0, 228]",228,a,0.9450750355263153,colour,0.5
144,21,0,1,3,36,136,224.06928970675835,224.82384414099033,"[82, 0, 172]",172,l,0.24272172737619258,colour,0.5
144,21,0,1,3,37,137,225.34735634863864,226.4557829184305,"[66, 0, 188]",188,l,0.5895180271163554,colour,0.5
144,21,0,1,3,38,138,226.97515147314152,230.18381419294747,"[49, 0, 205]",205,l,2.6853935150902544,colour,0.5
144,21,0,1,3,39,139,230.69436926363414,234.5918428995883,"[78, 0, 176]",176,l,3.374094548227731,colour,0.5
144,21,0,1,3,40,140,235.10916109243408,235.6637879155478,"[5, 0, 249]",249,a,0.026555848928182968,colour,0.5
144,21,0,1,3,41,141,236.18643405601506,236.8958080615539,"[64, 0, 190]",190,l,0.1925339416411589,colour,0.5
144,21,0,1,3,42,142,237.40910429985342,238.11177544165912,"[75, 0, 179]",179,l,0.18215098162181675,colour,0.5
144,21,0,1,3,43,143,238.6321742973014,239.15177837187366,"[25, 0, 229]",229,a,0.0013335622898011934,colour,0.5
144,21,0,1,3,44,144,239.66916588160166,240.20784982182522,"[54, 0, 200]",200,a,0.01939376085101685,colour,0.5
144,21,0,1,3,45,145,240.72333623729173,244.5678289322368,"[16, 0, 238]",238,a,3.3257621706270584,colour,0.5
144,21,0,1,3,46,146,245.08932937491954,246.54380984488853,"[84, 0, 170]",170,l,0.9236525743344828,colour,0.5
144,21,0,1,3,47,147,247.05525815812507,247.60782162245596,"[1, 0, 253]",253,a,0.027535343731869943,colour,0.5
144,21,0,1,3,48,148,248.12789988751865,251.03984539184603,"[62, 0, 192]",192,a,2.3801436277317407,colour,0.5
144,21,0,1,3,49,149,251.56166406203192,255.16779923625472,"[0, 0, 254]",254,a,3.0883510616513377,colour,0.5
144,21,0,1,3,50,150,255.71683147805743,257.16778269472525,"[92, 0, 162]",162,l,0.920369080889941,colour,0.5
144,21,0,1,4,1,151,262.0457857698748,268.5438334756436,"[73, 0, 181]",181,l,5.975584703654022,colour,0.5
144,21,0,1,4,2,152,269.05421328489683,270.5838033227992,"[51, 0, 203]",203,a,1.00633816240952,colour,0.5
144,21,0,1,4,3,153,271.0918574718871,271.6477863496166,"[35, 0, 219]",219,a,0.032638011487506446,colour,0.5
144,21,0,1,4,4,154,272.1543726349555,272.9277981965006,"[53, 0, 201]",201,a,0.2501413906848029,colour,0.5
144,21,0,1,4,5,155,273.43565581647454,274.10376185870155,"[70, 0, 184]",184,l,0.14486086211400107,colour,0.5
144,21,0,1,4,6,156,274.6256742642181,275.3517709675689,"[39, 0, 215]",215,a,0.2073393975097133,colour,0.5
144,21,0,1,4,7,157,275.8868413714663,278.9917946140795,"[97, 0, 157]",157,l,2.5794631407479756,colour,0.5
144,21,0,1,4,8,158,279.5124148111281,280.7437410006205,"[18, 0, 236]",236,a,0.7137579044865561,colour,0.5
144,21,0,1,4,9,159,281.2659456398105,299.41582252357694,"[86, 0, 168]",168,l,17.63111248869791,colour,0.5
144,21,0,1,4,10,160,299.92843583304784,301.08781582504525,"[58, 0, 196]",196,a,0.6410515843635949,colour,0.5
144,21,0,1,4,11,161,301.6028103269564,302.311730228148,"[72, 0, 182]",182,l,0.19136579463884118,colour,0.5
144,21,0,1,4,12,162,302.8261875242224,305.3437648676845,"[11, 0, 243]",243,a,1.999220578922177,colour,0.5
144,21,0,1,4,13,163,305.8544625105951,308.77582211397566,"[3, 0, 251]",251,a,2.4035573738983658,colour,0.5
144,21,0,1,4,14,164,309.2867950551863,310.7357640453338,"[2, 0, 252]",252,a,0.9256820623668318,colour,0.5
144,21,0,1,4,15,165,311.2434082008185,312.13580004285177,"[20, 0, 234]",234,a,0.3708098732458893,colour,0.5
144,21,0,1,4,16,166,312.6480242325524,313.49579923940473,"[49, 0, 205]",205,a,0.32496108802297385,colour,0.5
144,21,0,1,4,17,167,314.0112167318348,314.8958104246285,"[55, 0, 199]",199,a,0.3614343710905814,colour,0.5
144,21,0,1,4,18,168,315.4188311125672,316.1038347201975,"[0, 0, 254]",254,a,0.16692726138535363,colour,0.5
144,21,0,1,4,19,169,316.6167969771541,317.39178216854816,"[45, 0, 209]",209,a,0.2570427527625725,colour,0.5
144,21,0,1,4,20,170,317.91625654178097,318.663805244767,"[31, 0, 223]",223,a,0.21439751026264275,colour,0.5
144,21,0,1,4,21,171,319.1852426721034,319.83186481317534,"[85, 0, 169]",169,l,0.12990850171445345,colour,0.5
144,21,0,1,4,22,172,320.3432698033612,320.98382356647926,"[5, 0, 249]",249,a,0.12280115822068183,colour,0.5
144,21,0,1,4,23,173,321.4929986010593,322.15977541330176,"[1, 0, 253]",253,a,0.14959843469841871,colour,0.5
144,21,0,1,4,24,174,322.68075479783147,323.26372159189486,"[84, 0, 170]",170,l,0.0638294269083417,colour,0.5
144,21,0,1,4,25,175,323.77975230242373,324.4157965297454,"[23, 0, 231]",231,a,0.11746257675986271,colour,0.5
144,21,0,1,4,26,176,324.92387509727996,325.5677993937934,"[66, 0, 188]",188,l,0.13096243340078217,colour,0.5
144,21,0,1,4,27,177,326.08225944678816,326.7917787814731,"[25, 0, 229]",229,a,0.18553529962264292,colour,0.5
144,21,0,1,4,28,178,327.31113985311094,328.0157967660525,"[28, 0, 226]",226,a,0.18740449236429413,colour,0.5
144,21,0,1,4,29,179,328.52609819996724,329.1998279681029,"[94, 0, 160]",160,l,0.1550260253388842,colour,0.5
144,21,0,1,4,30,180,329.7087690582048,330.3277609386769,"[79, 0, 175]",175,l,0.09466519945999607,colour,0.5
144,21,0,1,4,31,181,330.8461590570387,331.4878112564311,"[54, 0, 200]",200,a,0.11855195457792433,colour,0.5
144,21,0,1,4,32,182,331.99800044425865,332.6718026800427,"[93, 0, 161]",161,l,0.15592517557524843,colour,0.5
144,21,0,1,4,33,183,333.18985697091557,333.9438139408867,"[60, 0, 194]",194,a,0.2348956150781305,colour,0.5
144,21,0,1,4,34,184,334.4614928965948,335.3038135312854,"[7, 0, 247]",247,a,0.3110780193001119,colour,0.5
144,21,0,1,4,35,185,335.8151263615255,336.4957303163683,"[10, 0, 244]",244,a,0.15781799907381355,colour,0.5
144,21,0,1,4,36,186,337.0150149819001,337.5438102387343,"[15, 0, 239]",239,a,0.010046221757875173,colour,0.5
144,21,0,1,4,37,187,338.0658994810692,341.22380176316983,"[30, 0, 224]",224,a,2.625652208846077,colour,0.5
144,21,0,1,4,38,188,341.7370597984136,350.0237654505763,"[42, 0, 212]",212,a,7.769129096392135,colour,0.5
144,21,0,1,4,39,189,350.54324467599145,351.69570912745803,"[16, 0, 238]",238,a,0.634132893064816,colour,0.5
144,21,0,1,4,40,190,352.2151816574933,353.9997479386111,"[48, 0, 206]",206,a,1.2651752771889733,colour,0.5
144,21,0,1,4,41,191,354.50855197033343,356.519756492944,"[99, 0, 155]",155,l,1.4898726459832687,colour,0.5
144,21,0,1,4,42,192,357.02868576766923,357.55969365089004,"[19, 0, 235]",235,a,0.007692598534049466,colour,0.5
144,21,0,1,4,43,193,358.09110877079183,358.74370200987505,"[64, 0, 190]",190,l,0.1296091788153717,colour,0.5
144,21,0,1,4,44,194,359.26298273694556,359.9357432502693,"[56, 0, 198]",198,l,0.14936803483578842,colour,0.5
144,21,0,1,4,45,195,360.45061723532854,360.9918639309617,"[87, 0, 167]",167,l,0.012903180069770315,colour,0.5
144,21,0,1,4,46,196,361.4911262575497,363.1517354426669,"[78, 0, 176]",176,l,1.1455150401870924,colour,0.5
144,21,0,1,4,47,197,363.67044509315383,364.2877450115484,"[81, 0, 173]",173,l,0.09406379673782794,colour,0.5
144,21,0,1,4,48,198,364.7953730193494,365.34371681848097,"[98, 0, 156]",156,l,0.025006459072756115,colour,0.5
144,21,0,1,4,49,199,365.85370829565545,366.4397994694118,"[41, 0, 213]",213,a,0.06704439116219874,colour,0.5
144,21,0,1,4,50,200,366.9641899534636,369.3357638877951,"[57, 0, 197]",197,a,1.8462425523739512,colour,0.5
144,21,0,1,5,1,201,373.46919258435446,375.13574687365144,"[93, 0, 161]",161,l,1.1378279554992332,colour,0.5
144,21,0,1,5,2,202,375.6464925657656,376.8476982068987,"[40, 0, 214]",214,a,0.6822608646343724,colour,0.5
144,21,0,1,5,3,203,377.3671211123474,378.95173339466965,"[29, 0, 225]",225,a,1.0614222406384215,colour,0.5
144,21,0,1,5,4,204,379.4608820415724,380.11969410775055,"[28, 0, 226]",226,a,0.13550544610188808,colour,0.5
144,21,0,1,5,5,205,380.6327512815751,381.25616920251014,"[96, 0, 158]",158,l,0.0963563738459925,colour,0.5
144,21,0,1,5,6,206,381.7687545489207,382.343751476923,"[58, 0, 196]",196,a,0.05176986480000778,colour,0.5
144,21,0,1,5,7,207,382.8523483456902,383.519707262205,"[36, 0, 218]",218,a,0.14468441914141295,colour,0.5
144,21,0,1,5,8,208,384.03983633338976,386.0397103026953,"[19, 0, 235]",235,a,1.4765055154184665,colour,0.5
144,21,0,1,5,9,209,386.5623434462468,387.11174787244454,"[91, 0, 163]",163,l,0.022760749630833743,colour,0.5
144,21,0,1,5,10,210,387.62815785659586,389.16768580862845,"[5, 0, 249]",249,a,1.0162544150116446,colour,0.5
144,21,0,1,5,11,211,389.6815791173449,390.7117737087374,"[41, 0, 213]",213,a,0.5069864327961113,colour,0.5
144,21,0,1,5,12,212,391.22503804551707,391.7917263999643,"[39, 0, 215]",215,a,0.04326003597998351,colour,0.5
144,21,0,1,5,13,213,392.3032499377732,393.45570493693776,"[89, 0, 165]",165,l,0.6291999729037343,colour,0.5
144,21,0,1,5,14,214,393.9751309931544,396.0477199471934,"[64, 0, 190]",190,l,1.5496793306501786,colour,0.5
144,21,0,1,5,15,215,396.5662649700844,397.44780950775566,"[44, 0, 210]",210,a,0.3510998541187291,colour,0.5
144,21,0,1,5,16,216,397.9721294933879,399.4397147925374,"[13, 0, 241]",241,a,0.9506199922489031,colour,0.5
144,21,0,1,5,17,217,399.96261732670064,401.615707599336,"[90, 0, 164]",164,l,1.135640929098372,colour,0.5
144,21,0,1,5,18,218,402.1345606097366,403.2797030716829,"[14, 0, 240]",240,a,0.6275269154302805,colour,0.5
144,21,0,1,5,19,219,403.79087175431596,405.3996756284996,"[60, 0, 194]",194,a,1.0916325858652272,colour,0.5
144,21,0,1,5,20,220,405.9129332698976,406.6157005101104,"[65, 0, 189]",189,l,0.18548725042091974,colour,0.5
144,21,0,1,5,21,221,407.1384726812721,407.81573997347186,"[16, 0, 238]",238,a,0.1445835945851286,colour,0.5
144,21,0,1,5,22,222,408.3275939480063,409.1517118119118,"[63, 0, 191]",191,l,0.29195679982876754,colour,0.5
144,21,0,1,5,23,223,409.6723292520401,410.69567761978396,"[47, 0, 207]",207,a,0.5056469628161722,colour,0.5
144,21,0,1,5,24,224,411.2048227220748,411.79178075070195,"[35, 0, 219]",219,a,0.065131087676491,colour,0.5
144,21,0,1,5,25,225,412.30769409514687,412.9117060460085,"[20, 0, 234]",234,a,0.08538028186740121,colour,0.5
144,21,0,1,5,26,226,413.42261124571996,417.2317101892677,"[53, 0, 201]",201,a,3.2912080987334775,colour,0.5
144,21,0,1,5,27,227,417.74653297435725,421.42373370659516,"[0, 0, 254]",254,a,3.153950038282346,colour,0.5
144,21,0,1,5,28,228,421.934671595518,422.4796535258665,"[70, 0, 184]",184,l,0.02208727310608083,colour,0.5
144,21,0,1,5,29,229,422.9971032632511,425.04773018718697,"[78, 0, 176]",176,l,1.5273770176718244,colour,0.5
144,21,0,1,5,30,230,425.55966608167546,428.9116808398685,"[92, 0, 162]",162,l,2.8287841503788513,colour,0.5
144,21,0,1,5,31,231,429.41986220118997,430.76767147263854,"[57, 0, 197]",197,a,0.824472325235547,colour,0.5
144,21,0,1,5,32,232,431.26719688830235,432.35971011364927,"[9, 0, 245]",245,a,0.5699797248125833,colour,0.5
144,21,0,1,5,33,233,432.87662579596326,434.03969376116584,"[61, 0, 193]",193,a,0.6401004464642028,colour,0.5
144,21,0,1,5,34,234,434.5609007886378,436.3996953207952,"[38, 0, 216]",216,a,1.3155883427898516,colour,0.5
144,21,0,1,5,35,235,436.9210795789313,437.51168304540624,"[50, 0, 204]",204,a,0.06087597634359554,colour,0.5
144,21,0,1,5,36,236,438.0303414959217,438.90364717076955,"[15, 0, 239]",239,a,0.35631398026998795,colour,0.5
144,21,0,1,5,37,237,439.4215738555631,441.3437116984842,"[62, 0, 192]",192,a,1.3992250687642809,colour,0.5
144,21,0,1,5,38,238,441.8596947536571,442.4636755906904,"[27, 0, 227]",227,a,0.08601594918400224,colour,0.5
144,21,0,1,5,39,239,442.97296444674066,444.15170629806926,"[54, 0, 200]",200,a,0.6560094586038758,colour,0.5
144,21,0,1,5,40,240,444.66524750853205,445.7197628732483,"[75, 0, 179]",179,l,0.5371247042221512,colour,0.5
144,21,0,1,5,41,241,446.2271423642742,447.38370084409144,"[12, 0, 242]",242,a,0.6442901793743658,colour,0.5
144,21,0,1,5,42,242,447.89308698008426,448.57566055837924,"[67, 0, 187]",187,l,0.15919527826008562,colour,0.5
144,21,0,1,5,43,243,449.09622286007834,449.67964021387525,"[55, 0, 199]",199,a,0.060048506064049434,colour,0.5
144,21,0,1,5,44,244,450.18997906315053,450.80772402743787,"[45, 0, 209]",209,a,0.09435563656552404,colour,0.5
144,21,0,1,5,45,245,451.314938497022,451.9997034340213,"[66, 0, 188]",188,l,0.16116647709532117,colour,0.5
144,21,0,1,5,46,246,452.5191763579023,453.16765469480197,"[8, 0, 246]",246,a,0.12509924917321769,colour,0.5
144,21,0,1,5,47,247,453.67537998254556,454.4476972616685,"[48, 0, 206]",206,a,0.24899451136298012,colour,0.5
144,21,0,1,5,48,248,454.9566864009739,456.58365878134646,"[23, 0, 231]",231,a,1.1036141664808383,colour,0.5
144,21,0,1,5,49,249,457.0948554270399,458.391709700898,"[69, 0, 185]",185,a,0.7676679280230019,colour,0.5
144,21,0,1,5,50,250,458.91448896128713,459.527707454401,"[99, 0, 155]",155,l,0.08091918911850371,colour,0.5
144,21,0,1,6,1,251,489.38319041977775,490.9037212138028,"[3, 0, 251]",251,a,1.0013292299845489,colour,0.5
144,21,0,1,6,2,252,491.416055286516,493.7276712993462,"[30, 0, 224]",224,a,1.7822792178540112,colour,0.5
144,21,0,1,6,3,253,494.2494521603239,495.1996141097661,"[27, 0, 227]",227,a,0.4163774524786277,colour,0.5
144,21,0,1,6,4,254,495.71918391974395,497.26365936423826,"[66, 0, 188]",188,l,1.0269485133103444,colour,0.5
144,21,0,1,6,5,255,497.77568466175035,498.6956701367126,"[51, 0, 203]",203,a,0.39041119089597487,colour,0.5
144,21,0,1,6,6,256,499.2097001099628,499.943641042526,"[82, 0, 172]",172,l,0.21624070917459903,colour,0.5
144,21,0,1,6,7,257,500.4616543734228,501.6796658138592,"[62, 0, 192]",192,l,0.7009512166678178,colour,0.5
144,21,0,1,6,8,258,502.2037416150215,503.24764401369976,"[54, 0, 200]",200,a,0.5247941761208494,colour,0.5
144,21,0,1,6,9,259,503.76752968810615,504.695634690579,"[11, 0, 243]",243,a,0.40869706316880183,colour,0.5
144,21,0,1,6,10,260,505.2090920118608,506.2156570295192,"[15, 0, 239]",239,a,0.4774755579219345,colour,0.5
144,21,0,1,6,11,261,506.7238407539153,507.7676356326592,"[6, 0, 248]",248,a,0.5301701729458728,colour,0.5
144,21,0,1,6,12,262,508.282721112977,509.11169076478654,"[61, 0, 193]",193,a,0.3020680061636085,colour,0.5
144,21,0,1,6,13,263,509.6300684031594,510.24766291830383,"[70, 0, 184]",184,l,0.09433397503926244,colour,0.5
144,21,0,1,6,14,264,510.7550534370148,511.3916136024927,"[2, 0, 252]",252,a,0.11326181616459507,colour,0.5
144,21,0,1,6,15,265,511.912603227016,512.6476280235547,"[45, 0, 209]",209,a,0.21286938808771083,colour,0.5
144,21,0,1,6,16,266,513.1612704524196,513.695645718266,"[13, 0, 241]",241,a,0.01102453502608114,colour,0.5
144,21,0,1,6,17,267,514.208073526308,514.7357278115087,"[12, 0, 242]",242,a,0.004192095984763,colour,0.5
144,21,0,1,6,18,268,515.2550522554775,515.935746794883,"[52, 0, 202]",202,a,0.1579393036172405,colour,0.5
144,21,0,1,6,19,269,516.4425973508351,517.2156231587705,"[41, 0, 213]",213,a,0.24721826625864196,colour,0.5
144,21,0,1,6,20,270,517.737305952116,519.5516347756493,"[56, 0, 198]",198,a,1.2968302492572548,colour,0.5
144,21,0,1,6,21,271,520.0590591651107,520.759697668118,"[89, 0, 165]",165,l,0.17742010441725142,colour,0.5
144,21,0,1,6,22,272,521.2778653866153,523.1516125627404,"[44, 0, 210]",210,a,1.3504799406400707,colour,0.5
144,21,0,1,6,23,273,523.6698050935302,525.4076502207117,"[16, 0, 238]",238,a,1.214601916297397,colour,0.5
144,21,0,1,6,24,274,525.9197960350757,526.9116548460388,"[95, 0, 159]",159,l,0.4689665167952626,colour,0.5
144,21,0,1,6,25,275,527.4235934974477,528.0716193053831,"[79, 0, 175]",175,l,0.13091792881277797,colour,0.5
144,21,0,1,6,26,276,528.5846118884765,529.6236018469808,"[58, 0, 196]",196,l,0.5158916829204827,colour,0.5
144,21,0,1,6,27,277,530.1399007665823,531.0236658075573,"[68, 0, 186]",186,l,0.36041273477167124,colour,0.5
144,21,0,1,6,28,278,531.5304757973809,532.0956387865772,"[99, 0, 155]",155,l,0.04176932917107479,colour,0.5
144,21,0,1,6,29,279,532.6041659446164,534.1117399955256,"[46, 0, 208]",208,l,0.9842457693066535,colour,0.5
144,21,0,1,6,30,280,534.6200158798674,535.5596239401602,"[21, 0, 233]",233,a,0.4165172677803639,colour,0.5
144,21,0,1,6,31,281,536.0742824915014,536.9038322783526,"[47, 0, 207]",207,a,0.31809517208057514,colour,0.5
144,21,0,1,6,32,282,537.420186730229,538.319671737303,"[50, 0, 204]",204,a,0.36853462535873405,colour,0.5
144,21,0,1,6,33,283,538.8386602307,540.4479855568825,"[55, 0, 199]",199,a,1.0879993572434614,colour,0.5
144,21,0,1,6,34,284,540.9703985405649,541.5276436513614,"[22, 0, 232]",232,a,0.02512933899924974,colour,0.5
144,21,0,1,6,35,285,542.0413628801798,543.5198021790711,"[74, 0, 180]",180,l,0.9600955312671431,colour,0.5
144,21,0,1,6,36,286,544.0424231134002,544.9356857487637,"[36, 0, 218]",218,a,0.3759538948197587,colour,0.5
144,21,0,1,6,37,287,545.4574130466972,546.1196511785456,"[98, 0, 156]",156,l,0.14287430328658957,colour,0.5
144,21,0,1,6,38,288,546.6406979107269,547.231725549258,"[84, 0, 170]",170,l,0.068250741218435,colour,0.5
144,21,0,1,6,39,289,547.7414649650436,549.1036208618607,"[37, 0, 217]",217,a,0.8095786478788796,colour,0.5
144,21,0,1,6,40,290,549.6148860367448,550.9757146728098,"[35, 0, 219]",219,a,0.8375952713286097,colour,0.5
144,21,0,1,6,41,291,551.494574772436,552.6796232785,"[32, 0, 222]",222,a,0.6700851179812162,colour,0.5
144,21,0,1,6,42,292,553.1885828793602,554.2876213439285,"[5, 0, 249]",249,a,0.5858840108012373,colour,0.5
144,21,0,1,6,43,293,554.8033995992228,556.3676228720506,"[90, 0, 164]",164,l,1.0410009357783565,colour,0.5
144,21,0,1,6,44,294,556.8897243236097,557.6076313948761,"[53, 0, 201]",201,a,0.2021650497972587,colour,0.5
144,21,0,1,6,45,295,558.1247310032359,558.8076535290184,"[73, 0, 181]",181,l,0.1573363255138247,colour,0.5
144,21,0,1,6,46,296,559.3145824603089,560.9836329450536,"[7, 0, 247]",247,a,1.1404194616588939,colour,0.5
144,21,0,1,6,47,297,561.4917170264325,564.5036210193994,"[9, 0, 245]",245,a,2.4884709483485494,colour,0.5
144,21,0,1,6,48,298,565.0138972471759,566.055584656393,"[1, 0, 253]",253,a,0.5183583399229974,colour,0.5
144,21,0,1,6,49,299,566.5764762132821,569.1356062706582,"[72, 0, 182]",182,l,2.035899449561839,colour,0.5
144,21,0,1,6,50,300,569.6455142524974,570.9677101483067,"[91, 0, 163]",163,l,0.8047938137824531,colour,0.5
144,21,0,1,7,1,301,593.6777930765038,594.7516565159458,"[31, 0, 223]",223,a,0.5555334564232908,colour,0.5
144,21,0,1,7,2,302,595.272164860753,596.3116089236046,"[70, 0, 184]",184,l,0.5213346335513052,colour,0.5
144,21,0,1,7,3,303,596.8218595513936,597.7675982172968,"[1, 0, 253]",253,a,0.42005439799868327,colour,0.5
144,21,0,1,7,4,304,598.2777094236299,599.3995881947048,"[36, 0, 218]",218,a,0.5904711342445808,colour,0.5
144,21,0,1,7,5,305,599.916194707972,600.7836423185872,"[53, 0, 201]",201,a,0.33479266375252337,colour,0.5
144,21,0,1,7,6,306,601.3107976010069,602.5115952177657,"[68, 0, 186]",186,l,0.6803262934681698,colour,0.5
144,21,0,1,7,7,307,603.0312571876893,604.4076139868866,"[48, 0, 206]",206,a,0.8576892902256077,colour,0.5
144,21,0,1,7,8,308,604.9273326706225,605.6155721163395,"[91, 0, 163]",163,l,0.16994333344882762,colour,0.5
144,21,0,1,7,9,309,606.1353396369686,606.9195754813591,"[7, 0, 247]",247,a,0.2655454923551588,colour,0.5
144,21,0,1,7,10,310,607.4412535485517,608.4075868115178,"[52, 0, 202]",202,l,0.448089138359137,colour,0.5
144,21,0,1,7,11,311,608.9202339917392,609.7915987938868,"[95, 0, 159]",159,l,0.35397847395688586,colour,0.5
144,21,0,1,7,12,312,610.3032613593041,611.0955749835375,"[29, 0, 225]",225,a,0.2739422873946751,colour,0.5
144,21,0,1,7,13,313,611.6167898879285,612.5116105777561,"[49, 0, 205]",205,a,0.3614859649060236,colour,0.5
144,21,0,1,7,14,314,613.0254262988256,614.2556162428373,"[62, 0, 192]",192,a,0.7115882073085231,colour,0.5
144,21,0,1,7,15,315,614.7765200089489,616.2636191919555,"[97, 0, 157]",157,l,0.969049618284771,colour,0.5
144,21,0,1,7,16,316,616.7753936096142,617.591588475123,"[76, 0, 178]",178,l,0.2847131856451597,colour,0.5
144,21,0,1,7,17,317,618.1048914088024,618.9435961440922,"[33, 0, 221]",221,a,0.32053307833120925,colour,0.5
144,21,0,1,7,18,318,619.4539093933836,620.143571804414,"[98, 0, 156]",156,l,0.16875667568820063,colour,0.5
144,21,0,1,7,19,319,620.6547948377829,621.3595376091343,"[42, 0, 212]",212,a,0.18139912975675543,colour,0.5
144,21,0,1,7,20,320,621.8735829423767,622.6956614721021,"[44, 0, 210]",210,l,0.2988577680589515,colour,0.5
144,21,0,1,7,21,321,623.2082917169482,624.135551132229,"[81, 0, 173]",173,l,0.403797226064853,colour,0.5
144,21,0,1,7,22,322,624.6457627692726,625.4475432679137,"[57, 0, 197]",197,a,0.2783994416840869,colour,0.5
144,21,0,1,7,23,323,625.9679322774064,626.5355386866977,"[17, 0, 237]",237,a,0.044887013482366456,colour,0.5
144,21,0,1,7,24,324,627.0459941143672,627.9996030033126,"[51, 0, 203]",203,a,0.43031369039999845,colour,0.5
144,21,0,1,7,25,325,628.5223574514075,630.5676619415663,"[60, 0, 194]",194,a,1.5189471395751752,colour,0.5
144,21,0,1,7,26,326,631.0855606632995,632.0715818900189,"[63, 0, 191]",191,a,0.46604772467253497,colour,0.5
144,21,0,1,7,27,327,632.5901115529196,633.5195906838107,"[37, 0, 217]",217,a,0.41202269812674785,colour,0.5
144,21,0,1,7,28,328,634.0306920187923,635.751612011356,"[75, 0, 179]",179,l,1.2017975915532588,colour,0.5
144,21,0,1,7,29,329,636.2625191802963,637.4475503571393,"[50, 0, 204]",204,a,0.6565135813816596,colour,0.5
144,21,0,1,7,30,330,637.96758136069,639.0875350129027,"[96, 0, 158]",158,l,0.5963989092033444,colour,0.5
144,21,0,1,7,31,331,639.5968640412375,640.2955813638418,"[21, 0, 233]",233,a,0.17522913955690456,colour,0.5
144,21,0,1,7,32,332,640.8126652183637,641.6796224908085,"[85, 0, 169]",169,l,0.3437042154127994,colour,0.5
144,21,0,1,7,33,333,642.1939415469642,642.8555467684164,"[86, 0, 168]",168,l,0.13821510603884235,colour,0.5
144,21,0,1,7,34,334,643.3539694155024,644.1916115544955,"[54, 0, 200]",200,a,0.31430440508847823,colour,0.5
144,21,0,1,7,35,335,644.69771065243,645.6555561419482,"[39, 0, 215]",215,a,0.4345873124893842,colour,0.5
144,21,0,1,7,36,336,646.1664467693608,647.7756444894658,"[92, 0, 162]",162,l,1.0888256459857075,colour,0.5
144,21,0,1,7,37,337,648.2819062457675,649.159564311889,"[45, 0, 209]",209,a,0.3586065573781525,colour,0.5
144,21,0,1,7,38,338,649.6684868912325,650.455525737043,"[24, 0, 230]",230,a,0.2639567179085134,colour,0.5
144,21,0,1,7,39,339,650.9654545927169,651.7275629917167,"[38, 0, 216]",216,l,0.2389601049835619,colour,0.5
144,21,0,1,7,40,340,652.2466641250485,653.1755650901287,"[40, 0, 214]",214,a,0.4054832804540638,colour,0.5
144,21,0,1,7,41,341,653.6957890781796,654.7115303119572,"[16, 0, 238]",238,a,0.49240980140712054,colour,0.5
144,21,0,1,7,42,342,655.2269923089771,656.1116588632667,"[19, 0, 235]",235,a,0.3717507711498911,colour,0.5
144,21,0,1,7,43,343,656.6231749180024,657.1755733608934,"[55, 0, 199]",199,a,0.02906307206285419,colour,0.5
144,21,0,1,7,44,344,657.685662905702,658.2875618731941,"[0, 0, 254]",254,a,0.0786124335572822,colour,0.5
144,21,0,1,7,45,345,658.8043015063831,667.1995849651685,"[23, 0, 231]",231,l,7.867343241445269,colour,0.5
144,21,0,1,7,46,346,667.7239151907961,668.3355811432884,"[77, 0, 177]",177,l,0.08578436778407195,colour,0.5
144,21,0,1,7,47,347,668.8472929394466,671.2795805856022,"[73, 0, 181]",181,l,1.9021214116692136,colour,0.5
144,21,0,1,7,48,348,671.7959598497728,673.2955470992474,"[5, 0, 249]",249,a,0.9761880756068422,colour,0.5
144,21,0,1,7,49,349,673.8112178346037,679.6475681589764,"[30, 0, 224]",224,l,5.312972024337796,colour,0.5
144,21,0,1,7,50,350,680.1641687645533,681.7675241742636,"[18, 0, 236]",236,a,1.0858135123817192,colour,0.5
144,21,0,1,8,1,351,687.3159069641424,688.7914975754848,"[86, 0, 168]",168,l,0.9574937851102732,colour,0.5
144,21,0,1,8,2,352,689.3037654820837,690.6155551809643,"[57, 0, 197]",197,a,0.7479330966052657,colour,0.5
144,21,0,1,8,3,353,691.1255143627732,691.735570666986,"[37, 0, 217]",217,a,0.0867492902889353,colour,0.5
144,21,0,1,8,4,354,692.2505029412423,692.8635296313914,"[2, 0, 252]",252,a,0.08983664846527972,colour,0.5
144,21,0,1,8,5,355,693.3754202335986,693.9595969223301,"[87, 0, 167]",167,l,0.05732348613491922,colour,0.5
144,21,0,1,8,6,356,694.4727624037841,695.1195594124456,"[13, 0, 241]",241,a,0.12371409306797432,colour,0.5
144,21,0,1,8,7,357,695.6289640591967,696.2635577519904,"[65, 0, 189]",189,l,0.11185696776374243,colour,0.5
144,21,0,1,8,8,358,696.7696064376487,697.5035434317524,"[28, 0, 226]",226,a,0.21053703254256106,colour,0.5
144,21,0,1,8,9,359,698.0218998024466,698.671550224808,"[1, 0, 253]",253,a,0.12692078655709338,colour,0.5
144,21,0,1,8,10,360,699.1901232107593,699.7275259702001,"[38, 0, 216]",216,l,0.00579071657921304,colour,0.5
144,21,0,1,8,11,361,700.2534233087481,704.6236404438805,"[42, 0, 212]",212,a,3.8494417627916846,colour,0.5
144,21,0,1,8,12,362,705.1357559321077,707.6555234527368,"[4, 0, 250]",250,a,2.000865279487698,colour,0.5
144,21,0,1,8,13,363,708.171000809747,708.8395010917411,"[64, 0, 190]",190,l,0.1376641155948164,colour,0.5
144,21,0,1,8,14,364,709.3544648736697,709.9674982592023,"[34, 0, 220]",220,a,0.09346554478361213,colour,0.5
144,21,0,1,8,15,365,710.4844828645528,711.6795634139198,"[49, 0, 205]",205,a,0.6625827470270451,colour,0.5
144,21,0,1,8,16,366,712.2023060466381,712.9355333303938,"[62, 0, 192]",192,l,0.2156928694985254,colour,0.5
144,21,0,1,8,17,367,713.4549680512191,714.3195685496703,"[70, 0, 184]",184,l,0.34750719162548194,colour,0.5
144,21,0,1,8,18,368,714.8321267207139,715.5595735278839,"[24, 0, 230]",230,a,0.20915227028672234,colour,0.5
144,21,0,1,8,19,369,716.0709162904132,717.0315443013642,"[22, 0, 232]",232,l,0.4414579545846209,colour,0.5
144,21,0,1,8,20,370,717.5455439484795,736.6635713002906,"[71, 0, 183]",183,l,18.58652204119244,colour,0.5
144,21,0,1,8,21,371,737.1834290116367,740.0714901239207,"[68, 0, 186]",186,l,2.3541001723478985,colour,0.5
144,21,0,1,8,22,372,740.5874215852782,741.5115325962652,"[67, 0, 187]",187,l,0.4008181755179976,colour,0.5
144,21,0,1,8,23,373,742.0194973423277,743.1035019203937,"[75, 0, 179]",179,l,0.5607948440847395,colour,0.5
144,21,0,1,8,24,374,743.6160569406693,744.7675340204114,"[14, 0, 240]",240,a,0.6366806823298248,colour,0.5
144,21,0,1,8,25,375,745.2794451026057,746.239553236941,"[36, 0, 218]",218,a,0.43664633896514715,colour,0.5
144,21,0,1,8,26,376,746.7552633568903,748.335504343333,"[41, 0, 213]",213,a,1.0524271936428704,colour,0.5
144,21,0,1,8,27,377,748.8423820746539,749.8155560474261,"[48, 0, 206]",206,a,0.4511666503876768,colour,0.5
144,21,0,1,8,28,378,750.332524111247,751.0315494213628,"[85, 0, 169]",169,l,0.17569309005193645,colour,0.5
144,21,0,1,8,29,379,751.5421824735422,752.3836244379818,"[30, 0, 224]",224,a,0.32343178431074193,colour,0.5
144,21,0,1,8,30,380,752.8961778828743,753.4715824414034,"[93, 0, 161]",161,l,0.052388202895599534,colour,0.5
144,21,0,1,8,31,381,753.990017187436,754.8874675864809,"[52, 0, 202]",202,a,0.3715408512744034,colour,0.5
144,21,0,1,8,32,382,755.3989257458652,756.2235536402404,"[0, 0, 254]",254,a,0.3016028741312766,colour,0.5
144,21,0,1,8,33,383,756.7411262575497,758.1994805960003,"[39, 0, 215]",215,a,0.9352489736374991,colour,0.5
144,21,0,1,8,34,384,758.7133490924225,760.7834910817528,"[96, 0, 158]",158,l,1.5574538491346175,colour,0.5
144,21,0,1,8,35,385,761.2959062867267,762.2714638150119,"[47, 0, 207]",207,a,0.4438379654857272,colour,0.5
144,21,0,1,8,36,386,762.7954498193048,763.575532558456,"[55, 0, 199]",199,a,0.26276257707650075,colour,0.5
144,21,0,1,8,37,387,764.0931248680627,764.9835191235834,"[92, 0, 162]",162,l,0.37118442071550817,colour,0.5
144,21,0,1,8,38,388,765.503767136237,766.2955648223124,"[6, 0, 248]",248,a,0.2727359373366198,colour,0.5
144,21,0,1,8,39,389,766.805673271725,767.4394784849846,"[77, 0, 177]",177,l,0.11587655923540296,colour,0.5
144,21,0,1,8,40,390,767.9502864047536,768.6875013784611,"[8, 0, 246]",246,a,0.20463288834071136,colour,0.5
144,21,0,1,8,41,391,769.2045702668383,769.791509784709,"[33, 0, 221]",221,a,0.05663149885185703,colour,0.5
144,21,0,1,8,42,392,770.3020077477377,771.079471017667,"[69, 0, 185]",185,l,0.25951649899434415,colour,0.5
144,21,0,1,8,43,393,771.6009305003736,772.2714453042536,"[58, 0, 196]",196,l,0.14942041634094494,colour,0.5
144,21,0,1,8,44,394,772.7901301424463,773.9834919482146,"[25, 0, 229]",229,a,0.676689520232685,colour,0.5
144,21,0,1,8,45,395,774.5064779777113,775.1995258882798,"[23, 0, 231]",231,a,0.1749116997434612,colour,0.5
144,21,0,1,8,46,396,775.7136547168575,776.6714935109958,"[83, 0, 171]",171,l,0.44078369036833465,colour,0.5
144,21,0,1,8,47,397,777.183303374788,778.4314522989571,"[56, 0, 198]",198,a,0.7297070889107999,colour,0.5
144,21,0,1,8,48,398,778.9495132852117,780.3034763991782,"[73, 0, 181]",181,l,0.8334149907223036,colour,0.5
144,21,0,1,8,49,399,780.8107794840944,781.6235549793164,"[82, 0, 172]",172,l,0.289338118300293,colour,0.5
144,21,0,1,8,50,400,782.142407989717,785.0475076642415,"[66, 0, 188]",188,l,2.381934051287317,colour,0.5
144,21,0,1,9,1,401,808.1974152679886,811.791523963162,"[96, 0, 158]",158,l,3.0725562648294726,colour,0.5
144,21,0,1,9,2,402,812.3150570446433,815.2954521823794,"[94, 0, 160]",160,l,2.461954484015223,colour,0.5
144,21,0,1,9,3,403,815.818886408535,817.2394528062323,"[39, 0, 215]",215,a,0.9024813868418278,colour,0.5
144,21,0,1,9,4,404,817.7551916769335,818.6554628004651,"[23, 0, 231]",231,a,0.38203290661476785,colour,0.5
144,21,0,1,9,5,405,819.1730515654599,820.5194579577364,"[68, 0, 186]",186,l,0.8314973549313436,colour,0.5
144,21,0,1,9,6,406,821.0273277869328,822.2954510008421,"[63, 0, 191]",191,l,0.7447890246166935,colour,0.5
144,21,0,1,9,7,407,822.8122000863314,824.167480614904,"[8, 0, 246]",246,a,0.8386484153215861,colour,0.5
144,21,0,1,9,8,408,824.6805748102452,825.8954788063638,"[59, 0, 195]",195,l,0.7009445212879655,colour,0.5
144,21,0,1,9,9,409,826.4056904434074,827.1914737084226,"[17, 0, 237]",237,a,0.2802312190633529,colour,0.5
144,21,0,1,9,10,410,827.7004774200268,828.4794951998065,"[37, 0, 217]",217,a,0.25580883349175565,colour,0.5
144,21,0,1,9,11,411,828.9973194846607,829.6715230494392,"[16, 0, 238]",238,a,0.15092963391180092,colour,0.5
144,21,0,1,9,12,412,830.1857519148798,831.7594637236398,"[49, 0, 205]",205,l,1.0561561268241348,colour,0.5
144,21,0,1,9,13,413,832.2716406518321,833.3674523367663,"[18, 0, 236]",236,a,0.5796632144756586,colour,0.5
144,21,0,1,9,14,414,833.8738649360548,834.8634622837399,"[35, 0, 219]",219,a,0.46629860452594585,colour,0.5
144,21,0,1,9,15,415,835.3846980619637,836.511439648626,"[20, 0, 234]",234,a,0.6035023142376303,colour,0.5
144,21,0,1,9,16,416,837.0253550127145,837.783427278715,"[84, 0, 170]",170,l,0.23469002750607615,colour,0.5
144,21,0,1,9,17,417,838.2910080250058,838.9914440912089,"[79, 0, 175]",175,l,0.17719324916652113,colour,0.5
144,21,0,1,9,18,418,839.5098248803497,840.2714086765845,"[72, 0, 182]",182,l,0.24854513316859084,colour,0.5
144,21,0,1,9,19,419,840.7898595702991,841.3594044892143,"[26, 0, 228]",228,a,0.051809643238811987,colour,0.5
144,21,0,1,9,20,420,841.8702057136015,842.5994504274022,"[58, 0, 196]",196,l,0.20616455512754328,colour,0.5
144,21,0,1,9,21,421,843.1202927535505,843.8795012650335,"[97, 0, 157]",157,l,0.23591961447164067,colour,0.5
144,21,0,1,9,22,422,844.3858236736069,844.9354872504209,"[32, 0, 222]",222,a,0.014043757857507444,colour,0.5
144,21,0,1,9,23,423,845.4449541248268,847.7114795058333,"[88, 0, 166]",166,l,1.7432211240047764,colour,0.5
144,21,0,1,9,24,424,848.2306464114336,849.087474360631,"[55, 0, 199]",199,a,0.33341262764588464,colour,0.5
144,21,0,1,9,25,425,849.6055341653464,850.3274281388731,"[42, 0, 212]",212,a,0.2001225648491527,colour,0.5
144,21,0,1,9,26,426,850.8373455730143,852.1914485022826,"[80, 0, 174]",174,l,0.8322850467720855,colour,0.5
144,21,0,1,9,27,427,852.6994861098428,853.6794488047562,"[53, 0, 201]",201,a,0.4566320502344752,colour,0.5
144,21,0,1,9,28,428,854.1995605467218,855.2154648327105,"[46, 0, 208]",208,a,0.4926323243525985,colour,0.5
144,21,0,1,9,29,429,855.7220365457506,857.0474414981272,"[76, 0, 178]",178,l,0.8020081415834284,colour,0.5
144,21,0,1,9,30,430,857.5595266602195,858.5034237025939,"[56, 0, 198]",198,a,0.4206731299418607,colour,0.5
144,21,0,1,9,31,431,859.0126999555741,860.3434080432799,"[69, 0, 185]",185,a,0.8081568641046033,colour,0.5
144,21,0,1,9,32,432,860.8655799932585,862.04741511045,"[48, 0, 206]",206,a,0.6679067561890406,colour,0.5
144,21,0,1,9,33,433,862.5615667820894,863.4314424528093,"[60, 0, 194]",194,a,0.3469262688922754,colour,0.5
144,21,0,1,9,34,434,863.9522103420786,864.9834403543991,"[90, 0, 164]",164,l,0.5082242905264138,colour,0.5
144,21,0,1,9,35,435,865.4975825737365,867.5593911772212,"[24, 0, 230]",230,l,1.5384629926611524,colour,0.5
144,21,0,1,9,36,436,868.0756613460708,869.1274284539504,"[29, 0, 225]",225,a,0.5284163770593295,colour,0.5
144,21,0,1,9,37,437,869.6383226259768,870.4234296575432,"[11, 0, 243]",243,a,0.27127319358623936,colour,0.5
144,21,0,1,9,38,438,870.9564150411334,876.8715042236036,"[30, 0, 224]",224,a,5.389269037723352,colour,0.5
144,21,0,1,9,39,439,877.3908908952271,878.0234921215069,"[28, 0, 226]",226,a,0.10934226155768556,colour,0.5
144,21,0,1,9,40,440,878.5314123629814,879.0634229779171,"[51, 0, 203]",203,a,0.008735502531635575,colour,0.5
144,21,0,1,9,41,441,879.5783548583258,880.6234482470718,"[92, 0, 162]",162,l,0.5217871625136468,colour,0.5
144,21,0,1,9,42,442,881.1449412066813,882.74340898851,"[65, 0, 189]",189,a,1.0778373447865306,colour,0.5
144,21,0,1,9,43,443,883.2518014512443,884.1114056203387,"[31, 0, 223]",223,a,0.3401596021212754,colour,0.5
144,21,0,1,9,44,444,884.6228905612461,885.2714228550376,"[71, 0, 183]",183,l,0.12512012300612696,colour,0.5
144,21,0,1,9,45,445,885.7863208646977,886.7434664900138,"[98, 0, 156]",156,l,0.4337326668410242,colour,0.5
144,21,0,1,9,46,446,887.2551767107889,887.9674080684854,"[9, 0, 245]",245,a,0.18893064530857373,colour,0.5
144,21,0,1,9,47,447,888.4738383908407,889.4714371122591,"[7, 0, 247]",247,a,0.4742448398301349,colour,0.5
144,21,0,1,9,48,448,889.9910746637343,892.5514130403972,"[43, 0, 211]",211,a,2.049497767682624,colour,0.5
144,21,0,1,9,49,449,893.0602300690334,894.1354558215153,"[34, 0, 220]",220,a,0.5518758093530778,colour,0.5
144,21,0,1,9,50,450,894.6539602782759,895.7034667105672,"[99, 0, 155]",155,l,0.526425092080899,colour,0.5
144,21,0,1,10,1,451,932.6618805197504,933.7354320332215,"[48, 0, 206]",206,a,0.5493957615872205,colour,0.5
144,21,0,1,10,2,452,934.256337374718,936.4074111562368,"[84, 0, 170]",170,l,1.6349871448674094,colour,0.5
144,21,0,1,10,3,453,936.9140088631084,937.5513921665624,"[65, 0, 189]",189,l,0.12624612849504047,colour,0.5
144,21,0,1,10,4,454,938.0609236317014,938.9033750232375,"[81, 0, 173]",173,l,0.319103023792195,colour,0.5
144,21,0,1,10,5,455,939.4203001578535,940.4633735108691,"[8, 0, 246]",246,a,0.5197182898900792,colour,0.5
144,21,0,1,10,6,456,940.9675565483976,942.1513593198124,"[95, 0, 159]",159,l,0.6665708308246394,colour,0.5
144,21,0,1,10,7,457,942.6593689643123,943.6473799006253,"[64, 0, 190]",190,l,0.46485318999475567,colour,0.5
144,21,0,1,10,8,458,944.1552576067406,944.9353761858711,"[92, 0, 162]",162,l,0.25700651893748727,colour,0.5
144,21,0,1,10,9,459,945.452102034451,946.3434186771192,"[11, 0, 243]",243,a,0.37542495974958,colour,0.5
144,21,0,1,10,10,460,946.8389879105052,948.2873862179131,"[55, 0, 199]",199,a,0.931200631412139,colour,0.5
144,21,0,1,10,11,461,948.8015721541487,950.159359905856,"[2, 0, 252]",252,a,0.8347536730070715,colour,0.5
144,21,0,1,10,12,462,950.6799292967808,951.3513664878083,"[88, 0, 166]",166,l,0.14848778919986216,colour,0.5
144,21,0,1,10,13,463,951.8725018353216,952.6314984577002,"[3, 0, 251]",251,a,0.24163156186659762,colour,0.5
144,21,0,1,10,14,464,953.1545463210077,954.3193570544117,"[33, 0, 221]",221,l,0.6327949984734005,colour,0.5
144,21,0,1,10,15,465,954.8399741006924,955.4233552206642,"[47, 0, 207]",207,a,0.06450054035667563,colour,0.5
144,21,0,1,10,16,466,955.9376085045515,957.1993510206921,"[21, 0, 233]",233,l,0.7424011367966159,colour,0.5
144,21,0,1,10,17,467,957.7116008103785,960.0394007398008,"[80, 0, 174]",174,l,1.8084837562182656,colour,0.5
144,21,0,1,10,18,468,960.5581064518265,961.2073508190424,"[43, 0, 211]",211,a,0.13041577526200854,colour,0.5
144,21,0,1,10,19,469,961.7181382588242,963.5513831081062,"[86, 0, 168]",168,a,1.2637164718962595,colour,0.5
144,21,0,1,10,20,470,964.0614576867702,964.8153646383089,"[14, 0, 240]",240,a,0.23549662395271298,colour,0.5
144,21,0,1,10,21,471,965.3303571709894,966.0233294631416,"[25, 0, 229]",229,a,0.17574862232686428,colour,0.5
144,21,0,1,10,22,472,966.5363606431347,967.3353731926418,"[50, 0, 204]",204,a,0.2805971019242861,colour,0.5
144,21,0,1,10,23,473,967.8520068812759,968.519385883932,"[97, 0, 157]",157,l,0.14898600429114595,colour,0.5
144,21,0,1,10,24,474,969.043349832853,969.6393927053432,"[99, 0, 155]",155,l,0.077816864797569,colour,0.5
144,21,0,1,10,25,475,970.1489887612133,970.9513454564367,"[60, 0, 194]",194,a,0.2743889086686977,colour,0.5
144,21,0,1,10,26,476,971.4661965984324,972.0473914796949,"[30, 0, 224]",224,a,0.052604818152758526,colour,0.5
144,21,0,1,10,27,477,972.5692704083085,973.1273693770618,"[73, 0, 181]",181,a,0.025915455458743963,colour,0.5
144,21,0,1,10,28,478,973.6486705337084,975.063426128685,"[96, 0, 158]",158,l,0.8965744857177924,colour,0.5
144,21,0,1,10,29,479,975.5877157881805,977.439357574287,"[18, 0, 236]",236,a,1.3324071390088648,colour,0.5
144,21,0,1,10,30,480,977.9522394866781,981.4633711477927,"[52, 0, 202]",202,l,2.9921463184855384,colour,0.5
144,21,0,1,10,31,481,981.9743657505296,982.8394085379496,"[51, 0, 203]",203,a,0.3510592879883916,colour,0.5
144,21,0,1,10,32,482,983.3556865837181,984.3833668627503,"[62, 0, 192]",192,a,0.504282680547476,colour,0.5
144,21,0,1,10,33,483,984.90259835908,985.7913561848,"[56, 0, 198]",198,a,0.3657119316412718,colour,0.5
144,21,0,1,10,34,484,986.3009947760274,987.3594233938184,"[41, 0, 213]",213,a,0.5352078561245435,colour,0.5
144,21,0,1,10,35,485,987.8715912635525,994.2393535570591,"[26, 0, 228]",228,l,5.844480879568437,colour,0.5
144,21,0,1,10,36,486,994.760703156755,995.7353134856003,"[16, 0, 238]",238,a,0.4514080779372307,colour,0.5
144,21,0,1,10,37,487,996.2489744252216,996.9993950526659,"[24, 0, 230]",230,a,0.22715378580505785,colour,0.5
144,21,0,1,10,38,488,997.5118819375966,999.1514325751541,"[10, 0, 244]",244,a,1.1164413342867192,colour,0.5
144,21,0,1,10,39,489,999.6681627560392,1000.2393464678335,"[29, 0, 225]",225,a,0.04807913467448088,colour,0.5
144,21,0,1,10,40,490,1000.7462029314738,1003.4313849513055,"[38, 0, 216]",216,a,2.1618746120620926,colour,0.5
144,21,0,1,10,41,491,1003.9457926227933,1005.7673985374149,"[39, 0, 215]",215,a,1.3029647933253727,colour,0.5
144,21,0,1,10,42,492,1006.2856296651062,1007.6075482933866,"[76, 0, 178]",178,l,0.7923104734654771,colour,0.5
144,21,0,1,10,43,493,1008.1162381097929,1008.8393786056604,"[70, 0, 184]",184,l,0.20493181739402644,colour,0.5
144,21,0,1,10,44,494,1009.3556771314161,1010.5273525992252,"[34, 0, 220]",220,a,0.6543297057487507,colour,0.5
144,21,0,1,10,45,495,1011.0509857175712,1011.9593476178634,"[15, 0, 239]",239,a,0.3881839922123618,colour,0.5
144,21,0,1,10,46,496,1012.4835726866277,1013.63941042841,"[67, 0, 187]",187,l,0.6254934889384458,colour,0.5
144,21,0,1,10,47,497,1014.1529705434768,1014.9753546976372,"[20, 0, 234]",234,a,0.3052290135256044,colour,0.5
144,21,0,1,10,48,498,1015.4842122924038,1016.5353598806487,"[66, 0, 188]",188,l,0.5317943935242511,colour,0.5
144,21,0,1,10,49,499,1017.0488128696252,1018.0873731422289,"[35, 0, 219]",219,a,0.5198419575081061,colour,0.5
144,21,0,1,10,50,500,1018.5971889641223,1019.9353277428218,"[59, 0, 195]",195,l,0.8200805493670487,colour,0.5
144,21,0,1,11,1,501,1042.5679486613972,1043.6553942712744,"[44, 0, 210]",210,a,0.5681432212804793,colour,0.5
144,21,0,1,11,2,502,1044.1785949467994,1045.7913207386664,"[58, 0, 196]",196,l,1.0947549963293568,colour,0.5
144,21,0,1,11,3,503,1046.313524590165,1046.8712986360333,"[26, 0, 228]",228,a,0.03910771843402472,colour,0.5
144,21,0,1,11,4,504,1047.3911724950613,1048.0074515648284,"[7, 0, 247]",247,a,0.09739691476715961,colour,0.5
144,21,0,1,11,5,505,1048.5274329437943,1049.327460040393,"[62, 0, 192]",192,l,0.28012015451349725,colour,0.5
144,21,0,1,11,6,506,1049.8456116112084,1050.5033662010883,"[71, 0, 183]",183,l,0.14044427395310777,colour,0.5
144,21,0,1,11,7,507,1051.021778891749,1051.6475015990145,"[66, 0, 188]",188,l,0.09993446403859707,colour,0.5
144,21,0,1,11,8,508,1052.1569066396132,1052.9913641404873,"[50, 0, 204]",204,a,0.31654184376566263,colour,0.5
144,21,0,1,11,9,509,1053.5079596260675,1054.3273367666206,"[81, 0, 173]",173,l,0.3013898034878366,colour,0.5
144,21,0,1,11,10,510,1054.8393396149131,1056.0633000979888,"[57, 0, 197]",197,a,0.7058998906686611,colour,0.5
144,21,0,1,11,11,511,1056.5734577781423,1058.4553016387144,"[39, 0, 215]",215,a,1.35502728564461,colour,0.5
144,21,0,1,11,12,512,1058.9723724963224,1059.7433302193258,"[49, 0, 205]",205,a,0.25277346297662007,colour,0.5
144,21,0,1,11,13,513,1060.2562838116737,1060.9753480022573,"[37, 0, 217]",217,a,0.19261783082401962,colour,0.5
144,21,0,1,11,14,514,1061.498490782431,1062.175293730288,"[61, 0, 193]",193,l,0.15152788586601673,colour,0.5
144,21,0,1,11,15,515,1062.6970938897175,1063.3193101867473,"[84, 0, 170]",170,l,0.09283027131277777,colour,0.5
144,21,0,1,11,16,516,1063.8335402337252,1065.1513356890573,"[94, 0, 160]",160,l,0.7945278260012856,colour,0.5
144,21,0,1,11,17,517,1065.6616702060292,1067.167349070367,"[98, 0, 156]",156,l,0.9824198996175255,colour,0.5
144,21,0,1,11,18,518,1067.6753086964327,1068.5833433107637,"[33, 0, 221]",221,a,0.3847724988427217,colour,0.5
144,21,0,1,11,19,519,1069.0972665517693,1069.9273212490898,"[97, 0, 157]",157,l,0.3192995529043401,colour,0.5
144,21,0,1,11,20,520,1070.4442006975805,1071.223372471115,"[2, 0, 252]",252,a,0.25580528887803666,colour,0.5
144,21,0,1,11,21,521,1071.7412235374923,1072.5833196800086,"[95, 0, 159]",159,l,0.3234688058273605,colour,0.5
144,21,0,1,11,22,522,1073.1001376885342,1073.8873128050345,"[10, 0, 244]",244,a,0.25487069250812056,colour,0.5
144,21,0,1,11,23,523,1074.397114448475,1075.1513289936775,"[19, 0, 235]",235,a,0.22192902581446106,colour,0.5
144,21,0,1,11,24,524,1075.6634716572735,1076.3673873521893,"[60, 0, 194]",194,l,0.17163687090942403,colour,0.5
144,21,0,1,11,25,525,1076.8842372622348,1077.5273045500235,"[25, 0, 229]",229,a,0.1134244745298929,colour,0.5
144,21,0,1,11,26,526,1078.0411001849498,1078.791288049455,"[16, 0, 238]",238,a,0.22625896787212696,colour,0.5
144,21,0,1,11,27,527,1079.3012180866663,1079.9352962351477,"[12, 0, 242]",242,a,0.11559653478434484,colour,0.5
144,21,0,1,11,28,528,1080.4467709360615,1081.0953260729148,"[28, 0, 226]",226,a,0.12959578805384808,colour,0.5
144,21,0,1,11,29,529,1081.6151219504518,1082.1834191654889,"[48, 0, 206]",206,a,0.04582633600512054,colour,0.5
144,21,0,1,11,30,530,1082.7026443602845,1085.2713377843174,"[67, 0, 187]",187,a,2.039472419757658,colour,0.5
144,21,0,1,11,31,531,1085.7888020940009,1087.031341864562,"[63, 0, 191]",191,l,0.72432715362811,colour,0.5
144,21,0,1,11,32,532,1087.5428268054693,1088.8312894042847,"[45, 0, 209]",209,a,0.7703783756533085,colour,0.5
144,21,0,1,11,33,533,1089.3539473601304,1090.1912897823768,"[76, 0, 178]",178,l,0.3083108578593965,colour,0.5
144,21,0,1,11,34,534,1090.71033183882,1091.2313254018027,"[89, 0, 165]",165,l,0.0034433948894729838,colour,0.5
144,21,0,1,11,35,535,1091.7572672449387,1092.3913209749735,"[4, 0, 250]",250,a,0.11592224536252616,colour,0.5
144,21,0,1,11,36,536,1092.9263275758312,1093.5912741860793,"[70, 0, 184]",184,l,0.14083575679978821,colour,0.5
144,21,0,1,11,37,537,1094.10167723224,1098.1032943635928,"[40, 0, 214]",214,a,3.478461354263345,colour,0.5
144,21,0,1,11,38,538,1098.6160770268107,1099.7593250898753,"[69, 0, 185]",185,l,0.6203100827697199,colour,0.5
144,21,0,1,11,39,539,1100.2740600473244,1101.2392960555553,"[5, 0, 249]",249,a,0.44190181893827685,colour,0.5
144,21,0,1,11,40,540,1101.7584125488775,1103.2232925203934,"[13, 0, 241]",241,a,0.9530673508033942,colour,0.5
144,21,0,1,11,41,541,1103.7403645595386,1104.2632836352295,"[20, 0, 234]",234,a,0.004473301973121124,colour,0.5
144,21,0,1,11,42,542,1104.791272295619,1105.3433438463944,"[65, 0, 189]",189,a,0.0337600785169343,colour,0.5
144,21,0,1,11,43,543,1105.8673176414613,1106.5353283729764,"[32, 0, 222]",222,a,0.15067599713984237,colour,0.5
144,21,0,1,11,44,544,1107.0579181934772,1107.7272865118812,"[15, 0, 239]",239,a,0.15144202745614166,colour,0.5
144,21,0,1,11,45,545,1108.249827495487,1108.8713139960237,"[8, 0, 246]",246,a,0.10255708402655728,colour,0.5
144,21,0,1,11,46,546,1109.3802172769174,1111.0392932198647,"[54, 0, 200]",200,a,1.1406624645933334,colour,0.5
144,21,0,1,11,47,547,1111.5601843829063,1112.6712816218896,"[79, 0, 175]",175,l,0.592436819237264,colour,0.5
144,21,0,1,11,48,548,1113.1861847515465,1114.1513026060002,"[21, 0, 233]",233,a,0.44644483163938276,colour,0.5
144,21,0,1,11,49,549,1114.666516086243,1115.5753596600953,"[93, 0, 161]",161,l,0.38549441841496446,colour,0.5
144,21,0,1,11,50,550,1116.0884333754493,1116.9512576287962,"[73, 0, 181]",181,l,0.33952157172825537,colour,0.5
144,21,0,1,12,1,551,1122.4876363888434,1124.6232950410085,"[62, 0, 192]",192,l,1.6163594143363298,colour,0.5
144,21,0,1,12,2,552,1125.138794453389,1125.7912730833104,"[61, 0, 193]",193,l,0.1293208836013946,colour,0.5
144,21,0,1,12,3,553,1126.3105963457401,1126.951324582602,"[46, 0, 208]",208,a,0.1173908968030446,colour,0.5
144,21,0,1,12,4,554,1127.4647874177263,1128.5273266053955,"[65, 0, 189]",189,l,0.5394247644017014,colour,0.5
144,21,0,1,12,5,555,1129.0401518039725,1130.5432820913538,"[90, 0, 164]",164,l,0.9902294703879306,colour,0.5
144,21,0,1,12,6,556,1131.061060690081,1131.6952274538962,"[15, 0, 239]",239,a,0.11085108528095589,colour,0.5
144,21,0,1,12,7,557,1132.2037223165698,1133.2872684579834,"[39, 0, 215]",215,a,0.5515839695253817,colour,0.5
144,21,0,1,12,8,558,1133.8095420202098,1135.0232759000955,"[86, 0, 168]",168,l,0.6956646228682075,colour,0.5
144,21,0,1,12,9,559,1135.542485341055,1137.8872777527467,"[96, 0, 158]",158,l,1.8125021661526262,colour,0.5
144,21,0,1,12,10,560,1138.3980671617574,1139.3593395046373,"[76, 0, 178]",178,l,0.4387191500500194,colour,0.5
144,21,0,1,12,11,561,1139.8738980191138,1140.7192607196994,"[97, 0, 157]",157,l,0.3274336527174455,colour,0.5
144,21,0,1,12,12,562,1141.2355998115854,1142.488923083467,"[36, 0, 218]",218,a,0.7269879766718077,colour,0.5
144,21,0,1,12,13,563,1143.00685370672,1143.8792464467224,"[27, 0, 227]",227,a,0.3547850704035227,colour,0.5
144,21,0,1,12,14,564,1144.3939770718662,1145.6395096775832,"[24, 0, 230]",230,a,0.728280185139738,colour,0.5
144,21,0,1,12,15,565,1146.1585481894126,1147.3592666431414,"[7, 0, 247]",247,a,0.6826913382246858,colour,0.5
144,21,0,1,12,16,566,1147.874306043488,1149.1832825009533,"[40, 0, 214]",214,a,0.790204579325291,colour,0.5
144,21,0,1,12,17,567,1149.702671929499,1151.383243982822,"[92, 0, 162]",162,l,1.1617032890862902,colour,0.5
144,21,0,1,12,18,568,1151.9022202669967,1153.0472433936284,"[16, 0, 238]",238,a,0.6301192092832935,colour,0.5
144,21,0,1,12,19,569,1153.556439695889,1154.8392695103394,"[74, 0, 180]",180,l,0.7598390588027542,colour,0.5
144,21,0,1,12,20,570,1155.3530450591243,1156.5352732345473,"[1, 0, 253]",253,a,0.6589814199251123,colour,0.5
144,21,0,1,12,21,571,1157.0561817268099,1157.8872616050649,"[4, 0, 250]",250,a,0.31275777215523703,colour,0.5
144,21,0,1,12,22,572,1158.4032848325223,1159.5192444932472,"[85, 0, 169]",169,l,0.5925774222323525,colour,0.5
144,21,0,1,12,23,573,1160.0282789248322,1161.1992486207528,"[56, 0, 198]",198,a,0.647691038902849,colour,0.5
144,21,0,1,12,24,574,1161.715824807883,1163.0952189468244,"[94, 0, 160]",160,l,0.8633862714759744,colour,0.5
144,21,0,1,12,25,575,1163.6181435363596,1165.2952682563337,"[64, 0, 190]",190,l,1.1559767693906906,colour,0.5
144,21,0,1,12,26,576,1165.8056220717554,1167.0713207701738,"[22, 0, 232]",232,a,0.7446417262417526,colour,0.5
144,21,0,1,12,27,577,1167.592701877542,1168.9352533059428,"[67, 0, 187]",187,l,0.8233652243507095,colour,0.5
144,21,0,1,12,28,578,1169.458200344694,1170.6872304124681,"[57, 0, 197]",197,a,0.7108769215756183,colour,0.5
144,21,0,1,12,29,579,1171.2085366891115,1172.3032416670085,"[55, 0, 199]",199,a,0.5709647334606416,colour,0.5
144,21,0,1,12,30,580,1172.8107999640815,1173.999285957345,"[70, 0, 184]",184,l,0.6693927368505683,colour,0.5
144,21,0,1,12,31,581,1174.5202862157075,1175.2633624044138,"[69, 0, 185]",185,l,0.22562330055370694,colour,0.5
144,21,0,1,12,32,582,1175.77402578273,1176.703304052202,"[29, 0, 225]",225,a,0.41146776922505524,colour,0.5
144,21,0,1,12,33,583,1177.2277098962459,1183.5192645793886,"[13, 0, 241]",241,l,5.77380129055382,colour,0.5
144,21,0,1,12,34,584,1184.0389580569845,1184.96725801319,"[98, 0, 156]",156,l,0.41072536966385087,colour,0.5
144,21,0,1,12,35,585,1185.4779970099225,1186.3432477479892,"[12, 0, 242]",242,a,0.34635558615264017,colour,0.5
144,21,0,1,12,36,586,1186.8628979025343,1191.0232172170545,"[11, 0, 243]",243,a,3.6428223156253807,colour,0.5
144,21,0,1,12,37,587,1191.5448598381136,1192.1273288109332,"[78, 0, 176]",176,l,0.06412599288705678,colour,0.5
144,21,0,1,12,38,588,1192.651310876765,1195.1992781591962,"[87, 0, 167]",167,l,2.028773595309758,colour,0.5
144,21,0,1,12,39,589,1195.7140993689027,1196.3832546166632,"[38, 0, 216]",216,a,0.1459648122308863,colour,0.5
144,21,0,1,12,40,590,1196.901565695076,1197.6072970196892,"[32, 0, 222]",222,a,0.19094122873502783,colour,0.5
144,21,0,1,12,41,591,1198.1238034960916,1199.3512932324666,"[3, 0, 251]",251,a,0.7050787219213817,colour,0.5
144,21,0,1,12,42,592,1199.872911041235,1200.4552811587273,"[95, 0, 159]",159,l,0.05951445099526609,colour,0.5
144,21,0,1,12,43,593,1200.9667200196618,1201.519266942465,"[8, 0, 246]",246,a,0.029602247128423187,colour,0.5
144,21,0,1,12,44,594,1202.0292363642675,1203.8552060916936,"[82, 0, 172]",172,a,1.3027493596055137,colour,0.5
144,21,0,1,12,45,595,1204.3804642183113,1204.9272251506864,"[33, 0, 221]",221,a,0.029208007361376076,colour,0.5
144,21,0,1,12,46,596,1205.4401728353441,1206.4632096709665,"[75, 0, 179]",179,l,0.4996364802154858,colour,0.5
144,21,0,1,12,47,597,1206.9714662568567,1207.5592226111676,"[45, 0, 209]",209,a,0.06447297114209505,colour,0.5
144,21,0,1,12,48,598,1208.068132587443,1209.7752455235477,"[26, 0, 228]",228,a,1.1806386132848274,colour,0.5
144,21,0,1,12,49,599,1210.2904467945682,1210.831277588908,"[25, 0, 229]",229,a,0.017588371149031445,colour,0.5
144,21,0,1,12,50,600,1211.3372538069143,1211.97530901151,"[31, 0, 223]",223,a,0.11473086145088018,colour,0.5
144,21,0,1,13,1,601,1216.57682791769,1217.9672422593521,"[9, 0, 245]",245,a,0.8664177035316243,colour,0.5
144,21,0,1,13,2,602,1218.491697334137,1219.2152588512945,"[3, 0, 251]",251,a,0.20020054634369444,colour,0.5
144,21,0,1,13,3,603,1219.7260569249138,1220.703224889172,"[7, 0, 247]",247,a,0.4538518918780028,colour,0.5
144,21,0,1,13,4,604,1221.2105453033091,1222.6712331788403,"[68, 0, 186]",186,l,0.9374907446199359,colour,0.5
144,21,0,1,13,5,605,1223.1802841519566,1224.1512100522086,"[77, 0, 177]",177,l,0.44904145779764804,colour,0.5
144,21,0,1,13,6,606,1224.663171546681,1225.5911784815198,"[75, 0, 179]",179,l,0.40466329324590333,colour,0.5
144,21,0,1,13,7,607,1226.100730426646,1226.9672127209087,"[90, 0, 164]",164,l,0.34324302183813415,colour,0.5
144,21,0,1,13,8,608,1227.4743602366852,1229.9912369282538,"[98, 0, 156]",156,l,1.9934987853794155,colour,0.5
144,21,0,1,13,9,609,1230.5082309859063,1232.2712271136133,"[1, 0, 253]",253,a,1.2397261352998612,colour,0.5
144,21,0,1,13,10,610,1232.7870416027326,1233.999179618946,"[58, 0, 196]",196,l,0.6886829162231152,colour,0.5
144,21,0,1,13,11,611,1234.508435391941,1235.7032630922258,"[78, 0, 176]",176,l,0.6778454580107791,colour,0.5
144,21,0,1,13,12,612,1236.2247651102934,1237.5352141576586,"[2, 0, 252]",252,a,0.7786727707534737,colour,0.5
144,21,0,1,13,13,613,1238.0449421519115,1241.303202676263,"[16, 0, 238]",238,a,2.7400739012500708,colour,0.5
144,21,0,1,13,14,614,1241.812824332117,1242.8392297319024,"[74, 0, 180]",180,l,0.508579539548009,colour,0.5
144,21,0,1,13,15,615,1243.3537165664202,1244.274073438086,"[6, 0, 248]",248,a,0.3988757274328236,colour,0.5
144,21,0,1,13,16,616,1244.7901848870297,1245.9272586275893,"[67, 0, 187]",187,l,0.6188500959415251,colour,0.5
144,21,0,1,13,17,617,1246.4453105553857,1248.2871979595639,"[42, 0, 212]",212,a,1.323375070498514,colour,0.5
144,21,0,1,13,18,618,1248.7987490665855,1255.6952790477117,"[13, 0, 241]",241,a,6.378209450411305,colour,0.5
144,21,0,1,13,19,619,1256.213774446016,1258.5032496226959,"[49, 0, 205]",205,a,1.7714216734984802,colour,0.5
144,21,0,1,13,20,620,1259.0197813052382,1259.6231544380134,"[41, 0, 213]",213,a,0.08472689148402424,colour,0.5
144,21,0,1,13,21,621,1260.1350946648054,1260.8232265905863,"[39, 0, 215]",215,a,0.16950065063247166,colour,0.5
144,21,0,1,13,22,622,1261.3432024557078,1261.9111983786152,"[32, 0, 222]",222,a,0.04990264128718991,colour,0.5
144,21,0,1,13,23,623,1262.4217298185486,1263.7912155818049,"[71, 0, 183]",183,a,0.8511865002219565,colour,0.5
144,21,0,1,13,24,624,1264.3144757280643,1265.5112537533514,"[97, 0, 157]",157,l,0.6701831856134959,colour,0.5
144,21,0,1,13,25,625,1266.0212609843638,1267.2151651159638,"[5, 0, 249]",249,a,0.6706191730481805,colour,0.5
144,21,0,1,13,26,626,1267.7243645689905,1268.7431659855756,"[89, 0, 165]",165,l,0.49607650693178584,colour,0.5
144,21,0,1,13,27,627,1269.2493647265292,1270.5432352236894,"[44, 0, 210]",210,a,0.7705552124716633,colour,0.5
144,21,0,1,13,28,628,1271.0545886200598,1272.1111508020276,"[79, 0, 175]",175,l,0.5332638326563028,colour,0.5
144,21,0,1,13,29,629,1272.6313606116273,1273.8392045257624,"[54, 0, 200]",200,a,0.6844112633625627,colour,0.5
144,21,0,1,13,30,630,1274.3553214885487,1275.5592253680898,"[62, 0, 192]",192,l,0.677226332223654,colour,0.5
144,21,0,1,13,31,631,1276.0826497480975,1276.6232399025794,"[87, 0, 167]",167,l,0.0159830551729101,colour,0.5
144,21,0,1,13,32,632,1277.1415143533213,1278.159198429028,"[11, 0, 243]",243,l,0.4950702306050516,colour,0.5
144,21,0,1,13,33,633,1278.6780750701837,1279.999192222016,"[34, 0, 220]",220,a,0.8026252981417201,colour,0.5
144,21,0,1,13,34,634,1280.5100946648054,1281.5191795086703,"[85, 0, 169]",169,l,0.4817338200227823,colour,0.5
144,21,0,1,13,35,635,1282.0427452793629,1283.1592169397863,"[60, 0, 194]",194,a,0.5985520648555394,colour,0.5
144,21,0,1,13,36,636,1283.678831648198,1284.2551562308,"[22, 0, 232]",232,a,0.06577541960359667,colour,0.5
144,21,0,1,13,37,637,1284.769721440658,1286.263217862961,"[88, 0, 166]",166,a,0.9660296077618113,colour,0.5
144,21,0,1,13,38,638,1286.7800524130162,1287.4471939265804,"[28, 0, 226]",226,a,0.14888242281267594,colour,0.5
144,21,0,1,13,39,639,1287.9683213971766,1290.1671604181702,"[4, 0, 250]",250,a,1.6807358932273928,colour,0.5
144,21,0,1,13,40,640,1290.6802699735017,1292.3351644543036,"[84, 0, 170]",170,l,1.1368445222342416,colour,0.5
144,21,0,1,13,41,641,1292.8442288181795,1295.319239688326,"[80, 0, 174]",174,a,1.954328445443025,colour,0.5
144,21,0,1,13,42,642,1295.8383349139694,1297.1672068919888,"[63, 0, 191]",191,l,0.8056413702051941,colour,0.5
144,21,0,1,13,43,643,1297.6787938389898,1298.607184773602,"[10, 0, 244]",244,a,0.4050685606980551,colour,0.5
144,21,0,1,13,44,644,1299.109151640132,1299.9431274674444,"[47, 0, 207]",207,a,0.31073576719609264,colour,0.5
144,21,0,1,13,45,645,1300.4536419720025,1302.1191714742126,"[56, 0, 198]",198,l,1.1501553328307637,colour,0.5
144,21,0,1,13,46,646,1302.6332101120734,1305.0151866987217,"[48, 0, 206]",206,l,1.858690840404961,colour,0.5
144,21,0,1,13,47,647,1305.52185608555,1312.62319145953,"[81, 0, 173]",173,l,6.578566353584392,colour,0.5
144,21,0,1,13,48,648,1313.1353148246762,1314.3671203246558,"[14, 0, 240]",240,a,0.7087800858898845,colour,0.5
144,21,0,1,13,49,649,1314.8810289933626,1315.463155320229,"[99, 0, 155]",155,l,0.04861240204991191,colour,0.5
144,21,0,1,13,50,650,1315.9796933043053,1316.5431462145116,"[8, 0, 246]",246,a,0.04009745323492098,colour,0.5
144,21,0,1,14,1,651,1343.5201196188846,1345.287150304208,"[82, 0, 172]",172,l,1.240562270191731,colour,0.5
144,21,0,1,14,2,652,1345.8066614311429,1346.6711351112062,"[43, 0, 211]",211,a,0.34684277355700033,colour,0.5
144,21,0,1,14,3,653,1347.1847353985577,1347.9751416269937,"[41, 0, 213]",213,a,0.26952491154224845,colour,0.5
144,21,0,1,14,4,654,1348.487602518093,1349.2551692277157,"[28, 0, 226]",226,a,0.24021923039254034,colour,0.5
144,21,0,1,14,5,655,1349.7655159539117,1350.4551594603363,"[29, 0, 225]",225,a,0.17262030417441565,colour,0.5
144,21,0,1,14,6,656,1350.9719475365728,1351.7431514132768,"[37, 0, 217]",217,a,0.25379943160078255,colour,0.5
144,21,0,1,14,7,657,1352.2561002794737,1352.9671229240394,"[11, 0, 243]",243,a,0.19303373211550934,colour,0.5
144,21,0,1,14,8,658,1353.4780619944995,1354.199118257753,"[89, 0, 165]",165,l,0.19387026085314574,colour,0.5
144,21,0,1,14,9,659,1354.701020139706,1355.407222110196,"[24, 0, 230]",230,a,0.15089418778006802,colour,0.5
144,21,0,1,14,10,660,1355.9150750040171,1356.5111344180386,"[18, 0, 236]",236,a,0.07276145855394134,colour,0.5
144,21,0,1,14,11,661,1357.0244428655606,1357.6151680304247,"[65, 0, 189]",189,l,0.06573879193274479,colour,0.5
144,21,0,1,14,12,662,1358.123840911454,1358.7431073025346,"[90, 0, 164]",164,l,0.09646310609059583,colour,0.5
144,21,0,1,14,13,663,1359.263987437891,1360.7271258227447,"[86, 0, 168]",168,l,0.9374052800558275,colour,0.5
144,21,0,1,14,14,664,1361.2436669575873,1361.8471137395518,"[16, 0, 238]",238,a,0.08015276495643775,colour,0.5
144,21,0,1,14,15,665,1362.3530608129622,1363.1671013412815,"[56, 0, 198]",198,l,0.2910127511549945,colour,0.5
144,21,0,1,14,16,666,1363.6812616775314,1364.4311687298941,"[99, 0, 155]",155,l,0.22666856762953103,colour,0.5
144,21,0,1,14,17,667,1364.952577012631,1365.823136793717,"[53, 0, 201]",201,l,0.35316833289834904,colour,0.5
144,21,0,1,14,18,668,1366.3402734235933,1367.0471461136858,"[8, 0, 246]",246,a,0.1891543497913517,colour,0.5
144,21,0,1,14,19,669,1367.5620626341042,1368.4791214400266,"[80, 0, 174]",174,l,0.4003302004202851,colour,0.5
144,21,0,1,14,20,670,1369.000015753838,1370.0551797827866,"[96, 0, 158]",158,l,0.5356997696781036,colour,0.5
144,21,0,1,14,21,671,1370.5671719972397,1371.4871354168317,"[84, 0, 170]",170,l,0.3872777527467406,colour,0.5
144,21,0,1,14,22,672,1372.0065535961294,1373.1671088243547,"[21, 0, 233]",233,a,0.6331175582818105,colour,0.5
144,21,0,1,14,23,673,1373.6878471751807,1375.8472188964133,"[22, 0, 232]",232,l,1.639260766960433,colour,0.5
144,21,0,1,14,24,674,1376.3694503171246,1377.5031602196723,"[57, 0, 197]",197,a,0.6149573228558438,colour,0.5
144,21,0,1,14,25,675,1378.0131067984112,1379.439094485213,"[46, 0, 208]",208,a,0.9065458767490782,colour,0.5
144,21,0,1,14,26,676,1379.951610908587,1381.42318468538,"[61, 0, 193]",193,a,0.9519791545226326,colour,0.5
144,21,0,1,14,27,677,1381.9420648711493,1382.8471417026121,"[20, 0, 234]",234,a,0.3831002290608012,colour,0.5
144,21,0,1,14,28,678,1383.3706869933176,1385.0071526357751,"[75, 0, 179]",179,l,1.1162711928500357,colour,0.5
144,21,0,1,14,29,679,1385.5178219217796,1386.799183872483,"[26, 0, 228]",228,a,0.7623171373397781,colour,0.5
144,21,0,1,14,30,680,1387.3181747289564,1388.7431655917298,"[51, 0, 203]",203,a,0.8932504261410941,colour,0.5
144,21,0,1,14,31,681,1389.26648166411,1390.255119603129,"[47, 0, 207]",207,a,0.4692957719853439,colour,0.5
144,21,0,1,14,32,682,1390.7697005668233,1395.8071529508525,"[10, 0, 244]",244,a,4.518887274996814,colour,0.5
144,21,0,1,14,33,683,1396.3147963186439,1396.8951641234726,"[60, 0, 194]",194,a,0.060567201142475824,colour,0.5
144,21,0,1,14,34,684,1397.4166578707755,1398.8311795212721,"[39, 0, 215]",215,a,0.8912784396125062,colour,0.5
144,21,0,1,14,35,685,1399.338508206174,1399.9591325779893,"[42, 0, 212]",212,a,0.09570889114911552,colour,0.5
144,21,0,1,14,36,686,1400.4806842206417,1401.1911145209415,"[45, 0, 209]",209,a,0.18722568631528702,colour,0.5
144,21,0,1,14,37,687,1401.6994805960003,1402.7191149967075,"[23, 0, 231]",231,a,0.4964928020708612,colour,0.5
144,21,0,1,14,38,688,1403.2307015498627,1404.2310839742531,"[67, 0, 187]",187,l,0.477101798143849,colour,0.5
144,21,0,1,14,39,689,1404.7463360513957,1405.5350940346525,"[85, 0, 169]",169,l,0.266557676372031,colour,0.5
144,21,0,1,14,40,690,1406.0468393077135,1407.2631048291823,"[40, 0, 214]",214,a,0.6982163505927019,colour,0.5
144,21,0,1,14,41,691,1407.7795419887025,1409.0391305614994,"[71, 0, 183]",183,l,0.7279375391881331,colour,0.5
144,21,0,1,14,42,692,1409.561692025094,1410.3832049920766,"[76, 0, 178]",178,l,0.2892652568043559,colour,0.5
144,21,0,1,14,43,693,1410.9066069228666,1412.5191133425542,"[31, 0, 223]",223,a,1.0952508483424026,colour,0.5
144,21,0,1,14,44,694,1413.0290158105508,1413.935115066024,"[70, 0, 184]",184,l,0.38733643578780175,colour,0.5
144,21,0,1,14,45,695,1414.4443326359633,1415.1190745881158,"[73, 0, 181]",181,l,0.14678283020839444,colour,0.5
144,21,0,1,14,46,696,1415.63016883387,1417.1431102169936,"[91, 0, 163]",163,l,0.9903310826357483,colour,0.5
144,21,0,1,14,47,697,1417.6616127045254,1418.775132489769,"[3, 0, 251]",251,a,0.596634822912165,colour,0.5
144,21,0,1,14,48,698,1419.2988758849715,1420.0550864413035,"[38, 0, 216]",216,a,0.23850560679056798,colour,0.5
144,21,0,1,14,49,699,1420.5677552830493,1424.503071998186,"[52, 0, 202]",202,a,3.4016373750328057,colour,0.5
144,21,0,1,14,50,700,1425.022317279123,1425.7911159387877,"[54, 0, 200]",200,a,0.24878183456530678,colour,0.5
144,21,0,1,15,1,701,1433.0063157131917,1433.8791097821886,"[21, 0, 233]",233,a,0.3488659600552637,colour,0.5
144,21,0,1,15,2,702,1434.3976977342845,1436.4710913155395,"[43, 0, 211]",211,a,1.5575857875173824,colour,0.5
144,21,0,1,15,3,703,1436.9906516732153,1438.3991179426757,"[77, 0, 177]",177,l,0.8905100462216069,colour,0.5
144,21,0,1,15,4,704,1438.909721062566,1439.735144525699,"[80, 0, 174]",174,l,0.3078409996742266,colour,0.5
144,21,0,1,15,5,705,1440.2546568341731,1441.071097065691,"[66, 0, 188]",188,l,0.2988345311496232,colour,0.5
144,21,0,1,15,6,706,1441.585285758847,1442.3110788069935,"[29, 0, 225]",225,a,0.20648435801558662,colour,0.5
144,21,0,1,15,7,707,1442.8245900851653,1443.6310640456486,"[6, 0, 248]",248,a,0.2741435426596581,colour,0.5
144,21,0,1,15,8,708,1444.153442370889,1444.9110636833102,"[96, 0, 158]",158,l,0.23733312748299795,colour,0.5
144,21,0,1,15,9,709,1445.4208700529016,1446.231134780377,"[35, 0, 219]",219,a,0.2920816489859135,colour,0.5
144,21,0,1,15,10,710,1446.748128050338,1447.5350739485111,"[36, 0, 218]",218,a,0.26370859497910715,colour,0.5
144,21,0,1,15,11,711,1448.0462509019071,1448.7750998005577,"[69, 0, 185]",185,l,0.2061358043756627,colour,0.5
144,21,0,1,15,12,712,1449.2961626804208,1450.0230711002168,"[15, 0, 239]",239,a,0.2035041259296122,colour,0.5
144,21,0,1,15,13,713,1450.522768232704,1451.3590610555711,"[30, 0, 224]",224,a,0.3131673719144601,colour,0.5
144,21,0,1,15,14,714,1451.866290097454,1452.6150628735631,"[64, 0, 190]",190,l,0.22969291045774298,colour,0.5
144,21,0,1,15,15,715,1453.1285497332883,1453.9030914541745,"[32, 0, 222]",222,a,0.2612222456791642,colour,0.5
144,21,0,1,15,16,716,1454.4155424991259,1455.1911109763296,"[49, 0, 205]",205,l,0.25220474946763716,colour,0.5
144,21,0,1,15,17,717,1455.6943070359794,1456.9350528383693,"[42, 0, 212]",212,a,0.7076347819511284,colour,0.5
144,21,0,1,15,18,718,1457.4418258066762,1459.263039056912,"[5, 0, 249]",249,a,1.29782943635837,colour,0.5
144,21,0,1,15,19,719,1459.7655659723423,1461.079144519399,"[85, 0, 169]",169,l,0.7902423885352619,colour,0.5
144,21,0,1,15,20,720,1461.5957793895705,1462.799082260235,"[67, 0, 187]",187,l,0.6800549336294353,colour,0.5
144,21,0,1,15,21,721,1463.3178852522033,1463.9670437610093,"[88, 0, 166]",166,l,0.12590663331138785,colour,0.5
144,21,0,1,15,22,722,1464.474119596829,1465.863044019372,"[51, 0, 203]",203,a,0.8658422946409701,colour,0.5
144,21,0,1,15,23,723,1466.3734183147808,1468.399150631887,"[79, 0, 175]",175,a,1.5012524300291261,colour,0.5
144,21,0,1,15,24,724,1468.910223216115,1469.6390677824584,"[39, 0, 215]",215,a,0.2107599493356247,colour,0.5
144,21,0,1,15,25,725,1470.162034513507,1472.1910333886826,"[53, 0, 201]",201,a,1.510220695499811,colour,0.5
144,21,0,1,15,26,726,1472.7036809627498,1473.799061780248,"[7, 0, 247]",247,a,0.5727216801169561,colour,0.5
144,21,0,1,15,27,727,1474.319760352635,1479.5990632768608,"[18, 0, 236]",236,a,4.755606396687654,colour,0.5
144,21,0,1,15,28,728,1480.1098818304708,1481.5911056200239,"[57, 0, 197]",197,a,0.9641265442696749,colour,0.5
144,21,0,1,15,29,729,1482.1081611176414,1483.479079692359,"[8, 0, 246]",246,a,0.8443182212013198,colour,0.5
144,21,0,1,15,30,730,1483.992451155229,1484.9270321661843,"[84, 0, 170]",170,l,0.41688590756166377,colour,0.5
144,21,0,1,15,31,731,1485.4386411685573,1487.5830967632173,"[86, 0, 168]",168,l,1.6307328212278662,colour,0.5
144,21,0,1,15,32,732,1488.0926530406487,1490.431069086877,"[59, 0, 195]",195,l,1.8216921668772557,colour,0.5
144,21,0,1,15,33,733,1490.9433275411739,1492.2390644741536,"[52, 0, 202]",202,a,0.7778736573800415,colour,0.5
144,21,0,1,15,34,734,1492.7526549153554,1495.4310828714843,"[34, 0, 220]",220,l,2.160599338969405,colour,0.5
144,21,0,1,15,35,735,1495.9570991514993,1499.1350765478928,"[9, 0, 245]",245,l,2.6320250296957965,colour,0.5
144,21,0,1,15,36,736,1499.6496630254296,1500.855058399473,"[33, 0, 221]",221,a,0.6821108093372459,colour,0.5
144,21,0,1,15,37,737,1501.3717271403948,1502.471074380166,"[89, 0, 165]",165,l,0.575989813569322,colour,0.5
144,21,0,1,15,38,738,1502.981117451156,1505.0550572967059,"[1, 0, 253]",253,l,1.5506434654671466,colour,0.5
144,21,0,1,15,39,739,1505.5749729034014,1506.9270684000094,"[73, 0, 181]",181,l,0.827721554083837,colour,0.5
144,21,0,1,15,40,740,1507.44103457022,1508.6150427874218,"[41, 0, 213]",213,a,0.6471372915384563,colour,0.5
144,21,0,1,15,41,741,1509.1358914151042,1510.1990769039312,"[74, 0, 180]",180,l,0.5454348531584401,colour,0.5
144,21,0,1,15,42,742,1510.7116724903353,1512.9670284010172,"[28, 0, 226]",226,l,1.7234918064295925,colour,0.5
144,21,0,1,15,43,743,1513.4789060063085,1516.0790232148538,"[54, 0, 200]",200,a,2.0790807163575664,colour,0.5
144,21,0,1,15,44,744,1516.5889418305342,1518.2230621205308,"[70, 0, 184]",184,l,1.112826222577496,colour,0.5
144,21,0,1,15,45,745,1518.740047119727,1519.9750317439812,"[46, 0, 208]",208,a,0.7118430256177817,colour,0.5
144,21,0,1,15,46,746,1520.4899258151836,1521.3830502106284,"[99, 0, 155]",155,l,0.3729382166020514,colour,0.5
144,21,0,1,15,47,747,1521.8931200631414,1522.911047929474,"[38, 0, 216]",216,a,0.4948788214878732,colour,0.5
144,21,0,1,15,48,748,1523.4282200054822,1525.319032131527,"[23, 0, 231]",231,l,1.3675890013018943,colour,0.5
144,21,0,1,15,49,749,1525.8365783611607,1527.5830447755561,"[65, 0, 189]",189,l,1.229007618556352,colour,0.5
144,21,0,1,15,50,750,1528.1012900817004,1528.7590297054358,"[93, 0, 161]",161,l,0.13452595129638212,colour,0.5
144,21,0,1,16,1,751,1533.7309650327843,1535.1670139074868,"[76, 0, 178]",178,l,0.9119431412509584,colour,0.5
144,21,0,1,16,2,752,1535.6863552868308,1536.623067791912,"[7, 0, 247]",247,a,0.4259703575808089,colour,0.5
144,21,0,1,16,3,753,1537.1452263511292,1537.9910793898853,"[86, 0, 168]",168,l,0.31518622610565217,colour,0.5
144,21,0,1,16,4,754,1538.50311020124,1539.9349988814774,"[15, 0, 239]",239,a,0.9143026721649221,colour,0.5
144,21,0,1,16,5,755,1540.4524021450434,1541.4069944672538,"[26, 0, 228]",228,a,0.43490711537924653,colour,0.5
144,21,0,1,16,6,756,1541.9244741369257,1542.8790270745449,"[30, 0, 224]",224,a,0.4368999757389247,colour,0.5
144,21,0,1,16,7,757,1543.393676567428,1544.2710305844994,"[10, 0, 244]",244,a,0.3591173755376076,colour,0.5
144,21,0,1,16,8,758,1544.7852492099464,1545.5830451694019,"[92, 0, 162]",162,l,0.27918201352986216,colour,0.5
144,21,0,1,16,9,759,1546.11041864246,1553.295014225716,"[0, 0, 254]",254,l,6.66471975499735,colour,0.5
144,21,0,1,16,10,760,1553.8075979967434,1554.6950258047855,"[97, 0, 157]",157,l,0.36811754252812534,colour,0.5
144,21,0,1,16,11,761,1555.216417545993,1555.9510433766154,"[68, 0, 186]",186,l,0.20765486809432332,colour,0.5
144,21,0,1,16,12,762,1556.4640205997184,1557.279005964403,"[27, 0, 227]",227,a,0.29763842108695826,colour,0.5
144,21,0,1,16,13,763,1557.7885894172032,1558.6229831150376,"[70, 0, 184]",184,l,0.31103902855466004,colour,0.5
144,21,0,1,16,14,764,1559.1376956232689,1559.999045317487,"[73, 0, 181]",181,l,0.3381557140728546,colour,0.5
144,21,0,1,16,15,765,1560.5126330017683,1561.7910029050072,"[50, 0, 204]",204,a,0.7549880585902429,colour,0.5
144,21,0,1,16,16,766,1562.30530108733,1563.1829989318903,"[82, 0, 172]",172,l,0.3543211199084908,colour,0.5
144,21,0,1,16,17,767,1563.695979699607,1565.3350270020765,"[69, 0, 185]",185,l,1.1158257531114941,colour,0.5
144,21,0,1,16,18,768,1565.8521912011674,1566.7189877844758,"[25, 0, 229]",229,a,0.3411706046008476,colour,0.5
144,21,0,1,16,19,769,1567.237083035323,1568.1830158672656,"[35, 0, 219]",219,a,0.43208954165856994,colour,0.5
144,21,0,1,16,20,770,1568.6964397116426,1569.5350018747067,"[95, 0, 159]",159,l,0.31537212138027826,colour,0.5
144,21,0,1,16,21,771,1570.055799696267,1570.919024490915,"[32, 0, 222]",222,a,0.33986146075767465,colour,0.5
144,21,0,1,16,22,772,1571.424585989169,1572.3110157916472,"[20, 0, 234]",234,a,0.3631180624051922,colour,0.5
144,21,0,1,16,23,773,1572.8308207276386,1573.5429989161366,"[16, 0, 238]",238,a,0.1889172545470501,colour,0.5
144,21,0,1,16,24,774,1574.0569729632662,1574.9190091309247,"[79, 0, 175]",175,l,0.33870788605599955,colour,0.5
144,21,0,1,16,25,775,1575.4319666617303,1576.1590298629744,"[90, 0, 164]",164,l,0.20369474735707627,colour,0.5
144,21,0,1,16,26,776,1576.6762783450922,1577.743048225646,"[23, 0, 231]",231,a,0.51997389589269,colour,0.5
144,21,0,1,16,27,777,1578.266339091886,1579.4070263687718,"[83, 0, 171]",171,l,0.6224963214790478,colour,0.5
144,21,0,1,16,28,778,1579.9241011648392,1583.654987822285,"[75, 0, 179]",179,l,3.1988949471142405,colour,0.5
144,21,0,1,16,29,779,1584.1687397403148,1586.182988298051,"[13, 0, 241]",241,a,1.4959709562263015,colour,0.5
144,21,0,1,16,30,780,1586.690385118296,1588.2390376926305,"[81, 0, 173]",173,l,1.031272941525458,colour,0.5
144,21,0,1,16,31,781,1588.7539014376962,1589.7189877844758,"[67, 0, 187]",187,l,0.44189276048200554,colour,0.5
144,21,0,1,16,32,782,1590.226130967947,1591.0949739746611,"[58, 0, 196]",196,l,0.34553953740396537,colour,0.5
144,21,0,1,16,33,783,1591.590101312926,1592.6709791482226,"[37, 0, 217]",217,a,0.5581635594862746,colour,0.5
144,21,0,1,16,34,784,1593.179483857044,1594.0069505928168,"[64, 0, 190]",190,l,0.3041447557043284,colour,0.5
144,21,0,1,16,35,785,1594.523156564781,1595.246987866396,"[98, 0, 156]",156,l,0.20048450925241923,colour,0.5
144,21,0,1,16,36,786,1595.7576272201095,1596.366996657036,"[74, 0, 180]",180,l,0.08611401681810094,colour,0.5
144,21,0,1,16,37,787,1596.8721997555003,1597.8069729632662,"[45, 0, 209]",209,l,0.40424148426427564,colour,0.5
144,21,0,1,16,38,788,1598.323184055227,1599.6949864201924,"[87, 0, 167]",167,l,0.8542195076606731,colour,0.5
144,21,0,1,16,39,789,1600.2096831745876,1601.527029645571,"[5, 0, 249]",249,a,0.7953222132255178,colour,0.5
144,21,0,1,16,40,790,1602.0404196191994,1603.1190289019887,"[53, 0, 201]",201,a,0.5615896251529193,colour,0.5
144,21,0,1,16,41,791,1603.634906800302,1604.5989900215209,"[89, 0, 165]",165,l,0.43194815097194805,colour,0.5
144,21,0,1,16,42,792,1605.1193865140867,1606.126996798821,"[33, 0, 221]",221,a,0.4752440269330691,colour,0.5
144,21,0,1,16,43,793,1606.6381060107196,1607.5030176474484,"[44, 0, 210]",210,a,0.3458798202809703,colour,0.5
144,21,0,1,16,44,794,1608.0254058188384,1608.6150368797335,"[46, 0, 208]",208,a,0.058748420678966795,colour,0.5
144,21,0,1,16,45,795,1609.134566517425,1610.0390147707985,"[3, 0, 251]",251,a,0.37270624135635444,colour,0.5
144,21,0,1,16,46,796,1610.5565491850539,1611.2630016415496,"[29, 0, 225]",225,a,0.18895978990622098,colour,0.5
144,21,0,1,16,47,797,1611.7777224205456,1612.6230118657895,"[21, 0, 233]",233,a,0.32702759757012245,colour,0.5
144,21,0,1,16,48,798,1613.1416671655388,1613.6630041621647,"[9, 0, 245]",245,a,0.003988477645179955,colour,0.5
144,21,0,1,16,49,799,1614.194598875807,1616.0790011594836,"[43, 0, 211]",211,a,1.3668930755593465,colour,0.5
144,21,0,1,16,50,800,1616.5988730492809,1617.1349674525736,"[63, 0, 191]",191,a,0.011253753351411433,colour,0.5
