id,age,condition,counterbalance,block,trialinblock,trial,tstart,tend,trialstim,trialintensity,response,RT,trialtype,colourfreq
058,67,0,2,Practice,1,NA,3.8496218621730804e-06,0.9160082202288322,"[16, 0, 238]",238,a,0.39431589901505504,colour,0.5
058,67,0,2,Practice,2,NA,1.4230828702420695,2.0760317157837562,"[10, 0, 244]",244,a,0.12099278003734071,colour,0.5
058,67,0,2,Practice,3,NA,2.5885882330912864,3.172003210580442,"[29, 0, 225]",225,a,0.05029215452668723,colour,0.5
058,67,0,2,Practice,4,NA,3.6894099357450614,4.355992231445271,"[34, 0, 220]",220,a,0.13429516236647032,colour,0.5
058,67,0,2,Practice,5,NA,4.8759916796698235,8.308099997870158,"[75, 0, 179]",179,l,2.9030779683962464,colour,0.5
058,67,0,2,Practice,6,NA,8.82307087224035,9.500019248123863,"[87, 0, 167]",167,l,0.1450263153965352,colour,0.5
058,67,0,2,Practice,7,NA,10.005700654364773,10.756112403934821,"[7, 0, 247]",247,a,0.21778713236562908,colour,0.5
058,67,0,2,Practice,8,NA,11.272234316449612,11.884015904084663,"[62, 0, 192]",192,l,0.0790247999393614,colour,0.5
058,67,0,2,Practice,9,NA,12.389141680978355,20.79609686427284,"[60, 0, 194]",194,a,7.8743960097344825,colour,0.5
058,67,0,2,Practice,10,NA,21.305347836154397,22.916194927078323,"[61, 0, 193]",193,l,1.077890122687677,colour,0.5
058,67,0,2,1,1,1,4.6931248247710755,5.312000310543226,"[94, 0, 160]",160,l,0.08574047233560123,colour,0.5
058,67,0,2,1,2,2,5.82612715443247,6.824233138482668,"[12, 0, 242]",242,a,0.4646453564200783,colour,0.5
058,67,0,2,1,3,3,7.327350373059744,8.560163557776832,"[54, 0, 200]",200,l,0.700574171700282,colour,0.5
058,67,0,2,1,4,4,9.076847515680129,10.000082446160377,"[70, 0, 184]",184,l,0.39051054380252026,colour,0.5
058,67,0,2,1,5,5,10.510176486102864,11.15203070975258,"[74, 0, 180]",180,l,0.10911058884812519,colour,0.5
058,67,0,2,1,6,6,11.660104658498312,12.784089239459718,"[4, 0, 250]",250,a,0.591184484976111,colour,0.5
058,67,0,2,1,7,7,13.293058547045803,14.288148349194671,"[47, 0, 207]",207,a,0.46190378117898945,colour,0.5
058,67,0,2,1,8,8,14.793274126088363,15.520121673849644,"[91, 0, 163]",163,l,0.19386170731741004,colour,0.5
058,67,0,2,1,9,9,16.026953155829688,16.95210776643944,"[87, 0, 167]",167,l,0.3925562991789775,colour,0.5
058,67,0,2,1,10,10,17.459690887873876,18.952181230124552,"[90, 0, 164]",164,l,0.9592927723861067,colour,0.5
058,67,0,2,1,11,11,19.460131670042756,20.568021927480004,"[71, 0, 183]",183,l,0.5751392441889038,colour,0.5
058,67,0,2,1,12,12,21.07693605707027,22.128157896266202,"[17, 0, 237]",237,a,0.5186187157378299,colour,0.5
058,67,0,2,1,13,13,22.643556399911176,23.672179330984363,"[27, 0, 227]",227,a,0.4959643088368466,colour,0.5
058,67,0,2,1,14,14,24.176433488421026,25.16806408087723,"[28, 0, 226]",226,a,0.4585254136181902,colour,0.5
058,67,0,2,1,15,15,25.67644279167871,28.04002520222275,"[57, 0, 197]",197,a,1.830439697849215,colour,0.5
058,67,0,2,1,16,16,28.542759078220115,29.488190630916506,"[32, 0, 222]",222,a,0.4119545641442528,colour,0.5
058,67,0,2,1,17,17,29.992967054262408,30.984109706638264,"[63, 0, 191]",191,l,0.45791011507390067,colour,0.5
058,67,0,2,1,18,18,31.493760077210027,32.52008734802075,"[82, 0, 172]",172,l,0.4938989845395554,colour,0.5
058,67,0,2,1,19,19,33.02683766705741,33.94420673005516,"[35, 0, 219]",219,a,0.38469375905697234,colour,0.5
058,67,0,2,1,20,20,34.460243629990146,35.44001577064046,"[19, 0, 235]",235,a,0.4471635635418352,colour,0.5
058,67,0,2,1,21,21,35.943073977628956,36.84813225775724,"[8, 0, 246]",246,a,0.3719274371251231,colour,0.5
058,67,0,2,1,22,22,37.359540944948094,38.288125251434394,"[95, 0, 159]",159,l,0.39529723282612395,colour,0.5
058,67,0,2,1,23,23,38.793008181106416,39.70399648914463,"[2, 0, 252]",252,a,0.37782730962499045,colour,0.5
058,67,0,2,1,24,24,40.20986813107447,41.12817104914575,"[97, 0, 157]",157,l,0.38534723305201624,colour,0.5
058,67,0,2,1,25,25,41.643039266826236,42.54400475301372,"[75, 0, 179]",179,l,0.3678484376723645,colour,0.5
058,67,0,2,1,26,26,43.06037015437323,43.98404907503573,"[31, 0, 223]",223,a,0.39118358673295006,colour,0.5
058,67,0,2,1,27,27,44.49340527001186,45.35210250527598,"[83, 0, 171]",171,l,0.325937239540508,colour,0.5
058,67,0,2,1,28,28,45.85954992740881,46.696193618219695,"[26, 0, 228]",228,a,0.30337458207213785,colour,0.5
058,67,0,2,1,29,29,47.209640040731756,48.184017251463956,"[65, 0, 189]",189,l,0.44119920980301686,colour,0.5
058,67,0,2,1,30,30,48.6928328947979,49.6482012943743,"[11, 0, 243]",243,a,0.4220498873037286,colour,0.5
058,67,0,2,1,31,31,50.160162723695976,51.02411149030377,"[93, 0, 161]",161,l,0.3313058636849746,colour,0.5
058,67,0,2,1,32,32,51.52689637384901,52.376220411621034,"[7, 0, 247]",247,a,0.3167404832493048,colour,0.5
058,67,0,2,1,33,33,52.89351228962187,54.12820633739466,"[99, 0, 155]",155,l,0.7020813002600335,colour,0.5
058,67,0,2,1,34,34,54.64345534723543,55.832068731222535,"[45, 0, 209]",209,a,0.6559422504797112,colour,0.5
058,67,0,2,1,35,35,56.34436507799546,57.36816154058033,"[92, 0, 162]",162,l,0.49202646233607084,colour,0.5
058,67,0,2,1,36,36,57.876297083334066,58.776269366033375,"[15, 0, 239]",239,a,0.3668228331662249,colour,0.5
058,67,0,2,1,37,37,59.2928519504494,60.10416702757357,"[21, 0, 233]",233,a,0.278020304205711,colour,0.5
058,67,0,2,1,38,38,60.61036781250732,61.61616438673809,"[60, 0, 194]",194,a,0.47336026788980234,colour,0.5
058,67,0,2,1,39,39,62.126858326708316,63.00002309776028,"[49, 0, 205]",205,a,0.3405738380679395,colour,0.5
058,67,0,2,1,40,40,63.51019220541639,64.40021448832704,"[96, 0, 158]",158,l,0.35741723464161623,colour,0.5
058,67,0,2,1,41,41,64.91017058334546,65.75204591578222,"[23, 0, 231]",231,a,0.3092808706423966,colour,0.5
058,67,0,2,1,42,42,66.25989530301013,67.06412450203788,"[20, 0, 234]",234,a,0.271359809776186,colour,0.5
058,67,0,2,1,43,43,67.57657419223688,68.36804348537407,"[13, 0, 241]",241,a,0.25861883121251594,colour,0.5
058,67,0,2,1,44,44,68.87628168483207,69.75208120401658,"[67, 0, 187]",187,l,0.34265937290911097,colour,0.5
058,67,0,2,1,45,45,70.26020391468774,71.10415740350436,"[33, 0, 221]",221,a,0.3113779543491546,colour,0.5
058,67,0,2,1,46,46,71.61096578773868,72.98406383192923,"[14, 0, 240]",240,a,0.8413148910476593,colour,0.5
058,67,0,2,1,47,47,73.49402634298895,74.48004546409356,"[66, 0, 188]",188,l,0.4539677773573203,colour,0.5
058,67,0,2,1,48,48,74.99301357057993,75.81603151047602,"[16, 0, 238]",238,a,0.2899518989288481,colour,0.5
058,67,0,2,1,49,49,76.32673924494884,77.19203730544541,"[81, 0, 173]",173,l,0.33264392949058674,colour,0.5
058,67,0,2,1,50,50,77.70994801080087,79.01621109552798,"[84, 0, 170]",170,l,0.7734841616766062,colour,0.5
058,67,0,2,2,1,51,84.34286500710004,85.336064322124,"[91, 0, 163]",163,l,0.4599834594409913,colour,0.5
058,67,0,2,2,2,52,85.8437619699398,86.40808857732918,"[4, 0, 250]",250,a,0.032001940213376656,colour,0.5
058,67,0,2,2,3,53,86.90978177112993,87.76018530815782,"[31, 0, 223]",223,a,0.31747319536225405,colour,0.5
058,67,0,2,2,4,54,88.27711692533921,89.04019105693442,"[89, 0, 165]",165,l,0.2308181160769891,colour,0.5
058,67,0,2,2,5,55,89.5432556799642,90.58406107303745,"[95, 0, 159]",159,l,0.5080274324282072,colour,0.5
058,67,0,2,2,6,56,91.09308395457629,91.85612953478994,"[1, 0, 253]",253,a,0.23009534883021843,colour,0.5
058,67,0,2,2,7,57,92.35956051388348,93.40016508479312,"[64, 0, 190]",190,l,0.5074830311641563,colour,0.5
058,67,0,2,2,8,58,93.91003584643477,94.62403109727893,"[6, 0, 248]",248,a,0.18132892936409917,colour,0.5
058,67,0,2,2,9,59,95.12683651216503,96.08808264890104,"[19, 0, 235]",235,a,0.4287212890048977,colour,0.5
058,67,0,2,2,10,60,96.5927859293588,97.46413624340494,"[29, 0, 225]",225,a,0.33801736566238105,colour,0.5
058,67,0,2,2,11,61,97.97712006919028,98.86415408000175,"[76, 0, 178]",178,l,0.35480526347237173,colour,0.5
058,67,0,2,2,12,62,99.37652774008166,100.20823204005137,"[96, 0, 158]",158,l,0.2988814270211151,colour,0.5
058,67,0,2,2,13,63,100.70978247688618,102.57619981611788,"[54, 0, 200]",200,a,1.3335222858004272,colour,0.5
058,67,0,2,2,14,64,103.09352922797552,103.98417290467478,"[74, 0, 180]",180,l,0.3581586084474111,colour,0.5
058,67,0,2,2,15,65,104.49287562565587,105.32827011286281,"[0, 0, 254]",254,a,0.30227102265052963,colour,0.5
058,67,0,2,2,16,66,105.84267990424996,106.66416986346303,"[83, 0, 171]",171,l,0.2881656724930508,colour,0.5
058,67,0,2,2,17,67,107.17641808990447,108.1201047996583,"[42, 0, 212]",212,a,0.4107817114563659,colour,0.5
058,67,0,2,2,18,68,108.62707069773751,109.47210208182514,"[21, 0, 233]",233,a,0.31279397508478723,colour,0.5
058,67,0,2,2,19,69,109.97675820435688,110.81620089401258,"[11, 0, 243]",243,a,0.306897631380707,colour,0.5
058,67,0,2,2,20,70,111.32687013223767,112.20005158499407,"[90, 0, 164]",164,l,0.3407230110751698,colour,0.5
058,67,0,2,2,21,71,112.70924128365004,113.87209104622889,"[56, 0, 198]",198,l,0.6294532953761518,colour,0.5
058,67,0,2,2,22,72,114.37627238157438,115.53618038834247,"[20, 0, 234]",234,a,0.6268801412516041,colour,0.5
058,67,0,2,2,23,73,116.04343340436753,117.00006480203592,"[75, 0, 179]",179,l,0.42409852988203056,colour,0.5
058,67,0,2,2,24,74,117.51007928304898,118.3762345269206,"[13, 0, 241]",241,a,0.33352741863927804,colour,0.5
058,67,0,2,2,25,75,118.89343112666393,119.66412078074063,"[10, 0, 244]",244,a,0.2381474830181105,colour,0.5
058,67,0,2,2,26,76,120.1762522351928,121.04813411840587,"[22, 0, 232]",232,a,0.33885337608808186,colour,0.5
058,67,0,2,2,27,77,121.55968235453474,122.5040510896797,"[53, 0, 201]",201,a,0.4114358270599041,colour,0.5
058,67,0,2,2,28,78,123.01002153866284,123.87205639958847,"[33, 0, 221]",221,a,0.32944841918651946,colour,0.5
058,67,0,2,2,29,79,124.37644368992187,125.2961658367567,"[97, 0, 157]",157,l,0.38688483780424576,colour,0.5
058,67,0,2,2,30,80,125.81100261582469,126.7680840989342,"[41, 0, 213]",213,a,0.42547412955900654,colour,0.5
058,67,0,2,2,31,81,127.27651093005261,128.21610195863468,"[40, 0, 214]",214,a,0.4067941406101454,colour,0.5
058,67,0,2,2,32,82,128.72740446031094,129.61620961983863,"[98, 0, 156]",156,l,0.3569450138747925,colour,0.5
058,67,0,2,2,33,83,130.12668413114443,131.80010881609633,"[68, 0, 186]",186,l,1.140840488820686,colour,0.5
058,67,0,2,2,34,84,132.31054483113985,133.248260771099,"[30, 0, 224]",224,a,0.4056716538616456,colour,0.5
058,67,0,2,2,35,85,133.7605109223514,134.60823319494375,"[45, 0, 209]",209,a,0.31563660301617347,colour,0.5
058,67,0,2,2,36,86,135.1098657571274,135.8880564072897,"[32, 0, 222]",222,a,0.24547171712038107,colour,0.5
058,67,0,2,2,37,87,136.39328002884577,137.15225976250076,"[9, 0, 245]",245,a,0.2263499836117262,colour,0.5
058,67,0,2,2,38,88,137.66001258828328,138.2881788254017,"[49, 0, 205]",205,a,0.09556920890463516,colour,0.5
058,67,0,2,2,39,89,138.79389134944358,139.47210625224398,"[87, 0, 167]",167,l,0.1461962808680255,colour,0.5
058,67,0,2,2,40,90,139.975958444571,140.5520860802062,"[5, 0, 249]",249,a,0.0428495444211876,colour,0.5
058,67,0,2,2,41,91,141.05937887569598,142.0801553067431,"[60, 0, 194]",194,l,0.4875746907637222,colour,0.5
058,67,0,2,2,42,92,142.59315068142314,143.41608072152303,"[80, 0, 174]",174,l,0.29017485641816165,colour,0.5
058,67,0,2,2,43,93,143.92598035535775,144.56009715172695,"[93, 0, 161]",161,l,0.100828760289005,colour,0.5
058,67,0,2,2,44,94,145.077616478462,145.80007416947046,"[70, 0, 184]",184,l,0.19082627729221713,colour,0.5
058,67,0,2,2,45,95,146.30937518646533,146.96805772899825,"[85, 0, 169]",169,l,0.12547406539670192,colour,0.5
058,67,0,2,2,46,96,147.47623850486707,148.12819575091999,"[69, 0, 185]",185,l,0.11896691439324059,colour,0.5
058,67,0,2,2,47,97,148.64302386832424,149.24015153411892,"[15, 0, 239]",239,a,0.0642184970784001,colour,0.5
058,67,0,2,2,48,98,149.74273431229813,150.2961183580337,"[24, 0, 230]",230,a,0.020232029783073813,colour,0.5
058,67,0,2,2,49,99,150.80992087094637,151.38422057587013,"[77, 0, 177]",177,l,0.04166803006955888,colour,0.5
058,67,0,2,2,50,100,151.8930211415136,153.02411373592622,"[65, 0, 189]",189,l,0.5982382828660775,colour,0.5
058,67,0,2,3,1,101,157.99253717936517,158.92010261819814,"[20, 0, 234]",234,a,0.39424660574877635,colour,0.5
058,67,0,2,3,2,102,159.4266245260951,160.09608955000294,"[15, 0, 239]",239,a,0.1369061711448012,colour,0.5
058,67,0,2,3,3,103,160.60994210804347,161.32819344113523,"[6, 0, 248]",248,a,0.18568157305708155,colour,0.5
058,67,0,2,3,4,104,161.84239952317148,162.46410223837302,"[35, 0, 219]",219,a,0.08825363645155448,colour,0.5
058,67,0,2,3,5,105,162.97617241961416,163.56017286103452,"[60, 0, 194]",194,l,0.050993107244721614,colour,0.5
058,67,0,2,3,6,106,164.07628643271164,164.66409351254697,"[68, 0, 186]",186,l,0.054908497593714856,colour,0.5
058,67,0,2,3,7,107,165.17614637047518,166.21609329697094,"[49, 0, 205]",205,a,0.5069283642369555,colour,0.5
058,67,0,2,3,8,108,166.72614114140742,167.59219244537235,"[41, 0, 213]",213,a,0.33301958882657345,colour,0.5
058,67,0,2,3,9,109,168.11019554175436,169.3200858081691,"[58, 0, 196]",196,l,0.6775967170397053,colour,0.5
058,67,0,2,3,10,110,169.82679763094347,171.42409339705773,"[48, 0, 206]",206,l,1.0649460763670504,colour,0.5
058,67,0,2,3,11,111,171.92641792951326,172.81608925486216,"[21, 0, 233]",233,a,0.35693089857522864,colour,0.5
058,67,0,2,3,12,112,173.32593531474413,174.19209152100666,"[70, 0, 184]",184,l,0.33293938827409875,colour,0.5
058,67,0,2,3,13,113,174.71005932915432,175.54408848237654,"[85, 0, 169]",169,l,0.30160920778871514,colour,0.5
058,67,0,2,3,14,114,176.0594151263358,176.88023557144334,"[47, 0, 207]",207,a,0.2877640281949425,colour,0.5
058,67,0,2,3,15,115,177.39280427925405,178.16819079773268,"[33, 0, 221]",221,a,0.24238784596673213,colour,0.5
058,67,0,2,3,16,116,178.6772502507083,179.4721219715575,"[88, 0, 166]",166,l,0.2629830238001887,colour,0.5
058,67,0,2,3,17,117,179.9765731015068,180.79208908291184,"[0, 0, 254]",254,a,0.28296707350818906,colour,0.5
058,67,0,2,3,18,118,181.3100042795122,181.92009716456232,"[8, 0, 246]",246,a,0.07762802732759155,colour,0.5
058,67,0,2,3,19,119,182.42646733304719,183.0162502333842,"[40, 0, 214]",214,a,0.057132618967443705,colour,0.5
058,67,0,2,3,20,120,183.52667534115608,184.48805813962827,"[75, 0, 179]",179,l,0.42893750967050437,colour,0.5
058,67,0,2,3,21,121,184.99244350513618,185.7200882462639,"[84, 0, 170]",170,l,0.1942996022698935,colour,0.5
058,67,0,2,3,22,122,186.22639297110436,187.04019137774594,"[94, 0, 160]",160,l,0.28108011520816945,colour,0.5
058,67,0,2,3,23,123,187.54347863746807,188.17613097197318,"[23, 0, 231]",231,a,0.10035493550822139,colour,0.5
058,67,0,2,3,24,124,188.69358581746928,191.33609672314196,"[22, 0, 232]",232,a,2.110292423996725,colour,0.5
058,67,0,2,3,25,125,191.84270845564606,192.46421259430645,"[81, 0, 173]",173,l,0.08844932576175779,colour,0.5
058,67,0,2,3,26,126,192.97643162775785,194.65615205508948,"[93, 0, 161]",161,l,1.1470618050952908,colour,0.5
058,67,0,2,3,27,127,195.15947011183016,196.16808749943448,"[76, 0, 178]",178,l,0.475671647436684,colour,0.5
058,67,0,2,3,28,128,196.67621213493112,197.54408110392978,"[87, 0, 167]",167,l,0.3349982965446543,colour,0.5
058,67,0,2,3,29,129,198.06006090108713,198.98408372167614,"[9, 0, 245]",245,a,0.3916416922293138,colour,0.5
058,67,0,2,3,30,130,199.49389898453956,200.37620405071357,"[46, 0, 208]",208,a,0.35045967741461936,colour,0.5
058,67,0,2,3,31,131,200.8932197180402,202.46411378725315,"[63, 0, 191]",191,l,1.0383862239978043,colour,0.5
058,67,0,2,3,32,132,202.97559978776553,203.85610707863816,"[67, 0, 187]",187,l,0.34703607676783577,colour,0.5
058,67,0,2,3,33,133,204.3598181180132,205.21620204890496,"[79, 0, 175]",175,l,0.32380583000485785,colour,0.5
058,67,0,2,3,34,134,205.72611226921435,206.57610068825306,"[78, 0, 176]",176,l,0.3170446036965586,colour,0.5
058,67,0,2,3,35,135,207.09244267105532,207.97608387822402,"[14, 0, 240]",240,a,0.3503512462921208,colour,0.5
058,67,0,2,3,36,136,208.49239057277737,209.3761334742303,"[72, 0, 182]",182,l,0.35035926633281633,colour,0.5
058,67,0,2,3,37,137,209.89274332684,210.83218133277842,"[82, 0, 172]",172,l,0.4064617895637639,colour,0.5
058,67,0,2,3,38,138,211.3425201447826,212.4648721635458,"[56, 0, 198]",198,a,0.5891547697101487,colour,0.5
058,67,0,2,3,39,139,212.9765929912537,213.8401381887379,"[42, 0, 212]",212,a,0.33109188864182215,colour,0.5
058,67,0,2,3,40,140,214.34277165366802,215.18410611366562,"[27, 0, 227]",227,a,0.3084082887653494,colour,0.5
058,67,0,2,3,41,141,215.69303917059733,216.6801243172522,"[37, 0, 217]",217,a,0.45442492041911464,colour,0.5
058,67,0,2,3,42,142,217.19341226349934,218.04013267093978,"[55, 0, 199]",199,a,0.31437970013939776,colour,0.5
058,67,0,2,3,43,143,218.54328968499613,219.45610496134032,"[77, 0, 177]",177,l,0.38041489984607324,colour,0.5
058,67,0,2,3,44,144,219.96037130925106,220.85610739943513,"[98, 0, 156]",156,l,0.3637498692696681,colour,0.5
058,67,0,2,3,45,145,221.35966284976166,222.36813940522552,"[4, 0, 250]",250,a,0.4757537728000898,colour,0.5
058,67,0,2,3,46,146,222.87576743897807,223.7041065242811,"[43, 0, 211]",211,a,0.2950645229284419,colour,0.5
058,67,0,2,3,47,147,224.20964324875968,225.03216458691168,"[2, 0, 252]",252,a,0.2898306357092224,colour,0.5
058,67,0,2,3,48,148,225.54305453701818,226.38429468116374,"[51, 0, 203]",203,a,0.30860205325006973,colour,0.5
058,67,0,2,3,49,149,226.89278503111564,227.7122481622937,"[74, 0, 180]",180,l,0.28657288978865836,colour,0.5
058,67,0,2,3,50,150,228.22619311136077,229.06424833167694,"[5, 0, 249]",249,a,0.30522432732686866,colour,0.5
058,67,0,2,4,1,151,234.45819402500638,235.60820560595312,"[9, 0, 245]",245,a,0.6158965169161092,colour,0.5
058,67,0,2,4,2,152,236.10961906026932,236.9522492401884,"[11, 0, 243]",243,a,0.3098737130203517,colour,0.5
058,67,0,2,4,3,153,237.45976659718144,238.24012651154771,"[26, 0, 228]",228,a,0.2478171017137356,colour,0.5
058,67,0,2,4,4,154,238.74266533982882,239.58412747908733,"[79, 0, 175]",175,l,0.30847437400370836,colour,0.5
058,67,0,2,4,5,155,240.09291649585066,240.92020238767145,"[31, 0, 223]",223,a,0.29457305402320344,colour,0.5
058,67,0,2,4,6,156,241.42668483690068,242.26412796670047,"[48, 0, 206]",206,a,0.3051643373182742,colour,0.5
058,67,0,2,4,7,157,242.77613559152815,243.5842898049741,"[88, 0, 166]",166,l,0.27531209237349685,colour,0.5
058,67,0,2,4,8,158,244.0931295084738,244.92810053683934,"[43, 0, 211]",211,a,0.3024442558235023,colour,0.5
058,67,0,2,4,9,159,245.44241344598413,246.27224041170848,"[17, 0, 237]",237,a,0.2966213758190861,colour,0.5
058,67,0,2,4,10,160,246.7760926040355,247.60811866857694,"[77, 0, 177]",177,l,0.29916437453357503,colour,0.5
058,67,0,2,4,11,161,248.10948528577865,248.94411594304256,"[46, 0, 208]",208,a,0.3018321652925806,colour,0.5
058,67,0,2,4,12,162,249.458907809807,250.20016097852204,"[6, 0, 248]",248,a,0.20787851607019547,colour,0.5
058,67,0,2,4,13,163,250.70959352441423,251.5282325148437,"[97, 0, 157]",157,l,0.28595438321644906,colour,0.5
058,67,0,2,4,14,164,252.0429602211807,252.83224870123377,"[92, 0, 162]",162,l,0.2566375570750097,colour,0.5
058,67,0,2,4,15,165,253.34262055584986,254.00014821060176,"[22, 0, 232]",232,a,0.12446418018953409,colour,0.5
058,67,0,2,4,16,166,254.50885317719076,255.64014948098338,"[60, 0, 194]",194,l,0.5978430546092568,colour,0.5
058,67,0,2,4,17,167,256.1426222240261,256.91214512063016,"[86, 0, 168]",168,l,0.23654250981053337,colour,0.5
058,67,0,2,4,18,168,257.4264477641118,258.1761370672175,"[12, 0, 242]",242,a,0.2171795330796158,colour,0.5
058,67,0,2,4,19,169,258.6930170352425,259.6321541287616,"[73, 0, 181]",181,l,0.4065253083972493,colour,0.5
058,67,0,2,4,20,170,260.1422549055569,261.16808878265147,"[18, 0, 236]",236,a,0.4924948334955843,colour,0.5
058,67,0,2,4,21,171,261.67628174899437,262.4643707497744,"[42, 0, 212]",212,a,0.2554239625023911,colour,0.5
058,67,0,2,4,22,172,262.976005923294,263.80810160189867,"[24, 0, 230]",230,a,0.2991871514823288,colour,0.5
058,67,0,2,4,23,173,264.30975597864017,265.1681144468166,"[10, 0, 244]",244,a,0.3258676254772581,colour,0.5
058,67,0,2,4,24,174,265.6763372477726,266.52826202864526,"[3, 0, 251]",251,a,0.3193216574145481,colour,0.5
058,67,0,2,4,25,175,267.04273630127136,267.86419674668286,"[95, 0, 159]",159,l,0.2886058130534366,colour,0.5
058,67,0,2,4,26,176,268.3758755493036,269.5201037089282,"[57, 0, 197]",197,a,0.6111954820808023,colour,0.5
058,67,0,2,4,27,177,270.0263291956362,270.88013002753723,"[78, 0, 176]",176,l,0.3211973876459524,colour,0.5
058,67,0,2,4,28,178,271.39280107122613,272.2803332877811,"[36, 0, 218]",218,a,0.3547696544264909,colour,0.5
058,67,0,2,4,29,179,272.7921872483712,273.63232768273156,"[99, 0, 155]",155,l,0.306779576203553,colour,0.5
058,67,0,2,4,30,180,274.1426161287818,275.0802528306085,"[25, 0, 229]",229,a,0.40470218974223826,colour,0.5
058,67,0,2,4,31,181,275.5928792827908,276.4001695760235,"[4, 0, 250]",250,a,0.274624613346532,colour,0.5
058,67,0,2,4,32,182,276.90936536992376,278.17630067632126,"[58, 0, 196]",196,l,0.7340906189056113,colour,0.5
058,67,0,2,4,33,183,278.6926776265609,279.5522108722507,"[66, 0, 188]",188,l,0.32666546045220457,colour,0.5
058,67,0,2,4,34,184,280.05932401852624,280.8241259905626,"[69, 0, 185]",185,l,0.23192841235140804,colour,0.5
058,67,0,2,4,35,185,281.32587468312704,282.1841189457482,"[34, 0, 220]",220,a,0.325245910891681,colour,0.5
058,67,0,2,4,36,186,282.69306002273515,283.4881223000557,"[61, 0, 193]",193,l,0.26254801606410183,colour,0.5
058,67,0,2,4,37,187,283.99260069819866,284.80028397408023,"[5, 0, 249]",249,a,0.2747458765661577,colour,0.5
058,67,0,2,4,38,188,285.3088654318417,286.05631296946376,"[70, 0, 184]",184,l,0.2141271005384624,colour,0.5
058,67,0,2,4,39,189,286.559628780582,287.2961475510383,"[21, 0, 233]",233,a,0.20392687508137897,colour,0.5
058,67,0,2,4,40,190,287.809588199103,288.60814176632266,"[64, 0, 190]",190,l,0.26595910541072953,colour,0.5
058,67,0,2,4,41,191,289.12588854179194,290.0401352373592,"[56, 0, 198]",198,a,0.38129389776440803,colour,0.5
058,67,0,2,4,42,192,290.54249634125154,291.400138137411,"[19, 0, 235]",235,a,0.32464440683543216,colour,0.5
058,67,0,2,4,43,193,291.90994602182764,292.6242854933953,"[55, 0, 199]",199,a,0.1821087994176196,colour,0.5
058,67,0,2,4,44,194,293.1259267172427,293.94431804839405,"[94, 0, 160]",160,l,0.2854584230663022,colour,0.5
058,67,0,2,4,45,195,294.4594881409139,295.8561298555869,"[67, 0, 187]",187,l,0.8639490874193143,colour,0.5
058,67,0,2,4,46,196,296.3596436016378,297.19216755112575,"[82, 0, 172]",172,l,0.29998787367367186,colour,0.5
058,67,0,2,4,47,197,297.7091905969137,298.6483010638476,"[0, 0, 254]",254,a,0.40615061148128007,colour,0.5
058,67,0,2,4,48,198,299.15979540522676,300.05619234785263,"[84, 0, 170]",170,l,0.3640376288094558,colour,0.5
058,67,0,2,4,49,199,300.5587513866776,301.5122706826078,"[72, 0, 182]",182,l,0.4201148086867761,colour,0.5
058,67,0,2,4,50,200,302.02567315522174,302.85631912885583,"[23, 0, 231]",231,a,0.29746733111096546,colour,0.5
058,67,0,2,5,1,201,309.6583145824552,310.3282223133283,"[79, 0, 175]",175,l,0.13609839130367618,colour,0.5
058,67,0,2,5,2,202,310.84342384446063,312.88031577198126,"[97, 0, 157]",157,l,1.504855019869865,colour,0.5
058,67,0,2,5,3,203,313.3922877877776,314.12023151651374,"[72, 0, 182]",182,l,0.19477727668709122,colour,0.5
058,67,0,2,5,4,204,314.626119840148,315.360247030505,"[54, 0, 200]",200,a,0.20146247289085295,colour,0.5
058,67,0,2,5,5,205,315.87538728841173,316.7201565771247,"[21, 0, 233]",233,a,0.3113731423218269,colour,0.5
058,67,0,2,5,6,206,317.2258168104163,318.0081698685972,"[30, 0, 224]",224,a,0.2493909571057884,colour,0.5
058,67,0,2,5,7,207,318.52555798724643,319.33614291864797,"[85, 0, 169]",169,l,0.27735079010017216,colour,0.5
058,67,0,2,5,8,208,319.84222244037664,320.9283388928452,"[59, 0, 195]",195,l,0.5529198450240074,colour,0.5
058,67,0,2,5,9,209,321.4422017165489,322.1283025780285,"[7, 0, 247]",247,a,0.1528442640119465,colour,0.5
058,67,0,2,5,10,210,322.64283363264985,323.32028085588536,"[31, 0, 223]",223,a,0.14483415491122287,colour,0.5
058,67,0,2,5,11,211,323.82602257293183,324.44813527329825,"[12, 0, 242]",242,a,0.08938446406682488,colour,0.5
058,67,0,2,5,12,212,324.9591506570432,325.66416120181384,"[76, 0, 178]",178,l,0.17207539107766934,colour,0.5
058,67,0,2,5,13,213,326.17640333301097,326.8241112336691,"[3, 0, 251]",251,a,0.11533864197554067,colour,0.5
058,67,0,2,5,14,214,327.32542556010594,328.31214884194196,"[71, 0, 183]",183,l,0.45340926079370547,colour,0.5
058,67,0,2,5,15,215,328.8257162068621,329.46415741633973,"[41, 0, 213]",213,a,0.10539313341723755,colour,0.5
058,67,0,2,5,16,216,329.9761037679564,330.7923091531993,"[14, 0, 240]",240,a,0.283536497343448,colour,0.5
058,67,0,2,5,17,217,331.30881699071324,332.1281662371184,"[24, 0, 230]",230,a,0.28609521537146065,colour,0.5
058,67,0,2,5,18,218,332.6430443996651,333.51215006099665,"[44, 0, 210]",210,a,0.3367505179485306,colour,0.5
058,67,0,2,5,19,219,334.0261671905464,334.8721529610484,"[78, 0, 176]",176,l,0.31341953929222655,colour,0.5
058,67,0,2,5,20,220,335.3760407624068,336.2561483337922,"[27, 0, 227]",227,a,0.3474085280759027,colour,0.5
058,67,0,2,5,21,221,336.75956744320865,337.6242068968713,"[70, 0, 184]",184,l,0.3321473277610494,colour,0.5
058,67,0,2,5,22,222,338.1266154794721,338.9842720325396,"[74, 0, 180]",180,l,0.3255484273395268,colour,0.5
058,67,0,2,5,23,223,339.4930328187038,340.32817451380834,"[86, 0, 168]",168,l,0.3027875141124241,colour,0.5
058,67,0,2,5,24,224,340.8426250470802,341.62414883167366,"[0, 0, 254]",254,a,0.24876635528926272,colour,0.5
058,67,0,2,5,25,225,342.12549106791266,342.7761471404083,"[87, 0, 167]",167,l,0.1174495201848913,colour,0.5
058,67,0,2,5,26,226,343.29257862700615,344.42433046986116,"[65, 0, 189]",189,l,0.598946614030865,colour,0.5
058,67,0,2,5,27,227,344.9251116231171,346.04023404442705,"[61, 0, 193]",193,l,0.5815212823363254,colour,0.5
058,67,0,2,5,28,228,346.5420202708483,347.40017952088965,"[89, 0, 165]",165,l,0.3248137903865427,colour,0.5
058,67,0,2,5,29,229,347.90892875818827,348.608178337774,"[1, 0, 253]",253,a,0.16616396968311165,colour,0.5
058,67,0,2,5,30,230,349.12549395512906,349.85635024667135,"[10, 0, 244]",244,a,0.19764877681154758,colour,0.5
058,67,0,2,5,31,231,350.35950469430827,351.0963157155202,"[35, 0, 219]",219,a,0.2042839278728934,colour,0.5
058,67,0,2,5,32,232,351.60914459388005,352.3681839967321,"[98, 0, 156]",156,l,0.22616295595071279,colour,0.5
058,67,0,2,5,33,233,352.8757841206825,353.78434844761796,"[26, 0, 228]",228,a,0.3756612534634769,colour,0.5
058,67,0,2,5,34,234,354.2927143263223,355.0643266074039,"[96, 0, 158]",158,l,0.23899151349905878,colour,0.5
058,67,0,2,5,35,235,355.5761536206119,356.3841872124467,"[88, 0, 166]",166,l,0.27551580175349955,colour,0.5
058,67,0,2,5,36,236,356.89209145684435,357.79216928344977,"[90, 0, 164]",164,l,0.3668391940591391,colour,0.5
058,67,0,2,5,37,237,358.308887246385,359.0962820312998,"[5, 0, 249]",249,a,0.2542828692239709,colour,0.5
058,67,0,2,5,38,238,359.6094307494059,360.4721912648238,"[8, 0, 246]",246,a,0.33019973784394097,colour,0.5
058,67,0,2,5,39,239,360.9759988656442,361.60126825925545,"[36, 0, 218]",218,a,0.09262584907992277,colour,0.5
058,67,0,2,5,40,240,362.1089906088455,362.9042286857439,"[92, 0, 162]",162,l,0.2622342715476407,colour,0.5
058,67,0,2,5,41,241,363.40943466319004,364.6163202965836,"[64, 0, 190]",190,l,0.6743068908981513,colour,0.5
058,67,0,2,5,42,242,365.1260293739324,365.9363704957068,"[84, 0, 170]",170,l,0.27771714617847465,colour,0.5
058,67,0,2,5,43,243,366.4427525338542,367.2002280261804,"[99, 0, 155]",155,l,0.22491856437409297,colour,0.5
058,67,0,2,5,44,244,367.70943408574385,368.4802758000442,"[6, 0, 248]",248,a,0.23830050566175487,colour,0.5
058,67,0,2,5,45,245,368.9923963472247,369.58420639640826,"[9, 0, 245]",245,a,0.05889414361445233,colour,0.5
058,67,0,2,5,46,246,370.0930525159638,370.76826310653996,"[55, 0, 199]",199,a,0.14296516153262928,colour,0.5
058,67,0,2,5,47,247,371.27566497476073,371.9921441967308,"[2, 0, 252]",252,a,0.18351519608404487,colour,0.5
058,67,0,2,5,48,248,372.5091402951366,373.32823578701937,"[39, 0, 215]",215,a,0.28627807258453686,colour,0.5
058,67,0,2,5,49,249,373.8426314631215,374.6481987279549,"[40, 0, 214]",214,a,0.27291313382738736,colour,0.5
058,67,0,2,5,50,250,375.15884069800086,375.95219374141016,"[23, 0, 231]",231,a,0.2602456189633813,colour,0.5
058,67,0,2,6,1,251,380.9417378366343,381.80031733750366,"[79, 0, 175]",175,l,0.32500819649430923,colour,0.5
058,67,0,2,6,2,252,382.30913875528495,382.9281852286076,"[62, 0, 192]",192,a,0.08626337985333521,colour,0.5
058,67,0,2,6,3,253,383.4425597317604,384.4802408326068,"[3, 0, 251]",251,a,0.5049730750761228,colour,0.5
058,67,0,2,6,4,254,384.99200208137336,385.8163150995824,"[8, 0, 246]",246,a,0.2910198493045755,colour,0.5
058,67,0,2,6,5,255,386.3260382922308,387.1203072258213,"[30, 0, 224]",224,a,0.2616853790677851,colour,0.5
058,67,0,2,6,6,256,387.6254432683927,388.4882018589851,"[99, 0, 155]",155,l,0.32962197314191144,colour,0.5
058,67,0,2,6,7,257,388.99193920414837,389.8721866452688,"[28, 0, 226]",226,a,0.3469350240920903,colour,0.5
058,67,0,2,6,8,258,390.37519993995375,391.20018664270174,"[88, 0, 166]",166,l,0.2916123709001113,colour,0.5
058,67,0,2,6,9,259,391.70935228119197,392.4881550218706,"[41, 0, 213]",213,a,0.24625062475388404,colour,0.5
058,67,0,2,6,10,260,392.991919314416,393.9201757610863,"[80, 0, 174]",174,a,0.3949488416692475,colour,0.5
058,67,0,2,6,11,261,394.42548856565554,395.99232577074145,"[65, 0, 189]",189,l,1.0337644272658508,colour,0.5
058,67,0,2,6,12,262,396.50899689656217,397.5683298975491,"[24, 0, 230]",230,a,0.5264193410403095,colour,0.5
058,67,0,2,6,13,263,398.0763079264434,398.95223191687546,"[92, 0, 162]",162,l,0.34367278694116976,colour,0.5
058,67,0,2,6,14,264,399.45891230103734,400.3281879874994,"[81, 0, 173]",173,a,0.3362972244794946,colour,0.5
058,67,0,2,6,15,265,400.84269883157685,401.80827708067955,"[1, 0, 253]",253,l,0.4330569301964715,colour,0.5
058,67,0,2,6,16,266,402.3260912245896,403.3443111832312,"[63, 0, 191]",191,a,0.48570954700699076,colour,0.5
058,67,0,2,6,17,267,403.8590857266827,404.6561719448364,"[27, 0, 227]",227,a,0.2643082575232256,colour,0.5
058,67,0,2,6,18,268,405.15852246225404,406.0241952196666,"[71, 0, 183]",183,l,0.3322971423622221,colour,0.5
058,67,0,2,6,19,269,406.5258473507856,407.4642077822791,"[96, 0, 158]",158,l,0.4056719746586168,colour,0.5
058,67,0,2,6,20,270,407.9751782537205,409.32036554765364,"[68, 0, 186]",186,a,0.811837022236432,colour,0.5
058,67,0,2,6,21,271,409.8258114851051,410.66418205395166,"[85, 0, 169]",169,l,0.30565580623806454,colour,0.5
058,67,0,2,6,22,272,411.17598789421027,412.03220244156546,"[35, 0, 219]",219,a,0.32365409057820216,colour,0.5
058,67,0,2,6,23,273,412.5426031683746,413.5363693408144,"[48, 0, 206]",206,a,0.46117940988915507,colour,0.5
058,67,0,2,6,24,274,414.0433278604469,414.96021315379767,"[86, 0, 168]",168,l,0.38503284694161266,colour,0.5
058,67,0,2,6,25,275,415.475428800215,416.69623853052326,"[20, 0, 234]",234,a,0.6877270076220157,colour,0.5
058,67,0,2,6,26,276,417.2098302764207,418.04025970860675,"[16, 0, 238]",238,a,0.2984053566324292,colour,0.5
058,67,0,2,6,27,277,418.5420119299961,419.4723705932265,"[69, 0, 185]",185,l,0.39720311845303513,colour,0.5
058,67,0,2,6,28,278,419.9757848906156,420.83220186411927,"[34, 0, 220]",220,a,0.32370349411212374,colour,0.5
058,67,0,2,6,29,279,421.3422359140677,422.1442076282983,"[7, 0, 247]",247,a,0.2689999891008483,colour,0.5
058,67,0,2,6,30,280,422.6593219012284,423.44837779972295,"[32, 0, 222]",222,a,0.2565531861037016,colour,0.5
058,67,0,2,6,31,281,423.95841634090175,424.8882209787989,"[78, 0, 176]",176,l,0.3963709576491965,colour,0.5
058,67,0,2,6,32,282,425.39253544704115,426.2563587800105,"[93, 0, 161]",161,l,0.33120705661713146,colour,0.5
058,67,0,2,6,33,283,426.75907725750585,427.6082232500776,"[53, 0, 201]",201,a,0.31638118482078426,colour,0.5
058,67,0,2,6,34,284,428.1249697644089,429.01622168200265,"[75, 0, 179]",179,l,0.35773675360542256,colour,0.5
058,67,0,2,6,35,285,429.5258579372603,430.3763808126969,"[22, 0, 232]",232,a,0.31790724069287535,colour,0.5
058,67,0,2,6,36,286,430.89169302057417,432.82422832645534,"[11, 0, 243]",243,a,1.3990955304034287,colour,0.5
058,67,0,2,6,37,287,433.3252658006386,434.6082781072473,"[59, 0, 195]",195,a,0.7498169823666103,colour,0.5
058,67,0,2,6,38,288,435.12567264193785,435.96820369397756,"[50, 0, 204]",204,a,0.3097412217321107,colour,0.5
058,67,0,2,6,39,289,436.4757874570205,437.59237979383033,"[64, 0, 190]",190,a,0.5839154288551072,colour,0.5
058,67,0,2,6,40,290,438.1092238320125,438.9922404373792,"[18, 0, 236]",236,a,0.3504154067195486,colour,0.5
058,67,0,2,6,41,291,439.509049828921,440.3283233660186,"[43, 0, 211]",211,a,0.28653214790392667,colour,0.5
058,67,0,2,6,42,292,440.8421852273168,441.6323886351456,"[0, 0, 254]",254,a,0.25728172782692127,colour,0.5
058,67,0,2,6,43,293,442.1426610410854,442.96036906364316,"[82, 0, 172]",172,l,0.2852386736049084,colour,0.5
058,67,0,2,6,44,294,443.47550867995596,444.35232482117135,"[72, 0, 182]",182,l,0.34384473688260186,colour,0.5
058,67,0,2,6,45,295,444.85892660880927,445.80819463451917,"[26, 0, 228]",228,a,0.41643649111210834,colour,0.5
058,67,0,2,6,46,296,446.32509866270993,447.01632177227293,"[76, 0, 178]",178,l,0.15784909851208795,colour,0.5
058,67,0,2,6,47,297,447.5256429998117,448.53633341097157,"[36, 0, 218]",218,a,0.47789544801344164,colour,0.5
058,67,0,2,6,48,298,449.0417700451653,449.8803013358847,"[29, 0, 225]",225,a,0.3052214400959201,colour,0.5
058,67,0,2,6,49,299,450.3923362288915,451.21621488098754,"[10, 0, 244]",244,a,0.29112571402220055,colour,0.5
058,67,0,2,6,50,300,451.7253715370316,452.3842269919114,"[33, 0, 221]",221,a,0.1258083412394626,colour,0.5
058,67,0,2,7,1,301,457.54203149893146,458.58429910824634,"[61, 0, 193]",193,l,0.5091913026699331,colour,0.5
058,67,0,2,7,2,302,459.09258895684616,459.7043439178815,"[34, 0, 220]",220,a,0.07924390780681279,colour,0.5
058,67,0,2,7,3,303,460.2087312082149,461.18422064003244,"[38, 0, 216]",216,a,0.4425048745906679,colour,0.5
058,67,0,2,7,4,304,461.6920931250206,462.5522070226143,"[12, 0, 242]",242,a,0.32714923009916674,colour,0.5
058,67,0,2,7,5,305,463.05979816411855,463.8562180761801,"[84, 0, 170]",170,l,0.26447154581546783,colour,0.5
058,67,0,2,7,6,306,464.3588236313226,465.8402164644649,"[52, 0, 202]",202,a,0.9485022709559416,colour,0.5
058,67,0,2,7,7,307,466.3423735381948,467.1362267121731,"[47, 0, 207]",207,a,0.2611583011021139,colour,0.5
058,67,0,2,7,8,308,467.6424043993611,468.42429646482924,"[44, 0, 210]",210,a,0.24926006981695537,colour,0.5
058,67,0,2,7,9,309,468.92575611465145,469.6802917759924,"[93, 0, 161]",161,l,0.22192387621907983,colour,0.5
058,67,0,2,7,10,310,470.1920219069434,470.74423727040994,"[89, 0, 165]",165,l,0.01920642527693417,colour,0.5
058,67,0,2,7,11,311,471.25909682644124,472.28821058481117,"[60, 0, 194]",194,a,0.4965106349118287,colour,0.5
058,67,0,2,7,12,312,472.7926963614009,473.4802087523858,"[17, 0, 237]",237,a,0.15510431524307933,colour,0.5
058,67,0,2,7,13,313,473.9923350740137,474.6322128355532,"[0, 0, 254]",254,a,0.10712289866933133,colour,0.5
058,67,0,2,7,14,314,475.14327922684606,475.92031274361943,"[13, 0, 241]",241,a,0.2452574212802574,colour,0.5
058,67,0,2,7,15,315,476.42536922724685,477.28824009861273,"[63, 0, 191]",191,l,0.32988695574749727,colour,0.5
058,67,0,2,7,16,316,477.79245126855676,478.38436942806584,"[35, 0, 219]",219,a,0.05933588818879798,colour,0.5
058,67,0,2,7,17,317,478.8929046903213,479.760244014964,"[41, 0, 213]",213,a,0.3352334445226006,colour,0.5
058,67,0,2,7,18,318,480.27537496961304,480.8882283572457,"[39, 0, 215]",215,a,0.07988839934114367,colour,0.5
058,67,0,2,7,19,319,481.3921305947151,482.1922182378621,"[23, 0, 231]",231,a,0.2671893817023374,colour,0.5
058,67,0,2,7,20,320,482.70856086227286,483.28833248962474,"[3, 0, 251]",251,a,0.046669014933286235,colour,0.5
058,67,0,2,7,21,321,483.79177662161237,484.47239208697283,"[37, 0, 217]",217,a,0.14739576015563216,colour,0.5
058,67,0,2,7,22,322,484.97574831916427,485.7042941935506,"[54, 0, 200]",200,a,0.19596584868850186,colour,0.5
058,67,0,2,7,23,323,486.2090776745463,487.408500487305,"[62, 0, 192]",192,l,0.6667885714850854,colour,0.5
058,67,0,2,7,24,324,487.9249226706452,488.81621565092064,"[19, 0, 235]",235,a,0.35788817222055513,colour,0.5
058,67,0,2,7,25,325,489.3257450790552,489.968361528634,"[90, 0, 164]",164,l,0.10999760680715553,colour,0.5
058,67,0,2,7,26,326,490.47528604324907,491.4809703367064,"[82, 0, 172]",172,l,0.47260959082632326,colour,0.5
058,67,0,2,7,27,327,491.9919716051663,492.7442417616403,"[88, 0, 166]",166,l,0.21924549898540135,colour,0.5
058,67,0,2,7,28,328,493.2590490269213,494.072342170155,"[6, 0, 248]",248,a,0.2807163255638443,colour,0.5
058,67,0,2,7,29,329,494.5757513347053,495.40844563013525,"[79, 0, 175]",175,l,0.30012902662565466,colour,0.5
058,67,0,2,7,30,330,495.92554727244715,497.4324255915417,"[99, 0, 155]",155,l,0.9741279474401381,colour,0.5
058,67,0,2,7,31,331,497.94239933068457,498.7364138681587,"[85, 0, 169]",169,l,0.26145215588621795,colour,0.5
058,67,0,2,7,32,332,499.24215654761065,500.0723242052336,"[33, 0, 221]",221,a,0.29736114559636917,colour,0.5
058,67,0,2,7,33,333,500.5755793847493,501.25624168722425,"[57, 0, 197]",197,a,0.14792091329582036,colour,0.5
058,67,0,2,7,34,334,501.75850334244024,502.4003732854035,"[91, 0, 163]",163,l,0.10870092449476942,colour,0.5
058,67,0,2,7,35,335,502.909497861212,503.77635277458467,"[71, 0, 183]",183,l,0.3346816647972446,colour,0.5
058,67,0,2,7,36,336,504.29173267171427,504.85625978045573,"[32, 0, 222]",222,a,0.03129168422310613,colour,0.5
058,67,0,2,7,37,337,505.3592596014496,506.5363295613497,"[58, 0, 196]",196,a,0.6447295734105865,colour,0.5
058,67,0,2,7,38,338,507.0424331432296,508.0802496225806,"[67, 0, 187]",187,l,0.5053079925273778,colour,0.5
058,67,0,2,7,39,339,508.5923996835627,509.60026992294297,"[18, 0, 236]",236,a,0.4753020833595656,colour,0.5
058,67,0,2,7,40,340,510.10851453844225,510.82424725378223,"[92, 0, 162]",162,l,0.18265255907317623,colour,0.5
058,67,0,2,7,41,341,511.34237417978875,512.2642363978375,"[81, 0, 173]",173,l,0.38928540036431514,colour,0.5
058,67,0,2,7,42,342,512.7757146990916,513.6562174987339,"[40, 0, 214]",214,a,0.3479548541508848,colour,0.5
058,67,0,2,7,43,343,514.1588554548944,515.0563434456708,"[77, 0, 177]",177,l,0.3647267118503805,colour,0.5
058,67,0,2,7,44,344,515.5590141236462,516.3922387050407,"[28, 0, 226]",226,a,0.3006179291114677,colour,0.5
058,67,0,2,7,45,345,516.9085694597743,517.7522316602262,"[8, 0, 246]",246,a,0.3106596783181885,colour,0.5
058,67,0,2,7,46,346,518.2584398236213,519.0403979743278,"[21, 0, 233]",233,a,0.2487939442798961,colour,0.5
058,67,0,2,7,47,347,519.542326636918,520.3682391746988,"[31, 0, 223]",223,a,0.29333539929939434,colour,0.5
058,67,0,2,7,48,348,520.875628852431,521.8083726797195,"[72, 0, 182]",182,l,0.4001099068118492,colour,0.5
058,67,0,2,7,49,349,522.325020066186,523.2084258045652,"[73, 0, 181]",181,l,0.3501892412023153,colour,0.5
058,67,0,2,7,50,350,523.7252698427474,524.5762809790613,"[27, 0, 227]",227,a,0.31806571695778985,colour,0.5
058,67,0,2,8,1,351,531.5413286214025,532.7923543862998,"[63, 0, 191]",191,l,0.717486219946295,colour,0.5
058,67,0,2,8,2,352,533.3085831259377,533.9042829013197,"[10, 0, 244]",244,a,0.06272355900728144,colour,0.5
058,67,0,2,8,3,353,534.4087519961904,536.4482087369834,"[79, 0, 175]",175,l,1.5066483039408922,colour,0.5
058,67,0,2,8,4,354,536.9589809526951,537.8242610482703,"[6, 0, 248]",248,a,0.33273760371957906,colour,0.5
058,67,0,2,8,5,355,538.3418387609854,539.3122537442541,"[90, 0, 164]",164,l,0.4374031578481663,colour,0.5
058,67,0,2,8,6,356,539.8253575500567,540.6323055473767,"[17, 0, 237]",237,l,0.27411389631743077,colour,0.5
058,67,0,2,8,7,357,541.14192512093,542.240255794808,"[89, 0, 165]",165,a,0.5654032194288447,colour,0.5
058,67,0,2,8,8,358,542.7419804272213,544.7524408232421,"[64, 0, 190]",190,l,1.4776044804602861,colour,0.5
058,67,0,2,8,9,359,545.2588533375965,546.0083254576457,"[84, 0, 170]",170,l,0.21681830985471606,colour,0.5
058,67,0,2,8,10,360,546.5255839722231,547.368264838864,"[70, 0, 184]",184,l,0.310103407362476,colour,0.5
058,67,0,2,8,11,361,547.8747119998734,548.6162708930497,"[16, 0, 238]",238,a,0.20808864149148576,colour,0.5
058,67,0,2,8,12,362,549.1259700255323,549.8562607428612,"[29, 0, 225]",225,a,0.19810880710429046,colour,0.5
058,67,0,2,8,13,363,550.3582914205326,551.2962614357966,"[81, 0, 173]",173,l,0.40477821984677576,colour,0.5
058,67,0,2,8,14,364,551.8088118578744,552.5602896330238,"[95, 0, 159]",159,l,0.21880407520802692,colour,0.5
058,67,0,2,8,15,365,553.0756409787573,553.8882604374667,"[78, 0, 176]",176,l,0.2801196335494751,colour,0.5
058,67,0,2,8,16,366,554.3922765596944,555.2562622185505,"[37, 0, 217]",217,a,0.33141333240200765,colour,0.5
058,67,0,2,8,17,367,555.7595475534763,556.6243166112108,"[32, 0, 222]",222,a,0.3328421852347674,colour,0.5
058,67,0,2,8,18,368,557.1423360685003,557.8004049164883,"[0, 0, 254]",254,a,0.12556164438137785,colour,0.5
058,67,0,2,8,19,369,558.3083017824392,559.0643516299751,"[26, 0, 228]",228,a,0.22286671376787126,colour,0.5
058,67,0,2,8,20,370,559.5755370388651,560.3923237176205,"[98, 0, 156]",156,l,0.28418195129779633,colour,0.5
058,67,0,2,8,21,371,560.9089168885112,561.7442616513727,"[8, 0, 246]",246,a,0.3027454890398076,colour,0.5
058,67,0,2,8,22,372,562.2585190617538,563.1364272135252,"[27, 0, 227]",227,a,0.34497781012032647,colour,0.5
058,67,0,2,8,23,373,563.6421804794518,564.2883668154536,"[53, 0, 201]",201,a,0.11356364360835869,colour,0.5
058,67,0,2,8,24,374,564.7921285415796,565.6643976329942,"[40, 0, 214]",214,a,0.33957614334940445,colour,0.5
058,67,0,2,8,25,375,566.1755153526319,567.0083139087656,"[42, 0, 212]",212,a,0.30021147278603166,colour,0.5
058,67,0,2,8,26,376,567.5249744481116,568.488283663537,"[61, 0, 193]",193,a,0.4301610490947496,colour,0.5
058,67,0,2,8,27,377,568.992916688323,569.8164142274472,"[58, 0, 196]",196,a,0.2916460551205091,colour,0.5
058,67,0,2,8,28,378,570.3251496702578,571.2963159721694,"[69, 0, 185]",185,l,0.43818334869865794,colour,0.5
058,67,0,2,8,29,379,571.808653702421,572.6083926336141,"[87, 0, 167]",167,l,0.26696000815718435,colour,0.5
058,67,0,2,8,30,380,573.1256116895238,573.8562873694464,"[20, 0, 234]",234,l,0.19816302268009167,colour,0.5
058,67,0,2,8,31,381,574.3584595208667,575.5364800175594,"[38, 0, 216]",216,a,0.6450545459956629,colour,0.5
058,67,0,2,8,32,382,576.0418470376899,577.1602974606067,"[66, 0, 188]",188,l,0.5855444622284267,colour,0.5
058,67,0,2,8,33,383,577.6751435429323,578.6884882711602,"[92, 0, 162]",162,l,0.4804041208990384,colour,0.5
058,67,0,2,8,34,384,579.1919936763588,580.1603080470668,"[52, 0, 202]",202,a,0.4355511669709813,colour,0.5
058,67,0,2,8,35,385,580.674890430033,581.6003950357845,"[21, 0, 233]",233,a,0.3923237176059047,colour,0.5
058,67,0,2,8,36,386,582.1091028896044,583.3924494720559,"[62, 0, 192]",192,a,0.7510405218054075,colour,0.5
058,67,0,2,8,37,387,583.9089804073301,584.8964299852523,"[65, 0, 189]",189,a,0.45502867008326575,colour,0.5
058,67,0,2,8,38,388,585.4081761563139,586.4482757846417,"[24, 0, 230]",230,a,0.5068340483994689,colour,0.5
058,67,0,2,8,39,389,586.9587592784083,587.9284165269637,"[3, 0, 251]",251,a,0.43699605991423596,colour,0.5
058,67,0,2,8,40,390,588.4421946588991,589.3124539247947,"[7, 0, 247]",247,a,0.337727039703168,colour,0.5
058,67,0,2,8,41,391,589.8249735498684,590.6802786230983,"[51, 0, 203]",203,a,0.32222716257092543,colour,0.5
058,67,0,2,8,42,392,591.1916106385761,591.9762827755621,"[76, 0, 178]",178,l,0.25156086290371604,colour,0.5
058,67,0,2,8,43,393,592.4920046477928,593.8724156980024,"[33, 0, 221]",221,a,0.8477027036424261,colour,0.5
058,67,0,2,8,44,394,594.3748971027089,595.0882770550088,"[68, 0, 186]",186,l,0.18021542506176047,colour,0.5
058,67,0,2,8,45,395,595.5917112421303,596.4803688326647,"[1, 0, 253]",253,a,0.3556553891830845,colour,0.5
058,67,0,2,8,46,396,596.9921210989705,597.7446424435475,"[86, 0, 168]",168,l,0.21989801058953162,colour,0.5
058,67,0,2,8,47,397,598.2597769270214,599.0564582928346,"[43, 0, 211]",211,a,0.265096789211384,colour,0.5
058,67,0,2,8,48,398,599.5587459330418,600.2964439722273,"[19, 0, 235]",235,a,0.20507919642841443,colour,0.5
058,67,0,2,8,49,399,600.8088529205561,601.4002725535247,"[45, 0, 209]",209,a,0.058925582241499797,colour,0.5
058,67,0,2,8,50,400,601.9088524072722,602.7683109060599,"[46, 0, 208]",208,a,0.32695771122234873,colour,0.5
058,67,0,2,9,1,401,607.3242485369847,608.2163865101465,"[17, 0, 237]",237,a,0.358378678720328,colour,0.5
058,67,0,2,9,2,402,608.7254151661182,609.320430028878,"[28, 0, 226]",226,a,0.062435478655970655,colour,0.5
058,67,0,2,9,3,403,609.8246376700117,610.5122908931371,"[75, 0, 179]",179,l,0.15427343764167745,colour,0.5
058,67,0,2,9,4,404,611.0245310995233,611.6003071359883,"[4, 0, 250]",250,a,0.04231380482087843,colour,0.5
058,67,0,2,9,5,405,612.1087204934302,612.6482959310088,"[56, 0, 198]",198,l,0.006956274024560116,colour,0.5
058,67,0,2,9,6,406,613.1595313850412,614.0164664540498,"[81, 0, 173]",173,a,0.3251031539402902,colour,0.5
058,67,0,2,9,7,407,614.5257620174089,615.8004655481054,"[44, 0, 210]",210,a,0.7424747833574656,colour,0.5
058,67,0,2,9,8,408,616.3082193362934,617.1362883061956,"[84, 0, 170]",170,l,0.29497437753889244,colour,0.5
058,67,0,2,9,9,409,617.6421532112727,618.520326987229,"[86, 0, 168]",168,l,0.34569159492093604,colour,0.5
058,67,0,2,9,10,410,619.0251710998418,619.8963151380885,"[77, 0, 177]",177,l,0.3383420174504863,colour,0.5
058,67,0,2,9,11,411,620.4084023218456,621.4323139523913,"[67, 0, 187]",187,l,0.4910146523179719,colour,0.5
058,67,0,2,9,12,412,621.9416496160411,622.7203224318364,"[91, 0, 163]",163,l,0.24564751669822726,colour,0.5
058,67,0,2,9,13,413,623.2255890408851,624.0724028017576,"[38, 0, 216]",216,a,0.3144284620793769,colour,0.5
058,67,0,2,9,14,414,624.5748447477963,625.3843476135226,"[92, 0, 162]",162,l,0.2763874212105293,colour,0.5
058,67,0,2,9,15,415,625.8919952162105,626.6163183717726,"[16, 0, 238]",238,a,0.19167062858468853,colour,0.5
058,67,0,2,9,16,416,627.1249928621546,627.8963536343363,"[9, 0, 245]",245,a,0.2383556836139178,colour,0.5
058,67,0,2,9,17,417,628.4085380211618,629.328293852217,"[13, 0, 241]",241,a,0.3870099506457336,colour,0.5
058,67,0,2,9,18,418,629.8422949416563,630.5363231453084,"[98, 0, 156]",156,l,0.1617189349635737,colour,0.5
058,67,0,2,9,19,419,631.0414479597966,631.7043304441904,"[57, 0, 197]",197,a,0.12969293458445463,colour,0.5
058,67,0,2,9,20,420,632.2081682004209,634.4484406769479,"[70, 0, 184]",184,a,1.7071769217436668,colour,0.5
058,67,0,2,9,21,421,634.958828250863,635.8084272160922,"[55, 0, 199]",199,a,0.3171620172797702,colour,0.5
058,67,0,2,9,22,422,636.3247618204477,637.1764209771354,"[19, 0, 235]",235,a,0.31849944149143994,colour,0.5
058,67,0,2,9,23,423,637.6916302075115,638.5123929082183,"[54, 0, 200]",200,a,0.2878054116736166,colour,0.5
058,67,0,2,9,24,424,639.0251983680209,639.9203461070429,"[59, 0, 195]",195,a,0.36242848518304527,colour,0.5
058,67,0,2,9,25,425,640.4255074929824,641.2803156436712,"[50, 0, 204]",204,a,0.3224061701912433,colour,0.5
058,67,0,2,9,26,426,641.7956740470399,642.6964332574425,"[45, 0, 209]",209,a,0.37185718145337887,colour,0.5
058,67,0,2,9,27,427,643.2082641202724,644.2083366215666,"[2, 0, 252]",252,a,0.46709724732500035,colour,0.5
058,67,0,2,9,28,428,644.725189000601,645.5763685580605,"[25, 0, 229]",229,a,0.3184339978470234,colour,0.5
058,67,0,2,9,29,429,646.0920740693691,646.9444620885624,"[11, 0, 243]",243,a,0.3198824195860652,colour,0.5
058,67,0,2,9,30,430,647.4586024061427,648.3123066765984,"[5, 0, 249]",249,a,0.3210427610029001,colour,0.5
058,67,0,2,9,31,431,648.8251394045801,649.4003492252377,"[26, 0, 228]",228,a,0.04245335375890136,colour,0.5
058,67,0,2,9,32,432,649.9086483770952,650.4883991523238,"[39, 0, 215]",215,a,0.04717299513868056,colour,0.5
058,67,0,2,9,33,433,650.9915240861592,651.6164675447653,"[94, 0, 160]",160,l,0.09188222966622561,colour,0.5
058,67,0,2,9,34,434,652.1261156697146,652.968313408317,"[69, 0, 185]",185,l,0.31042324712325353,colour,0.5
058,67,0,2,9,35,435,653.4752754567744,654.4003155410028,"[47, 0, 207]",207,a,0.39243214872840326,colour,0.5
058,67,0,2,9,36,436,654.908718632767,655.584339208508,"[88, 0, 166]",166,l,0.14313229944673367,colour,0.5
058,67,0,2,9,37,437,656.0914972670871,656.7843093097472,"[74, 0, 180]",180,l,0.15975594654446468,colour,0.5
058,67,0,2,9,38,438,657.2914965613309,657.9523255911045,"[20, 0, 234]",234,a,0.1277536855341168,colour,0.5
058,67,0,2,9,39,439,658.4582716591249,659.4324217419198,"[76, 0, 178]",178,l,0.44121685391291976,colour,0.5
058,67,0,2,9,40,440,659.9418651950837,660.5443095150549,"[33, 0, 221]",221,a,0.06976388319162652,colour,0.5
058,67,0,2,9,41,441,661.057912489021,661.7924050730362,"[37, 0, 217]",217,a,0.20120005670469254,colour,0.5
058,67,0,2,9,42,442,662.308417592023,662.9443106699473,"[97, 0, 157]",157,l,0.1031276285648346,colour,0.5
058,67,0,2,9,43,443,663.4585590978531,665.640330734197,"[90, 0, 164]",164,l,1.6491425279091345,colour,0.5
058,67,0,2,9,44,444,666.1419434066484,666.8643231427413,"[8, 0, 246]",246,a,0.18981029685528483,colour,0.5
058,67,0,2,9,45,445,667.3752130928333,668.1923494459479,"[82, 0, 172]",172,l,0.28448190131166484,colour,0.5
058,67,0,2,9,46,446,668.7081091728323,669.392508820456,"[10, 0, 244]",244,a,0.15133360665640794,colour,0.5
058,67,0,2,9,47,447,669.9079230434145,670.5444493848045,"[79, 0, 175]",175,l,0.10325402462331112,colour,0.5
058,67,0,2,9,48,448,671.0584610607184,671.6884468876815,"[6, 0, 248]",248,a,0.09727555558492895,colour,0.5
058,67,0,2,9,49,449,672.1913556008512,672.8563582667266,"[34, 0, 220]",220,a,0.13186444441089407,colour,0.5
058,67,0,2,9,50,450,673.3580700670427,674.0244691847183,"[42, 0, 212]",212,a,0.13331511177239008,colour,0.5
058,67,0,2,10,1,451,688.5406356887252,689.6964281246037,"[8, 0, 246]",246,a,0.6219753970362945,colour,0.5
058,67,0,2,10,2,452,690.2076228367514,691.3124035588553,"[44, 0, 210]",210,a,0.5712825606169645,colour,0.5
058,67,0,2,10,3,453,691.8252317956067,692.6164758856321,"[50, 0, 204]",204,a,0.2586659891385352,colour,0.5
058,67,0,2,10,4,454,693.1249322305521,693.9683445261326,"[80, 0, 174]",174,l,0.3105307158548385,colour,0.5
058,67,0,2,10,5,455,694.4747746846115,695.3764504267747,"[38, 0, 216]",216,a,0.36867386162339244,colour,0.5
058,67,0,2,10,6,456,695.892057451827,696.6643581743265,"[34, 0, 220]",220,a,0.2399080452596536,colour,0.5
058,67,0,2,10,7,457,697.1750598135695,697.8484674960055,"[31, 0, 223]",223,a,0.1406884285970591,colour,0.5
058,67,0,2,10,8,458,698.3580107186426,699.1444860845659,"[90, 0, 164]",164,l,0.25339745526434854,colour,0.5
058,67,0,2,10,9,459,699.658507384549,700.4245293671993,"[42, 0, 212]",212,a,0.2334015358792385,colour,0.5
058,67,0,2,10,10,460,700.9411674503936,702.040346004389,"[47, 0, 207]",207,a,0.5659152196894865,colour,0.5
058,67,0,2,10,11,461,702.5588963892515,703.096446923606,"[73, 0, 181]",181,l,0.005358679263736121,colour,0.5
058,67,0,2,10,12,462,703.6081504279864,704.1923500875564,"[23, 0, 231]",231,a,0.05126450587704312,colour,0.5
058,67,0,2,10,13,463,704.7086375339859,705.4404126029112,"[97, 0, 157]",157,l,0.19931694804108702,colour,0.5
058,67,0,2,10,14,464,705.9582344460796,707.7923563111108,"[57, 0, 197]",197,a,1.3012476637522923,colour,0.5
058,67,0,2,10,15,465,708.3084981133725,708.8963340654154,"[18, 0, 236]",236,a,0.055259775966987945,colour,0.5
058,67,0,2,10,16,466,709.4087734899367,711.0644388881628,"[86, 0, 168]",168,a,1.1233744152705185,colour,0.5
058,67,0,2,10,17,467,711.5754667831934,712.6083660070435,"[59, 0, 195]",195,a,0.5005777646874776,colour,0.5
058,67,0,2,10,18,468,713.1254987671564,713.9683409973077,"[54, 0, 200]",200,a,0.310606745959376,colour,0.5
058,67,0,2,10,19,469,714.4744416919712,715.2963682629197,"[3, 0, 251]",251,a,0.2886539333849214,colour,0.5
058,67,0,2,10,20,470,715.8076723686099,716.5443425576814,"[7, 0, 247]",247,a,0.20329072438471485,colour,0.5
058,67,0,2,10,21,471,717.0584491910413,717.8483446287864,"[13, 0, 241]",241,a,0.2573003343422897,colour,0.5
058,67,0,2,10,22,472,718.3579356509435,719.8643545813538,"[56, 0, 198]",198,a,0.9733099019504152,colour,0.5
058,67,0,2,10,23,473,720.374815298157,721.288342113694,"[52, 0, 202]",202,a,0.3806359325390076,colour,0.5
058,67,0,2,10,24,474,721.7915626465692,722.8804274111317,"[53, 0, 201]",201,a,0.5560576109273825,colour,0.5
058,67,0,2,10,25,475,723.392709642605,724.2244190754136,"[40, 0, 214]",214,a,0.30005235491262283,colour,0.5
058,67,0,2,10,26,476,724.7409618803649,726.7364247754304,"[49, 0, 205]",205,a,1.4620471797388745,colour,0.5
058,67,0,2,10,27,477,727.2418530687719,727.9443376173294,"[67, 0, 187]",187,l,0.1699731745175086,colour,0.5
058,67,0,2,10,28,478,728.4583861854917,729.0003320302349,"[75, 0, 179]",179,l,0.00931256587500684,colour,0.5
058,67,0,2,10,29,479,729.5083546506357,730.0564544432127,"[95, 0, 159]",159,l,0.01542448862164747,colour,0.5
058,67,0,2,10,30,480,730.5574755564885,731.2003877856623,"[35, 0, 219]",219,a,0.10936530576145742,colour,0.5
058,67,0,2,10,31,481,731.7079064258578,732.3683796860423,"[17, 0, 237]",237,a,0.12735557006089948,colour,0.5
058,67,0,2,10,32,482,732.8753552081907,733.4725056509342,"[19, 0, 235]",235,a,0.06477701362746302,colour,0.5
058,67,0,2,10,33,483,733.975148098325,734.6245495135663,"[16, 0, 238]",238,a,0.11687271788832732,colour,0.5
058,67,0,2,10,34,484,735.1418202186323,737.2324850041041,"[46, 0, 208]",208,a,1.5581579026620602,colour,0.5
058,67,0,2,10,35,485,737.7422476554202,738.4083772992744,"[37, 0, 217]",217,a,0.13403178378939629,colour,0.5
058,67,0,2,10,36,486,738.9243176377786,739.5684319126303,"[60, 0, 194]",194,l,0.11073769739596173,colour,0.5
058,67,0,2,10,37,487,740.0759059613483,741.0483538678818,"[2, 0, 252]",252,a,0.44067437745979987,colour,0.5
058,67,0,2,10,38,488,741.5579378323891,742.1523688352318,"[15, 0, 239]",239,a,0.06136720748327207,colour,0.5
058,67,0,2,10,39,489,742.6577782012464,743.3203934574412,"[69, 0, 185]",185,l,0.12938432292139623,colour,0.5
058,67,0,2,10,40,490,743.8253857806412,744.4163543657633,"[5, 0, 249]",249,a,0.05869524627632927,colour,0.5
058,67,0,2,10,41,491,744.9246746905701,745.5923878138856,"[98, 0, 156]",156,l,0.1347221500473097,colour,0.5
058,67,0,2,10,42,492,746.1079736660031,746.8083482987568,"[84, 0, 170]",170,l,0.16736473215860315,colour,0.5
058,67,0,2,10,43,493,747.3250364270934,748.4483585515991,"[10, 0, 244]",244,a,0.5907084145728732,colour,0.5
058,67,0,2,10,44,494,748.9582671678945,749.9685556139448,"[88, 0, 166]",166,l,0.4775910067546647,colour,0.5
058,67,0,2,10,45,495,750.4748728500708,751.4563705855253,"[89, 0, 165]",165,l,0.4487399853533134,colour,0.5
058,67,0,2,10,46,496,751.957987107613,753.5205371126503,"[22, 0, 232]",232,a,1.0295497285114834,colour,0.5
058,67,0,2,10,47,497,754.0250325133093,754.9445294570178,"[77, 0, 177]",177,l,0.3868710433016531,colour,0.5
058,67,0,2,10,48,498,755.4583714285982,756.544385865971,"[55, 0, 199]",199,l,0.5534353740804363,colour,0.5
058,67,0,2,10,49,499,757.0580905342213,757.8643571477587,"[72, 0, 182]",182,l,0.27340845235448796,colour,0.5
058,67,0,2,10,50,500,758.3747569121624,759.1203553461382,"[91, 0, 163]",163,l,0.2127361023594858,colour,0.5
058,67,0,2,11,1,501,764.4901619601878,765.3924234870792,"[74, 0, 180]",180,l,0.3681570493354229,colour,0.5
058,67,0,2,11,2,502,765.9083529183117,766.4883571272367,"[86, 0, 168]",168,l,0.04739210300613195,colour,0.5
058,67,0,2,11,3,503,766.9915054796293,768.2965013958164,"[83, 0, 171]",171,l,0.7722432989248773,colour,0.5
058,67,0,2,11,4,504,768.8076130202098,769.3923792163841,"[33, 0, 221]",221,a,0.05143196458811872,colour,0.5
058,67,0,2,11,5,505,769.9081998956826,770.9764617831679,"[87, 0, 167]",167,l,0.5355535409180447,colour,0.5
058,67,0,2,11,6,506,771.491638933323,772.9843217568705,"[90, 0, 164]",164,l,0.9600675096007762,colour,0.5
058,67,0,2,11,7,507,773.4917287579301,775.0963522869715,"[32, 0, 222]",222,a,1.0721006061212393,colour,0.5
058,67,0,2,11,8,508,775.6083749895042,776.1684798404749,"[1, 0, 253]",253,a,0.027579040834098123,colour,0.5
058,67,0,2,11,9,509,776.6748176079418,778.0723934984999,"[60, 0, 194]",194,l,0.8648284061346203,colour,0.5
058,67,0,2,11,10,510,778.5747096900886,781.0563960572181,"[7, 0, 247]",247,a,1.9488368676102255,colour,0.5
058,67,0,2,11,11,511,781.5582243087265,782.1203421932587,"[12, 0, 242]",242,a,0.029455733485519886,colour,0.5
058,67,0,2,11,12,512,782.6247657342319,783.3683899517055,"[71, 0, 183]",183,l,0.21080968539172318,colour,0.5
058,67,0,2,11,13,513,783.8746147968195,784.8723653320776,"[23, 0, 231]",231,a,0.46479549183277413,colour,0.5
058,67,0,2,11,14,514,785.3745923406677,787.264377229978,"[70, 0, 184]",184,l,1.3568462068069493,colour,0.5
058,67,0,2,11,15,515,787.7745100869943,789.0165004590672,"[45, 0, 209]",209,a,0.708968281003763,colour,0.5
058,67,0,2,11,16,516,789.5249272902001,790.4245094774669,"[24, 0, 230]",230,a,0.36697393098438624,colour,0.5
058,67,0,2,11,17,517,790.9415816059773,791.5443820163491,"[99, 0, 155]",155,l,0.07018862525001168,colour,0.5
058,67,0,2,11,18,518,792.0575724387309,792.9364166912128,"[69, 0, 185]",185,l,0.3455539707938442,colour,0.5
058,67,0,2,11,19,519,793.4416319719166,794.1363717147469,"[27, 0, 227]",227,a,0.16215650910453405,colour,0.5
058,67,0,2,11,20,520,794.6416691208142,795.2083953283582,"[26, 0, 228]",228,a,0.034192377352155745,colour,0.5
058,67,0,2,11,21,521,795.7251780933293,796.840573196474,"[66, 0, 188]",188,l,0.5830505462363362,colour,0.5
058,67,0,2,11,22,522,797.3582445834181,799.136463143368,"[8, 0, 246]",246,a,1.2456215317361057,colour,0.5
058,67,0,2,11,23,523,799.6411879175721,800.3284282683162,"[56, 0, 198]",198,a,0.15425996395060793,colour,0.5
058,67,0,2,11,24,524,800.8413559537439,801.5043805534951,"[0, 0, 254]",254,a,0.13023380703816656,colour,0.5
058,67,0,2,11,25,525,802.0074836727727,802.7043936422124,"[10, 0, 244]",244,a,0.1635645097849192,colour,0.5
058,67,0,2,11,26,526,803.207777784206,803.976460179154,"[96, 0, 158]",158,l,0.23561090034490917,colour,0.5
058,67,0,2,11,27,527,804.491699885737,805.2324920617539,"[11, 0, 243]",243,a,0.2082548170001246,colour,0.5
058,67,0,2,11,28,528,805.7412759456784,808.6324316226237,"[84, 0, 170]",170,l,2.3582734556111973,colour,0.5
058,67,0,2,11,29,529,809.1414160079003,809.736542830622,"[44, 0, 210]",210,a,0.06240051123313606,colour,0.5
058,67,0,2,11,30,530,810.2411258102657,811.1765245962306,"[92, 0, 162]",162,l,0.40237733648973517,colour,0.5
058,67,0,2,11,31,531,811.6911608739465,812.5204893131158,"[53, 0, 201]",201,a,0.29634901478129905,colour,0.5
058,67,0,2,11,32,532,813.0243312397797,813.6163883066329,"[18, 0, 236]",236,l,0.058904409292154014,colour,0.5
058,67,0,2,11,33,533,814.1245562504191,814.9045459590852,"[77, 0, 177]",177,l,0.24701060507504735,colour,0.5
058,67,0,2,11,34,534,815.4080468730535,816.1444090920559,"[64, 0, 190]",190,l,0.20361441376735456,colour,0.5
058,67,0,2,11,35,535,816.6577810884628,817.4643973763596,"[29, 0, 225]",225,a,0.2735916304081911,colour,0.5
058,67,0,2,11,36,536,817.9748279377673,818.8725424148579,"[78, 0, 176]",176,l,0.3650369275273988,colour,0.5
058,67,0,2,11,37,537,819.3742802001652,820.0245291747124,"[21, 0, 233]",233,a,0.11706551998213399,colour,0.5
058,67,0,2,11,38,538,820.5410379746463,821.4404998610989,"[22, 0, 232]",232,a,0.36639648709387984,colour,0.5
058,67,0,2,11,39,539,821.9582456741482,822.7764236718649,"[57, 0, 197]",197,a,0.2856011800322449,colour,0.5
058,67,0,2,11,40,540,823.2908546362014,824.1045529525727,"[72, 0, 182]",182,a,0.28045262618979905,colour,0.5
058,67,0,2,11,41,541,824.6081886034372,825.2645732400997,"[81, 0, 173]",173,a,0.12380621496413369,colour,0.5
058,67,0,2,11,42,542,825.7747850144369,829.5444051141094,"[51, 0, 203]",203,l,3.236925226796302,colour,0.5
058,67,0,2,11,43,543,830.0574713860551,830.9363993678999,"[61, 0, 193]",193,l,0.3456107527745189,colour,0.5
058,67,0,2,11,44,544,831.4420191801182,832.2404662410263,"[40, 0, 214]",214,a,0.2663860930915689,colour,0.5
058,67,0,2,11,45,545,832.7586181896186,833.5283900287031,"[3, 0, 251]",251,a,0.237632595555624,colour,0.5
058,67,0,2,11,46,546,834.0416150977253,834.808419196037,"[2, 0, 252]",252,a,0.2343459774274379,colour,0.5
058,67,0,2,11,47,547,835.32548651252,836.1444524003455,"[35, 0, 219]",219,a,0.28705665943562053,colour,0.5
058,67,0,2,11,48,548,836.6581740711117,837.520405262956,"[28, 0, 226]",226,a,0.32961331149272155,colour,0.5
058,67,0,2,11,49,549,838.0245445732144,838.8404002841125,"[82, 0, 172]",172,l,0.28299017126846593,colour,0.5
058,67,0,2,11,50,550,839.358248112243,840.0325011083769,"[38, 0, 216]",216,a,0.14176215343468357,colour,0.5
058,67,0,2,12,1,551,880.2243019826274,882.1125258486427,"[20, 0, 234]",234,a,1.3551966421073303,colour,0.5
058,67,0,2,12,2,552,882.6247477693105,883.2165514024528,"[94, 0, 160]",160,l,0.05927333177533001,colour,0.5
058,67,0,2,12,3,553,883.7236754560145,884.3765222864458,"[31, 0, 223]",223,a,0.1192408794304356,colour,0.5
058,67,0,2,12,4,554,884.8912641080824,886.3764501059632,"[59, 0, 195]",195,l,0.9524786137189949,colour,0.5
058,67,0,2,12,5,555,886.8911482984986,889.1524317124567,"[30, 0, 224]",224,a,1.728495187649969,colour,0.5
058,67,0,2,12,6,556,889.6578593641898,890.4964236975356,"[99, 0, 155]",155,l,0.30582486897765193,colour,0.5
058,67,0,2,12,7,557,891.0079347206192,891.6406322882249,"[87, 0, 167]",167,l,0.10002033885393757,colour,0.5
058,67,0,2,12,8,558,892.1576781109616,892.9685286665626,"[16, 0, 238]",238,a,0.2779484445200069,colour,0.5
058,67,0,2,12,9,559,893.4741330802935,894.2005026328261,"[14, 0, 240]",240,a,0.1932701481418917,colour,0.5
058,67,0,2,12,10,560,894.70867987987,895.4484381105285,"[93, 0, 161]",161,l,0.2078573431208497,colour,0.5
058,67,0,2,12,11,561,895.9574744657584,897.6005281686812,"[55, 0, 199]",199,a,1.1099032909842208,colour,0.5
058,67,0,2,12,12,562,898.1076926433016,898.7284239695728,"[40, 0, 214]",214,a,0.08786289942509029,colour,0.5
058,67,0,2,12,13,563,899.2413259908208,900.3124930626655,"[61, 0, 193]",193,l,0.5385556075343629,colour,0.5
058,67,0,2,12,14,564,900.8242475745792,902.3364521719341,"[56, 0, 198]",198,a,0.9792245313583408,colour,0.5
058,67,0,2,12,15,565,902.8409049058973,903.584417163438,"[2, 0, 252]",252,a,0.21054534442373551,colour,0.5
058,67,0,2,12,16,566,904.0912107907643,904.7444323181262,"[98, 0, 156]",156,l,0.120534674540977,colour,0.5
058,67,0,2,12,17,567,905.2573609659594,906.2244476268097,"[97, 0, 157]",157,l,0.433910263935104,colour,0.5
058,67,0,2,12,18,568,906.7406699504063,907.4405351493333,"[37, 0, 217]",217,a,0.16662047115096357,colour,0.5
058,67,0,2,12,19,569,907.9576140146964,908.6324341890431,"[33, 0, 221]",221,a,0.14189207830349915,colour,0.5
058,67,0,2,12,20,570,909.1404555262416,911.8885093799327,"[4, 0, 250]",250,a,2.2146573864883976,colour,0.5
058,67,0,2,12,21,571,912.3911223135219,913.0004597094958,"[19, 0, 235]",235,a,0.07659215715830214,colour,0.5
058,67,0,2,12,22,572,913.5074785399484,914.1285508789006,"[32, 0, 222]",222,a,0.08803420777257998,colour,0.5
058,67,0,2,12,23,573,914.640660518824,915.4244745100295,"[75, 0, 179]",179,l,0.2506199501804076,colour,0.5
058,67,0,2,12,24,574,915.9410429791606,916.5204764810333,"[6, 0, 248]",248,a,0.04662506503518671,colour,0.5
058,67,0,2,12,25,575,917.0247986485338,918.4484894388734,"[18, 0, 236]",236,a,0.8913173612381797,colour,0.5
058,67,0,2,12,26,576,918.9580169422115,920.84049363753,"[69, 0, 185]",185,l,1.349991627052077,colour,0.5
058,67,0,2,12,27,577,921.3580264379561,921.9205799718184,"[26, 0, 228]",228,a,0.030078731273533776,colour,0.5
058,67,0,2,12,28,578,922.4238152615872,923.1124263999664,"[36, 0, 218]",218,a,0.15528043561789673,colour,0.5
058,67,0,2,12,29,579,923.6243833380577,924.2484859742108,"[34, 0, 220]",220,a,0.09131890108983498,colour,0.5
058,67,0,2,12,30,580,924.7570504294563,925.8244852889766,"[38, 0, 216]",216,a,0.5340053496911423,colour,0.5
058,67,0,2,12,31,581,926.341243993782,926.9284274342353,"[81, 0, 173]",173,l,0.05462811651523225,colour,0.5
058,67,0,2,12,32,582,927.4410805130028,928.2005388834659,"[12, 0, 242]",242,a,0.22673366298840847,colour,0.5
058,67,0,2,12,33,583,928.7076314984151,931.3684393552394,"[54, 0, 200]",200,l,2.127954828480142,colour,0.5
058,67,0,2,12,34,584,931.8745650724741,933.2246224639821,"[50, 0, 204]",204,l,0.8174587592802709,colour,0.5
058,67,0,2,12,35,585,933.7406843865028,934.7364462691767,"[90, 0, 164]",164,l,0.4626627990801353,colour,0.5
058,67,0,2,12,36,586,935.2406571183092,936.0965900013689,"[8, 0, 246]",246,a,0.3227783006877871,colour,0.5
058,67,0,2,12,37,587,936.6078761421377,937.4005070598942,"[91, 0, 163]",163,l,0.2600662905606441,colour,0.5
058,67,0,2,12,38,588,937.9070267221832,939.3684505833226,"[65, 0, 189]",189,l,0.9280129578401102,colour,0.5
058,67,0,2,12,39,589,939.8741515584989,942.8165258665977,"[60, 0, 194]",194,a,2.4094247183093103,colour,0.5
058,67,0,2,12,40,590,943.3244435847009,945.0724448268447,"[68, 0, 186]",186,a,1.215362188842846,colour,0.5
058,67,0,2,12,41,591,945.5754837856948,946.5284500187117,"[10, 0, 244]",244,a,0.4213550298300106,colour,0.5
058,67,0,2,12,42,592,947.0404387162125,947.9125364992651,"[39, 0, 215]",215,a,0.3387420577346347,colour,0.5
058,67,0,2,12,43,593,948.4237231913721,949.2405721057439,"[88, 0, 166]",166,l,0.2834951138647739,colour,0.5
058,67,0,2,12,44,594,949.7572515724169,950.6244539145264,"[74, 0, 180]",180,l,0.3340474389406154,colour,0.5
058,67,0,2,12,45,595,951.1407888396789,951.9765025250381,"[42, 0, 212]",212,a,0.3027673035830958,colour,0.5
058,67,0,2,12,46,596,952.4911811486381,953.7764608849247,"[71, 0, 183]",183,l,0.7527292243757984,colour,0.5
058,67,0,2,12,47,597,954.2904555583227,954.8806118723733,"[21, 0, 233]",233,a,0.05688560129783582,colour,0.5
058,67,0,2,12,48,598,955.3911181431031,956.0245580469054,"[17, 0, 237]",237,a,0.10083613875031006,colour,0.5
058,67,0,2,12,49,599,956.5410995686543,957.0805531014194,"[58, 0, 196]",196,a,0.006834690007963218,colour,0.5
058,67,0,2,12,50,600,957.591188976221,958.4485459000571,"[73, 0, 181]",181,l,0.3248147527920082,colour,0.5
058,67,0,2,13,1,601,965.1906084526272,966.376453955585,"[93, 0, 161]",161,l,0.6527226799953496,colour,0.5
058,67,0,2,13,2,602,966.8908111354394,967.7844822221086,"[75, 0, 179]",179,l,0.3607734668330522,colour,0.5
058,67,0,2,13,3,603,968.2910554583505,969.3685378415103,"[21, 0, 233]",233,a,0.5448244025319582,colour,0.5
058,67,0,2,13,4,604,969.8744794183003,970.5606495730462,"[45, 0, 209]",209,a,0.15362862529582344,colour,0.5
058,67,0,2,13,5,605,971.0738310129818,971.8564493745362,"[23, 0, 231]",231,a,0.24944838068040553,colour,0.5
058,67,0,2,13,6,606,972.3745641100686,972.9445105296909,"[73, 0, 181]",181,l,0.03747257943905424,colour,0.5
058,67,0,2,13,7,607,973.4577009520872,974.0804639184207,"[79, 0, 175]",175,l,0.09012262983014807,colour,0.5
058,67,0,2,13,8,608,974.5906657478918,975.1685414344975,"[3, 0, 251]",251,a,0.04487637248530518,colour,0.5
058,67,0,2,13,9,609,975.6738304996979,978.2564736271743,"[61, 0, 193]",193,a,2.049466409764136,colour,0.5
058,67,0,2,13,10,610,978.7736512996053,979.3446380806272,"[8, 0, 246]",246,a,0.03762046922929585,colour,0.5
058,67,0,2,13,11,611,979.8576677811361,981.3525416834309,"[46, 0, 208]",208,a,0.9622059768007603,colour,0.5
058,67,0,2,13,12,612,981.8578365230787,982.4085447580001,"[49, 0, 205]",205,a,0.018235036346595734,colour,0.5
058,67,0,2,13,13,613,982.9235618278908,983.5045756012114,"[86, 0, 168]",168,l,0.04759292516973801,colour,0.5
058,67,0,2,13,14,614,984.0069700685272,984.5444554800488,"[19, 0, 235]",235,a,0.004151821558480151,colour,0.5
058,67,0,2,13,15,615,985.0574607995804,985.832491227673,"[20, 0, 234]",234,a,0.24219247745350003,colour,0.5
058,67,0,2,13,16,616,986.3412484850123,986.9684792630287,"[77, 0, 177]",177,l,0.09484932884515729,colour,0.5
058,67,0,2,13,17,617,987.4736310249136,989.9765313972312,"[33, 0, 221]",221,a,1.9695667823398253,colour,0.5
058,67,0,2,13,18,618,990.4905777197855,991.048474168696,"[89, 0, 165]",165,l,0.02484420243126806,colour,0.5
058,67,0,2,13,19,619,991.5581919077085,994.6485702168575,"[60, 0, 194]",194,l,2.5582894315593876,colour,0.5
058,67,0,2,13,20,620,995.1576466723636,995.9684629021212,"[82, 0, 172]",172,l,0.2781851965119131,colour,0.5
058,67,0,2,13,21,621,996.4743836267735,997.1366678151389,"[7, 0, 247]",247,a,0.1297288644273067,colour,0.5
058,67,0,2,13,22,622,997.640177390771,998.2484510067734,"[10, 0, 244]",244,a,0.07484442698478233,colour,0.5
058,67,0,2,13,23,623,998.7573523042956,999.3364646832197,"[9, 0, 245]",245,a,0.046186207691789605,colour,0.5
058,67,0,2,13,24,624,999.8407066501677,1001.680568628246,"[88, 0, 166]",166,l,1.3069617918226868,colour,0.5
058,67,0,2,13,25,625,1002.1909767335019,1004.656448476293,"[95, 0, 159]",159,l,1.9328711857378948,colour,0.5
058,67,0,2,13,26,626,1005.173827612467,1007.1605002075667,"[81, 0, 173]",173,l,1.4535869851824827,colour,0.5
058,67,0,2,13,27,627,1007.6740573068237,1008.320618339756,"[17, 0, 237]",237,a,0.11370287176396232,colour,0.5
058,67,0,2,13,28,628,1008.8238873137598,1010.6564398146293,"[51, 0, 203]",203,a,1.2995304098003544,colour,0.5
058,67,0,2,13,29,629,1011.1743716929341,1011.8725019937847,"[37, 0, 217]",217,a,0.16560866113286465,colour,0.5
058,67,0,2,13,30,630,1012.3747982956411,1013.1764787215216,"[65, 0, 189]",189,l,0.26958866105997004,colour,0.5
058,67,0,2,13,31,631,1013.6909969440458,1014.3204605050851,"[94, 0, 160]",160,l,0.09688963058579247,colour,0.5
058,67,0,2,13,32,632,1014.8240464316332,1015.3684858715569,"[85, 0, 169]",169,l,0.011597960474318825,colour,0.5
058,67,0,2,13,33,633,1015.8731984552724,1016.8884837157675,"[74, 0, 180]",180,l,0.4815984673332423,colour,0.5
058,67,0,2,13,34,634,1017.3909891806252,1018.128491851312,"[2, 0, 252]",252,a,0.20494510112621356,colour,0.5
058,67,0,2,13,35,635,1018.6405787142721,1019.2885984346212,"[26, 0, 228]",228,a,0.11504607039387338,colour,0.5
058,67,0,2,13,36,636,1019.7901976333815,1020.9365061950084,"[67, 0, 187]",187,l,0.612958931538742,colour,0.5
058,67,0,2,13,37,637,1021.4404616856336,1022.5844867775013,"[83, 0, 171]",171,l,0.6109609756967984,colour,0.5
058,67,0,2,13,38,638,1023.090785727909,1023.944491602364,"[50, 0, 204]",204,a,0.32096223965345416,colour,0.5
058,67,0,2,13,39,639,1024.4575306061306,1025.3286075967335,"[48, 0, 206]",206,a,0.33842542601632886,colour,0.5
058,67,0,2,13,40,640,1025.8408776377182,1027.0004834488645,"[66, 0, 188]",188,l,0.6269657954399008,colour,0.5
058,67,0,2,13,41,641,1027.5083078135212,1029.0005216243153,"[41, 0, 213]",213,l,0.9603414746525232,colour,0.5
058,67,0,2,13,42,642,1029.5075228106434,1031.2805203154421,"[90, 0, 164]",164,a,1.2403375993599184,colour,0.5
058,67,0,2,13,43,643,1031.790151117064,1032.864616997511,"[14, 0, 240]",240,a,0.5411104759114096,colour,0.5
058,67,0,2,13,44,644,1033.374553523594,1034.0644924621156,"[72, 0, 182]",182,l,0.157661108445609,colour,0.5
058,67,0,2,13,45,645,1034.5740613489324,1035.168522186359,"[47, 0, 207]",207,a,0.061693784067756496,colour,0.5
058,67,0,2,13,46,646,1035.674344424755,1036.4884957137692,"[29, 0, 225]",225,a,0.28165114305738825,colour,0.5
058,67,0,2,13,47,647,1036.9912392138358,1037.9764845601167,"[5, 0, 249]",249,a,0.4529800275049638,colour,0.5
058,67,0,2,13,48,648,1038.491075604732,1039.2084829073428,"[64, 0, 190]",190,l,0.18498062033904716,colour,0.5
058,67,0,2,13,49,649,1039.724076137907,1040.432494243214,"[38, 0, 216]",216,a,0.1756632424221607,colour,0.5
058,67,0,2,13,50,650,1040.9407054952753,1042.712535601022,"[22, 0, 232]",232,a,1.2389927967014955,colour,0.5
058,67,0,2,14,1,651,1049.4732313054265,1050.6726778575394,"[74, 0, 180]",180,l,0.6658438091399148,colour,0.5
058,67,0,2,14,2,652,1051.1739370060095,1051.7204889281566,"[44, 0, 210]",210,a,0.01371140508854296,colour,0.5
058,67,0,2,14,3,653,1052.2238849398127,1052.8965384163894,"[18, 0, 236]",236,a,0.13972923015535343,colour,0.5
058,67,0,2,14,4,654,1053.4075579705532,1053.9685995638429,"[76, 0, 178]",178,l,0.02846252998278942,colour,0.5
058,67,0,2,14,5,655,1054.4738697017165,1055.0806730814365,"[17, 0, 237]",237,a,0.07389966463961173,colour,0.5
058,67,0,2,14,6,656,1055.5902599331603,1056.2806691676524,"[68, 0, 186]",186,l,0.15721647666941863,colour,0.5
058,67,0,2,14,7,657,1056.7911029370734,1058.6085151800362,"[99, 0, 155]",155,l,1.2850397762522334,colour,0.5
058,67,0,2,14,8,658,1059.1238219342777,1061.048674670048,"[95, 0, 159]",159,l,1.3919005795614794,colour,0.5
058,67,0,2,14,9,659,1061.5574197369133,1063.5524957445596,"[48, 0, 206]",206,a,1.4623859468119917,colour,0.5
058,67,0,2,14,10,660,1064.0570007692877,1065.0886825489433,"[70, 0, 184]",184,l,0.49859905696939677,colour,0.5
058,67,0,2,14,11,661,1065.591597357372,1066.216469277104,"[55, 0, 199]",199,a,0.09300920765963383,colour,0.5
058,67,0,2,14,12,662,1066.723921190467,1067.336737044243,"[90, 0, 164]",164,l,0.07999298084178008,colour,0.5
058,67,0,2,14,13,663,1067.8428467213816,1068.5286081741797,"[52, 0, 202]",202,a,0.15514409470779356,colour,0.5
058,67,0,2,14,14,664,1069.0409298643062,1070.232535690855,"[71, 0, 183]",183,l,0.6591332695679739,colour,0.5
058,67,0,2,14,15,665,1070.7400780704193,1072.6885158601362,"[94, 0, 160]",160,l,1.4151128614030313,colour,0.5
058,67,0,2,14,16,666,1073.1912895156129,1073.808514795077,"[29, 0, 225]",225,a,0.08513030663016252,colour,0.5
058,67,0,2,14,17,667,1074.3242998653295,1075.0086289364845,"[40, 0, 214]",214,a,0.15189661443582736,colour,0.5
058,67,0,2,14,18,668,1075.523995359923,1077.6245389271062,"[64, 0, 190]",190,a,1.5677848546765745,colour,0.5
058,67,0,2,14,19,669,1078.1403198269254,1078.6885562812095,"[84, 0, 170]",170,l,0.015114914538571611,colour,0.5
058,67,0,2,14,20,670,1079.1901683120668,1079.7925876094669,"[92, 0, 162]",162,a,0.06920825384440832,colour,0.5
058,67,0,2,14,21,671,1080.3074779625022,1081.016539596938,"[45, 0, 209]",209,a,0.17649155360413715,colour,0.5
058,67,0,2,14,22,672,1081.5235571441735,1083.2404453888885,"[14, 0, 240]",240,a,1.1837371911678929,colour,0.5
058,67,0,2,14,23,673,1083.7572586300666,1084.392712529836,"[58, 0, 196]",196,a,0.10266920228605159,colour,0.5
058,67,0,2,14,24,674,1084.9074392737675,1086.6566720753908,"[38, 0, 216]",216,a,1.2166332069900818,colour,0.5
058,67,0,2,14,25,675,1087.1737454871181,1088.0566719470808,"[24, 0, 230]",230,a,0.34999066466116346,colour,0.5
058,67,0,2,14,26,676,1088.5739115343167,1089.6565463209554,"[63, 0, 191]",191,l,0.5498600340215489,colour,0.5
058,67,0,2,14,27,677,1090.1740149609395,1090.7445221427333,"[26, 0, 228]",228,a,0.03782899063662626,colour,0.5
058,67,0,2,14,28,678,1091.256869817851,1091.8246158554539,"[41, 0, 213]",213,a,0.03458856801444199,colour,0.5
058,67,0,2,14,29,679,1092.3409706703533,1093.1365465519339,"[54, 0, 200]",200,a,0.26317101386666764,colour,0.5
058,67,0,2,14,30,680,1093.6405248195078,1094.1845090411662,"[88, 0, 166]",166,l,0.0111873337009456,colour,0.5
058,67,0,2,14,31,681,1094.6900412744144,1095.976519206757,"[4, 0, 250]",250,a,0.7531828386272537,colour,0.5
058,67,0,2,14,32,682,1096.4911959055462,1097.280644786675,"[9, 0, 245]",245,a,0.25731412883033045,colour,0.5
058,67,0,2,14,33,683,1097.7900542348216,1098.4486758249259,"[10, 0, 244]",244,a,0.12532328837551177,colour,0.5
058,67,0,2,14,34,684,1098.9572438090108,1100.7285336839122,"[42, 0, 212]",212,a,1.238544315288891,colour,0.5
058,67,0,2,14,35,685,1101.240525910238,1101.8966683412582,"[32, 0, 222]",222,a,0.12333623980521224,colour,0.5
058,67,0,2,14,36,686,1102.4069221406826,1103.6005734017817,"[98, 0, 156]",156,l,0.6605810496985214,colour,0.5
058,67,0,2,14,37,687,1104.1074690442038,1106.5925559142197,"[49, 0, 205]",205,a,1.9525825536256889,colour,0.5
058,67,0,2,14,38,688,1107.1067668082687,1107.8486317467177,"[8, 0, 246]",246,a,0.2086696141923312,colour,0.5
058,67,0,2,14,39,689,1108.3570303472516,1109.0727072430163,"[50, 0, 204]",204,a,0.18270773703989107,colour,0.5
058,67,0,2,14,40,690,1109.59015984289,1110.2165299087064,"[73, 0, 181]",181,a,0.09322510751371738,colour,0.5
058,67,0,2,14,41,691,1110.7240517569444,1111.5366022431845,"[43, 0, 211]",211,a,0.27997302696167026,colour,0.5
058,67,0,2,14,42,692,1112.0401041195582,1112.6726518725627,"[1, 0, 253]",253,a,0.0993607696145773,colour,0.5
058,67,0,2,14,43,693,1113.1909334252123,1113.8645390425954,"[66, 0, 188]",188,a,0.14121711056213826,colour,0.5
058,67,0,2,14,44,694,1114.373946245105,1115.1685359808616,"[6, 0, 248]",248,a,0.26191860223480035,colour,0.5
058,67,0,2,14,45,695,1115.6740223393863,1116.2325347284495,"[28, 0, 226]",226,a,0.025919852079823613,colour,0.5
058,67,0,2,14,46,696,1116.7399147821125,1117.4007049948268,"[78, 0, 176]",176,l,0.12742742973205168,colour,0.5
058,67,0,2,14,47,697,1117.906613529005,1119.512481449623,"[79, 0, 175]",175,l,1.072542671507108,colour,0.5
058,67,0,2,14,48,698,1120.0235144774924,1120.6885482611542,"[39, 0, 215]",215,a,0.1319436825287994,colour,0.5
058,67,0,2,14,49,699,1121.1916154506034,1121.776653366207,"[56, 0, 198]",198,a,0.05339270738477353,colour,0.5
058,67,0,2,14,50,700,1122.2913948670466,1122.824659484555,"[47, 0, 207]",207,a,0.0013884317449992523,colour,0.5
058,67,0,2,15,1,701,1128.756432885304,1133.4486649176542,"[78, 0, 176]",176,l,4.158751835784642,colour,0.5
058,67,0,2,15,2,702,1133.9571713077166,1134.5206259748375,"[17, 0, 237]",237,a,0.030723543604835868,colour,0.5
058,67,0,2,15,3,703,1135.0235080614366,1136.4406939464097,"[53, 0, 201]",201,a,0.884134280087892,colour,0.5
058,67,0,2,15,4,704,1136.9566403801437,1137.5526340102952,"[40, 0, 214]",214,a,0.0627402407117188,colour,0.5
058,67,0,2,15,5,705,1138.0572827543801,1140.3525166608597,"[87, 0, 167]",167,l,1.762601910813828,colour,0.5
058,67,0,2,15,6,706,1140.8573071995052,1141.5287018484087,"[7, 0, 247]",247,a,0.1388255304627819,colour,0.5
058,67,0,2,15,7,707,1142.0404185056686,1142.6405405388068,"[90, 0, 164]",164,l,0.06732482436927967,colour,0.5
058,67,0,2,15,8,708,1143.1573419103079,1143.7208251288248,"[29, 0, 225]",225,a,0.030953237946960144,colour,0.5
058,67,0,2,15,9,709,1144.2231692302012,1144.800589056933,"[33, 0, 221]",221,a,0.04398422167287208,colour,0.5
058,67,0,2,15,10,710,1145.3069919472327,1145.8566290237504,"[12, 0, 242]",242,a,0.016765762455179356,colour,0.5
058,67,0,2,15,11,711,1146.3737066058966,1148.0325242061372,"[5, 0, 249]",249,a,1.125996972914436,colour,0.5
058,67,0,2,15,12,712,1148.5401076483831,1149.7205341612716,"[58, 0, 196]",196,a,0.6473389781749574,colour,0.5
058,67,0,2,15,13,713,1150.2235744033242,1150.952712478509,"[25, 0, 229]",229,a,0.1961769365152577,colour,0.5
058,67,0,2,15,14,714,1151.4567282799399,1152.016631025559,"[48, 0, 206]",206,a,0.02676644898019731,colour,0.5
058,67,0,2,15,15,715,1152.5238779463252,1154.1525523340679,"[54, 0, 200]",200,a,1.096038221658091,colour,0.5
058,67,0,2,15,16,716,1154.6570586419984,1155.2326377059362,"[81, 0, 173]",173,l,0.04279564967146143,colour,0.5
058,67,0,2,15,17,717,1155.740412025465,1156.4647217073361,"[38, 0, 216]",216,a,0.19153268364607356,colour,0.5
058,67,0,2,15,18,718,1156.9741237770213,1157.76868014934,"[20, 0, 234]",234,a,0.2621681862947298,colour,0.5
058,67,0,2,15,19,719,1158.2739130741684,1159.304720347136,"[74, 0, 180]",180,l,0.4981746357079828,colour,0.5
058,67,0,2,15,20,720,1159.806748137591,1160.6727327147091,"[69, 0, 185]",185,l,0.3328992880124133,colour,0.5
058,67,0,2,15,21,721,1161.1904663372698,1162.0485595020727,"[45, 0, 209]",209,a,0.32535979566455353,colour,0.5
058,67,0,2,15,22,722,1162.5572012706398,1163.4005609546584,"[61, 0, 193]",193,a,0.31070844024361577,colour,0.5
058,67,0,2,15,23,723,1163.9067283761688,1164.704562063358,"[51, 0, 203]",203,a,0.26473235797311645,colour,0.5
058,67,0,2,15,24,724,1165.206547828726,1166.7845524777804,"[64, 0, 190]",190,a,1.0447284826659597,colour,0.5
058,67,0,2,15,25,725,1167.2907981750323,1168.1767257391766,"[28, 0, 226]",226,a,0.35352718766080216,colour,0.5
058,67,0,2,15,26,726,1168.6903797206905,1169.4726176108816,"[89, 0, 165]",165,l,0.24947083683218807,colour,0.5
058,67,0,2,15,27,727,1169.990019203222,1170.6326622793858,"[16, 0, 238]",238,a,0.10951929079601541,colour,0.5
058,67,0,2,15,28,728,1171.1401135511405,1172.368732247618,"[93, 0, 161]",161,l,0.6956087958824355,colour,0.5
058,67,0,2,15,29,729,1172.8733559691318,1173.624574856949,"[36, 0, 218]",218,a,0.21811274655919988,colour,0.5
058,67,0,2,15,30,730,1174.1403297717916,1175.6567721656756,"[86, 0, 168]",168,l,0.9836378066684119,colour,0.5
058,67,0,2,15,31,731,1176.1734606148093,1178.4967188355222,"[44, 0, 210]",210,a,1.7902605106064584,colour,0.5
058,67,0,2,15,32,732,1179.0068549005518,1179.7927117599029,"[0, 0, 254]",254,a,0.25293550016067456,colour,0.5
058,67,0,2,15,33,733,1180.306689109988,1181.8886784426722,"[97, 0, 157]",157,l,1.0488896074821241,colour,0.5
058,67,0,2,15,34,734,1182.3900078468287,1183.2246487697557,"[10, 0, 244]",244,a,0.3015524258080404,colour,0.5
058,67,0,2,15,35,735,1183.740508907722,1184.57658542032,"[4, 0, 250]",250,a,0.3034364968916634,colour,0.5
058,67,0,2,15,36,736,1185.0907796326646,1186.2405807674077,"[34, 0, 220]",220,a,0.6174819212028524,colour,0.5
058,67,0,2,15,37,737,1186.7573003343423,1187.6325708507648,"[55, 0, 199]",199,l,0.342809829118778,colour,0.5
058,67,0,2,15,38,738,1188.1401825235953,1188.7606087670138,"[66, 0, 188]",188,l,0.08752284913498443,colour,0.5
058,67,0,2,15,39,739,1189.2737716004194,1190.8245876248693,"[80, 0, 174]",174,l,1.018165743080317,colour,0.5
058,67,0,2,15,40,740,1191.340260093566,1191.984555621646,"[13, 0, 241]",241,a,0.1114838832145324,colour,0.5
058,67,0,2,15,41,741,1192.4900846468663,1193.8806285540923,"[24, 0, 230]",230,a,0.8575510091468459,colour,0.5
058,67,0,2,15,42,742,1194.390232087535,1194.9445798229572,"[50, 0, 204]",204,a,0.021513955216505565,colour,0.5
058,67,0,2,15,43,743,1195.457272681204,1196.0166615017515,"[8, 0, 246]",246,a,0.02690054426784627,colour,0.5
058,67,0,2,15,44,744,1196.5233986679086,1198.192577215479,"[60, 0, 194]",194,l,1.1361795542470645,colour,0.5
058,67,0,2,15,45,745,1198.706697643327,1199.9686207367922,"[31, 0, 223]",223,a,0.7288740549993236,colour,0.5
058,67,0,2,15,46,746,1200.473541841915,1201.1206986044563,"[76, 0, 178]",178,l,0.11431207506393548,colour,0.5
058,67,0,2,15,47,747,1201.6234806007706,1202.6246104659804,"[15, 0, 239]",239,a,0.4682075435994193,colour,0.5
058,67,0,2,15,48,748,1203.1406444787135,1203.992668066654,"[72, 0, 182]",182,l,0.3196251362678595,colour,0.5
058,67,0,2,15,49,749,1204.5068334068055,1205.360743953046,"[75, 0, 179]",179,a,0.321040836191969,colour,0.5
058,67,0,2,15,50,750,1205.8737945056928,1206.8405786501098,"[62, 0, 192]",192,l,0.4341749257146148,colour,0.5
058,67,0,2,16,1,751,1212.1894112189766,1214.432590163051,"[99, 0, 155]",155,l,1.7095604817877756,colour,0.5
058,67,0,2,16,2,752,1214.9405008235044,1215.9767829061311,"[52, 0, 202]",202,l,0.5037668589648092,colour,0.5
058,67,0,2,16,3,753,1216.4897571078618,1217.3845773078647,"[89, 0, 165]",165,l,0.3615655273606535,colour,0.5
058,67,0,2,16,4,754,1217.8897463930625,1218.8966086720611,"[58, 0, 196]",196,l,0.47359894469263963,colour,0.5
058,67,0,2,16,5,755,1219.4073982110858,1220.4166033082438,"[50, 0, 204]",204,l,0.4769259838794824,colour,0.5
058,67,0,2,16,6,756,1220.9233821786765,1221.6486420765432,"[83, 0, 171]",171,l,0.192291059953277,colour,0.5
058,67,0,2,16,7,757,1222.158023935699,1222.8645733684243,"[76, 0, 178]",178,l,0.17489395884331316,colour,0.5
058,67,0,2,16,8,758,1223.3745252930094,1224.0247110695345,"[24, 0, 230]",230,a,0.11837439279770479,colour,0.5
058,67,0,2,16,9,759,1224.5404069567885,1225.1047765516705,"[39, 0, 215]",215,a,0.031777378695551306,colour,0.5
058,67,0,2,16,10,760,1225.6078029992495,1226.152594359155,"[11, 0, 243]",243,a,0.012905550072900951,colour,0.5
058,67,0,2,16,11,761,1226.6565004462464,1228.152562278934,"[14, 0, 240]",240,a,0.9629098167351913,colour,0.5
058,67,0,2,16,12,762,1228.6568494789972,1229.20859133848,"[12, 0, 242]",242,a,0.018942084308946505,colour,0.5
058,67,0,2,16,13,763,1229.7236667943507,1232.2567658779444,"[25, 0, 229]",229,a,2.000426346072345,colour,0.5
058,67,0,2,16,14,764,1232.7735929136106,1233.4165731528483,"[46, 0, 208]",208,a,0.11025938138482161,colour,0.5
058,67,0,2,16,15,765,1233.9237158129254,1235.0246356810385,"[16, 0, 238]",238,a,0.5683167446550215,colour,0.5
058,67,0,2,16,16,766,1235.5395411117643,1236.304672547616,"[65, 0, 189]",189,l,0.23171539972827304,colour,0.5
058,67,0,2,16,17,767,1236.8068013907468,1237.6566480152396,"[87, 0, 167]",167,l,0.3170182979229139,colour,0.5
058,67,0,2,16,18,768,1238.173325557087,1239.1694589286635,"[9, 0, 245]",245,a,0.4631292454141658,colour,0.5
058,67,0,2,16,19,769,1239.67339164234,1240.47274400694,"[23, 0, 231]",231,a,0.26645217834447976,colour,0.5
058,67,0,2,16,20,770,1240.9897837344324,1241.9285859105003,"[59, 0, 195]",195,l,0.40563764882972464,colour,0.5
058,67,0,2,16,21,771,1242.4397061965574,1243.0645672090177,"[17, 0, 237]",237,a,0.09161853030673228,colour,0.5
058,67,0,2,16,22,772,1243.5741107524664,1245.200538562669,"[51, 0, 203]",203,a,1.0942548824532423,colour,0.5
058,67,0,2,16,23,773,1245.7070312775759,1246.2886237779894,"[80, 0, 174]",174,l,0.04902691081224475,colour,0.5
058,67,0,2,16,24,774,1246.7906522100384,1248.1287446434144,"[60, 0, 194]",194,a,0.8058168489224045,colour,0.5
058,67,0,2,16,25,775,1248.6402226238715,1249.296590899612,"[22, 0, 232]",232,l,0.12366538280912209,colour,0.5
058,67,0,2,16,26,776,1249.8070419923606,1251.3846995334898,"[19, 0, 235]",235,l,1.0450842522695893,colour,0.5
058,67,0,2,16,27,777,1251.890711686763,1252.8966362610372,"[15, 0, 239]",239,a,0.47372534073656425,colour,0.5
058,67,0,2,16,28,778,1253.406562842254,1254.016585792444,"[77, 0, 177]",177,l,0.07701272878330201,colour,0.5
058,67,0,2,16,29,779,1254.5235969236383,1255.0727383608173,"[96, 0, 158]",158,l,0.01646869964315556,colour,0.5
058,67,0,2,16,30,780,1255.590521066115,1257.0327805270645,"[68, 0, 186]",186,l,0.9098671045067022,colour,0.5
058,67,0,2,16,31,781,1257.539611688233,1258.0966005878436,"[54, 0, 200]",200,l,0.023691560272709467,colour,0.5
058,67,0,2,16,32,782,1258.607774768665,1259.3846867014072,"[92, 0, 162]",162,l,0.2451207595586311,colour,0.5
058,67,0,2,16,33,783,1259.8902818118659,1261.3047514649516,"[88, 0, 166]",166,l,0.8818267501483206,colour,0.5
058,67,0,2,16,34,784,1261.8064703229174,1262.5447650541319,"[44, 0, 210]",210,a,0.20520559248689096,colour,0.5
058,67,0,2,16,35,785,1263.0564999971248,1263.6725889953377,"[47, 0, 207]",207,a,0.08303963896469213,colour,0.5
058,67,0,2,16,36,786,1264.1902728935675,1264.8966333738208,"[4, 0, 250]",250,a,0.17375029914546758,colour,0.5
058,67,0,2,16,37,787,1265.4077292789152,1266.944569878091,"[20, 0, 234]",234,a,1.0050234410155099,colour,0.5
058,67,0,2,16,38,788,1267.4570012825716,1268.1526315722003,"[74, 0, 180]",180,l,0.1630974218423944,colour,0.5
058,67,0,2,16,39,789,1268.656400676773,1269.2887052617443,"[33, 0, 221]",221,a,0.09912241362326313,colour,0.5
058,67,0,2,16,40,790,1269.7902322800219,1271.8886046581756,"[55, 0, 199]",199,l,1.5657220967841567,colour,0.5
058,67,0,2,16,41,791,1272.391089591707,1273.0327481260465,"[49, 0, 205]",205,a,0.1098856468743179,colour,0.5
058,67,0,2,16,42,792,1273.5402317988191,1274.3126095138432,"[67, 0, 187]",187,l,0.2397473233868368,colour,0.5
058,67,0,2,16,43,793,1274.8228273834247,1275.7686368410505,"[53, 0, 201]",201,a,0.41243159695295617,colour,0.5
058,67,0,2,16,44,794,1276.27323682321,1276.824615534657,"[69, 0, 185]",185,l,0.01840057026129216,colour,0.5
058,67,0,2,16,45,795,1277.3401898378943,1277.9287100609363,"[36, 0, 218]",218,a,0.05586737525300123,colour,0.5
058,67,0,2,16,46,796,1278.439700101313,1279.552745007837,"[30, 0, 224]",224,a,0.5798970610048855,colour,0.5
058,67,0,2,16,47,797,1280.0567213506147,1280.632613196649,"[48, 0, 206]",206,a,0.043077634763903916,colour,0.5
058,67,0,2,16,48,798,1281.140319185317,1281.7446334610868,"[40, 0, 214]",214,a,0.07177242552279495,colour,0.5
058,67,0,2,16,49,799,1282.2570019883424,1282.904598891444,"[0, 0, 254]",254,l,0.11508360425068531,colour,0.5
058,67,0,2,16,50,800,1283.4069455592398,1286.1366235444439,"[90, 0, 164]",164,l,2.1971027715335367,colour,0.5
