id,age,condition,counterbalance,block,trialinblock,trial,tstart,tend,trialstim,trialintensity,response,RT,trialtype,colourfreq
132,22,1,2,Practice,1,NA,6.3015613704919815e-06,0.6762129666749388,"[21, 0, 233]",233,a,0.15192882111296058,colour,0.5
132,22,1,2,Practice,2,NA,1.1883402701932937,8.140297369332984,"[45, 0, 209]",209,a,6.428649691399187,colour,0.5
132,22,1,2,Practice,3,NA,8.656995648751035,9.82817053841427,"[87, 0, 167]",167,l,0.6477595681790262,colour,0.5
132,22,1,2,Practice,4,NA,10.344551771879196,11.084237734787166,"[89, 0, 165]",165,l,0.21638367511332035,colour,0.5
132,22,1,2,Practice,5,NA,11.594837703974918,14.020167274167761,"[51, 0, 203]",203,a,1.9026625559199601,colour,0.5
132,22,1,2,Practice,6,NA,14.532749469857663,15.444161706836894,"[13, 0, 241]",241,a,0.38881375174969435,colour,0.5
132,22,1,2,Practice,7,NA,15.953842439455912,17.05213968618773,"[5, 0, 249]",249,a,0.5749823558144271,colour,0.5
132,22,1,2,Practice,8,NA,17.563307974953204,18.124131963588297,"[91, 0, 163]",163,l,0.03757880860939622,colour,0.5
132,22,1,2,Practice,9,NA,18.641311522573233,19.524146299576387,"[26, 0, 228]",228,a,0.35939897526986897,colour,0.5
132,22,1,2,Practice,10,NA,20.031959808897227,20.652152919443324,"[78, 0, 176]",176,l,0.09687585663050413,colour,0.5
132,22,1,2,1,1,1,4.361638777190819,6.103967840084806,"[54, 0, 200]",200,a,1.2181701604276896,colour,0.5
132,22,1,2,1,2,2,6.612407170468941,7.752008614130318,"[37, 0, 217]",217,a,0.6162802511826158,colour,0.5
132,22,1,2,1,3,3,8.268601736752316,9.055970231536776,"[52, 0, 202]",202,a,0.2639586871955544,colour,0.5
132,22,1,2,1,4,4,9.565499727381393,10.303991943364963,"[55, 0, 199]",199,a,0.2158255954273045,colour,0.5
132,22,1,2,1,5,5,10.815454435069114,11.431981233879924,"[23, 0, 231]",231,a,0.09311738493852317,colour,0.5
132,22,1,2,1,6,6,11.94050090899691,12.911962045822293,"[85, 0, 169]",169,l,0.44792923680506647,colour,0.5
132,22,1,2,1,7,7,13.424856955185533,13.960014398908243,"[26, 0, 228]",228,a,0.011942195938900113,colour,0.5
132,22,1,2,1,8,8,14.471754552097991,15.071983218891546,"[79, 0, 175]",175,l,0.07695946213789284,colour,0.5
132,22,1,2,1,9,9,15.581140136579052,16.112035773694515,"[98, 0, 156]",156,l,0.007600044598802924,colour,0.5
132,22,1,2,1,10,10,16.62805663817562,17.271994325332344,"[7, 0, 247]",247,a,0.12057041493244469,colour,0.5
132,22,1,2,1,11,11,17.784184644464403,18.375979494769126,"[63, 0, 191]",191,a,0.06838464876636863,colour,0.5
132,22,1,2,1,12,12,18.893582832068205,19.49604775616899,"[69, 0, 185]",185,a,0.07902439637109637,colour,0.5
132,22,1,2,1,13,13,20.003001893637702,20.68001003516838,"[44, 0, 210]",210,a,0.15401935507543385,colour,0.5
132,22,1,2,1,14,14,21.19049421348609,21.72001020843163,"[65, 0, 189]",189,a,0.006367700872942805,colour,0.5
132,22,1,2,1,15,15,22.2373689673841,22.791997365886346,"[8, 0, 246]",246,a,0.03156793210655451,colour,0.5
132,22,1,2,1,16,16,23.299862075131387,25.120043055154383,"[25, 0, 229]",229,a,1.2967885015532374,colour,0.5
132,22,1,2,1,17,17,25.627921155188233,26.19204242178239,"[91, 0, 163]",163,l,0.04074020963162184,colour,0.5
132,22,1,2,1,18,18,26.706077515147626,27.28795414371416,"[10, 0, 244]",244,a,0.05874526989646256,colour,0.5
132,22,1,2,1,19,19,27.7998089059256,28.423954654019326,"[18, 0, 236]",236,a,0.10081431572325528,colour,0.5
132,22,1,2,1,20,20,28.94044616445899,29.50396169605665,"[13, 0, 241]",241,a,0.04018685617484152,colour,0.5
132,22,1,2,1,21,21,30.018570228945464,31.04798539937474,"[68, 0, 186]",186,l,0.506086495006457,colour,0.5
132,22,1,2,1,22,22,31.565424502827227,32.191972711123526,"[81, 0, 173]",173,l,0.10303245601244271,colour,0.5
132,22,1,2,1,23,23,32.70607239520177,34.04798697470687,"[49, 0, 205]",205,a,0.8185236763674766,colour,0.5
132,22,1,2,1,24,24,34.565460342913866,35.591987441061065,"[3, 0, 251]",251,a,0.5032086628489196,colour,0.5
132,22,1,2,1,25,25,36.11236227210611,37.26399531471543,"[22, 0, 232]",232,a,0.628232293529436,colour,0.5
132,22,1,2,1,26,26,37.78426577663049,38.744028901914135,"[59, 0, 195]",195,a,0.436475409893319,colour,0.5
132,22,1,2,1,27,27,39.253029856598005,40.17596129910089,"[95, 0, 159]",159,l,0.4002250435296446,colour,0.5
132,22,1,2,1,28,28,40.69052020739764,41.24798784125596,"[12, 0, 242]",242,a,0.03417085995897651,colour,0.5
132,22,1,2,1,29,29,41.7686493920628,42.70395586709492,"[70, 0, 184]",184,l,0.41205302416346967,colour,0.5
132,22,1,2,1,30,30,43.22172698285431,44.031928301090375,"[30, 0, 224]",224,a,0.2867804828565568,colour,0.5
132,22,1,2,1,31,31,44.54987940425053,45.1039800492581,"[9, 0, 245]",245,a,0.030690837185829878,colour,0.5
132,22,1,2,1,32,32,45.6123890534509,46.31996672786772,"[57, 0, 197]",197,a,0.1842344265896827,colour,0.5
132,22,1,2,1,33,33,46.8311428935267,47.375973587157205,"[96, 0, 158]",158,l,0.021561095025390387,colour,0.5
132,22,1,2,1,34,34,47.8936493920628,49.19194829277694,"[43, 0, 211]",211,a,0.7749820407480001,colour,0.5
132,22,1,2,1,35,35,49.706087755039334,50.23998252884485,"[5, 0, 249]",249,a,0.010966639500111341,colour,0.5
132,22,1,2,1,36,36,50.75438547437079,51.39194561447948,"[48, 0, 206]",206,a,0.11425982159562409,colour,0.5
132,22,1,2,1,37,37,51.910719068022445,53.33599349996075,"[1, 0, 253]",253,a,0.9020808455534279,colour,0.5
132,22,1,2,1,38,38,53.84803573274985,54.41594028356485,"[39, 0, 215]",215,a,0.04456327226944268,colour,0.5
132,22,1,2,1,39,39,54.926240141969174,55.511989063583314,"[2, 0, 252]",252,a,0.062405280070379376,colour,0.5
132,22,1,2,1,40,40,56.020011311164126,56.712318003876135,"[82, 0, 172]",172,l,0.1693403555545956,colour,0.5
132,22,1,2,1,41,41,57.223085751291364,58.319995084777474,"[87, 0, 167]",167,l,0.5735897165723145,colour,0.5
132,22,1,2,1,42,42,58.83249811735004,59.39195979293436,"[61, 0, 193]",193,a,0.03624564013443887,colour,0.5
132,22,1,2,1,43,43,59.91061863745563,60.567951418226585,"[84, 0, 170]",170,l,0.13406475773081183,colour,0.5
132,22,1,2,1,44,44,61.08249811735004,62.095948349451646,"[14, 0, 240]",240,a,0.49017275660298765,colour,0.5
132,22,1,2,1,45,45,62.61381359421648,63.25589232868515,"[78, 0, 176]",176,l,0.11879535135813057,colour,0.5
132,22,1,2,1,46,46,63.76995617267676,64.51191856525838,"[67, 0, 187]",187,l,0.218706184765324,colour,0.5
132,22,1,2,1,47,47,65.0199632619042,65.89592424617149,"[32, 0, 222]",222,a,0.35274179792031646,colour,0.5
132,22,1,2,1,48,48,66.41056546824984,67.25593525799923,"[6, 0, 248]",248,a,0.322040326660499,colour,0.5
132,22,1,2,1,49,49,67.76991600054316,68.42390818032436,"[74, 0, 180]",180,l,0.13061624276451766,colour,0.5
132,22,1,2,1,50,50,68.94179469277151,69.56796402134933,"[83, 0, 171]",171,l,0.10304860374890268,colour,0.5
132,22,1,2,2,1,51,74.50355209643021,75.15996682248078,"[30, 0, 224]",224,a,0.13237240188755095,colour,0.5
132,22,1,2,2,2,52,75.6761594035197,76.63196201436222,"[57, 0, 197]",197,a,0.4324211599305272,colour,0.5
132,22,1,2,2,3,53,77.14484156365506,77.71996924839914,"[94, 0, 160]",160,l,0.05180255393497646,colour,0.5
132,22,1,2,2,4,54,78.23862454830669,79.32792438473552,"[85, 0, 169]",169,l,0.5659112965222448,colour,0.5
132,22,1,2,2,5,55,79.84793254523538,80.55987088149413,"[98, 0, 156]",156,l,0.18853955622762442,colour,0.5
132,22,1,2,2,6,56,81.06675727735274,81.62396339746192,"[64, 0, 190]",190,a,0.03392943227663636,colour,0.5
132,22,1,2,2,7,57,82.14491836354136,82.8719413925428,"[68, 0, 186]",186,l,0.20370498741976917,colour,0.5
132,22,1,2,2,8,58,83.37927165278234,84.45597984129563,"[75, 0, 179]",179,a,0.5534409529063851,colour,0.5
132,22,1,2,2,9,59,84.97298807743937,85.86394632025622,"[23, 0, 231]",231,a,0.3676323243416846,colour,0.5
132,22,1,2,2,10,60,86.3792590496596,87.30393956182525,"[53, 0, 201]",201,a,0.4013128459919244,colour,0.5
132,22,1,2,2,11,61,87.80754719069228,88.4238943955861,"[7, 0, 247]",247,a,0.09308508946560323,colour,0.5
132,22,1,2,2,12,62,88.93252355977893,89.7040377871599,"[6, 0, 248]",248,a,0.24823911488056183,colour,0.5
132,22,1,2,2,13,63,90.21380240912549,91.22390613239259,"[89, 0, 165]",165,l,0.4867845003027469,colour,0.5
132,22,1,2,2,14,64,91.74504502443597,92.35194583516568,"[34, 0, 220]",220,a,0.08364342129789293,colour,0.5
132,22,1,2,2,15,65,92.87001981819049,93.70391490729526,"[25, 0, 229]",229,a,0.3105904380790889,colour,0.5
132,22,1,2,2,16,66,94.2137716889847,95.0318987625651,"[4, 0, 250]",250,a,0.2948389642406255,colour,0.5
132,22,1,2,2,17,67,95.54182919370942,96.3919389192015,"[58, 0, 196]",196,a,0.32691810838878155,colour,0.5
132,22,1,2,2,18,68,96.90143730118871,97.56019422900863,"[8, 0, 246]",246,a,0.13565589534118772,colour,0.5
132,22,1,2,2,19,69,98.07322107674554,98.83194121927954,"[33, 0, 221]",221,a,0.2356592824216932,colour,0.5
132,22,1,2,2,20,70,99.33871143055148,99.8959222768899,"[91, 0, 163]",163,l,0.033919586101546884,colour,0.5
132,22,1,2,2,21,71,100.43076858250424,101.23993802443147,"[90, 0, 164]",164,l,0.28423545067198575,colour,0.5
132,22,1,2,2,22,72,101.76057555060834,102.47995166713372,"[55, 0, 199]",199,a,0.19604744110256433,colour,0.5
132,22,1,2,2,23,73,102.9949930368457,103.77593160304241,"[60, 0, 194]",194,a,0.25713254953734577,colour,0.5
132,22,1,2,2,24,74,104.29178744601086,105.11191131849773,"[0, 0, 254]",254,a,0.29696533852256835,colour,0.5
132,22,1,2,2,25,75,105.61989654460922,106.5919323025737,"[21, 0, 233]",233,a,0.44872047333046794,colour,0.5
132,22,1,2,2,26,76,107.10430772905238,107.75191527279094,"[28, 0, 226]",226,a,0.1243017113301903,colour,0.5
132,22,1,2,2,27,77,108.26059799990617,109.06400350667536,"[22, 0, 232]",232,a,0.2801611144095659,colour,0.5
132,22,1,2,2,28,78,109.57327148900367,110.39190032240003,"[1, 0, 253]",253,a,0.29550771485082805,colour,0.5
132,22,1,2,2,29,79,110.90121399052441,111.63988422509283,"[13, 0, 241]",241,a,0.21541363280266523,colour,0.5
132,22,1,2,2,30,80,112.15117657533847,112.74394068052061,"[36, 0, 218]",218,a,0.06951656215824187,colour,0.5
132,22,1,2,2,31,81,113.2605538892094,113.89597623376176,"[43, 0, 211]",211,a,0.1122260014526546,colour,0.5
132,22,1,2,2,32,82,114.416831162991,115.59988602087833,"[24, 0, 230]",230,a,0.6597033394500613,colour,0.5
132,22,1,2,2,33,83,116.11991663067602,116.69589620432816,"[10, 0, 244]",244,a,0.05269894748926163,colour,0.5
132,22,1,2,2,34,84,117.21371891372837,117.87996757845394,"[95, 0, 159]",159,l,0.14295898005366325,colour,0.5
132,22,1,2,2,35,85,118.4011836645659,119.07193792657927,"[86, 0, 168]",168,l,0.1474244052078575,colour,0.5
132,22,1,2,2,36,86,119.58874805830419,121.73592906678095,"[50, 0, 204]",204,l,1.6240205052308738,colour,0.5
132,22,1,2,2,37,87,122.244858735241,123.41589380963705,"[44, 0, 210]",210,a,0.6476741035003215,colour,0.5
132,22,1,2,2,38,88,123.93242312921211,125.51993569289334,"[65, 0, 189]",189,a,1.0644450082909316,colour,0.5
132,22,1,2,2,39,89,126.02612222451717,127.31990489410236,"[97, 0, 157]",157,l,0.7706501292996109,colour,0.5
132,22,1,2,2,40,90,127.83866574452259,128.37596925487742,"[93, 0, 161]",161,l,0.01411977014504373,colour,0.5
132,22,1,2,2,41,91,128.88549993210472,129.4239219648298,"[92, 0, 162]",162,l,0.01505791093222797,colour,0.5
132,22,1,2,2,42,92,129.9323628707789,130.75190700194798,"[40, 0, 214]",214,a,0.2962469635531306,colour,0.5
132,22,1,2,2,43,93,131.26050583994947,132.00792693672702,"[15, 0, 239]",239,a,0.2240991168655455,colour,0.5
132,22,1,2,2,44,94,132.52612301218323,133.295952366665,"[66, 0, 188]",188,a,0.24668421130627394,colour,0.5
132,22,1,2,2,45,95,133.80745345517062,134.35996965807863,"[2, 0, 252]",252,a,0.029353336431086063,colour,0.5
132,22,1,2,2,46,96,134.86985125229694,135.4158934156876,"[54, 0, 200]",200,a,0.022731604985892773,colour,0.5
132,22,1,2,2,47,97,135.93241485836916,136.85594455269165,"[76, 0, 178]",178,l,0.40029357257299125,colour,0.5
132,22,1,2,2,48,98,137.3698599168565,138.1118888691999,"[61, 0, 193]",193,a,0.21868846146389842,colour,0.5
132,22,1,2,2,49,99,138.619852039963,139.3839355763048,"[9, 0, 245]",245,a,0.2408060608431697,colour,0.5
132,22,1,2,2,50,100,139.90111080300994,140.99990272009745,"[20, 0, 234]",234,a,0.5755609155166894,colour,0.5
132,22,1,2,3,1,101,145.52530341874808,146.19190654507838,"[23, 0, 231]",231,a,0.14264587266370654,colour,0.5
132,22,1,2,3,2,102,146.6979753167834,147.26392875472084,"[68, 0, 186]",186,l,0.0427476423792541,colour,0.5
132,22,1,2,3,3,103,147.7759749260731,148.41592137888074,"[83, 0, 171]",171,l,0.11676271259784698,colour,0.5
132,22,1,2,3,4,104,148.93228725227527,149.5199041850865,"[37, 0, 217]",217,l,0.06426541437394917,colour,0.5
132,22,1,2,3,5,105,150.02603242755868,151.03986981022172,"[58, 0, 196]",196,a,0.49052052246406674,colour,0.5
132,22,1,2,3,6,106,151.55731600313447,152.14394083805382,"[70, 0, 184]",184,a,0.06338044255971909,colour,0.5
132,22,1,2,3,7,107,152.65108284004964,153.97588008805178,"[71, 0, 183]",183,a,0.8015059879980981,colour,0.5
132,22,1,2,3,8,108,154.49480399070308,155.3998788530007,"[33, 0, 221]",221,a,0.3817859652917832,colour,0.5
132,22,1,2,3,9,109,155.916717735352,156.64788796193898,"[67, 0, 187]",187,a,0.20796088641509414,colour,0.5
132,22,1,2,3,10,110,157.16667480603792,158.20791874476708,"[35, 0, 219]",219,a,0.5179822170175612,colour,0.5
132,22,1,2,3,11,111,158.7291702767834,159.35194268426858,"[4, 0, 250]",250,a,0.09949650731869042,colour,0.5
132,22,1,2,3,12,112,159.86979059991427,160.44789457833394,"[94, 0, 160]",160,l,0.05534086562693119,colour,0.5
132,22,1,2,3,13,113,160.96350741852075,161.69587769336067,"[95, 0, 159]",159,l,0.20900142728351057,colour,0.5
132,22,1,2,3,14,114,162.21353971376084,162.7758614984341,"[13, 0, 241]",241,a,0.03892221697606146,colour,0.5
132,22,1,2,3,15,115,163.29166535381228,163.9920655800961,"[31, 0, 223]",223,a,0.17670133570209146,colour,0.5
132,22,1,2,3,16,116,164.51044203690253,165.57585669355467,"[54, 0, 200]",200,a,0.5421580551192164,colour,0.5
132,22,1,2,3,17,117,166.08856846462004,166.9598812791519,"[30, 0, 224]",224,a,0.3480676345061511,colour,0.5
132,22,1,2,3,18,118,167.47912419680506,168.28790530678816,"[36, 0, 218]",218,a,0.28547685290686786,colour,0.5
132,22,1,2,3,19,119,168.80725889536552,169.4639205627609,"[66, 0, 188]",188,a,0.13335937960073352,colour,0.5
132,22,1,2,3,20,120,169.97912537842058,170.85588665748946,"[38, 0, 216]",216,a,0.35336486203595996,colour,0.5
132,22,1,2,3,21,121,171.36971064913087,172.0159196460154,"[22, 0, 232]",232,a,0.12290985975414515,colour,0.5
132,22,1,2,3,22,122,172.52601943071932,173.18390871584415,"[49, 0, 205]",205,a,0.13476934796199203,colour,0.5
132,22,1,2,3,23,123,173.69797886139713,174.41589617263526,"[18, 0, 236]",236,a,0.19474617415107787,colour,0.5
132,22,1,2,3,24,124,174.93229788611643,175.58386594429612,"[81, 0, 173]",173,l,0.12823071819730103,colour,0.5
132,22,1,2,3,25,125,176.10412183380686,176.71990820229985,"[50, 0, 204]",204,a,0.09237419767305255,colour,0.5
132,22,1,2,3,26,126,177.2291045046877,177.83992014382966,"[92, 0, 162]",162,l,0.08754800981841981,colour,0.5
132,22,1,2,3,27,127,178.35405645542778,179.0878855357878,"[98, 0, 156]",156,l,0.21047638030722737,colour,0.5
132,22,1,2,3,28,128,179.60410371702164,180.31995727564208,"[55, 0, 199]",199,a,0.1925622986163944,colour,0.5
132,22,1,2,3,29,129,180.839303774992,181.86389275733382,"[39, 0, 215]",215,a,0.5021374018397182,colour,0.5
132,22,1,2,3,30,130,182.38531600614078,182.99184148176573,"[59, 0, 195]",195,a,0.08326572319492698,colour,0.5
132,22,1,2,3,31,131,183.51040540914983,184.09600309398957,"[86, 0, 168]",168,l,0.06232532928697765,colour,0.5
132,22,1,2,3,32,132,184.6041312860325,186.31988717103377,"[0, 0, 254]",254,a,1.1924949509557337,colour,0.5
132,22,1,2,3,33,133,186.8384889077861,187.76788336178288,"[10, 0, 244]",244,a,0.4061098895035684,colour,0.5
132,22,1,2,3,34,134,188.27592293848284,189.2078399755992,"[3, 0, 251]",251,a,0.40889241080731153,colour,0.5
132,22,1,2,3,35,135,189.72904267068952,190.62392676994205,"[72, 0, 182]",182,a,0.3714668082538992,colour,0.5
132,22,1,2,3,36,136,191.13534869533032,191.6799080290366,"[93, 0, 161]",161,l,0.02128028287552297,colour,0.5
132,22,1,2,3,37,137,192.19792332919315,192.83185772388242,"[27, 0, 227]",227,a,0.11073923297226429,colour,0.5
132,22,1,2,3,38,138,193.33840816933662,194.12788925366476,"[20, 0, 234]",234,a,0.26614610734395683,colour,0.5
132,22,1,2,3,39,139,194.63534790766425,195.4478874891065,"[63, 0, 191]",191,a,0.28933024127036333,colour,0.5
132,22,1,2,3,40,140,195.96341565228067,197.23185591213405,"[6, 0, 248]",248,a,0.7449977628421038,colour,0.5
132,22,1,2,3,41,141,197.74464802769944,198.51185476221144,"[5, 0, 249]",249,a,0.24392335140146315,colour,0.5
132,22,1,2,3,42,142,199.02592333243228,199.65585467708297,"[26, 0, 228]",228,a,0.1068023492116481,colour,0.5
132,22,1,2,3,43,143,200.16655744006857,201.1918636157643,"[21, 0, 233]",233,a,0.5020318510942161,colour,0.5
132,22,1,2,3,44,144,201.69797098450363,202.3998666438274,"[57, 0, 197]",197,a,0.17885685432702303,colour,0.5
132,22,1,2,3,45,145,202.916555470787,203.62385627138428,"[96, 0, 158]",158,l,0.1840256880968809,colour,0.5
132,22,1,2,3,46,146,204.13524078158662,204.6958643028047,"[32, 0, 222]",222,a,0.037260187324136496,colour,0.5
132,22,1,2,3,47,147,205.21334633557126,205.89586910768412,"[85, 0, 169]",169,l,0.1591665274463594,colour,0.5
132,22,1,2,3,48,148,206.41652829549275,206.94391318992712,"[11, 0, 243]",243,a,0.004216514294967055,colour,0.5
132,22,1,2,3,49,149,207.46327977557667,208.05586665007286,"[89, 0, 165]",165,l,0.06913965148851275,colour,0.5
132,22,1,2,3,50,150,208.5727228615433,209.1598750562407,"[61, 0, 193]",193,a,0.06377350073307753,colour,0.5
132,22,1,2,4,1,151,213.68127112975344,214.21603197068907,"[24, 0, 230]",230,a,0.01040895376354456,colour,0.5
132,22,1,2,4,2,152,214.72900486155413,216.0959176295437,"[16, 0, 238]",238,a,0.8436427754350007,colour,0.5
132,22,1,2,4,3,153,216.60398910776712,217.4478949722834,"[63, 0, 191]",191,a,0.32059963839128613,colour,0.5
132,22,1,2,4,4,154,217.9633459416218,218.55189707688987,"[80, 0, 174]",174,l,0.06529532140120864,colour,0.5
132,22,1,2,4,5,155,219.0727051384747,220.10388080007397,"[20, 0, 234]",234,a,0.5078174476511776,colour,0.5
132,22,1,2,4,6,156,220.61955350474454,221.55983307235874,"[39, 0, 215]",215,a,0.4169504982419312,colour,0.5
132,22,1,2,4,7,157,222.07270474475808,222.7678557925392,"[64, 0, 190]",190,a,0.1718924769666046,colour,0.5
132,22,1,2,4,8,158,223.27585204620846,223.83182542864233,"[48, 0, 206]",206,a,0.033101568231359124,colour,0.5
132,22,1,2,4,9,159,224.33829946769401,224.9758879649453,"[31, 0, 223]",223,a,0.1141991694457829,colour,0.5
132,22,1,2,4,10,160,225.49455389846116,226.07190799433738,"[22, 0, 232]",232,a,0.054056928027421236,colour,0.5
132,22,1,2,4,11,161,226.588325855555,227.28782732528634,"[72, 0, 182]",182,l,0.1762322650756687,colour,0.5
132,22,1,2,4,12,162,227.80708717857487,228.4078542329371,"[78, 0, 176]",176,l,0.0774789450224489,colour,0.5
132,22,1,2,4,13,163,228.9164479507599,229.96786571736448,"[87, 0, 167]",167,l,0.5284856939688325,colour,0.5
132,22,1,2,4,14,164,230.47896626475267,231.07182764983736,"[33, 0, 221]",221,a,0.06953467894345522,colour,0.5
132,22,1,2,4,15,165,231.58830773853697,232.1999390325509,"[73, 0, 181]",181,a,0.08837941847741604,colour,0.5
132,22,1,2,4,16,166,232.7132738677319,233.42388612497598,"[28, 0, 226]",226,a,0.18729657866060734,colour,0.5
132,22,1,2,4,17,167,233.93194657564163,234.51991639425978,"[85, 0, 169]",169,l,0.06460175872780383,colour,0.5
132,22,1,2,4,18,168,235.04140187078156,235.71989047923125,"[98, 0, 156]",156,l,0.1558093847706914,colour,0.5
132,22,1,2,4,19,169,236.2291088369675,236.87188389105722,"[88, 0, 166]",166,l,0.119606280233711,colour,0.5
132,22,1,2,4,20,170,237.3851438954007,238.11187350936234,"[14, 0, 240]",240,a,0.20337651995941997,colour,0.5
132,22,1,2,4,21,171,238.61954168928787,239.29589407751337,"[18, 0, 236]",236,a,0.15294297435320914,colour,0.5
132,22,1,2,4,22,172,239.80708796624094,240.52783348504454,"[19, 0, 235]",235,a,0.19752869568765163,colour,0.5
132,22,1,2,4,23,173,241.0414176248014,241.86391520639881,"[1, 0, 253]",253,a,0.2993870968930423,colour,0.5
132,22,1,2,4,24,174,242.38519115699455,243.103850080166,"[79, 0, 175]",175,l,0.19536136160604656,colour,0.5
132,22,1,2,4,25,175,243.61957595404238,245.23186024441384,"[41, 0, 213]",213,a,1.0890828273259103,colour,0.5
132,22,1,2,4,26,176,245.74453263077885,246.57579840440303,"[46, 0, 208]",208,a,0.3079477318096906,colour,0.5
132,22,1,2,4,27,177,247.08825378166512,247.72785995155573,"[52, 0, 202]",202,a,0.11624362366273999,colour,0.5
132,22,1,2,4,28,178,248.24448221852072,249.90382164437324,"[3, 0, 251]",251,a,1.136033987160772,colour,0.5
132,22,1,2,4,29,179,250.41637508943677,250.9998456123285,"[83, 0, 171]",171,l,0.06022416125051677,colour,0.5
132,22,1,2,4,30,180,251.5101470462978,252.423846346559,"[21, 0, 233]",233,a,0.39038204634562135,colour,0.5
132,22,1,2,4,31,181,252.93190482794307,253.67985879839398,"[12, 0, 242]",242,a,0.2245457381941378,colour,0.5
132,22,1,2,4,32,182,254.19771065237,254.72784774238244,"[86, 0, 168]",168,l,0.00729678338393569,colour,0.5
132,22,1,2,4,33,183,255.2444664647337,256.2238041262608,"[30, 0, 224]",224,a,0.4560637306421995,colour,0.5
132,22,1,2,4,34,184,256.74450269853696,257.3678603610024,"[15, 0, 239]",239,a,0.1000813685823232,colour,0.5
132,22,1,2,4,35,185,257.88688705745153,258.59982379339635,"[61, 0, 193]",193,a,0.1896691066212952,colour,0.5
132,22,1,2,4,36,186,259.1211745745968,259.7118312101811,"[77, 0, 177]",177,l,0.06739688315428793,colour,0.5
132,22,1,2,4,37,187,260.2305715805851,260.80790952872485,"[74, 0, 180]",180,l,0.053986429469659925,colour,0.5
132,22,1,2,4,38,188,261.32423365465365,261.8958446891047,"[25, 0, 229]",229,a,0.04826818057335913,colour,0.5
132,22,1,2,4,39,189,262.4024782360066,263.05590642848983,"[7, 0, 247]",247,a,0.13009872939437628,colour,0.5
132,22,1,2,4,40,190,263.57427579606883,264.1757935206406,"[50, 0, 204]",204,a,0.07823867374099791,colour,0.5
132,22,1,2,4,41,191,264.6836345992051,265.21597840776667,"[43, 0, 211]",211,a,0.00924198841676116,colour,0.5
132,22,1,2,4,42,192,265.73055464518256,266.3598274795804,"[51, 0, 203]",203,a,0.10599260195158422,colour,0.5
132,22,1,2,4,43,193,266.8711064392701,267.97582179890014,"[81, 0, 173]",173,l,0.5813618719112128,colour,0.5
132,22,1,2,4,44,194,268.496176937595,269.4958079040516,"[82, 0, 172]",172,l,0.47623218642547727,colour,0.5
132,22,1,2,4,45,195,270.01189060206525,270.67185191065073,"[35, 0, 219]",219,a,0.1370276603847742,colour,0.5
132,22,1,2,4,46,196,271.18363853753544,271.9438383593224,"[53, 0, 201]",201,a,0.23720906605012715,colour,0.5
132,22,1,2,4,47,197,272.46489454386756,273.0558095423039,"[89, 0, 165]",165,l,0.06752094463445246,colour,0.5
132,22,1,2,4,48,198,273.57425492233597,274.4478162031155,"[70, 0, 184]",184,l,0.35028931917622685,colour,0.5
132,22,1,2,4,49,199,274.9648583100643,275.4958898238838,"[36, 0, 218]",218,a,0.007657152367755771,colour,0.5
132,22,1,2,4,50,200,276.011740940623,276.5998253687285,"[66, 0, 188]",188,a,0.06477583874948323,colour,0.5
132,22,1,2,5,1,201,283.32344359974377,285.2798822715413,"[70, 0, 184]",184,a,1.4323928030207753,colour,0.4
132,22,1,2,5,2,202,285.7930004915688,286.8398571284488,"[9, 0, 245]",245,a,0.5234669153578579,colour,0.4
132,22,1,2,5,3,203,287.3556471990887,287.9199118257966,"[73, 0, 181]",181,l,0.041254178853705525,colour,0.4
132,22,1,2,5,4,204,288.43353850068524,288.98381175100803,"[92, 0, 162]",162,l,0.026874470291659236,colour,0.4
132,22,1,2,5,5,205,289.4961048637051,290.35991215659305,"[68, 0, 186]",186,a,0.340343528194353,colour,0.4
132,22,1,2,5,6,206,290.8711300699506,291.50384393613786,"[59, 0, 195]",195,a,0.11013034731149673,colour,0.4
132,22,1,2,5,7,207,292.01174684846774,292.9518802992534,"[82, 0, 172]",172,a,0.41686976002529263,colour,0.4
132,22,1,2,5,8,208,293.46475590998307,294.76781640783884,"[75, 0, 179]",179,a,0.7795471085701138,colour,0.4
132,22,1,2,5,9,209,295.2772836762015,296.6398365695495,"[77, 0, 177]",177,l,0.8397626052610576,colour,0.4
132,22,1,2,5,10,210,297.1523848946672,297.7518624973018,"[3, 0, 251]",251,a,0.07621154887601733,colour,0.4
132,22,1,2,5,11,211,298.26169170998037,299.25586239644326,"[87, 0, 167]",167,l,0.4707955371122807,colour,0.4
132,22,1,2,5,12,212,299.7773297561798,300.4719250872731,"[43, 0, 211]",211,a,0.17139032343402505,colour,0.4
132,22,1,2,5,13,213,300.98030179622583,301.9758615773171,"[53, 0, 201]",201,a,0.47256311774253845,colour,0.4
132,22,1,2,5,14,214,302.4961966299452,303.1918187174015,"[90, 0, 164]",164,l,0.1723824213258922,colour,0.4
132,22,1,2,5,15,215,303.69955739588477,304.41578274499625,"[13, 0, 241]",241,a,0.19331887643784285,colour,0.4
132,22,1,2,5,16,216,304.93349714693613,305.999828676926,"[16, 0, 238]",238,a,0.5429780422709882,colour,0.4
132,22,1,2,5,17,217,306.51166492840275,307.3758483440615,"[6, 0, 248]",248,a,0.3408311093226075,colour,0.4
132,22,1,2,5,18,218,307.88657907000743,308.7997588873841,"[5, 0, 249]",249,a,0.3897570127155632,colour,0.4
132,22,1,2,5,19,219,309.30855386075564,310.23180471220985,"[61, 0, 193]",193,a,0.4001880220603198,colour,0.4
132,22,1,2,5,20,220,310.7459871037863,311.5917893364094,"[19, 0, 235]",235,a,0.3223215325269848,colour,0.4
132,22,1,2,5,21,221,312.10525453463197,312.9197854010854,"[29, 0, 225]",225,a,0.29103047400712967,colour,0.4
132,22,1,2,5,22,222,313.4334975408856,314.2717914946843,"[99, 0, 155]",155,l,0.31491092778742313,colour,0.4
132,22,1,2,5,23,223,314.79298710078,315.5918023334816,"[81, 0, 173]",173,l,0.27571498788893223,colour,0.4
132,22,1,2,5,24,224,316.1053447253071,316.6718578184955,"[52, 0, 202]",202,a,0.04313597455620766,colour,0.4
132,22,1,2,5,25,225,317.18354362086393,317.84775688988157,"[50, 0, 204]",204,a,0.1412532334215939,colour,0.4
132,22,1,2,5,26,226,318.3553167623468,318.9757847774308,"[98, 0, 156]",156,l,0.09747135173529387,colour,0.4
132,22,1,2,5,27,227,319.49596623005345,320.19982363586314,"[66, 0, 188]",188,a,0.18051218893378973,colour,0.4
132,22,1,2,5,28,228,320.7147181008477,321.2799011762254,"[97, 0, 157]",157,l,0.041887089144438505,colour,0.4
132,22,1,2,5,29,229,321.7928949408233,322.37578414729796,"[48, 0, 206]",206,a,0.0597239772323519,colour,0.4
132,22,1,2,5,30,230,322.88655150076374,323.90373617992736,"[54, 0, 200]",200,a,0.4941190928220749,colour,0.4
132,22,1,2,5,31,231,324.4178669776302,325.3678394872695,"[12, 0, 242]",242,a,0.4265654587652534,colour,0.4
132,22,1,2,5,32,232,325.88653810997494,326.8238098763395,"[67, 0, 187]",187,a,0.4138032754417509,colour,0.4
132,22,1,2,5,33,233,327.33968895627186,328.263825960923,"[84, 0, 170]",170,l,0.4006689079105854,colour,0.4
132,22,1,2,5,34,234,328.77721672225744,329.4237573372666,"[93, 0, 161]",161,l,0.1232213918119669,colour,0.4
132,22,1,2,5,35,235,329.9333876578603,330.7278331699781,"[65, 0, 189]",189,a,0.27141773514449596,colour,0.4
132,22,1,2,5,36,236,331.2459709562827,332.2717981901951,"[83, 0, 171]",171,a,0.5025540909264237,colour,0.4
132,22,1,2,5,37,237,332.7928748545237,333.8078469072934,"[41, 0, 213]",213,a,0.49184975237585604,colour,0.4
132,22,1,2,5,38,238,334.32407808536664,335.3997599114664,"[96, 0, 158]",158,l,0.5523952920921147,colour,0.4
132,22,1,2,5,39,239,335.9178492545616,336.5037962808274,"[58, 0, 196]",196,a,0.0626825476065278,colour,0.4
132,22,1,2,5,40,240,337.01152708241716,337.5438149648253,"[24, 0, 230]",230,a,0.008964326931163669,colour,0.4
132,22,1,2,5,41,241,338.0584199531004,338.71978492848575,"[88, 0, 166]",166,l,0.13823125371709466,colour,0.4
132,22,1,2,5,42,242,339.2303655992728,339.8957588307094,"[42, 0, 212]",212,a,0.14209488220512867,colour,0.4
132,22,1,2,5,43,243,340.402187183965,341.47183410893194,"[20, 0, 234]",234,a,0.5463312463834882,colour,0.4
132,22,1,2,5,44,244,341.9802537469659,342.8957993967924,"[23, 0, 231]",231,a,0.39237923873588443,colour,0.4
132,22,1,2,5,45,245,343.4021804884542,344.4237730910536,"[44, 0, 210]",210,a,0.498308825539425,colour,0.4
132,22,1,2,5,46,246,344.9334380701184,345.5758200660348,"[35, 0, 219]",219,a,0.1191478434484452,colour,0.4
132,22,1,2,5,47,247,346.0896220023278,346.8717468327377,"[8, 0, 246]",246,a,0.2586843026801944,colour,0.4
132,22,1,2,5,48,248,347.38648848538287,348.03979694866575,"[94, 0, 160]",160,l,0.13000696315430105,colour,0.4
132,22,1,2,5,49,249,348.5584144392051,349.33583556767553,"[18, 0, 236]",236,a,0.2543078865855932,colour,0.4
132,22,1,2,5,50,250,349.855319125345,350.6079287484754,"[78, 0, 176]",176,l,0.22935459669679403,colour,0.4
132,22,1,2,6,1,251,355.5107429351192,356.3437774707563,"[58, 0, 196]",196,a,0.3089721251744777,colour,0.28
132,22,1,2,6,2,252,356.85529667628,357.81578290252946,"[85, 0, 169]",169,l,0.4375423383899033,colour,0.28
132,22,1,2,6,3,253,358.3240406701807,358.95186021295376,"[89, 0, 165]",165,l,0.10451804287731647,colour,0.28
132,22,1,2,6,4,254,359.46469919616356,360.2477629550267,"[94, 0, 160]",160,l,0.25981897255405784,colour,0.28
132,22,1,2,6,5,255,360.7614707623143,361.3038052604534,"[68, 0, 186]",186,a,0.01904560113325715,colour,0.28
132,22,1,2,6,6,256,361.82400128548034,362.3677993149031,"[9, 0, 245]",245,a,0.020433513913303614,colour,0.28
132,22,1,2,6,7,257,362.8864920299966,363.6958001058083,"[67, 0, 187]",187,a,0.28599672950804234,colour,0.28
132,22,1,2,6,8,258,364.21461885166354,365.2397663076408,"[63, 0, 191]",191,a,0.5018290204461664,colour,0.28
132,22,1,2,6,9,259,365.7458299594,366.40779042989016,"[71, 0, 183]",183,a,0.13861722289584577,colour,0.28
132,22,1,2,6,10,260,366.91770668234676,367.9677069974132,"[49, 0, 205]",205,a,0.5267216579522938,colour,0.28
132,22,1,2,6,11,261,368.4801982147619,369.3837804009672,"[81, 0, 173]",173,l,0.38015938154421747,colour,0.28
132,22,1,2,6,12,262,369.902202937752,370.64779895264655,"[60, 0, 194]",194,a,0.22240361012518406,colour,0.28
132,22,1,2,6,13,263,371.1676779317204,371.7038286549505,"[93, 0, 161]",161,l,0.01277872477658093,colour,0.28
132,22,1,2,6,14,264,372.2146409070119,372.83975827298127,"[12, 0, 242]",242,a,0.10189936123788357,colour,0.28
132,22,1,2,6,15,265,373.35517970402725,374.3197477494832,"[77, 0, 177]",177,l,0.4412681208923459,colour,0.28
132,22,1,2,6,16,266,374.8395518977195,375.60773812700063,"[66, 0, 188]",188,a,0.24479768914170563,colour,0.28
132,22,1,2,6,17,267,376.12087603937835,376.91172928293236,"[6, 0, 248]",248,a,0.26755134970881045,colour,0.28
132,22,1,2,6,18,268,377.4332679286599,378.07179889897816,"[72, 0, 182]",182,a,0.1151778765488416,colour,0.28
132,22,1,2,6,19,269,378.5914596875664,380.1837492082268,"[99, 0, 155]",155,l,1.0690750605426729,colour,0.28
132,22,1,2,6,20,270,380.70084842294455,381.4078266636934,"[75, 0, 179]",179,a,0.18370155314914882,colour,0.28
132,22,1,2,6,21,271,381.91960580740124,382.45576874003746,"[31, 0, 223]",223,a,0.012922872556373477,colour,0.28
132,22,1,2,6,22,272,382.9665522412397,383.9365132190287,"[61, 0, 193]",193,a,0.44714115117676556,colour,0.28
132,22,1,2,6,23,273,384.4506936413236,385.07179889897816,"[76, 0, 178]",178,a,0.09779903129674494,colour,0.28
132,22,1,2,6,24,274,385.5914624442812,386.22376356017776,"[25, 0, 229]",229,a,0.10910280328243971,colour,0.28
132,22,1,2,6,25,275,386.7320587427821,387.7758047846146,"[65, 0, 189]",189,a,0.5202763695269823,colour,0.28
132,22,1,2,6,26,276,388.2946774873417,389.3917479040101,"[56, 0, 198]",198,a,0.573861864162609,colour,0.28
132,22,1,2,6,27,277,389.9040922166314,390.727765428368,"[79, 0, 175]",175,a,0.30050837621092796,colour,0.28
132,22,1,2,6,28,278,391.24767670291476,392.21577478945255,"[96, 0, 158]",158,l,0.44478358956985176,colour,0.28
132,22,1,2,6,29,279,392.73204574594274,393.4557486537378,"[69, 0, 185]",185,a,0.2003281523939222,colour,0.28
132,22,1,2,6,30,280,393.96638170606457,394.70373964565806,"[47, 0, 207]",207,a,0.2143770302645862,colour,0.28
132,22,1,2,6,31,281,395.21640021679923,396.2078254034277,"[10, 0, 244]",244,a,0.4682060005143285,colour,0.28
132,22,1,2,6,32,282,396.71641400130466,397.49572559027,"[15, 0, 239]",239,a,0.2560242672916502,colour,0.28
132,22,1,2,6,33,283,398.01336082909256,399.02374890912324,"[54, 0, 200]",200,a,0.48712990316562355,colour,0.28
132,22,1,2,6,34,284,399.54455263819546,400.1677543378901,"[98, 0, 156]",156,l,0.09990453184582293,colour,0.28
132,22,1,2,6,35,285,400.68517335527577,401.471721468959,"[36, 0, 218]",218,a,0.2632537030149251,colour,0.28
132,22,1,2,6,36,286,401.98196933977306,402.9757249127142,"[0, 0, 254]",254,a,0.4703890881501138,colour,0.28
132,22,1,2,6,37,287,403.4819831245113,404.19178957282566,"[53, 0, 201]",201,a,0.18637734232470393,colour,0.28
132,22,1,2,6,38,288,404.7007877705619,405.2479748441838,"[91, 0, 163]",163,l,0.02351496461778879,colour,0.28
132,22,1,2,6,39,289,405.7633659490384,406.53575215116143,"[11, 0, 243]",243,a,0.24912723735906184,colour,0.28
132,22,1,2,6,40,290,407.04451246606186,407.599777713418,"[97, 0, 157]",157,l,0.03190821502357721,colour,0.28
132,22,1,2,6,41,291,408.10703314282,408.8638104435522,"[90, 0, 164]",164,l,0.23353527137078345,colour,0.28
132,22,1,2,6,42,292,409.3725983274635,410.33577688457444,"[87, 0, 167]",167,l,0.4397384230978787,colour,0.28
132,22,1,2,6,43,293,410.856984305894,411.767755755689,"[74, 0, 180]",180,l,0.38789924164302647,colour,0.28
132,22,1,2,6,44,294,412.27887363219634,413.2077635694295,"[59, 0, 195]",195,a,0.40616030152887106,colour,0.28
132,22,1,2,6,45,295,413.7163344444707,414.31971151567996,"[44, 0, 210]",210,a,0.08012480195611715,colour,0.28
132,22,1,2,6,46,296,414.8258184904698,415.3917821685318,"[92, 0, 162]",162,l,0.042989463778212667,colour,0.28
132,22,1,2,6,47,297,415.90389056759886,416.4798012180254,"[26, 0, 228]",228,a,0.05255361809395254,colour,0.28
132,22,1,2,6,48,298,416.9976948197,417.77574767707847,"[78, 0, 176]",176,a,0.2547584464773536,colour,0.28
132,22,1,2,6,49,299,418.2944439367857,419.04769355943426,"[86, 0, 168]",168,l,0.22979688574559987,colour,0.28
132,22,1,2,6,50,300,419.5601540566422,420.11974018765613,"[50, 0, 204]",204,a,0.03633622475899756,colour,0.28
132,22,1,2,7,1,301,425.40311272186227,427.48772185342386,"[96, 0, 158]",158,l,1.560538844205439,colour,0.14
132,22,1,2,7,2,302,427.9976995459292,429.9517495422624,"[80, 0, 174]",174,a,1.4308434131089598,colour,0.14
132,22,1,2,7,3,303,430.46641597058624,431.303759180475,"[67, 0, 187]",187,a,0.31399129750207067,colour,0.14
132,22,1,2,7,4,304,431.81015878287144,432.6077794809826,"[72, 0, 182]",182,a,0.274349917890504,colour,0.14
132,22,1,2,7,5,305,433.12257351516746,434.19972950662486,"[48, 0, 206]",206,a,0.5537725712638348,colour,0.14
132,22,1,2,7,6,306,434.716346653644,435.45571084460244,"[66, 0, 188]",188,a,0.2160875031258911,colour,0.14
132,22,1,2,7,7,307,435.9663324751891,436.8637493974529,"[62, 0, 192]",192,a,0.3741311759222299,colour,0.14
132,22,1,2,7,8,308,437.3726113245357,437.9917402633,"[53, 0, 201]",201,a,0.09582271263934672,colour,0.14
132,22,1,2,7,9,309,438.5131914753001,439.1357598705217,"[86, 0, 168]",168,l,0.09918694454245269,colour,0.14
132,22,1,2,7,10,310,439.65381928137504,440.62371566845104,"[94, 0, 160]",160,l,0.4466512070503086,colour,0.14
132,22,1,2,7,11,311,441.1382135306485,441.7037585503422,"[68, 0, 186]",186,a,0.042235248954966664,colour,0.14
132,22,1,2,7,12,312,442.2163411397487,443.19974604807794,"[63, 0, 191]",191,a,0.46011522342450917,colour,0.14
132,22,1,2,7,13,313,443.7163277491927,444.64774775272235,"[58, 0, 196]",196,a,0.4080940850544721,colour,0.14
132,22,1,2,7,14,314,445.1537767460104,446.29574165912345,"[84, 0, 170]",170,l,0.6185921269934624,colour,0.14
132,22,1,2,7,15,315,446.8101316075772,447.3917798055336,"[64, 0, 190]",190,a,0.058409319492056966,colour,0.14
132,22,1,2,7,16,316,447.90385630284436,448.4877277610358,"[79, 0, 175]",175,a,0.060617613373324275,colour,0.14
132,22,1,2,7,17,317,448.9976093552541,449.88770862016827,"[75, 0, 179]",179,l,0.36711481073871255,colour,0.14
132,22,1,2,7,18,318,450.4047113424167,451.3436963383574,"[99, 0, 155]",155,l,0.4165972184855491,colour,0.14
132,22,1,2,7,19,319,451.85694570909254,452.6396817881614,"[88, 0, 166]",166,l,0.2594696313608438,colour,0.14
132,22,1,2,7,20,320,453.15375941689126,453.7277020192705,"[52, 0, 202]",202,a,0.05059777921997011,colour,0.14
132,22,1,2,7,21,321,454.2475447645411,455.1997369895689,"[32, 0, 222]",222,a,0.4288631558883935,colour,0.14
132,22,1,2,7,22,322,455.71626709681004,456.2717611687258,"[50, 0, 204]",204,a,0.032256768783554435,colour,0.14
132,22,1,2,7,23,323,456.77880392130464,457.69574181665666,"[78, 0, 176]",176,a,0.3936324566602707,colour,0.14
132,22,1,2,7,24,324,458.21629387838766,459.4077274145093,"[98, 0, 156]",156,l,0.6682182883378118,colour,0.14
132,22,1,2,7,25,325,459.9193966751918,460.6636792139616,"[3, 0, 251]",251,a,0.22093850327655673,colour,0.14
132,22,1,2,7,26,326,461.18499100441113,461.719691980863,"[51, 0, 203]",203,a,0.011650749947875738,colour,0.14
132,22,1,2,7,27,327,462.2318409460131,462.83974882075563,"[95, 0, 159]",159,l,0.08454769151285291,colour,0.14
132,22,1,2,7,28,328,463.356879936764,464.1196878061164,"[91, 0, 163]",163,l,0.2394847075920552,colour,0.14
132,22,1,2,7,29,329,464.63814539532177,465.57586063211784,"[69, 0, 185]",185,a,0.4144058597739786,colour,0.14
132,22,1,2,7,30,330,466.0912300753407,466.68778849206865,"[70, 0, 184]",184,a,0.0733053598087281,colour,0.14
132,22,1,2,7,31,331,467.2005754876882,467.79173506447114,"[11, 0, 243]",243,a,0.06775331380777061,colour,0.14
132,22,1,2,7,32,332,468.30994768138044,469.62372118234634,"[73, 0, 181]",181,a,0.7903723577037454,colour,0.14
132,22,1,2,7,33,333,470.13818753673695,471.6797445830889,"[34, 0, 220]",220,l,1.0183217122685164,colour,0.14
132,22,1,2,7,34,334,472.2006991552189,473.49580199620686,"[89, 0, 165]",165,a,0.7719482453539968,colour,0.14
132,22,1,2,7,35,335,474.01314539532177,474.67972882906906,"[57, 0, 197]",197,a,0.14328035828657448,colour,0.14
132,22,1,2,7,36,336,475.20057863835245,475.93572670873255,"[71, 0, 183]",183,a,0.21178434253670275,colour,0.14
132,22,1,2,7,37,337,476.45067513058893,476.97572845732793,"[92, 0, 162]",162,l,0.00181956822052598,colour,0.14
132,22,1,2,7,38,338,477.4974518169183,478.0956710819155,"[83, 0, 171]",171,l,0.07489886041730642,colour,0.14
132,22,1,2,7,39,339,478.6068807244301,479.167718103854,"[85, 0, 169]",169,l,0.037518156226724386,colour,0.14
132,22,1,2,7,40,340,479.68492523231544,480.21606387221254,"[55, 0, 199]",199,a,0.00774458609521389,colour,0.14
132,22,1,2,7,41,341,480.74747544759884,481.28773870994337,"[2, 0, 252]",252,a,0.016955854604020715,colour,0.14
132,22,1,2,7,42,342,481.79435453377664,482.40777743281797,"[97, 0, 157]",157,l,0.090178900398314,colour,0.14
132,22,1,2,7,43,343,482.919327752199,483.4797133903485,"[54, 0, 200]",200,a,0.037042784271761775,colour,0.14
132,22,1,2,7,44,344,483.99746323842555,485.023670533672,"[76, 0, 178]",178,a,0.5030038629192859,colour,0.14
132,22,1,2,7,45,345,485.5443474445492,486.231701918412,"[87, 0, 167]",167,l,0.16412741062231362,colour,0.14
132,22,1,2,7,46,346,486.7474616630934,487.3197040327359,"[74, 0, 180]",180,a,0.048910543555393815,colour,0.14
132,22,1,2,7,47,347,487.84119029692374,488.7997242291458,"[77, 0, 177]",177,a,0.43534743529744446,colour,0.14
132,22,1,2,7,48,348,489.3098547337577,489.9356829917524,"[61, 0, 193]",193,a,0.10236764419823885,colour,0.14
132,22,1,2,7,49,349,490.4505128660239,491.0476951347664,"[33, 0, 221]",221,a,0.07374292239546776,colour,0.14
132,22,1,2,7,50,350,491.55991893075407,492.1117277862504,"[93, 0, 161]",161,l,0.028430161764845252,colour,0.14
132,22,1,2,8,1,351,496.88724309415556,497.5197076559998,"[96, 0, 158]",158,l,0.1084340529050678,colour,0.06
132,22,1,2,8,2,352,498.02871924452484,498.93571922555566,"[84, 0, 170]",170,l,0.3837307763751596,colour,0.06
132,22,1,2,8,3,353,499.45057666907087,500.23969777836464,"[92, 0, 162]",162,l,0.26580227981321514,colour,0.06
132,22,1,2,8,4,354,500.74739667843096,501.35165872145444,"[85, 0, 169]",169,l,0.08087862306274474,colour,0.06
132,22,1,2,8,5,355,501.87238131836057,502.4157402096316,"[53, 0, 201]",201,a,0.02006999426521361,colour,0.06
132,22,1,2,8,6,356,502.93483346607536,503.5117043131031,"[86, 0, 168]",168,l,0.05357367917895317,colour,0.06
132,22,1,2,8,7,357,504.0286196016241,504.58370289206505,"[58, 0, 196]",196,a,0.030667600454762578,colour,0.06
132,22,1,2,8,8,358,505.0922339884564,505.67173100006767,"[83, 0, 171]",171,a,0.056204569991678,colour,0.06
132,22,1,2,8,9,359,506.18597798235714,507.06370772840455,"[99, 0, 155]",155,l,0.3551552854478359,colour,0.06
132,22,1,2,8,10,360,507.57650969014503,508.52768461126834,"[66, 0, 188]",188,a,0.4277532980777323,colour,0.06
132,22,1,2,8,11,361,509.0453308778815,509.6077385209501,"[61, 0, 193]",193,a,0.03910062927752733,colour,0.06
132,22,1,2,8,12,362,510.1234517917037,510.6717424215749,"[95, 0, 159]",159,l,0.02495250222273171,colour,0.06
132,22,1,2,8,13,363,511.1859441115521,511.89574504620396,"[80, 0, 174]",174,a,0.18673731735907495,colour,0.06
132,22,1,2,8,14,364,512.4047243392561,513.1837354237214,"[54, 0, 200]",200,a,0.25567177520133555,colour,0.06
132,22,1,2,8,15,365,513.7015601024032,514.463703553658,"[69, 0, 185]",185,a,0.23877027118578553,colour,0.06
132,22,1,2,8,16,366,514.982823985396,515.5517178771552,"[29, 0, 225]",225,a,0.04562901915051043,colour,0.06
132,22,1,2,8,17,367,516.060952382395,516.9277328180615,"[63, 0, 191]",191,a,0.3434899633284658,colour,0.06
132,22,1,2,8,18,368,517.4359508070629,518.7276925670449,"[40, 0, 214]",214,a,0.7684638907667249,colour,0.06
132,22,1,2,8,19,369,519.2483895639889,519.9676940005738,"[62, 0, 192]",192,a,0.1958765119779855,colour,0.06
132,22,1,2,8,20,370,520.4829047238454,521.0556898131035,"[98, 0, 156]",156,l,0.04962497972883284,colour,0.06
132,22,1,2,8,21,371,521.5766069700476,522.2556867413223,"[87, 0, 167]",167,l,0.15573258511722088,colour,0.06
132,22,1,2,8,22,372,522.7641229208093,523.8637143450323,"[94, 0, 160]",160,l,0.5761989457532763,colour,0.06
132,22,1,2,8,23,373,524.3732985856477,524.9437288700137,"[77, 0, 177]",177,l,0.047017325880005956,colour,0.06
132,22,1,2,8,24,374,525.4515388347208,526.4396907677874,"[57, 0, 197]",197,a,0.4644286239054054,colour,0.06
132,22,1,2,8,25,375,526.9529035107698,527.5996449871454,"[59, 0, 195]",195,a,0.12343052378855646,colour,0.06
132,22,1,2,8,26,376,528.1091862984467,528.7436921636108,"[73, 0, 181]",181,a,0.11144342948682606,colour,0.06
132,22,1,2,8,27,377,529.2497321846895,529.7836817030329,"[50, 0, 204]",204,a,0.010631476761773229,colour,0.06
132,22,1,2,8,28,378,530.2967172153294,530.8637068620883,"[56, 0, 198]",198,a,0.04376455256715417,colour,0.06
132,22,1,2,8,29,379,531.3746821663808,532.407657309901,"[64, 0, 190]",190,a,0.5097244495991617,colour,0.06
132,22,1,2,8,30,380,532.921654593898,533.7996840567794,"[65, 0, 189]",189,a,0.3547401719260961,colour,0.06
132,22,1,2,8,31,381,534.3121772431768,535.3916648023296,"[79, 0, 175]",175,l,0.556028914405033,colour,0.06
132,22,1,2,8,32,382,535.9060181232635,536.8076566797681,"[97, 0, 157]",157,l,0.37836856418289244,colour,0.06
132,22,1,2,8,33,383,537.3278625509702,538.0156660091598,"[91, 0, 163]",163,l,0.1644956567324698,colour,0.06
132,22,1,2,8,34,384,538.5310067017563,539.127690361347,"[51, 0, 203]",203,a,0.07341799954883754,colour,0.06
132,22,1,2,8,35,385,539.6403017016128,540.2636664535385,"[88, 0, 166]",166,l,0.0999840886797756,colour,0.06
132,22,1,2,8,36,386,540.780984646175,541.5117287314497,"[81, 0, 173]",173,l,0.2075351388193667,colour,0.06
132,22,1,2,8,37,387,542.030977163231,542.735678974539,"[78, 0, 176]",176,a,0.1813656527083367,colour,0.06
132,22,1,2,8,38,388,543.2496861047111,544.1276765768416,"[4, 0, 250]",250,a,0.3547200858592987,colour,0.06
132,22,1,2,8,39,389,544.6403206062969,545.2396438214928,"[76, 0, 178]",178,a,0.0759315243922174,colour,0.06
132,22,1,2,8,40,390,545.7496672002599,546.6796579367947,"[75, 0, 179]",179,a,0.4073942208196968,colour,0.06
132,22,1,2,8,41,391,547.1873135138303,548.015678218333,"[67, 0, 187]",187,a,0.305540545610711,colour,0.06
132,22,1,2,8,42,392,548.5309877970722,549.2077170957346,"[60, 0, 194]",194,a,0.15343843237496912,colour,0.06
132,22,1,2,8,43,393,549.7184218277689,550.3356354939751,"[74, 0, 180]",180,a,0.09387987060472369,colour,0.06
132,22,1,2,8,44,394,550.8434568801895,551.4877104319166,"[90, 0, 164]",164,a,0.12096583633683622,colour,0.06
132,22,1,2,8,45,395,551.9997132802382,552.6316737190355,"[71, 0, 183]",183,a,0.10872786189429462,colour,0.06
132,22,1,2,8,46,396,553.1402489263564,554.1676586333197,"[93, 0, 161]",161,l,0.5040369208436459,colour,0.06
132,22,1,2,8,47,397,554.6871847263537,555.2236607663799,"[72, 0, 182]",182,a,0.013124127639457583,colour,0.06
132,22,1,2,8,48,398,555.7340350616723,556.5036761576775,"[82, 0, 172]",172,l,0.24638291890732944,colour,0.06
132,22,1,2,8,49,399,557.0153544771019,557.7276791762561,"[70, 0, 184]",184,a,0.18897475604899228,colour,0.06
132,22,1,2,8,50,400,558.2341441570316,559.3436219014693,"[89, 0, 165]",165,l,0.5865838748868555,colour,0.06
132,22,1,2,9,1,401,571.6708101881668,572.3196611034218,"[91, 0, 163]",163,l,0.12465380947105587,colour,0.06
132,22,1,2,9,2,402,572.8278318308294,574.5116468116175,"[99, 0, 155]",155,l,1.1605422312859446,colour,0.06
132,22,1,2,9,3,403,575.0310216678772,575.6316831714939,"[55, 0, 199]",199,a,0.07733952370472252,colour,0.06
132,22,1,2,9,4,404,576.1403564463835,577.0076319461223,"[56, 0, 198]",198,a,0.3442642642185092,colour,0.06
132,22,1,2,9,5,405,577.5153399046976,578.0716645976063,"[53, 0, 201]",201,a,0.03295387583784759,colour,0.06
132,22,1,2,9,6,406,578.5778361631092,579.1276998138055,"[72, 0, 182]",182,a,0.026590901194140315,colour,0.06
132,22,1,2,9,7,407,579.6402902801055,580.6156583684497,"[64, 0, 190]",190,a,0.4520421698689461,colour,0.06
132,22,1,2,9,8,408,581.1247743263375,581.695732364431,"[16, 0, 238]",238,a,0.0478014734108001,colour,0.06
132,22,1,2,9,9,409,582.2029121755622,582.7356458916329,"[80, 0, 174]",174,l,0.009554702090099454,colour,0.06
132,22,1,2,9,10,410,583.2497235201299,584.2396745414007,"[71, 0, 183]",183,a,0.46666527492925525,colour,0.06
132,22,1,2,9,11,411,584.7496738955379,585.4316287417896,"[82, 0, 172]",172,l,0.15869745681993663,colour,0.06
132,22,1,2,9,12,412,585.95286688325,586.5196568497922,"[69, 0, 185]",185,a,0.04400598001666367,colour,0.06
132,22,1,2,9,13,413,587.0309113909025,587.623635323951,"[85, 0, 169]",169,l,0.06945787905715406,colour,0.06
132,22,1,2,9,14,414,588.1403363600839,589.1836145131383,"[42, 0, 212]",212,a,0.5200341544114053,colour,0.06
132,22,1,2,9,15,415,589.7028664893005,590.4076986636501,"[62, 0, 192]",192,a,0.181580692762509,colour,0.06
132,22,1,2,9,16,416,590.9215427415911,591.6476662266068,"[61, 0, 193]",193,a,0.20270698191598058,colour,0.06
132,22,1,2,9,17,417,592.155943292426,593.1116509863641,"[95, 0, 159]",159,l,0.43245069845579565,colour,0.06
132,22,1,2,9,18,418,593.6247341539711,594.351698105922,"[96, 0, 158]",158,l,0.2037341317627579,colour,0.06
132,22,1,2,9,19,419,594.8590748400893,595.55966726318,"[68, 0, 186]",186,a,0.1773594522383064,colour,0.06
132,22,1,2,9,20,420,596.0776758678257,596.815661597997,"[75, 0, 179]",179,a,0.21456371317617595,colour,0.06
132,22,1,2,9,21,421,597.3278365570586,598.0316864796914,"[59, 0, 195]",195,a,0.1805803240276873,colour,0.06
132,22,1,2,9,22,422,598.5465053264052,599.0956762018614,"[77, 0, 177]",177,a,0.025828415527939796,colour,0.06
132,22,1,2,9,23,423,599.6089472339954,600.2797113424167,"[50, 0, 204]",204,a,0.14750396204181015,colour,0.06
132,22,1,2,9,24,424,600.7965388032608,601.3676575303543,"[63, 0, 191]",191,a,0.047811713302508,colour,0.06
132,22,1,2,9,25,425,601.8746955571696,602.5276267158333,"[94, 0, 160]",160,l,0.1297470247372985,colour,0.06
132,22,1,2,9,26,426,603.04651950486,603.7676730479579,"[97, 0, 157]",157,l,0.19785086158663034,colour,0.06
132,22,1,2,9,27,427,604.2810157600325,604.9436430116184,"[60, 0, 194]",194,a,0.14007327100262046,colour,0.06
132,22,1,2,9,28,428,605.4527479417156,606.1756166839041,"[57, 0, 197]",197,a,0.19964128523133695,colour,0.06
132,22,1,2,9,29,429,606.6871339201462,607.3036339376122,"[93, 0, 161]",161,l,0.09323711413890123,colour,0.06
132,22,1,2,9,30,430,607.812108320184,608.5836725658737,"[83, 0, 171]",171,a,0.24822021019645035,colour,0.06
132,22,1,2,9,31,431,609.0933611756191,609.847690329887,"[48, 0, 206]",206,a,0.23103041108697653,colour,0.06
132,22,1,2,9,32,432,610.3589795294683,611.1436084320303,"[88, 0, 166]",166,l,0.26132700871676207,colour,0.06
132,22,1,2,9,33,433,611.6558318340685,612.2796384808607,"[67, 0, 187]",187,a,0.1005291712936014,colour,0.06
132,22,1,2,9,34,434,612.7965545570478,613.3356547923759,"[92, 0, 162]",162,l,0.015837332233786583,colour,0.06
132,22,1,2,9,35,435,613.8434864184819,614.5436231619678,"[76, 0, 178]",178,a,0.17688841256313026,colour,0.06
132,22,1,2,9,36,436,615.0620831139386,615.8396511469036,"[89, 0, 165]",165,l,0.2542996157426387,colour,0.06
132,22,1,2,9,37,437,616.3589562925044,616.9916146264877,"[58, 0, 196]",196,a,0.10943954158574343,colour,0.06
132,22,1,2,9,38,438,617.4995671634097,618.2556304212194,"[73, 0, 181]",181,a,0.23277869331650436,colour,0.06
132,22,1,2,9,39,439,618.7651677941903,619.4396572909318,"[90, 0, 164]",164,l,0.15107338759116828,colour,0.06
132,22,1,2,9,40,440,619.9527168278582,620.6796268231701,"[84, 0, 170]",170,a,0.20359864900819957,colour,0.06
132,22,1,2,9,41,441,621.1870409725234,621.8156139426865,"[65, 0, 189]",189,l,0.10550383920781314,colour,0.06
132,22,1,2,9,42,442,622.3277018617373,623.0076169800013,"[74, 0, 180]",180,a,0.1566340981516987,colour,0.06
132,22,1,2,9,43,443,623.5151650372427,624.1836409007665,"[54, 0, 200]",200,a,0.14503651740960777,colour,0.06
132,22,1,2,9,44,444,624.7027388832066,625.3756065226626,"[81, 0, 173]",173,l,0.14964136388152838,colour,0.06
132,22,1,2,9,45,445,625.8902564093005,626.583579618251,"[79, 0, 175]",175,l,0.16998389945365489,colour,0.06
132,22,1,2,9,46,446,627.0933970154729,627.8796249325387,"[86, 0, 168]",168,l,0.2629051492549479,colour,0.06
132,22,1,2,9,47,447,628.3902457754593,629.1036208618898,"[98, 0, 156]",156,l,0.19010194321163,colour,0.06
132,22,1,2,9,48,448,629.6246924062725,630.3356284047477,"[87, 0, 167]",167,a,0.18775816587731242,colour,0.06
132,22,1,2,9,49,449,630.8433651139494,631.503611960914,"[52, 0, 202]",202,a,0.13686579000204802,colour,0.06
132,22,1,2,9,50,450,632.0151886679232,632.6556995017454,"[78, 0, 176]",176,a,0.1171108721755445,colour,0.06
132,22,1,2,10,1,451,645.0144009760115,646.2476526782848,"[51, 0, 203]",203,a,0.7090947688557208,colour,0.06
132,22,1,2,10,2,452,646.7651760648005,647.9436048087664,"[89, 0, 165]",165,l,0.6549484378192574,colour,0.06
132,22,1,2,10,3,453,648.4526786247734,648.9996093048248,"[98, 0, 156]",156,l,0.0236177584156394,colour,0.06
132,22,1,2,10,4,454,649.5151205325965,650.0876031483058,"[57, 0, 197]",197,a,0.049090924905613065,colour,0.06
132,22,1,2,10,5,455,650.6089964648709,651.2715886640362,"[86, 0, 168]",168,l,0.13952385587617755,colour,0.06
132,22,1,2,10,6,456,651.7808290771209,653.2875803839415,"[58, 0, 196]",196,a,0.9834395668003708,colour,0.06
132,22,1,2,10,7,457,653.7963954433799,654.4236860512756,"[69, 0, 185]",185,a,0.10391742782667279,colour,0.06
132,22,1,2,10,8,458,654.9370480617508,656.0476774116978,"[63, 0, 191]",191,a,0.5872518375981599,colour,0.06
132,22,1,2,10,9,459,656.5620720863808,657.3995948899537,"[72, 0, 182]",182,a,0.3141366266645491,colour,0.06
132,22,1,2,10,10,460,657.905821593944,658.455639164662,"[56, 0, 198]",198,a,0.026530249044299126,colour,0.06
132,22,1,2,10,11,461,658.9683147016913,659.735622654669,"[85, 0, 169]",169,l,0.24397336971014738,colour,0.06
132,22,1,2,10,12,462,660.2495269910432,660.8156127613038,"[80, 0, 174]",174,l,0.042790177976712584,colour,0.06
132,22,1,2,10,13,463,661.3276356956922,661.903665287653,"[88, 0, 166]",166,l,0.052698947256430984,colour,0.06
132,22,1,2,10,14,464,662.421517141629,663.4236687219236,"[83, 0, 171]",171,l,0.47896902170032263,colour,0.06
132,22,1,2,10,15,465,663.9370275817346,664.5435617219191,"[70, 0, 184]",184,a,0.08317316928878427,colour,0.06
132,22,1,2,10,16,466,665.0619653540198,665.6955787644256,"[64, 0, 190]",190,l,0.11018115328624845,colour,0.06
132,22,1,2,10,17,467,666.202754243277,666.8236153165344,"[61, 0, 193]",193,a,0.09765645931474864,colour,0.06
132,22,1,2,10,18,468,667.343270984944,667.9196132905781,"[50, 0, 204]",204,a,0.0532420608215034,colour,0.06
132,22,1,2,10,19,469,668.4370035571046,669.6396014436614,"[59, 0, 195]",195,a,0.6792144663631916,colour,0.06
132,22,1,2,10,20,470,670.1558227755595,671.2476759152487,"[54, 0, 200]",200,a,0.5686213502194732,colour,0.06
132,22,1,2,10,21,471,671.7650839048438,672.5915766598191,"[82, 0, 172]",172,a,0.3030660117510706,colour,0.06
132,22,1,2,10,22,472,673.1088657078799,674.0556224656757,"[81, 0, 173]",173,l,0.4235517499037087,colour,0.06
132,22,1,2,10,23,473,674.5620453048032,675.7596413481515,"[71, 0, 183]",183,a,0.6742646109778434,colour,0.06
132,22,1,2,10,24,474,676.2806786280125,677.1356043014675,"[30, 0, 224]",224,a,0.33214720082469285,colour,0.06
132,22,1,2,10,25,475,677.6557081665378,678.495563325705,"[93, 0, 161]",161,l,0.316511123906821,colour,0.06
132,22,1,2,10,26,476,679.015097689582,679.8875888909679,"[92, 0, 162]",162,l,0.3491345630027354,colour,0.06
132,22,1,2,10,27,477,680.4057554278988,681.0716429362074,"[52, 0, 202]",202,a,0.1425737990066409,colour,0.06
132,22,1,2,10,28,478,681.5776735048275,682.3995850440115,"[65, 0, 189]",189,a,0.2986758113838732,colour,0.06
132,22,1,2,10,29,479,682.9058192309458,683.6555561418645,"[99, 0, 155]",155,l,0.2265638045500964,colour,0.06
132,22,1,2,10,30,480,684.1713040710893,685.0476147902664,"[95, 0, 159]",159,l,0.352954474510625,colour,0.06
132,22,1,2,10,31,481,685.5620141909458,686.3675968782045,"[67, 0, 187]",187,a,0.2822244733106345,colour,0.06
132,22,1,2,10,32,482,686.8744742155541,687.7436063052155,"[10, 0, 244]",244,a,0.34586918633431196,colour,0.06
132,22,1,2,10,33,483,688.2651394372806,689.0716165483464,"[77, 0, 177]",177,l,0.28310511261224747,colour,0.06
132,22,1,2,10,34,484,689.5932831941172,690.3755817103665,"[75, 0, 179]",179,a,0.2592604991514236,colour,0.06
132,22,1,2,10,35,485,690.8900602741633,691.7195604364388,"[87, 0, 167]",167,l,0.3061706991866231,colour,0.06
132,22,1,2,10,36,486,692.233820809517,692.999540381832,"[53, 0, 201]",201,a,0.24239798611961305,colour,0.06
132,22,1,2,10,37,487,693.5151567663997,694.2955797885079,"[66, 0, 188]",188,a,0.2571160080842674,colour,0.06
132,22,1,2,10,38,488,694.8119594464079,695.5995709442068,"[78, 0, 176]",176,a,0.2643399299122393,colour,0.06
132,22,1,2,10,39,489,696.1088231725153,696.8556239621248,"[73, 0, 181]",181,a,0.22369227395392954,colour,0.06
132,22,1,2,10,40,490,697.3744616126642,698.0956088542007,"[76, 0, 178]",178,a,0.19791623996570706,colour,0.06
132,22,1,2,10,41,491,698.608826717129,699.3515476568136,"[60, 0, 194]",194,a,0.2195872177835554,colour,0.06
132,22,1,2,10,42,492,699.8587979665026,700.6875498215668,"[32, 0, 222]",222,a,0.30561616411432624,colour,0.06
132,22,1,2,10,43,493,701.2025132095441,701.791611002991,"[74, 0, 180]",180,a,0.06578408414497972,colour,0.06
132,22,1,2,10,44,494,702.3119480249006,703.1115950602107,"[84, 0, 170]",170,l,0.27634238451719284,colour,0.06
132,22,1,2,10,45,495,703.6244616126642,704.2235867232084,"[96, 0, 158]",158,l,0.07586535811424255,colour,0.06
132,22,1,2,10,46,496,704.7338196279015,705.5596239401493,"[68, 0, 186]",186,a,0.30250241816975176,colour,0.06
132,22,1,2,10,47,497,706.0775100588799,706.6717546307482,"[90, 0, 164]",164,l,0.07013174938037992,colour,0.06
132,22,1,2,10,48,498,707.1797248907387,707.7755645387806,"[79, 0, 175]",175,a,0.07246134802699089,colour,0.06
132,22,1,2,10,49,499,708.2890801492613,709.6075731057208,"[97, 0, 157]",157,l,0.7957491423003376,colour,0.06
132,22,1,2,10,50,500,710.117215635255,711.4875552565791,"[55, 0, 199]",199,a,0.8469999181106687,colour,0.06
132,22,1,2,11,1,501,716.0696362911258,716.5996512887068,"[66, 0, 188]",188,a,0.005958101013675332,colour,0.06
132,22,1,2,11,2,502,717.132822567597,717.7436102437787,"[62, 0, 192]",192,a,0.08746215142309666,colour,0.06
132,22,1,2,11,3,503,718.2579107892234,718.8716393127106,"[55, 0, 199]",199,a,0.0904841311275959,colour,0.06
132,22,1,2,11,4,504,719.3828855829779,719.9755650113802,"[65, 0, 189]",189,a,0.06941534369252622,colour,0.06
132,22,1,2,11,5,505,720.4922309953254,721.0715279330034,"[93, 0, 161]",161,l,0.05617345590144396,colour,0.06
132,22,1,2,11,6,506,721.585908035282,722.1435733798426,"[58, 0, 196]",196,a,0.03429728443734348,colour,0.06
132,22,1,2,11,7,507,722.6641006292775,723.3196024203207,"[73, 0, 181]",181,a,0.1320348756853491,colour,0.06
132,22,1,2,11,8,508,723.8359375738073,724.8315517057199,"[51, 0, 203]",203,a,0.4722110196016729,colour,0.06
132,22,1,2,11,9,509,725.351651632227,725.8796111480333,"[85, 0, 169]",169,l,0.004682434257119894,colour,0.06
132,22,1,2,11,10,510,726.3984755799174,727.0635608239099,"[68, 0, 186]",186,a,0.1418475469108671,colour,0.06
132,22,1,2,11,11,511,727.570327490801,728.1515739657916,"[50, 0, 204]",204,a,0.05787211353890598,colour,0.06
132,22,1,2,11,12,512,728.6640490354039,729.383542124182,"[84, 0, 170]",170,l,0.19598639500327408,colour,0.06
132,22,1,2,11,13,513,729.8984519492369,730.5515398588032,"[86, 0, 168]",168,l,0.1297864094376564,colour,0.06
132,22,1,2,11,14,514,731.0703542721458,731.6235569484998,"[99, 0, 155]",155,l,0.02988108992576599,colour,0.06
132,22,1,2,11,15,515,732.1329560813028,732.687528159935,"[14, 0, 240]",240,a,0.031369433738291264,colour,0.06
132,22,1,2,11,16,516,733.1953393060248,734.1195822553709,"[60, 0, 194]",194,a,0.40106117841787636,colour,0.06
132,22,1,2,11,17,517,734.6328627399635,735.1835597683676,"[70, 0, 184]",184,a,0.027360869804397225,colour,0.06
132,22,1,2,11,18,518,735.6954279213678,736.7115807242226,"[52, 0, 202]",202,a,0.49283830588683486,colour,0.06
132,22,1,2,11,19,519,737.2267248874996,737.8555089591537,"[53, 0, 201]",201,a,0.10571375908330083,colour,0.06
132,22,1,2,11,20,520,738.3672810138669,739.1275840229355,"[27, 0, 227]",227,a,0.23696448747068644,colour,0.06
132,22,1,2,11,21,521,739.64838814619,740.1995814205147,"[97, 0, 157]",157,l,0.027734629809856415,colour,0.06
132,22,1,2,11,22,522,740.7110045275185,741.5275247099344,"[94, 0, 160]",160,l,0.2932261652313173,colour,0.06
132,22,1,2,11,23,523,742.0390982660465,742.6235238653608,"[54, 0, 200]",200,a,0.061098105274140835,colour,0.06
132,22,1,2,11,24,524,743.1328777060844,743.911601282889,"[96, 0, 158]",158,l,0.2554461013060063,colour,0.06
132,22,1,2,11,25,525,744.4297386752442,745.1834999038838,"[88, 0, 166]",166,a,0.23038095934316516,colour,0.06
132,22,1,2,11,26,526,745.6953975954093,746.4635444399901,"[9, 0, 245]",245,a,0.2449189939070493,colour,0.06
132,22,1,2,11,27,527,746.9766827460844,747.6555002157111,"[89, 0, 165]",165,a,0.1554368066135794,colour,0.06
132,22,1,2,11,28,528,748.1640899954364,748.7995387276169,"[90, 0, 164]",164,l,0.11228586593642831,colour,0.06
132,22,1,2,11,29,529,749.3203873552848,749.9435087102465,"[67, 0, 187]",187,a,0.09990019933320582,colour,0.06
132,22,1,2,11,30,530,750.460995862959,751.1595024780836,"[78, 0, 176]",176,a,0.17556469631381333,colour,0.06
132,22,1,2,11,31,531,751.6797319799662,752.2075398650486,"[69, 0, 185]",185,a,0.0044579419773072,colour,0.06
132,22,1,2,11,32,532,752.726568924496,753.3275667726994,"[95, 0, 159]",159,a,0.0777660587336868,colour,0.06
132,22,1,2,11,33,533,753.8358840106521,754.6715065077879,"[63, 0, 191]",191,a,0.31210595718584955,colour,0.06
132,22,1,2,11,34,534,755.17977924156,756.5835548059549,"[74, 0, 180]",180,a,0.880565436789766,colour,0.06
132,22,1,2,11,35,535,757.1015484444797,757.647667801939,"[71, 0, 183]",183,a,0.02280092192813754,colour,0.06
132,22,1,2,11,36,536,758.1641195337288,758.711522435071,"[77, 0, 177]",177,a,0.024055321235209703,colour,0.06
132,22,1,2,11,37,537,759.2265803460032,759.8795465573203,"[56, 0, 198]",198,a,0.12991165253333747,colour,0.06
132,22,1,2,11,38,538,760.3983975984156,761.0395212566946,"[61, 0, 193]",193,a,0.11779773980379105,colour,0.06
132,22,1,2,11,39,539,761.5546961398795,762.0875716404989,"[92, 0, 162]",162,l,0.009579908102750778,colour,0.06
132,22,1,2,11,40,540,762.601651632227,763.2954958991613,"[83, 0, 171]",171,l,0.17056048987433314,colour,0.06
132,22,1,2,11,41,541,763.8046803860925,764.4955231533386,"[82, 0, 172]",172,l,0.16759128565900028,colour,0.06
132,22,1,2,11,42,542,765.0078064198606,766.1114969926421,"[76, 0, 178]",178,a,0.5806206539273262,colour,0.06
132,22,1,2,11,43,543,766.632822567597,767.4075399436988,"[87, 0, 167]",167,l,0.25140681746415794,colour,0.06
132,22,1,2,11,44,544,767.9141900322866,768.7034982182086,"[59, 0, 195]",195,a,0.2661551658529788,colour,0.06
132,22,1,2,11,45,545,769.210940330755,769.8076023289468,"[75, 0, 179]",179,a,0.073434934951365,colour,0.06
132,22,1,2,11,46,546,770.3203121307306,770.8715440020896,"[64, 0, 190]",190,a,0.027969755930826068,colour,0.06
132,22,1,2,11,47,547,771.3828119337559,772.1675353595056,"[80, 0, 174]",174,a,0.2614014456048608,colour,0.06
132,22,1,2,11,48,548,772.6797178015113,773.3115155820269,"[81, 0, 173]",173,a,0.10849037277512252,colour,0.06
132,22,1,2,11,49,549,773.8203574230429,774.9195530321449,"[98, 0, 156]",156,l,0.5759264044463634,colour,0.06
132,22,1,2,11,50,550,775.4296118568163,775.9835333020892,"[91, 0, 163]",163,l,0.03058843733742833,colour,0.06
132,22,1,2,12,1,551,780.4913724111393,781.1915130929556,"[63, 0, 191]",191,a,0.17623738502152264,colour,0.06
132,22,1,2,12,2,552,781.7109170937911,782.4476051016245,"[95, 0, 159]",159,l,0.21340423077344894,colour,0.06
132,22,1,2,12,3,553,782.9608458078001,783.5436030756682,"[52, 0, 202]",202,a,0.059457343304529786,colour,0.06
132,22,1,2,12,4,554,784.0547075613867,784.6635067095049,"[66, 0, 188]",188,a,0.08580248476937413,colour,0.06
132,22,1,2,12,5,555,785.1796732968651,785.8155674689915,"[77, 0, 177]",177,a,0.11269270884804428,colour,0.06
132,22,1,2,12,6,556,786.3358997646719,786.93550103507,"[87, 0, 167]",167,l,0.07631040434353054,colour,0.06
132,22,1,2,12,7,557,787.4453129183967,788.0235693152063,"[72, 0, 182]",182,a,0.0549738013651222,colour,0.06
132,22,1,2,12,8,558,788.5390041368082,789.1275576353073,"[32, 0, 222]",222,a,0.0652527860365808,colour,0.06
132,22,1,2,12,9,559,789.6483298570383,790.6715100524016,"[70, 0, 184]",184,a,0.4998798768501729,colour,0.06
132,22,1,2,12,10,560,791.1795736539643,791.7275598410051,"[65, 0, 189]",189,a,0.024662631563842297,colour,0.06
132,22,1,2,12,11,561,792.2421081154607,792.7835288909264,"[93, 0, 161]",161,l,0.018440653802827,colour,0.06
132,22,1,2,12,12,562,793.3045913770329,793.8395751346834,"[58, 0, 196]",196,a,0.01200599898584187,colour,0.06
132,22,1,2,12,13,563,794.3514814907685,795.1675302395597,"[83, 0, 171]",171,l,0.29282562411390245,colour,0.06
132,22,1,2,12,14,564,795.6796012229752,796.7355127716437,"[61, 0, 193]",193,a,0.5326454946771264,colour,0.06
132,22,1,2,12,15,565,797.242071487708,797.8715243097395,"[64, 0, 190]",190,a,0.10632422030903399,colour,0.06
132,22,1,2,12,16,566,798.3826492754743,799.0315762029495,"[69, 0, 185]",185,a,0.12550491048023105,colour,0.06
132,22,1,2,12,17,567,799.5389643583912,800.0795367897954,"[89, 0, 165]",165,l,0.017326069762930274,colour,0.06
132,22,1,2,12,18,568,800.5858639245853,801.1275367615744,"[62, 0, 192]",192,a,0.018325256882235408,colour,0.06
132,22,1,2,12,19,569,801.6483515184373,802.6714793324936,"[53, 0, 201]",201,a,0.4999062647111714,colour,0.06
132,22,1,2,12,20,570,803.1795724723488,803.7355041070841,"[91, 0, 163]",163,l,0.03257263312116265,colour,0.06
132,22,1,2,12,21,571,804.242062429199,805.2394890401047,"[51, 0, 203]",203,a,0.4742310552392155,colour,0.06
132,22,1,2,12,22,572,805.7576646355446,806.4715395120438,"[96, 0, 158]",158,l,0.1905603795312345,colour,0.06
132,22,1,2,12,23,573,806.9920584908687,808.0155167416669,"[55, 0, 199]",199,a,0.5003930584061891,colour,0.06
132,22,1,2,12,24,574,808.5233621522784,809.1594839673489,"[74, 0, 180]",180,a,0.1131164871621877,colour,0.06
132,22,1,2,12,25,575,809.6796126447152,810.37548521813,"[82, 0, 172]",172,l,0.1730275407899171,colour,0.06
132,22,1,2,12,26,576,810.8827485246584,811.9914878080599,"[54, 0, 200]",200,a,0.5853145096916705,colour,0.06
132,22,1,2,12,27,577,812.5077575831674,813.0475592580624,"[19, 0, 235]",235,a,0.01649623643606901,colour,0.06
132,22,1,2,12,28,578,813.5545768046286,814.1674861286301,"[79, 0, 175]",175,l,0.08943965169601142,colour,0.06
132,22,1,2,12,29,579,814.6796067368705,815.6554761910811,"[68, 0, 186]",186,a,0.45255574490875006,colour,0.06
132,22,1,2,12,30,580,816.1640033491421,817.3274722495116,"[94, 0, 160]",160,l,0.6401004462968558,colour,0.06
132,22,1,2,12,31,581,817.8358477768488,818.9275315627456,"[57, 0, 197]",197,a,0.568403159501031,colour,0.06
132,22,1,2,12,32,582,819.4451337184291,820.6235179577488,"[86, 0, 168]",168,l,0.6549736438319087,colour,0.06
132,22,1,2,12,33,583,821.1326366723515,821.7275039148517,"[97, 0, 157]",157,l,0.07135582249611616,colour,0.06
132,22,1,2,12,34,584,822.2420072909445,823.0395051089581,"[99, 0, 155]",155,l,0.27420340734533966,colour,0.06
132,22,1,2,12,35,585,823.5545496293344,824.087483812822,"[76, 0, 178]",178,a,0.009560609702020884,colour,0.06
132,22,1,2,12,36,586,824.6015303276945,825.6155161901843,"[88, 0, 166]",166,l,0.49072886700741947,colour,0.06
132,22,1,2,12,37,587,826.1326914168894,826.6875202830415,"[78, 0, 176]",176,a,0.03139818459749222,colour,0.06
132,22,1,2,12,38,588,827.195885570487,827.7355186792556,"[73, 0, 181]",181,a,0.017202795948833227,colour,0.06
132,22,1,2,12,39,589,828.2420829092152,828.9674939268734,"[80, 0, 174]",174,a,0.20221231132745743,colour,0.06
132,22,1,2,12,40,590,829.4764870046638,831.0875302867498,"[84, 0, 170]",170,l,1.0880395295098424,colour,0.06
132,22,1,2,12,41,591,831.6014342291746,832.359500587685,"[75, 0, 179]",179,a,0.23464040295220912,colour,0.06
132,22,1,2,12,42,592,832.8669746015221,833.4476515755523,"[50, 0, 204]",204,a,0.05725850164890289,colour,0.06
132,22,1,2,12,43,593,833.9607950015925,834.7354714176618,"[85, 0, 169]",169,l,0.2512855129316449,colour,0.06
132,22,1,2,12,44,594,835.2420179247856,836.183454217622,"[67, 0, 187]",187,a,0.41818402358330786,colour,0.06
132,22,1,2,12,45,595,836.6951419892721,837.2318377953488,"[92, 0, 162]",162,l,0.013335229130461812,colour,0.06
132,22,1,2,12,46,596,837.7420112292748,838.5434951619245,"[81, 0, 173]",173,a,0.2782749864272773,colour,0.06
132,22,1,2,12,47,597,839.0545315123163,839.8075515229721,"[60, 0, 194]",194,a,0.22968424600549042,colour,0.06
132,22,1,2,12,48,598,840.3200927586295,840.8715168265626,"[40, 0, 214]",214,a,0.028033952694386244,colour,0.06
132,22,1,2,12,49,599,841.3826110723894,842.0154860215262,"[71, 0, 183]",183,a,0.1101917871274054,colour,0.06
132,22,1,2,12,50,600,842.5232703862712,843.5194851330016,"[59, 0, 195]",195,a,0.4732744034845382,colour,0.06
132,22,1,2,13,1,601,847.9912168420851,848.7274550779257,"[76, 0, 178]",178,a,0.21232903143391013,colour,0.06
132,22,1,2,13,2,602,849.2420372231863,849.9275162026752,"[68, 0, 186]",186,a,0.16230902401730418,colour,0.06
132,22,1,2,13,3,603,850.4451002415735,851.0875070497859,"[89, 0, 165]",165,l,0.11906159110367298,colour,0.06
132,22,1,2,13,4,604,851.6013617615681,852.5594943647739,"[82, 0, 172]",172,a,0.4347720262594521,colour,0.06
132,22,1,2,13,5,605,853.0701415955555,854.239461470861,"[92, 0, 162]",162,l,0.6460471260361373,colour,0.06
132,22,1,2,13,6,606,854.7576303707901,855.48751390283,"[63, 0, 191]",191,a,0.20656549045816064,colour,0.06
132,22,1,2,13,7,607,856.0076012262143,856.6954992075916,"[96, 0, 158]",158,l,0.16456891200505197,colour,0.06
132,22,1,2,13,8,608,857.2107548292261,857.9674836867489,"[13, 0, 241]",241,a,0.23341475427150726,colour,0.06
132,22,1,2,13,9,609,858.4763066230807,859.1514400581364,"[90, 0, 164]",164,l,0.15191897470504045,colour,0.06
132,22,1,2,13,10,610,859.6637634970248,860.7514989774209,"[64, 0, 190]",190,a,0.5643174019642174,colour,0.06
132,22,1,2,13,11,611,861.2576740877703,862.0154580585659,"[85, 0, 169]",169,l,0.2345320952590555,colour,0.06
132,22,1,2,13,12,612,862.5232073708903,863.2634691365529,"[88, 0, 166]",166,l,0.21691733645275235,colour,0.06
132,22,1,2,13,13,613,863.7732270632405,864.535503240535,"[74, 0, 180]",180,a,0.23896876955404878,colour,0.06
132,22,1,2,13,14,614,865.054487795569,865.7274684687145,"[54, 0, 200]",200,a,0.1495964655186981,colour,0.06
132,22,1,2,13,15,615,866.2419891739264,866.8874766449444,"[60, 0, 194]",194,a,0.12261723214760423,colour,0.06
132,22,1,2,13,16,616,867.3981884662062,868.1514640827663,"[98, 0, 156]",156,l,0.22986580873839557,colour,0.06
132,22,1,2,13,17,617,868.6637804324273,869.2955033823382,"[72, 0, 182]",182,a,0.10833598533645272,colour,0.06
132,22,1,2,13,18,618,869.8043609771412,870.5435018574353,"[80, 0, 174]",174,a,0.21578424191102386,colour,0.06
132,22,1,2,13,19,619,871.0542770877946,871.7194852118846,"[66, 0, 188]",188,a,0.14165613800287247,colour,0.06
132,22,1,2,13,20,620,872.2263345862739,872.9994706709404,"[39, 0, 215]",215,a,0.2501535997726023,colour,0.06
132,22,1,2,13,21,621,873.5075527832378,874.2235217387788,"[84, 0, 170]",170,l,0.1927218062337488,colour,0.06
132,22,1,2,13,22,622,874.7419655432459,875.3514633737504,"[51, 0, 203]",203,a,0.08635150571353734,colour,0.06
132,22,1,2,13,23,623,875.8669466385618,876.5194926161785,"[94, 0, 160]",160,l,0.12935593584552407,colour,0.06
132,22,1,2,13,24,624,877.038774918532,877.5994752396364,"[62, 0, 192]",192,a,0.03730193478986621,colour,0.06
132,22,1,2,13,25,625,878.1169777524192,878.8554794206284,"[87, 0, 167]",167,l,0.2152403404470533,colour,0.06
132,22,1,2,13,26,626,879.3670293462928,879.9834324773401,"[86, 0, 168]",168,a,0.09333833237178624,colour,0.06
132,22,1,2,13,27,627,880.4919812970329,881.5274486974813,"[69, 0, 185]",185,a,0.5122801156248897,colour,0.06
132,22,1,2,13,28,628,882.0388922847342,882.6075073333923,"[95, 0, 159]",159,l,0.045429339399561286,colour,0.06
132,22,1,2,13,29,629,883.11697302619,883.8954504493158,"[77, 0, 177]",177,a,0.25519758462905884,colour,0.06
132,22,1,2,13,30,630,884.4137902786024,885.1354802399874,"[71, 0, 183]",183,a,0.19831756898202002,colour,0.06
132,22,1,2,13,31,631,885.6482172170654,886.3195181372575,"[67, 0, 187]",187,a,0.14800217701122165,colour,0.06
132,22,1,2,13,32,632,886.8357634940185,887.3994755547028,"[49, 0, 205]",205,a,0.04043891769833863,colour,0.06
132,22,1,2,13,33,633,887.913670549402,888.6794318694156,"[75, 0, 179]",179,a,0.24232630617916584,colour,0.06
132,22,1,2,13,34,634,889.1950931523461,889.9354612566531,"[79, 0, 175]",175,a,0.2173017302993685,colour,0.06
132,22,1,2,13,35,635,890.4450132015627,891.0394546967,"[78, 0, 176]",176,a,0.07101829652674496,colour,0.06
132,22,1,2,13,36,636,891.5544169032946,892.3274883972481,"[56, 0, 198]",198,a,0.24990862770937383,colour,0.06
132,22,1,2,13,37,637,892.8356855125166,893.759471994359,"[99, 0, 155]",155,l,0.4004719848744571,colour,0.06
132,22,1,2,13,38,638,894.2731892538723,895.2634443242569,"[61, 0, 193]",193,a,0.4668976441025734,colour,0.06
132,22,1,2,13,39,639,895.7732585708145,896.4154467945918,"[73, 0, 181]",181,a,0.11889144987799227,colour,0.06
132,22,1,2,13,40,640,896.9293692477513,897.5515497049782,"[55, 0, 199]",199,a,0.09887777548283339,colour,0.06
132,22,1,2,13,41,641,898.0699942971114,898.6714222249575,"[97, 0, 157]",157,l,0.07803032943047583,colour,0.06
132,22,1,2,13,42,642,899.1793601894751,899.927467365982,"[83, 0, 171]",171,l,0.22475329507142305,colour,0.06
132,22,1,2,13,43,643,900.4450155647937,901.0474273196887,"[93, 0, 161]",161,l,0.07914648856967688,colour,0.06
132,22,1,2,13,44,644,901.554390121717,902.1354877229314,"[57, 0, 197]",197,a,0.05775789823383093,colour,0.06
132,22,1,2,13,45,645,902.6484976352658,903.3595872337464,"[81, 0, 173]",173,a,0.18799762427806854,colour,0.06
132,22,1,2,13,46,646,903.866869444726,904.5674925877247,"[50, 0, 204]",204,a,0.17728737834841013,colour,0.06
132,22,1,2,13,47,647,905.0856465217657,905.7194155009929,"[58, 0, 196]",196,a,0.11044503003358841,colour,0.06
132,22,1,2,13,48,648,906.2261924077757,907.7194773349911,"[91, 0, 163]",163,l,0.9702795990742743,colour,0.06
132,22,1,2,13,49,649,908.2262762971222,908.8474166069645,"[70, 0, 184]",184,a,0.09810465574264526,colour,0.06
132,22,1,2,13,50,650,909.3669619986322,910.0314702582546,"[65, 0, 189]",189,a,0.14125914103351533,colour,0.06
132,22,1,2,14,1,651,914.80357289128,915.8634922159836,"[95, 0, 159]",159,l,0.5359171726740897,colour,0.06
132,22,1,2,14,2,652,916.3824125740211,917.1354597599711,"[89, 0, 165]",165,l,0.22966927965171635,colour,0.06
132,22,1,2,14,3,653,917.6481738940347,918.271416553529,"[85, 0, 169]",169,l,0.09989626100286841,colour,0.06
132,22,1,2,14,4,654,918.7887898846529,920.0394432751928,"[79, 0, 175]",175,l,0.7274176627397537,colour,0.06
132,22,1,2,14,5,655,920.5543672787026,921.4633987168781,"[55, 0, 199]",199,a,0.3856956735253334,colour,0.06
132,22,1,2,14,6,656,921.9762231279165,922.6634917433839,"[86, 0, 168]",168,l,0.1643487522378564,colour,0.06
132,22,1,2,14,7,657,923.1793566448614,923.8953960987274,"[69, 0, 185]",185,a,0.1927009322680533,colour,0.06
132,22,1,2,14,8,658,924.4137150540482,925.0874235543888,"[74, 0, 180]",180,a,0.15039991098456085,colour,0.06
132,22,1,2,14,9,659,925.6012447893154,926.3914123470895,"[59, 0, 195]",195,a,0.2669381315354258,colour,0.06
132,22,1,2,14,10,660,926.8980833094101,927.671397018712,"[73, 0, 181]",181,a,0.249994486104697,colour,0.06
132,22,1,2,14,11,661,928.179381850874,928.8794299787842,"[25, 0, 229]",229,a,0.176803735550493,colour,0.06
132,22,1,2,14,12,662,929.3980616477784,929.9914310942404,"[93, 0, 161]",161,l,0.07012190320529044,colour,0.06
132,22,1,2,14,13,663,930.5076110723894,931.2955404038075,"[75, 0, 179]",179,l,0.2646719419863075,colour,0.06
132,22,1,2,14,14,664,931.8043747616466,932.7834036478307,"[58, 0, 196]",196,a,0.45578882610425353,colour,0.06
132,22,1,2,14,15,665,933.3043121402152,934.1034408742562,"[80, 0, 174]",174,l,0.2758221139665693,colour,0.06
132,22,1,2,14,16,666,934.6168395124841,935.3914099840913,"[72, 0, 182]",182,a,0.2513658576644957,colour,0.06
132,22,1,2,14,17,667,935.8980978818145,936.4634471600875,"[99, 0, 155]",155,l,0.04211788298562169,colour,0.06
132,22,1,2,14,18,668,936.9761565679219,937.943420488853,"[83, 0, 171]",171,l,0.4441656454000622,colour,0.06
132,22,1,2,14,19,669,938.4606213155203,939.4315133451018,"[50, 0, 204]",204,a,0.44762440025806427,colour,0.06
132,22,1,2,14,20,670,939.9449045001529,940.7514745590743,"[64, 0, 190]",190,a,0.28327013412490487,colour,0.06
132,22,1,2,14,21,671,941.2573956386186,941.8154497090727,"[49, 0, 205]",205,a,0.03470570268109441,colour,0.06
132,22,1,2,14,22,672,942.3355315185618,942.9594366271049,"[90, 0, 164]",164,l,0.1004905744921416,colour,0.06
132,22,1,2,14,23,673,943.4762191893533,944.6794318694156,"[62, 0, 192]",192,a,0.680278638144955,colour,0.06
132,22,1,2,14,24,674,945.1949080447666,946.0074295094237,"[54, 0, 200]",200,a,0.28934796433895826,colour,0.06
132,22,1,2,14,25,675,946.5229151372332,947.351442893967,"[81, 0, 173]",173,l,0.30513370293192565,colour,0.06
132,22,1,2,14,26,676,947.8667359310202,948.8714234852232,"[82, 0, 172]",172,a,0.48151917406357825,colour,0.06
132,22,1,2,14,27,677,949.3822869372088,950.7194458271842,"[65, 0, 189]",189,a,0.8135946947149932,colour,0.06
132,22,1,2,14,28,678,951.2260864633135,952.0794796822593,"[66, 0, 188]",188,a,0.33029100485146046,colour,0.06
132,22,1,2,14,29,679,952.6011171832215,953.3034354392439,"[96, 0, 158]",158,l,0.1790289650671184,colour,0.06
132,22,1,2,14,30,680,953.8199206478894,954.9353970596567,"[78, 0, 176]",176,a,0.5920862962957472,colour,0.06
132,22,1,2,14,31,681,955.4448627524544,956.1035046773031,"[60, 0, 194]",194,a,0.1352506277617067,colour,0.06
132,22,1,2,14,32,682,956.6167241155636,957.3433907139115,"[84, 0, 170]",170,l,0.2033717934973538,colour,0.06
132,22,1,2,14,33,683,957.8511128509417,958.5914175459184,"[12, 0, 242]",242,a,0.2169874410610646,colour,0.06
132,22,1,2,14,34,684,959.1011033987161,959.7674765188713,"[91, 0, 163]",163,l,0.14302829699590802,colour,0.06
132,22,1,2,14,35,685,960.2885598787107,960.8554384608287,"[63, 0, 191]",191,a,0.044195814058184624,colour,0.06
132,22,1,2,14,36,686,961.3666784295347,962.1353865046985,"[52, 0, 202]",202,a,0.24545580591075122,colour,0.06
132,22,1,2,14,37,687,962.6479939064011,963.4154133177362,"[57, 0, 197]",197,a,0.24408128368668258,colour,0.06
132,22,1,2,14,38,688,963.9292530633975,964.6074124164879,"[98, 0, 156]",156,l,0.1548645484726876,colour,0.06
132,22,1,2,14,39,689,965.1166851248126,966.2554169567302,"[94, 0, 160]",160,l,0.6154240302275866,colour,0.06
132,22,1,2,14,40,690,966.7728773280978,967.7353698054794,"[87, 0, 167]",167,l,0.4390897590201348,colour,0.06
132,22,1,2,14,41,691,968.2416705526412,970.1114115279634,"[77, 0, 177]",177,a,1.3465182445943356,colour,0.06
132,22,1,2,14,42,692,970.6322707894724,971.351442893967,"[97, 0, 157]",157,l,0.1957910475321114,colour,0.06
132,22,1,2,14,43,693,971.8667182079516,972.6234088623896,"[92, 0, 162]",162,l,0.23343326500616968,colour,0.06
132,22,1,2,14,44,694,973.1322258911096,973.7274586225394,"[71, 0, 183]",183,a,0.0718800313770771,colour,0.06
132,22,1,2,14,45,695,974.2416477096267,974.9273984427564,"[68, 0, 186]",186,a,0.16258826083503664,colour,0.06
132,22,1,2,14,46,696,975.4447910725139,976.4794632983394,"[61, 0, 193]",193,a,0.5113514272961766,colour,0.06
132,22,1,2,14,47,697,976.9916902447585,977.6314094485715,"[88, 0, 166]",166,l,0.11651655891910195,colour,0.06
132,22,1,2,14,48,698,978.1479560972657,978.7514320237096,"[56, 0, 198]",198,a,0.08009644504636526,colour,0.06
132,22,1,2,14,49,699,979.2729214387946,980.0634217963088,"[67, 0, 187]",187,a,0.2672287898603827,colour,0.06
132,22,1,2,14,50,700,980.5697583833244,981.2793742103968,"[70, 0, 184]",184,a,0.1862568254582584,colour,0.06
132,22,1,2,15,1,701,985.7721400484443,986.4954495041166,"[51, 0, 203]",203,a,0.1992088423576206,colour,0.06
132,22,1,2,15,2,702,987.0073326232377,987.575417555403,"[76, 0, 178]",178,a,0.04484369046986103,colour,0.06
132,22,1,2,15,3,703,988.0854350263253,988.6634633864742,"[77, 0, 177]",177,a,0.054737493861466646,colour,0.06
132,22,1,2,15,4,704,989.179163266439,990.1593697520439,"[66, 0, 188]",188,a,0.45694121927954257,colour,0.06
132,22,1,2,15,5,705,990.6790931618307,991.4553752879146,"[92, 0, 162]",162,l,0.25299598602578044,colour,0.06
132,22,1,2,15,6,706,991.9759533433244,992.7913900555577,"[55, 0, 199]",199,a,0.29218011046759784,colour,0.06
132,22,1,2,15,7,707,993.3041557832621,994.2954305207822,"[60, 0, 194]",194,a,0.4678936805576086,colour,0.06
132,22,1,2,15,8,708,994.8041223064065,995.7513615253847,"[53, 0, 201]",201,a,0.4239491403568536,colour,0.06
132,22,1,2,15,9,709,996.2573082048912,996.8953842832707,"[87, 0, 167]",167,l,0.11480766138993204,colour,0.06
132,22,1,2,15,10,710,997.4135185249615,997.9834372035693,"[52, 0, 202]",202,a,0.04664829233661294,colour,0.06
132,22,1,2,15,11,711,998.4916843371466,999.1834132578224,"[80, 0, 174]",174,l,0.16857393132522702,colour,0.06
132,22,1,2,15,12,712,999.694752081763,1000.6634291219525,"[95, 0, 159]",159,a,0.4453956261277199,colour,0.06
132,22,1,2,15,13,713,1001.1790332973469,1002.1354172246065,"[58, 0, 196]",196,a,0.43300602119416,colour,0.06
132,22,1,2,15,14,714,1002.6478785094805,1003.3834223949816,"[91, 0, 163]",163,l,0.2121581023093313,colour,0.06
132,22,1,2,15,15,715,1003.8978714202531,1004.5673854616471,"[71, 0, 183]",183,a,0.14621687354519963,colour,0.06
132,22,1,2,15,16,716,1005.0853109648451,1005.8473551671486,"[90, 0, 164]",164,l,0.23873758222907782,colour,0.06
132,22,1,2,15,17,717,1006.36655554967,1007.0154509693384,"[86, 0, 168]",168,l,0.1256399997510016,colour,0.06
132,22,1,2,15,18,718,1007.5228087988216,1008.2316664722748,"[29, 0, 225]",225,a,0.18555538565851748,colour,0.06
132,22,1,2,15,19,719,1008.7415445218794,1009.3834109734744,"[68, 0, 186]",186,a,0.11858109920285642,colour,0.06
132,22,1,2,15,20,720,1009.8978958388325,1010.5594597063027,"[98, 0, 156]",156,l,0.13833247194997966,colour,0.06
132,22,1,2,15,21,721,1011.0697107280139,1011.7433743299916,"[65, 0, 189]",189,a,0.1504093634430319,colour,0.06
132,22,1,2,15,22,722,1012.2571408203803,1012.9114216892049,"[43, 0, 211]",211,a,0.13095022412016988,colour,0.06
132,22,1,2,15,23,723,1013.4290462941863,1013.9833982128184,"[97, 0, 157]",157,l,0.03102875710465014,colour,0.06
132,22,1,2,15,24,724,1014.4915720911231,1015.1194058125839,"[59, 0, 195]",195,a,0.10490283044055104,colour,0.06
132,22,1,2,15,25,725,1015.6321861126926,1016.3273796958383,"[83, 0, 171]",171,a,0.17186490772292018,colour,0.06
132,22,1,2,15,26,726,1016.835376343457,1017.5034177948255,"[74, 0, 180]",180,a,0.14477145904675126,colour,0.06
132,22,1,2,15,27,727,1018.0228446386755,1018.5674059416633,"[57, 0, 197]",197,a,0.021232233615592122,colour,0.06
132,22,1,2,15,28,728,1019.0852837895509,1019.6633885556366,"[61, 0, 193]",193,a,0.0547894814517349,colour,0.06
132,22,1,2,15,29,729,1020.179122700356,1020.7113964043092,"[84, 0, 170]",170,l,0.009045065380632877,colour,0.06
132,22,1,2,15,30,730,1021.2259399525356,1021.815357549116,"[93, 0, 161]",161,l,0.0661369701847434,colour,0.06
132,22,1,2,15,31,731,1022.3352680357639,1022.9273389722221,"[81, 0, 173]",173,a,0.068708784179762,colour,0.06
132,22,1,2,15,32,732,1023.4446358971763,1023.9834108159412,"[96, 0, 158]",158,l,0.015267437091097236,colour,0.06
132,22,1,2,15,33,733,1024.4915271927603,1025.1673983009532,"[62, 0, 192]",192,a,0.1526338050607592,colour,0.06
132,22,1,2,15,34,734,1025.6790644112043,1026.2874181193765,"[72, 0, 182]",182,a,0.08507347595877945,colour,0.06
132,22,1,2,15,35,735,1026.8039482266176,1027.9913708358072,"[63, 0, 191]",191,a,0.6639785368461162,colour,0.06
132,22,1,2,15,36,736,1028.5072042294778,1029.1673856980633,"[89, 0, 165]",165,l,0.13689847919158638,colour,0.06
132,22,1,2,15,37,737,1029.6790273895022,1030.3193972266745,"[64, 0, 190]",190,a,0.117021469399333,colour,0.06
132,22,1,2,15,38,738,1030.8353345957585,1031.6634645680897,"[67, 0, 187]",187,a,0.3048469831701368,colour,0.06
132,22,1,2,15,39,739,1032.1790025772061,1033.4074355745688,"[94, 0, 160]",160,l,0.7049767158459872,colour,0.06
132,22,1,2,15,40,740,1033.9289883987512,1035.2314140170347,"[82, 0, 172]",172,a,0.7790528319310397,colour,0.06
132,22,1,2,15,41,741,1035.7415527927224,1036.4713918198831,"[70, 0, 184]",184,a,0.20652059186249971,colour,0.06
132,22,1,2,15,42,742,1036.991536644986,1037.7113814381883,"[78, 0, 176]",176,a,0.1965763762127608,colour,0.06
132,22,1,2,15,43,743,1038.2258556697052,1038.9753865990788,"[50, 0, 204]",204,a,0.22641138616017997,colour,0.06
132,22,1,2,15,44,744,1039.4914649650455,1040.01623866125,"[69, 0, 185]",185,a,0.0014280853793025017,colour,0.06
132,22,1,2,15,45,745,1040.5383893435355,1041.1433488875628,"[88, 0, 166]",166,l,0.08166316407732666,colour,0.06
132,22,1,2,15,46,746,1041.6634704757016,1042.207387052942,"[73, 0, 181]",181,a,0.020638708025217056,colour,0.06
132,22,1,2,15,47,747,1042.7259092326276,1043.8153776351828,"[56, 0, 198]",198,a,0.5664012408815324,colour,0.06
132,22,1,2,15,48,748,1044.3352692173794,1045.343383624684,"[4, 0, 250]",250,a,0.4847431965172291,colour,0.06
132,22,1,2,15,49,749,1045.8509923340753,1046.6553674896713,"[75, 0, 179]",179,a,0.2811642400920391,colour,0.06
132,22,1,2,15,50,750,1047.1634622048587,1047.7193887196481,"[54, 0, 200]",200,a,0.0326868484262377,colour,0.06
132,22,1,2,16,1,751,1052.4281743192114,1053.1513447475154,"[94, 0, 160]",160,l,0.19900049781426787,colour,0.06
132,22,1,2,16,2,752,1053.663364924956,1054.391308371909,"[88, 0, 166]",166,l,0.20496805128641427,colour,0.06
132,22,1,2,16,3,753,1054.8978454265743,1055.6553698529024,"[57, 0, 197]",197,a,0.23424773872829974,colour,0.06
132,22,1,2,16,4,754,1056.163333417382,1056.911399239907,"[52, 0, 202]",202,a,0.22466428554616868,colour,0.06
132,22,1,2,16,5,755,1057.4289635864552,1058.095380029874,"[96, 0, 158]",158,l,0.14301530015654862,colour,0.06
132,22,1,2,16,6,756,1058.6164732356556,1059.1433839399833,"[70, 0, 184]",184,a,0.0036261396016925573,colour,0.06
132,22,1,2,16,7,757,1059.6633751650807,1060.207344911294,"[58, 0, 196]",196,a,0.020646190969273448,colour,0.06
132,22,1,2,16,8,758,1060.7257603588514,1061.271377562778,"[99, 0, 155]",155,l,0.022450792836025357,colour,0.06
132,22,1,2,16,9,759,1061.788412974216,1062.415393625386,"[73, 0, 181]",181,a,0.1041576738934964,colour,0.06
132,22,1,2,16,10,760,1062.9288812726736,1063.495392790297,"[97, 0, 157]",157,l,0.04312849137932062,colour,0.06
132,22,1,2,16,11,761,1064.007063232595,1065.0393617490772,"[54, 0, 200]",200,a,0.5090048932470381,colour,0.06
132,22,1,2,16,12,762,1065.5539175064769,1066.231445130892,"[60, 0, 194]",194,a,0.15414026589132845,colour,0.06
132,22,1,2,16,13,763,1066.7414366081357,1067.7593684128951,"[17, 0, 237]",237,a,0.49463148624636233,colour,0.06
132,22,1,2,16,14,764,1068.2734235923272,1068.9673537176568,"[92, 0, 162]",162,l,0.17176014464348555,colour,0.06
132,22,1,2,16,15,765,1069.4758249495644,1070.0713877240196,"[63, 0, 191]",191,a,0.07240739115513861,colour,0.06
132,22,1,2,16,16,766,1070.5851581527386,1071.3353578327224,"[56, 0, 198]",198,a,0.2268020815681666,colour,0.06
132,22,1,2,16,17,767,1071.8508639403153,1072.5193835208192,"[62, 0, 192]",192,a,0.14529330492950976,colour,0.06
132,22,1,2,16,18,768,1073.038563029375,1073.9913448418956,"[75, 0, 179]",179,a,0.429737493628636,colour,0.06
132,22,1,2,16,19,769,1074.5070569312666,1075.1273626815528,"[69, 0, 185]",185,a,0.09699085960164666,colour,0.06
132,22,1,2,16,20,770,1075.647607149789,1076.1833923838567,"[82, 0, 172]",172,a,0.012263574171811342,colour,0.06
132,22,1,2,16,21,771,1076.6945618542377,1077.3033279192168,"[86, 0, 168]",168,l,0.08546495880000293,colour,0.06
132,22,1,2,16,22,772,1077.8195090789814,1078.4873378535267,"[71, 0, 183]",183,a,0.14458359451964498,colour,0.06
132,22,1,2,16,23,773,1079.0070006111637,1079.799329989357,"[85, 0, 169]",169,a,0.2688774289563298,colour,0.06
132,22,1,2,16,24,774,1080.319599663373,1081.0233834199607,"[53, 0, 201]",201,a,0.18090012692846358,colour,0.06
132,22,1,2,16,25,775,1081.538395644864,1082.287339744158,"[61, 0, 193]",193,a,0.2257020699325949,colour,0.06
132,22,1,2,16,26,776,1082.8039285342675,1083.391429282492,"[78, 0, 176]",176,a,0.06411693431437016,colour,0.06
132,22,1,2,16,27,777,1083.8977548419498,1084.5033847119194,"[46, 0, 208]",208,a,0.0822992252651602,colour,0.06
132,22,1,2,16,28,778,1085.0227796542458,1085.7833583557513,"[72, 0, 182]",182,a,0.2373441553208977,colour,0.06
132,22,1,2,16,29,779,1086.3039765835274,1086.8713478667196,"[80, 0, 174]",174,a,0.044023309368640184,colour,0.06
132,22,1,2,16,30,780,1087.3820711097214,1088.0153706248384,"[74, 0, 180]",180,a,0.1099594181869179,colour,0.06
132,22,1,2,16,31,781,1088.5226307804696,1089.1433319521602,"[90, 0, 164]",164,l,0.09733193018473685,colour,0.06
132,22,1,2,16,32,782,1089.663373195799,1090.38338813046,"[77, 0, 177]",177,l,0.19668428995646536,colour,0.06
132,22,1,2,16,33,783,1090.8976650449913,1092.1193546124268,"[93, 0, 161]",161,l,0.6982588858809322,colour,0.06
132,22,1,2,16,34,784,1092.6320644142106,1093.6873355691787,"[84, 0, 170]",170,a,0.5319976177997887,colour,0.06
132,22,1,2,16,35,785,1094.194566580467,1094.7913849356119,"[37, 0, 217]",217,a,0.0737417412456125,colour,0.06
132,22,1,2,16,36,786,1095.3039533465635,1096.127342595486,"[83, 0, 171]",171,l,0.3000479703769088,colour,0.06
132,22,1,2,16,37,787,1096.6475925773848,1097.4153577852994,"[98, 0, 156]",156,l,0.24432468018494546,colour,0.06
132,22,1,2,16,38,788,1097.928841888206,1098.4953916089144,"[87, 0, 167]",167,l,0.04316590679809451,colour,0.06
132,22,1,2,16,39,789,1099.0070057311095,1099.687408037018,"[64, 0, 190]",190,a,0.15706575335934758,colour,0.06
132,22,1,2,16,40,790,1100.1945205004886,1101.1033463513013,"[55, 0, 199]",199,a,0.3857035506516695,colour,0.06
132,22,1,2,16,41,791,1101.616408251226,1102.343366295565,"[81, 0, 173]",173,a,0.2036632397212088,colour,0.06
132,22,1,2,16,42,792,1102.8509316819254,1103.4713343183976,"[51, 0, 203]",203,l,0.0971452472731471,colour,0.06
132,22,1,2,16,43,793,1103.9914937156718,1104.5673177202698,"[95, 0, 159]",159,l,0.05262529826723039,colour,0.06
132,22,1,2,16,44,794,1105.085253857309,1105.6553359820973,"[68, 0, 186]",186,a,0.04676526482217014,colour,0.06
132,22,1,2,16,45,795,1106.163332629716,1107.031316658482,"[65, 0, 189]",189,a,0.3446246334351599,colour,0.06
132,22,1,2,16,46,796,1107.5383405066095,1108.183357331669,"[76, 0, 178]",178,a,0.12150855595245957,colour,0.06
132,22,1,2,16,47,797,1108.6945338912774,1109.2633690997027,"[79, 0, 175]",175,a,0.04545021313242614,colour,0.06
132,22,1,2,16,48,798,1109.7727190018632,1110.7353193932213,"[89, 0, 165]",165,l,0.43926068814471364,colour,0.06
132,22,1,2,16,49,799,1111.2414799311664,1112.3833129059058,"[66, 0, 188]",188,a,0.6185334438923746,colour,0.06
132,22,1,2,16,50,800,1112.8976981281303,1113.7113140905276,"[91, 0, 163]",163,l,0.2902514471206814,colour,0.06
